Letter,CorrAnswer,Stimulus,nback_run.thisRepN,nback_run.thisTrialN,nback_run.thisN,nback_run.thisIndex,fixcross.started,nback_trial.started,trial_resp.keys,trial_resp.corr,currentlevel,trial_resp.rt,Participant,date,expName,psychopyVersion,frameRate,
H,left,Distractor,0,0,0,0,237.89292946078058,239.83255100430324,None,0,1,,B01J08,2022-11-14_15h11.52.112,t1_Paradigm,2021.1.4,59.977295815848585,
Q,left,Pretarget,0,1,1,1,241.33408187122404,243.3350994550201,left,1,1,0.7739395249809604,B01J08,2022-11-14_15h11.52.112,t1_Paradigm,2021.1.4,59.977295815848585,
Q,right,Target,0,2,2,2,244.83131752079134,246.83130148069176,right,1,1,0.7016763185310992,B01J08,2022-11-14_15h11.52.112,t1_Paradigm,2021.1.4,59.977295815848585,
T,left,Distractor,0,3,3,3,248.3314249894429,250.33349897407606,left,1,1,0.7834971775846498,B01J08,2022-11-14_15h11.52.112,t1_Paradigm,2021.1.4,59.977295815848585,
Q,left,Lure,0,4,4,4,251.83133901451947,253.83138424759818,None,0,1,,B01J08,2022-11-14_15h11.52.112,t1_Paradigm,2021.1.4,59.977295815848585,
L,left,Distractor,0,5,5,5,255.33145771124327,257.33315218716234,left,1,1,0.8399567173983087,B01J08,2022-11-14_15h11.52.112,t1_Paradigm,2021.1.4,59.977295815848585,
V,left,Pretarget,0,6,6,6,258.8311401173087,260.8339262822774,left,1,1,0.6030544195600669,B01J08,2022-11-14_15h11.52.112,t1_Paradigm,2021.1.4,59.977295815848585,
V,right,Target,0,7,7,7,262.3311365884874,264.3311773303358,right,1,1,0.7698223527077062,B01J08,2022-11-14_15h11.52.112,t1_Paradigm,2021.1.4,59.977295815848585,
K,left,Distractor,0,8,8,8,265.8312562476167,267.83292858819914,left,1,1,0.5962190923382877,B01J08,2022-11-14_15h11.52.112,t1_Paradigm,2021.1.4,59.977295815848585,
G,left,Pretarget,0,9,9,9,269.3314384631267,271.3336115755592,left,1,1,0.6955663245207688,B01J08,2022-11-14_15h11.52.112,t1_Paradigm,2021.1.4,59.977295815848585,
G,right,Target,0,10,10,10,272.83125945563734,274.8314759969544,right,1,1,0.6854969928026549,B01J08,2022-11-14_15h11.52.112,t1_Paradigm,2021.1.4,59.977295815848585,
G,right,Target,0,11,11,11,276.33131784159195,278.3312450195481,right,1,1,0.7537257938893163,B01J08,2022-11-14_15h11.52.112,t1_Paradigm,2021.1.4,59.977295815848585,
P,left,Pretarget,0,12,12,12,279.8313601874506,281.8336680367029,left,1,1,0.9314404521028337,B01J08,2022-11-14_15h11.52.112,t1_Paradigm,2021.1.4,59.977295815848585,
P,right,Target,0,13,13,13,283.33129570625897,285.33129474384987,right,1,1,0.7462087625135609,B01J08,2022-11-14_15h11.52.112,t1_Paradigm,2021.1.4,59.977295815848585,
G,left,Lure,0,14,14,14,286.83131367116584,288.83217277879885,left,1,1,0.7327286644249398,B01J08,2022-11-14_15h11.52.112,t1_Paradigm,2021.1.4,59.977295815848585,
Y,left,Distractor,0,15,15,15,290.3313707739144,292.33356249286226,left,1,1,0.6715267093313741,B01J08,2022-11-14_15h11.52.112,t1_Paradigm,2021.1.4,59.977295815848585,
B,left,Distractor,0,16,16,16,293.83107980654313,295.83339407183666,left,1,1,0.6595582300469687,B01J08,2022-11-14_15h11.52.112,t1_Paradigm,2021.1.4,59.977295815848585,
T,left,Pretarget,0,17,17,17,297.3313486385814,299.3332388036906,left,1,1,0.7757642464966921,B01J08,2022-11-14_15h11.52.112,t1_Paradigm,2021.1.4,59.977295815848585,
T,right,Target,0,18,18,18,300.8314204982162,302.83130789673305,right,1,1,0.8617045234350371,B01J08,2022-11-14_15h11.52.112,t1_Paradigm,2021.1.4,59.977295815848585,
S,left,Distractor,0,19,19,19,304.33100698449925,306.33396060808445,left,1,1,0.543115140953887,B01J08,2022-11-14_15h11.52.112,t1_Paradigm,2021.1.4,59.977295815848585,
T,left,Lure,0,20,20,20,307.83126394686406,309.8333071345078,left,1,1,0.691964039386221,B01J08,2022-11-14_15h11.52.112,t1_Paradigm,2021.1.4,59.977295815848585,
J,left,Distractor,0,21,21,21,311.33137815236114,313.3329568187728,left,1,1,0.792172304012638,B01J08,2022-11-14_15h11.52.112,t1_Paradigm,2021.1.4,59.977295815848585,
P,left,Distractor,0,22,22,22,314.8312979518705,316.83279481378486,left,1,1,0.5083122994183213,B01J08,2022-11-14_15h11.52.112,t1_Paradigm,2021.1.4,59.977295815848585,
F,left,Distractor,0,23,23,23,318.33140606213055,320.3330835355446,left,1,1,0.512109952946048,B01J08,2022-11-14_15h11.52.112,t1_Paradigm,2021.1.4,59.977295815848585,
L,left,Distractor,0,24,24,24,321.83129410224865,323.83309604681926,left,1,1,0.49985595992257004,B01J08,2022-11-14_15h11.52.112,t1_Paradigm,2021.1.4,59.977295815848585,
W,left,Pretarget,0,25,25,25,325.33135216740266,327.33328788638755,left,1,1,0.5357296383808716,B01J08,2022-11-14_15h11.52.112,t1_Paradigm,2021.1.4,59.977295815848585,
W,right,Target,0,26,26,26,328.83127100450656,330.83143685911637,right,1,1,0.6215569930318452,B01J08,2022-11-14_15h11.52.112,t1_Paradigm,2021.1.4,59.977295815848585,
V,left,Distractor,0,27,27,27,332.33137141551924,334.3319950545156,left,1,1,0.4653642962803133,B01J08,2022-11-14_15h11.52.112,t1_Paradigm,2021.1.4,59.977295815848585,
W,left,Lure,0,28,28,28,335.8312216010054,337.83288335512407,left,1,1,0.6922912573791109,B01J08,2022-11-14_15h11.52.112,t1_Paradigm,2021.1.4,59.977295815848585,
R,left,Pretarget,0,29,29,29,339.33129474384987,341.33424227220166,left,1,1,0.5027749369000958,B01J08,2022-11-14_15h11.52.112,t1_Paradigm,2021.1.4,59.977295815848585,
R,right,Target,0,30,30,30,342.83124309473715,344.83124052832136,right,1,1,0.6536615693366912,B01J08,2022-11-14_15h11.52.112,t1_Paradigm,2021.1.4,59.977295815848585,
G,left,Distractor,0,31,31,31,346.33124052832136,348.33263601681756,left,1,1,0.7203489170351531,B01J08,2022-11-14_15h11.52.112,t1_Paradigm,2021.1.4,59.977295815848585,
R,left,Lure,0,32,32,32,349.8312398867165,351.8323197060927,left,1,1,0.516603746709734,B01J08,2022-11-14_15h11.52.112,t1_Paradigm,2021.1.4,59.977295815848585,
S,left,Distractor,0,33,33,33,353.33122224261024,355.33311208691885,left,1,1,0.567859878839954,B01J08,2022-11-14_15h11.52.112,t1_Paradigm,2021.1.4,59.977295815848585,
R,left,Lure,0,34,34,34,356.8313059719185,358.8330520969539,left,1,1,0.9400424356826989,B01J08,2022-11-14_15h11.52.112,t1_Paradigm,2021.1.4,59.977295815848585,
P,left,Pretarget,0,35,35,35,360.33122224261024,362.3331156157401,left,1,1,0.5439857974561164,B01J08,2022-11-14_15h11.52.112,t1_Paradigm,2021.1.4,59.977295815848585,
P,right,Target,0,36,36,36,363.83139804207894,365.83125143558937,right,1,1,0.4696861402007926,B01J08,2022-11-14_15h11.52.112,t1_Paradigm,2021.1.4,59.977295815848585,
Y,left,Pretarget,0,37,37,37,367.33135794183545,369.3336077259373,left,1,1,0.5353828514671477,B01J08,2022-11-14_15h11.52.112,t1_Paradigm,2021.1.4,59.977295815848585,
Y,right,Target,0,38,38,38,370.83119625765175,372.83121422256227,right,1,1,0.7017430453342968,B01J08,2022-11-14_15h11.52.112,t1_Paradigm,2021.1.4,59.977295815848585,
J,left,Distractor,0,39,39,39,374.3311442877348,376.3331085580976,left,1,1,0.5439967047204846,B01J08,2022-11-14_15h11.52.112,t1_Paradigm,2021.1.4,59.977295815848585,
Y,left,Lure,0,40,40,40,377.83121518496773,379.83294911952544,left,1,1,0.8040249737896374,B01J08,2022-11-14_15h11.52.112,t1_Paradigm,2021.1.4,59.977295815848585,
T,left,Distractor,0,41,41,41,381.3314153653846,383.3332054402854,left,1,1,0.5357851371190918,B01J08,2022-11-14_15h11.52.112,t1_Paradigm,2021.1.4,59.977295815848585,
V,left,Distractor,0,42,42,42,384.83130821753366,386.83280572105286,left,1,1,0.5242494196681946,B01J08,2022-11-14_15h11.52.112,t1_Paradigm,2021.1.4,59.977295815848585,
N,left,Pretarget,0,43,43,43,388.33124598195354,390.3336459013699,left,1,1,0.5275276948341343,B01J08,2022-11-14_15h11.52.112,t1_Paradigm,2021.1.4,59.977295815848585,
N,right,Target,0,44,44,44,391.8312854405958,393.8312674756853,right,1,1,0.4856675311202707,B01J08,2022-11-14_15h11.52.112,t1_Paradigm,2021.1.4,59.977295815848585,
N,right,Target,0,45,45,45,395.3312700421011,397.3312411699262,right,1,1,1.0336890171529376,B01J08,2022-11-14_15h11.52.112,t1_Paradigm,2021.1.4,59.977295815848585,
X,left,Distractor,0,46,46,46,398.83116193184105,400.8331531495678,left,1,1,0.6837896848046512,B01J08,2022-11-14_15h11.52.112,t1_Paradigm,2021.1.4,59.977295815848585,
Z,left,Distractor,0,47,47,47,402.33100024765736,404.3334030542901,left,1,1,0.5595607323011791,B01J08,2022-11-14_15h11.52.112,t1_Paradigm,2021.1.4,59.977295815848585,
H,left,Pretarget,0,48,48,48,405.8312254506309,407.83331515455575,left,1,1,0.547918508604198,B01J08,2022-11-14_15h11.52.112,t1_Paradigm,2021.1.4,59.977295815848585,
H,right,Target,0,49,49,49,409.33127774134846,411.33122192180963,right,1,1,1.0499337864748668,B01J08,2022-11-14_15h11.52.112,t1_Paradigm,2021.1.4,59.977295815848585,
K,left,Distractor,0,50,50,50,412.8311981824627,414.8317836460301,left,1,1,0.5570328129069821,B01J08,2022-11-14_15h11.52.112,t1_Paradigm,2021.1.4,59.977295815848585,
V,left,Pretarget,0,51,51,51,416.3310589544162,418.3332067234951,left,1,1,0.44791844444262097,B01J08,2022-11-14_15h11.52.112,t1_Paradigm,2021.1.4,59.977295815848585,
V,right,Target,0,52,52,52,419.8312645884689,421.8312443779432,left,0,1,0.6938917383231455,B01J08,2022-11-14_15h11.52.112,t1_Paradigm,2021.1.4,59.977295815848585,
R,left,Distractor,0,53,53,53,423.3311693102878,425.3332054402854,left,1,1,0.5197970093577169,B01J08,2022-11-14_15h11.52.112,t1_Paradigm,2021.1.4,59.977295815848585,
V,left,Lure,0,54,54,54,426.8312703629017,428.83344411693906,left,1,1,0.6995102637374657,B01J08,2022-11-14_15h11.52.112,t1_Paradigm,2021.1.4,59.977295815848585,
Y,left,Distractor,0,55,55,55,430.33134543056076,432.3331958162271,left,1,1,0.6877746866703092,B01J08,2022-11-14_15h11.52.112,t1_Paradigm,2021.1.4,59.977295815848585,
Q,left,Distractor,0,56,56,56,433.8311978616621,435.83310535007695,left,1,1,0.7079627536113549,B01J08,2022-11-14_15h11.52.112,t1_Paradigm,2021.1.4,59.977295815848585,
Z,left,Pretarget,0,57,57,57,437.33133388169153,439.33372642266113,left,1,1,0.6312705553864362,B01J08,2022-11-14_15h11.52.112,t1_Paradigm,2021.1.4,59.977295815848585,
Z,right,Target,0,58,58,58,440.8310384230899,442.83119882406754,right,1,1,0.7017366292930092,B01J08,2022-11-14_15h11.52.112,t1_Paradigm,2021.1.4,59.977295815848585,
B,left,Distractor,0,59,59,59,444.331392909251,446.3332471445392,left,1,1,0.5596816746365221,B01J08,2022-11-14_15h11.52.112,t1_Paradigm,2021.1.4,59.977295815848585,
S,left,Pretarget,0,60,60,60,447.8312562476167,449.8324887687231,left,1,1,0.5326422403777542,B01J08,2022-11-14_15h11.52.112,t1_Paradigm,2021.1.4,59.977295815848585,
S,right,Target,0,61,61,61,451.33126234285373,453.3312283378473,left,0,1,0.7777147223714564,B01J08,2022-11-14_15h11.52.112,t1_Paradigm,2021.1.4,59.977295815848585,
T,left,Distractor,0,62,62,62,454.83119754085783,456.83281085388444,left,1,1,0.8443039046724152,B01J08,2022-11-14_15h11.52.112,t1_Paradigm,2021.1.4,59.977295815848585,
D,left,Distractor,0,63,63,63,458.33142691425746,460.3326777210714,left,1,1,0.5446479326892586,B01J08,2022-11-14_15h11.52.112,t1_Paradigm,2021.1.4,59.977295815848585,
R,left,Distractor,0,0,0,0,477.1436685884837,479.13330187335305,left,1,1,0.895835284878558,B01J08,2022-11-14_15h11.52.112,t1_Paradigm,2021.1.4,59.977295815848585,
V,left,Distractor,0,1,1,1,480.63112587370415,482.6334872968837,left,1,1,0.6116429294634145,B01J08,2022-11-14_15h11.52.112,t1_Paradigm,2021.1.4,59.977295815848585,
N,left,Pretarget,0,2,2,2,484.1313340741726,486.1330939936888,left,1,1,0.4718752927328751,B01J08,2022-11-14_15h11.52.112,t1_Paradigm,2021.1.4,59.977295815848585,
N,right,Target,0,3,3,3,487.63123526717027,489.6313398486054,right,1,1,0.46156728436108097,B01J08,2022-11-14_15h11.52.112,t1_Paradigm,2021.1.4,59.977295815848585,
S,left,Distractor,0,4,4,4,491.1311018135566,493.13278762782284,left,1,1,0.48032970741405734,B01J08,2022-11-14_15h11.52.112,t1_Paradigm,2021.1.4,59.977295815848585,
N,left,Lure,0,5,5,5,494.6311954877274,496.6331321691214,left,1,1,0.7079390142680495,B01J08,2022-11-14_15h11.52.112,t1_Paradigm,2021.1.4,59.977295815848585,
Z,left,Distractor,0,6,6,6,498.1313424150212,500.1331475676161,left,1,1,0.5357995732047129,B01J08,2022-11-14_15h11.52.112,t1_Paradigm,2021.1.4,59.977295815848585,
L,left,Pretarget,0,7,7,7,501.6310318787291,503.63196060038536,left,1,1,0.47700010393964476,B01J08,2022-11-14_15h11.52.112,t1_Paradigm,2021.1.4,59.977295815848585,
L,right,Target,0,8,8,8,505.13132894134105,507.13130391878803,right,1,1,0.641746984780184,B01J08,2022-11-14_15h11.52.112,t1_Paradigm,2021.1.4,59.977295815848585,
H,left,Distractor,0,9,9,9,508.631359096722,510.63242480081317,left,1,1,0.5807092802861007,B01J08,2022-11-14_15h11.52.112,t1_Paradigm,2021.1.4,59.977295815848585,
L,left,Lure,0,10,10,10,512.130789031653,514.1320067958659,left,1,1,0.6491401866041997,B01J08,2022-11-14_15h11.52.112,t1_Paradigm,2021.1.4,59.977295815848585,
X,left,Pretarget,0,11,11,11,515.6313937433333,517.6330176428237,left,1,1,0.6679241033889411,B01J08,2022-11-14_15h11.52.112,t1_Paradigm,2021.1.4,59.977295815848585,
X,right,Target,0,12,12,12,519.1312365503763,521.1311114376149,right,1,1,0.8819939637905918,B01J08,2022-11-14_15h11.52.112,t1_Paradigm,2021.1.4,59.977295815848585,
X,right,Target,0,13,13,13,522.6312442496237,524.6313456230419,right,1,1,0.7733899912345805,B01J08,2022-11-14_15h11.52.112,t1_Paradigm,2021.1.4,59.977295815848585,
R,left,Distractor,0,14,14,14,526.1312609313245,528.1331687405436,left,1,1,0.6960581139173883,B01J08,2022-11-14_15h11.52.112,t1_Paradigm,2021.1.4,59.977295815848585,
T,left,Distractor,0,15,15,15,529.6310286707121,531.6304541144127,left,1,1,0.6225376846086874,B01J08,2022-11-14_15h11.52.112,t1_Paradigm,2021.1.4,59.977295815848585,
V,left,Pretarget,0,16,16,16,533.1309946657057,535.1335437580274,left,1,1,0.7517496538566775,B01J08,2022-11-14_15h11.52.112,t1_Paradigm,2021.1.4,59.977295815848585,
V,right,Target,0,17,17,17,536.6312346255654,538.6312320591496,right,1,1,0.6462154351902427,B01J08,2022-11-14_15h11.52.112,t1_Paradigm,2021.1.4,59.977295815848585,
N,left,Distractor,0,18,18,18,540.1310232170763,542.1307688211273,left,1,1,0.42630505442866706,B01J08,2022-11-14_15h11.52.112,t1_Paradigm,2021.1.4,59.977295815848585,
B,left,Distractor,0,19,19,19,543.631258685713,545.6330596678781,left,1,1,0.4440085102360172,B01J08,2022-11-14_15h11.52.112,t1_Paradigm,2021.1.4,59.977295815848585,
V,left,Lure,0,20,20,20,547.1312914075097,549.133300590147,left,1,1,0.5918221807587543,B01J08,2022-11-14_15h11.52.112,t1_Paradigm,2021.1.4,59.977295815848585,
P,left,Distractor,0,21,21,21,550.6312343047648,552.6330901440633,left,1,1,0.6440926886680245,B01J08,2022-11-14_15h11.52.112,t1_Paradigm,2021.1.4,59.977295815848585,
K,left,Pretarget,0,22,22,22,554.1311502546523,556.1313311869526,left,1,1,0.5696082494869188,B01J08,2022-11-14_15h11.52.112,t1_Paradigm,2021.1.4,59.977295815848585,
K,right,Target,0,23,23,23,557.6309831168328,559.6312683097713,right,1,1,0.7979528344112623,B01J08,2022-11-14_15h11.52.112,t1_Paradigm,2021.1.4,59.977295815848585,
J,left,Pretarget,0,24,24,24,561.1311287609205,563.133074424768,left,1,1,0.4638898905031965,B01J08,2022-11-14_15h11.52.112,t1_Paradigm,2021.1.4,59.977295815848585,
J,right,Target,0,25,25,25,564.631307126805,566.6313517182789,left,0,1,0.5817759467827273,B01J08,2022-11-14_15h11.52.112,t1_Paradigm,2021.1.4,59.977295815848585,
H,left,Distractor,0,26,26,26,568.1311990165486,570.1332893620784,left,1,1,0.7596689708807389,B01J08,2022-11-14_15h11.52.112,t1_Paradigm,2021.1.4,59.977295815848585,
J,left,Lure,0,27,27,27,571.6312044701808,573.6326115075499,left,1,1,0.7644739425413718,B01J08,2022-11-14_15h11.52.112,t1_Paradigm,2021.1.4,59.977295815848585,
V,left,Distractor,0,28,28,28,575.1311871468752,577.1302840893768,left,1,1,0.5308502406660409,B01J08,2022-11-14_15h11.52.112,t1_Paradigm,2021.1.4,59.977295815848585,
Z,left,Pretarget,0,29,29,29,578.6312173022598,580.6333121390162,left,1,1,0.5641709771771275,B01J08,2022-11-14_15h11.52.112,t1_Paradigm,2021.1.4,59.977295815848585,
Z,right,Target,0,30,30,30,582.1312782546302,584.1312140942391,right,1,1,0.7460445119104406,B01J08,2022-11-14_15h11.52.112,t1_Paradigm,2021.1.4,59.977295815848585,
T,left,Distractor,0,31,31,31,585.6311913173013,587.6320010214331,left,1,1,0.5730023341529886,B01J08,2022-11-14_15h11.52.112,t1_Paradigm,2021.1.4,59.977295815848585,
Z,left,Lure,0,32,32,32,589.1310007609427,591.1329932618755,left,1,1,0.6720396716518735,B01J08,2022-11-14_15h11.52.112,t1_Paradigm,2021.1.4,59.977295815848585,
F,left,Distractor,0,33,33,33,592.6310613925089,594.633380790634,left,1,1,0.5797141526272753,B01J08,2022-11-14_15h11.52.112,t1_Paradigm,2021.1.4,59.977295815848585,
Y,left,Pretarget,0,34,34,34,596.1312217934865,598.1313327909629,left,1,1,0.5856088885266217,B01J08,2022-11-14_15h11.52.112,t1_Paradigm,2021.1.4,59.977295815848585,
Y,right,Target,0,35,35,35,599.6313430566261,601.631303918788,left,0,1,0.5736192363110604,B01J08,2022-11-14_15h11.52.112,t1_Paradigm,2021.1.4,59.977295815848585,
Y,right,Target,0,36,36,36,603.1311483298414,605.1311993373492,right,1,1,0.657815313032188,B01J08,2022-11-14_15h11.52.112,t1_Paradigm,2021.1.4,59.977295815848585,
W,left,Distractor,0,37,37,37,606.6309783048055,608.6329874874391,left,1,1,0.708028838813334,B01J08,2022-11-14_15h11.52.112,t1_Paradigm,2021.1.4,59.977295815848585,
Q,left,Distractor,0,38,38,38,610.1314008009758,612.1331668157327,left,1,1,0.5197213000938063,B01J08,2022-11-14_15h11.52.112,t1_Paradigm,2021.1.4,59.977295815848585,
P,left,Pretarget,0,39,39,39,613.631181693243,615.6328572418461,left,1,1,0.42828311927223695,B01J08,2022-11-14_15h11.52.112,t1_Paradigm,2021.1.4,59.977295815848585,
P,right,Target,0,40,40,40,617.1311720691847,619.1310934727044,right,1,1,0.5459705991415831,B01J08,2022-11-14_15h11.52.112,t1_Paradigm,2021.1.4,59.977295815848585,
J,left,Distractor,0,41,41,41,620.631318034073,622.6321312670261,left,1,1,0.5969485959794838,B01J08,2022-11-14_15h11.52.112,t1_Paradigm,2021.1.4,59.977295815848585,
P,left,Lure,0,42,42,42,624.1311996581535,626.1332194272509,left,1,1,0.5837261018568825,B01J08,2022-11-14_15h11.52.112,t1_Paradigm,2021.1.4,59.977295815848585,
L,left,Distractor,0,43,43,43,627.6311319689412,629.6327696629123,left,1,1,0.5722218230002909,B01J08,2022-11-14_15h11.52.112,t1_Paradigm,2021.1.4,59.977295815848585,
Z,left,Distractor,0,44,44,44,631.1313103348257,633.1321572519846,left,1,1,0.6727569848226267,B01J08,2022-11-14_15h11.52.112,t1_Paradigm,2021.1.4,59.977295815848585,
F,left,Pretarget,0,45,45,45,634.6309927408911,636.6333201590642,left,1,1,0.5639399997671717,B01J08,2022-11-14_15h11.52.112,t1_Paradigm,2021.1.4,59.977295815848585,
F,right,Target,0,46,46,46,638.1312914075097,640.1310450316123,right,1,1,0.6660018580842006,B01J08,2022-11-14_15h11.52.112,t1_Paradigm,2021.1.4,59.977295815848585,
G,left,Pretarget,0,47,47,47,641.6312259639126,643.6329425751646,left,1,1,0.6040020685322816,B01J08,2022-11-14_15h11.52.112,t1_Paradigm,2021.1.4,59.977295815848585,
G,right,Target,0,48,48,48,645.130961623101,647.1312673473658,right,1,1,0.7856529667114955,B01J08,2022-11-14_15h11.52.112,t1_Paradigm,2021.1.4,59.977295815848585,
V,left,Distractor,0,49,49,49,648.6311858636691,650.6332181440448,left,1,1,0.6596794931829209,B01J08,2022-11-14_15h11.52.112,t1_Paradigm,2021.1.4,59.977295815848585,
G,left,Lure,0,50,50,50,652.1311682195592,654.1437077263217,left,1,1,0.5732159882572887,B01J08,2022-11-14_15h11.52.112,t1_Paradigm,2021.1.4,59.977295815848585,
Q,left,Pretarget,0,51,51,51,655.6312622145342,657.631280821046,left,1,1,0.4938011438534886,B01J08,2022-11-14_15h11.52.112,t1_Paradigm,2021.1.4,59.977295815848585,
Q,right,Target,0,52,52,52,659.1312580441081,661.1313279789356,right,1,1,0.5459410853654845,B01J08,2022-11-14_15h11.52.112,t1_Paradigm,2021.1.4,59.977295815848585,
Y,left,Distractor,0,53,53,53,662.631074545392,664.632543497537,left,1,1,0.45273111535061616,B01J08,2022-11-14_15h11.52.112,t1_Paradigm,2021.1.4,59.977295815848585,
V,left,Distractor,0,54,54,54,666.130850304824,668.1335495324638,left,1,1,0.5034110871711164,B01J08,2022-11-14_15h11.52.112,t1_Paradigm,2021.1.4,59.977295815848585,
B,left,Distractor,0,55,55,55,669.6311698235695,671.631330866152,left,1,1,0.5256311136836302,B01J08,2022-11-14_15h11.52.112,t1_Paradigm,2021.1.4,59.977295815848585,
J,left,Pretarget,0,56,56,56,673.1311499338481,675.1330327205142,left,1,1,0.6079026994848391,B01J08,2022-11-14_15h11.52.112,t1_Paradigm,2021.1.4,59.977295815848585,
J,right,Target,0,57,57,57,676.6312705553828,678.6311483298414,right,1,1,0.48576473411230836,B01J08,2022-11-14_15h11.52.112,t1_Paradigm,2021.1.4,59.977295815848585,
H,left,Distractor,0,58,58,58,680.1308859138408,682.1333602593113,left,1,1,0.5037107161952008,B01J08,2022-11-14_15h11.52.112,t1_Paradigm,2021.1.4,59.977295815848585,
J,left,Lure,0,59,59,59,683.6311916381019,685.6331360187432,left,1,1,0.7640710152882093,B01J08,2022-11-14_15h11.52.112,t1_Paradigm,2021.1.4,59.977295815848585,
D,left,Pretarget,0,60,60,60,687.1311852220642,689.133256640278,left,1,1,0.6077641130395932,B01J08,2022-11-14_15h11.52.112,t1_Paradigm,2021.1.4,59.977295815848585,
D,right,Target,0,61,61,61,690.6310504852445,692.630999477733,right,1,1,0.5018741250132734,B01J08,2022-11-14_15h11.52.112,t1_Paradigm,2021.1.4,59.977295815848585,
R,left,Distractor,0,62,62,62,694.1310767910036,696.1331693821485,left,1,1,0.4238733756210422,B01J08,2022-11-14_15h11.52.112,t1_Paradigm,2021.1.4,59.977295815848585,
F,left,Distractor,0,63,63,63,697.6312217934865,699.6329695225286,left,1,1,0.475929587821156,B01J08,2022-11-14_15h11.52.112,t1_Paradigm,2021.1.4,59.977295815848585,
F,left,Distractor,0,0,0,0,819.0068991668122,820.997816942705,left,1,2,0.4550303029536735,B01J08,2022-11-14_15h11.52.112,t1_Paradigm,2021.1.4,59.977295815848585,
N,left,Pretarget,0,1,1,1,822.4978631381855,824.4999550877255,left,1,2,0.3291116865584627,B01J08,2022-11-14_15h11.52.112,t1_Paradigm,2021.1.4,59.977295815848585,
V,left,Distractor,0,2,2,2,825.9978778950754,827.9993728321788,left,1,2,0.5093160887336126,B01J08,2022-11-14_15h11.52.112,t1_Paradigm,2021.1.4,59.977295815848585,
N,right,Target,0,3,3,3,829.4976000805837,831.4993391479729,right,1,2,0.673652343073627,B01J08,2022-11-14_15h11.52.112,t1_Paradigm,2021.1.4,59.977295815848585,
N,left,Lure,0,4,4,4,832.9977855041143,834.9979760604729,left,1,2,1.0793692905244825,B01J08,2022-11-14_15h11.52.112,t1_Paradigm,2021.1.4,59.977295815848585,
X,left,Distractor,0,5,5,5,836.49796739882,838.499099829718,left,1,2,0.7619886898064578,B01J08,2022-11-14_15h11.52.112,t1_Paradigm,2021.1.4,59.977295815848585,
G,left,Pretarget,0,6,6,6,839.9978057146363,841.9995832782624,left,1,2,1.0054071169288363,B01J08,2022-11-14_15h11.52.112,t1_Paradigm,2021.1.4,59.977295815848585,
H,left,Pretarget,0,7,7,7,843.4977973737841,845.4993574336877,left,1,2,0.6094909899547929,B01J08,2022-11-14_15h11.52.112,t1_Paradigm,2021.1.4,59.977295815848585,
G,right,Target,0,8,8,8,846.9977332133967,848.9997690225937,right,1,2,0.5811981824626855,B01J08,2022-11-14_15h11.52.112,t1_Paradigm,2021.1.4,59.977295815848585,
H,right,Target,0,9,9,9,850.4977601607607,852.4997135238555,right,1,2,0.7931921334238723,B01J08,2022-11-14_15h11.52.112,t1_Paradigm,2021.1.4,59.977295815848585,
T,left,Pretarget,0,10,10,10,853.9976475592739,855.9995290627303,left,1,2,0.6533860004601593,B01J08,2022-11-14_15h11.52.112,t1_Paradigm,2021.1.4,59.977295815848585,
K,left,Distractor,0,11,11,11,857.4977903161416,859.4990212332377,left,1,2,1.1858415341012005,B01J08,2022-11-14_15h11.52.112,t1_Paradigm,2021.1.4,59.977295815848585,
T,right,Target,0,12,12,12,860.9977415542453,863.0105806900319,right,1,2,0.650507123729767,B01J08,2022-11-14_15h11.52.112,t1_Paradigm,2021.1.4,59.977295815848585,
T,left,Lure,0,13,13,13,864.4978589677594,866.4978833487112,left,1,2,0.9710607765737223,B01J08,2022-11-14_15h11.52.112,t1_Paradigm,2021.1.4,59.977295815848585,
J,left,Distractor,0,14,14,14,867.9975352785914,869.9992464362113,left,1,2,0.6217260556622932,B01J08,2022-11-14_15h11.52.112,t1_Paradigm,2021.1.4,59.977295815848585,
Q,left,Pretarget,0,15,15,15,871.4978191883201,873.4985615240403,left,1,2,0.4986734839185374,B01J08,2022-11-14_15h11.52.112,t1_Paradigm,2021.1.4,59.977295815848585,
M,left,Distractor,0,16,16,16,874.9977662559977,877.0002717192547,left,1,2,0.5485434308102413,B01J08,2022-11-14_15h11.52.112,t1_Paradigm,2021.1.4,59.977295815848585,
Q,right,Target,0,17,17,17,878.4977848625094,880.4997356591884,right,1,2,0.8572431306674844,B01J08,2022-11-14_15h11.52.112,t1_Paradigm,2021.1.4,59.977295815848585,
R,left,Distractor,0,18,18,18,881.9978660254055,883.9995066065931,left,1,2,0.4456529410490475,B01J08,2022-11-14_15h11.52.112,t1_Paradigm,2021.1.4,59.977295815848585,
W,left,Distractor,0,19,19,19,885.4977717096299,887.4999258947464,left,1,2,0.6252831077217706,B01J08,2022-11-14_15h11.52.112,t1_Paradigm,2021.1.4,59.977295815848585,
C,left,Pretarget,0,20,20,20,888.9978445316738,890.999597714348,left,1,2,0.5814166485943133,B01J08,2022-11-14_15h11.52.112,t1_Paradigm,2021.1.4,59.977295815848585,
T,left,Distractor,0,21,21,21,892.4977842209046,894.4991110577866,left,1,2,0.6337606201486778,B01J08,2022-11-14_15h11.52.112,t1_Paradigm,2021.1.4,59.977295815848585,
C,right,Target,0,22,22,22,895.9975567723195,897.9997590777311,right,1,2,0.9254722525583929,B01J08,2022-11-14_15h11.52.112,t1_Paradigm,2021.1.4,59.977295815848585,
F,left,Pretarget,0,23,23,23,899.4975959101575,901.4996965213504,left,1,2,0.7052911149403371,B01J08,2022-11-14_15h11.52.112,t1_Paradigm,2021.1.4,59.977295815848585,
C,right,Target,0,24,24,24,902.9977158900911,904.9992615139017,right,1,2,0.6777493048211909,B01J08,2022-11-14_15h11.52.112,t1_Paradigm,2021.1.4,59.977295815848585,
F,right,Target,0,25,25,25,906.4977832584991,908.4997234687144,right,1,2,0.6974622640664165,B01J08,2022-11-14_15h11.52.112,t1_Paradigm,2021.1.4,59.977295815848585,
H,left,Distractor,0,26,26,26,909.9977784464718,911.999577503826,left,1,2,0.7813914335602021,B01J08,2022-11-14_15h11.52.112,t1_Paradigm,2021.1.4,59.977295815848585,
H,left,Lure,0,27,27,27,913.4976911883386,915.4975208425021,left,1,2,0.67549374628652,B01J08,2022-11-14_15h11.52.112,t1_Paradigm,2021.1.4,59.977295815848585,
P,left,Distractor,0,28,28,28,916.997607779831,918.9992945565027,left,1,2,0.9495933514408534,B01J08,2022-11-14_15h11.52.112,t1_Paradigm,2021.1.4,59.977295815848585,
G,left,Pretarget,0,29,29,29,920.4978859151233,922.4994610527174,left,1,2,0.6654641940112924,B01J08,2022-11-14_15h11.52.112,t1_Paradigm,2021.1.4,59.977295815848585,
K,left,Distractor,0,30,30,30,923.9974204314894,925.9992538146544,left,1,2,0.7016317270572472,B01J08,2022-11-14_15h11.52.112,t1_Paradigm,2021.1.4,59.977295815848585,
G,right,Target,0,31,31,31,927.4977694640147,929.4996163208634,right,1,2,0.9614886878807738,B01J08,2022-11-14_15h11.52.112,t1_Paradigm,2021.1.4,59.977295815848585,
M,left,Pretarget,0,32,32,32,930.9978021858151,932.999491208102,left,1,2,1.2373664982660557,B01J08,2022-11-14_15h11.52.112,t1_Paradigm,2021.1.4,59.977295815848585,
B,left,Distractor,0,33,33,33,934.4975583763298,936.4997773634423,left,1,2,0.6330808408056328,B01J08,2022-11-14_15h11.52.112,t1_Paradigm,2021.1.4,59.977295815848585,
M,right,Target,0,34,34,34,937.9977620855716,939.9994395589856,right,1,2,0.6053863289598667,B01J08,2022-11-14_15h11.52.112,t1_Paradigm,2021.1.4,59.977295815848585,
M,left,Lure,0,35,35,35,941.4978300955845,943.4977316093864,left,1,2,0.9153288155866903,B01J08,2022-11-14_15h11.52.112,t1_Paradigm,2021.1.4,59.977295815848585,
T,left,Distractor,0,36,36,36,944.997634727195,946.9993564712786,left,1,2,0.7257646956168173,B01J08,2022-11-14_15h11.52.112,t1_Paradigm,2021.1.4,59.977295815848585,
F,left,Distractor,0,37,37,37,948.4978384364367,950.4992826868292,left,1,2,0.5536133848836471,B01J08,2022-11-14_15h11.52.112,t1_Paradigm,2021.1.4,59.977295815848585,
X,left,Distractor,0,38,38,38,951.9977146068813,953.9998813032762,left,1,2,0.7329628498519014,B01J08,2022-11-14_15h11.52.112,t1_Paradigm,2021.1.4,59.977295815848585,
C,left,Distractor,0,39,39,39,955.4977636895819,957.4979670780194,left,1,2,0.883092068877886,B01J08,2022-11-14_15h11.52.112,t1_Paradigm,2021.1.4,59.977295815848585,
R,left,Distractor,0,40,40,40,958.9977935241623,960.9994899248923,left,1,2,0.5652645910377032,B01J08,2022-11-14_15h11.52.112,t1_Paradigm,2021.1.4,59.977295815848585,
B,left,Pretarget,0,41,41,41,962.4978778950754,964.4994478998378,left,1,2,0.6653538381397084,B01J08,2022-11-14_15h11.52.112,t1_Paradigm,2021.1.4,59.977295815848585,
H,left,Distractor,0,42,42,42,965.997738025424,967.9999525213098,left,1,2,0.764968939954997,B01J08,2022-11-14_15h11.52.112,t1_Paradigm,2021.1.4,59.977295815848585,
B,right,Target,0,43,43,43,969.4978146970898,971.5105226248779,right,1,2,0.9186696471297182,B01J08,2022-11-14_15h11.52.112,t1_Paradigm,2021.1.4,59.977295815848585,
W,left,Pretarget,0,44,44,44,972.9977470078775,974.999836711806,left,1,2,0.8051240412860352,B01J08,2022-11-14_15h11.52.112,t1_Paradigm,2021.1.4,59.977295815848585,
L,left,Pretarget,0,45,45,45,976.4974640605578,978.4995341955619,left,1,2,0.68151391574429,B01J08,2022-11-14_15h11.52.112,t1_Paradigm,2021.1.4,59.977295815848585,
W,right,Target,0,46,46,46,979.9975407322236,981.9995425364141,right,1,2,0.6533074039834901,B01J08,2022-11-14_15h11.52.112,t1_Paradigm,2021.1.4,59.977295815848585,
L,right,Target,0,47,47,47,983.4977033788127,985.4996663659658,right,1,2,0.737244272724638,B01J08,2022-11-14_15h11.52.112,t1_Paradigm,2021.1.4,59.977295815848585,
W,right,Target,0,48,48,48,986.9979285817863,988.9985567120093,right,1,2,0.9826131757181429,B01J08,2022-11-14_15h11.52.112,t1_Paradigm,2021.1.4,59.977295815848585,
X,left,Distractor,0,49,49,49,990.4976520505006,992.4992226968643,left,1,2,0.5858238258333586,B01J08,2022-11-14_15h11.52.112,t1_Paradigm,2021.1.4,59.977295815848585,
R,left,Distractor,0,50,50,50,993.9977531031145,995.9984822859551,left,1,2,0.49470580535853514,B01J08,2022-11-14_15h11.52.112,t1_Paradigm,2021.1.4,59.977295815848585,
V,left,Pretarget,0,51,51,51,997.4978839903124,999.498489022797,left,1,2,0.5943969372383435,B01J08,2022-11-14_15h11.52.112,t1_Paradigm,2021.1.4,59.977295815848585,
Z,left,Distractor,0,52,52,52,1000.9976430680472,1002.9996519298802,left,1,2,0.5495019870468241,B01J08,2022-11-14_15h11.52.112,t1_Paradigm,2021.1.4,59.977295815848585,
V,right,Target,0,53,53,53,1004.497840040447,1006.4999034386092,right,1,2,0.7930057474877685,B01J08,2022-11-14_15h11.52.112,t1_Paradigm,2021.1.4,59.977295815848585,
V,left,Lure,0,54,54,54,1007.9975266169386,1009.9975121808493,left,1,2,1.071362715370924,B01J08,2022-11-14_15h11.52.112,t1_Paradigm,2021.1.4,59.977295815848585,
N,left,Distractor,0,55,55,55,1011.4978111682685,1013.4991662357206,left,1,2,0.6897719996377418,B01J08,2022-11-14_15h11.52.112,t1_Paradigm,2021.1.4,59.977295815848585,
B,left,Distractor,0,56,56,56,1014.9977146068813,1016.9987880102199,left,1,2,0.9984521305741509,B01J08,2022-11-14_15h11.52.112,t1_Paradigm,2021.1.4,59.977295815848585,
V,left,Lure,0,57,57,57,1018.4977348174034,1020.5000160400959,left,1,2,0.8409800756307959,B01J08,2022-11-14_15h11.52.112,t1_Paradigm,2021.1.4,59.977295815848585,
J,left,Distractor,0,58,58,58,1021.997875007859,1023.9989913986574,left,1,2,0.669877145683131,B01J08,2022-11-14_15h11.52.112,t1_Paradigm,2021.1.4,59.977295815848585,
H,left,Distractor,0,59,59,59,1025.4977162108917,1027.499550556462,left,1,2,0.6574367667271872,B01J08,2022-11-14_15h11.52.112,t1_Paradigm,2021.1.4,59.977295815848585,
X,left,Pretarget,0,60,60,60,1028.9975824364774,1030.9982519501536,left,1,2,0.5987489365434158,B01J08,2022-11-14_15h11.52.112,t1_Paradigm,2021.1.4,59.977295815848585,
P,left,Distractor,0,61,61,61,1032.4976292735628,1034.499466185549,left,1,2,0.5855161767576647,B01J08,2022-11-14_15h11.52.112,t1_Paradigm,2021.1.4,59.977295815848585,
X,right,Target,0,62,62,62,1035.997821113131,1037.9996811228557,right,1,2,0.6372153363881807,B01J08,2022-11-14_15h11.52.112,t1_Paradigm,2021.1.4,59.977295815848585,
Q,left,Distractor,0,63,63,63,1039.4977829376985,1041.4997504160783,left,1,2,0.577251356029592,B01J08,2022-11-14_15h11.52.112,t1_Paradigm,2021.1.4,59.977295815848585,
B,left,Pretarget,0,0,0,0,1082.1461984326888,1084.1496050286332,left,1,2,0.5031829969848332,B01J08,2022-11-14_15h11.52.112,t1_Paradigm,2021.1.4,59.977295815848585,
F,left,Distractor,0,1,1,1,1085.647629851006,1087.6491401866042,left,1,2,0.29965340557100717,B01J08,2022-11-14_15h11.52.112,t1_Paradigm,2021.1.4,59.977295815848585,
B,right,Target,0,2,2,2,1089.147820086564,1091.1490275851174,right,1,2,0.5281163664185442,B01J08,2022-11-14_15h11.52.112,t1_Paradigm,2021.1.4,59.977295815848585,
V,left,Distractor,0,3,3,3,1092.6475618409931,1094.6490141114336,left,1,2,0.5638806514070893,B01J08,2022-11-14_15h11.52.112,t1_Paradigm,2021.1.4,59.977295815848585,
G,left,Pretarget,0,4,4,4,1096.1477344324412,1098.1486958758978,left,1,2,0.6000712821951311,B01J08,2022-11-14_15h11.52.112,t1_Paradigm,2021.1.4,59.977295815848585,
B,left,Lure,0,5,5,5,1099.6477982720317,1101.6479695802736,left,1,2,0.5409285548412299,B01J08,2022-11-14_15h11.52.112,t1_Paradigm,2021.1.4,59.977295815848585,
G,right,Target,0,6,6,6,1103.1475628033986,1105.1480177005687,right,1,2,0.5770553460388328,B01J08,2022-11-14_15h11.52.112,t1_Paradigm,2021.1.4,59.977295815848585,
Y,left,Pretarget,0,7,7,7,1106.647633700628,1108.6486323571116,left,1,2,0.5804067640456196,B01J08,2022-11-14_15h11.52.112,t1_Paradigm,2021.1.4,59.977295815848585,
P,left,Distractor,0,8,8,8,1110.1477029938505,1112.1497211589412,left,1,2,0.5671258839684015,B01J08,2022-11-14_15h11.52.112,t1_Paradigm,2021.1.4,59.977295815848585,
Y,right,Target,0,9,9,9,1113.6476702720502,1115.6468342621592,right,1,2,0.9260830594757863,B01J08,2022-11-14_15h11.52.112,t1_Paradigm,2021.1.4,59.977295815848585,
X,left,Distractor,0,10,10,10,1117.147514362303,1119.1496242767498,left,1,2,0.6233563711939496,B01J08,2022-11-14_15h11.52.112,t1_Paradigm,2021.1.4,59.977295815848585,
Y,right,Target,0,11,11,11,1120.6477536805614,1122.6493650687735,right,1,2,0.6276217539634672,B01J08,2022-11-14_15h11.52.112,t1_Paradigm,2021.1.4,59.977295815848585,
N,left,Distractor,0,12,12,12,1124.1476333798273,1126.1492316151598,left,1,2,0.6318043698374822,B01J08,2022-11-14_15h11.52.112,t1_Paradigm,2021.1.4,59.977295815848585,
Y,right,Target,0,13,13,13,1127.6476442870953,1129.6496990236046,right,1,2,0.5872510737244738,B01J08,2022-11-14_15h11.52.112,t1_Paradigm,2021.1.4,59.977295815848585,
Y,left,Lure,0,14,14,14,1131.1475053798495,1133.1478001968426,left,1,2,0.9132179387306678,B01J08,2022-11-14_15h11.52.112,t1_Paradigm,2021.1.4,59.977295815848585,
K,left,Distractor,0,15,15,15,1134.647697219414,1136.6495877053276,left,1,2,0.6591636436423869,B01J08,2022-11-14_15h11.52.112,t1_Paradigm,2021.1.4,59.977295815848585,
T,left,Pretarget,0,16,16,16,1138.1474197257266,1140.149878993503,left,1,2,0.7428525324758084,B01J08,2022-11-14_15h11.52.112,t1_Paradigm,2021.1.4,59.977295815848585,
J,left,Distractor,0,17,17,17,1141.647469770829,1143.6483500513932,left,1,2,0.6684595218503091,B01J08,2022-11-14_15h11.52.112,t1_Paradigm,2021.1.4,59.977295815848585,
T,right,Target,0,18,18,18,1145.1476247181745,1147.1496541113338,right,1,2,0.9913274399877992,B01J08,2022-11-14_15h11.52.112,t1_Paradigm,2021.1.4,59.977295815848585,
S,left,Pretarget,0,19,19,19,1148.6476240765696,1150.6500647378343,left,1,2,0.7069105232039874,B01J08,2022-11-14_15h11.52.112,t1_Paradigm,2021.1.4,59.977295815848585,
R,left,Distractor,0,20,20,20,1152.147681820923,1154.1495889885373,left,1,2,0.5512689642091573,B01J08,2022-11-14_15h11.52.112,t1_Paradigm,2021.1.4,59.977295815848585,
S,right,Target,0,21,21,21,1155.6477472645201,1157.6492887179083,right,1,2,0.7155930280750908,B01J08,2022-11-14_15h11.52.112,t1_Paradigm,2021.1.4,59.977295815848585,
Q,left,Distractor,0,22,22,22,1159.147796988822,1161.1484822217972,left,1,2,0.5924685966965626,B01J08,2022-11-14_15h11.52.112,t1_Paradigm,2021.1.4,59.977295815848585,
D,left,Distractor,0,23,23,23,1162.6474774700764,1164.6479339712569,left,1,2,0.5970332876968314,B01J08,2022-11-14_15h11.52.112,t1_Paradigm,2021.1.4,59.977295815848585,
F,left,Distractor,0,24,24,24,1166.1477158259295,1168.1493974697696,left,1,2,0.5034505458133935,B01J08,2022-11-14_15h11.52.112,t1_Paradigm,2021.1.4,59.977295815848585,
Z,left,Distractor,0,25,25,25,1169.647749830936,1171.6481553246049,left,1,2,0.7809006065726862,B01J08,2022-11-14_15h11.52.112,t1_Paradigm,2021.1.4,59.977295815848585,
P,left,Distractor,0,26,26,26,1173.1478027632584,1175.1499588731895,left,1,2,0.6869126918209076,B01J08,2022-11-14_15h11.52.112,t1_Paradigm,2021.1.4,59.977295815848585,
H,left,Distractor,0,27,27,27,1176.6474181217163,1178.6489688783586,left,1,2,0.628002225083037,B01J08,2022-11-14_15h11.52.112,t1_Paradigm,2021.1.4,59.977295815848585,
Z,left,Pretarget,0,28,28,28,1180.1475605577834,1182.1500929684044,left,1,2,0.47078905731541454,B01J08,2022-11-14_15h11.52.112,t1_Paradigm,2021.1.4,59.977295815848585,
J,left,Pretarget,0,29,29,29,1183.6476510239336,1185.64927620663,left,1,2,0.6035670610799571,B01J08,2022-11-14_15h11.52.112,t1_Paradigm,2021.1.4,59.977295815848585,
Z,right,Target,0,30,30,30,1187.1474521267228,1189.1496271639699,right,1,2,0.8794066960326745,B01J08,2022-11-14_15h11.52.112,t1_Paradigm,2021.1.4,59.977295815848585,
J,right,Target,0,31,31,31,1190.647479394891,1192.6487164072241,left,0,2,0.7402367133436201,B01J08,2022-11-14_15h11.52.112,t1_Paradigm,2021.1.4,59.977295815848585,
V,left,Pretarget,0,32,32,32,1194.1475900715632,1196.1496874747354,left,1,2,0.4711971174037899,B01J08,2022-11-14_15h11.52.112,t1_Paradigm,2021.1.4,59.977295815848585,
Z,left,Lure,0,33,33,33,1197.6477251291872,1199.6494808782772,left,1,2,1.035552234898205,B01J08,2022-11-14_15h11.52.112,t1_Paradigm,2021.1.4,59.977295815848585,
V,right,Target,0,34,34,34,1201.147677650497,1203.1490304723338,right,1,2,1.039910971041536,B01J08,2022-11-14_15h11.52.112,t1_Paradigm,2021.1.4,59.977295815848585,
X,left,Distractor,0,35,35,35,1204.647638512659,1206.6495392642319,left,1,2,0.7394228387893236,B01J08,2022-11-14_15h11.52.112,t1_Paradigm,2021.1.4,59.977295815848585,
S,left,Distractor,0,36,36,36,1208.1475470841033,1210.1492636953553,left,1,2,0.5515827085182536,B01J08,2022-11-14_15h11.52.112,t1_Paradigm,2021.1.4,59.977295815848585,
Q,left,Distractor,0,37,37,37,1211.6477671542416,1213.6500182215495,left,1,2,0.554915520016948,B01J08,2022-11-14_15h11.52.112,t1_Paradigm,2021.1.4,59.977295815848585,
P,left,Distractor,0,38,38,38,1215.1476462119062,1217.1503342114738,left,1,2,0.4946169432187162,B01J08,2022-11-14_15h11.52.112,t1_Paradigm,2021.1.4,59.977295815848585,
S,left,Lure,0,39,39,39,1218.6476795753078,1220.648457840849,left,1,2,0.6287124806076463,B01J08,2022-11-14_15h11.52.112,t1_Paradigm,2021.1.4,59.977295815848585,
K,left,Pretarget,0,40,40,40,1222.1476292094012,1224.1497442566833,left,1,2,0.48709060858527664,B01J08,2022-11-14_15h11.52.112,t1_Paradigm,2021.1.4,59.977295815848585,
L,left,Distractor,0,41,41,41,1225.647900287051,1227.6467348135557,left,1,2,0.5741511259511753,B01J08,2022-11-14_15h11.52.112,t1_Paradigm,2021.1.4,59.977295815848585,
K,right,Target,0,42,42,42,1229.1476231141642,1231.1496351840178,left,0,2,0.351126079014648,B01J08,2022-11-14_15h11.52.112,t1_Paradigm,2021.1.4,59.977295815848585,
B,left,Distractor,0,43,43,43,1232.6476763672872,1234.647304557824,left,1,2,0.5498721925032442,B01J08,2022-11-14_15h11.52.112,t1_Paradigm,2021.1.4,59.977295815848585,
N,left,Distractor,0,44,44,44,1236.1477976304268,1238.1499890285704,left,1,2,0.6790366830609855,B01J08,2022-11-14_15h11.52.112,t1_Paradigm,2021.1.4,59.977295815848585,
S,left,Pretarget,0,45,45,45,1239.6476686680435,1241.6494847279027,left,1,2,0.6513607777269499,B01J08,2022-11-14_15h11.52.112,t1_Paradigm,2021.1.4,59.977295815848585,
Z,left,Distractor,0,46,46,46,1243.1466565378796,1245.148856597676,left,1,2,0.448119587268593,B01J08,2022-11-14_15h11.52.112,t1_Paradigm,2021.1.4,59.977295815848585,
S,right,Target,0,47,47,47,1246.6476221517587,1248.6485518358204,right,1,2,0.6286778339963348,B01J08,2022-11-14_15h11.52.112,t1_Paradigm,2021.1.4,59.977295815848585,
C,left,Distractor,0,48,48,48,1250.1476465327069,1252.1495078256412,left,1,2,0.6153754601909895,B01J08,2022-11-14_15h11.52.112,t1_Paradigm,2021.1.4,59.977295815848585,
T,left,Pretarget,0,49,49,49,1253.647812066516,1255.6490904622988,left,1,2,0.9398438592725142,B01J08,2022-11-14_15h11.52.112,t1_Paradigm,2021.1.4,59.977295815848585,
S,left,Lure,0,50,50,50,1257.1478191241586,1259.1483911140422,left,1,2,0.8163691121626471,B01J08,2022-11-14_15h11.52.112,t1_Paradigm,2021.1.4,59.977295815848585,
T,right,Target,0,51,51,51,1260.6476131693053,1262.6492223119021,right,1,2,0.6436689092843153,B01J08,2022-11-14_15h11.52.112,t1_Paradigm,2021.1.4,59.977295815848585,
N,left,Pretarget,0,52,52,52,1264.1477803071211,1266.1494734998341,left,1,2,0.5513565431392635,B01J08,2022-11-14_15h11.52.112,t1_Paradigm,2021.1.4,59.977295815848585,
B,left,Distractor,0,53,53,53,1267.6477395652728,1269.6484453295707,left,1,2,0.6843494842141808,B01J08,2022-11-14_15h11.52.112,t1_Paradigm,2021.1.4,59.977295815848585,
N,right,Target,0,54,54,54,1271.147754642967,1273.1495075048406,right,1,2,0.7033547543469467,B01J08,2022-11-14_15h11.52.112,t1_Paradigm,2021.1.4,59.977295815848585,
N,left,Lure,0,55,55,55,1274.6476224725593,1276.647735715651,right,0,2,1.2851011873499374,B01J08,2022-11-14_15h11.52.112,t1_Paradigm,2021.1.4,59.977295815848585,
X,left,Distractor,0,56,56,56,1278.147716788335,1280.160490801325,left,1,2,0.6206096648638777,B01J08,2022-11-14_15h11.52.112,t1_Paradigm,2021.1.4,59.977295815848585,
W,left,Distractor,0,57,57,57,1281.6476545527548,1283.6496557153441,left,1,2,0.7312609954860818,B01J08,2022-11-14_15h11.52.112,t1_Paradigm,2021.1.4,59.977295815848585,
S,left,Distractor,0,58,58,58,1285.1478649988385,1287.149378221653,left,1,2,0.6716085138286871,B01J08,2022-11-14_15h11.52.112,t1_Paradigm,2021.1.4,59.977295815848585,
L,left,Distractor,0,59,59,59,1288.6476455703014,1290.6497833945214,left,1,2,0.7551504753646441,B01J08,2022-11-14_15h11.52.112,t1_Paradigm,2021.1.4,59.977295815848585,
K,left,Pretarget,0,60,60,60,1292.1477084474827,1294.1498449884966,left,1,2,0.6150395805452717,B01J08,2022-11-14_15h11.52.112,t1_Paradigm,2021.1.4,59.977295815848585,
V,left,Pretarget,0,61,61,61,1295.6477854399527,1297.6490131490282,left,1,2,0.5559263669711072,B01J08,2022-11-14_15h11.52.112,t1_Paradigm,2021.1.4,59.977295815848585,
K,right,Target,0,62,62,62,1299.1476215101538,1301.1495139208782,right,1,2,0.9274464677801006,B01J08,2022-11-14_15h11.52.112,t1_Paradigm,2021.1.4,59.977295815848585,
V,right,Target,0,63,63,63,1302.6476494199233,1304.6495925173585,None,0,2,,B01J08,2022-11-14_15h11.52.112,t1_Paradigm,2021.1.4,59.977295815848585,
R,left,Distractor,0,0,0,0,1412.9899803925837,1414.982841265908,left,1,3,0.7581188558397116,B01J08,2022-11-14_15h11.52.112,t1_Paradigm,2021.1.4,59.977295815848585,
P,left,Lure,0,1,1,1,1416.4808785995556,1418.4810579278492,left,1,3,0.41163381868682336,B01J08,2022-11-14_15h11.52.112,t1_Paradigm,2021.1.4,59.977295815848585,
V,left,Distractor,0,2,2,2,1419.981045737375,1421.9936263067866,left,1,3,0.5953221300769655,B01J08,2022-11-14_15h11.52.112,t1_Paradigm,2021.1.4,59.977295815848585,
P,left,Pretarget,0,3,3,3,1423.480722369004,1425.4828887445983,left,1,3,1.1059653764859831,B01J08,2022-11-14_15h11.52.112,t1_Paradigm,2021.1.4,59.977295815848585,
Z,left,Distractor,0,4,4,4,1426.9808779579544,1428.9825432408943,left,1,3,0.7582773320064007,B01J08,2022-11-14_15h11.52.112,t1_Paradigm,2021.1.4,59.977295815848585,
L,left,Pretarget,0,5,5,5,1430.4809260782458,1432.482912163141,left,1,3,0.7620249404280912,B01J08,2022-11-14_15h11.52.112,t1_Paradigm,2021.1.4,59.977295815848585,
P,right,Target,0,6,6,6,1433.980948534383,1435.9832916718515,right,1,3,0.6055903590022353,B01J08,2022-11-14_15h11.52.112,t1_Paradigm,2021.1.4,59.977295815848585,
S,left,Distractor,0,7,7,7,1437.480920303813,1439.4829897972122,left,1,3,0.689843538471905,B01J08,2022-11-14_15h11.52.112,t1_Paradigm,2021.1.4,59.977295815848585,
L,right,Target,0,8,8,8,1440.9807268602344,1442.9801593615775,right,1,3,0.7448546574669308,B01J08,2022-11-14_15h11.52.112,t1_Paradigm,2021.1.4,59.977295815848585,
D,left,Distractor,0,9,9,9,1444.4806447349329,1446.4828037320804,left,1,3,0.6019858282561472,B01J08,2022-11-14_15h11.52.112,t1_Paradigm,2021.1.4,59.977295815848585,
G,left,Distractor,0,10,10,10,1447.9810550406328,1449.9826356318554,left,1,3,0.9902938160921622,B01J08,2022-11-14_15h11.52.112,t1_Paradigm,2021.1.4,59.977295815848585,
M,left,Pretarget,0,11,11,11,1451.4808583890335,1453.4828990102615,left,1,3,0.7379680019294028,B01J08,2022-11-14_15h11.52.112,t1_Paradigm,2021.1.4,59.977295815848585,
Y,left,Distractor,0,12,12,12,1454.9809751609464,1456.9829326944673,left,1,3,0.9019225019474106,B01J08,2022-11-14_15h11.52.112,t1_Paradigm,2021.1.4,59.977295815848585,
V,left,Distractor,0,13,13,13,1458.480680023149,1460.4828820077564,left,1,3,0.7941195718703966,B01J08,2022-11-14_15h11.52.112,t1_Paradigm,2021.1.4,59.977295815848585,
M,right,Target,0,14,14,14,1461.9809280030568,1463.9829590002264,right,1,3,0.9739188011772058,B01J08,2022-11-14_15h11.52.112,t1_Paradigm,2021.1.4,59.977295815848585,
S,left,Pretarget,0,15,15,15,1465.480705045702,1467.4816244641006,left,1,3,0.8351312144150143,B01J08,2022-11-14_15h11.52.112,t1_Paradigm,2021.1.4,59.977295815848585,
Q,left,Distractor,0,16,16,16,1468.9809475719776,1470.982396634401,left,1,3,0.6946084098890424,B01J08,2022-11-14_15h11.52.112,t1_Paradigm,2021.1.4,59.977295815848585,
R,left,Pretarget,0,17,17,17,1472.4808760331434,1474.4829028598833,left,1,3,0.7300599129739567,B01J08,2022-11-14_15h11.52.112,t1_Paradigm,2021.1.4,59.977295815848585,
S,right,Target,0,18,18,18,1475.9810717223336,1477.9830459375553,right,1,3,0.8779428767193167,B01J08,2022-11-14_15h11.52.112,t1_Paradigm,2021.1.4,59.977295815848585,
F,left,Distractor,0,19,19,19,1479.4809324942871,1481.4816729051927,left,1,3,0.7072364579871646,B01J08,2022-11-14_15h11.52.112,t1_Paradigm,2021.1.4,59.977295815848585,
R,right,Target,0,20,20,20,1482.9809886346266,1484.9825711506637,right,1,3,0.7102555251731246,B01J08,2022-11-14_15h11.52.112,t1_Paradigm,2021.1.4,59.977295815848585,
P,left,Distractor,0,21,21,21,1486.480851331391,1488.482887140588,left,1,3,0.5859056303306716,B01J08,2022-11-14_15h11.52.112,t1_Paradigm,2021.1.4,59.977295815848585,
L,left,Distractor,0,22,22,22,1489.9808609554493,1491.982554468963,left,1,3,0.638261792359117,B01J08,2022-11-14_15h11.52.112,t1_Paradigm,2021.1.4,59.977295815848585,
R,right,Target,0,23,23,23,1493.480874429133,1495.4829018974779,right,1,3,0.7060148441487399,B01J08,2022-11-14_15h11.52.112,t1_Paradigm,2021.1.4,59.977295815848585,
H,left,Pretarget,0,24,24,24,1496.9810569654437,1498.9828120729326,left,1,3,0.5339697188610444,B01J08,2022-11-14_15h11.52.112,t1_Paradigm,2021.1.4,59.977295815848585,
G,left,Pretarget,0,25,25,25,1500.4807974366631,1502.482761707026,left,1,3,0.6983024443834438,B01J08,2022-11-14_15h11.52.112,t1_Paradigm,2021.1.4,59.977295815848585,
T,left,Distractor,0,26,26,26,1503.981019431616,1505.9827293060262,left,1,3,0.6380827848697663,B01J08,2022-11-14_15h11.52.112,t1_Paradigm,2021.1.4,59.977295815848585,
H,right,Target,0,27,27,27,1507.4804455169215,1509.4827511205585,right,1,3,0.6581755736260675,B01J08,2022-11-14_15h11.52.112,t1_Paradigm,2021.1.4,59.977295815848585,
G,right,Target,0,28,28,28,1510.9809995418946,1512.9815827598468,right,1,3,0.7913269908640359,B01J08,2022-11-14_15h11.52.112,t1_Paradigm,2021.1.4,59.977295815848585,
D,left,Distractor,0,29,29,29,1514.480915491782,1516.4829224288042,left,1,3,0.5698886303944164,B01J08,2022-11-14_15h11.52.112,t1_Paradigm,2021.1.4,59.977295815848585,
N,left,Pretarget,0,30,30,30,1517.9809389103248,1519.9804034918634,left,1,3,0.5603678700172168,B01J08,2022-11-14_15h11.52.112,t1_Paradigm,2021.1.4,59.977295815848585,
V,left,Distractor,0,31,31,31,1521.480644093328,1523.4815811558365,left,1,3,0.8994228131232376,B01J08,2022-11-14_15h11.52.112,t1_Paradigm,2021.1.4,59.977295815848585,
R,left,Distractor,0,32,32,32,1524.9807878126048,1526.9828220177915,left,1,3,0.7900761840501218,B01J08,2022-11-14_15h11.52.112,t1_Paradigm,2021.1.4,59.977295815848585,
N,right,Target,0,33,33,33,1528.4808474817692,1530.482827150623,right,1,3,0.7621343338905717,B01J08,2022-11-14_15h11.52.112,t1_Paradigm,2021.1.4,59.977295815848585,
Z,left,Distractor,0,34,34,34,1531.9808625594596,1533.9825791707117,left,1,3,0.7502008220253629,B01J08,2022-11-14_15h11.52.112,t1_Paradigm,2021.1.4,59.977295815848585,
N,left,Lure,0,35,35,35,1535.4808461985594,1537.4826965842294,left,1,3,0.882065502624755,B01J08,2022-11-14_15h11.52.112,t1_Paradigm,2021.1.4,59.977295815848585,
Y,left,Pretarget,0,36,36,36,1538.9806857975818,1540.980022058342,left,1,3,1.0168783531844383,B01J08,2022-11-14_15h11.52.112,t1_Paradigm,2021.1.4,59.977295815848585,
Y,left,Lure,0,37,37,37,1542.481022639633,1544.4809847850047,left,1,3,0.6837935344301513,B01J08,2022-11-14_15h11.52.112,t1_Paradigm,2021.1.4,59.977295815848585,
B,left,Distractor,0,38,38,38,1545.98091003815,1547.9827463085312,left,1,3,0.5422582789360604,B01J08,2022-11-14_15h11.52.112,t1_Paradigm,2021.1.4,59.977295815848585,
Y,right,Target,0,39,39,39,1549.480896564466,1551.483285897415,right,1,3,0.6576061501582444,B01J08,2022-11-14_15h11.52.112,t1_Paradigm,2021.1.4,59.977295815848585,
J,left,Distractor,0,40,40,40,1552.980898489277,1554.982835170671,left,1,3,0.6461329890917114,B01J08,2022-11-14_15h11.52.112,t1_Paradigm,2021.1.4,59.977295815848585,
X,left,Distractor,0,41,41,41,1556.481054399028,1558.4824749100771,left,1,3,0.6985825044866942,B01J08,2022-11-14_15h11.52.112,t1_Paradigm,2021.1.4,59.977295815848585,
W,left,Pretarget,0,42,42,42,1559.9807384091037,1561.9826398022815,left,1,3,1.4062574987437984,B01J08,2022-11-14_15h11.52.112,t1_Paradigm,2021.1.4,59.977295815848585,
S,left,Pretarget,0,43,43,43,1563.481025526853,1565.4823199627353,left,1,3,0.8344353949760261,B01J08,2022-11-14_15h11.52.112,t1_Paradigm,2021.1.4,59.977295815848585,
R,left,Distractor,0,44,44,44,1566.981022639633,1568.9828903486086,left,1,3,0.8539507402201707,B01J08,2022-11-14_15h11.52.112,t1_Paradigm,2021.1.4,59.977295815848585,
W,right,Target,0,45,45,45,1570.4809629704723,1572.483236814718,right,1,3,0.6175168132322142,B01J08,2022-11-14_15h11.52.112,t1_Paradigm,2021.1.4,59.977295815848585,
S,right,Target,0,46,46,46,1573.980968103304,1575.9826603336078,right,1,3,0.5741588251985377,B01J08,2022-11-14_15h11.52.112,t1_Paradigm,2021.1.4,59.977295815848585,
D,left,Distractor,0,47,47,47,1577.4806803439496,1579.4822917321617,left,1,3,0.6428181425071671,B01J08,2022-11-14_15h11.52.112,t1_Paradigm,2021.1.4,59.977295815848585,
T,left,Distractor,0,48,48,48,1580.9807085745233,1582.982835170671,left,1,3,0.6781435704215255,B01J08,2022-11-14_15h11.52.112,t1_Paradigm,2021.1.4,59.977295815848585,
S,right,Target,0,49,49,49,1584.4808991308819,1586.481671301186,right,1,3,1.1153558912701556,B01J08,2022-11-14_15h11.52.112,t1_Paradigm,2021.1.4,59.977295815848585,
K,left,Distractor,0,50,50,50,1587.9810473413854,1589.9826282534123,left,1,3,0.9581529891656828,B01J08,2022-11-14_15h11.52.112,t1_Paradigm,2021.1.4,59.977295815848585,
S,left,Lure,0,51,51,51,1591.4809892762314,1593.4814098475908,left,1,3,0.9476002089068061,B01J08,2022-11-14_15h11.52.112,t1_Paradigm,2021.1.4,59.977295815848585,
T,left,Pretarget,0,52,52,52,1594.9808253464325,1596.9830809049672,left,1,3,0.5496874105774623,B01J08,2022-11-14_15h11.52.112,t1_Paradigm,2021.1.4,59.977295815848585,
V,left,Distractor,0,53,53,53,1598.4810229604373,1600.482926278426,left,1,3,0.8739389475413191,B01J08,2022-11-14_15h11.52.112,t1_Paradigm,2021.1.4,59.977295815848585,
B,left,Distractor,0,54,54,54,1601.9808057775153,1603.9825952108113,left,1,3,0.7341674611852795,B01J08,2022-11-14_15h11.52.112,t1_Paradigm,2021.1.4,59.977295815848585,
T,right,Target,0,55,55,55,1605.4809921634478,1607.4816562234919,right,1,3,0.5792916564532788,B01J08,2022-11-14_15h11.52.112,t1_Paradigm,2021.1.4,59.977295815848585,
Y,left,Pretarget,0,56,56,56,1608.9976048926146,1610.9815019177513,left,1,3,0.6633706404645636,B01J08,2022-11-14_15h11.52.112,t1_Paradigm,2021.1.4,59.977295815848585,
T,left,Lure,0,57,57,57,1612.4807807549623,1614.482279220887,left,1,3,0.9387592278653756,B01J08,2022-11-14_15h11.52.112,t1_Paradigm,2021.1.4,59.977295815848585,
P,left,Pretarget,0,58,58,58,1615.9808705795076,1617.9827828799534,left,1,3,0.8940904430528462,B01J08,2022-11-14_15h11.52.112,t1_Paradigm,2021.1.4,59.977295815848585,
Y,right,Target,0,59,59,59,1619.4808731459234,1621.4815015969507,right,1,3,0.5157959673888399,B01J08,2022-11-14_15h11.52.112,t1_Paradigm,2021.1.4,59.977295815848585,
R,left,Distractor,0,60,60,60,1622.9806370356855,1624.9829150503574,left,1,3,0.597806420402776,B01J08,2022-11-14_15h11.52.112,t1_Paradigm,2021.1.4,59.977295815848585,
P,right,Target,0,61,61,61,1626.4808936772497,1628.4810091659529,right,1,3,1.003643668591394,B01J08,2022-11-14_15h11.52.112,t1_Paradigm,2021.1.4,59.977295815848585,
L,left,Distractor,0,62,62,62,1629.9807881334054,1631.9828316418498,left,1,3,0.7019425841499469,B01J08,2022-11-14_15h11.52.112,t1_Paradigm,2021.1.4,59.977295815848585,
V,left,Distractor,0,63,63,63,1633.4809373063144,1635.482225967764,left,1,3,1.1865242006570043,B01J08,2022-11-14_15h11.52.112,t1_Paradigm,2021.1.4,59.977295815848585,
H,left,Lure,0,0,0,0,1677.305664271771,1679.2994307690133,None,0,3,,B01J08,2022-11-14_15h11.52.112,t1_Paradigm,2021.1.4,59.977295815848585,
B,left,Distractor,0,1,1,1,1680.797516864557,1682.7993473605056,left,1,3,0.3815650515789457,B01J08,2022-11-14_15h11.52.112,t1_Paradigm,2021.1.4,59.977295815848585,
T,left,Distractor,0,2,2,2,1684.2974992204508,1686.2994301274084,left,1,3,0.6733947391039692,B01J08,2022-11-14_15h11.52.112,t1_Paradigm,2021.1.4,59.977295815848585,
R,left,Distractor,0,3,3,3,1687.7975274510209,1689.7993107890834,left,1,3,0.7734243170452828,B01J08,2022-11-14_15h11.52.112,t1_Paradigm,2021.1.4,59.977295815848585,
H,left,Pretarget,0,4,4,4,1691.29759963146,1693.2993855359382,left,1,3,0.6013740589260124,B01J08,2022-11-14_15h11.52.112,t1_Paradigm,2021.1.4,59.977295815848585,
K,left,Distractor,0,5,5,5,1694.79747965153,1696.799060884361,left,1,3,0.7815576089742535,B01J08,2022-11-14_15h11.52.112,t1_Paradigm,2021.1.4,59.977295815848585,
G,left,Distractor,0,6,6,6,1698.2976961928507,1700.2994506587347,left,1,3,0.49770883244855213,B01J08,2022-11-14_15h11.52.112,t1_Paradigm,2021.1.4,59.977295815848585,
H,right,Target,0,7,7,7,1701.797607972312,1703.7995841123447,right,1,3,0.5331920949247433,B01J08,2022-11-14_15h11.52.112,t1_Paradigm,2021.1.4,59.977295815848585,
Y,left,Pretarget,0,8,8,8,1705.297485746767,1707.2997762727173,left,1,3,0.6973034670991183,B01J08,2022-11-14_15h11.52.112,t1_Paradigm,2021.1.4,59.977295815848585,
S,left,Distractor,0,9,9,9,1708.7972275011962,1710.7993473605056,left,1,3,0.52571965502284,B01J08,2022-11-14_15h11.52.112,t1_Paradigm,2021.1.4,59.977295815848585,
P,left,Distractor,0,10,10,10,1712.2974565537916,1714.2993499269214,left,1,3,0.5295878849792643,B01J08,2022-11-14_15h11.52.112,t1_Paradigm,2021.1.4,59.977295815848585,
Y,right,Target,0,11,11,11,1715.797469706671,1717.799301165025,right,1,3,0.4854769747616956,B01J08,2022-11-14_15h11.52.112,t1_Paradigm,2021.1.4,59.977295815848585,
H,left,Lure,0,12,12,12,1719.2976185587759,1721.2994589995833,left,1,3,0.9054898196700378,B01J08,2022-11-14_15h11.52.112,t1_Paradigm,2021.1.4,59.977295815848585,
Q,left,Distractor,0,13,13,13,1722.7975139773407,1724.8102405116406,left,1,3,0.7384883427002933,B01J08,2022-11-14_15h11.52.112,t1_Paradigm,2021.1.4,59.977295815848585,
V,left,Pretarget,0,14,14,14,1726.29766475426,1728.2994464883086,left,1,3,0.7213212677597767,B01J08,2022-11-14_15h11.52.112,t1_Paradigm,2021.1.4,59.977295815848585,
G,left,Distractor,0,15,15,15,1729.7974774059185,1731.7990432402512,left,1,3,0.86971174019709,B01J08,2022-11-14_15h11.52.112,t1_Paradigm,2021.1.4,59.977295815848585,
Z,left,Pretarget,0,16,16,16,1733.2976342780712,1735.2994079920754,left,1,3,0.6012835927758715,B01J08,2022-11-14_15h11.52.112,t1_Paradigm,2021.1.4,59.977295815848585,
V,right,Target,0,17,17,17,1736.797290057577,1738.7992447038778,right,1,3,0.7174501505833177,B01J08,2022-11-14_15h11.52.112,t1_Paradigm,2021.1.4,59.977295815848585,
N,left,Distractor,0,18,18,18,1740.2976381276967,1742.2994734356726,left,1,3,0.6893764508276945,B01J08,2022-11-14_15h11.52.112,t1_Paradigm,2021.1.4,59.977295815848585,
Z,right,Target,0,19,19,19,1743.7974408344962,1745.7995100070948,right,1,3,1.0773273860941117,B01J08,2022-11-14_15h11.52.112,t1_Paradigm,2021.1.4,59.977295815848585,
R,left,Distractor,0,20,20,20,1747.2974180575548,1749.2993688542338,left,1,3,0.8257227347239677,B01J08,2022-11-14_15h11.52.112,t1_Paradigm,2021.1.4,59.977295815848585,
P,left,Distractor,0,21,21,21,1750.7974969748357,1752.798020202823,left,1,3,0.879014355246909,B01J08,2022-11-14_15h11.52.112,t1_Paradigm,2021.1.4,59.977295815848585,
Z,right,Target,0,22,22,22,1754.297285245546,1756.2981924734704,right,1,3,0.7705499315379711,B01J08,2022-11-14_15h11.52.112,t1_Paradigm,2021.1.4,59.977295815848585,
D,left,Pretarget,0,23,23,23,1757.797285245546,1759.81049362438,left,1,3,0.522207836038433,B01J08,2022-11-14_15h11.52.112,t1_Paradigm,2021.1.4,59.977295815848585,
K,left,Distractor,0,24,24,24,1761.2973564635795,1763.2993265083787,None,0,3,,B01J08,2022-11-14_15h11.52.112,t1_Paradigm,2021.1.4,59.977295815848585,
W,left,Distractor,0,25,25,25,1764.7976281828342,1766.7993415860692,left,1,3,0.5574687827611342,B01J08,2022-11-14_15h11.52.112,t1_Paradigm,2021.1.4,59.977295815848585,
D,right,Target,0,26,26,26,1768.2975964234429,1770.2980048043282,right,1,3,0.6588531073502963,B01J08,2022-11-14_15h11.52.112,t1_Paradigm,2021.1.4,59.977295815848585,
G,left,Pretarget,0,27,27,27,1771.7975030700727,1773.7989579069326,left,1,3,0.6940232671222475,B01J08,2022-11-14_15h11.52.112,t1_Paradigm,2021.1.4,59.977295815848585,
V,left,Distractor,0,28,28,28,1775.2972278219968,1777.299533746438,left,1,3,0.6492049885964661,B01J08,2022-11-14_15h11.52.112,t1_Paradigm,2021.1.4,59.977295815848585,
D,right,Target,0,29,29,29,1778.7971460174995,1780.7989591901423,right,1,3,0.8459319745888934,B01J08,2022-11-14_15h11.52.112,t1_Paradigm,2021.1.4,59.977295815848585,
G,right,Target,0,30,30,30,1782.2974693858669,1784.2991391600372,right,1,3,1.0577036097929522,B01J08,2022-11-14_15h11.52.112,t1_Paradigm,2021.1.4,59.977295815848585,
B,left,Pretarget,0,31,31,31,1785.7974552705818,1787.7981757917696,left,1,3,0.614934999110119,B01J08,2022-11-14_15h11.52.112,t1_Paradigm,2021.1.4,59.977295815848585,
N,left,Distractor,0,32,32,32,1789.2974389096817,1791.2993547389488,left,1,3,0.6333198382635601,B01J08,2022-11-14_15h11.52.112,t1_Paradigm,2021.1.4,59.977295815848585,
F,left,Distractor,0,33,33,33,1792.7974812555403,1794.7993749494744,left,1,3,0.5574421561977942,B01J08,2022-11-14_15h11.52.112,t1_Paradigm,2021.1.4,59.977295815848585,
B,right,Target,0,34,34,34,1796.2973795613216,1798.2990621675672,right,1,3,1.314013463415904,B01J08,2022-11-14_15h11.52.112,t1_Paradigm,2021.1.4,59.977295815848585,
Q,left,Pretarget,0,35,35,35,1799.7974847843616,1801.7993200923374,left,1,3,0.6296967009984655,B01J08,2022-11-14_15h11.52.112,t1_Paradigm,2021.1.4,59.977295815848585,
S,left,Pretarget,0,36,36,36,1803.2975489447526,1805.2995639018227,left,1,3,0.5053490517748287,B01J08,2022-11-14_15h11.52.112,t1_Paradigm,2021.1.4,59.977295815848585,
W,left,Distractor,0,37,37,37,1806.7974851051658,1808.7994195409447,left,1,3,0.6216817849926883,B01J08,2022-11-14_15h11.52.112,t1_Paradigm,2021.1.4,59.977295815848585,
Q,right,Target,0,38,38,38,1810.2974206239705,1812.2992527239294,right,1,3,0.673609676414344,B01J08,2022-11-14_15h11.52.112,t1_Paradigm,2021.1.4,59.977295815848585,
S,right,Target,0,39,39,39,1813.7974033006649,1815.799193054765,right,1,3,0.581512247579667,B01J08,2022-11-14_15h11.52.112,t1_Paradigm,2021.1.4,59.977295815848585,
T,left,Distractor,0,40,40,40,1817.2976137467485,1819.2990105184545,left,1,3,0.85784912555755,B01J08,2022-11-14_15h11.52.112,t1_Paradigm,2021.1.4,59.977295815848585,
G,left,Distractor,0,41,41,41,1820.797476443513,1822.799003460812,left,1,3,0.9418405306314526,B01J08,2022-11-14_15h11.52.112,t1_Paradigm,2021.1.4,59.977295815848585,
D,left,Distractor,0,42,42,42,1824.2974241527918,1826.2987695961856,left,1,3,0.6420247992718942,B01J08,2022-11-14_15h11.52.112,t1_Paradigm,2021.1.4,59.977295815848585,
S,left,Lure,0,43,43,43,1827.7975710800893,1829.7982492554183,None,0,3,,B01J08,2022-11-14_15h11.52.112,t1_Paradigm,2021.1.4,59.977295815848585,
Z,left,Pretarget,0,44,44,44,1831.2974629698292,1833.2989389796167,left,1,3,0.7141490984831762,B01J08,2022-11-14_15h11.52.112,t1_Paradigm,2021.1.4,59.977295815848585,
J,left,Distractor,0,45,45,45,1834.79747965153,1836.7988712904043,left,1,3,1.1983252213212836,B01J08,2022-11-14_15h11.52.112,t1_Paradigm,2021.1.4,59.977295815848585,
M,left,Pretarget,0,46,46,46,1838.2974280024173,1840.2981828494121,left,1,3,0.5790000474808039,B01J08,2022-11-14_15h11.52.112,t1_Paradigm,2021.1.4,59.977295815848585,
Z,right,Target,0,47,47,47,1841.797341385889,1843.7981764333745,right,1,3,0.50250482165211,B01J08,2022-11-14_15h11.52.112,t1_Paradigm,2021.1.4,59.977295815848585,
P,left,Distractor,0,48,48,48,1845.297558568811,1847.2991154206939,left,1,3,0.6656027804529003,B01J08,2022-11-14_15h11.52.112,t1_Paradigm,2021.1.4,59.977295815848585,
M,right,Target,0,49,49,49,1848.7974190199602,1850.799611380513,right,1,3,0.717119724573422,B01J08,2022-11-14_15h11.52.112,t1_Paradigm,2021.1.4,59.977295815848585,
K,left,Distractor,0,50,50,50,1852.2972371252545,1854.2991718818375,left,1,3,0.609560603981663,B01J08,2022-11-14_15h11.52.112,t1_Paradigm,2021.1.4,59.977295815848585,
Y,left,Distractor,0,51,51,51,1855.7975681928692,1857.7993082226676,left,1,3,0.6937213924866228,B01J08,2022-11-14_15h11.52.112,t1_Paradigm,2021.1.4,59.977295815848585,
X,left,Distractor,0,52,52,52,1859.2976102179273,1861.2988170748758,left,1,3,0.6982783842358913,B01J08,2022-11-14_15h11.52.112,t1_Paradigm,2021.1.4,59.977295815848585,
F,left,Pretarget,0,53,53,53,1862.797340102683,1864.7986919621144,left,1,3,0.6538113838505524,B01J08,2022-11-14_15h11.52.112,t1_Paradigm,2021.1.4,59.977295815848585,
M,left,Lure,0,54,54,54,1866.2974296064276,1868.2993675710277,left,1,3,0.6734714107697073,B01J08,2022-11-14_15h11.52.112,t1_Paradigm,2021.1.4,59.977295815848585,
V,left,Distractor,0,55,55,55,1869.7975935362228,1871.7997076210995,left,1,3,0.5974638039151614,B01J08,2022-11-14_15h11.52.112,t1_Paradigm,2021.1.4,59.977295815848585,
F,right,Target,0,56,56,56,1873.2974687442656,1875.2979547592258,right,1,3,0.5388500789813406,B01J08,2022-11-14_15h11.52.112,t1_Paradigm,2021.1.4,59.977295815848585,
S,left,Distractor,0,57,57,57,1876.7974308896337,1878.7992421374656,left,1,3,0.7334799826021481,B01J08,2022-11-14_15h11.52.112,t1_Paradigm,2021.1.4,59.977295815848585,
D,left,Distractor,0,58,58,58,1880.297463611434,1882.2985854558647,left,1,3,0.8021380167010648,B01J08,2022-11-14_15h11.52.112,t1_Paradigm,2021.1.4,59.977295815848585,
F,right,Target,0,59,59,59,1883.7975341878628,1885.7981658469107,right,1,3,0.4705282453287509,B01J08,2022-11-14_15h11.52.112,t1_Paradigm,2021.1.4,59.977295815848585,
V,left,Pretarget,0,60,60,60,1887.297470348276,1889.298142428368,left,1,3,0.57056744732472,B01J08,2022-11-14_15h11.52.112,t1_Paradigm,2021.1.4,59.977295815848585,
J,left,Distractor,0,61,61,61,1890.7971588495784,1892.7992440622766,left,1,3,0.637347506792139,B01J08,2022-11-14_15h11.52.112,t1_Paradigm,2021.1.4,59.977295815848585,
V,left,Lure,0,62,62,62,1894.297419661565,1896.2980930248668,left,1,3,0.8506143999038613,B01J08,2022-11-14_15h11.52.112,t1_Paradigm,2021.1.4,59.977295815848585,
V,right,Target,0,63,63,63,1897.7975742881063,1899.79729743602,right,1,3,0.4714139795250958,B01J08,2022-11-14_15h11.52.112,t1_Paradigm,2021.1.4,59.977295815848585,
R,left,Distractor,0,0,0,0,2049.554201414863,2051.548785315481,left,1,4,0.6399995765386848,B01J08,2022-11-14_15h11.52.112,t1_Paradigm,2021.1.4,59.977295815848585,
F,left,Distractor,0,1,1,1,2053.0472592605875,2055.0484869696666,left,1,4,0.37223901798643055,B01J08,2022-11-14_15h11.52.112,t1_Paradigm,2021.1.4,59.977295815848585,
P,left,Pretarget,0,2,2,2,2056.5474145287335,2058.548514237831,left,1,4,0.37619931810331764,B01J08,2022-11-14_15h11.52.112,t1_Paradigm,2021.1.4,59.977295815848585,
H,left,Distractor,0,3,3,3,2060.0472740174773,2062.0493223379526,left,1,4,0.427512873782689,B01J08,2022-11-14_15h11.52.112,t1_Paradigm,2021.1.4,59.977295815848585,
Z,left,Distractor,0,4,4,4,2063.547345235511,2065.5493990096184,left,1,4,0.65540288234115,B01J08,2022-11-14_15h11.52.112,t1_Paradigm,2021.1.4,59.977295815848585,
T,left,Distractor,0,5,5,5,2067.047415491139,2069.0474292856234,left,1,4,1.0612664362888609,B01J08,2022-11-14_15h11.52.112,t1_Paradigm,2021.1.4,59.977295815848585,
P,right,Target,0,6,6,6,2070.547455591386,2072.5493688542338,right,1,4,1.2714003775217861,B01J08,2022-11-14_15h11.52.112,t1_Paradigm,2021.1.4,59.977295815848585,
G,left,Distractor,0,7,7,7,2074.047371862074,2076.0638841802283,left,1,4,1.0847719162266003,B01J08,2022-11-14_15h11.52.112,t1_Paradigm,2021.1.4,59.977295815848585,
L,left,Distractor,0,8,8,8,2077.5473567843837,2079.5484407741824,left,1,4,1.2486067571153399,B01J08,2022-11-14_15h11.52.112,t1_Paradigm,2021.1.4,59.977295815848585,
P,left,Lure,0,9,9,9,2081.047277867103,2083.049755741391,left,1,4,0.9473910460292245,B01J08,2022-11-14_15h11.52.112,t1_Paradigm,2021.1.4,59.977295815848585,
Q,left,Pretarget,0,10,10,10,2084.5472842831405,2086.549553956964,left,1,4,0.615061395077646,B01J08,2022-11-14_15h11.52.112,t1_Paradigm,2021.1.4,59.977295815848585,
D,left,Distractor,0,11,11,11,2088.046710368446,2090.0481899070546,left,1,4,0.6684928852555458,B01J08,2022-11-14_15h11.52.112,t1_Paradigm,2021.1.4,59.977295815848585,
M,left,Pretarget,0,12,12,12,2091.5473930350054,2093.5491587289544,left,1,4,0.527797489277873,B01J08,2022-11-14_15h11.52.112,t1_Paradigm,2021.1.4,59.977295815848585,
C,left,Distractor,0,13,13,13,2095.047333045037,2097.049311751489,left,1,4,0.7074895707264659,B01J08,2022-11-14_15h11.52.112,t1_Paradigm,2021.1.4,59.977295815848585,
Q,right,Target,0,14,14,14,2098.5474902379938,2100.5498956110423,left,0,4,0.6949337030673632,B01J08,2022-11-14_15h11.52.112,t1_Paradigm,2021.1.4,59.977295815848585,
R,left,Distractor,0,15,15,15,2102.047382769342,2104.0492783880836,left,1,4,0.9075192128293565,B01J08,2022-11-14_15h11.52.112,t1_Paradigm,2021.1.4,59.977295815848585,
M,right,Target,0,16,16,16,2105.547468102661,2107.5496562927874,right,1,4,0.6071905191456608,B01J08,2022-11-14_15h11.52.112,t1_Paradigm,2021.1.4,59.977295815848585,
S,left,Distractor,0,17,17,17,2109.047335290652,2111.0479050349204,left,1,4,0.6928866658017796,B01J08,2022-11-14_15h11.52.112,t1_Paradigm,2021.1.4,59.977295815848585,
Z,left,Distractor,0,18,18,18,2112.5473263081985,2114.549225455761,left,1,4,0.7916073717751715,B01J08,2022-11-14_15h11.52.112,t1_Paradigm,2021.1.4,59.977295815848585,
L,left,Pretarget,0,19,19,19,2116.0474026590637,2118.048392012286,left,1,4,0.7163093788367405,B01J08,2022-11-14_15h11.52.112,t1_Paradigm,2021.1.4,59.977295815848585,
M,right,Target,0,20,20,20,2119.547391430995,2121.5493499269214,right,1,4,0.8479016985838825,B01J08,2022-11-14_15h11.52.112,t1_Paradigm,2021.1.4,59.977295815848585,
P,left,Distractor,0,21,21,21,2123.047288132766,2125.0494753604835,left,1,4,0.6432496211346006,B01J08,2022-11-14_15h11.52.112,t1_Paradigm,2021.1.4,59.977295815848585,
F,left,Distractor,0,22,22,22,2126.547510127715,2128.549126648759,left,1,4,0.7280244245775975,B01J08,2022-11-14_15h11.52.112,t1_Paradigm,2021.1.4,59.977295815848585,
L,right,Target,0,23,23,23,2130.047384694153,2132.0492626687883,right,1,4,0.6353954269034148,B01J08,2022-11-14_15h11.52.112,t1_Paradigm,2021.1.4,59.977295815848585,
L,left,Lure,0,24,24,24,2133.5472599021923,2135.5471569247675,left,1,4,0.673586578672257,B01J08,2022-11-14_15h11.52.112,t1_Paradigm,2021.1.4,59.977295815848585,
V,left,Pretarget,0,25,25,25,2137.047441155297,2139.0476439021295,left,1,4,0.5170791752025252,B01J08,2022-11-14_15h11.52.112,t1_Paradigm,2021.1.4,59.977295815848585,
Z,left,Distractor,0,26,26,26,2140.5473490851364,2142.5480381677335,left,1,4,0.5206577209974057,B01J08,2022-11-14_15h11.52.112,t1_Paradigm,2021.1.4,59.977295815848585,
H,left,Distractor,0,27,27,27,2144.047155320757,2146.0494477715147,left,1,4,0.6672144894691883,B01J08,2022-11-14_15h11.52.112,t1_Paradigm,2021.1.4,59.977295815848585,
X,left,Distractor,0,28,28,28,2147.5472801127144,2149.5482181376283,left,1,4,0.8164332725500572,B01J08,2022-11-14_15h11.52.112,t1_Paradigm,2021.1.4,59.977295815848585,
V,right,Target,0,29,29,29,2151.0473221377724,2153.04793583191,right,1,4,0.708843675773096,B01J08,2022-11-14_15h11.52.112,t1_Paradigm,2021.1.4,59.977295815848585,
C,left,Distractor,0,30,30,30,2154.5474828595507,2156.54955684418,left,1,4,0.6312131318336469,B01J08,2022-11-14_15h11.52.112,t1_Paradigm,2021.1.4,59.977295815848585,
S,left,Pretarget,0,31,31,31,2158.0471418470734,2160.049333886822,left,1,4,0.6033999232640781,B01J08,2022-11-14_15h11.52.112,t1_Paradigm,2021.1.4,59.977295815848585,
D,left,Distractor,0,32,32,32,2161.5472618270032,2163.549499420631,left,1,4,0.9434496732319531,B01J08,2022-11-14_15h11.52.112,t1_Paradigm,2021.1.4,59.977295815848585,
V,left,Distractor,0,33,33,33,2165.0472971152194,2167.0492559319464,right,0,4,0.6115996211992751,B01J08,2022-11-14_15h11.52.112,t1_Paradigm,2021.1.4,59.977295815848585,
R,left,Distractor,0,34,34,34,2168.547485746767,2170.548779220244,left,1,4,0.7120927579599083,B01J08,2022-11-14_15h11.52.112,t1_Paradigm,2021.1.4,59.977295815848585,
S,right,Target,0,35,35,35,2172.047362879621,2174.049669445667,right,1,4,0.6830162312944594,B01J08,2022-11-14_15h11.52.112,t1_Paradigm,2021.1.4,59.977295815848585,
Y,left,Distractor,0,36,36,36,2175.547266639034,2177.5486563530976,left,1,4,0.4641802162732347,B01J08,2022-11-14_15h11.52.112,t1_Paradigm,2021.1.4,59.977295815848585,
N,left,Pretarget,0,37,37,37,2179.047491842004,2181.049018859303,left,1,4,0.5798209796776064,B01J08,2022-11-14_15h11.52.112,t1_Paradigm,2021.1.4,59.977295815848585,
Z,left,Pretarget,0,38,38,38,2182.5472993608346,2184.5491901675487,left,1,4,0.4555833655213064,B01J08,2022-11-14_15h11.52.112,t1_Paradigm,2021.1.4,59.977295815848585,
P,left,Pretarget,0,39,39,39,2186.047150508726,2188.049234759019,left,1,4,0.58745767018263,B01J08,2022-11-14_15h11.52.112,t1_Paradigm,2021.1.4,59.977295815848585,
M,left,Distractor,0,40,40,40,2189.5474725938875,2191.54934351088,left,1,4,0.8795911571578472,B01J08,2022-11-14_15h11.52.112,t1_Paradigm,2021.1.4,59.977295815848585,
N,right,Target,0,41,41,41,2193.0474988996466,2195.049597265228,right,1,4,0.7392152799257019,B01J08,2022-11-14_15h11.52.112,t1_Paradigm,2021.1.4,59.977295815848585,
Z,right,Target,0,42,42,42,2196.54729743602,2198.5490294457704,right,1,4,0.632095658009348,B01J08,2022-11-14_15h11.52.112,t1_Paradigm,2021.1.4,59.977295815848585,
P,right,Target,0,43,43,43,2200.047086348335,2202.0495510697438,right,1,4,0.6830752588539326,B01J08,2022-11-14_15h11.52.112,t1_Paradigm,2021.1.4,59.977295815848585,
X,left,Pretarget,0,44,44,44,2203.5472249347804,2205.5491596913635,left,1,4,0.7516540548713238,B01J08,2022-11-14_15h11.52.112,t1_Paradigm,2021.1.4,59.977295815848585,
Z,left,Lure,0,45,45,45,2207.047508844509,2209.0473057768722,right,0,4,0.8533700886800943,B01J08,2022-11-14_15h11.52.112,t1_Paradigm,2021.1.4,59.977295815848585,
R,left,Pretarget,0,46,46,46,2210.5472515613437,2212.5488815560675,left,1,4,0.5197318865575653,B01J08,2022-11-14_15h11.52.112,t1_Paradigm,2021.1.4,59.977295815848585,
K,left,Distractor,0,47,47,47,2214.0471027092353,2216.049196904387,left,1,4,0.6034419483185047,B01J08,2022-11-14_15h11.52.112,t1_Paradigm,2021.1.4,59.977295815848585,
X,right,Target,0,48,48,48,2217.547364162827,2219.5488254157244,right,1,4,1.05586028176549,B01J08,2022-11-14_15h11.52.112,t1_Paradigm,2021.1.4,59.977295815848585,
B,left,Distractor,0,49,49,49,2221.0472175563336,2223.048989987128,left,1,4,0.40347903302608756,B01J08,2022-11-14_15h11.52.112,t1_Paradigm,2021.1.4,59.977295815848585,
R,right,Target,0,50,50,50,2224.547150508726,2226.548871932009,left,0,4,0.7439560911952867,B01J08,2022-11-14_15h11.52.112,t1_Paradigm,2021.1.4,59.977295815848585,
Y,left,Pretarget,0,51,51,51,2228.047367691648,2230.0482710699507,left,1,4,0.8766195686621359,B01J08,2022-11-14_15h11.52.112,t1_Paradigm,2021.1.4,59.977295815848585,
W,left,Pretarget,0,52,52,52,2231.5471373558466,2233.5475765337214,left,1,4,0.7211284657860233,B01J08,2022-11-14_15h11.52.112,t1_Paradigm,2021.1.4,59.977295815848585,
Z,left,Distractor,0,53,53,53,2235.047401375854,2237.0478408745294,left,1,4,0.7569562695607601,B01J08,2022-11-14_15h11.52.112,t1_Paradigm,2021.1.4,59.977295815848585,
Q,left,Distractor,0,54,54,54,2238.5474231903863,2240.5496165133445,left,1,4,0.7910395523176703,B01J08,2022-11-14_15h11.52.112,t1_Paradigm,2021.1.4,59.977295815848585,
Y,right,Target,0,55,55,55,2242.04741901996,2244.0495334256375,None,0,4,,B01J08,2022-11-14_15h11.52.112,t1_Paradigm,2021.1.4,59.977295815848585,
W,right,Target,0,56,56,56,2245.54707223305,2247.548112593784,None,0,4,,B01J08,2022-11-14_15h11.52.112,t1_Paradigm,2021.1.4,59.977295815848585,
H,left,Pretarget,0,57,57,57,2249.047403621469,2251.0491555209373,left,1,4,0.5956474232552864,B01J08,2022-11-14_15h11.52.112,t1_Paradigm,2021.1.4,59.977295815848585,
M,left,Distractor,0,58,58,58,2252.5474058670807,2254.5491866387274,left,1,4,0.9673227922103251,B01J08,2022-11-14_15h11.52.112,t1_Paradigm,2021.1.4,59.977295815848585,
R,left,Pretarget,0,59,59,59,2256.04705587215,2258.0492790296885,left,1,4,0.683387399156345,B01J08,2022-11-14_15h11.52.112,t1_Paradigm,2021.1.4,59.977295815848585,
J,left,Distractor,0,60,60,60,2259.5642293631317,2261.5495132151154,left,1,4,0.36711516918512643,B01J08,2022-11-14_15h11.52.112,t1_Paradigm,2021.1.4,59.977295815848585,
H,right,Target,0,61,61,61,2263.0473051352674,2265.049309185073,left,0,4,0.6433455409169255,B01J08,2022-11-14_15h11.52.112,t1_Paradigm,2021.1.4,59.977295815848585,
Z,left,Distractor,0,62,62,62,2266.5474645738395,2268.5480333557025,left,1,4,0.600603171835246,B01J08,2022-11-14_15h11.52.112,t1_Paradigm,2021.1.4,59.977295815848585,
R,right,Target,0,63,63,63,2270.0473529347582,2272.049352172533,left,0,4,0.6193283818611235,B01J08,2022-11-14_15h11.52.112,t1_Paradigm,2021.1.4,59.977295815848585,
J,left,Pretarget,0,0,0,0,2293.505996109314,2295.4990340653167,left,1,4,0.5937380100294831,B01J08,2022-11-14_15h11.52.112,t1_Paradigm,2021.1.4,59.977295815848585,
G,left,Pretarget,0,1,1,1,2296.997355629497,2298.997762406372,left,1,4,0.32709191746107535,B01J08,2022-11-14_15h11.52.112,t1_Paradigm,2021.1.4,59.977295815848585,
Z,left,Distractor,0,2,2,2,2300.4972924315116,2302.4992830076335,left,1,4,0.3455142904422246,B01J08,2022-11-14_15h11.52.112,t1_Paradigm,2021.1.4,59.977295815848585,
F,left,Distractor,0,3,3,3,2303.997122085675,2305.9974075994105,left,1,4,0.543200474272453,B01J08,2022-11-14_15h11.52.112,t1_Paradigm,2021.1.4,59.977295815848585,
J,right,Target,0,4,4,4,2307.4974454540425,2309.4980893035645,right,1,4,0.7066859618353192,B01J08,2022-11-14_15h11.52.112,t1_Paradigm,2021.1.4,59.977295815848585,
G,right,Target,0,5,5,5,2310.997007238573,2312.9991809926105,right,1,4,0.6297801095097384,B01J08,2022-11-14_15h11.52.112,t1_Paradigm,2021.1.4,59.977295815848585,
H,left,Distractor,0,6,6,6,2314.4970765317958,2316.4994597695077,left,1,4,0.6011944098354434,B01J08,2022-11-14_15h11.52.112,t1_Paradigm,2021.1.4,59.977295815848585,
P,left,Distractor,0,7,7,7,2317.9971997197463,2319.9990549174436,left,1,4,0.6376400781737175,B01J08,2022-11-14_15h11.52.112,t1_Paradigm,2021.1.4,59.977295815848585,
G,left,Lure,0,8,8,8,2321.4973816144557,2323.499463619133,left,1,4,0.7372375358791032,B01J08,2022-11-14_15h11.52.112,t1_Paradigm,2021.1.4,59.977295815848585,
S,left,Distractor,0,9,9,9,2324.9972565016906,2326.999441804601,left,1,4,0.5170008995301032,B01J08,2022-11-14_15h11.52.112,t1_Paradigm,2021.1.4,59.977295815848585,
R,left,Pretarget,0,10,10,10,2328.497181434035,2330.4991303059032,left,1,4,0.48963970091062947,B01J08,2022-11-14_15h11.52.112,t1_Paradigm,2021.1.4,59.977295815848585,
T,left,Pretarget,0,11,11,11,2331.997395088136,2333.9975256545295,left,1,4,0.4792040133579576,B01J08,2022-11-14_15h11.52.112,t1_Paradigm,2021.1.4,59.977295815848585,
X,left,Distractor,0,12,12,12,2335.497270616979,2337.4975824364774,left,1,4,0.835040106660017,B01J08,2022-11-14_15h11.52.112,t1_Paradigm,2021.1.4,59.977295815848585,
F,left,Pretarget,0,13,13,13,2338.997490366317,2340.999051709423,left,1,4,0.9980819251213688,B01J08,2022-11-14_15h11.52.112,t1_Paradigm,2021.1.4,59.977295815848585,
R,right,Target,0,14,14,14,2342.497156411482,2344.4994206316696,right,1,4,0.4893339766495046,B01J08,2022-11-14_15h11.52.112,t1_Paradigm,2021.1.4,59.977295815848585,
T,right,Target,0,15,15,15,2345.9973768024247,2347.9991546868514,right,1,4,0.5735416022398567,B01J08,2022-11-14_15h11.52.112,t1_Paradigm,2021.1.4,59.977295815848585,
C,left,Distractor,0,16,16,16,2349.4973806520466,2351.4992541354586,left,1,4,0.5295577295946714,B01J08,2022-11-14_15h11.52.112,t1_Paradigm,2021.1.4,59.977295815848585,
F,right,Target,0,17,17,17,2352.997086797459,2354.9995515188675,right,1,4,0.5169434759773139,B01J08,2022-11-14_15h11.52.112,t1_Paradigm,2021.1.4,59.977295815848585,
M,left,Distractor,0,18,18,18,2356.4973671783664,2358.4987081305335,left,1,4,0.5220371693976631,B01J08,2022-11-14_15h11.52.112,t1_Paradigm,2021.1.4,59.977295815848585,
N,left,Distractor,0,19,19,19,2359.9970835894383,2361.999245473806,left,1,4,0.6854254539684916,B01J08,2022-11-14_15h11.52.112,t1_Paradigm,2021.1.4,59.977295815848585,
R,left,Lure,0,20,20,20,2363.4972058149833,2365.499300330939,left,1,4,0.6574255386585719,B01J08,2022-11-14_15h11.52.112,t1_Paradigm,2021.1.4,59.977295815848585,
F,right,Target,0,21,21,21,2366.997241424,2368.9996480802547,right,1,4,0.5488462678549695,B01J08,2022-11-14_15h11.52.112,t1_Paradigm,2021.1.4,59.977295815848585,
P,left,Distractor,0,22,22,22,2370.4973049427863,2372.499000381111,left,1,4,0.6656361438581371,B01J08,2022-11-14_15h11.52.112,t1_Paradigm,2021.1.4,59.977295815848585,
L,left,Pretarget,0,23,23,23,2373.997217684657,2375.998874305944,left,1,4,1.0217962471324427,B01J08,2022-11-14_15h11.52.112,t1_Paradigm,2021.1.4,59.977295815848585,
T,left,Distractor,0,24,24,24,2377.4972719001853,2379.499287819661,left,1,4,0.6894383656035643,B01J08,2022-11-14_15h11.52.112,t1_Paradigm,2021.1.4,59.977295815848585,
F,left,Distractor,0,25,25,25,2380.997134276149,2382.9978240003475,right,0,4,0.5346818991965847,B01J08,2022-11-14_15h11.52.112,t1_Paradigm,2021.1.4,59.977295815848585,
V,left,Distractor,0,26,26,26,2384.4972760706114,2386.4990635790964,left,1,4,0.7136871436669026,B01J08,2022-11-14_15h11.52.112,t1_Paradigm,2021.1.4,59.977295815848585,
L,right,Target,0,27,27,27,2387.9973091132124,2389.999217884837,right,1,4,0.4936795599096513,B01J08,2022-11-14_15h11.52.112,t1_Paradigm,2021.1.4,59.977295815848585,
S,left,Pretarget,0,28,28,28,2391.4972385367837,2393.4990529926326,left,1,4,1.4257988289427885,B01J08,2022-11-14_15h11.52.112,t1_Paradigm,2021.1.4,59.977295815848585,
W,left,Distractor,0,29,29,29,2394.997399900167,2396.997986967741,left,1,4,0.9990023059253872,B01J08,2022-11-14_15h11.52.112,t1_Paradigm,2021.1.4,59.977295815848585,
Q,left,Distractor,0,30,30,30,2398.4971256144963,2400.49922526328,left,1,4,0.697842093577492,B01J08,2022-11-14_15h11.52.112,t1_Paradigm,2021.1.4,59.977295815848585,
L,right,Target,0,31,31,31,2401.997393163325,2403.999143137982,left,0,4,0.8136012329050573,B01J08,2022-11-14_15h11.52.112,t1_Paradigm,2021.1.4,59.977295815848585,
S,right,Target,0,32,32,32,2405.497243348811,2407.497580190862,left,0,4,0.803034978962387,B01J08,2022-11-14_15h11.52.112,t1_Paradigm,2021.1.4,59.977295815848585,
Z,left,Pretarget,0,33,33,33,2408.997204210973,2410.996469895301,left,1,4,1.0961562151533144,B01J08,2022-11-14_15h11.52.112,t1_Paradigm,2021.1.4,59.977295815848585,
F,left,Distractor,0,34,34,34,2412.4972565016906,2414.4994315389376,left,1,4,0.8412226019099762,B01J08,2022-11-14_15h11.52.112,t1_Paradigm,2021.1.4,59.977295815848585,
V,left,Distractor,0,35,35,35,2415.9972840906594,2417.9989407119465,left,1,4,0.5896926973910013,B01J08,2022-11-14_15h11.52.112,t1_Paradigm,2021.1.4,59.977295815848585,
M,left,Distractor,0,36,36,36,2419.497218967863,2421.4991229274565,left,1,4,0.513711075494939,B01J08,2022-11-14_15h11.52.112,t1_Paradigm,2021.1.4,59.977295815848585,
Z,right,Target,0,37,37,37,2422.9972799202333,2424.998048240912,right,1,4,0.5023594983686053,B01J08,2022-11-14_15h11.52.112,t1_Paradigm,2021.1.4,59.977295815848585,
H,left,Pretarget,0,38,38,38,2426.4973113588276,2428.4975404114193,left,1,4,0.5391400839471316,B01J08,2022-11-14_15h11.52.112,t1_Paradigm,2021.1.4,59.977295815848585,
L,left,Distractor,0,39,39,39,2429.9972728625908,2431.9991222858553,left,1,4,0.4616923971225333,B01J08,2022-11-14_15h11.52.112,t1_Paradigm,2021.1.4,59.977295815848585,
G,left,Distractor,0,40,40,40,2433.49734953426,2435.4992810828226,left,1,4,0.5455262884388503,B01J08,2022-11-14_15h11.52.112,t1_Paradigm,2021.1.4,59.977295815848585,
K,left,Distractor,0,41,41,41,2436.997299489154,2438.9988483209854,left,1,4,0.662004986548709,B01J08,2022-11-14_15h11.52.112,t1_Paradigm,2021.1.4,59.977295815848585,
H,right,Target,0,42,42,42,2440.49725618089,2442.4980036494417,right,1,4,0.7307993614740553,B01J08,2022-11-14_15h11.52.112,t1_Paradigm,2021.1.4,59.977295815848585,
B,left,Distractor,0,43,43,43,2443.9973646119506,2445.9989221054348,left,1,4,0.47785151232528733,B01J08,2022-11-14_15h11.52.112,t1_Paradigm,2021.1.4,59.977295815848585,
Z,left,Distractor,0,44,44,44,2447.4971827172412,2449.498136782251,left,1,4,0.5947177391935838,B01J08,2022-11-14_15h11.52.112,t1_Paradigm,2021.1.4,59.977295815848585,
T,left,Pretarget,0,45,45,45,2450.9973768024247,2452.9987527220037,left,1,4,0.5497862175761838,B01J08,2022-11-14_15h11.52.112,t1_Paradigm,2021.1.4,59.977295815848585,
H,right,Target,0,46,46,46,2454.4970508676415,2456.4988592282534,right,1,4,0.729937687428901,B01J08,2022-11-14_15h11.52.112,t1_Paradigm,2021.1.4,59.977295815848585,
F,left,Distractor,0,47,47,47,2457.9974002209674,2459.9989766417675,left,1,4,0.8137500850134529,B01J08,2022-11-14_15h11.52.112,t1_Paradigm,2021.1.4,59.977295815848585,
R,left,Distractor,0,48,48,48,2461.4973835392666,2463.498098286018,left,1,4,0.6104925336585438,B01J08,2022-11-14_15h11.52.112,t1_Paradigm,2021.1.4,59.977295815848585,
T,right,Target,0,49,49,49,2464.997351138267,2466.999249002627,right,1,4,0.8213931915561261,B01J08,2022-11-14_15h11.52.112,t1_Paradigm,2021.1.4,59.977295815848585,
H,right,Target,0,50,50,50,2468.497231799942,2470.4992040903526,left,0,4,1.289539161574794,B01J08,2022-11-14_15h11.52.112,t1_Paradigm,2021.1.4,59.977295815848585,
Y,left,Pretarget,0,51,51,51,2471.997336702181,2473.9990722407492,left,1,4,0.6695595517485344,B01J08,2022-11-14_15h11.52.112,t1_Paradigm,2021.1.4,59.977295815848585,
H,left,Distractor,0,52,52,52,2475.4963194391858,2477.4980536945477,left,1,4,0.6586285459816281,B01J08,2022-11-14_15h11.52.112,t1_Paradigm,2021.1.4,59.977295815848585,
S,left,Distractor,0,53,53,53,2478.997027449099,2480.9993808522304,left,1,4,0.48510099487248226,B01J08,2022-11-14_15h11.52.112,t1_Paradigm,2021.1.4,59.977295815848585,
Q,left,Distractor,0,54,54,54,2482.497017825037,2484.4993263158976,left,1,4,0.45742188151780283,B01J08,2022-11-14_15h11.52.112,t1_Paradigm,2021.1.4,59.977295815848585,
Y,right,Target,0,55,55,55,2485.997051188442,2487.999676952433,right,1,4,0.6049487550953927,B01J08,2022-11-14_15h11.52.112,t1_Paradigm,2021.1.4,59.977295815848585,
R,left,Distractor,0,56,56,56,2489.4964439103424,2491.498206396278,left,1,4,0.6103889146252186,B01J08,2022-11-14_15h11.52.112,t1_Paradigm,2021.1.4,59.977295815848585,
H,left,Pretarget,0,57,57,57,2492.997159619503,2494.9984550177905,left,1,4,0.8222574320170679,B01J08,2022-11-14_15h11.52.112,t1_Paradigm,2021.1.4,59.977295815848585,
J,left,Distractor,0,58,58,58,2496.497340551803,2498.498145443904,left,1,4,0.8104990780157095,B01J08,2022-11-14_15h11.52.112,t1_Paradigm,2021.1.4,59.977295815848585,
V,left,Distractor,0,59,59,59,2499.9969151684127,2501.9981303662134,left,1,4,0.8626483227817516,B01J08,2022-11-14_15h11.52.112,t1_Paradigm,2021.1.4,59.977295815848585,
Y,left,Lure,0,60,60,60,2503.497037073157,2505.4979401306555,left,1,4,0.7068011297342309,B01J08,2022-11-14_15h11.52.112,t1_Paradigm,2021.1.4,59.977295815848585,
H,right,Target,0,61,61,61,2506.997085514249,2508.9983039200706,right,1,4,0.7424361315388524,B01J08,2022-11-14_15h11.52.112,t1_Paradigm,2021.1.4,59.977295815848585,
L,left,Distractor,0,62,62,62,2510.4972446320207,2512.498912802177,left,1,4,0.505833462724695,B01J08,2022-11-14_15h11.52.112,t1_Paradigm,2021.1.4,59.977295815848585,
P,left,Distractor,0,63,63,63,2513.996935058134,2515.998248100532,left,1,4,0.4145627405196137,B01J08,2022-11-14_15h11.52.112,t1_Paradigm,2021.1.4,59.977295815848585,
