Letter,CorrAnswer,Stimulus,nback_run.thisRepN,nback_run.thisTrialN,nback_run.thisN,nback_run.thisIndex,fixcross.started,nback_trial.started,trial_resp.keys,trial_resp.corr,currentlevel,trial_resp.rt,Participant,date,expName,psychopyVersion,frameRate,
H,left,Distractor,0,0,0,0,320.41412452509394,322.40690904756775,None,0,1,,B02L10,2022-11-17_09h09.26.236,t1_Paradigm,2021.1.4,60.07948439223232,
Q,left,Pretarget,0,1,1,1,323.9086792326998,325.9067810475826,None,0,1,,B02L10,2022-11-17_09h09.26.236,t1_Paradigm,2021.1.4,60.07948439223232,
Q,right,Target,0,2,2,2,327.40593798004556,329.40540512796724,None,0,1,,B02L10,2022-11-17_09h09.26.236,t1_Paradigm,2021.1.4,60.07948439223232,
T,left,Distractor,0,3,3,3,330.90522483730456,332.9069908520323,left,1,1,1.0611576844239607,B02L10,2022-11-17_09h09.26.236,t1_Paradigm,2021.1.4,60.07948439223232,
Q,left,Lure,0,4,4,4,334.404556606838,336.40420532866847,None,0,1,,B02L10,2022-11-17_09h09.26.236,t1_Paradigm,2021.1.4,60.07948439223232,
L,left,Distractor,0,5,5,5,337.9040689878166,339.9041665116674,left,1,1,0.675139901752118,B02L10,2022-11-17_09h09.26.236,t1_Paradigm,2021.1.4,60.07948439223232,
V,left,Pretarget,0,6,6,6,341.40355185512453,343.40608875692124,None,0,1,,B02L10,2022-11-17_09h09.26.236,t1_Paradigm,2021.1.4,60.07948439223232,
V,right,Target,0,7,7,7,344.9028165769996,346.9025682763313,right,1,1,0.9074717341572978,B02L10,2022-11-17_09h09.26.236,t1_Paradigm,2021.1.4,60.07948439223232,
K,left,Distractor,0,8,8,8,348.4022513239761,350.4042393337004,None,0,1,,B02L10,2022-11-17_09h09.26.236,t1_Paradigm,2021.1.4,60.07948439223232,
G,left,Pretarget,0,9,9,9,351.9015988127794,353.9018981210538,None,0,1,,B02L10,2022-11-17_09h09.26.236,t1_Paradigm,2021.1.4,60.07948439223232,
G,right,Target,0,10,10,10,355.4011426324141,357.4008911236888,None,0,1,,B02L10,2022-11-17_09h09.26.236,t1_Paradigm,2021.1.4,60.07948439223232,
G,right,Target,0,11,11,11,358.90057673776755,360.900228667655,right,1,1,0.8127530325436965,B02L10,2022-11-17_09h09.26.236,t1_Paradigm,2021.1.4,60.07948439223232,
P,left,Pretarget,0,12,12,12,362.39996913890354,364.40149070252664,None,0,1,,B02L10,2022-11-17_09h09.26.236,t1_Paradigm,2021.1.4,60.07948439223232,
P,right,Target,0,13,13,13,365.8994080562843,367.89907442225376,right,1,1,0.922227019967977,B02L10,2022-11-17_09h09.26.236,t1_Paradigm,2021.1.4,60.07948439223232,
G,left,Lure,0,14,14,14,369.3986159962369,371.3983250288875,None,0,1,,B02L10,2022-11-17_09h09.26.236,t1_Paradigm,2021.1.4,60.07948439223232,
Y,left,Distractor,0,15,15,15,372.89808859780896,374.89823648752645,left,1,1,0.6035513418028131,B02L10,2022-11-17_09h09.26.236,t1_Paradigm,2021.1.4,60.07948439223232,
B,left,Distractor,0,16,16,16,376.3979073447408,378.397810462513,None,0,1,,B02L10,2022-11-17_09h09.26.236,t1_Paradigm,2021.1.4,60.07948439223232,
T,left,Pretarget,0,17,17,17,379.89690580102615,381.8966706531937,left,1,1,0.49357914889696985,B02L10,2022-11-17_09h09.26.236,t1_Paradigm,2021.1.4,60.07948439223232,
T,right,Target,0,18,18,18,383.39636140008224,385.3963280367316,None,0,1,,B02L10,2022-11-17_09h09.26.236,t1_Paradigm,2021.1.4,60.07948439223232,
S,left,Distractor,0,19,19,19,386.89576727489475,388.89566044782987,left,1,1,0.7903857579221949,B02L10,2022-11-17_09h09.26.236,t1_Paradigm,2021.1.4,60.07948439223232,
T,left,Lure,0,20,20,20,390.39525976619916,392.3951869441662,None,0,1,,B02L10,2022-11-17_09h09.26.236,t1_Paradigm,2021.1.4,60.07948439223232,
J,left,Distractor,0,21,21,21,393.89470092917327,395.8945690795663,left,1,1,0.7775620206375606,B02L10,2022-11-17_09h09.26.236,t1_Paradigm,2021.1.4,60.07948439223232,
P,left,Distractor,0,22,22,22,397.39406670373864,399.39356079907157,None,0,1,,B02L10,2022-11-17_09h09.26.236,t1_Paradigm,2021.1.4,60.07948439223232,
F,left,Distractor,0,23,23,23,400.8933866035659,402.89339045324596,left,1,1,0.9120303299278021,B02L10,2022-11-17_09h09.26.236,t1_Paradigm,2021.1.4,60.07948439223232,
L,left,Distractor,0,24,24,24,404.39301768137375,406.3924302929663,None,0,1,,B02L10,2022-11-17_09h09.26.236,t1_Paradigm,2021.1.4,60.07948439223232,
W,left,Pretarget,0,25,25,25,407.89238088944694,409.8922323581646,left,1,1,0.8995620411587879,B02L10,2022-11-17_09h09.26.236,t1_Paradigm,2021.1.4,60.07948439223232,
W,right,Target,0,26,26,26,411.3918021627469,413.39143163646804,right,1,1,0.9384451627265662,B02L10,2022-11-17_09h09.26.236,t1_Paradigm,2021.1.4,60.07948439223232,
V,left,Distractor,0,27,27,27,414.8911903934204,416.89087889471557,None,0,1,,B02L10,2022-11-17_09h09.26.236,t1_Paradigm,2021.1.4,60.07948439223232,
W,left,Lure,0,28,28,28,418.3907120777294,420.39004673447926,left,1,1,0.7912714921403676,B02L10,2022-11-17_09h09.26.236,t1_Paradigm,2021.1.4,60.07948439223232,
R,left,Pretarget,0,29,29,29,421.8900752858026,423.88988537108526,None,0,1,,B02L10,2022-11-17_09h09.26.236,t1_Paradigm,2021.1.4,60.07948439223232,
R,right,Target,0,30,30,30,425.3892331807292,427.389031075465,right,1,1,0.9456343345227651,B02L10,2022-11-17_09h09.26.236,t1_Paradigm,2021.1.4,60.07948439223232,
G,left,Distractor,0,31,31,31,428.8888103637146,430.88909170706756,None,0,1,,B02L10,2022-11-17_09h09.26.236,t1_Paradigm,2021.1.4,60.07948439223232,
R,left,Lure,0,32,32,32,432.404829609266,434.40515137364855,left,1,1,1.0951344608911313,B02L10,2022-11-17_09h09.26.236,t1_Paradigm,2021.1.4,60.07948439223232,
S,left,Distractor,0,33,33,33,435.9042524865363,437.90389222599333,None,0,1,,B02L10,2022-11-17_09h09.26.236,t1_Paradigm,2021.1.4,60.07948439223232,
R,left,Lure,0,34,34,34,439.4037154641119,441.40332889772253,left,1,1,1.352748695295304,B02L10,2022-11-17_09h09.26.236,t1_Paradigm,2021.1.4,60.07948439223232,
P,left,Pretarget,0,35,35,35,442.90309439151315,444.9027841759962,None,0,1,,B02L10,2022-11-17_09h09.26.236,t1_Paradigm,2021.1.4,60.07948439223232,
P,right,Target,0,36,36,36,446.4024685068871,448.4022147525684,right,1,1,1.2993691749870777,B02L10,2022-11-17_09h09.26.236,t1_Paradigm,2021.1.4,60.07948439223232,
Y,left,Pretarget,0,37,37,37,449.9022907826002,451.90162736416096,None,0,1,,B02L10,2022-11-17_09h09.26.236,t1_Paradigm,2021.1.4,60.07948439223232,
Y,right,Target,0,38,38,38,453.4015118754469,455.40105344948824,None,0,1,,B02L10,2022-11-17_09h09.26.236,t1_Paradigm,2021.1.4,60.07948439223232,
J,left,Distractor,0,39,39,39,456.9007916750852,458.9003694996936,None,0,1,,B02L10,2022-11-17_09h09.26.236,t1_Paradigm,2021.1.4,60.07948439223232,
Y,left,Lure,0,40,40,40,460.4002190436004,462.40010580053786,left,1,1,1.1105445035500452,B02L10,2022-11-17_09h09.26.236,t1_Paradigm,2021.1.4,60.07948439223232,
T,left,Distractor,0,41,41,41,463.899617860734,465.8992627330008,None,0,1,,B02L10,2022-11-17_09h09.26.236,t1_Paradigm,2021.1.4,60.07948439223232,
V,left,Distractor,0,42,42,42,467.3989987129462,469.3986965175136,left,1,1,1.0167907743016258,B02L10,2022-11-17_09h09.26.236,t1_Paradigm,2021.1.4,60.07948439223232,
N,left,Pretarget,0,43,43,43,470.8981386429514,472.8983279161039,None,0,1,,B02L10,2022-11-17_09h09.26.236,t1_Paradigm,2021.1.4,60.07948439223232,
N,right,Target,0,44,44,44,474.39771999639925,476.3973712846637,right,1,1,0.7680778316571377,B02L10,2022-11-17_09h09.26.236,t1_Paradigm,2021.1.4,60.07948439223232,
N,right,Target,0,45,45,45,477.89726991124917,479.8969369188417,None,0,1,,B02L10,2022-11-17_09h09.26.236,t1_Paradigm,2021.1.4,60.07948439223232,
X,left,Distractor,0,46,46,46,481.396542973991,483.39661675848765,left,1,1,0.8163428063853644,B02L10,2022-11-17_09h09.26.236,t1_Paradigm,2021.1.4,60.07948439223232,
Z,left,Distractor,0,47,47,47,484.8961012297077,486.8963344527292,None,0,1,,B02L10,2022-11-17_09h09.26.236,t1_Paradigm,2021.1.4,60.07948439223232,
H,left,Pretarget,0,48,48,48,488.3956283676671,490.3951590344077,left,1,1,1.0940652280696668,B02L10,2022-11-17_09h09.26.236,t1_Paradigm,2021.1.4,60.07948439223232,
H,right,Target,0,49,49,49,491.8949797060923,493.8945446986472,right,1,1,0.8147667063749395,B02L10,2022-11-17_09h09.26.236,t1_Paradigm,2021.1.4,60.07948439223232,
K,left,Distractor,0,50,50,50,495.3942627137294,497.39426175132394,left,1,1,0.8854984043282457,B02L10,2022-11-17_09h09.26.236,t1_Paradigm,2021.1.4,60.07948439223232,
V,left,Pretarget,0,51,51,51,498.89360763615696,500.89340039808303,left,1,1,0.9773744798148982,B02L10,2022-11-17_09h09.26.236,t1_Paradigm,2021.1.4,60.07948439223232,
V,right,Target,0,52,52,52,502.39308986178366,504.39277868391946,right,1,1,0.6774487133952789,B02L10,2022-11-17_09h09.26.236,t1_Paradigm,2021.1.4,60.07948439223232,
R,left,Distractor,0,53,53,53,505.89260256360285,507.89222562132636,left,1,1,1.2172958448063582,B02L10,2022-11-17_09h09.26.236,t1_Paradigm,2021.1.4,60.07948439223232,
V,left,Lure,0,54,54,54,509.39197635819437,511.391610002378,left,1,1,0.9136494174017571,B02L10,2022-11-17_09h09.26.236,t1_Paradigm,2021.1.4,60.07948439223232,
Y,left,Distractor,0,55,55,55,512.8914698119042,514.8918361677788,left,1,1,0.9101058390224352,B02L10,2022-11-17_09h09.26.236,t1_Paradigm,2021.1.4,60.07948439223232,
Q,left,Distractor,0,56,56,56,516.3908227543579,518.390604288259,left,1,1,0.8027375955716707,B02L10,2022-11-17_09h09.26.236,t1_Paradigm,2021.1.4,60.07948439223232,
Z,left,Pretarget,0,57,57,57,519.8900704737753,521.8899078271934,left,1,1,0.9598285377724096,B02L10,2022-11-17_09h09.26.236,t1_Paradigm,2021.1.4,60.07948439223232,
Z,right,Target,0,58,58,58,523.3896890402539,525.3893281380879,right,1,1,0.9574732098262757,B02L10,2022-11-17_09h09.26.236,t1_Paradigm,2021.1.4,60.07948439223232,
B,left,Distractor,0,59,59,59,526.888945742161,528.8886942334357,left,1,1,1.4037276545423083,B02L10,2022-11-17_09h09.26.236,t1_Paradigm,2021.1.4,60.07948439223232,
S,left,Pretarget,0,60,60,60,530.3885039978777,532.3886313562398,left,1,1,0.8305190447135828,B02L10,2022-11-17_09h09.26.236,t1_Paradigm,2021.1.4,60.07948439223232,
S,right,Target,0,61,61,61,533.8879178927164,535.8875637273304,right,1,1,1.003906726196874,B02L10,2022-11-17_09h09.26.236,t1_Paradigm,2021.1.4,60.07948439223232,
T,left,Distractor,0,62,62,62,537.3871550256736,539.3873324291199,left,1,1,0.854703662393149,B02L10,2022-11-17_09h09.26.236,t1_Paradigm,2021.1.4,60.07948439223232,
D,left,Distractor,0,63,63,63,540.8870132311713,542.8877417723997,left,1,1,1.3984835050068796,B02L10,2022-11-17_09h09.26.236,t1_Paradigm,2021.1.4,60.07948439223232,
R,left,Distractor,0,0,0,0,556.8729434991255,558.8669817156042,None,0,1,,B02L10,2022-11-17_09h09.26.236,t1_Paradigm,2021.1.4,60.07948439223232,
V,left,Distractor,0,1,1,1,560.3667430389323,562.3670343271224,left,1,1,1.1837486221920699,B02L10,2022-11-17_09h09.26.236,t1_Paradigm,2021.1.4,60.07948439223232,
N,left,Pretarget,0,2,2,2,563.8657937859534,565.8657697258168,left,1,1,1.2882675026194192,B02L10,2022-11-17_09h09.26.236,t1_Paradigm,2021.1.4,60.07948439223232,
N,right,Target,0,3,3,3,567.3656375554274,569.3651855454664,right,1,1,0.8540251662489027,B02L10,2022-11-17_09h09.26.236,t1_Paradigm,2021.1.4,60.07948439223232,
S,left,Distractor,0,4,4,4,570.8650617158855,572.8645773049793,left,1,1,1.03567863086937,B02L10,2022-11-17_09h09.26.236,t1_Paradigm,2021.1.4,60.07948439223232,
N,left,Lure,0,5,5,5,574.3643655756605,576.3640389992506,None,0,1,,B02L10,2022-11-17_09h09.26.236,t1_Paradigm,2021.1.4,60.07948439223232,
Z,left,Distractor,0,6,6,6,577.8638648038032,579.8637640720117,left,1,1,0.8723490530392155,B02L10,2022-11-17_09h09.26.236,t1_Paradigm,2021.1.4,60.07948439223232,
L,left,Pretarget,0,7,7,7,581.3630923127057,583.3627727939747,left,1,1,0.6873422456556,B02L10,2022-11-17_09h09.26.236,t1_Paradigm,2021.1.4,60.07948439223232,
L,right,Target,0,8,8,8,584.8630611949484,586.8621751399478,right,1,1,1.2805958446697332,B02L10,2022-11-17_09h09.26.236,t1_Paradigm,2021.1.4,60.07948439223232,
H,left,Distractor,0,9,9,9,588.3619582778192,590.3619018166792,left,1,1,0.6625599738908932,B02L10,2022-11-17_09h09.26.236,t1_Paradigm,2021.1.4,60.07948439223232,
L,left,Lure,0,10,10,10,591.8614568643388,593.8611030197935,left,1,1,0.7997592702158727,B02L10,2022-11-17_09h09.26.236,t1_Paradigm,2021.1.4,60.07948439223232,
X,left,Pretarget,0,11,11,11,595.3611902779085,597.3604967041174,None,0,1,,B02L10,2022-11-17_09h09.26.236,t1_Paradigm,2021.1.4,60.07948439223232,
X,right,Target,0,12,12,12,598.8603128846153,600.8599901578273,right,1,1,0.8766490824637003,B02L10,2022-11-17_09h09.26.236,t1_Paradigm,2021.1.4,60.07948439223232,
X,right,Target,0,13,13,13,602.3599930450437,604.3593915413949,None,0,1,,B02L10,2022-11-17_09h09.26.236,t1_Paradigm,2021.1.4,60.07948439223232,
R,left,Distractor,0,14,14,14,605.8590277519543,607.8591332958313,left,1,1,0.660352214879822,B02L10,2022-11-17_09h09.26.236,t1_Paradigm,2021.1.4,60.07948439223232,
T,left,Distractor,0,15,15,15,609.3584419675753,611.3580512308399,left,1,1,0.9849925638409331,B02L10,2022-11-17_09h09.26.236,t1_Paradigm,2021.1.4,60.07948439223232,
V,left,Pretarget,0,16,16,16,612.858586007671,614.8576229602331,left,1,1,0.8607851050328463,B02L10,2022-11-17_09h09.26.236,t1_Paradigm,2021.1.4,60.07948439223232,
V,right,Target,0,17,17,17,616.3574307998642,618.35714592773,right,1,1,1.1606133476598188,B02L10,2022-11-17_09h09.26.236,t1_Paradigm,2021.1.4,60.07948439223232,
N,left,Distractor,0,18,18,18,619.8567773262621,621.8563124842476,left,1,1,0.7103937907959335,B02L10,2022-11-17_09h09.26.236,t1_Paradigm,2021.1.4,60.07948439223232,
B,left,Distractor,0,19,19,19,623.3560465393821,625.357506188273,left,1,1,0.612841124762781,B02L10,2022-11-17_09h09.26.236,t1_Paradigm,2021.1.4,60.07948439223232,
V,left,Lure,0,20,20,20,626.8559284842922,628.8552243239828,left,1,1,0.8486263901577331,B02L10,2022-11-17_09h09.26.236,t1_Paradigm,2021.1.4,60.07948439223232,
P,left,Distractor,0,21,21,21,630.3549311110401,632.3546921135858,None,0,1,,B02L10,2022-11-17_09h09.26.236,t1_Paradigm,2021.1.4,60.07948439223232,
K,left,Pretarget,0,22,22,22,633.8543777276645,635.8540646249312,left,1,1,1.1543557847617194,B02L10,2022-11-17_09h09.26.236,t1_Paradigm,2021.1.4,60.07948439223232,
K,right,Target,0,23,23,23,637.35385257483,639.3534409859567,None,0,1,,B02L10,2022-11-17_09h09.26.236,t1_Paradigm,2021.1.4,60.07948439223232,
J,left,Pretarget,0,24,24,24,640.8532783393748,642.8528333870345,left,1,1,0.7751851989887655,B02L10,2022-11-17_09h09.26.236,t1_Paradigm,2021.1.4,60.07948439223232,
J,right,Target,0,25,25,25,644.352952404588,646.3523890763172,right,1,1,0.9033048375276849,B02L10,2022-11-17_09h09.26.236,t1_Paradigm,2021.1.4,60.07948439223232,
H,left,Distractor,0,26,26,26,647.8520669911522,649.8516881240648,left,1,1,0.6402613509562798,B02L10,2022-11-17_09h09.26.236,t1_Paradigm,2021.1.4,60.07948439223232,
J,left,Lure,0,27,27,27,651.3513098985422,653.3510359337088,left,1,1,1.2335354813258164,B02L10,2022-11-17_09h09.26.236,t1_Paradigm,2021.1.4,60.07948439223232,
V,left,Distractor,0,28,28,28,654.8508421693114,656.8511440439615,left,1,1,1.015281721833162,B02L10,2022-11-17_09h09.26.236,t1_Paradigm,2021.1.4,60.07948439223232,
Z,left,Pretarget,0,29,29,29,658.3505085352808,660.3496221594978,left,1,1,0.9282391694141552,B02L10,2022-11-17_09h09.26.236,t1_Paradigm,2021.1.4,60.07948439223232,
Z,right,Target,0,30,30,30,661.8496532772551,663.8494742697803,right,1,1,0.9381031878874637,B02L10,2022-11-17_09h09.26.236,t1_Paradigm,2021.1.4,60.07948439223232,
T,left,Distractor,0,31,31,31,665.3491987009184,667.3487454077695,left,1,1,0.9162767853122205,B02L10,2022-11-17_09h09.26.236,t1_Paradigm,2021.1.4,60.07948439223232,
Z,left,Lure,0,32,32,32,668.8485859691864,670.8480171873234,left,1,1,0.8328650693874806,B02L10,2022-11-17_09h09.26.236,t1_Paradigm,2021.1.4,60.07948439223232,
F,left,Distractor,0,33,33,33,672.3478182901163,674.3476986309979,None,0,1,,B02L10,2022-11-17_09h09.26.236,t1_Paradigm,2021.1.4,60.07948439223232,
Y,left,Pretarget,0,34,34,34,675.84748882649,677.8468430521898,left,1,1,0.8939576310804114,B02L10,2022-11-17_09h09.26.236,t1_Paradigm,2021.1.4,60.07948439223232,
Y,right,Target,0,35,35,35,679.3470297589083,681.3463721149019,right,1,1,1.1772523825638928,B02L10,2022-11-17_09h09.26.236,t1_Paradigm,2021.1.4,60.07948439223232,
Y,right,Target,0,36,36,36,682.8461802753154,684.8457154333009,left,0,1,0.7189027418498881,B02L10,2022-11-17_09h09.26.236,t1_Paradigm,2021.1.4,60.07948439223232,
W,left,Distractor,0,37,37,37,686.3455845460994,688.3452217190643,left,1,1,0.936975568998605,B02L10,2022-11-17_09h09.26.236,t1_Paradigm,2021.1.4,60.07948439223232,
Q,left,Distractor,0,38,38,38,689.8450228218571,691.8451649371418,left,1,1,0.49470901337917894,B02L10,2022-11-17_09h09.26.236,t1_Paradigm,2021.1.4,60.07948439223232,
P,left,Pretarget,0,39,39,39,693.3446917542606,695.3440902506118,left,1,1,0.517550433287397,B02L10,2022-11-17_09h09.26.236,t1_Paradigm,2021.1.4,60.07948439223232,
P,right,Target,0,40,40,40,696.8438101905049,698.8435256391531,right,1,1,1.3106719902716577,B02L10,2022-11-17_09h09.26.236,t1_Paradigm,2021.1.4,60.07948439223232,
J,left,Distractor,0,41,41,41,700.3432436542353,702.3429315139656,left,1,1,0.7296111110481434,B02L10,2022-11-17_09h09.26.236,t1_Paradigm,2021.1.4,60.07948439223232,
P,left,Lure,0,42,42,42,703.8426113536116,705.8423906418611,None,0,1,,B02L10,2022-11-17_09h09.26.236,t1_Paradigm,2021.1.4,60.07948439223232,
L,left,Distractor,0,43,43,43,707.3423409175593,709.3420785015333,left,1,1,1.027135674841702,B02L10,2022-11-17_09h09.26.236,t1_Paradigm,2021.1.4,60.07948439223232,
Z,left,Distractor,0,44,44,44,710.84161045152,712.8414481257205,left,1,1,0.9904384977999143,B02L10,2022-11-17_09h09.26.236,t1_Paradigm,2021.1.4,60.07948439223232,
F,left,Pretarget,0,45,45,45,714.3409980405704,716.3405226120958,left,1,1,0.5373034927761182,B02L10,2022-11-17_09h09.26.236,t1_Paradigm,2021.1.4,60.07948439223232,
F,right,Target,0,46,46,46,717.8403349429136,719.8401283464627,left,0,1,0.5024047314655036,B02L10,2022-11-17_09h09.26.236,t1_Paradigm,2021.1.4,60.07948439223232,
G,left,Pretarget,0,47,47,47,721.3398126773536,723.3397363264812,left,1,1,0.7127471939893439,B02L10,2022-11-17_09h09.26.236,t1_Paradigm,2021.1.4,60.07948439223232,
G,right,Target,0,48,48,48,724.839280787739,726.8389442664338,right,1,1,0.9069138595368713,B02L10,2022-11-17_09h09.26.236,t1_Paradigm,2021.1.4,60.07948439223232,
V,left,Distractor,0,49,49,49,728.3386988529819,730.3406275142916,None,0,1,,B02L10,2022-11-17_09h09.26.236,t1_Paradigm,2021.1.4,60.07948439223232,
G,left,Lure,0,50,50,50,731.8546439932543,733.8545275421347,left,1,1,1.066210956836585,B02L10,2022-11-17_09h09.26.236,t1_Paradigm,2021.1.4,60.07948439223232,
Q,left,Pretarget,0,51,51,51,735.353909677593,737.3536366751068,left,1,1,0.6849108876194805,B02L10,2022-11-17_09h09.26.236,t1_Paradigm,2021.1.4,60.07948439223232,
Q,right,Target,0,52,52,52,738.8533845248166,740.8531561138225,right,1,1,1.025561178859789,B02L10,2022-11-17_09h09.26.236,t1_Paradigm,2021.1.4,60.07948439223232,
Y,left,Distractor,0,53,53,53,742.3530258681858,744.3530130361323,left,1,1,0.6560749624622986,B02L10,2022-11-17_09h09.26.236,t1_Paradigm,2021.1.4,60.07948439223232,
V,left,Distractor,0,54,54,54,745.8520820688573,747.8519219887094,left,1,1,0.727625346975401,B02L10,2022-11-17_09h09.26.236,t1_Paradigm,2021.1.4,60.07948439223232,
B,left,Distractor,0,55,55,55,749.3517259787186,751.3516069611651,left,1,1,0.8883140831021592,B02L10,2022-11-17_09h09.26.236,t1_Paradigm,2021.1.4,60.07948439223232,
J,left,Pretarget,0,56,56,56,752.8511751617189,754.8506410265109,left,1,1,0.6337882091174833,B02L10,2022-11-17_09h09.26.236,t1_Paradigm,2021.1.4,60.07948439223232,
J,right,Target,0,57,57,57,756.3504562445451,758.3500805854565,left,0,1,0.693156139459461,B02L10,2022-11-17_09h09.26.236,t1_Paradigm,2021.1.4,60.07948439223232,
H,left,Distractor,0,58,58,58,759.8500026306137,761.8495509414352,left,1,1,0.7604498028522357,B02L10,2022-11-17_09h09.26.236,t1_Paradigm,2021.1.4,60.07948439223232,
J,left,Lure,0,59,59,59,763.3493639139342,765.349191322457,left,1,1,1.230927040684037,B02L10,2022-11-17_09h09.26.236,t1_Paradigm,2021.1.4,60.07948439223232,
D,left,Pretarget,0,60,60,60,766.848697287438,768.8482969265897,left,1,1,0.600937768293079,B02L10,2022-11-17_09h09.26.236,t1_Paradigm,2021.1.4,60.07948439223232,
D,right,Target,0,61,61,61,770.3481820794987,772.3477756234352,right,1,1,0.7831218392821029,B02L10,2022-11-17_09h09.26.236,t1_Paradigm,2021.1.4,60.07948439223232,
R,left,Distractor,0,62,62,62,773.8474676535698,775.8476720044273,left,1,1,0.8134748369338922,B02L10,2022-11-17_09h09.26.236,t1_Paradigm,2021.1.4,60.07948439223232,
F,left,Distractor,0,63,63,63,777.3470820496441,779.346555934404,None,0,1,,B02L10,2022-11-17_09h09.26.236,t1_Paradigm,2021.1.4,60.07948439223232,
F,left,Distractor,0,0,0,0,983.1192709583556,985.1122001624899,None,0,2,,B02L10,2022-11-17_09h09.26.236,t1_Paradigm,2021.1.4,60.07948439223232,
N,left,Pretarget,0,1,1,1,986.6119326136541,988.6117202427704,None,0,2,,B02L10,2022-11-17_09h09.26.236,t1_Paradigm,2021.1.4,60.07948439223232,
V,left,Distractor,0,2,2,2,990.1111857867218,992.1110452754656,left,1,2,1.3000919418409467,B02L10,2022-11-17_09h09.26.236,t1_Paradigm,2021.1.4,60.07948439223232,
N,right,Target,0,3,3,3,993.6106089847744,995.6106859772699,right,1,2,0.8497822396457195,B02L10,2022-11-17_09h09.26.236,t1_Paradigm,2021.1.4,60.07948439223232,
N,left,Lure,0,4,4,4,997.1101582580595,999.1098602330312,left,1,2,0.8077443516231142,B02L10,2022-11-17_09h09.26.236,t1_Paradigm,2021.1.4,60.07948439223232,
X,left,Distractor,0,5,5,5,1000.6096141779562,1002.6092423684895,left,1,2,1.0589659654651769,B02L10,2022-11-17_09h09.26.236,t1_Paradigm,2021.1.4,60.07948439223232,
G,left,Pretarget,0,6,6,6,1004.1089360025944,1006.1084624989307,left,1,2,1.1021648357855156,B02L10,2022-11-17_09h09.26.236,t1_Paradigm,2021.1.4,60.07948439223232,
H,left,Pretarget,0,7,7,7,1007.6082793209935,1009.6080136969686,left,1,2,0.664250279427506,B02L10,2022-11-17_09h09.26.236,t1_Paradigm,2021.1.4,60.07948439223232,
G,right,Target,0,8,8,8,1011.1077920228126,1013.1073255767697,right,1,2,1.282652506022714,B02L10,2022-11-17_09h09.26.236,t1_Paradigm,2021.1.4,60.07948439223232,
H,right,Target,0,9,9,9,1014.6073307096376,1016.6066358526004,None,0,2,,B02L10,2022-11-17_09h09.26.236,t1_Paradigm,2021.1.4,60.07948439223232,
T,left,Pretarget,0,10,10,10,1018.1066858976847,1020.1064443338546,None,0,2,,B02L10,2022-11-17_09h09.26.236,t1_Paradigm,2021.1.4,60.07948439223232,
K,left,Distractor,0,11,11,11,1021.6058678527479,1023.6060176672181,left,1,2,1.2032957267947495,B02L10,2022-11-17_09h09.26.236,t1_Paradigm,2021.1.4,60.07948439223232,
T,right,Target,0,12,12,12,1025.1054097475135,1027.1051826197654,None,0,2,,B02L10,2022-11-17_09h09.26.236,t1_Paradigm,2021.1.4,60.07948439223232,
T,left,Lure,0,13,13,13,1028.6048435320845,1030.6045429406804,left,1,2,1.1269904156797566,B02L10,2022-11-17_09h09.26.236,t1_Paradigm,2021.1.4,60.07948439223232,
J,left,Distractor,0,14,14,14,1032.1042939983308,1034.1035353016923,left,1,2,0.9299981265212409,B02L10,2022-11-17_09h09.26.236,t1_Paradigm,2021.1.4,60.07948439223232,
Q,left,Pretarget,0,15,15,15,1035.6036283342983,1037.603345386975,left,1,2,0.6998054015566595,B02L10,2022-11-17_09h09.26.236,t1_Paradigm,2021.1.4,60.07948439223232,
M,left,Distractor,0,16,16,16,1039.1030550611904,1041.104771030834,left,1,2,0.7121020611957647,B02L10,2022-11-17_09h09.26.236,t1_Paradigm,2021.1.4,60.07948439223232,
Q,right,Target,0,17,17,17,1042.6026999334572,1044.6022508107126,right,1,2,0.8183449314092286,B02L10,2022-11-17_09h09.26.236,t1_Paradigm,2021.1.4,60.07948439223232,
R,left,Distractor,0,18,18,18,1046.101877076435,1048.101584505057,left,1,2,1.0896782612544484,B02L10,2022-11-17_09h09.26.236,t1_Paradigm,2021.1.4,60.07948439223232,
W,left,Distractor,0,19,19,19,1049.6013637933065,1051.6007751217112,left,1,2,0.9006232540705241,B02L10,2022-11-17_09h09.26.236,t1_Paradigm,2021.1.4,60.07948439223232,
C,left,Pretarget,0,20,20,20,1053.1007006956497,1055.100667973864,left,1,2,0.6459494903683662,B02L10,2022-11-17_09h09.26.236,t1_Paradigm,2021.1.4,60.07948439223232,
T,left,Distractor,0,21,21,21,1056.600216605526,1058.5997883349191,left,1,2,0.9911022370215505,B02L10,2022-11-17_09h09.26.236,t1_Paradigm,2021.1.4,60.07948439223232,
C,right,Target,0,22,22,22,1060.0996436532005,1062.099086420203,right,1,2,0.5859107631258667,B02L10,2022-11-17_09h09.26.236,t1_Paradigm,2021.1.4,60.07948439223232,
F,left,Pretarget,0,23,23,23,1063.5989330768934,1065.5984056784655,left,1,2,0.6499110737349838,B02L10,2022-11-17_09h09.26.236,t1_Paradigm,2021.1.4,60.07948439223232,
C,right,Target,0,24,24,24,1067.0984246057924,1069.0983620494371,right,1,2,0.6023152918787673,B02L10,2022-11-17_09h09.26.236,t1_Paradigm,2021.1.4,60.07948439223232,
F,right,Target,0,25,25,25,1070.5978147612768,1072.5973178390414,right,1,2,0.7806888773338869,B02L10,2022-11-17_09h09.26.236,t1_Paradigm,2021.1.4,60.07948439223232,
H,left,Distractor,0,26,26,26,1074.097171874193,1076.0969421799527,left,1,2,0.8560321033000946,B02L10,2022-11-17_09h09.26.236,t1_Paradigm,2021.1.4,60.07948439223232,
H,left,Lure,0,27,27,27,1077.596923894249,1079.5962630422437,left,1,2,0.8094035393442027,B02L10,2022-11-17_09h09.26.236,t1_Paradigm,2021.1.4,60.07948439223232,
P,left,Distractor,0,28,28,28,1081.096016024705,1083.0958248267416,left,1,2,1.1135696659912355,B02L10,2022-11-17_09h09.26.236,t1_Paradigm,2021.1.4,60.07948439223232,
G,left,Pretarget,0,29,29,29,1084.595098210324,1086.5951521050883,left,1,2,1.2830313731101342,B02L10,2022-11-17_09h09.26.236,t1_Paradigm,2021.1.4,60.07948439223232,
K,left,Distractor,0,30,30,30,1088.094814621436,1090.0943404761492,left,1,2,0.8412517948891036,B02L10,2022-11-17_09h09.26.236,t1_Paradigm,2021.1.4,60.07948439223232,
G,right,Target,0,31,31,31,1091.5944408871583,1093.5940126165515,right,1,2,0.6717872004956007,B02L10,2022-11-17_09h09.26.236,t1_Paradigm,2021.1.4,60.07948439223232,
M,left,Pretarget,0,32,32,32,1095.0937081754673,1097.0932462206692,left,1,2,0.6008720038807951,B02L10,2022-11-17_09h09.26.236,t1_Paradigm,2021.1.4,60.07948439223232,
B,left,Distractor,0,33,33,33,1098.5930245465133,1100.5926777595887,left,1,2,1.03559490153566,B02L10,2022-11-17_09h09.26.236,t1_Paradigm,2021.1.4,60.07948439223232,
M,right,Target,0,34,34,34,1102.092451594246,1104.0920772183454,right,1,2,0.9239599921857007,B02L10,2022-11-17_09h09.26.236,t1_Paradigm,2021.1.4,60.07948439223232,
M,left,Lure,0,35,35,35,1105.5919097597362,1107.5918436745415,None,0,2,,B02L10,2022-11-17_09h09.26.236,t1_Paradigm,2021.1.4,60.07948439223232,
T,left,Distractor,0,36,36,36,1109.0914038550109,1111.091287083109,left,1,2,1.282972987217363,B02L10,2022-11-17_09h09.26.236,t1_Paradigm,2021.1.4,60.07948439223232,
F,left,Distractor,0,37,37,37,1112.5907612887095,1114.5904844366596,left,1,2,0.8407875944976695,B02L10,2022-11-17_09h09.26.236,t1_Paradigm,2021.1.4,60.07948439223232,
X,left,Distractor,0,38,38,38,1116.09026564972,1118.0917134289048,left,1,2,0.927276121918112,B02L10,2022-11-17_09h09.26.236,t1_Paradigm,2021.1.4,60.07948439223232,
C,left,Distractor,0,39,39,39,1119.6064433714491,1121.6059429203742,left,1,2,0.8250301232910715,B02L10,2022-11-17_09h09.26.236,t1_Paradigm,2021.1.4,60.07948439223232,
R,left,Distractor,0,40,40,40,1123.1057148301625,1125.1053815169726,left,1,2,0.6644187004421838,B02L10,2022-11-17_09h09.26.236,t1_Paradigm,2021.1.4,60.07948439223232,
B,left,Pretarget,0,41,41,41,1126.605099211214,1128.6045753416256,left,1,2,0.9767508407821879,B02L10,2022-11-17_09h09.26.236,t1_Paradigm,2021.1.4,60.07948439223232,
H,left,Distractor,0,42,42,42,1130.10452690057,1132.1042648053844,left,1,2,1.0235728483530693,B02L10,2022-11-17_09h09.26.236,t1_Paradigm,2021.1.4,60.07948439223232,
B,right,Target,0,43,43,43,1133.6039276425145,1135.6036318630795,left,0,2,0.6591540196095593,B02L10,2022-11-17_09h09.26.236,t1_Paradigm,2021.1.4,60.07948439223232,
W,left,Pretarget,0,44,44,44,1137.1033684847062,1139.1033809959772,left,1,2,0.5998072621878237,B02L10,2022-11-17_09h09.26.236,t1_Paradigm,2021.1.4,60.07948439223232,
L,left,Pretarget,0,45,45,45,1140.602815422113,1142.6018953621387,left,1,2,0.7010180329089053,B02L10,2022-11-17_09h09.26.236,t1_Paradigm,2021.1.4,60.07948439223232,
W,right,Target,0,46,46,46,1144.1024429710815,1146.1024410462705,left,0,2,0.6826636699261144,B02L10,2022-11-17_09h09.26.236,t1_Paradigm,2021.1.4,60.07948439223232,
L,right,Target,0,47,47,47,1147.6018048959668,1149.6014411065844,right,1,2,1.3576884038047865,B02L10,2022-11-17_09h09.26.236,t1_Paradigm,2021.1.4,60.07948439223232,
W,right,Target,0,48,48,48,1151.1009945502155,1153.1009589412133,right,1,2,1.4415238990914077,B02L10,2022-11-17_09h09.26.236,t1_Paradigm,2021.1.4,60.07948439223232,
X,left,Distractor,0,49,49,49,1154.6004870415782,1156.6007462495472,left,1,2,0.8279439674806781,B02L10,2022-11-17_09h09.26.236,t1_Paradigm,2021.1.4,60.07948439223232,
R,left,Distractor,0,50,50,50,1158.0997857684852,1160.0998306807596,None,0,2,,B02L10,2022-11-17_09h09.26.236,t1_Paradigm,2021.1.4,60.07948439223232,
V,left,Pretarget,0,51,51,51,1161.5991470518056,1163.598812134529,left,1,2,0.8702978453948162,B02L10,2022-11-17_09h09.26.236,t1_Paradigm,2021.1.4,60.07948439223232,
Z,left,Distractor,0,52,52,52,1165.0986186909722,1167.098174380255,left,1,2,0.6404284887830727,B02L10,2022-11-17_09h09.26.236,t1_Paradigm,2021.1.4,60.07948439223232,
V,right,Target,0,53,53,53,1168.5980463802698,1170.59735633526,right,1,2,0.7569280390162021,B02L10,2022-11-17_09h09.26.236,t1_Paradigm,2021.1.4,60.07948439223232,
V,left,Lure,0,54,54,54,1172.097358260071,1174.0971577588934,None,0,2,,B02L10,2022-11-17_09h09.26.236,t1_Paradigm,2021.1.4,60.07948439223232,
N,left,Distractor,0,55,55,55,1175.596824124863,1177.5964061198756,None,0,2,,B02L10,2022-11-17_09h09.26.236,t1_Paradigm,2021.1.4,60.07948439223232,
B,left,Distractor,0,56,56,56,1179.0963647364406,1181.0959204257233,left,1,2,0.7675667941803113,B02L10,2022-11-17_09h09.26.236,t1_Paradigm,2021.1.4,60.07948439223232,
V,left,Lure,0,57,57,57,1182.5956602553488,1184.5952316639596,left,1,2,0.545902589103207,B02L10,2022-11-17_09h09.26.236,t1_Paradigm,2021.1.4,60.07948439223232,
J,left,Distractor,0,58,58,58,1186.094995232881,1188.0948197542457,left,1,2,0.8376344320713542,B02L10,2022-11-17_09h09.26.236,t1_Paradigm,2021.1.4,60.07948439223232,
H,left,Distractor,0,59,59,59,1189.5945871728472,1191.594144786941,left,1,2,0.9787019582581706,B02L10,2022-11-17_09h09.26.236,t1_Paradigm,2021.1.4,60.07948439223232,
X,left,Pretarget,0,60,60,60,1193.093845157884,1195.0937864511507,left,1,2,0.6261720499605872,B02L10,2022-11-17_09h09.26.236,t1_Paradigm,2021.1.4,60.07948439223232,
P,left,Distractor,0,61,61,61,1196.593337970029,1198.5932228020974,left,1,2,0.5104757877415977,B02L10,2022-11-17_09h09.26.236,t1_Paradigm,2021.1.4,60.07948439223232,
X,right,Target,0,62,62,62,1200.0927149726194,1202.0928211580613,right,1,2,0.6838054041145369,B02L10,2022-11-17_09h09.26.236,t1_Paradigm,2021.1.4,60.07948439223232,
Q,left,Distractor,0,63,63,63,1203.5921988022747,1205.592130150646,left,1,2,0.494602186314296,B02L10,2022-11-17_09h09.26.236,t1_Paradigm,2021.1.4,60.07948439223232,
B,left,Pretarget,0,0,0,0,1266.6701584890252,1268.6644411566085,None,0,2,,B02L10,2022-11-17_09h09.26.236,t1_Paradigm,2021.1.4,60.07948439223232,
F,left,Distractor,0,1,1,1,1270.1645499084843,1272.164209858398,None,0,2,,B02L10,2022-11-17_09h09.26.236,t1_Paradigm,2021.1.4,60.07948439223232,
B,right,Target,0,2,2,2,1273.6637928158743,1275.663352354779,right,1,2,0.7546952574048191,B02L10,2022-11-17_09h09.26.236,t1_Paradigm,2021.1.4,60.07948439223232,
V,left,Distractor,0,3,3,3,1277.163174630492,1279.1626700090128,left,1,2,0.5246452892897651,B02L10,2022-11-17_09h09.26.236,t1_Paradigm,2021.1.4,60.07948439223232,
G,left,Pretarget,0,4,4,4,1280.6626061694114,1282.662241096783,left,1,2,0.6773162221652456,B02L10,2022-11-17_09h09.26.236,t1_Paradigm,2021.1.4,60.07948439223232,
B,left,Lure,0,5,5,5,1284.1619542998378,1286.161603342509,left,1,2,0.7085863926331513,B02L10,2022-11-17_09h09.26.236,t1_Paradigm,2021.1.4,60.07948439223232,
G,right,Target,0,6,6,6,1287.661442620738,1289.6608616483863,right,1,2,0.5277115143253468,B02L10,2022-11-17_09h09.26.236,t1_Paradigm,2021.1.4,60.07948439223232,
Y,left,Pretarget,0,7,7,7,1291.1607022098615,1293.1624541092897,left,1,2,0.646328357513994,B02L10,2022-11-17_09h09.26.236,t1_Paradigm,2021.1.4,60.07948439223232,
P,left,Distractor,0,8,8,8,1294.6604994630325,1296.6598373277811,left,1,2,0.5935259599355049,B02L10,2022-11-17_09h09.26.236,t1_Paradigm,2021.1.4,60.07948439223232,
Y,right,Target,0,9,9,9,1298.1596910420922,1300.1591729469365,right,1,2,0.6122008040547371,B02L10,2022-11-17_09h09.26.236,t1_Paradigm,2021.1.4,60.07948439223232,
X,left,Distractor,0,10,10,10,1301.6589143805322,1303.6585733680986,left,1,2,0.5620498346397653,B02L10,2022-11-17_09h09.26.236,t1_Paradigm,2021.1.4,60.07948439223232,
Y,right,Target,0,11,11,11,1305.1584341400303,1307.1580430824542,right,1,2,0.715189459209796,B02L10,2022-11-17_09h09.26.236,t1_Paradigm,2021.1.4,60.07948439223232,
N,left,Distractor,0,12,12,12,1308.6580004157731,1310.6574880950502,left,1,2,0.607318519090768,B02L10,2022-11-17_09h09.26.236,t1_Paradigm,2021.1.4,60.07948439223232,
Y,right,Target,0,13,13,13,1312.1571701803477,1314.156957809464,right,1,2,0.5730222238926217,B02L10,2022-11-17_09h09.26.236,t1_Paradigm,2021.1.4,60.07948439223232,
Y,left,Lure,0,14,14,14,1315.6567120751133,1317.6563495689188,left,1,2,0.7832030021818355,B02L10,2022-11-17_09h09.26.236,t1_Paradigm,2021.1.4,60.07948439223232,
K,left,Distractor,0,15,15,15,1319.1561400852515,1321.155809017655,left,1,2,0.7980875712237321,B02L10,2022-11-17_09h09.26.236,t1_Paradigm,2021.1.4,60.07948439223232,
T,left,Pretarget,0,16,16,16,1322.6555389023852,1324.6554808372166,left,1,2,0.6619283148902468,B02L10,2022-11-17_09h09.26.236,t1_Paradigm,2021.1.4,60.07948439223232,
J,left,Distractor,0,17,17,17,1326.1550666819094,1328.1545206769952,left,1,2,0.5545167631935328,B02L10,2022-11-17_09h09.26.236,t1_Paradigm,2021.1.4,60.07948439223232,
T,right,Target,0,18,18,18,1329.6545671932981,1331.6543275542208,right,1,2,0.5850776404840872,B02L10,2022-11-17_09h09.26.236,t1_Paradigm,2021.1.4,60.07948439223232,
S,left,Pretarget,0,19,19,19,1333.1536753638647,1335.15328783507,left,1,2,0.5436406145454384,B02L10,2022-11-17_09h09.26.236,t1_Paradigm,2021.1.4,60.07948439223232,
R,left,Distractor,0,20,20,20,1336.653228165931,1338.6530805970542,left,1,2,0.696753291762434,B02L10,2022-11-17_09h09.26.236,t1_Paradigm,2021.1.4,60.07948439223232,
S,right,Target,0,21,21,21,1340.1525522362208,1342.152301689901,right,1,2,0.6543099100817926,B02L10,2022-11-17_09h09.26.236,t1_Paradigm,2021.1.4,60.07948439223232,
Q,left,Distractor,0,22,22,22,1343.652267684869,1345.6516071536462,left,1,2,0.4772705399664119,B02L10,2022-11-17_09h09.26.236,t1_Paradigm,2021.1.4,60.07948439223232,
D,left,Distractor,0,23,23,23,1347.151381309086,1349.1513280559448,left,1,2,0.8666852945461869,B02L10,2022-11-17_09h09.26.236,t1_Paradigm,2021.1.4,60.07948439223232,
F,left,Distractor,0,24,24,24,1350.65084204101,1352.6503573092632,left,1,2,0.6289418539963663,B02L10,2022-11-17_09h09.26.236,t1_Paradigm,2021.1.4,60.07948439223232,
Z,left,Distractor,0,25,25,25,1354.1502899408224,1356.1499226226006,left,1,2,0.6273416938493028,B02L10,2022-11-17_09h09.26.236,t1_Paradigm,2021.1.4,60.07948439223232,
P,left,Distractor,0,26,26,26,1357.6495283569675,1359.6492739610258,left,1,2,0.7392897059908137,B02L10,2022-11-17_09h09.26.236,t1_Paradigm,2021.1.4,60.07948439223232,
H,left,Distractor,0,27,27,27,1361.1490991239552,1363.1487212192733,left,1,2,0.8193913873983547,B02L10,2022-11-17_09h09.26.236,t1_Paradigm,2021.1.4,60.07948439223232,
Z,left,Pretarget,0,28,28,28,1364.64859706891,1366.648059084022,left,1,2,1.3967190942494199,B02L10,2022-11-17_09h09.26.236,t1_Paradigm,2021.1.4,60.07948439223232,
J,left,Pretarget,0,29,29,29,1368.1478743021144,1370.1476035452797,left,1,2,1.0400421790545806,B02L10,2022-11-17_09h09.26.236,t1_Paradigm,2021.1.4,60.07948439223232,
Z,right,Target,0,30,30,30,1371.6474222921534,1373.6468936105375,right,1,2,0.5085259535117075,B02L10,2022-11-17_09h09.26.236,t1_Paradigm,2021.1.4,60.07948439223232,
J,right,Target,0,31,31,31,1375.1467242271174,1377.1466244577314,left,0,2,0.6452472548699006,B02L10,2022-11-17_09h09.26.236,t1_Paradigm,2021.1.4,60.07948439223232,
V,left,Pretarget,0,32,32,32,1378.6462186432327,1380.6457566884346,left,1,2,0.7252247859141789,B02L10,2022-11-17_09h09.26.236,t1_Paradigm,2021.1.4,60.07948439223232,
Z,left,Lure,0,33,33,33,1382.1455539416056,1384.145405410265,left,1,2,0.6220167021965608,B02L10,2022-11-17_09h09.26.236,t1_Paradigm,2021.1.4,60.07948439223232,
V,right,Target,0,34,34,34,1385.6450701722642,1387.6445049191825,left,0,2,0.7800222508376464,B02L10,2022-11-17_09h09.26.236,t1_Paradigm,2021.1.4,60.07948439223232,
X,left,Distractor,0,35,35,35,1389.1440506636281,1391.144067024521,left,1,2,0.6478698108694516,B02L10,2022-11-17_09h09.26.236,t1_Paradigm,2021.1.4,60.07948439223232,
S,left,Distractor,0,36,36,36,1392.6437715659267,1394.6436974607059,left,1,2,0.6945192269631661,B02L10,2022-11-17_09h09.26.236,t1_Paradigm,2021.1.4,60.07948439223232,
Q,left,Distractor,0,37,37,37,1396.143239034689,1398.1428595259786,left,1,2,0.49788655672455207,B02L10,2022-11-17_09h09.26.236,t1_Paradigm,2021.1.4,60.07948439223232,
P,left,Distractor,0,38,38,38,1399.6430106236949,1401.6424614107818,left,1,2,0.6998249704483896,B02L10,2022-11-17_09h09.26.236,t1_Paradigm,2021.1.4,60.07948439223232,
S,left,Lure,0,39,39,39,1403.1421989947557,1405.1416610098677,left,1,2,1.012787165818736,B02L10,2022-11-17_09h09.26.236,t1_Paradigm,2021.1.4,60.07948439223232,
K,left,Pretarget,0,40,40,40,1406.6412991452962,1408.6414476765785,left,1,2,0.7170831531984732,B02L10,2022-11-17_09h09.26.236,t1_Paradigm,2021.1.4,60.07948439223232,
L,left,Distractor,0,41,41,41,1410.1408978220425,1412.1410803583567,left,1,2,0.6501606576493941,B02L10,2022-11-17_09h09.26.236,t1_Paradigm,2021.1.4,60.07948439223232,
K,right,Target,0,42,42,42,1413.6404679474072,1415.6399184136535,right,1,2,0.5188612300553359,B02L10,2022-11-17_09h09.26.236,t1_Paradigm,2021.1.4,60.07948439223232,
B,left,Distractor,0,43,43,43,1417.1395116368076,1419.1392030253191,left,1,2,0.6645098082371987,B02L10,2022-11-17_09h09.26.236,t1_Paradigm,2021.1.4,60.07948439223232,
N,left,Distractor,0,44,44,44,1420.6391167296097,1422.6387080278946,left,1,2,0.7118800663156435,B02L10,2022-11-17_09h09.26.236,t1_Paradigm,2021.1.4,60.07948439223232,
S,left,Pretarget,0,45,45,45,1424.1384953362285,1426.138046213484,right,0,2,0.4532010902184993,B02L10,2022-11-17_09h09.26.236,t1_Paradigm,2021.1.4,60.07948439223232,
Z,left,Distractor,0,46,46,46,1427.6379615217447,1429.6375377423828,left,1,2,0.5090726000489667,B02L10,2022-11-17_09h09.26.236,t1_Paradigm,2021.1.4,60.07948439223232,
S,right,Target,0,47,47,47,1431.137192238646,1433.137489301269,right,1,2,0.40925186418462545,B02L10,2022-11-17_09h09.26.236,t1_Paradigm,2021.1.4,60.07948439223232,
C,left,Distractor,0,48,48,48,1434.6370642387192,1436.6362625546171,left,1,2,0.6199401511694305,B02L10,2022-11-17_09h09.26.236,t1_Paradigm,2021.1.4,60.07948439223232,
T,left,Pretarget,0,49,49,49,1438.136091887951,1440.135665542155,left,1,2,0.9201228800229728,B02L10,2022-11-17_09h09.26.236,t1_Paradigm,2021.1.4,60.07948439223232,
S,left,Lure,0,50,50,50,1441.6356507852906,1443.6352549156873,right,0,2,1.2772460307460278,B02L10,2022-11-17_09h09.26.236,t1_Paradigm,2021.1.4,60.07948439223232,
T,right,Target,0,51,51,51,1445.134806755348,1447.1342139133485,left,0,2,0.6036989106796682,B02L10,2022-11-17_09h09.26.236,t1_Paradigm,2021.1.4,60.07948439223232,
N,left,Pretarget,0,52,52,52,1448.6344577228301,1450.6341099735,left,1,2,0.7644373711082153,B02L10,2022-11-17_09h09.26.236,t1_Paradigm,2021.1.4,60.07948439223232,
B,left,Distractor,0,53,53,53,1452.1338703344227,1454.1339155675378,left,1,2,0.5666841396596283,B02L10,2022-11-17_09h09.26.236,t1_Paradigm,2021.1.4,60.07948439223232,
N,right,Target,0,54,54,54,1455.633238675422,1457.633354805701,right,1,2,1.0260475146351382,B02L10,2022-11-17_09h09.26.236,t1_Paradigm,2021.1.4,60.07948439223232,
N,left,Lure,0,55,55,55,1459.1326872168574,1461.1324600890512,left,1,2,0.9106017987942323,B02L10,2022-11-17_09h09.26.236,t1_Paradigm,2021.1.4,60.07948439223232,
X,left,Distractor,0,56,56,56,1462.632061011449,1464.6317661944195,left,1,2,0.558390125981532,B02L10,2022-11-17_09h09.26.236,t1_Paradigm,2021.1.4,60.07948439223232,
W,left,Distractor,0,57,57,57,1466.131487096718,1468.13136230479,left,1,2,0.5034576034522615,B02L10,2022-11-17_09h09.26.236,t1_Paradigm,2021.1.4,60.07948439223232,
S,left,Distractor,0,58,58,58,1469.6309404501808,1471.6309888912947,left,1,2,0.5587532737408765,B02L10,2022-11-17_09h09.26.236,t1_Paradigm,2021.1.4,60.07948439223232,
L,left,Distractor,0,59,59,59,1473.1303180943942,1475.1298179641599,left,1,2,0.5457880628528073,B02L10,2022-11-17_09h09.26.236,t1_Paradigm,2021.1.4,60.07948439223232,
K,left,Pretarget,0,60,60,60,1476.6297724102624,1478.6293300244142,left,1,2,0.539927331963554,B02L10,2022-11-17_09h09.26.236,t1_Paradigm,2021.1.4,60.07948439223232,
V,left,Pretarget,0,61,61,61,1480.1291446008836,1482.1286669267574,left,1,2,0.513787105504889,B02L10,2022-11-17_09h09.26.236,t1_Paradigm,2021.1.4,60.07948439223232,
K,right,Target,0,62,62,62,1483.6285212826915,1485.6287702249829,left,0,2,0.5727264444576576,B02L10,2022-11-17_09h09.26.236,t1_Paradigm,2021.1.4,60.07948439223232,
V,right,Target,0,63,63,63,1487.128011207562,1489.127719277807,left,0,2,0.7430129334097728,B02L10,2022-11-17_09h09.26.236,t1_Paradigm,2021.1.4,60.07948439223232,
R,left,Distractor,0,0,0,0,1746.6435832551797,1748.633890224155,None,0,3,,B02L10,2022-11-17_09h09.26.236,t1_Paradigm,2021.1.4,60.07948439223232,
P,left,Lure,0,1,1,1,1750.1339822942973,1752.1335533821257,None,0,3,,B02L10,2022-11-17_09h09.26.236,t1_Paradigm,2021.1.4,60.07948439223232,
V,left,Distractor,0,2,2,2,1753.6331767606316,1755.6328328609234,None,0,3,,B02L10,2022-11-17_09h09.26.236,t1_Paradigm,2021.1.4,60.07948439223232,
P,left,Pretarget,0,3,3,3,1757.1326702143415,1759.1323234274168,left,1,3,0.8839450812665746,B02L10,2022-11-17_09h09.26.236,t1_Paradigm,2021.1.4,60.07948439223232,
Z,left,Distractor,0,4,4,4,1760.632194785867,1762.631927878596,left,1,3,0.7760815196088515,B02L10,2022-11-17_09h09.26.236,t1_Paradigm,2021.1.4,60.07948439223232,
L,left,Pretarget,0,5,5,5,1764.1314328811713,1766.1311345353606,left,1,3,0.6323612820124254,B02L10,2022-11-17_09h09.26.236,t1_Paradigm,2021.1.4,60.07948439223232,
P,right,Target,0,6,6,6,1767.630895858747,1769.6305615830934,None,0,3,,B02L10,2022-11-17_09h09.26.236,t1_Paradigm,2021.1.4,60.07948439223232,
S,left,Distractor,0,7,7,7,1771.1302625956596,1773.1298349666758,left,1,3,1.1109115010476671,B02L10,2022-11-17_09h09.26.236,t1_Paradigm,2021.1.4,60.07948439223232,
L,right,Target,0,8,8,8,1774.6299004102475,1776.629291207355,right,1,3,0.9216896767029539,B02L10,2022-11-17_09h09.26.236,t1_Paradigm,2021.1.4,60.07948439223232,
D,left,Distractor,0,9,9,9,1778.1292443702696,1780.1286553778918,left,1,3,0.700144168396946,B02L10,2022-11-17_09h09.26.236,t1_Paradigm,2021.1.4,60.07948439223232,
G,left,Distractor,0,10,10,10,1781.6285908966674,1783.628187007038,left,1,3,0.7923073616111651,B02L10,2022-11-17_09h09.26.236,t1_Paradigm,2021.1.4,60.07948439223232,
M,left,Pretarget,0,11,11,11,1785.1279832978034,1787.1275925610098,left,1,3,0.8525347203831188,B02L10,2022-11-17_09h09.26.236,t1_Paradigm,2021.1.4,60.07948439223232,
Y,left,Distractor,0,12,12,12,1788.6273997590179,1790.6271533831605,left,1,3,1.0140745441312902,B02L10,2022-11-17_09h09.26.236,t1_Paradigm,2021.1.4,60.07948439223232,
V,left,Distractor,0,13,13,13,1792.1267555887462,1794.1263741551666,left,1,3,1.0208421821007505,B02L10,2022-11-17_09h09.26.236,t1_Paradigm,2021.1.4,60.07948439223232,
M,right,Target,0,14,14,14,1795.6262034885585,1797.625784521224,right,1,3,0.92565190163441,B02L10,2022-11-17_09h09.26.236,t1_Paradigm,2021.1.4,60.07948439223232,
S,left,Pretarget,0,15,15,15,1799.1253684410476,1801.1252009824384,left,1,3,1.229814820282627,B02L10,2022-11-17_09h09.26.236,t1_Paradigm,2021.1.4,60.07948439223232,
Q,left,Distractor,0,16,16,16,1802.6250145965023,1804.6247483309126,left,1,3,0.8365366477519274,B02L10,2022-11-17_09h09.26.236,t1_Paradigm,2021.1.4,60.07948439223232,
R,left,Pretarget,0,17,17,17,1806.1245330727543,1808.1248224361334,left,1,3,0.7452389782411046,B02L10,2022-11-17_09h09.26.236,t1_Paradigm,2021.1.4,60.07948439223232,
S,right,Target,0,18,18,18,1809.6237814337946,1811.6234384964919,right,1,3,1.16472314146813,B02L10,2022-11-17_09h09.26.236,t1_Paradigm,2021.1.4,60.07948439223232,
F,left,Distractor,0,19,19,19,1813.1233396895113,1815.1229755792883,left,1,3,0.6168306178296916,B02L10,2022-11-17_09h09.26.236,t1_Paradigm,2021.1.4,60.07948439223232,
R,right,Target,0,20,20,20,1816.6224946971633,1818.6223836996942,right,1,3,1.051722257398069,B02L10,2022-11-17_09h09.26.236,t1_Paradigm,2021.1.4,60.07948439223232,
P,left,Distractor,0,21,21,21,1820.121983980469,1822.1216946170898,None,0,3,,B02L10,2022-11-17_09h09.26.236,t1_Paradigm,2021.1.4,60.07948439223232,
L,left,Distractor,0,22,22,22,1823.6215313288849,1825.6210539755994,left,1,3,0.9310548481880687,B02L10,2022-11-17_09h09.26.236,t1_Paradigm,2021.1.4,60.07948439223232,
R,right,Target,0,23,23,23,1827.120961263834,1829.120455359167,None,0,3,,B02L10,2022-11-17_09h09.26.236,t1_Paradigm,2021.1.4,60.07948439223232,
H,left,Pretarget,0,24,24,24,1830.6204396398389,1832.6206616348354,None,0,3,,B02L10,2022-11-17_09h09.26.236,t1_Paradigm,2021.1.4,60.07948439223232,
G,left,Pretarget,0,25,25,25,1834.1199966123677,1836.1194342465606,left,1,3,1.2408831292414106,B02L10,2022-11-17_09h09.26.236,t1_Paradigm,2021.1.4,60.07948439223232,
T,left,Distractor,0,26,26,26,1837.6189864070038,1839.6188096451224,left,1,3,0.7297930057393387,B02L10,2022-11-17_09h09.26.236,t1_Paradigm,2021.1.4,60.07948439223232,
H,right,Target,0,27,27,27,1841.11867683311,1843.118877655128,right,1,3,1.2490809024311602,B02L10,2022-11-17_09h09.26.236,t1_Paradigm,2021.1.4,60.07948439223232,
G,right,Target,0,28,28,28,1844.6181048432481,1846.6175460062223,left,0,3,1.4606286178459413,B02L10,2022-11-17_09h09.26.236,t1_Paradigm,2021.1.4,60.07948439223232,
D,left,Distractor,0,29,29,29,1848.1172739661997,1850.1170712193707,left,1,3,0.8070411537191831,B02L10,2022-11-17_09h09.26.236,t1_Paradigm,2021.1.4,60.07948439223232,
N,left,Pretarget,0,30,30,30,1851.6166724624927,1853.6171007330995,left,1,3,0.821099016116932,B02L10,2022-11-17_09h09.26.236,t1_Paradigm,2021.1.4,60.07948439223232,
V,left,Distractor,0,31,31,31,1855.132746565214,1857.132419988804,left,1,3,0.6285857638576999,B02L10,2022-11-17_09h09.26.236,t1_Paradigm,2021.1.4,60.07948439223232,
R,left,Distractor,0,32,32,32,1858.6322012018645,1860.631869492645,left,1,3,0.643690082244575,B02L10,2022-11-17_09h09.26.236,t1_Paradigm,2021.1.4,60.07948439223232,
N,right,Target,0,33,33,33,1862.1319083097042,1864.1317575327703,right,1,3,0.7844374481355771,B02L10,2022-11-17_09h09.26.236,t1_Paradigm,2021.1.4,60.07948439223232,
Z,left,Distractor,0,34,34,34,1865.6310706958175,1867.631052730896,left,1,3,0.8282926791580394,B02L10,2022-11-17_09h09.26.236,t1_Paradigm,2021.1.4,60.07948439223232,
N,left,Lure,0,35,35,35,1869.1303604402929,1871.1306218938553,None,0,3,,B02L10,2022-11-17_09h09.26.236,t1_Paradigm,2021.1.4,60.07948439223232,
Y,left,Pretarget,0,36,36,36,1872.6298173225368,1874.6294596283697,None,0,3,,B02L10,2022-11-17_09h09.26.236,t1_Paradigm,2021.1.4,60.07948439223232,
Y,left,Lure,0,37,37,37,1876.1294262649608,1878.1289392876206,left,1,3,1.0080633571487851,B02L10,2022-11-17_09h09.26.236,t1_Paradigm,2021.1.4,60.07948439223232,
B,left,Distractor,0,38,38,38,1879.6288186660968,1881.6282376937452,left,1,3,0.8067363919108175,B02L10,2022-11-17_09h09.26.236,t1_Paradigm,2021.1.4,60.07948439223232,
Y,right,Target,0,39,39,39,1883.128648961836,1885.1276955384528,right,1,3,0.6099051453056745,B02L10,2022-11-17_09h09.26.236,t1_Paradigm,2021.1.4,60.07948439223232,
J,left,Distractor,0,40,40,40,1886.6276573630166,1888.6271427967004,left,1,3,0.8367307329317555,B02L10,2022-11-17_09h09.26.236,t1_Paradigm,2021.1.4,60.07948439223232,
X,left,Distractor,0,41,41,41,1890.1270115886582,1892.1273169921478,left,1,3,0.7817266715574078,B02L10,2022-11-17_09h09.26.236,t1_Paradigm,2021.1.4,60.07948439223232,
W,left,Pretarget,0,42,42,42,1893.6265598995378,1895.6260369923548,left,1,3,0.5773918672930449,B02L10,2022-11-17_09h09.26.236,t1_Paradigm,2021.1.4,60.07948439223232,
S,left,Pretarget,0,43,43,43,1897.1257418545429,1899.125507669116,left,1,3,0.6368685494526289,B02L10,2022-11-17_09h09.26.236,t1_Paradigm,2021.1.4,60.07948439223232,
R,left,Distractor,0,44,44,44,1900.6252478195238,1902.6248452130822,left,1,3,0.6804565525380895,B02L10,2022-11-17_09h09.26.236,t1_Paradigm,2021.1.4,60.07948439223232,
W,right,Target,0,45,45,45,1904.1244926517247,1906.1242754688137,right,1,3,1.0991130467155017,B02L10,2022-11-17_09h09.26.236,t1_Paradigm,2021.1.4,60.07948439223232,
S,right,Target,0,46,46,46,1907.6240727219847,1909.6236697947024,left,0,3,1.3262921582208946,B02L10,2022-11-17_09h09.26.236,t1_Paradigm,2021.1.4,60.07948439223232,
D,left,Distractor,0,47,47,47,1911.1234368925216,1913.123041664483,left,1,3,0.6524604868027382,B02L10,2022-11-17_09h09.26.236,t1_Paradigm,2021.1.4,60.07948439223232,
T,left,Distractor,0,48,48,48,1914.6229162309319,1916.6228774138726,left,1,3,0.6464768887963146,B02L10,2022-11-17_09h09.26.236,t1_Paradigm,2021.1.4,60.07948439223232,
S,right,Target,0,49,49,49,1918.12226821098,1920.1218563012662,right,1,3,1.0411290560732596,B02L10,2022-11-17_09h09.26.236,t1_Paradigm,2021.1.4,60.07948439223232,
K,left,Distractor,0,50,50,50,1921.6216785769793,1923.6212365119136,left,1,3,0.542334309022408,B02L10,2022-11-17_09h09.26.236,t1_Paradigm,2021.1.4,60.07948439223232,
S,left,Lure,0,51,51,51,1925.121049163572,1927.1208002212807,right,0,3,0.9650688376859762,B02L10,2022-11-17_09h09.26.236,t1_Paradigm,2021.1.4,60.07948439223232,
T,left,Pretarget,0,52,52,52,1928.6205371636315,1930.6204611335997,left,1,3,1.2367335560265929,B02L10,2022-11-17_09h09.26.236,t1_Paradigm,2021.1.4,60.07948439223232,
V,left,Distractor,0,53,53,53,1932.1204884017352,1934.1196414845763,left,1,3,0.738539029378444,B02L10,2022-11-17_09h09.26.236,t1_Paradigm,2021.1.4,60.07948439223232,
B,left,Distractor,0,54,54,54,1935.6191580360755,1937.6197983567254,left,1,3,1.1646859284956008,B02L10,2022-11-17_09h09.26.236,t1_Paradigm,2021.1.4,60.07948439223232,
T,right,Target,0,55,55,55,1939.1187727529323,1941.1190216952236,None,0,3,,B02L10,2022-11-17_09h09.26.236,t1_Paradigm,2021.1.4,60.07948439223232,
Y,left,Pretarget,0,56,56,56,1942.6186550185666,1944.6180724422447,left,1,3,0.9954035496339202,B02L10,2022-11-17_09h09.26.236,t1_Paradigm,2021.1.4,60.07948439223232,
T,left,Lure,0,57,57,57,1946.1176348683657,1948.1172159010312,left,1,3,0.9210018773446791,B02L10,2022-11-17_09h09.26.236,t1_Paradigm,2021.1.4,60.07948439223232,
P,left,Pretarget,0,58,58,58,1949.6172373947338,1951.6172579260892,left,1,3,0.813260862021707,B02L10,2022-11-17_09h09.26.236,t1_Paradigm,2021.1.4,60.07948439223232,
Y,right,Target,0,59,59,59,1953.1164539963938,1955.1162201317493,right,1,3,0.8287007392500527,B02L10,2022-11-17_09h09.26.236,t1_Paradigm,2021.1.4,60.07948439223232,
R,left,Distractor,0,60,60,60,1956.615924673155,1958.6156311393715,left,1,3,0.6762877310975455,B02L10,2022-11-17_09h09.26.236,t1_Paradigm,2021.1.4,60.07948439223232,
P,right,Target,0,61,61,61,1960.1154643223854,1962.1149179966305,right,1,3,0.687258837162517,B02L10,2022-11-17_09h09.26.236,t1_Paradigm,2021.1.4,60.07948439223232,
L,left,Distractor,0,62,62,62,1963.6148692347342,1965.6143504979555,left,1,3,0.661492665822152,B02L10,2022-11-17_09h09.26.236,t1_Paradigm,2021.1.4,60.07948439223232,
V,left,Distractor,0,63,63,63,1967.113897525589,1969.1137810745277,left,1,3,1.162013327353634,B02L10,2022-11-17_09h09.26.236,t1_Paradigm,2021.1.4,60.07948439223232,
H,left,Lure,0,0,0,0,2045.5386547106318,2047.5341984506813,None,0,3,,B02L10,2022-11-17_09h09.26.236,t1_Paradigm,2021.1.4,60.07948439223232,
B,left,Distractor,0,1,1,1,2049.033552034758,2051.034040936909,None,0,3,,B02L10,2022-11-17_09h09.26.236,t1_Paradigm,2021.1.4,60.07948439223232,
T,left,Distractor,0,2,2,2,2052.5329928769497,2054.532663734164,None,0,3,,B02L10,2022-11-17_09h09.26.236,t1_Paradigm,2021.1.4,60.07948439223232,
R,left,Distractor,0,3,3,3,2056.032439493574,2058.032146601414,left,1,3,1.0088730612769723,B02L10,2022-11-17_09h09.26.236,t1_Paradigm,2021.1.4,60.07948439223232,
H,left,Pretarget,0,4,4,4,2059.532141468546,2061.53175041097,None,0,3,,B02L10,2022-11-17_09h09.26.236,t1_Paradigm,2021.1.4,60.07948439223232,
K,left,Distractor,0,5,5,5,2063.0313590326114,2065.0308938697563,left,1,3,1.0215607784921303,B02L10,2022-11-17_09h09.26.236,t1_Paradigm,2021.1.4,60.07948439223232,
G,left,Distractor,0,6,6,6,2066.5307732482324,2068.530436406145,left,1,3,0.8201411014888436,B02L10,2022-11-17_09h09.26.236,t1_Paradigm,2021.1.4,60.07948439223232,
H,right,Target,0,7,7,7,2070.0301178498194,2072.0297701004893,right,1,3,1.006739086646121,B02L10,2022-11-17_09h09.26.236,t1_Paradigm,2021.1.4,60.07948439223232,
Y,left,Pretarget,0,8,8,8,2073.529320656962,2075.5298297696863,left,1,3,0.8904801378375851,B02L10,2022-11-17_09h09.26.236,t1_Paradigm,2021.1.4,60.07948439223232,
S,left,Distractor,0,9,9,9,2077.0289276745752,2079.0294698298676,left,1,3,0.8074084719410166,B02L10,2022-11-17_09h09.26.236,t1_Paradigm,2021.1.4,60.07948439223232,
P,left,Distractor,0,10,10,10,2080.5284057297977,2082.528108667175,left,1,3,0.7580409009824507,B02L10,2022-11-17_09h09.26.236,t1_Paradigm,2021.1.4,60.07948439223232,
Y,right,Target,0,11,11,11,2084.027794602094,2086.02750972996,left,0,3,0.7731821116176434,B02L10,2022-11-17_09h09.26.236,t1_Paradigm,2021.1.4,60.07948439223232,
H,left,Lure,0,12,12,12,2087.527270411665,2089.526738842833,left,1,3,0.7480046118726023,B02L10,2022-11-17_09h09.26.236,t1_Paradigm,2021.1.4,60.07948439223232,
Q,left,Distractor,0,13,13,13,2091.026694892964,2093.0265941611724,left,1,3,0.4853040625457652,B02L10,2022-11-17_09h09.26.236,t1_Paradigm,2021.1.4,60.07948439223232,
V,left,Pretarget,0,14,14,14,2094.5259506324655,2096.5256856500637,left,1,3,0.362333936849609,B02L10,2022-11-17_09h09.26.236,t1_Paradigm,2021.1.4,60.07948439223232,
G,left,Distractor,0,15,15,15,2098.0256211688393,2100.0255169082084,left,1,3,0.7478756494820118,B02L10,2022-11-17_09h09.26.236,t1_Paradigm,2021.1.4,60.07948439223232,
Z,left,Pretarget,0,16,16,16,2101.5248826827738,2103.525945820438,left,1,3,0.8806677685352042,B02L10,2022-11-17_09h09.26.236,t1_Paradigm,2021.1.4,60.07948439223232,
V,right,Target,0,17,17,17,2105.0241393846227,2107.023888838303,right,1,3,1.2515773831983097,B02L10,2022-11-17_09h09.26.236,t1_Paradigm,2021.1.4,60.07948439223232,
N,left,Distractor,0,18,18,18,2108.5235356353223,2110.523315565195,left,1,3,0.7043187642120756,B02L10,2022-11-17_09h09.26.236,t1_Paradigm,2021.1.4,60.07948439223232,
Z,right,Target,0,19,19,19,2112.0231250088545,2114.022766352282,left,0,3,1.3839611213770695,B02L10,2022-11-17_09h09.26.236,t1_Paradigm,2021.1.4,60.07948439223232,
R,left,Distractor,0,20,20,20,2115.5224169989233,2117.5226993046817,left,1,3,0.7097553949570283,B02L10,2022-11-17_09h09.26.236,t1_Paradigm,2021.1.4,60.07948439223232,
P,left,Distractor,0,21,21,21,2119.0218758060364,2121.0220240165363,left,1,3,1.2795827521476895,B02L10,2022-11-17_09h09.26.236,t1_Paradigm,2021.1.4,60.07948439223232,
Z,right,Target,0,22,22,22,2122.52125345025,2124.5208883776213,left,0,3,1.0870871439110488,B02L10,2022-11-17_09h09.26.236,t1_Paradigm,2021.1.4,60.07948439223232,
D,left,Pretarget,0,23,23,23,2126.020731505472,2128.0200728990603,left,1,3,0.5972177488147281,B02L10,2022-11-17_09h09.26.236,t1_Paradigm,2021.1.4,60.07948439223232,
K,left,Distractor,0,24,24,24,2129.5201633652323,2131.520699104469,left,1,3,0.73740788170835,B02L10,2022-11-17_09h09.26.236,t1_Paradigm,2021.1.4,60.07948439223232,
W,left,Distractor,0,25,25,25,2133.019652006915,2135.019185560872,left,1,3,0.6394333610660397,B02L10,2022-11-17_09h09.26.236,t1_Paradigm,2021.1.4,60.07948439223232,
D,right,Target,0,26,26,26,2136.5188522476237,2138.5188034857274,right,1,3,0.7400301169254817,B02L10,2022-11-17_09h09.26.236,t1_Paradigm,2021.1.4,60.07948439223232,
G,left,Pretarget,0,27,27,27,2140.018398954475,2142.018907425576,left,1,3,0.546495110320393,B02L10,2022-11-17_09h09.26.236,t1_Paradigm,2021.1.4,60.07948439223232,
V,left,Distractor,0,28,28,28,2143.5345064205467,2145.5339937790413,left,1,3,0.9210297871031798,B02L10,2022-11-17_09h09.26.236,t1_Paradigm,2021.1.4,60.07948439223232,
D,right,Target,0,29,29,29,2147.034011423122,2149.0334054282284,left,0,3,1.1484334599226713,B02L10,2022-11-17_09h09.26.236,t1_Paradigm,2021.1.4,60.07948439223232,
G,right,Target,0,30,30,30,2150.5332642754074,2152.5329527767026,right,1,3,1.2982001727214083,B02L10,2022-11-17_09h09.26.236,t1_Paradigm,2021.1.4,60.07948439223232,
B,left,Pretarget,0,31,31,31,2154.0326627717586,2156.0324965963373,left,1,3,1.027809358900413,B02L10,2022-11-17_09h09.26.236,t1_Paradigm,2021.1.4,60.07948439223232,
N,left,Distractor,0,32,32,32,2157.532172265521,2159.531642300717,left,1,3,1.3533963944064453,B02L10,2022-11-17_09h09.26.236,t1_Paradigm,2021.1.4,60.07948439223232,
F,left,Distractor,0,33,33,33,2161.0315515137627,2163.032116446004,left,1,3,0.8292422529775649,B02L10,2022-11-17_09h09.26.236,t1_Paradigm,2021.1.4,60.07948439223232,
B,right,Target,0,34,34,34,2164.5311286968063,2166.5307430928224,left,0,3,1.354800223838538,B02L10,2022-11-17_09h09.26.236,t1_Paradigm,2021.1.4,60.07948439223232,
Q,left,Pretarget,0,35,35,35,2168.0303651881404,2170.030021288432,left,1,3,0.799681315314956,B02L10,2022-11-17_09h09.26.236,t1_Paradigm,2021.1.4,60.07948439223232,
S,left,Pretarget,0,36,36,36,2171.5297460403526,2173.529549388797,left,1,3,1.2667705637286417,B02L10,2022-11-17_09h09.26.236,t1_Paradigm,2021.1.4,60.07948439223232,
W,left,Distractor,0,37,37,37,2175.0292722159065,2177.0288647973794,left,1,3,0.7034144235076383,B02L10,2022-11-17_09h09.26.236,t1_Paradigm,2021.1.4,60.07948439223232,
Q,right,Target,0,38,38,38,2178.5285276345676,2180.5281622410985,right,1,3,1.3058676602086052,B02L10,2022-11-17_09h09.26.236,t1_Paradigm,2021.1.4,60.07948439223232,
S,right,Target,0,39,39,39,2182.0282126070233,2184.0279261308606,left,0,3,0.9416028163977899,B02L10,2022-11-17_09h09.26.236,t1_Paradigm,2021.1.4,60.07948439223232,
T,left,Distractor,0,40,40,40,2185.5274779705796,2187.5270487375674,left,1,3,0.5694715878344141,B02L10,2022-11-17_09h09.26.236,t1_Paradigm,2021.1.4,60.07948439223232,
G,left,Distractor,0,41,41,41,2189.0268257801654,2191.0263737702044,left,1,3,0.6947880589868873,B02L10,2022-11-17_09h09.26.236,t1_Paradigm,2021.1.4,60.07948439223232,
D,left,Distractor,0,42,42,42,2192.526487013325,2194.526269830414,left,1,3,0.7868566156248562,B02L10,2022-11-17_09h09.26.236,t1_Paradigm,2021.1.4,60.07948439223232,
S,left,Lure,0,43,43,43,2196.025689178845,2198.025446973392,None,0,3,,B02L10,2022-11-17_09h09.26.236,t1_Paradigm,2021.1.4,60.07948439223232,
Z,left,Pretarget,0,44,44,44,2199.5250052291085,2201.5247540411656,left,1,3,0.7278511914773844,B02L10,2022-11-17_09h09.26.236,t1_Paradigm,2021.1.4,60.07948439223232,
J,left,Distractor,0,45,45,45,2203.0243565675337,2205.024134893378,left,1,3,0.6738156312494539,B02L10,2022-11-17_09h09.26.236,t1_Paradigm,2021.1.4,60.07948439223232,
M,left,Pretarget,0,46,46,46,2206.523947545036,2208.5235211992403,left,1,3,0.6891647215234116,B02L10,2022-11-17_09h09.26.236,t1_Paradigm,2021.1.4,60.07948439223232,
Z,right,Target,0,47,47,47,2210.0233341717394,2212.023042562767,left,0,3,1.0957850472768769,B02L10,2022-11-17_09h09.26.236,t1_Paradigm,2021.1.4,60.07948439223232,
P,left,Distractor,0,48,48,48,2213.5229354149196,2215.522314342321,left,1,3,0.5195673151756637,B02L10,2022-11-17_09h09.26.236,t1_Paradigm,2021.1.4,60.07948439223232,
M,right,Target,0,49,49,49,2217.0221632446046,2219.0221420716844,right,1,3,0.9338968326337636,B02L10,2022-11-17_09h09.26.236,t1_Paradigm,2021.1.4,60.07948439223232,
K,left,Distractor,0,50,50,50,2220.5214770492166,2222.5210696307477,left,1,3,0.9212286843103357,B02L10,2022-11-17_09h09.26.236,t1_Paradigm,2021.1.4,60.07948439223232,
Y,left,Distractor,0,51,51,51,2224.020985901414,2226.0206509841955,left,1,3,1.062923057586886,B02L10,2022-11-17_09h09.26.236,t1_Paradigm,2021.1.4,60.07948439223232,
X,left,Distractor,0,52,52,52,2227.5203677160316,2229.5198172199307,left,1,3,0.6829312187619507,B02L10,2022-11-17_09h09.26.236,t1_Paradigm,2021.1.4,60.07948439223232,
F,left,Pretarget,0,53,53,53,2231.0198342223885,2233.0197402274352,left,1,3,0.8356236453983001,B02L10,2022-11-17_09h09.26.236,t1_Paradigm,2021.1.4,60.07948439223232,
M,left,Lure,0,54,54,54,2234.5194835859,2236.519268969365,left,1,3,1.0057218236615881,B02L10,2022-11-17_09h09.26.236,t1_Paradigm,2021.1.4,60.07948439223232,
V,left,Distractor,0,55,55,55,2238.01844579156,2240.01827640814,left,1,3,0.7235765054938383,B02L10,2022-11-17_09h09.26.236,t1_Paradigm,2021.1.4,60.07948439223232,
F,right,Target,0,56,56,56,2241.5183145835763,2243.5184438667493,left,0,3,0.5014221150777303,B02L10,2022-11-17_09h09.26.236,t1_Paradigm,2021.1.4,60.07948439223232,
S,left,Distractor,0,57,57,57,2245.0175950247794,2247.017107405816,left,1,3,0.7051457916386425,B02L10,2022-11-17_09h09.26.236,t1_Paradigm,2021.1.4,60.07948439223232,
D,left,Distractor,0,58,58,58,2248.516765430919,2250.5168504434405,left,1,3,1.3321262624813244,B02L10,2022-11-17_09h09.26.236,t1_Paradigm,2021.1.4,60.07948439223232,
F,right,Target,0,59,59,59,2252.016247335763,2254.0159733708715,right,1,3,1.0213763173669577,B02L10,2022-11-17_09h09.26.236,t1_Paradigm,2021.1.4,60.07948439223232,
V,left,Pretarget,0,60,60,60,2255.5156984436326,2257.5152961579734,left,1,3,0.8653366431244649,B02L10,2022-11-17_09h09.26.236,t1_Paradigm,2021.1.4,60.07948439223232,
J,left,Distractor,0,61,61,61,2259.014984980051,2261.0147982733324,None,0,3,,B02L10,2022-11-17_09h09.26.236,t1_Paradigm,2021.1.4,60.07948439223232,
V,left,Lure,0,62,62,62,2262.5146231154795,2264.51452783728,left,1,3,1.0870159259065986,B02L10,2022-11-17_09h09.26.236,t1_Paradigm,2021.1.4,60.07948439223232,
V,right,Target,0,63,63,63,2266.013871155679,2268.0134351858287,right,1,3,0.5114991460577585,B02L10,2022-11-17_09h09.26.236,t1_Paradigm,2021.1.4,60.07948439223232,
R,left,Distractor,0,0,0,0,2409.8904714762466,2411.8894853310194,left,1,4,0.5906159654259682,B02L10,2022-11-17_09h09.26.236,t1_Paradigm,2021.1.4,60.07948439223232,
F,left,Distractor,0,1,1,1,2413.389217461401,2415.388760639413,left,1,4,0.5857125075417571,B02L10,2022-11-17_09h09.26.236,t1_Paradigm,2021.1.4,60.07948439223232,
P,left,Pretarget,0,2,2,2,2416.888633601833,2418.8883070254815,left,1,4,0.42535900947405025,B02L10,2022-11-17_09h09.26.236,t1_Paradigm,2021.1.4,60.07948439223232,
H,left,Distractor,0,3,3,3,2420.3880628951592,2422.3879101934726,left,1,4,0.5056127510033548,B02L10,2022-11-17_09h09.26.236,t1_Paradigm,2021.1.4,60.07948439223232,
Z,left,Distractor,0,4,4,4,2423.8878152360558,2425.887076108367,left,1,4,0.5254787327721715,B02L10,2022-11-17_09h09.26.236,t1_Paradigm,2021.1.4,60.07948439223232,
T,left,Distractor,0,5,5,5,2427.386910574569,2429.3866590658436,left,1,4,0.6140746082528494,B02L10,2022-11-17_09h09.26.236,t1_Paradigm,2021.1.4,60.07948439223232,
P,right,Target,0,6,6,6,2430.886313562107,2432.8859385446412,right,1,4,0.5884957853122614,B02L10,2022-11-17_09h09.26.236,t1_Paradigm,2021.1.4,60.07948439223232,
G,left,Distractor,0,7,7,7,2434.3858330008225,2436.3858560985536,left,1,4,0.6403640075586736,B02L10,2022-11-17_09h09.26.236,t1_Paradigm,2021.1.4,60.07948439223232,
L,left,Distractor,0,8,8,8,2437.8850293919095,2439.8848298530793,left,1,4,0.6642072919639759,B02L10,2022-11-17_09h09.26.236,t1_Paradigm,2021.1.4,60.07948439223232,
P,left,Lure,0,9,9,9,2441.3848115673754,2443.3849447001703,left,1,4,1.1763685732148588,B02L10,2022-11-17_09h09.26.236,t1_Paradigm,2021.1.4,60.07948439223232,
Q,left,Pretarget,0,10,10,10,2444.8838943946175,2446.88352226431,left,1,4,0.7805518948589452,B02L10,2022-11-17_09h09.26.236,t1_Paradigm,2021.1.4,60.07948439223232,
D,left,Distractor,0,11,11,11,2448.3832287305268,2450.3828899636865,left,1,4,0.6487289185170084,B02L10,2022-11-17_09h09.26.236,t1_Paradigm,2021.1.4,60.07948439223232,
M,left,Pretarget,0,12,12,12,2451.8827555476455,2453.8824713171343,left,1,4,1.169372203410603,B02L10,2022-11-17_09h09.26.236,t1_Paradigm,2021.1.4,60.07948439223232,
C,left,Distractor,0,13,13,13,2455.3821899738396,2457.3824373121024,left,1,4,0.5889173190807924,B02L10,2022-11-17_09h09.26.236,t1_Paradigm,2021.1.4,60.07948439223232,
Q,right,Target,0,14,14,14,2458.881565051619,2460.8811935629346,right,1,4,0.7149623314035125,B02L10,2022-11-17_09h09.26.236,t1_Paradigm,2021.1.4,60.07948439223232,
R,left,Distractor,0,15,15,15,2462.381160841149,2464.3805628662813,left,1,4,0.5792554058134556,B02L10,2022-11-17_09h09.26.236,t1_Paradigm,2021.1.4,60.07948439223232,
M,right,Target,0,16,16,16,2465.8804377535125,2467.8800473375595,left,0,4,1.0428703690413386,B02L10,2022-11-17_09h09.26.236,t1_Paradigm,2021.1.4,60.07948439223232,
S,left,Distractor,0,17,17,17,2469.37981283135,2471.3793993176077,left,1,4,0.7522433680715039,B02L10,2022-11-17_09h09.26.236,t1_Paradigm,2021.1.4,60.07948439223232,
Z,left,Distractor,0,18,18,18,2472.879256560758,2474.8787715081708,left,1,4,0.7512970022507943,B02L10,2022-11-17_09h09.26.236,t1_Paradigm,2021.1.4,60.07948439223232,
L,left,Pretarget,0,19,19,19,2476.378707347787,2478.378300570941,left,1,4,1.223282330087386,B02L10,2022-11-17_09h09.26.236,t1_Paradigm,2021.1.4,60.07948439223232,
M,right,Target,0,20,20,20,2479.8781100145425,2481.8778376536793,right,1,4,1.0669853726867586,B02L10,2022-11-17_09h09.26.236,t1_Paradigm,2021.1.4,60.07948439223232,
P,left,Distractor,0,21,21,21,2483.3773811525316,2485.3776403605007,left,1,4,0.7923926949151792,B02L10,2022-11-17_09h09.26.236,t1_Paradigm,2021.1.4,60.07948439223232,
F,left,Distractor,0,22,22,22,2486.876854716509,2488.8769862453337,left,1,4,1.190733122290112,B02L10,2022-11-17_09h09.26.236,t1_Paradigm,2021.1.4,60.07948439223232,
L,right,Target,0,23,23,23,2490.37615600985,2492.3760507868137,None,0,4,,B02L10,2022-11-17_09h09.26.236,t1_Paradigm,2021.1.4,60.07948439223232,
L,left,Lure,0,24,24,24,2493.875705283135,2495.875247177959,left,1,4,0.9973854640848003,B02L10,2022-11-17_09h09.26.236,t1_Paradigm,2021.1.4,60.07948439223232,
V,left,Pretarget,0,25,25,25,2497.375126556377,2499.374743518885,left,1,4,0.84116870717844,B02L10,2022-11-17_09h09.26.236,t1_Paradigm,2021.1.4,60.07948439223232,
Z,left,Distractor,0,26,26,26,2500.8746151980595,2502.8747537845047,right,0,4,1.1738772252574563,B02L10,2022-11-17_09h09.26.236,t1_Paradigm,2021.1.4,60.07948439223232,
H,left,Distractor,0,27,27,27,2504.3740842708503,2506.373544681992,left,1,4,0.5167509948369116,B02L10,2022-11-17_09h09.26.236,t1_Paradigm,2021.1.4,60.07948439223232,
X,left,Distractor,0,28,28,28,2507.873403849895,2509.873006376263,left,1,4,0.5035679592983797,B02L10,2022-11-17_09h09.26.236,t1_Paradigm,2021.1.4,60.07948439223232,
V,right,Target,0,29,29,29,2511.3725925417384,2513.3724369528354,left,0,4,0.6126473603653722,B02L10,2022-11-17_09h09.26.236,t1_Paradigm,2021.1.4,60.07948439223232,
C,left,Distractor,0,30,30,30,2514.872171649593,2516.8727099552634,left,1,4,0.7126118154847063,B02L10,2022-11-17_09h09.26.236,t1_Paradigm,2021.1.4,60.07948439223232,
S,left,Pretarget,0,31,31,31,2518.3882512059063,2520.3879214214976,left,1,4,0.9401736436993815,B02L10,2022-11-17_09h09.26.236,t1_Paradigm,2021.1.4,60.07948439223232,
D,left,Distractor,0,32,32,32,2521.8878518074634,2523.8880519879167,left,1,4,1.2725931191816926,B02L10,2022-11-17_09h09.26.236,t1_Paradigm,2021.1.4,60.07948439223232,
V,left,Distractor,0,33,33,33,2525.3869898126577,2527.3866683690576,left,1,4,0.5668191972654313,B02L10,2022-11-17_09h09.26.236,t1_Paradigm,2021.1.4,60.07948439223232,
R,left,Distractor,0,34,34,34,2528.886541331536,2530.8866228152183,left,1,4,0.9851042029331438,B02L10,2022-11-17_09h09.26.236,t1_Paradigm,2021.1.4,60.07948439223232,
S,right,Target,0,35,35,35,2532.3859391862643,2534.385594003368,left,0,4,1.2865890667890199,B02L10,2022-11-17_09h09.26.236,t1_Paradigm,2021.1.4,60.07948439223232,
Y,left,Distractor,0,36,36,36,2535.885269030987,2537.8855304845492,None,0,4,,B02L10,2022-11-17_09h09.26.236,t1_Paradigm,2021.1.4,60.07948439223232,
N,left,Pretarget,0,37,37,37,2539.384728800447,2541.384848780406,left,1,4,1.0806358166737482,B02L10,2022-11-17_09h09.26.236,t1_Paradigm,2021.1.4,60.07948439223232,
Z,left,Pretarget,0,38,38,38,2542.8841661138576,2544.885191717709,left,1,4,0.8094462059671059,B02L10,2022-11-17_09h09.26.236,t1_Paradigm,2021.1.4,60.07948439223232,
P,left,Pretarget,0,39,39,39,2546.3835742342635,2548.383052289486,left,1,4,0.7166933788103051,B02L10,2022-11-17_09h09.26.236,t1_Paradigm,2021.1.4,60.07948439223232,
M,left,Distractor,0,40,40,40,2549.8829916578834,2551.8825685201446,left,1,4,0.7071366885793395,B02L10,2022-11-17_09h09.26.236,t1_Paradigm,2021.1.4,60.07948439223232,
N,right,Target,0,41,41,41,2553.3823381843395,2555.381908309704,right,1,4,0.8815522195072845,B02L10,2022-11-17_09h09.26.236,t1_Paradigm,2021.1.4,60.07948439223232,
Z,right,Target,0,42,42,42,2556.8819118385436,2558.8812808210496,None,0,4,,B02L10,2022-11-17_09h09.26.236,t1_Paradigm,2021.1.4,60.07948439223232,
P,right,Target,0,43,43,43,2560.381428710767,2562.3808865554747,left,0,4,1.0465814060298726,B02L10,2022-11-17_09h09.26.236,t1_Paradigm,2021.1.4,60.07948439223232,
X,left,Pretarget,0,44,44,44,2563.88063151791,2565.880669051723,left,1,4,0.6661381989251822,B02L10,2022-11-17_09h09.26.236,t1_Paradigm,2021.1.4,60.07948439223232,
Z,left,Lure,0,45,45,45,2567.3798657636507,2569.38001750299,left,1,4,1.162378720822744,B02L10,2022-11-17_09h09.26.236,t1_Paradigm,2021.1.4,60.07948439223232,
R,left,Pretarget,0,46,46,46,2570.879291848978,2572.879053172306,left,1,4,0.7621442787349224,B02L10,2022-11-17_09h09.26.236,t1_Paradigm,2021.1.4,60.07948439223232,
K,left,Distractor,0,47,47,47,2574.3788802600466,2576.3786027663737,right,0,4,0.6753663878771476,B02L10,2022-11-17_09h09.26.236,t1_Paradigm,2021.1.4,60.07948439223232,
X,right,Target,0,48,48,48,2577.8781934230938,2579.8777558492147,left,0,4,0.6588608066085726,B02L10,2022-11-17_09h09.26.236,t1_Paradigm,2021.1.4,60.07948439223232,
B,left,Distractor,0,49,49,49,2581.377690405585,2583.3771476087277,left,1,4,0.9028156145941466,B02L10,2022-11-17_09h09.26.236,t1_Paradigm,2021.1.4,60.07948439223232,
R,right,Target,0,50,50,50,2584.8774119495065,2586.8767369822017,left,0,4,1.3463310522492975,B02L10,2022-11-17_09h09.26.236,t1_Paradigm,2021.1.4,60.07948439223232,
Y,left,Pretarget,0,51,51,51,2588.3764088018215,2590.376569844375,left,1,4,0.7210405660443939,B02L10,2022-11-17_09h09.26.236,t1_Paradigm,2021.1.4,60.07948439223232,
W,left,Pretarget,0,52,52,52,2591.8759349773172,2593.8757107367273,left,1,4,0.6875677694333717,B02L10,2022-11-17_09h09.26.236,t1_Paradigm,2021.1.4,60.07948439223232,
Z,left,Distractor,0,53,53,53,2595.3753982756753,2597.374964551418,left,1,4,0.8174627260304987,B02L10,2022-11-17_09h09.26.236,t1_Paradigm,2021.1.4,60.07948439223232,
Q,left,Distractor,0,54,54,54,2598.8746190476813,2600.8742911880836,left,1,4,0.5920932583976537,B02L10,2022-11-17_09h09.26.236,t1_Paradigm,2021.1.4,60.07948439223232,
Y,right,Target,0,55,55,55,2602.3741323911236,2604.3738500854233,right,1,4,0.803026317327749,B02L10,2022-11-17_09h09.26.236,t1_Paradigm,2021.1.4,60.07948439223232,
W,right,Target,0,56,56,56,2605.873504260904,2607.873146566737,right,1,4,1.0307395639829338,B02L10,2022-11-17_09h09.26.236,t1_Paradigm,2021.1.4,60.07948439223232,
H,left,Pretarget,0,57,57,57,2609.3727834189194,2611.3729454239365,None,0,4,,B02L10,2022-11-17_09h09.26.236,t1_Paradigm,2021.1.4,60.07948439223232,
M,left,Distractor,0,58,58,58,2612.8725190781406,2614.874249483866,None,0,4,,B02L10,2022-11-17_09h09.26.236,t1_Paradigm,2021.1.4,60.07948439223232,
R,left,Pretarget,0,59,59,59,2616.388464218413,2618.3881694014417,right,0,4,0.8232949055382051,B02L10,2022-11-17_09h09.26.236,t1_Paradigm,2021.1.4,60.07948439223232,
J,left,Distractor,0,60,60,60,2619.8879063437926,2621.887503095786,left,1,4,1.144506202370394,B02L10,2022-11-17_09h09.26.236,t1_Paradigm,2021.1.4,60.07948439223232,
H,right,Target,0,61,61,61,2623.3872679479537,2625.3869038377306,left,0,4,0.9440665753791109,B02L10,2022-11-17_09h09.26.236,t1_Paradigm,2021.1.4,60.07948439223232,
Z,left,Distractor,0,62,62,62,2626.886588489404,2628.8863389054895,left,1,4,0.6735894659068435,B02L10,2022-11-17_09h09.26.236,t1_Paradigm,2021.1.4,60.07948439223232,
R,right,Target,0,63,63,63,2630.3858955571777,2632.386166634853,right,1,4,0.6844409127370454,B02L10,2022-11-17_09h09.26.236,t1_Paradigm,2021.1.4,60.07948439223232,
J,left,Pretarget,0,0,0,0,2773.9189769754303,2775.91164600919,None,0,4,,B02L10,2022-11-17_09h09.26.236,t1_Paradigm,2021.1.4,60.07948439223232,
G,left,Pretarget,0,1,1,1,2777.4115552222356,2779.4112158137723,left,1,4,0.9527737820171751,B02L10,2022-11-17_09h09.26.236,t1_Paradigm,2021.1.4,60.07948439223232,
Z,left,Distractor,0,2,2,2,2780.910988044401,2782.910520956735,left,1,4,0.556882998382207,B02L10,2022-11-17_09h09.26.236,t1_Paradigm,2021.1.4,60.07948439223232,
F,left,Distractor,0,3,3,3,2784.410409959266,2786.4097924155067,left,1,4,0.6823566624661908,B02L10,2022-11-17_09h09.26.236,t1_Paradigm,2021.1.4,60.07948439223232,
J,right,Target,0,4,4,4,2787.9096563954954,2789.909478350368,right,1,4,1.1296598087646998,B02L10,2022-11-17_09h09.26.236,t1_Paradigm,2021.1.4,60.07948439223232,
G,right,Target,0,5,5,5,2791.4092043855344,2793.4088922452065,right,1,4,0.49285766534740105,B02L10,2022-11-17_09h09.26.236,t1_Paradigm,2021.1.4,60.07948439223232,
H,left,Distractor,0,6,6,6,2794.908437989652,2796.9083103104495,left,1,4,0.5857859711977653,B02L10,2022-11-17_09h09.26.236,t1_Paradigm,2021.1.4,60.07948439223232,
P,left,Distractor,0,7,7,7,2798.4078425812186,2800.40774922783,left,1,4,0.858487842255272,B02L10,2022-11-17_09h09.26.236,t1_Paradigm,2021.1.4,60.07948439223232,
G,left,Lure,0,8,8,8,2801.907300105144,2803.9068760049413,right,0,4,1.2410185076878406,B02L10,2022-11-17_09h09.26.236,t1_Paradigm,2021.1.4,60.07948439223232,
S,left,Distractor,0,9,9,9,2805.406854832021,2807.4065888872137,left,1,4,0.6328286904608831,B02L10,2022-11-17_09h09.26.236,t1_Paradigm,2021.1.4,60.07948439223232,
R,left,Pretarget,0,10,10,10,2808.9063165263506,2810.9056845465093,None,0,4,,B02L10,2022-11-17_09h09.26.236,t1_Paradigm,2021.1.4,60.07948439223232,
T,left,Pretarget,0,11,11,11,2812.405498160573,2814.405658882344,left,1,4,0.3614206136553548,B02L10,2022-11-17_09h09.26.236,t1_Paradigm,2021.1.4,60.07948439223232,
X,left,Distractor,0,12,12,12,2815.9053409675835,2817.905379463802,left,1,4,0.6786446630721912,B02L10,2022-11-17_09h09.26.236,t1_Paradigm,2021.1.4,60.07948439223232,
F,left,Pretarget,0,13,13,13,2819.4046323160874,2821.4039252685616,left,1,4,0.5651077188667841,B02L10,2022-11-17_09h09.26.236,t1_Paradigm,2021.1.4,60.07948439223232,
R,right,Target,0,14,14,14,2822.9038787522586,2824.903808175877,left,0,4,0.6364197475486435,B02L10,2022-11-17_09h09.26.236,t1_Paradigm,2021.1.4,60.07948439223232,
T,right,Target,0,15,15,15,2826.403489940334,2828.4027665319154,left,0,4,1.2805538196698762,B02L10,2022-11-17_09h09.26.236,t1_Paradigm,2021.1.4,60.07948439223232,
C,left,Distractor,0,16,16,16,2829.90294553939,2831.902193579648,left,1,4,0.9614152242429554,B02L10,2022-11-17_09h09.26.236,t1_Paradigm,2021.1.4,60.07948439223232,
F,right,Target,0,17,17,17,2833.401939183648,2835.4020572387963,right,1,4,1.0538334550219588,B02L10,2022-11-17_09h09.26.236,t1_Paradigm,2021.1.4,60.07948439223232,
M,left,Distractor,0,18,18,18,2836.9013890083297,2838.901335434406,left,1,4,0.7066137813962996,B02L10,2022-11-17_09h09.26.236,t1_Paradigm,2021.1.4,60.07948439223232,
N,left,Distractor,0,19,19,19,2840.401012707618,2842.4004657402984,left,1,4,0.6735429496038705,B02L10,2022-11-17_09h09.26.236,t1_Paradigm,2021.1.4,60.07948439223232,
R,left,Lure,0,20,20,20,2843.900592136255,2845.9001048381324,left,1,4,0.790631492214743,B02L10,2022-11-17_09h09.26.236,t1_Paradigm,2021.1.4,60.07948439223232,
F,right,Target,0,21,21,21,2847.3998449885403,2849.39949723921,right,1,4,1.03408167877933,B02L10,2022-11-17_09h09.26.236,t1_Paradigm,2021.1.4,60.07948439223232,
P,left,Distractor,0,22,22,22,2850.899213650264,2852.898919795698,left,1,4,0.4136908007785678,B02L10,2022-11-17_09h09.26.236,t1_Paradigm,2021.1.4,60.07948439223232,
L,left,Pretarget,0,23,23,23,2854.3987744724145,2856.398302572721,left,1,4,0.587989559804555,B02L10,2022-11-17_09h09.26.236,t1_Paradigm,2021.1.4,60.07948439223232,
T,left,Distractor,0,24,24,24,2857.8980776905664,2859.8976927282056,left,1,4,0.6807959609432146,B02L10,2022-11-17_09h09.26.236,t1_Paradigm,2021.1.4,60.07948439223232,
F,left,Distractor,0,25,25,25,2861.397832597897,2863.3969131794875,left,1,4,0.46382348448969424,B02L10,2022-11-17_09h09.26.236,t1_Paradigm,2021.1.4,60.07948439223232,
V,left,Distractor,0,26,26,26,2864.8968910441617,2866.896340868785,left,1,4,0.6053468703175895,B02L10,2022-11-17_09h09.26.236,t1_Paradigm,2021.1.4,60.07948439223232,
L,right,Target,0,27,27,27,2868.396281199646,2870.3959395455313,left,0,4,0.6698177973157726,B02L10,2022-11-17_09h09.26.236,t1_Paradigm,2021.1.4,60.07948439223232,
S,left,Pretarget,0,28,28,28,2871.895714342594,2873.895324568206,left,1,4,0.5179777414887212,B02L10,2022-11-17_09h09.26.236,t1_Paradigm,2021.1.4,60.07948439223232,
W,left,Distractor,0,29,29,29,2875.3950807587244,2877.3945716460003,left,1,4,0.4317782565485686,B02L10,2022-11-17_09h09.26.236,t1_Paradigm,2021.1.4,60.07948439223232,
Q,left,Distractor,0,30,30,30,2878.894497861562,2880.8940798566327,left,1,4,0.3940272450563498,B02L10,2022-11-17_09h09.26.236,t1_Paradigm,2021.1.4,60.07948439223232,
L,right,Target,0,31,31,31,2882.393868127314,2884.3937635459006,left,0,4,0.6988179730833508,B02L10,2022-11-17_09h09.26.236,t1_Paradigm,2021.1.4,60.07948439223232,
S,right,Target,0,32,32,32,2885.893608919345,2887.8926914257463,None,0,4,,B02L10,2022-11-17_09h09.26.236,t1_Paradigm,2021.1.4,60.07948439223232,
Z,left,Pretarget,0,33,33,33,2889.3927164482884,2891.392144137644,left,1,4,0.7340648045646958,B02L10,2022-11-17_09h09.26.236,t1_Paradigm,2021.1.4,60.07948439223232,
F,left,Distractor,0,34,34,34,2892.892129059939,2894.8917428143905,left,1,4,0.6596063503529876,B02L10,2022-11-17_09h09.26.236,t1_Paradigm,2021.1.4,60.07948439223232,
V,left,Distractor,0,35,35,35,2896.39156284451,2898.391212528746,left,1,4,0.5445597121724859,B02L10,2022-11-17_09h09.26.236,t1_Paradigm,2021.1.4,60.07948439223232,
M,left,Distractor,0,36,36,36,2899.891115967359,2901.8906164787477,left,1,4,0.6577633431297727,B02L10,2022-11-17_09h09.26.236,t1_Paradigm,2021.1.4,60.07948439223232,
Z,right,Target,0,37,37,37,2903.390440358431,2905.3901866041124,right,1,4,0.5508362023392692,B02L10,2022-11-17_09h09.26.236,t1_Paradigm,2021.1.4,60.07948439223232,
H,left,Pretarget,0,38,38,38,2906.889825701888,2908.8894670453155,left,1,4,0.9007765973801725,B02L10,2022-11-17_09h09.26.236,t1_Paradigm,2021.1.4,60.07948439223232,
L,left,Distractor,0,39,39,39,2910.389166774694,2912.388888639398,left,1,4,0.7532554981880821,B02L10,2022-11-17_09h09.26.236,t1_Paradigm,2021.1.4,60.07948439223232,
G,left,Distractor,0,40,40,40,2913.888557892584,2915.8889242484,left,1,4,0.6991541735478677,B02L10,2022-11-17_09h09.26.236,t1_Paradigm,2021.1.4,60.07948439223232,
K,left,Distractor,0,41,41,41,2917.387976920232,2919.387679536827,left,1,4,0.8702051335712895,B02L10,2022-11-17_09h09.26.236,t1_Paradigm,2021.1.4,60.07948439223232,
H,right,Target,0,42,42,42,2920.887459145917,2922.8872246396495,right,1,4,0.6854151882580481,B02L10,2022-11-17_09h09.26.236,t1_Paradigm,2021.1.4,60.07948439223232,
B,left,Distractor,0,43,43,43,2924.3868756071315,2926.3865862438106,left,1,4,0.5095351964700967,B02L10,2022-11-17_09h09.26.236,t1_Paradigm,2021.1.4,60.07948439223232,
Z,left,Distractor,0,44,44,44,2927.8864531109575,2929.885889141122,left,1,4,0.8185945153236389,B02L10,2022-11-17_09h09.26.236,t1_Paradigm,2021.1.4,60.07948439223232,
T,left,Pretarget,0,45,45,45,2931.38568575267,2933.3854265447007,left,1,4,0.6138949592132121,B02L10,2022-11-17_09h09.26.236,t1_Paradigm,2021.1.4,60.07948439223232,
H,right,Target,0,46,46,46,2934.8850496024243,2936.8853578931303,right,1,4,0.4414283001678996,B02L10,2022-11-17_09h09.26.236,t1_Paradigm,2021.1.4,60.07948439223232,
F,left,Distractor,0,47,47,47,2938.384533752862,2940.384494935861,left,1,4,0.4735149114858359,B02L10,2022-11-17_09h09.26.236,t1_Paradigm,2021.1.4,60.07948439223232,
R,left,Distractor,0,48,48,48,2941.883945402107,2943.883676890866,left,1,4,0.599822339892853,B02L10,2022-11-17_09h09.26.236,t1_Paradigm,2021.1.4,60.07948439223232,
T,right,Target,0,49,49,49,2945.3832973821554,2947.383034003724,right,1,4,0.9496741935727187,B02L10,2022-11-17_09h09.26.236,t1_Paradigm,2021.1.4,60.07948439223232,
H,right,Target,0,50,50,50,2948.8827914774884,2950.8832162192557,right,1,4,1.4331904267310165,B02L10,2022-11-17_09h09.26.236,t1_Paradigm,2021.1.4,60.07948439223232,
Y,left,Pretarget,0,51,51,51,2952.3987982117687,2954.398365449917,left,1,4,0.6746811549528502,B02L10,2022-11-17_09h09.26.236,t1_Paradigm,2021.1.4,60.07948439223232,
H,left,Distractor,0,52,52,52,2955.898215314606,2957.8978460715734,left,1,4,0.8289961978443898,B02L10,2022-11-17_09h09.26.236,t1_Paradigm,2021.1.4,60.07948439223232,
S,left,Distractor,0,53,53,53,2959.397532327217,2961.3974271041807,left,1,4,0.8440668320399709,B02L10,2022-11-17_09h09.26.236,t1_Paradigm,2021.1.4,60.07948439223232,
Q,left,Distractor,0,54,54,54,2962.8970299513894,2964.896777159418,left,1,4,1.0599614139646292,B02L10,2022-11-17_09h09.26.236,t1_Paradigm,2021.1.4,60.07948439223232,
Y,right,Target,0,55,55,55,2966.3968458110467,2968.3961746933637,left,0,4,0.6756480520125479,B02L10,2022-11-17_09h09.26.236,t1_Paradigm,2021.1.4,60.07948439223232,
R,left,Distractor,0,56,56,56,2969.8960572798387,2971.8954509641626,left,1,4,1.1602630319539458,B02L10,2022-11-17_09h09.26.236,t1_Paradigm,2021.1.4,60.07948439223232,
H,left,Pretarget,0,57,57,57,2973.3952389140613,2975.3949094504933,left,1,4,1.200183627079241,B02L10,2022-11-17_09h09.26.236,t1_Paradigm,2021.1.4,60.07948439223232,
J,left,Distractor,0,58,58,58,2976.8947869041003,2978.894321420463,left,1,4,0.8243939729873091,B02L10,2022-11-17_09h09.26.236,t1_Paradigm,2021.1.4,60.07948439223232,
V,left,Distractor,0,59,59,59,2980.3940788942273,2982.3940766485757,left,1,4,0.6642788307508454,B02L10,2022-11-17_09h09.26.236,t1_Paradigm,2021.1.4,60.07948439223232,
Y,left,Lure,0,60,60,60,2983.8936008993187,2985.8932489795843,right,0,4,0.843013639212586,B02L10,2022-11-17_09h09.26.236,t1_Paradigm,2021.1.4,60.07948439223232,
H,right,Target,0,61,61,61,2987.3929310648236,2989.3925137014594,right,1,4,0.6502671638154425,B02L10,2022-11-17_09h09.26.236,t1_Paradigm,2021.1.4,60.07948439223232,
L,left,Distractor,0,62,62,62,2990.8922939521144,2992.8919561476796,left,1,4,0.6089260576991364,B02L10,2022-11-17_09h09.26.236,t1_Paradigm,2021.1.4,60.07948439223232,
P,left,Distractor,0,63,63,63,2994.391812107584,2996.3914608294726,left,1,4,1.2200903506600298,B02L10,2022-11-17_09h09.26.236,t1_Paradigm,2021.1.4,60.07948439223232,
