Letter,CorrAnswer,Stimulus,nback_run.thisRepN,nback_run.thisTrialN,nback_run.thisN,nback_run.thisIndex,fixcross.started,nback_trial.started,trial_resp.keys,trial_resp.corr,currentlevel,trial_resp.rt,Participant,date,expName,psychopyVersion,frameRate,
H,left,Distractor,0,0,0,0,178.11662103782874,180.05579366232269,None,0,1,,B02R06,2022-11-04_14h40.05.354,t1_Paradigm,2021.1.4,59.99530383357985,
Q,left,Pretarget,0,1,1,1,181.55493391142227,183.5562559388345,left,1,1,0.7988503718515858,B02R06,2022-11-04_14h40.05.354,t1_Paradigm,2021.1.4,59.99530383357985,
Q,right,Target,0,2,2,2,185.05255227314774,187.0527928750962,left,0,1,0.5826579905115068,B02R06,2022-11-04_14h40.05.354,t1_Paradigm,2021.1.4,59.99530383357985,
T,left,Distractor,0,3,3,3,188.55252372170798,190.55451301846188,left,1,1,0.6006126687861979,B02R06,2022-11-04_14h40.05.354,t1_Paradigm,2021.1.4,59.99530383357985,
Q,left,Lure,0,4,4,4,192.05257408774924,194.05455119395629,left,1,1,0.5567121200729162,B02R06,2022-11-04_14h40.05.354,t1_Paradigm,2021.1.4,59.99530383357985,
L,left,Distractor,0,5,5,5,195.55269984237384,197.55452585057355,left,1,1,0.7526358743198216,B02R06,2022-11-04_14h40.05.354,t1_Paradigm,2021.1.4,59.99530383357985,
V,left,Pretarget,0,6,6,6,199.0524871503003,201.05407416052185,left,1,1,0.5652284660609439,B02R06,2022-11-04_14h40.05.354,t1_Paradigm,2021.1.4,59.99530383357985,
V,right,Target,0,7,7,7,202.55244608747307,204.55253206263296,right,1,1,0.45872425800189376,B02R06,2022-11-04_14h40.05.354,t1_Paradigm,2021.1.4,59.99530383357985,
K,left,Distractor,0,8,8,8,206.05274250905495,208.0553833558224,left,1,1,1.0198057091329247,B02R06,2022-11-04_14h40.05.354,t1_Paradigm,2021.1.4,59.99530383357985,
G,left,Pretarget,0,9,9,9,209.5525558020454,211.5542429027846,left,1,1,0.768916925531812,B02R06,2022-11-04_14h40.05.354,t1_Paradigm,2021.1.4,59.99530383357985,
G,right,Target,0,10,10,10,213.0525487443665,215.0526100175921,right,1,1,0.6626558859134093,B02R06,2022-11-04_14h40.05.354,t1_Paradigm,2021.1.4,59.99530383357985,
G,right,Target,0,11,11,11,216.55269727599807,218.55274924600963,right,1,1,0.5225325310602784,B02R06,2022-11-04_14h40.05.354,t1_Paradigm,2021.1.4,59.99530383357985,
P,left,Pretarget,0,12,12,12,220.05260905518662,222.05434973002411,left,1,1,0.4450933567713946,B02R06,2022-11-04_14h40.05.354,t1_Paradigm,2021.1.4,59.99530383357985,
P,right,Target,0,13,13,13,223.5526247745147,225.5525487443665,right,1,1,0.4346509122988209,B02R06,2022-11-04_14h40.05.354,t1_Paradigm,2021.1.4,59.99530383357985,
G,left,Lure,0,14,14,14,227.05254232825246,229.05447612621356,left,1,1,0.46877500251866877,B02R06,2022-11-04_14h40.05.354,t1_Paradigm,2021.1.4,59.99530383357985,
Y,left,Distractor,0,15,15,15,230.55256093479693,232.5542762662517,left,1,1,0.42505795299075544,B02R06,2022-11-04_14h40.05.354,t1_Paradigm,2021.1.4,59.99530383357985,
B,left,Distractor,0,16,16,16,234.05249773676042,236.05439688800834,left,1,1,0.4129983427701518,B02R06,2022-11-04_14h40.05.354,t1_Paradigm,2021.1.4,59.99530383357985,
T,left,Pretarget,0,17,17,17,237.55273769702762,239.5548187433742,left,1,1,0.4163719025673345,B02R06,2022-11-04_14h40.05.354,t1_Paradigm,2021.1.4,59.99530383357985,
T,right,Target,0,18,18,18,241.0525516315829,243.05259718559682,right,1,1,0.42269363813102245,B02R06,2022-11-04_14h40.05.354,t1_Paradigm,2021.1.4,59.99530383357985,
S,left,Distractor,0,19,19,19,244.5526568548521,246.55509431276005,left,1,1,0.5041322580073029,B02R06,2022-11-04_14h40.05.354,t1_Paradigm,2021.1.4,59.99530383357985,
T,left,Lure,0,20,20,20,248.052559009986,250.0539314034395,left,1,1,0.861424517352134,B02R06,2022-11-04_14h40.05.354,t1_Paradigm,2021.1.4,59.99530383357985,
J,left,Distractor,0,21,21,21,251.5525808245875,253.55429102305789,left,1,1,0.4329461674205959,B02R06,2022-11-04_14h40.05.354,t1_Paradigm,2021.1.4,59.99530383357985,
P,left,Distractor,0,22,22,22,255.05268123582937,257.05341747775674,left,1,1,0.42187655391171575,B02R06,2022-11-04_14h40.05.354,t1_Paradigm,2021.1.4,59.99530383357985,
F,left,Distractor,0,23,23,23,258.55286826367956,260.55527139571495,left,1,1,0.42404678324237466,B02R06,2022-11-04_14h40.05.354,t1_Paradigm,2021.1.4,59.99530383357985,
L,left,Distractor,0,24,24,24,262.0525952606695,264.0546596252825,left,1,1,0.4607183667831123,B02R06,2022-11-04_14h40.05.354,t1_Paradigm,2021.1.4,59.99530383357985,
W,left,Pretarget,0,25,25,25,265.5526215665741,267.5552383530885,left,1,1,0.39999236492440104,B02R06,2022-11-04_14h40.05.354,t1_Paradigm,2021.1.4,59.99530383357985,
W,right,Target,0,26,26,26,269.05264273949433,271.05281116080005,right,1,1,0.39048634306527674,B02R06,2022-11-04_14h40.05.354,t1_Paradigm,2021.1.4,59.99530383357985,
V,left,Distractor,0,27,27,27,272.55229049827904,274.55437828146387,left,1,1,0.5528887951513752,B02R06,2022-11-04_14h40.05.354,t1_Paradigm,2021.1.4,59.99530383357985,
W,left,Lure,0,28,28,28,276.05267931101844,278.0545454195235,left,1,1,0.5728792864829302,B02R06,2022-11-04_14h40.05.354,t1_Paradigm,2021.1.4,59.99530383357985,
R,left,Pretarget,0,29,29,29,279.55270433356054,281.5542008775519,left,1,1,0.577139223809354,B02R06,2022-11-04_14h40.05.354,t1_Paradigm,2021.1.4,59.99530383357985,
R,right,Target,0,30,30,30,283.0527081831824,285.0527835718822,right,1,1,0.5024891071952879,B02R06,2022-11-04_14h40.05.354,t1_Paradigm,2021.1.4,59.99530383357985,
G,left,Distractor,0,31,31,31,286.55270561680663,288.5537007463863,left,1,1,0.4896685532294214,B02R06,2022-11-04_14h40.05.354,t1_Paradigm,2021.1.4,59.99530383357985,
R,left,Lure,0,32,32,32,290.0528044239618,292.05386788456235,left,1,1,0.5735731824534014,B02R06,2022-11-04_14h40.05.354,t1_Paradigm,2021.1.4,59.99530383357985,
S,left,Distractor,0,33,33,33,293.552784213447,295.5546246578451,None,0,1,,B02R06,2022-11-04_14h40.05.354,t1_Paradigm,2021.1.4,59.99530383357985,
R,left,Lure,0,34,34,34,297.05259622307494,299.0545868030749,left,1,1,0.484862609882839,B02R06,2022-11-04_14h40.05.354,t1_Paradigm,2021.1.4,59.99530383357985,
P,left,Pretarget,0,35,35,35,300.5526716117747,302.55496727488935,left,1,1,0.584135607117787,B02R06,2022-11-04_14h40.05.354,t1_Paradigm,2021.1.4,59.99530383357985,
P,right,Target,0,36,36,36,304.0526481932029,306.05265749641694,right,1,1,0.3990360525203869,B02R06,2022-11-04_14h40.05.354,t1_Paradigm,2021.1.4,59.99530383357985,
Y,left,Pretarget,0,37,37,37,307.55273128103,309.5548248386476,left,1,1,0.4325108383782208,B02R06,2022-11-04_14h40.05.354,t1_Paradigm,2021.1.4,59.99530383357985,
Y,right,Target,0,38,38,38,311.05283169227187,313.0529199129669,right,1,1,0.4544341651489958,B02R06,2022-11-04_14h40.05.354,t1_Paradigm,2021.1.4,59.99530383357985,
J,left,Distractor,0,39,39,39,314.5527595116291,316.55460605118424,left,1,1,0.5527014463441446,B02R06,2022-11-04_14h40.05.354,t1_Paradigm,2021.1.4,59.99530383357985,
Y,left,Lure,0,40,40,40,318.05261547130067,320.0545338706579,left,1,1,0.4928101727273315,B02R06,2022-11-04_14h40.05.354,t1_Paradigm,2021.1.4,59.99530383357985,
T,left,Distractor,0,41,41,41,321.55269695515744,323.5541331882123,left,1,1,0.5773012291174382,B02R06,2022-11-04_14h40.05.354,t1_Paradigm,2021.1.4,59.99530383357985,
V,left,Distractor,0,42,42,42,325.05246886448003,327.0543077047914,left,1,1,0.5974084927001968,B02R06,2022-11-04_14h40.05.354,t1_Paradigm,2021.1.4,59.99530383357985,
N,left,Pretarget,0,43,43,43,328.5528525443515,330.5550317562884,left,1,1,0.44043466181028634,B02R06,2022-11-04_14h40.05.354,t1_Paradigm,2021.1.4,59.99530383357985,
N,right,Target,0,44,44,44,332.0527360930573,334.05277330614626,right,1,1,0.38303666573483497,B02R06,2022-11-04_14h40.05.354,t1_Paradigm,2021.1.4,59.99530383357985,
N,right,Target,0,45,45,45,335.552752133226,337.55278196779545,right,1,1,0.6266692159697413,B02R06,2022-11-04_14h40.05.354,t1_Paradigm,2021.1.4,59.99530383357985,
X,left,Distractor,0,46,46,46,339.0527867798228,341.05536346614826,left,1,1,0.420141011942178,B02R06,2022-11-04_14h40.05.354,t1_Paradigm,2021.1.4,59.99530383357985,
Z,left,Distractor,0,47,47,47,342.5527283938136,344.552570558968,left,1,1,0.4749597553163767,B02R06,2022-11-04_14h40.05.354,t1_Paradigm,2021.1.4,59.99530383357985,
H,left,Pretarget,0,48,48,48,346.05276400293224,348.05431219609454,left,1,1,0.5731176428962499,B02R06,2022-11-04_14h40.05.354,t1_Paradigm,2021.1.4,59.99530383357985,
H,right,Target,0,49,49,49,349.5527858174173,351.5529067600146,right,1,1,0.4667183372657746,B02R06,2022-11-04_14h40.05.354,t1_Paradigm,2021.1.4,59.99530383357985,
K,left,Distractor,0,50,50,50,353.05274090508465,355.0543497300241,left,1,1,0.4851250264327973,B02R06,2022-11-04_14h40.05.354,t1_Paradigm,2021.1.4,59.99530383357985,
V,left,Pretarget,0,51,51,51,356.5526931055356,358.5543057799805,left,1,1,0.40934921347070485,B02R06,2022-11-04_14h40.05.354,t1_Paradigm,2021.1.4,59.99530383357985,
V,right,Target,0,52,52,52,360.052824634593,362.0527838926064,right,1,1,0.6546537866815925,B02R06,2022-11-04_14h40.05.354,t1_Paradigm,2021.1.4,59.99530383357985,
R,left,Distractor,0,53,53,53,363.5527768349275,365.55498331505805,left,1,1,0.7685261880978942,B02R06,2022-11-04_14h40.05.354,t1_Paradigm,2021.1.4,59.99530383357985,
V,left,Lure,0,54,54,54,367.05283586261794,369.0544267225778,left,1,1,0.4051037122262642,B02R06,2022-11-04_14h40.05.354,t1_Paradigm,2021.1.4,59.99530383357985,
Y,left,Distractor,0,55,55,55,370.5528589604655,372.5543644869467,left,1,1,0.6330910418182611,B02R06,2022-11-04_14h40.05.354,t1_Paradigm,2021.1.4,59.99530383357985,
Q,left,Distractor,0,56,56,56,374.0527781181736,376.0542762662517,left,1,1,0.4771639897953719,B02R06,2022-11-04_14h40.05.354,t1_Paradigm,2021.1.4,59.99530383357985,
Z,left,Pretarget,0,57,57,57,377.55260231834836,379.5533687156858,left,1,1,0.5142590326722711,B02R06,2022-11-04_14h40.05.354,t1_Paradigm,2021.1.4,59.99530383357985,
Z,right,Target,0,58,58,58,381.05280217842665,383.0527957623126,right,1,1,0.6786754830973223,B02R06,2022-11-04_14h40.05.354,t1_Paradigm,2021.1.4,59.99530383357985,
B,left,Distractor,0,59,59,59,384.55283586261794,386.55469106393866,left,1,1,0.4568976081209257,B02R06,2022-11-04_14h40.05.354,t1_Paradigm,2021.1.4,59.99530383357985,
S,left,Pretarget,0,60,60,60,388.05283169227187,390.05460284324363,left,1,1,0.5092298107920215,B02R06,2022-11-04_14h40.05.354,t1_Paradigm,2021.1.4,59.99530383357985,
S,right,Target,0,61,61,61,391.55296610854566,393.5527826094767,right,1,1,0.7387191379675642,B02R06,2022-11-04_14h40.05.354,t1_Paradigm,2021.1.4,59.99530383357985,
T,left,Distractor,0,62,62,62,395.052997867926,397.0535047360463,left,1,1,0.5019819183507934,B02R06,2022-11-04_14h40.05.354,t1_Paradigm,2021.1.4,59.99530383357985,
D,left,Distractor,0,63,63,63,398.55213747546077,400.55477575585246,left,1,1,0.4408160960301757,B02R06,2022-11-04_14h40.05.354,t1_Paradigm,2021.1.4,59.99530383357985,
R,left,Distractor,0,0,0,0,414.5803482119227,416.5703035626793,None,0,1,,B02R06,2022-11-04_14h40.05.354,t1_Paradigm,2021.1.4,59.99530383357985,
V,left,Distractor,0,1,1,1,418.0695506390184,420.0720006081974,left,1,1,0.539637403213419,B02R06,2022-11-04_14h40.05.354,t1_Paradigm,2021.1.4,59.99530383357985,
N,left,Pretarget,0,2,2,2,421.56967286474537,423.5710693183355,left,1,1,0.608503449591808,B02R06,2022-11-04_14h40.05.354,t1_Paradigm,2021.1.4,59.99530383357985,
N,right,Target,0,3,3,3,425.0695917017292,427.0695211251732,right,1,1,0.42216527624987066,B02R06,2022-11-04_14h40.05.354,t1_Paradigm,2021.1.4,59.99530383357985,
S,left,Distractor,0,4,4,4,428.5697315717116,430.5709393933648,left,1,1,0.5046259730588645,B02R06,2022-11-04_14h40.05.354,t1_Paradigm,2021.1.4,59.99530383357985,
N,left,Lure,0,5,5,5,432.06955673429184,434.07146454718895,left,1,1,0.4600809320108965,B02R06,2022-11-04_14h40.05.354,t1_Paradigm,2021.1.4,59.99530383357985,
Z,left,Distractor,0,6,6,6,435.5695066890912,437.57139300822746,left,1,1,0.4804996949387714,B02R06,2022-11-04_14h40.05.354,t1_Paradigm,2021.1.4,59.99530383357985,
L,left,Pretarget,0,7,7,7,439.0695926641347,441.07155373028945,left,1,1,0.6443839339772239,B02R06,2022-11-04_14h40.05.354,t1_Paradigm,2021.1.4,59.99530383357985,
L,right,Target,0,8,8,8,442.5695984385675,444.5695807944285,right,1,1,0.4580967682413757,B02R06,2022-11-04_14h40.05.354,t1_Paradigm,2021.1.4,59.99530383357985,
H,left,Distractor,0,9,9,9,446.06955994223244,448.07110492745414,left,1,1,0.4126416102517396,B02R06,2022-11-04_14h40.05.354,t1_Paradigm,2021.1.4,59.99530383357985,
L,left,Lure,0,10,10,10,449.56947492959443,451.56989903061185,left,1,1,0.4016156259458512,B02R06,2022-11-04_14h40.05.354,t1_Paradigm,2021.1.4,59.99530383357985,
X,left,Pretarget,0,11,11,11,453.069681526511,455.0719197660219,left,1,1,0.49969684157986194,B02R06,2022-11-04_14h40.05.354,t1_Paradigm,2021.1.4,59.99530383357985,
X,right,Target,0,12,12,12,456.56966644874774,458.56975563184824,right,1,1,0.44188212300650775,B02R06,2022-11-04_14h40.05.354,t1_Paradigm,2021.1.4,59.99530383357985,
X,right,Target,0,13,13,13,460.0697286844952,462.06979252409656,right,1,1,0.3979809327283874,B02R06,2022-11-04_14h40.05.354,t1_Paradigm,2021.1.4,59.99530383357985,
R,left,Distractor,0,14,14,14,463.5695519222645,465.57137825130485,left,1,1,0.4162313910201192,B02R06,2022-11-04_14h40.05.354,t1_Paradigm,2021.1.4,59.99530383357985,
T,left,Distractor,0,15,15,15,467.0697861080989,469.0710616190918,left,1,1,0.3885897583095357,B02R06,2022-11-04_14h40.05.354,t1_Paradigm,2021.1.4,59.99530383357985,
V,left,Pretarget,0,16,16,16,470.56954390218016,472.57163585571107,right,0,1,0.3921901255380362,B02R06,2022-11-04_14h40.05.354,t1_Paradigm,2021.1.4,59.99530383357985,
V,right,Target,0,17,17,17,474.06970302027185,476.0695682831574,right,1,1,0.8942018785746768,B02R06,2022-11-04_14h40.05.354,t1_Paradigm,2021.1.4,59.99530383357985,
N,left,Distractor,0,18,18,18,477.5694816664327,479.57119411055464,left,1,1,0.8323735990561545,B02R06,2022-11-04_14h40.05.354,t1_Paradigm,2021.1.4,59.99530383357985,
B,left,Distractor,0,19,19,19,481.0696571454173,483.07196564076,left,1,1,0.7078078854829073,B02R06,2022-11-04_14h40.05.354,t1_Paradigm,2021.1.4,59.99530383357985,
V,left,Lure,0,20,20,20,484.5696186491987,486.5719050090993,left,1,1,0.7920544903026894,B02R06,2022-11-04_14h40.05.354,t1_Paradigm,2021.1.4,59.99530383357985,
P,left,Distractor,0,21,21,21,488.06964303017594,490.0713599654846,left,1,1,0.4762894819723442,B02R06,2022-11-04_14h40.05.354,t1_Paradigm,2021.1.4,59.99530383357985,
K,left,Pretarget,0,22,22,22,491.56972964690067,493.57102472684346,left,1,1,0.49680897674988955,B02R06,2022-11-04_14h40.05.354,t1_Paradigm,2021.1.4,59.99530383357985,
K,right,Target,0,23,23,23,495.0697408749256,497.06968537613284,right,1,1,0.6141309682279825,B02R06,2022-11-04_14h40.05.354,t1_Paradigm,2021.1.4,59.99530383357985,
J,left,Pretarget,0,24,24,24,498.56973959167954,500.57186073833145,left,1,1,0.7921542598633096,B02R06,2022-11-04_14h40.05.354,t1_Paradigm,2021.1.4,59.99530383357985,
J,right,Target,0,25,25,25,502.0697318924358,504.06964046368375,right,1,1,0.5740370629355311,B02R06,2022-11-04_14h40.05.354,t1_Paradigm,2021.1.4,59.99530383357985,
H,left,Distractor,0,26,26,26,505.56970334099606,507.57187068322673,left,1,1,0.5279771923087537,B02R06,2022-11-04_14h40.05.354,t1_Paradigm,2021.1.4,59.99530383357985,
J,left,Lure,0,27,27,27,509.0695345988497,511.07181229710113,left,1,1,0.43590236315503716,B02R06,2022-11-04_14h40.05.354,t1_Paradigm,2021.1.4,59.99530383357985,
V,left,Distractor,0,28,28,28,512.5698400029214,514.5717263220577,left,1,1,0.4880959789734334,B02R06,2022-11-04_14h40.05.354,t1_Paradigm,2021.1.4,59.99530383357985,
Z,left,Pretarget,0,29,29,29,516.0696873009438,518.0713015794754,left,1,1,0.42855438019614667,B02R06,2022-11-04_14h40.05.354,t1_Paradigm,2021.1.4,59.99530383357985,
Z,right,Target,0,30,30,30,519.5696747895563,521.5696642030962,right,1,1,0.4981823326088488,B02R06,2022-11-04_14h40.05.354,t1_Paradigm,2021.1.4,59.99530383357985,
T,left,Distractor,0,31,31,31,523.069863100769,525.0714642263483,left,1,1,0.4682800042210147,B02R06,2022-11-04_14h40.05.354,t1_Paradigm,2021.1.4,59.99530383357985,
Z,left,Lure,0,32,32,32,526.5696619574446,528.5714266924188,left,1,1,0.5840384039329365,B02R06,2022-11-04_14h40.05.354,t1_Paradigm,2021.1.4,59.99530383357985,
F,left,Distractor,0,33,33,33,530.0696773560485,532.0710837545339,left,1,1,0.42886106739751995,B02R06,2022-11-04_14h40.05.354,t1_Paradigm,2021.1.4,59.99530383357985,
Y,left,Pretarget,0,34,34,34,533.5698929353384,535.5718751744134,left,1,1,0.44788818864617497,B02R06,2022-11-04_14h40.05.354,t1_Paradigm,2021.1.4,59.99530383357985,
Y,right,Target,0,35,35,35,537.069734458928,539.0697315717116,right,1,1,0.566421530675143,B02R06,2022-11-04_14h40.05.354,t1_Paradigm,2021.1.4,59.99530383357985,
Y,right,Target,0,36,36,36,540.5697498574154,542.5698047146434,right,1,1,0.5059419051976874,B02R06,2022-11-04_14h40.05.354,t1_Paradigm,2021.1.4,59.99530383357985,
W,left,Distractor,0,37,37,37,544.0697947697481,546.0715011185966,left,1,1,0.4602108570979908,B02R06,2022-11-04_14h40.05.354,t1_Paradigm,2021.1.4,59.99530383357985,
Q,left,Distractor,0,38,38,38,547.5696532957954,549.5719053299399,left,1,1,0.5120150186121464,B02R06,2022-11-04_14h40.05.354,t1_Paradigm,2021.1.4,59.99530383357985,
P,left,Pretarget,0,39,39,39,551.069726118003,553.0716384220868,left,1,1,0.4201634682249278,B02R06,2022-11-04_14h40.05.354,t1_Paradigm,2021.1.4,59.99530383357985,
P,right,Target,0,40,40,40,554.569909617072,556.5698210755363,right,1,1,0.41006107442080975,B02R06,2022-11-04_14h40.05.354,t1_Paradigm,2021.1.4,59.99530383357985,
J,left,Distractor,0,41,41,41,558.0696192907635,560.0719091795618,left,1,1,0.5239594607846811,B02R06,2022-11-04_14h40.05.354,t1_Paradigm,2021.1.4,59.99530383357985,
P,left,Lure,0,42,42,42,561.5697501782561,563.5719265028602,left,1,1,0.5281456134980544,B02R06,2022-11-04_14h40.05.354,t1_Paradigm,2021.1.4,59.99530383357985,
L,left,Distractor,0,43,43,43,565.0696930753766,567.0701608054806,left,1,1,0.5662245579296723,B02R06,2022-11-04_14h40.05.354,t1_Paradigm,2021.1.4,59.99530383357985,
Z,left,Distractor,0,44,44,44,568.5697444037069,570.5708813280798,left,1,1,0.4889797900104895,B02R06,2022-11-04_14h40.05.354,t1_Paradigm,2021.1.4,59.99530383357985,
F,left,Pretarget,0,45,45,45,572.069856684655,574.0718456605682,left,1,1,0.4121270430041477,B02R06,2022-11-04_14h40.05.354,t1_Paradigm,2021.1.4,59.99530383357985,
F,right,Target,0,46,46,46,575.5698400029214,577.5698672711151,right,1,1,0.36991167021915317,B02R06,2022-11-04_14h40.05.354,t1_Paradigm,2021.1.4,59.99530383357985,
G,left,Pretarget,0,47,47,47,579.0698563638143,581.071187694557,left,1,1,0.4687605664366856,B02R06,2022-11-04_14h40.05.354,t1_Paradigm,2021.1.4,59.99530383357985,
G,right,Target,0,48,48,48,582.5697896368802,584.5698810656322,right,1,1,0.5697976569645107,B02R06,2022-11-04_14h40.05.354,t1_Paradigm,2021.1.4,59.99530383357985,
V,left,Distractor,0,49,49,49,586.0698708000127,588.0713785720291,left,1,1,0.49278899980708957,B02R06,2022-11-04_14h40.05.354,t1_Paradigm,2021.1.4,59.99530383357985,
G,left,Lure,0,50,50,50,589.569806960295,591.5713471333729,left,1,1,0.41648771229665726,B02R06,2022-11-04_14h40.05.354,t1_Paradigm,2021.1.4,59.99530383357985,
Q,left,Pretarget,0,51,51,51,593.069814338698,595.071494702599,left,1,1,0.5163416829891503,B02R06,2022-11-04_14h40.05.354,t1_Paradigm,2021.1.4,59.99530383357985,
Q,right,Target,0,52,52,52,596.5697081530234,598.5697559526889,right,1,1,0.6339665120467544,B02R06,2022-11-04_14h40.05.354,t1_Paradigm,2021.1.4,59.99530383357985,
Y,left,Distractor,0,53,53,53,600.0697460077936,602.071307995473,left,1,1,0.39673525642137975,B02R06,2022-11-04_14h40.05.354,t1_Paradigm,2021.1.4,59.99530383357985,
V,left,Distractor,0,54,54,54,603.5697806545068,605.5710083659505,left,1,1,0.48118364601396024,B02R06,2022-11-04_14h40.05.354,t1_Paradigm,2021.1.4,59.99530383357985,
B,left,Distractor,0,55,55,55,607.069780975231,609.0711552934954,right,0,1,0.42071043653413653,B02R06,2022-11-04_14h40.05.354,t1_Paradigm,2021.1.4,59.99530383357985,
J,left,Pretarget,0,56,56,56,610.5698031106731,612.5715675248066,left,1,1,0.4564298780169338,B02R06,2022-11-04_14h40.05.354,t1_Paradigm,2021.1.4,59.99530383357985,
J,right,Target,0,57,57,57,614.069856684655,616.0693353804527,right,1,1,0.6703333330806345,B02R06,2022-11-04_14h40.05.354,t1_Paradigm,2021.1.4,59.99530383357985,
H,left,Distractor,0,58,58,58,617.5693411548855,619.5717834249372,left,1,1,0.49626970780082047,B02R06,2022-11-04_14h40.05.354,t1_Paradigm,2021.1.4,59.99530383357985,
J,left,Lure,0,59,59,59,621.0698268499691,623.0690652647754,left,1,1,0.422884194762446,B02R06,2022-11-04_14h40.05.354,t1_Paradigm,2021.1.4,59.99530383357985,
D,left,Pretarget,0,60,60,60,624.569050828577,626.5707048866898,left,1,1,0.5211797065567225,B02R06,2022-11-04_14h40.05.354,t1_Paradigm,2021.1.4,59.99530383357985,
D,right,Target,0,61,61,61,628.0698374365456,630.0698451357894,right,1,1,0.4142039187718183,B02R06,2022-11-04_14h40.05.354,t1_Paradigm,2021.1.4,59.99530383357985,
R,left,Distractor,0,62,62,62,631.5699384893524,633.5713776096236,left,1,1,0.5287220957688987,B02R06,2022-11-04_14h40.05.354,t1_Paradigm,2021.1.4,59.99530383357985,
F,left,Distractor,0,63,63,63,635.06987561204,637.0713201860199,left,1,1,0.48459602298680693,B02R06,2022-11-04_14h40.05.354,t1_Paradigm,2021.1.4,59.99530383357985,
F,left,Distractor,0,0,0,0,727.8618832650827,729.8533970746212,None,0,2,,B02R06,2022-11-04_14h40.05.354,t1_Paradigm,2021.1.4,59.99530383357985,
N,left,Pretarget,0,1,1,1,731.3533030794933,733.355377068161,None,0,2,,B02R06,2022-11-04_14h40.05.354,t1_Paradigm,2021.1.4,59.99530383357985,
V,left,Distractor,0,2,2,2,734.8533698064275,736.8551640552469,left,1,2,0.7329501453787088,B02R06,2022-11-04_14h40.05.354,t1_Paradigm,2021.1.4,59.99530383357985,
N,right,Target,0,3,3,3,738.3533640319947,740.3554806873435,right,1,2,0.592605757410638,B02R06,2022-11-04_14h40.05.354,t1_Paradigm,2021.1.4,59.99530383357985,
N,left,Lure,0,4,4,4,741.853447761503,743.853594047483,right,0,2,0.6467100733425468,B02R06,2022-11-04_14h40.05.354,t1_Paradigm,2021.1.4,59.99530383357985,
X,left,Distractor,0,5,5,5,745.3534666887717,747.3555130884051,left,1,2,0.5846110365819186,B02R06,2022-11-04_14h40.05.354,t1_Paradigm,2021.1.4,59.99530383357985,
G,left,Pretarget,0,6,6,6,748.8534512902843,750.8555746824713,left,1,2,0.8765590202528983,B02R06,2022-11-04_14h40.05.354,t1_Paradigm,2021.1.4,59.99530383357985,
H,left,Pretarget,0,7,7,7,752.3534759921022,754.3554069027305,left,1,2,1.1048405258916318,B02R06,2022-11-04_14h40.05.354,t1_Paradigm,2021.1.4,59.99530383357985,
G,right,Target,0,8,8,8,755.8534451950109,757.8552599751856,right,1,2,0.6130325403064489,B02R06,2022-11-04_14h40.05.354,t1_Paradigm,2021.1.4,59.99530383357985,
H,right,Target,0,9,9,9,759.3534532150952,761.3556526375469,left,0,2,0.7286459371680394,B02R06,2022-11-04_14h40.05.354,t1_Paradigm,2021.1.4,59.99530383357985,
T,left,Pretarget,0,10,10,10,762.8526499255095,764.8549661200959,left,1,2,0.525226630968973,B02R06,2022-11-04_14h40.05.354,t1_Paradigm,2021.1.4,59.99530383357985,
K,left,Distractor,0,11,11,11,766.3533935458399,768.3535510599613,left,1,2,0.7865090970881283,B02R06,2022-11-04_14h40.05.354,t1_Paradigm,2021.1.4,59.99530383357985,
T,right,Target,0,12,12,12,769.8534676511772,771.8552740905434,right,1,2,0.8368827998638153,B02R06,2022-11-04_14h40.05.354,t1_Paradigm,2021.1.4,59.99530383357985,
T,left,Lure,0,13,13,13,773.3532780569512,775.3536142579978,None,0,2,,B02R06,2022-11-04_14h40.05.354,t1_Paradigm,2021.1.4,59.99530383357985,
J,left,Distractor,0,14,14,14,776.8530647231964,778.8555878354236,left,1,2,0.7485700225224718,B02R06,2022-11-04_14h40.05.354,t1_Paradigm,2021.1.4,59.99530383357985,
Q,left,Pretarget,0,15,15,15,780.3534628391499,782.3546793225687,left,1,2,0.8174614122835919,B02R06,2022-11-04_14h40.05.354,t1_Paradigm,2021.1.4,59.99530383357985,
M,left,Distractor,0,16,16,16,783.853476633667,785.8560100116301,left,1,2,0.7722709164954722,B02R06,2022-11-04_14h40.05.354,t1_Paradigm,2021.1.4,59.99530383357985,
Q,right,Target,0,17,17,17,787.3533463878557,789.3554117147578,right,1,2,1.1612331265350804,B02R06,2022-11-04_14h40.05.354,t1_Paradigm,2021.1.4,59.99530383357985,
R,left,Distractor,0,18,18,18,790.8534577063983,792.8551489774836,left,1,2,1.4210748681798577,B02R06,2022-11-04_14h40.05.354,t1_Paradigm,2021.1.4,59.99530383357985,
W,left,Distractor,0,19,19,19,794.3533412549878,796.3553119451972,left,1,2,0.7851816159673035,B02R06,2022-11-04_14h40.05.354,t1_Paradigm,2021.1.4,59.99530383357985,
C,left,Pretarget,0,20,20,20,797.853478558478,799.85524842632,left,1,2,0.7889805600279942,B02R06,2022-11-04_14h40.05.354,t1_Paradigm,2021.1.4,59.99530383357985,
T,left,Distractor,0,21,21,21,801.3534843329107,803.3550931578502,left,1,2,0.5211517966818064,B02R06,2022-11-04_14h40.05.354,t1_Paradigm,2021.1.4,59.99530383357985,
C,right,Target,0,22,22,22,804.8535504182801,806.8549847266404,right,1,2,0.4617349901236594,B02R06,2022-11-04_14h40.05.354,t1_Paradigm,2021.1.4,59.99530383357985,
F,left,Pretarget,0,23,23,23,808.3535507391207,810.3663353631273,left,1,2,0.6140911887632683,B02R06,2022-11-04_14h40.05.354,t1_Paradigm,2021.1.4,59.99530383357985,
C,right,Target,0,24,24,24,811.8535696665058,813.8548143804073,right,1,2,0.6135910575976595,B02R06,2022-11-04_14h40.05.354,t1_Paradigm,2021.1.4,59.99530383357985,
F,right,Target,0,25,25,25,815.3535209044348,817.3556908130413,right,1,2,1.2566821571672335,B02R06,2022-11-04_14h40.05.354,t1_Paradigm,2021.1.4,59.99530383357985,
H,left,Distractor,0,26,26,26,818.853488182649,820.8553321558284,left,1,2,0.6209582886658609,B02R06,2022-11-04_14h40.05.354,t1_Paradigm,2021.1.4,59.99530383357985,
H,left,Lure,0,27,27,27,822.3535834609065,824.3537348797545,None,0,2,,B02R06,2022-11-04_14h40.05.354,t1_Paradigm,2021.1.4,59.99530383357985,
P,left,Distractor,0,28,28,28,825.8535869898042,827.855595855508,left,1,2,0.9809918061364442,B02R06,2022-11-04_14h40.05.354,t1_Paradigm,2021.1.4,59.99530383357985,
G,left,Pretarget,0,29,29,29,829.3535205837106,831.3552519551013,left,1,2,0.69715499447193,B02R06,2022-11-04_14h40.05.354,t1_Paradigm,2021.1.4,59.99530383357985,
K,left,Distractor,0,30,30,30,832.8536036715377,834.8543495375197,left,1,2,0.9260556489462033,B02R06,2022-11-04_14h40.05.354,t1_Paradigm,2021.1.4,59.99530383357985,
G,right,Target,0,31,31,31,836.3368520028889,838.3388287882553,right,1,2,0.6735856295563281,B02R06,2022-11-04_14h40.05.354,t1_Paradigm,2021.1.4,59.99530383357985,
M,left,Pretarget,0,32,32,32,839.8535266788676,841.8554543815553,left,1,2,0.6768539662007242,B02R06,2022-11-04_14h40.05.354,t1_Paradigm,2021.1.4,59.99530383357985,
B,left,Distractor,0,33,33,33,843.353517054813,845.3498259003973,left,1,2,0.7028566186781973,B02R06,2022-11-04_14h40.05.354,t1_Paradigm,2021.1.4,59.99530383357985,
M,right,Target,0,34,34,34,846.8533313100925,848.8556202364853,right,1,2,0.5089058001758531,B02R06,2022-11-04_14h40.05.354,t1_Paradigm,2021.1.4,59.99530383357985,
M,left,Lure,0,35,35,35,850.353285756195,852.3370730358874,left,1,2,0.5951667244080454,B02R06,2022-11-04_14h40.05.354,t1_Paradigm,2021.1.4,59.99530383357985,
T,left,Distractor,0,36,36,36,853.8369193713879,855.837993097608,left,1,2,0.5823150525102392,B02R06,2022-11-04_14h40.05.354,t1_Paradigm,2021.1.4,59.99530383357985,
F,left,Distractor,0,37,37,37,857.3365456364118,859.3387386427494,left,1,2,0.6816050523193553,B02R06,2022-11-04_14h40.05.354,t1_Paradigm,2021.1.4,59.99530383357985,
X,left,Distractor,0,38,38,38,860.8535866689635,862.8554986523231,left,1,2,0.5409523729467764,B02R06,2022-11-04_14h40.05.354,t1_Paradigm,2021.1.4,59.99530383357985,
C,left,Distractor,0,39,39,39,864.3369819278596,866.3389144425746,left,1,2,0.6414293423295021,B02R06,2022-11-04_14h40.05.354,t1_Paradigm,2021.1.4,59.99530383357985,
R,left,Distractor,0,40,40,40,867.8370072713587,869.8388701718068,left,1,2,0.5334577832836658,B02R06,2022-11-04_14h40.05.354,t1_Paradigm,2021.1.4,59.99530383357985,
B,left,Pretarget,0,41,41,41,871.3370425596368,873.3392660422251,left,1,2,0.6812175228260458,B02R06,2022-11-04_14h40.05.354,t1_Paradigm,2021.1.4,59.99530383357985,
H,left,Distractor,0,42,42,42,874.8369504892034,876.8384470333112,left,1,2,0.590029391925782,B02R06,2022-11-04_14h40.05.354,t1_Paradigm,2021.1.4,59.99530383357985,
B,right,Target,0,43,43,43,878.3536129747517,880.3552612584317,right,1,2,0.8010635889368132,B02R06,2022-11-04_14h40.05.354,t1_Paradigm,2021.1.4,59.99530383357985,
W,left,Pretarget,0,44,44,44,881.8535218668403,883.8555249581113,left,1,2,0.548798241536133,B02R06,2022-11-04_14h40.05.354,t1_Paradigm,2021.1.4,59.99530383357985,
L,left,Pretarget,0,45,45,45,885.3538019275293,887.3543120035902,left,1,2,0.5540561955422163,B02R06,2022-11-04_14h40.05.354,t1_Paradigm,2021.1.4,59.99530383357985,
W,right,Target,0,46,46,46,888.8370120833861,890.8387748934329,right,1,2,1.2935969090322033,B02R06,2022-11-04_14h40.05.354,t1_Paradigm,2021.1.4,59.99530383357985,
L,right,Target,0,47,47,47,892.3537121027475,894.3555794946151,right,1,2,0.704890827764757,B02R06,2022-11-04_14h40.05.354,t1_Paradigm,2021.1.4,59.99530383357985,
W,right,Target,0,48,48,48,895.836993156001,897.838814673014,right,1,2,0.9815807995619252,B02R06,2022-11-04_14h40.05.354,t1_Paradigm,2021.1.4,59.99530383357985,
X,left,Distractor,0,49,49,49,899.336978719919,901.3379597341409,left,1,2,1.050573562970385,B02R06,2022-11-04_14h40.05.354,t1_Paradigm,2021.1.4,59.99530383357985,
R,left,Distractor,0,50,50,50,902.8370303690899,904.8393703030888,left,1,2,0.6051667820429429,B02R06,2022-11-04_14h40.05.354,t1_Paradigm,2021.1.4,59.99530383357985,
V,left,Pretarget,0,51,51,51,906.3369508100441,908.3377146410057,left,1,2,0.7387120802886784,B02R06,2022-11-04_14h40.05.354,t1_Paradigm,2021.1.4,59.99530383357985,
Z,left,Distractor,0,52,52,52,909.837046088418,911.8388473949162,left,1,2,0.613984682247974,B02R06,2022-11-04_14h40.05.354,t1_Paradigm,2021.1.4,59.99530383357985,
V,right,Target,0,53,53,53,913.3369161633309,915.3498817201471,right,1,2,0.5585240131476894,B02R06,2022-11-04_14h40.05.354,t1_Paradigm,2021.1.4,59.99530383357985,
V,left,Lure,0,54,54,54,916.836965246126,918.8370149706025,None,0,2,,B02R06,2022-11-04_14h40.05.354,t1_Paradigm,2021.1.4,59.99530383357985,
N,left,Distractor,0,55,55,55,920.337078168639,922.3378391123842,right,0,2,0.626830579712987,B02R06,2022-11-04_14h40.05.354,t1_Paradigm,2021.1.4,59.99530383357985,
B,left,Distractor,0,56,56,56,923.8370836223476,925.8384977200767,left,1,2,0.9499333051498979,B02R06,2022-11-04_14h40.05.354,t1_Paradigm,2021.1.4,59.99530383357985,
V,left,Lure,0,57,57,57,927.3536761729047,929.3361966032535,left,1,2,0.9082989058224484,B02R06,2022-11-04_14h40.05.354,t1_Paradigm,2021.1.4,59.99530383357985,
J,left,Distractor,0,58,58,58,930.8370226698462,932.8385907527991,left,1,2,0.701844165683724,B02R06,2022-11-04_14h40.05.354,t1_Paradigm,2021.1.4,59.99530383357985,
H,left,Distractor,0,59,59,59,934.3370602037758,936.3386202666443,left,1,2,0.6260475005256012,B02R06,2022-11-04_14h40.05.354,t1_Paradigm,2021.1.4,59.99530383357985,
X,left,Pretarget,0,60,60,60,937.8370531460969,939.8380168370204,left,1,2,0.7104426369769499,B02R06,2022-11-04_14h40.05.354,t1_Paradigm,2021.1.4,59.99530383357985,
P,left,Distractor,0,61,61,61,941.3370974168647,943.3391345131677,left,1,2,0.7455689144553617,B02R06,2022-11-04_14h40.05.354,t1_Paradigm,2021.1.4,59.99530383357985,
X,right,Target,0,62,62,62,944.8537435414037,946.8388088985812,right,1,2,0.5898096420569345,B02R06,2022-11-04_14h40.05.354,t1_Paradigm,2021.1.4,59.99530383357985,
Q,left,Distractor,0,63,63,63,948.3370836223476,950.3390344227664,left,1,2,0.5615915271919221,B02R06,2022-11-04_14h40.05.354,t1_Paradigm,2021.1.4,59.99530383357985,
B,left,Pretarget,0,0,0,0,961.2631697475445,963.2554008717416,None,0,2,,B02R06,2022-11-04_14h40.05.354,t1_Paradigm,2021.1.4,59.99530383357985,
F,left,Distractor,0,1,1,1,964.7537400767906,966.7561201110948,None,0,2,,B02R06,2022-11-04_14h40.05.354,t1_Paradigm,2021.1.4,59.99530383357985,
B,right,Target,0,2,2,2,968.2538074452896,970.2540891099488,right,1,2,0.6146070392569527,B02R06,2022-11-04_14h40.05.354,t1_Paradigm,2021.1.4,59.99530383357985,
V,left,Distractor,0,3,3,3,971.7534151037689,973.7666549467249,left,1,2,0.5258711234200746,B02R06,2022-11-04_14h40.05.354,t1_Paradigm,2021.1.4,59.99530383357985,
G,left,Pretarget,0,4,4,4,975.2537259614328,977.2530522760935,left,1,2,0.7034972613910213,B02R06,2022-11-04_14h40.05.354,t1_Paradigm,2021.1.4,59.99530383357985,
B,left,Lure,0,5,5,5,978.7537740818225,980.75536847068,left,1,2,0.5613858927972615,B02R06,2022-11-04_14h40.05.354,t1_Paradigm,2021.1.4,59.99530383357985,
G,right,Target,0,6,6,6,982.2534783019219,984.2558958700392,right,1,2,0.7887678679544479,B02R06,2022-11-04_14h40.05.354,t1_Paradigm,2021.1.4,59.99530383357985,
Y,left,Pretarget,0,7,7,7,985.7537718362873,987.7558124613715,left,1,2,0.48878377967048436,B02R06,2022-11-04_14h40.05.354,t1_Paradigm,2021.1.4,59.99530383357985,
P,left,Distractor,0,8,8,8,989.2538058413193,991.2557550377678,left,1,2,0.60487581405323,B02R06,2022-11-04_14h40.05.354,t1_Paradigm,2021.1.4,59.99530383357985,
Y,right,Target,0,9,9,9,992.7538408087566,994.7550454224693,right,1,2,0.6576067743590102,B02R06,2022-11-04_14h40.05.354,t1_Paradigm,2021.1.4,59.99530383357985,
X,left,Distractor,0,10,10,10,996.2537981420755,998.2548298430629,left,1,2,0.5659608582500368,B02R06,2022-11-04_14h40.05.354,t1_Paradigm,2021.1.4,59.99530383357985,
Y,right,Target,0,11,11,11,999.753781460342,1001.7551955580711,right,1,2,0.6493839628528804,B02R06,2022-11-04_14h40.05.354,t1_Paradigm,2021.1.4,59.99530383357985,
N,left,Distractor,0,12,12,12,1003.2538533201441,1005.2561159406323,left,1,2,0.5244916722876951,B02R06,2022-11-04_14h40.05.354,t1_Paradigm,2021.1.4,59.99530383357985,
Y,right,Target,0,13,13,13,1006.7538882875815,1008.7552083901828,right,1,2,1.137379209860228,B02R06,2022-11-04_14h40.05.354,t1_Paradigm,2021.1.4,59.99530383357985,
Y,left,Lure,0,14,14,14,1010.2538953452604,1012.2538818714675,left,1,2,0.822718404000625,B02R06,2022-11-04_14h40.05.354,t1_Paradigm,2021.1.4,59.99530383357985,
K,left,Distractor,0,15,15,15,1013.7537400767906,1015.7546056021238,left,1,2,1.0661042570136487,B02R06,2022-11-04_14h40.05.354,t1_Paradigm,2021.1.4,59.99530383357985,
T,left,Pretarget,0,16,16,16,1017.2539537312696,1019.2554271775298,left,1,2,0.7011740091256797,B02R06,2022-11-04_14h40.05.354,t1_Paradigm,2021.1.4,59.99530383357985,
J,left,Distractor,0,17,17,17,1020.7538122573169,1022.7555259846849,left,1,2,0.7370759871555492,B02R06,2022-11-04_14h40.05.354,t1_Paradigm,2021.1.4,59.99530383357985,
T,right,Target,0,18,18,18,1024.2536707834806,1026.254328107927,right,1,2,0.7743282234296203,B02R06,2022-11-04_14h40.05.354,t1_Paradigm,2021.1.4,59.99530383357985,
S,left,Pretarget,0,19,19,19,1027.753813540563,1029.7558150278637,left,1,2,0.600817340775393,B02R06,2022-11-04_14h40.05.354,t1_Paradigm,2021.1.4,59.99530383357985,
R,left,Distractor,0,20,20,20,1031.253775044228,1033.255370395491,left,1,2,0.5573524420615286,B02R06,2022-11-04_14h40.05.354,t1_Paradigm,2021.1.4,59.99530383357985,
S,right,Target,0,21,21,21,1034.7539267839165,1036.7558743762784,right,1,2,0.5927376071922481,B02R06,2022-11-04_14h40.05.354,t1_Paradigm,2021.1.4,59.99530383357985,
Q,left,Distractor,0,22,22,22,1038.2538722474128,1040.2538959868252,left,1,2,0.5187011858215556,B02R06,2022-11-04_14h40.05.354,t1_Paradigm,2021.1.4,59.99530383357985,
D,left,Distractor,0,23,23,23,1041.7539255006704,1043.755861223326,left,1,2,0.665019880165346,B02R06,2022-11-04_14h40.05.354,t1_Paradigm,2021.1.4,59.99530383357985,
F,left,Distractor,0,24,24,24,1045.270483725355,1047.255841333652,left,1,2,0.5249488160479814,B02R06,2022-11-04_14h40.05.354,t1_Paradigm,2021.1.4,59.99530383357985,
Z,left,Distractor,0,25,25,25,1048.7538347134832,1050.7545382336248,left,1,2,0.6742320468183607,B02R06,2022-11-04_14h40.05.354,t1_Paradigm,2021.1.4,59.99530383357985,
P,left,Distractor,0,26,26,26,1052.253961109789,1054.2557973837247,left,1,2,0.5648492773761973,B02R06,2022-11-04_14h40.05.354,t1_Paradigm,2021.1.4,59.99530383357985,
H,left,Distractor,0,27,27,27,1055.7537343023578,1057.7552167309914,left,1,2,0.5694585687015206,B02R06,2022-11-04_14h40.05.354,t1_Paradigm,2021.1.4,59.99530383357985,
Z,left,Pretarget,0,28,28,28,1059.254029119853,1061.2557839099318,left,1,2,0.557009504060261,B02R06,2022-11-04_14h40.05.354,t1_Paradigm,2021.1.4,59.99530383357985,
J,left,Pretarget,0,29,29,29,1062.7539559769211,1064.7543306743028,left,1,2,0.6584652420133352,B02R06,2022-11-04_14h40.05.354,t1_Paradigm,2021.1.4,59.99530383357985,
Z,right,Target,0,30,30,30,1066.2539187638322,1068.2553883603541,right,1,2,0.46927705861162394,B02R06,2022-11-04_14h40.05.354,t1_Paradigm,2021.1.4,59.99530383357985,
J,right,Target,0,31,31,31,1069.7539524480235,1071.7554085709853,right,1,2,0.4892649835674092,B02R06,2022-11-04_14h40.05.354,t1_Paradigm,2021.1.4,59.99530383357985,
V,left,Pretarget,0,32,32,32,1073.2539274254814,1075.2557146166218,left,1,2,0.5410919220885262,B02R06,2022-11-04_14h40.05.354,t1_Paradigm,2021.1.4,59.99530383357985,
Z,left,Lure,0,33,33,33,1076.7539261422353,1078.7558689226862,left,1,2,0.6090209041722119,B02R06,2022-11-04_14h40.05.354,t1_Paradigm,2021.1.4,59.99530383357985,
V,right,Target,0,34,34,34,1080.2538956659846,1082.255949123297,right,1,2,0.724795023095794,B02R06,2022-11-04_14h40.05.354,t1_Paradigm,2021.1.4,59.99530383357985,
X,left,Distractor,0,35,35,35,1083.7539550145157,1085.7559135141782,left,1,2,0.8090355327585712,B02R06,2022-11-04_14h40.05.354,t1_Paradigm,2021.1.4,59.99530383357985,
S,left,Distractor,0,36,36,36,1087.2539386536228,1089.255505132489,left,1,2,0.6692900832276791,B02R06,2022-11-04_14h40.05.354,t1_Paradigm,2021.1.4,59.99530383357985,
Q,left,Distractor,0,37,37,37,1090.7537031844258,1092.7555035285186,left,1,2,0.9134096116758883,B02R06,2022-11-04_14h40.05.354,t1_Paradigm,2021.1.4,59.99530383357985,
P,left,Distractor,0,38,38,38,1094.25391619734,1096.254723336664,left,1,2,0.5339867867296562,B02R06,2022-11-04_14h40.05.354,t1_Paradigm,2021.1.4,59.99530383357985,
S,left,Lure,0,39,39,39,1097.7540166085819,1099.7562702466967,left,1,2,0.6324725344311446,B02R06,2022-11-04_14h40.05.354,t1_Paradigm,2021.1.4,59.99530383357985,
K,left,Pretarget,0,40,40,40,1101.2539781122468,1103.2553521096706,left,1,2,0.6694492012029514,B02R06,2022-11-04_14h40.05.354,t1_Paradigm,2021.1.4,59.99530383357985,
L,left,Distractor,0,41,41,41,1104.753972337814,1106.7562545273686,left,1,2,0.6885927738621831,B02R06,2022-11-04_14h40.05.354,t1_Paradigm,2021.1.4,59.99530383357985,
K,right,Target,0,42,42,42,1108.253912026994,1110.2558711682213,right,1,2,0.452868007007055,B02R06,2022-11-04_14h40.05.354,t1_Paradigm,2021.1.4,59.99530383357985,
B,left,Distractor,0,43,43,43,1111.7539171597455,1113.7560399103677,left,1,2,0.6007111551007256,B02R06,2022-11-04_14h40.05.354,t1_Paradigm,2021.1.4,59.99530383357985,
N,left,Distractor,0,44,44,44,1115.254097771598,1117.2558920204174,left,1,2,0.5250383198726922,B02R06,2022-11-04_14h40.05.354,t1_Paradigm,2021.1.4,59.99530383357985,
S,left,Pretarget,0,45,45,45,1118.7540490096435,1120.7563523721183,left,1,2,0.5285690729506314,B02R06,2022-11-04_14h40.05.354,t1_Paradigm,2021.1.4,59.99530383357985,
Z,left,Distractor,0,46,46,46,1122.253742964007,1124.2545869955793,left,1,2,0.550196619820781,B02R06,2022-11-04_14h40.05.354,t1_Paradigm,2021.1.4,59.99530383357985,
S,right,Target,0,47,47,47,1125.7538773802808,1127.7548420336097,right,1,2,0.44191356166265905,B02R06,2022-11-04_14h40.05.354,t1_Paradigm,2021.1.4,59.99530383357985,
C,left,Distractor,0,48,48,48,1129.2540714658098,1131.255403758958,left,1,2,0.5255163157125935,B02R06,2022-11-04_14h40.05.354,t1_Paradigm,2021.1.4,59.99530383357985,
T,left,Pretarget,0,49,49,49,1132.7539838866796,1134.756356863305,left,1,2,0.5764405158115551,B02R06,2022-11-04_14h40.05.354,t1_Paradigm,2021.1.4,59.99530383357985,
S,left,Lure,0,50,50,50,1136.254065691377,1138.2557178246789,left,1,2,0.7732022063573822,B02R06,2022-11-04_14h40.05.354,t1_Paradigm,2021.1.4,59.99530383357985,
T,right,Target,0,51,51,51,1139.7539171597455,1141.7549385952298,right,1,2,0.6498972468543798,B02R06,2022-11-04_14h40.05.354,t1_Paradigm,2021.1.4,59.99530383357985,
N,left,Pretarget,0,52,52,52,1143.254095846787,1145.27032621135,left,1,2,0.46258415456395596,B02R06,2022-11-04_14h40.05.354,t1_Paradigm,2021.1.4,59.99530383357985,
B,left,Distractor,0,53,53,53,1146.7539145933697,1148.7560495345388,left,1,2,0.5449447609717026,B02R06,2022-11-04_14h40.05.354,t1_Paradigm,2021.1.4,59.99530383357985,
N,right,Target,0,54,54,54,1150.2540714658098,1152.2554522000719,right,1,2,0.6135599397821352,B02R06,2022-11-04_14h40.05.354,t1_Paradigm,2021.1.4,59.99530383357985,
N,left,Lure,0,55,55,55,1153.7540182125522,1155.7541150950128,None,0,2,,B02R06,2022-11-04_14h40.05.354,t1_Paradigm,2021.1.4,59.99530383357985,
X,left,Distractor,0,56,56,56,1157.254048047238,1159.255617413437,left,1,2,0.49317652941681445,B02R06,2022-11-04_14h40.05.354,t1_Paradigm,2021.1.4,59.99530383357985,
W,left,Distractor,0,57,57,57,1160.7538780218456,1162.755887849955,left,1,2,0.5451465458609164,B02R06,2022-11-04_14h40.05.354,t1_Paradigm,2021.1.4,59.99530383357985,
S,left,Distractor,0,58,58,58,1164.2540201374795,1166.2557867971482,left,1,2,0.5330275871092454,B02R06,2022-11-04_14h40.05.354,t1_Paradigm,2021.1.4,59.99530383357985,
L,left,Distractor,0,59,59,59,1167.7541526289424,1169.7557723610662,left,1,2,0.6171092994045466,B02R06,2022-11-04_14h40.05.354,t1_Paradigm,2021.1.4,59.99530383357985,
K,left,Pretarget,0,60,60,60,1171.2541263230378,1173.2557030677563,left,1,2,0.5411814260296524,B02R06,2022-11-04_14h40.05.354,t1_Paradigm,2021.1.4,59.99530383357985,
V,left,Pretarget,0,61,61,61,1174.7541673857486,1176.7556661753915,left,1,2,0.5932383800391108,B02R06,2022-11-04_14h40.05.354,t1_Paradigm,2021.1.4,59.99530383357985,
K,right,Target,0,62,62,62,1178.2539790746523,1180.2562821164029,left,0,2,0.4366013918770477,B02R06,2022-11-04_14h40.05.354,t1_Paradigm,2021.1.4,59.99530383357985,
V,right,Target,0,63,63,63,1181.754113490926,1183.7561310183955,right,1,2,0.8408498445060104,B02R06,2022-11-04_14h40.05.354,t1_Paradigm,2021.1.4,59.99530383357985,
R,left,Distractor,0,0,0,0,1267.3675085381838,1269.3701307784067,None,0,3,,B02R06,2022-11-04_14h40.05.354,t1_Paradigm,2021.1.4,59.99530383357985,
P,left,Lure,0,1,1,1,1270.8706799923675,1272.8724302912597,None,0,3,,B02R06,2022-11-04_14h40.05.354,t1_Paradigm,2021.1.4,59.99530383357985,
V,left,Distractor,0,2,2,2,1274.3708808147348,1276.372372546699,None,0,3,,B02R06,2022-11-04_14h40.05.354,t1_Paradigm,2021.1.4,59.99530383357985,
P,left,Pretarget,0,3,3,3,1277.8706533657387,1279.8728733195458,left,1,3,0.9322153792018071,B02R06,2022-11-04_14h40.05.354,t1_Paradigm,2021.1.4,59.99530383357985,
Z,left,Distractor,0,4,4,4,1281.3708811355755,1283.3729519161861,left,1,3,0.6160339692141861,B02R06,2022-11-04_14h40.05.354,t1_Paradigm,2021.1.4,59.99530383357985,
L,left,Pretarget,0,5,5,5,1284.870974809979,1286.8724889981095,left,1,3,0.6045790717471391,B02R06,2022-11-04_14h40.05.354,t1_Paradigm,2021.1.4,59.99530383357985,
P,right,Target,0,6,6,6,1288.370901025366,1290.3721961053088,left,0,3,0.9609503069659695,B02R06,2022-11-04_14h40.05.354,t1_Paradigm,2021.1.4,59.99530383357985,
S,left,Distractor,0,7,7,7,1291.870901025366,1293.8721800652565,left,1,3,0.5809442631434649,B02R06,2022-11-04_14h40.05.354,t1_Paradigm,2021.1.4,59.99530383357985,
L,right,Target,0,8,8,8,1295.371078108321,1297.3729118158808,right,1,3,0.4882396984612569,B02R06,2022-11-04_14h40.05.354,t1_Paradigm,2021.1.4,59.99530383357985,
D,left,Distractor,0,9,9,9,1298.8708968549035,1300.8733545234427,left,1,3,0.49189524387475103,B02R06,2022-11-04_14h40.05.354,t1_Paradigm,2021.1.4,59.99530383357985,
G,left,Distractor,0,10,10,10,1302.3710912612732,1304.3723180103116,left,1,3,0.5928867803886533,B02R06,2022-11-04_14h40.05.354,t1_Paradigm,2021.1.4,59.99530383357985,
M,left,Pretarget,0,11,11,11,1305.8709709603572,1307.8719773179619,left,1,3,0.6771365932654589,B02R06,2022-11-04_14h40.05.354,t1_Paradigm,2021.1.4,59.99530383357985,
Y,left,Distractor,0,12,12,12,1309.3709687147057,1311.3729676355142,left,1,3,0.6161135281436145,B02R06,2022-11-04_14h40.05.354,t1_Paradigm,2021.1.4,59.99530383357985,
V,left,Distractor,0,13,13,13,1312.8709719227627,1314.8728357856162,left,1,3,0.9084253021283075,B02R06,2022-11-04_14h40.05.354,t1_Paradigm,2021.1.4,59.99530383357985,
M,right,Target,0,14,14,14,1316.3709469001042,1318.3721823107917,right,1,3,0.8811041511362419,B02R06,2022-11-04_14h40.05.354,t1_Paradigm,2021.1.4,59.99530383357985,
S,left,Pretarget,0,15,15,15,1319.870721375919,1321.8713642642833,left,1,3,0.5819201446138322,B02R06,2022-11-04_14h40.05.354,t1_Paradigm,2021.1.4,59.99530383357985,
Q,left,Distractor,0,16,16,16,1323.3710399328265,1325.3731998965377,left,1,3,0.8559705528896302,B02R06,2022-11-04_14h40.05.354,t1_Paradigm,2021.1.4,59.99530383357985,
R,left,Pretarget,0,17,17,17,1326.8701673499309,1328.8899137105327,left,1,3,0.6992222461849451,B02R06,2022-11-04_14h40.05.354,t1_Paradigm,2021.1.4,59.99530383357985,
S,right,Target,0,18,18,18,1330.371040895232,1332.3730112647172,right,1,3,1.3283266745274886,B02R06,2022-11-04_14h40.05.354,t1_Paradigm,2021.1.4,59.99530383357985,
F,left,Distractor,0,19,19,19,1333.870971601922,1335.8723205766873,left,1,3,1.413002192392014,B02R06,2022-11-04_14h40.05.354,t1_Paradigm,2021.1.4,59.99530383357985,
R,right,Target,0,20,20,20,1337.3710752211045,1339.3729881668696,right,1,3,0.95209968497511,B02R06,2022-11-04_14h40.05.354,t1_Paradigm,2021.1.4,59.99530383357985,
P,left,Distractor,0,21,21,21,1340.8710777875967,1342.8723937197356,left,1,3,0.9569120443193242,B02R06,2022-11-04_14h40.05.354,t1_Paradigm,2021.1.4,59.99530383357985,
L,left,Distractor,0,22,22,22,1344.3711400232278,1346.372085749288,left,1,3,0.7051673594396561,B02R06,2022-11-04_14h40.05.354,t1_Paradigm,2021.1.4,59.99530383357985,
R,right,Target,0,23,23,23,1347.871078108321,1349.8726484369254,right,1,3,0.8045446175383404,B02R06,2022-11-04_14h40.05.354,t1_Paradigm,2021.1.4,59.99530383357985,
H,left,Pretarget,0,24,24,24,1351.3708535465412,1353.3701173047302,left,1,3,0.9230939996195957,B02R06,2022-11-04_14h40.05.354,t1_Paradigm,2021.1.4,59.99530383357985,
G,left,Pretarget,0,25,25,25,1354.8711788404034,1356.8718858892098,left,1,3,0.6373108788393438,B02R06,2022-11-04_14h40.05.354,t1_Paradigm,2021.1.4,59.99530383357985,
T,left,Distractor,0,26,26,26,1358.3710453865351,1360.372109488584,left,1,3,0.6091280521359295,B02R06,2022-11-04_14h40.05.354,t1_Paradigm,2021.1.4,59.99530383357985,
H,right,Target,0,27,27,27,1361.8708837020677,1363.8731059014099,None,0,3,,B02R06,2022-11-04_14h40.05.354,t1_Paradigm,2021.1.4,59.99530383357985,
G,right,Target,0,28,28,28,1365.3709812259767,1367.3716796132503,right,1,3,1.24167437129654,B02R06,2022-11-04_14h40.05.354,t1_Paradigm,2021.1.4,59.99530383357985,
D,left,Distractor,0,29,29,29,1368.8710880532162,1370.8712353016017,left,1,3,0.6702537740347907,B02R06,2022-11-04_14h40.05.354,t1_Paradigm,2021.1.4,59.99530383357985,
N,left,Pretarget,0,30,30,30,1372.371025175904,1374.372521399171,left,1,3,0.8164925884921104,B02R06,2022-11-04_14h40.05.354,t1_Paradigm,2021.1.4,59.99530383357985,
V,left,Distractor,0,31,31,31,1375.871121737524,1377.8731812899932,left,1,3,0.612222192925401,B02R06,2022-11-04_14h40.05.354,t1_Paradigm,2021.1.4,59.99530383357985,
R,left,Distractor,0,32,32,32,1379.3711990509182,1381.3726850084495,left,1,3,0.5366160846315324,B02R06,2022-11-04_14h40.05.354,t1_Paradigm,2021.1.4,59.99530383357985,
N,right,Target,0,33,33,33,1382.8710749003803,1384.8713360336842,right,1,3,0.6859031651401892,B02R06,2022-11-04_14h40.05.354,t1_Paradigm,2021.1.4,59.99530383357985,
Z,left,Distractor,0,34,34,34,1386.3701413648669,1388.3703527738107,left,1,3,0.6430166733916849,B02R06,2022-11-04_14h40.05.354,t1_Paradigm,2021.1.4,59.99530383357985,
N,left,Lure,0,35,35,35,1389.8711172463372,1391.871917327866,left,1,3,1.0457005718490109,B02R06,2022-11-04_14h40.05.354,t1_Paradigm,2021.1.4,59.99530383357985,
Y,left,Pretarget,0,36,36,36,1393.3712301687337,1395.372456917772,right,0,3,0.8246172344079241,B02R06,2022-11-04_14h40.05.354,t1_Paradigm,2021.1.4,59.99530383357985,
Y,left,Lure,0,37,37,37,1396.8709340679925,1398.8711060181959,left,1,3,0.7666735532693565,B02R06,2022-11-04_14h40.05.354,t1_Paradigm,2021.1.4,59.99530383357985,
B,left,Distractor,0,38,38,38,1400.3710713714827,1402.3727799659828,left,1,3,0.8162397961132228,B02R06,2022-11-04_14h40.05.354,t1_Paradigm,2021.1.4,59.99530383357985,
Y,right,Target,0,39,39,39,1403.871290800511,1405.8724970181938,right,1,3,1.2368113250704482,B02R06,2022-11-04_14h40.05.354,t1_Paradigm,2021.1.4,59.99530383357985,
J,left,Distractor,0,40,40,40,1407.3711855772417,1409.3724543513963,left,1,3,0.8408902655355632,B02R06,2022-11-04_14h40.05.354,t1_Paradigm,2021.1.4,59.99530383357985,
X,left,Distractor,0,41,41,41,1410.8711371360114,1412.873459746712,left,1,3,0.9719503064407036,B02R06,2022-11-04_14h40.05.354,t1_Paradigm,2021.1.4,59.99530383357985,
W,left,Pretarget,0,42,42,42,1414.3709886044962,1416.3726991238073,left,1,3,0.8809049327392131,B02R06,2022-11-04_14h40.05.354,t1_Paradigm,2021.1.4,59.99530383357985,
S,left,Pretarget,0,43,43,43,1417.8710829204647,1419.8730462321546,left,1,3,0.6446716939099133,B02R06,2022-11-04_14h40.05.354,t1_Paradigm,2021.1.4,59.99530383357985,
R,left,Distractor,0,44,44,44,1421.370197505341,1423.3715067006415,left,1,3,0.7139676156220958,B02R06,2022-11-04_14h40.05.354,t1_Paradigm,2021.1.4,59.99530383357985,
W,right,Target,0,45,45,45,1424.8711858980823,1426.873083124403,right,1,3,0.8444332091603428,B02R06,2022-11-04_14h40.05.354,t1_Paradigm,2021.1.4,59.99530383357985,
S,right,Target,0,46,46,46,1428.3708715115208,1430.373403926962,right,1,3,0.9759519976796582,B02R06,2022-11-04_14h40.05.354,t1_Paradigm,2021.1.4,59.99530383357985,
D,left,Distractor,0,47,47,47,1431.8712269607931,1433.8728588834638,left,1,3,0.6765113490400836,B02R06,2022-11-04_14h40.05.354,t1_Paradigm,2021.1.4,59.99530383357985,
T,left,Distractor,0,48,48,48,1435.371296254103,1437.3713382792193,left,1,3,0.5380247287685052,B02R06,2022-11-04_14h40.05.354,t1_Paradigm,2021.1.4,59.99530383357985,
S,right,Target,0,49,49,49,1438.87122246949,1440.8719442753354,None,0,3,,B02R06,2022-11-04_14h40.05.354,t1_Paradigm,2021.1.4,59.99530383357985,
K,left,Distractor,0,50,50,50,1442.3711842939956,1444.372613469488,left,1,3,0.7048061358509585,B02R06,2022-11-04_14h40.05.354,t1_Paradigm,2021.1.4,59.99530383357985,
S,left,Lure,0,51,51,51,1445.8711753115058,1447.8727462817915,left,1,3,1.076569157652557,B02R06,2022-11-04_14h40.05.354,t1_Paradigm,2021.1.4,59.99530383357985,
T,left,Pretarget,0,52,52,52,1449.3710110606626,1451.3729451793479,None,0,3,,B02R06,2022-11-04_14h40.05.354,t1_Paradigm,2021.1.4,59.99530383357985,
V,left,Distractor,0,53,53,53,1452.8712208655197,1454.8727385824313,left,1,3,0.7968354109907523,B02R06,2022-11-04_14h40.05.354,t1_Paradigm,2021.1.4,59.99530383357985,
B,left,Distractor,0,54,54,54,1456.3711788404034,1458.3725085670594,left,1,3,0.7528937995666638,B02R06,2022-11-04_14h40.05.354,t1_Paradigm,2021.1.4,59.99530383357985,
T,right,Target,0,55,55,55,1459.8713087653741,1461.8729865628993,None,0,3,,B02R06,2022-11-04_14h40.05.354,t1_Paradigm,2021.1.4,59.99530383357985,
Y,left,Pretarget,0,56,56,56,1463.3711660082918,1465.37293106399,left,1,3,1.0484495291020721,B02R06,2022-11-04_14h40.05.354,t1_Paradigm,2021.1.4,59.99530383357985,
T,left,Lure,0,57,57,57,1466.870552312932,1468.8731078262208,right,0,3,0.6684691493865103,B02R06,2022-11-04_14h40.05.354,t1_Paradigm,2021.1.4,59.99530383357985,
P,left,Pretarget,0,58,58,58,1470.3712449256564,1472.373005490168,left,1,3,0.5924902685219422,B02R06,2022-11-04_14h40.05.354,t1_Paradigm,2021.1.4,59.99530383357985,
Y,right,Target,0,59,59,59,1473.8712333767908,1475.8734456313541,right,1,3,0.692021511727944,B02R06,2022-11-04_14h40.05.354,t1_Paradigm,2021.1.4,59.99530383357985,
R,left,Distractor,0,60,60,60,1477.3712474921485,1479.3735332104843,left,1,3,0.615860735764727,B02R06,2022-11-04_14h40.05.354,t1_Paradigm,2021.1.4,59.99530383357985,
P,right,Target,0,61,61,61,1480.8712798932102,1482.8723192935577,right,1,3,0.47708795964717865,B02R06,2022-11-04_14h40.05.354,t1_Paradigm,2021.1.4,59.99530383357985,
L,left,Distractor,0,62,62,62,1484.3711483641528,1486.3716244351817,left,1,3,0.5939062910620123,B02R06,2022-11-04_14h40.05.354,t1_Paradigm,2021.1.4,59.99530383357985,
V,left,Distractor,0,63,63,63,1487.8710861284053,1489.871917327866,left,1,3,0.7416461405809969,B02R06,2022-11-04_14h40.05.354,t1_Paradigm,2021.1.4,59.99530383357985,
H,left,Lure,0,0,0,0,1524.596759829903,1526.5894503432792,None,0,3,,B02R06,2022-11-04_14h40.05.354,t1_Paradigm,2021.1.4,59.99530383357985,
B,left,Distractor,0,1,1,1,1528.0879249271238,1530.0898789354833,None,0,3,,B02R06,2022-11-04_14h40.05.354,t1_Paradigm,2021.1.4,59.99530383357985,
T,left,Distractor,0,2,2,2,1531.5878652577521,1533.5886210686294,None,0,3,,B02R06,2022-11-04_14h40.05.354,t1_Paradigm,2021.1.4,59.99530383357985,
R,left,Distractor,0,3,3,3,1535.088208516594,1537.090079757967,left,1,3,0.755567688960582,B02R06,2022-11-04_14h40.05.354,t1_Paradigm,2021.1.4,59.99530383357985,
H,left,Pretarget,0,4,4,4,1538.587978180265,1540.5883461408084,left,1,3,0.7132865517633036,B02R06,2022-11-04_14h40.05.354,t1_Paradigm,2021.1.4,59.99530383357985,
K,left,Distractor,0,5,5,5,1542.087981388322,1544.0891783026746,left,1,3,0.6683870239648968,B02R06,2022-11-04_14h40.05.354,t1_Paradigm,2021.1.4,59.99530383357985,
G,left,Distractor,0,6,6,6,1545.5879839546978,1547.58966784738,left,1,3,0.8641715497942641,B02R06,2022-11-04_14h40.05.354,t1_Paradigm,2021.1.4,59.99530383357985,
H,right,Target,0,7,7,7,1549.0880003157072,1551.090258124168,left,0,3,0.8193098767660558,B02R06,2022-11-04_14h40.05.354,t1_Paradigm,2021.1.4,59.99530383357985,
Y,left,Pretarget,0,8,8,8,1552.5881372983567,1554.5890085981227,left,1,3,0.7287527645239606,B02R06,2022-11-04_14h40.05.354,t1_Paradigm,2021.1.4,59.99530383357985,
S,left,Distractor,0,9,9,9,1556.0881802858785,1558.0902606905438,left,1,3,0.8593033708166331,B02R06,2022-11-04_14h40.05.354,t1_Paradigm,2021.1.4,59.99530383357985,
P,left,Distractor,0,10,10,10,1559.5879964660853,1561.5903777835192,left,1,3,0.7190690181450918,B02R06,2022-11-04_14h40.05.354,t1_Paradigm,2021.1.4,59.99530383357985,
Y,right,Target,0,11,11,11,1563.088043303229,1565.0900791162858,right,1,3,0.6116835654247552,B02R06,2022-11-04_14h40.05.354,t1_Paradigm,2021.1.4,59.99530383357985,
H,left,Lure,0,12,12,12,1566.588113879785,1568.5893127189483,left,1,3,0.7284329242538661,B02R06,2022-11-04_14h40.05.354,t1_Paradigm,2021.1.4,59.99530383357985,
Q,left,Distractor,0,13,13,13,1570.087800455629,1572.0893800875638,left,1,3,0.8763235511723906,B02R06,2022-11-04_14h40.05.354,t1_Paradigm,2021.1.4,59.99530383357985,
V,left,Pretarget,0,14,14,14,1573.5879088869551,1575.589838835178,left,1,3,0.7037612817948684,B02R06,2022-11-04_14h40.05.354,t1_Paradigm,2021.1.4,59.99530383357985,
G,left,Distractor,0,15,15,15,1577.08813280717,1579.089782053139,left,1,3,0.8837706621270627,B02R06,2022-11-04_14h40.05.354,t1_Paradigm,2021.1.4,59.99530383357985,
Z,left,Pretarget,0,16,16,16,1580.588060947368,1582.5897875068476,left,1,3,0.7440633879741654,B02R06,2022-11-04_14h40.05.354,t1_Paradigm,2021.1.4,59.99530383357985,
V,right,Target,0,17,17,17,1584.0880773082608,1586.089799697278,left,0,3,0.9878277881070971,B02R06,2022-11-04_14h40.05.354,t1_Paradigm,2021.1.4,59.99530383357985,
N,left,Distractor,0,18,18,18,1587.588106822106,1589.5887843571836,left,1,3,1.0569479099940509,B02R06,2022-11-04_14h40.05.354,t1_Paradigm,2021.1.4,59.99530383357985,
Z,right,Target,0,19,19,19,1591.0882662610384,1593.0902250815416,right,1,3,0.9795462696347386,B02R06,2022-11-04_14h40.05.354,t1_Paradigm,2021.1.4,59.99530383357985,
R,left,Distractor,0,20,20,20,1594.5880824411288,1596.5901256327052,left,1,3,1.1435135966166854,B02R06,2022-11-04_14h40.05.354,t1_Paradigm,2021.1.4,59.99530383357985,
P,left,Distractor,0,21,21,21,1598.0881222205935,1600.0896941532847,left,1,3,1.1321594312321395,B02R06,2022-11-04_14h40.05.354,t1_Paradigm,2021.1.4,59.99530383357985,
Z,right,Target,0,22,22,22,1601.5880936692702,1603.5889986532275,right,1,3,1.4407602763967589,B02R06,2022-11-04_14h40.05.354,t1_Paradigm,2021.1.4,59.99530383357985,
D,left,Pretarget,0,23,23,23,1605.0881109925685,1607.0900800786912,left,1,3,0.7715988351264969,B02R06,2022-11-04_14h40.05.354,t1_Paradigm,2021.1.4,59.99530383357985,
K,left,Distractor,0,24,24,24,1608.588273960282,1610.5889393048128,left,1,3,0.6808986449614167,B02R06,2022-11-04_14h40.05.354,t1_Paradigm,2021.1.4,59.99530383357985,
W,left,Distractor,0,25,25,25,1612.0881020100787,1614.0903277383186,left,1,3,0.7314548846334219,B02R06,2022-11-04_14h40.05.354,t1_Paradigm,2021.1.4,59.99530383357985,
D,right,Target,0,26,26,26,1615.5880888571264,1617.5904089013347,right,1,3,0.5750806336291134,B02R06,2022-11-04_14h40.05.354,t1_Paradigm,2021.1.4,59.99530383357985,
G,left,Pretarget,0,27,27,27,1619.088190872455,1621.0887898107758,left,1,3,0.6929900146787986,B02R06,2022-11-04_14h40.05.354,t1_Paradigm,2021.1.4,59.99530383357985,
V,left,Distractor,0,28,28,28,1622.588195042801,1624.589852629695,left,1,3,0.8239326417678967,B02R06,2022-11-04_14h40.05.354,t1_Paradigm,2021.1.4,59.99530383357985,
D,right,Target,0,29,29,29,1626.088208516594,1628.0893364583608,left,0,3,1.020356206339784,B02R06,2022-11-04_14h40.05.354,t1_Paradigm,2021.1.4,59.99530383357985,
G,right,Target,0,30,30,30,1629.5882075541886,1631.5899122989504,right,1,3,0.8317377683706582,B02R06,2022-11-04_14h40.05.354,t1_Paradigm,2021.1.4,59.99530383357985,
B,left,Pretarget,0,31,31,31,1633.0882957748836,1635.101048960234,left,1,3,0.6325877025956288,B02R06,2022-11-04_14h40.05.354,t1_Paradigm,2021.1.4,59.99530383357985,
N,left,Distractor,0,32,32,32,1636.5883012284758,1638.5902250815416,left,1,3,0.5513284113258123,B02R06,2022-11-04_14h40.05.354,t1_Paradigm,2021.1.4,59.99530383357985,
F,left,Distractor,0,33,33,33,1640.0879980700556,1642.1009280176368,left,1,3,0.6567845572717488,B02R06,2022-11-04_14h40.05.354,t1_Paradigm,2021.1.4,59.99530383357985,
B,right,Target,0,34,34,34,1643.5881565465825,1645.590206474997,right,1,3,0.47965662577189505,B02R06,2022-11-04_14h40.05.354,t1_Paradigm,2021.1.4,59.99530383357985,
Q,left,Pretarget,0,35,35,35,1647.0882309727604,1649.0902135325596,left,1,3,0.7395958914421499,B02R06,2022-11-04_14h40.05.354,t1_Paradigm,2021.1.4,59.99530383357985,
S,left,Pretarget,0,36,36,36,1650.5881222205935,1652.588862953824,left,1,3,0.7450960514834151,B02R06,2022-11-04_14h40.05.354,t1_Paradigm,2021.1.4,59.99530383357985,
W,left,Distractor,0,37,37,37,1654.088195042801,1656.0889197358629,left,1,3,0.6367947075050324,B02R06,2022-11-04_14h40.05.354,t1_Paradigm,2021.1.4,59.99530383357985,
Q,right,Target,0,38,38,38,1657.5881802858785,1659.5899575321237,right,1,3,0.6235503733623773,B02R06,2022-11-04_14h40.05.354,t1_Paradigm,2021.1.4,59.99530383357985,
S,right,Target,0,39,39,39,1661.0882088373182,1663.0897352159955,right,1,3,0.8839602563530207,B02R06,2022-11-04_14h40.05.354,t1_Paradigm,2021.1.4,59.99530383357985,
T,left,Distractor,0,40,40,40,1664.5880416992586,1666.589563907357,left,1,3,0.9522777303354815,B02R06,2022-11-04_14h40.05.354,t1_Paradigm,2021.1.4,59.99530383357985,
G,left,Distractor,0,41,41,41,1668.0882046668557,1670.0903216430452,left,1,3,0.795594867435284,B02R06,2022-11-04_14h40.05.354,t1_Paradigm,2021.1.4,59.99530383357985,
D,left,Distractor,0,42,42,42,1671.5879894084064,1673.5905253527453,left,1,3,0.49539295432623476,B02R06,2022-11-04_14h40.05.354,t1_Paradigm,2021.1.4,59.99530383357985,
S,left,Lure,0,43,43,43,1675.0881921555847,1677.0897932812804,left,1,3,0.9322481009876356,B02R06,2022-11-04_14h40.05.354,t1_Paradigm,2021.1.4,59.99530383357985,
Z,left,Pretarget,0,44,44,44,1678.5881081053521,1680.590131407138,left,1,3,0.6797739112516865,B02R06,2022-11-04_14h40.05.354,t1_Paradigm,2021.1.4,59.99530383357985,
J,left,Distractor,0,45,45,45,1682.0882306519197,1684.0891006684396,left,1,3,0.8128165118396282,B02R06,2022-11-04_14h40.05.354,t1_Paradigm,2021.1.4,59.99530383357985,
M,left,Pretarget,0,46,46,46,1685.5882867923938,1687.590058905771,left,1,3,0.7997175012715161,B02R06,2022-11-04_14h40.05.354,t1_Paradigm,2021.1.4,59.99530383357985,
Z,right,Target,0,47,47,47,1689.0877154429909,1691.088748748065,right,1,3,0.8530355301918462,B02R06,2022-11-04_14h40.05.354,t1_Paradigm,2021.1.4,59.99530383357985,
P,left,Distractor,0,48,48,48,1692.5882492584642,1694.5903508361662,left,1,3,0.5673111162614077,B02R06,2022-11-04_14h40.05.354,t1_Paradigm,2021.1.4,59.99530383357985,
M,right,Target,0,49,49,49,1696.0884144718293,1698.090188830858,left,0,3,1.2279542869655415,B02R06,2022-11-04_14h40.05.354,t1_Paradigm,2021.1.4,59.99530383357985,
K,left,Distractor,0,50,50,50,1699.588306040503,1701.5898933716817,left,1,3,0.6718975665280595,B02R06,2022-11-04_14h40.05.354,t1_Paradigm,2021.1.4,59.99530383357985,
Y,left,Distractor,0,51,51,51,1703.0880352831446,1705.0890272046672,left,1,3,0.8207967965863645,B02R06,2022-11-04_14h40.05.354,t1_Paradigm,2021.1.4,59.99530383357985,
X,left,Distractor,0,52,52,52,1706.5883400456514,1708.5903039989062,left,1,3,0.8395249298773706,B02R06,2022-11-04_14h40.05.354,t1_Paradigm,2021.1.4,59.99530383357985,
F,left,Pretarget,0,53,53,53,1710.0875691570109,1712.090101251728,left,1,3,0.8281345136929303,B02R06,2022-11-04_14h40.05.354,t1_Paradigm,2021.1.4,59.99530383357985,
M,left,Lure,0,54,54,54,1713.5881966468878,1715.588392015663,left,1,3,0.7854292755946517,B02R06,2022-11-04_14h40.05.354,t1_Paradigm,2021.1.4,59.99530383357985,
V,left,Distractor,0,55,55,55,1717.0876118238084,1719.0874093973543,left,1,3,0.7265722693409771,B02R06,2022-11-04_14h40.05.354,t1_Paradigm,2021.1.4,59.99530383357985,
F,right,Target,0,56,56,56,1720.5881222205935,1722.5901407104684,right,1,3,1.2398413053015247,B02R06,2022-11-04_14h40.05.354,t1_Paradigm,2021.1.4,59.99530383357985,
S,left,Distractor,0,57,57,57,1724.0883114942117,1726.0903957484988,left,1,3,0.6193703158060089,B02R06,2022-11-04_14h40.05.354,t1_Paradigm,2021.1.4,59.99530383357985,
D,left,Distractor,0,58,58,58,1727.5882284062682,1729.5885565873468,left,1,3,0.6410729306517169,B02R06,2022-11-04_14h40.05.354,t1_Paradigm,2021.1.4,59.99530383357985,
F,right,Target,0,59,59,59,1731.0882608073298,1733.0905705859186,right,1,3,0.48327078751754016,B02R06,2022-11-04_14h40.05.354,t1_Paradigm,2021.1.4,59.99530383357985,
V,left,Pretarget,0,60,60,60,1734.5883775794646,1736.5900656426093,left,1,3,0.5996066317893565,B02R06,2022-11-04_14h40.05.354,t1_Paradigm,2021.1.4,59.99530383357985,
J,left,Distractor,0,61,61,61,1738.0879640650237,1740.089690624387,left,1,3,0.5882223109947518,B02R06,2022-11-04_14h40.05.354,t1_Paradigm,2021.1.4,59.99530383357985,
V,left,Lure,0,62,62,62,1741.5881899100496,1743.5905234279344,right,0,3,0.6873342654434964,B02R06,2022-11-04_14h40.05.354,t1_Paradigm,2021.1.4,59.99530383357985,
V,right,Target,0,63,63,63,1745.0883734091185,1747.0883352335077,left,0,3,0.9817505042301491,B02R06,2022-11-04_14h40.05.354,t1_Paradigm,2021.1.4,59.99530383357985,
R,left,Distractor,0,0,0,0,1811.3292133728974,1813.322962214006,None,0,4,,B02R06,2022-11-04_14h40.05.354,t1_Paradigm,2021.1.4,59.99530383357985,
F,left,Distractor,0,1,1,1,1814.821764978813,1816.8236711876234,None,0,4,,B02R06,2022-11-04_14h40.05.354,t1_Paradigm,2021.1.4,59.99530383357985,
P,left,Pretarget,0,2,2,2,1818.3218952246243,1820.3231178032001,None,0,4,,B02R06,2022-11-04_14h40.05.354,t1_Paradigm,2021.1.4,59.99530383357985,
H,left,Distractor,0,3,3,3,1821.8217463721521,1823.8235662851948,None,0,4,,B02R06,2022-11-04_14h40.05.354,t1_Paradigm,2021.1.4,59.99530383357985,
Z,left,Distractor,0,4,4,4,1825.3217643371318,1827.3224232656648,left,1,4,0.7317760079167783,B02R06,2022-11-04_14h40.05.354,t1_Paradigm,2021.1.4,59.99530383357985,
T,left,Distractor,0,5,5,5,1828.8216674547875,1830.8232211016584,right,0,4,0.606918364064768,B02R06,2022-11-04_14h40.05.354,t1_Paradigm,2021.1.4,59.99530383357985,
P,right,Target,0,6,6,6,1832.3218461418292,1834.3237523506396,right,1,4,0.9142539640888572,B02R06,2022-11-04_14h40.05.354,t1_Paradigm,2021.1.4,59.99530383357985,
G,left,Distractor,0,7,7,7,1835.8215141111286,1837.823305151891,left,1,4,0.6469391264254227,B02R06,2022-11-04_14h40.05.354,t1_Paradigm,2021.1.4,59.99530383357985,
L,left,Distractor,0,8,8,8,1839.3219699716428,1841.3236978142522,left,1,4,0.7306047577876598,B02R06,2022-11-04_14h40.05.354,t1_Paradigm,2021.1.4,59.99530383357985,
P,left,Lure,0,9,9,9,1842.8217800564598,1844.8236352577806,left,1,4,1.2785849526990205,B02R06,2022-11-04_14h40.05.354,t1_Paradigm,2021.1.4,59.99530383357985,
Q,left,Pretarget,0,10,10,10,1846.3217993046856,1848.3242406122154,left,1,4,0.6739394748583436,B02R06,2022-11-04_14h40.05.354,t1_Paradigm,2021.1.4,59.99530383357985,
D,left,Distractor,0,11,11,11,1849.8218233648222,1851.8225422833348,left,1,4,1.2396167436381802,B02R06,2022-11-04_14h40.05.354,t1_Paradigm,2021.1.4,59.99530383357985,
M,left,Pretarget,0,12,12,12,1853.3209581603296,1855.323131918558,left,1,4,0.5070621478371322,B02R06,2022-11-04_14h40.05.354,t1_Paradigm,2021.1.4,59.99530383357985,
C,left,Distractor,0,13,13,13,1856.8216767580016,1858.8225576819386,left,1,4,0.6076218840898946,B02R06,2022-11-04_14h40.05.354,t1_Paradigm,2021.1.4,59.99530383357985,
Q,right,Target,0,14,14,14,1860.321890412597,1862.3237924510613,right,1,4,0.9783804732142016,B02R06,2022-11-04_14h40.05.354,t1_Paradigm,2021.1.4,59.99530383357985,
R,left,Distractor,0,15,15,15,1863.821769149159,1865.824067378766,left,1,4,0.9980023623211309,B02R06,2022-11-04_14h40.05.354,t1_Paradigm,2021.1.4,59.99530383357985,
M,right,Target,0,16,16,16,1867.321866352344,1869.3240600003628,left,0,4,1.1942222173092887,B02R06,2022-11-04_14h40.05.354,t1_Paradigm,2021.1.4,59.99530383357985,
S,left,Distractor,0,17,17,17,1870.821713008685,1872.8224983334076,left,1,4,0.7516137973871082,B02R06,2022-11-04_14h40.05.354,t1_Paradigm,2021.1.4,59.99530383357985,
Z,left,Distractor,0,18,18,18,1874.3219908237224,1876.3240567923058,left,1,4,0.6422178749926388,B02R06,2022-11-04_14h40.05.354,t1_Paradigm,2021.1.4,59.99530383357985,
L,left,Pretarget,0,19,19,19,1877.8219119063579,1879.8233516683104,right,0,4,0.695091913221404,B02R06,2022-11-04_14h40.05.354,t1_Paradigm,2021.1.4,59.99530383357985,
M,right,Target,0,20,20,20,1881.3216013694182,1883.3239509274717,right,1,4,1.018196563469246,B02R06,2022-11-04_14h40.05.354,t1_Paradigm,2021.1.4,59.99530383357985,
P,left,Distractor,0,21,21,21,1884.821788718109,1886.8236955686007,left,1,4,1.0225607615429908,B02R06,2022-11-04_14h40.05.354,t1_Paradigm,2021.1.4,59.99530383357985,
F,left,Distractor,0,22,22,22,1888.3219536106335,1890.322391506168,left,1,4,0.5638679423136637,B02R06,2022-11-04_14h40.05.354,t1_Paradigm,2021.1.4,59.99530383357985,
L,right,Target,0,23,23,23,1891.8217864725739,1893.8225887997542,right,1,4,0.6158302595140412,B02R06,2022-11-04_14h40.05.354,t1_Paradigm,2021.1.4,59.99530383357985,
L,left,Lure,0,24,24,24,1895.3217749235919,1897.321744126617,left,1,4,0.8761615458643064,B02R06,2022-11-04_14h40.05.354,t1_Paradigm,2021.1.4,59.99530383357985,
V,left,Pretarget,0,25,25,25,1898.8218782220501,1900.8226953062695,left,1,4,1.0395584858488292,B02R06,2022-11-04_14h40.05.354,t1_Paradigm,2021.1.4,59.99530383357985,
Z,left,Distractor,0,26,26,26,1902.3220241871895,1904.3231678484008,left,1,4,0.6750914768781513,B02R06,2022-11-04_14h40.05.354,t1_Paradigm,2021.1.4,59.99530383357985,
H,left,Distractor,0,27,27,27,1905.821766903624,1907.8235399794066,left,1,4,0.4705573816318065,B02R06,2022-11-04_14h40.05.354,t1_Paradigm,2021.1.4,59.99530383357985,
X,left,Distractor,0,28,28,28,1909.3217380313436,1911.3241033087252,left,1,4,0.5541777798207477,B02R06,2022-11-04_14h40.05.354,t1_Paradigm,2021.1.4,59.99530383357985,
V,right,Target,0,29,29,29,1912.821993069374,1914.8225640979363,left,0,4,0.6716142977820709,B02R06,2022-11-04_14h40.05.354,t1_Paradigm,2021.1.4,59.99530383357985,
C,left,Distractor,0,30,30,30,1916.3219811996678,1918.3239791580709,left,1,4,0.946335825137794,B02R06,2022-11-04_14h40.05.354,t1_Paradigm,2021.1.4,59.99530383357985,
S,left,Pretarget,0,31,31,31,1919.8219343625242,1921.8241357097868,left,1,4,0.50198480556719,B02R06,2022-11-04_14h40.05.354,t1_Paradigm,2021.1.4,59.99530383357985,
D,left,Distractor,0,32,32,32,1923.3216745124664,1925.3238816341618,left,1,4,0.6502972877351567,B02R06,2022-11-04_14h40.05.354,t1_Paradigm,2021.1.4,59.99530383357985,
V,left,Distractor,0,33,33,33,1926.8219539314741,1928.8237889221637,left,1,4,0.5745481015183032,B02R06,2022-11-04_14h40.05.354,t1_Paradigm,2021.1.4,59.99530383357985,
R,left,Distractor,0,34,34,34,1930.3217499010498,1932.32351880637,left,1,4,0.754690294037573,B02R06,2022-11-04_14h40.05.354,t1_Paradigm,2021.1.4,59.99530383357985,
S,right,Target,0,35,35,35,1933.8216183719924,1935.8241944166366,left,0,4,1.3020757208578289,B02R06,2022-11-04_14h40.05.354,t1_Paradigm,2021.1.4,59.99530383357985,
Y,left,Distractor,0,36,36,36,1937.3219273048453,1939.3232233471936,left,1,4,0.7471815890166909,B02R06,2022-11-04_14h40.05.354,t1_Paradigm,2021.1.4,59.99530383357985,
N,left,Pretarget,0,37,37,37,1940.821973500424,1942.823514956748,left,1,4,0.7827018121024594,B02R06,2022-11-04_14h40.05.354,t1_Paradigm,2021.1.4,59.99530383357985,
Z,left,Pretarget,0,38,38,38,1944.3219494402874,1946.3236936437897,left,1,4,0.7226575156673789,B02R06,2022-11-04_14h40.05.354,t1_Paradigm,2021.1.4,59.99530383357985,
P,left,Pretarget,0,39,39,39,1947.821942061768,1949.823954456253,left,1,4,0.5984392312821001,B02R06,2022-11-04_14h40.05.354,t1_Paradigm,2021.1.4,59.99530383357985,
M,left,Distractor,0,40,40,40,1951.3221188239986,1953.3240648123901,left,1,4,0.6181859127245843,B02R06,2022-11-04_14h40.05.354,t1_Paradigm,2021.1.4,59.99530383357985,
N,right,Target,0,41,41,41,1954.8218320264714,1956.8222670347895,right,1,4,0.8320630621165037,B02R06,2022-11-04_14h40.05.354,t1_Paradigm,2021.1.4,59.99530383357985,
Z,right,Target,0,42,42,42,1958.3220418313285,1960.322700439021,left,0,4,0.6436534665990621,B02R06,2022-11-04_14h40.05.354,t1_Paradigm,2021.1.4,59.99530383357985,
P,right,Target,0,43,43,43,1961.8221168991877,1963.8241780557437,left,0,4,0.9660699953092262,B02R06,2022-11-04_14h40.05.354,t1_Paradigm,2021.1.4,59.99530383357985,
X,left,Pretarget,0,44,44,44,1965.3219937109388,1967.3228277977323,left,1,4,0.6834140579449013,B02R06,2022-11-04_14h40.05.354,t1_Paradigm,2021.1.4,59.99530383357985,
Z,left,Lure,0,45,45,45,1968.8218573698541,1970.8223783532158,right,0,4,0.6878719304222614,B02R06,2022-11-04_14h40.05.354,t1_Paradigm,2021.1.4,59.99530383357985,
R,left,Pretarget,0,46,46,46,1972.3219792748569,1974.3223690500017,left,1,4,0.8357526124455035,B02R06,2022-11-04_14h40.05.354,t1_Paradigm,2021.1.4,59.99530383357985,
K,left,Distractor,0,47,47,47,1975.8221024631057,1977.8239826869685,left,1,4,0.6624874647241086,B02R06,2022-11-04_14h40.05.354,t1_Paradigm,2021.1.4,59.99530383357985,
X,right,Target,0,48,48,48,1979.3220857813722,1981.323762937216,left,0,4,0.9865282168611884,B02R06,2022-11-04_14h40.05.354,t1_Paradigm,2021.1.4,59.99530383357985,
B,left,Distractor,0,49,49,49,1982.8218705228064,1984.8238299848745,left,1,4,0.7344733158824965,B02R06,2022-11-04_14h40.05.354,t1_Paradigm,2021.1.4,59.99530383357985,
R,right,Target,0,50,50,50,1986.3220944430213,1988.3242768628988,right,1,4,0.9621837929589674,B02R06,2022-11-04_14h40.05.354,t1_Paradigm,2021.1.4,59.99530383357985,
Y,left,Pretarget,0,51,51,51,1989.8211926670047,1991.8243567427853,left,1,4,0.74208371527493,B02R06,2022-11-04_14h40.05.354,t1_Paradigm,2021.1.4,59.99530383357985,
W,left,Pretarget,0,52,52,52,1993.322128768894,1995.3237924510613,left,1,4,0.6185503444867209,B02R06,2022-11-04_14h40.05.354,t1_Paradigm,2021.1.4,59.99530383357985,
Z,left,Distractor,0,53,53,53,1996.8217864725739,1998.8232631267747,left,1,4,1.279262808500789,B02R06,2022-11-04_14h40.05.354,t1_Paradigm,2021.1.4,59.99530383357985,
Q,left,Distractor,0,54,54,54,2000.3220703827683,2002.32346908201,left,1,4,0.5790941946906969,B02R06,2022-11-04_14h40.05.354,t1_Paradigm,2021.1.4,59.99530383357985,
Y,right,Target,0,55,55,55,2003.8221306937048,2005.8226545642829,right,1,4,0.7120197024196386,B02R06,2022-11-04_14h40.05.354,t1_Paradigm,2021.1.4,59.99530383357985,
W,right,Target,0,56,56,56,2007.3221441673813,2009.324118386372,left,0,4,0.5703744600759819,B02R06,2022-11-04_14h40.05.354,t1_Paradigm,2021.1.4,59.99530383357985,
H,left,Pretarget,0,57,57,57,2010.8221326185158,2012.8239759501303,left,1,4,0.7024264222709462,B02R06,2022-11-04_14h40.05.354,t1_Paradigm,2021.1.4,59.99530383357985,
M,left,Distractor,0,58,58,58,2014.322060437873,2016.3238835589727,left,1,4,0.706496765371412,B02R06,2022-11-04_14h40.05.354,t1_Paradigm,2021.1.4,59.99530383357985,
R,left,Pretarget,0,59,59,59,2017.8220729492605,2019.8240683411714,right,0,4,0.6624467227375135,B02R06,2022-11-04_14h40.05.354,t1_Paradigm,2021.1.4,59.99530383357985,
J,left,Distractor,0,60,60,60,2021.3222651099786,2023.3243118303362,left,1,4,0.8100916148396209,B02R06,2022-11-04_14h40.05.354,t1_Paradigm,2021.1.4,59.99530383357985,
H,right,Target,0,61,61,61,2024.8220854605315,2026.8239499650663,right,1,4,0.846627178019844,B02R06,2022-11-04_14h40.05.354,t1_Paradigm,2021.1.4,59.99530383357985,
Z,left,Distractor,0,62,62,62,2028.321660076268,2030.323309643194,left,1,4,0.6270747104426846,B02R06,2022-11-04_14h40.05.354,t1_Paradigm,2021.1.4,59.99530383357985,
R,right,Target,0,63,63,63,2031.8218673147494,2033.8239390577655,right,1,4,0.7264484396437183,B02R06,2022-11-04_14h40.05.354,t1_Paradigm,2021.1.4,59.99530383357985,
J,left,Pretarget,0,0,0,0,2084.741126761306,2086.7406256676186,None,0,4,,B02R06,2022-11-04_14h40.05.354,t1_Paradigm,2021.1.4,59.99530383357985,
G,left,Pretarget,0,1,1,1,2088.2387630878948,2090.24080275069,None,0,4,,B02R06,2022-11-04_14h40.05.354,t1_Paradigm,2021.1.4,59.99530383357985,
Z,left,Distractor,0,2,2,2,2091.7390011234675,2093.740336624556,None,0,4,,B02R06,2022-11-04_14h40.05.354,t1_Paradigm,2021.1.4,59.99530383357985,
F,left,Distractor,0,3,3,3,2095.238935038098,2097.2516904691,None,0,4,,B02R06,2022-11-04_14h40.05.354,t1_Paradigm,2021.1.4,59.99530383357985,
J,right,Target,0,4,4,4,2098.738827890018,2100.7409426206723,right,1,4,0.6094514211872593,B02R06,2022-11-04_14h40.05.354,t1_Paradigm,2021.1.4,59.99530383357985,
G,right,Target,0,5,5,5,2102.2386771128513,2104.2404203540646,right,1,4,0.5180688840337098,B02R06,2022-11-04_14h40.05.354,t1_Paradigm,2021.1.4,59.99530383357985,
H,left,Distractor,0,6,6,6,2105.7387117595645,2107.739615460392,left,1,4,0.810879505937919,B02R06,2022-11-04_14h40.05.354,t1_Paradigm,2021.1.4,59.99530383357985,
P,left,Distractor,0,7,7,7,2109.2390640007798,2111.240634970949,left,1,4,0.7979947914136574,B02R06,2022-11-04_14h40.05.354,t1_Paradigm,2021.1.4,59.99530383357985,
G,left,Lure,0,8,8,8,2112.7389360005036,2114.739524673205,left,1,4,0.9151948778890073,B02R06,2022-11-04_14h40.05.354,t1_Paradigm,2021.1.4,59.99530383357985,
S,left,Distractor,0,9,9,9,2116.2389026370365,2118.2399247140856,left,1,4,0.9024519582744688,B02R06,2022-11-04_14h40.05.354,t1_Paradigm,2021.1.4,59.99530383357985,
R,left,Pretarget,0,10,10,10,2119.7389517198317,2121.7397280620644,left,1,4,0.9547937848838046,B02R06,2022-11-04_14h40.05.354,t1_Paradigm,2021.1.4,59.99530383357985,
T,left,Pretarget,0,11,11,11,2123.2386960402364,2125.2402763136197,left,1,4,0.5903511568903923,B02R06,2022-11-04_14h40.05.354,t1_Paradigm,2021.1.4,59.99530383357985,
X,left,Distractor,0,12,12,12,2126.738977384055,2128.73910474265,left,1,4,0.5476164048304781,B02R06,2022-11-04_14h40.05.354,t1_Paradigm,2021.1.4,59.99530383357985,
F,left,Pretarget,0,13,13,13,2130.2389934242237,2132.2404524342855,left,1,4,0.7101186263607815,B02R06,2022-11-04_14h40.05.354,t1_Paradigm,2021.1.4,59.99530383357985,
R,right,Target,0,14,14,14,2133.738799659419,2135.74064587825,left,0,4,0.8098721858114004,B02R06,2022-11-04_14h40.05.354,t1_Paradigm,2021.1.4,59.99530383357985,
T,right,Target,0,15,15,15,2137.238790035364,2139.2412557238713,None,0,4,,B02R06,2022-11-04_14h40.05.354,t1_Paradigm,2021.1.4,59.99530383357985,
C,left,Distractor,0,16,16,16,2140.738968722406,2142.741112966789,left,1,4,0.8174566001398489,B02R06,2022-11-04_14h40.05.354,t1_Paradigm,2021.1.4,59.99530383357985,
F,right,Target,0,17,17,17,2144.2390389781212,2146.257894149283,right,1,4,0.6928074780153111,B02R06,2022-11-04_14h40.05.354,t1_Paradigm,2021.1.4,59.99530383357985,
M,left,Distractor,0,18,18,18,2147.738700531423,2149.740527181304,left,1,4,0.6179831655463204,B02R06,2022-11-04_14h40.05.354,t1_Paradigm,2021.1.4,59.99530383357985,
N,left,Distractor,0,19,19,19,2151.2389651936246,2153.241105267545,left,1,4,0.5415105695137754,B02R06,2022-11-04_14h40.05.354,t1_Paradigm,2021.1.4,59.99530383357985,
R,left,Lure,0,20,20,20,2154.739166015992,2156.7412255684612,left,1,4,0.9615508493734524,B02R06,2022-11-04_14h40.05.354,t1_Paradigm,2021.1.4,59.99530383357985,
F,right,Target,0,21,21,21,2158.2390476397704,2160.240715813241,right,1,4,0.5498543236171827,B02R06,2022-11-04_14h40.05.354,t1_Paradigm,2021.1.4,59.99530383357985,
P,left,Distractor,0,22,22,22,2161.738891088171,2163.740770670469,left,1,4,0.7140972198685631,B02R06,2022-11-04_14h40.05.354,t1_Paradigm,2021.1.4,59.99530383357985,
L,left,Pretarget,0,23,23,23,2165.2388971834444,2167.2409217684763,left,1,4,0.5738218044862151,B02R06,2022-11-04_14h40.05.354,t1_Paradigm,2021.1.4,59.99530383357985,
T,left,Distractor,0,24,24,24,2168.7390174843604,2170.741155312746,left,1,4,0.6735939704813063,B02R06,2022-11-04_14h40.05.354,t1_Paradigm,2021.1.4,59.99530383357985,
F,left,Distractor,0,25,25,25,2172.239070737618,2174.241143122199,right,0,4,0.5814123140880838,B02R06,2022-11-04_14h40.05.354,t1_Paradigm,2021.1.4,59.99530383357985,
V,left,Distractor,0,26,26,26,2175.738831098075,2177.7396764128935,left,1,4,0.5709714735858142,B02R06,2022-11-04_14h40.05.354,t1_Paradigm,2021.1.4,59.99530383357985,
L,right,Target,0,27,27,27,2179.238867669599,2181.2410760745406,right,1,4,0.44569325749762356,B02R06,2022-11-04_14h40.05.354,t1_Paradigm,2021.1.4,59.99530383357985,
S,left,Pretarget,0,28,28,28,2182.739089665003,2184.740935242153,left,1,4,0.5777939818799496,B02R06,2022-11-04_14h40.05.354,t1_Paradigm,2021.1.4,59.99530383357985,
W,left,Distractor,0,29,29,29,2186.239181093755,2188.2394284324255,left,1,4,0.9038214643951505,B02R06,2022-11-04_14h40.05.354,t1_Paradigm,2021.1.4,59.99530383357985,
Q,left,Distractor,0,30,30,30,2189.7390838905703,2191.7409323549364,left,1,4,0.5856590984622017,B02R06,2022-11-04_14h40.05.354,t1_Paradigm,2021.1.4,59.99530383357985,
L,right,Target,0,31,31,31,2193.2390142763034,2195.240442810231,right,1,4,0.7182182496180758,B02R06,2022-11-04_14h40.05.354,t1_Paradigm,2021.1.4,59.99530383357985,
S,right,Target,0,32,32,32,2196.739264823147,2198.74021760677,left,0,4,0.642667960957624,B02R06,2022-11-04_14h40.05.354,t1_Paradigm,2021.1.4,59.99530383357985,
Z,left,Pretarget,0,33,33,33,2200.2388606119202,2202.240388273727,left,1,4,0.6624075848376378,B02R06,2022-11-04_14h40.05.354,t1_Paradigm,2021.1.4,59.99530383357985,
F,left,Distractor,0,34,34,34,2203.739179810509,2205.7407247956144,left,1,4,0.6659309595124796,B02R06,2022-11-04_14h40.05.354,t1_Paradigm,2021.1.4,59.99530383357985,
V,left,Distractor,0,35,35,35,2207.238906165934,2209.241134139709,left,1,4,0.7495574528584257,B02R06,2022-11-04_14h40.05.354,t1_Paradigm,2021.1.4,59.99530383357985,
M,left,Distractor,0,36,36,36,2210.738995669759,2212.7394727031933,left,1,4,0.6753320787101984,B02R06,2022-11-04_14h40.05.354,t1_Paradigm,2021.1.4,59.99530383357985,
Z,right,Target,0,37,37,37,2214.239051168668,2216.2382600695128,right,1,4,0.8565014811465517,B02R06,2022-11-04_14h40.05.354,t1_Paradigm,2021.1.4,59.99530383357985,
H,left,Pretarget,0,38,38,38,2217.7388118499657,2219.7396979066543,left,1,4,1.1791849175933748,B02R06,2022-11-04_14h40.05.354,t1_Paradigm,2021.1.4,59.99530383357985,
L,left,Distractor,0,39,39,39,2221.2390546974493,2223.241327904514,left,1,4,0.9571876135887578,B02R06,2022-11-04_14h40.05.354,t1_Paradigm,2021.1.4,59.99530383357985,
G,left,Distractor,0,40,40,40,2224.739042827743,2226.7409933074377,left,1,4,0.7857635518303141,B02R06,2022-11-04_14h40.05.354,t1_Paradigm,2021.1.4,59.99530383357985,
K,left,Distractor,0,41,41,41,2228.2391297653085,2230.240331812529,left,1,4,1.1584658835781738,B02R06,2022-11-04_14h40.05.354,t1_Paradigm,2021.1.4,59.99530383357985,
H,right,Target,0,42,42,42,2231.739132652525,2233.7413538894616,right,1,4,0.6653576852986589,B02R06,2022-11-04_14h40.05.354,t1_Paradigm,2021.1.4,59.99530383357985,
B,left,Distractor,0,43,43,43,2235.2392337053316,2237.2407523846487,left,1,4,0.5900954772951081,B02R06,2022-11-04_14h40.05.354,t1_Paradigm,2021.1.4,59.99530383357985,
Z,left,Distractor,0,44,44,44,2238.738884030492,2240.741026670905,left,1,4,0.7537221118109301,B02R06,2022-11-04_14h40.05.354,t1_Paradigm,2021.1.4,59.99530383357985,
T,left,Pretarget,0,45,45,45,2242.239087740192,2244.2411543503404,left,1,4,0.9657520798500627,B02R06,2022-11-04_14h40.05.354,t1_Paradigm,2021.1.4,59.99530383357985,
H,right,Target,0,46,46,46,2245.7389513991075,2247.741489268141,right,1,4,0.58528247626964,B02R06,2022-11-04_14h40.05.354,t1_Paradigm,2021.1.4,59.99530383357985,
F,left,Distractor,0,47,47,47,2249.2388776144944,2251.2405951914843,left,1,4,0.6382627000566572,B02R06,2022-11-04_14h40.05.354,t1_Paradigm,2021.1.4,59.99530383357985,
R,left,Distractor,0,48,48,48,2252.73913201096,2254.740365175996,left,1,4,0.7224894150858745,B02R06,2022-11-04_14h40.05.354,t1_Paradigm,2021.1.4,59.99530383357985,
T,right,Target,0,49,49,49,2256.2391705071786,2258.240272463998,right,1,4,0.5025186209240928,B02R06,2022-11-04_14h40.05.354,t1_Paradigm,2021.1.4,59.99530383357985,
H,right,Target,0,50,50,50,2259.7392096450785,2261.7413452278124,left,0,4,1.385515186470002,B02R06,2022-11-04_14h40.05.354,t1_Paradigm,2021.1.4,59.99530383357985,
Y,left,Pretarget,0,51,51,51,2263.2392799009103,2265.2392356301425,left,1,4,1.007348624523729,B02R06,2022-11-04_14h40.05.354,t1_Paradigm,2021.1.4,59.99530383357985,
H,left,Distractor,0,52,52,52,2266.739124953281,2268.739974117605,left,1,4,0.9310203895438462,B02R06,2022-11-04_14h40.05.354,t1_Paradigm,2021.1.4,59.99530383357985,
S,left,Distractor,0,53,53,53,2270.239185584942,2272.2520735074067,left,1,4,0.6189381948206574,B02R06,2022-11-04_14h40.05.354,t1_Paradigm,2021.1.4,59.99530383357985,
Q,left,Distractor,0,54,54,54,2273.73916216637,2275.740969888866,left,1,4,0.6657949391519651,B02R06,2022-11-04_14h40.05.354,t1_Paradigm,2021.1.4,59.99530383357985,
Y,right,Target,0,55,55,55,2277.239238517359,2279.2397100970848,left,0,4,0.7511043628910556,B02R06,2022-11-04_14h40.05.354,t1_Paradigm,2021.1.4,59.99530383357985,
R,left,Distractor,0,56,56,56,2280.7391124418937,2282.739153504721,left,1,4,1.1077723405323923,B02R06,2022-11-04_14h40.05.354,t1_Paradigm,2021.1.4,59.99530383357985,
H,left,Pretarget,0,57,57,57,2284.2392041914864,2286.241288766614,left,1,4,0.9014340515714139,B02R06,2022-11-04_14h40.05.354,t1_Paradigm,2021.1.4,59.99530383357985,
J,left,Distractor,0,58,58,58,2287.7392696351744,2289.7394518511137,left,1,4,0.6354004995664582,B02R06,2022-11-04_14h40.05.354,t1_Paradigm,2021.1.4,59.99530383357985,
V,left,Distractor,0,59,59,59,2291.2391932841856,2293.2409121444216,left,1,4,0.5421111119212583,B02R06,2022-11-04_14h40.05.354,t1_Paradigm,2021.1.4,59.99530383357985,
Y,left,Lure,0,60,60,60,2294.739253595122,2296.7521639737533,right,0,4,0.6627877358114347,B02R06,2022-11-04_14h40.05.354,t1_Paradigm,2021.1.4,59.99530383357985,
H,right,Target,0,61,61,61,2298.2391044219257,2300.239912202698,right,1,4,0.6470751466695219,B02R06,2022-11-04_14h40.05.354,t1_Paradigm,2021.1.4,59.99530383357985,
L,left,Distractor,0,62,62,62,2301.739230818115,2303.7399689848535,left,1,4,0.5868957923958078,B02R06,2022-11-04_14h40.05.354,t1_Paradigm,2021.1.4,59.99530383357985,
P,left,Distractor,0,63,63,63,2305.2392847129377,2307.2405072915135,left,1,4,0.6224554742220789,B02R06,2022-11-04_14h40.05.354,t1_Paradigm,2021.1.4,59.99530383357985,
