Letter,CorrAnswer,Stimulus,nback_run.thisRepN,nback_run.thisTrialN,nback_run.thisN,nback_run.thisIndex,fixcross.started,nback_trial.started,trial_resp.keys,trial_resp.corr,currentlevel,trial_resp.rt,Participant,date,expName,psychopyVersion,frameRate,
H,left,Distractor,0,0,0,0,103.34533335814194,105.29738405255011,None,0,1,,B03E01,2022-08-23_09h08.50.191,t1_Paradigm,2021.1.4,59.940851158681774,
Q,left,Pretarget,0,1,1,1,106.7969942781765,108.79671165165519,left,1,1,0.4615396953918207,B03E01,2022-08-23_09h08.50.191,t1_Paradigm,2021.1.4,59.940851158681774,
Q,right,Target,0,2,2,2,110.29699491978045,112.297170398449,right,1,1,0.7369831399328177,B03E01,2022-08-23_09h08.50.191,t1_Paradigm,2021.1.4,59.940851158681774,
T,left,Distractor,0,3,3,3,113.7971325438184,115.79704560648906,left,1,1,0.6771096257270983,B03E01,2022-08-23_09h08.50.191,t1_Paradigm,2021.1.4,59.940851158681774,
Q,left,Lure,0,4,4,4,117.29703213280663,119.29677324563045,left,1,1,0.585428277023766,B03E01,2022-08-23_09h08.50.191,t1_Paradigm,2021.1.4,59.940851158681774,
L,left,Distractor,0,5,5,5,120.7968534461188,122.79707223305104,left,1,1,0.5090706752366714,B03E01,2022-08-23_09h08.50.191,t1_Paradigm,2021.1.4,59.940851158681774,
V,left,Pretarget,0,6,6,6,124.2969528947242,126.29721242350479,left,1,1,0.46525554441996064,B03E01,2022-08-23_09h08.50.191,t1_Paradigm,2021.1.4,59.940851158681774,
V,right,Target,0,7,7,7,127.79716109519222,129.79697021802986,right,1,1,0.7091753849945235,B03E01,2022-08-23_09h08.50.191,t1_Paradigm,2021.1.4,59.940851158681774,
K,left,Distractor,0,8,8,8,131.29712676938334,133.29690220801558,left,1,1,0.9052549926409483,B03E01,2022-08-23_09h08.50.191,t1_Paradigm,2021.1.4,59.940851158681774,
G,left,Pretarget,0,9,9,9,134.7972489949275,136.79751846856834,left,1,1,0.5566122415457357,B03E01,2022-08-23_09h08.50.191,t1_Paradigm,2021.1.4,59.940851158681774,
G,right,Target,0,10,10,10,138.296707160428,140.29702090473847,right,1,1,0.6731506088176502,B03E01,2022-08-23_09h08.50.191,t1_Paradigm,2021.1.4,59.940851158681774,
G,right,Target,0,11,11,11,141.79711682452262,143.7970039022348,right,1,1,0.709142983997026,B03E01,2022-08-23_09h08.50.191,t1_Paradigm,2021.1.4,59.940851158681774,
P,left,Pretarget,0,12,12,12,145.2971720024584,147.29717296486433,left,1,1,0.633260489903023,B03E01,2022-08-23_09h08.50.191,t1_Paradigm,2021.1.4,59.940851158681774,
P,right,Target,0,13,13,13,148.7972124235048,150.79690220801558,right,1,1,0.9732518539144621,B03E01,2022-08-23_09h08.50.191,t1_Paradigm,2021.1.4,59.940851158681774,
G,left,Lure,0,14,14,14,152.29709757640558,154.29704785210242,left,1,1,0.6250492430999657,B03E01,2022-08-23_09h08.50.191,t1_Paradigm,2021.1.4,59.940851158681774,
Y,left,Distractor,0,15,15,15,155.79701063907578,157.79723295482972,left,1,1,0.42094702019903707,B03E01,2022-08-23_09h08.50.191,t1_Paradigm,2021.1.4,59.940851158681774,
B,left,Distractor,0,16,16,16,159.2969917117607,161.29687173182992,left,1,1,0.7135841662420717,B03E01,2022-08-23_09h08.50.191,t1_Paradigm,2021.1.4,59.940851158681774,
T,left,Pretarget,0,17,17,17,162.79711361650288,164.7975165437565,left,1,1,0.7649766392019046,B03E01,2022-08-23_09h08.50.191,t1_Paradigm,2021.1.4,59.940851158681774,
T,right,Target,0,18,18,18,166.29705009771624,168.29701192228367,right,1,1,0.5133488900892189,B03E01,2022-08-23_09h08.50.191,t1_Paradigm,2021.1.4,59.940851158681774,
S,left,Distractor,0,19,19,19,169.79681879950795,171.79694359146788,left,1,1,0.5011969120887443,B03E01,2022-08-23_09h08.50.191,t1_Paradigm,2021.1.4,59.940851158681774,
T,left,Lure,0,20,20,20,173.2967594511465,175.28023141369704,left,1,1,0.5058572020680003,B03E01,2022-08-23_09h08.50.191,t1_Paradigm,2021.1.4,59.940851158681774,
J,left,Distractor,0,21,21,21,176.78022146883677,178.780101168104,left,1,1,0.7021110051750838,B03E01,2022-08-23_09h08.50.191,t1_Paradigm,2021.1.4,59.940851158681774,
P,left,Distractor,0,22,22,22,180.28009443126302,182.2803683961315,left,1,1,0.4336668176574676,B03E01,2022-08-23_09h08.50.191,t1_Paradigm,2021.1.4,59.940851158681774,
F,left,Distractor,0,23,23,23,183.7802785715844,185.78024039615184,left,1,1,0.5338144507163634,B03E01,2022-08-23_09h08.50.191,t1_Paradigm,2021.1.4,59.940851158681774,
L,left,Distractor,0,24,24,24,187.28036647131967,189.2800738999381,left,1,1,0.5540567331840975,B03E01,2022-08-23_09h08.50.191,t1_Paradigm,2021.1.4,59.940851158681774,
W,left,Pretarget,0,25,25,25,190.78032989989697,192.780244887379,left,1,1,0.47790251983497,B03E01,2022-08-23_09h08.50.191,t1_Paradigm,2021.1.4,59.940851158681774,
W,right,Target,0,26,26,26,194.28035620565697,196.28022467685605,right,1,1,0.6419170098174618,B03E01,2022-08-23_09h08.50.191,t1_Paradigm,2021.1.4,59.940851158681774,
V,left,Distractor,0,27,27,27,197.78046207030184,199.78012041622105,left,1,1,0.6143299666236999,B03E01,2022-08-23_09h08.50.191,t1_Paradigm,2021.1.4,59.940851158681774,
W,left,Lure,0,28,28,28,201.28048003521099,203.2804434637883,left,1,1,0.9696999346847406,B03E01,2022-08-23_09h08.50.191,t1_Paradigm,2021.1.4,59.940851158681774,
R,left,Pretarget,0,29,29,29,204.78031097258145,206.780114320984,left,1,1,0.7019916668482438,B03E01,2022-08-23_09h08.50.191,t1_Paradigm,2021.1.4,59.940851158681774,
R,right,Target,0,30,30,30,208.28034080716316,210.28075335847552,right,1,1,0.593340536406231,B03E01,2022-08-23_09h08.50.191,t1_Paradigm,2021.1.4,59.940851158681774,
G,left,Distractor,0,31,31,31,211.7805435539981,213.78030776456217,left,1,1,0.6618984802971681,B03E01,2022-08-23_09h08.50.191,t1_Paradigm,2021.1.4,59.940851158681774,
R,left,Lure,0,32,32,32,215.28022563926197,217.28035877207276,left,1,1,1.0177554257234078,B03E01,2022-08-23_09h08.50.191,t1_Paradigm,2021.1.4,59.940851158681774,
S,left,Distractor,0,33,33,33,218.7805069825754,220.78047329837,left,1,1,0.9256679417476334,B03E01,2022-08-23_09h08.50.191,t1_Paradigm,2021.1.4,59.940851158681774,
R,left,Lure,0,34,34,34,222.28035524325105,224.28025162422045,left,1,1,1.2504613132091436,B03E01,2022-08-23_09h08.50.191,t1_Paradigm,2021.1.4,59.940851158681774,
P,left,Pretarget,0,35,35,35,225.78045148383717,227.78056536853092,left,1,1,0.6137541271173177,B03E01,2022-08-23_09h08.50.191,t1_Paradigm,2021.1.4,59.940851158681774,
P,right,Target,0,36,36,36,229.2804325565221,231.28044603020408,right,1,1,0.6498417804768906,B03E01,2022-08-23_09h08.50.191,t1_Paradigm,2021.1.4,59.940851158681774,
Y,left,Pretarget,0,37,37,37,232.78032572947131,234.78029204526638,left,1,1,0.4461296527515515,B03E01,2022-08-23_09h08.50.191,t1_Paradigm,2021.1.4,59.940851158681774,
Y,right,Target,0,38,38,38,236.28035524325105,238.2803905314663,right,1,1,0.5300790327692084,B03E01,2022-08-23_09h08.50.191,t1_Paradigm,2021.1.4,59.940851158681774,
J,left,Distractor,0,39,39,39,239.7804392933631,241.78041779963223,left,1,1,0.4537384334857961,B03E01,2022-08-23_09h08.50.191,t1_Paradigm,2021.1.4,59.940851158681774,
Y,left,Lure,0,40,40,40,243.28023045129112,245.28035363924164,left,1,1,0.4417458940556571,B03E01,2022-08-23_09h08.50.191,t1_Paradigm,2021.1.4,59.940851158681774,
T,left,Distractor,0,41,41,41,246.78042646128506,248.78038924825842,left,1,1,0.46191022164885,B03E01,2022-08-23_09h08.50.191,t1_Paradigm,2021.1.4,59.940851158681774,
V,left,Distractor,0,42,42,42,250.28033022069894,252.28046880714282,left,1,1,0.4017001861934659,B03E01,2022-08-23_09h08.50.191,t1_Paradigm,2021.1.4,59.940851158681774,
N,left,Pretarget,0,43,43,43,253.78009763928276,255.78028851644513,left,1,1,0.5018548768953224,B03E01,2022-08-23_09h08.50.191,t1_Paradigm,2021.1.4,59.940851158681774,
N,right,Target,0,44,44,44,257.28033407032217,259.2800501605934,right,1,1,0.49006412189464754,B03E01,2022-08-23_09h08.50.191,t1_Paradigm,2021.1.4,59.940851158681774,
N,right,Target,0,45,45,45,260.78064813543506,262.7805397043744,right,1,1,0.5736054418275671,B03E01,2022-08-23_09h08.50.191,t1_Paradigm,2021.1.4,59.940851158681774,
X,left,Distractor,0,46,46,46,264.28072961913085,266.2799045165066,left,1,1,0.5782464836897816,B03E01,2022-08-23_09h08.50.191,t1_Paradigm,2021.1.4,59.940851158681774,
Z,left,Distractor,0,47,47,47,267.78020510793704,269.7803581304688,left,1,1,0.8057309985792926,B03E01,2022-08-23_09h08.50.191,t1_Paradigm,2021.1.4,59.940851158681774,
H,left,Pretarget,0,48,48,48,271.28034561919276,273.2801194538156,left,1,1,0.5060243398856983,B03E01,2022-08-23_09h08.50.191,t1_Paradigm,2021.1.4,59.940851158681774,
H,right,Target,0,49,49,49,274.7798920052305,276.7804364061453,right,1,1,0.5897161159350617,B03E01,2022-08-23_09h08.50.191,t1_Paradigm,2021.1.4,59.940851158681774,
K,left,Distractor,0,50,50,50,278.2803735289626,280.28030776456217,left,1,1,0.4981711080627065,B03E01,2022-08-23_09h08.50.191,t1_Paradigm,2021.1.4,59.940851158681774,
V,left,Pretarget,0,51,51,51,281.7803671129236,283.78007999517513,left,1,1,0.48605570148492916,B03E01,2022-08-23_09h08.50.191,t1_Paradigm,2021.1.4,59.940851158681774,
V,right,Target,0,52,52,52,285.28030808536414,287.28043095251223,left,0,1,0.825639647015123,B03E01,2022-08-23_09h08.50.191,t1_Paradigm,2021.1.4,59.940851158681774,
R,left,Distractor,0,53,53,53,288.78046078709394,290.7801233034388,left,1,1,0.4623028832397722,B03E01,2022-08-23_09h08.50.191,t1_Paradigm,2021.1.4,59.940851158681774,
V,left,Lure,0,54,54,54,292.28027536356467,294.2803504312219,left,1,1,0.401781669889715,B03E01,2022-08-23_09h08.50.191,t1_Paradigm,2021.1.4,59.940851158681774,
Y,left,Distractor,0,55,55,55,295.78050762417934,297.78063466175263,left,1,1,0.5173714257848587,B03E01,2022-08-23_09h08.50.191,t1_Paradigm,2021.1.4,59.940851158681774,
Q,left,Distractor,0,56,56,56,299.28005978465217,301.28034305277697,left,1,1,0.441787919111448,B03E01,2022-08-23_09h08.50.191,t1_Paradigm,2021.1.4,59.940851158681774,
Z,left,Pretarget,0,57,57,57,302.78021409039184,304.7803414487671,left,1,1,0.5896965470160467,B03E01,2022-08-23_09h08.50.191,t1_Paradigm,2021.1.4,59.940851158681774,
Z,right,Target,0,58,58,58,306.28022050643085,308.2802894788506,right,1,1,0.6418480373977218,B03E01,2022-08-23_09h08.50.191,t1_Paradigm,2021.1.4,59.940851158681774,
B,left,Distractor,0,59,59,59,309.7803844362288,311.7802644562985,left,1,1,0.40586515795666855,B03E01,2022-08-23_09h08.50.191,t1_Paradigm,2021.1.4,59.940851158681774,
S,left,Pretarget,0,60,60,60,313.28057691740105,315.28023237610296,left,1,1,0.4419123902694082,B03E01,2022-08-23_09h08.50.191,t1_Paradigm,2021.1.4,59.940851158681774,
S,right,Target,0,61,61,61,316.77987596513276,318.7803337495202,right,1,1,0.47778318150812993,B03E01,2022-08-23_09h08.50.191,t1_Paradigm,2021.1.4,59.940851158681774,
T,left,Distractor,0,62,62,62,320.2801733485435,322.28042517807717,left,1,1,0.4336026572668743,B03E01,2022-08-23_09h08.50.191,t1_Paradigm,2021.1.4,59.940851158681774,
D,left,Distractor,0,63,63,63,323.7803529976377,325.7798612082429,left,1,1,0.7422895250460897,B03E01,2022-08-23_09h08.50.191,t1_Paradigm,2021.1.4,59.940851158681774,
R,left,Distractor,0,0,0,0,337.48341550140685,339.49695077743127,None,0,1,,B03E01,2022-08-23_09h08.50.191,t1_Paradigm,2021.1.4,59.940851158681774,
V,left,Distractor,0,1,1,1,340.9968901458624,342.99681283259133,left,1,1,0.533625177563863,B03E01,2022-08-23_09h08.50.191,t1_Paradigm,2021.1.4,59.940851158681774,
N,left,Pretarget,0,2,2,2,344.49719169969876,346.49710476236896,left,1,1,0.5050138137321483,B03E01,2022-08-23_09h08.50.191,t1_Paradigm,2021.1.4,59.940851158681774,
N,right,Target,0,3,3,3,347.9969944064969,349.99693473733396,right,1,1,0.49322819156259357,B03E01,2022-08-23_09h08.50.191,t1_Paradigm,2021.1.4,59.940851158681774,
S,left,Distractor,0,4,4,4,351.49706530372896,353.4967566922496,left,1,1,0.41736494558517734,B03E01,2022-08-23_09h08.50.191,t1_Paradigm,2021.1.4,59.940851158681774,
N,left,Lure,0,5,5,5,354.99699536890284,356.99694660700607,left,1,1,0.5333749520400488,B03E01,2022-08-23_09h08.50.191,t1_Paradigm,2021.1.4,59.940851158681774,
Z,left,Distractor,0,6,6,6,358.49724142400146,360.4969915192796,left,1,1,0.6170211742123684,B03E01,2022-08-23_09h08.50.191,t1_Paradigm,2021.1.4,59.940851158681774,
L,left,Pretarget,0,7,7,7,361.99697034635074,363.99688469222883,left,1,1,0.6852528625158811,B03E01,2022-08-23_09h08.50.191,t1_Paradigm,2021.1.4,59.940851158681774,
L,right,Target,0,8,8,8,365.4969626471038,367.4969446821942,right,1,1,0.7692522876386647,B03E01,2022-08-23_09h08.50.191,t1_Paradigm,2021.1.4,59.940851158681774,
H,left,Distractor,0,9,9,9,368.9969421157789,370.996823419056,left,1,1,0.4373072782263989,B03E01,2022-08-23_09h08.50.191,t1_Paradigm,2021.1.4,59.940851158681774,
L,left,Lure,0,10,10,10,372.4967464265869,374.4969956897048,left,1,1,0.8251417623832822,B03E01,2022-08-23_09h08.50.191,t1_Paradigm,2021.1.4,59.940851158681774,
X,left,Pretarget,0,11,11,11,375.9971102160025,377.99670825115436,left,1,1,0.5413808855928437,B03E01,2022-08-23_09h08.50.191,t1_Paradigm,2021.1.4,59.940851158681774,
X,right,Target,0,12,12,12,379.49748940391146,381.4970008225364,right,1,1,0.8493693675195573,B03E01,2022-08-23_09h08.50.191,t1_Paradigm,2021.1.4,59.940851158681774,
X,right,Target,0,13,13,13,382.9970964215181,384.9968952786935,right,1,1,0.5011433381623647,B03E01,2022-08-23_09h08.50.191,t1_Paradigm,2021.1.4,59.940851158681774,
R,left,Distractor,0,14,14,14,386.49699248168554,388.4968243814619,left,1,1,0.5533272295415372,B03E01,2022-08-23_09h08.50.191,t1_Paradigm,2021.1.4,59.940851158681774,
T,left,Distractor,0,15,15,15,389.9971721307793,391.9969315293142,left,1,1,0.4612394247633347,B03E01,2022-08-23_09h08.50.191,t1_Paradigm,2021.1.4,59.940851158681774,
V,left,Pretarget,0,16,16,16,393.4969661759251,395.49690137393054,left,1,1,0.6251711478421385,B03E01,2022-08-23_09h08.50.191,t1_Paradigm,2021.1.4,59.940851158681774,
V,right,Target,0,17,17,17,396.9968186070264,398.9971166320415,right,1,1,0.6454650794239569,B03E01,2022-08-23_09h08.50.191,t1_Paradigm,2021.1.4,59.940851158681774,
N,left,Distractor,0,18,18,18,400.4967666371099,402.4971211232687,left,1,1,0.45696217231670744,B03E01,2022-08-23_09h08.50.191,t1_Paradigm,2021.1.4,59.940851158681774,
B,left,Distractor,0,19,19,19,403.9970428475922,405.9964721409169,left,1,1,0.5096314370516666,B03E01,2022-08-23_09h08.50.191,t1_Paradigm,2021.1.4,59.940851158681774,
V,left,Lure,0,20,20,20,407.4968795593977,409.4971310681294,left,1,1,0.5929953535046479,B03E01,2022-08-23_09h08.50.191,t1_Paradigm,2021.1.4,59.940851158681774,
P,left,Distractor,0,21,21,21,410.9971025167556,412.9968105869775,left,1,1,0.6612530267666443,B03E01,2022-08-23_09h08.50.191,t1_Paradigm,2021.1.4,59.940851158681774,
K,left,Pretarget,0,22,22,22,414.49689046666435,416.49706562453093,left,1,1,0.5210410793320079,B03E01,2022-08-23_09h08.50.191,t1_Paradigm,2021.1.4,59.940851158681774,
K,right,Target,0,23,23,23,417.9969032987424,419.99653116847594,right,1,1,0.4457414823873478,B03E01,2022-08-23_09h08.50.191,t1_Paradigm,2021.1.4,59.940851158681774,
J,left,Pretarget,0,24,24,24,421.4967002311055,423.49709032628107,left,1,1,0.40149711855701753,B03E01,2022-08-23_09h08.50.191,t1_Paradigm,2021.1.4,59.940851158681774,
J,right,Target,0,25,25,25,424.99711759444745,426.99692479247324,right,1,1,0.693169292323546,B03E01,2022-08-23_09h08.50.191,t1_Paradigm,2021.1.4,59.940851158681774,
H,left,Distractor,0,26,26,26,428.4970758901932,430.4982044714661,left,1,1,0.4077665511354098,B03E01,2022-08-23_09h08.50.191,t1_Paradigm,2021.1.4,59.940851158681774,
J,left,Lure,0,27,27,27,431.9969530230451,433.9969883112599,left,1,1,0.46116948993767437,B03E01,2022-08-23_09h08.50.191,t1_Paradigm,2021.1.4,59.940851158681774,
V,left,Distractor,0,28,28,28,435.49700531376357,437.4967502762106,left,1,1,0.5456850854043296,B03E01,2022-08-23_09h08.50.191,t1_Paradigm,2021.1.4,59.940851158681774,
Z,left,Pretarget,0,29,29,29,438.9975997597835,440.99706819094627,left,1,1,0.6609784202942137,B03E01,2022-08-23_09h08.50.191,t1_Paradigm,2021.1.4,59.940851158681774,
Z,right,Target,0,30,30,30,442.49712593529784,444.4968532536377,right,1,1,0.47323838023248754,B03E01,2022-08-23_09h08.50.191,t1_Paradigm,2021.1.4,59.940851158681774,
T,left,Distractor,0,31,31,31,445.997064982927,447.9971628275225,left,1,1,0.49295679310989726,B03E01,2022-08-23_09h08.50.191,t1_Paradigm,2021.1.4,59.940851158681774,
Z,left,Lure,0,32,32,32,449.4970268074944,451.49678267720765,left,1,1,0.881660329758688,B03E01,2022-08-23_09h08.50.191,t1_Paradigm,2021.1.4,59.940851158681774,
F,left,Distractor,0,33,33,33,452.99692222605745,454.99685582005304,left,1,1,0.6613492673527617,B03E01,2022-08-23_09h08.50.191,t1_Paradigm,2021.1.4,59.940851158681774,
Y,left,Pretarget,0,34,34,34,456.4969032987424,458.4969373037493,left,1,1,0.5051710066891246,B03E01,2022-08-23_09h08.50.191,t1_Paradigm,2021.1.4,59.940851158681774,
Y,right,Target,0,35,35,35,459.9967441809731,461.99710091274574,right,1,1,0.6210286322157117,B03E01,2022-08-23_09h08.50.191,t1_Paradigm,2021.1.4,59.940851158681774,
Y,right,Target,0,36,36,36,463.49687763458587,465.4969164516224,right,1,1,0.5612077295304516,B03E01,2022-08-23_09h08.50.191,t1_Paradigm,2021.1.4,59.940851158681774,
W,left,Distractor,0,37,37,37,466.9968651233098,468.9970389979685,left,1,1,0.5973762249823267,B03E01,2022-08-23_09h08.50.191,t1_Paradigm,2021.1.4,59.940851158681774,
Q,left,Distractor,0,38,38,38,470.4968612736866,472.4969488526199,left,1,1,0.5692120590738341,B03E01,2022-08-23_09h08.50.191,t1_Paradigm,2021.1.4,59.940851158681774,
P,left,Pretarget,0,39,39,39,473.9968109077795,475.9967412937558,left,1,1,0.4933289233758842,B03E01,2022-08-23_09h08.50.191,t1_Paradigm,2021.1.4,59.940851158681774,
P,right,Target,0,40,40,40,477.4966043113218,479.49691581001844,right,1,1,0.6891926313073782,B03E01,2022-08-23_09h08.50.191,t1_Paradigm,2021.1.4,59.940851158681774,
J,left,Distractor,0,41,41,41,480.9968247022639,482.9969228676614,left,1,1,0.5815600470682512,B03E01,2022-08-23_09h08.50.191,t1_Paradigm,2021.1.4,59.940851158681774,
P,left,Lure,0,42,42,42,484.49661040655883,486.49682566466936,left,1,1,0.7613438778798809,B03E01,2022-08-23_09h08.50.191,t1_Paradigm,2021.1.4,59.940851158681774,
L,left,Distractor,0,43,43,43,487.9965481709796,489.9967913388605,left,1,1,0.5893333992044063,B03E01,2022-08-23_09h08.50.191,t1_Paradigm,2021.1.4,59.940851158681774,
Z,left,Distractor,0,44,44,44,491.49685806566686,493.4970037097537,left,1,1,0.481437436561464,B03E01,2022-08-23_09h08.50.191,t1_Paradigm,2021.1.4,59.940851158681774,
F,left,Pretarget,0,45,45,45,494.99687153934883,496.9971236896845,left,1,1,0.9170800734505065,B03E01,2022-08-23_09h08.50.191,t1_Paradigm,2021.1.4,59.940851158681774,
F,right,Target,0,46,46,46,498.4970005017344,500.49677209074343,right,1,1,0.6493727680203847,B03E01,2022-08-23_09h08.50.191,t1_Paradigm,2021.1.4,59.940851158681774,
G,left,Pretarget,0,47,47,47,501.99686351929995,503.9971548074741,left,1,1,0.4131216981459147,B03E01,2022-08-23_09h08.50.191,t1_Paradigm,2021.1.4,59.940851158681774,
G,right,Target,0,48,48,48,505.49710508317094,507.4970232786727,right,1,1,0.65704314272989,B03E01,2022-08-23_09h08.50.191,t1_Paradigm,2021.1.4,59.940851158681774,
V,left,Distractor,0,49,49,49,508.9970194290495,510.99681251178936,left,1,1,0.5336704106393881,B03E01,2022-08-23_09h08.50.191,t1_Paradigm,2021.1.4,59.940851158681774,
G,left,Lure,0,50,50,50,512.4969494942238,514.4968840506249,left,1,1,0.8572136168882025,B03E01,2022-08-23_09h08.50.191,t1_Paradigm,2021.1.4,59.940851158681774,
Q,left,Pretarget,0,51,51,51,515.9969167724244,517.9970768525991,left,1,1,0.7492698547534928,B03E01,2022-08-23_09h08.50.191,t1_Paradigm,2021.1.4,59.940851158681774,
Q,right,Target,0,52,52,52,519.4970300155142,521.4969812536169,right,1,1,0.48153624356336877,B03E01,2022-08-23_09h08.50.191,t1_Paradigm,2021.1.4,59.940851158681774,
Y,left,Distractor,0,53,53,53,522.9967913388605,524.9971086119926,left,1,1,0.43697588980830915,B03E01,2022-08-23_09h08.50.191,t1_Paradigm,2021.1.4,59.940851158681774,
V,left,Distractor,0,54,54,54,526.4970040305557,528.4971657147403,left,1,1,0.4087892677630407,B03E01,2022-08-23_09h08.50.191,t1_Paradigm,2021.1.4,59.940851158681774,
B,left,Distractor,0,55,55,55,529.9970742861838,531.9968846922288,left,1,1,0.4295002418848526,B03E01,2022-08-23_09h08.50.191,t1_Paradigm,2021.1.4,59.940851158681774,
J,left,Pretarget,0,56,56,56,533.4968131533933,535.4971339553467,left,1,1,0.46522025620515706,B03E01,2022-08-23_09h08.50.191,t1_Paradigm,2021.1.4,59.940851158681774,
J,right,Target,0,57,57,57,536.9969161308204,538.997188491679,right,1,1,0.4528751554285009,B03E01,2022-08-23_09h08.50.191,t1_Paradigm,2021.1.4,59.940851158681774,
H,left,Distractor,0,58,58,58,540.4967669579119,542.4971227272786,left,1,1,0.39292625276357285,B03E01,2022-08-23_09h08.50.191,t1_Paradigm,2021.1.4,59.940851158681774,
J,left,Lure,0,59,59,59,543.9970595292939,545.9969206220476,left,1,1,0.5091030762341688,B03E01,2022-08-23_09h08.50.191,t1_Paradigm,2021.1.4,59.940851158681774,
D,left,Pretarget,0,60,60,60,547.4968898250604,549.497175338799,left,1,1,0.4652244266303569,B03E01,2022-08-23_09h08.50.191,t1_Paradigm,2021.1.4,59.940851158681774,
D,right,Target,0,61,61,61,550.996835930332,552.9967538050319,right,1,1,0.5173412704011753,B03E01,2022-08-23_09h08.50.191,t1_Paradigm,2021.1.4,59.940851158681774,
R,left,Distractor,0,62,62,62,554.4970110881986,556.4968442711829,left,1,1,0.6494144722746569,B03E01,2022-08-23_09h08.50.191,t1_Paradigm,2021.1.4,59.940851158681774,
F,left,Distractor,0,63,63,63,557.9969392285611,559.9966694341183,left,1,1,0.4137074825130185,B03E01,2022-08-23_09h08.50.191,t1_Paradigm,2021.1.4,59.940851158681774,
F,left,Distractor,0,0,0,0,629.2569966906071,631.2634707948318,left,1,2,0.4745604050831389,B03E01,2022-08-23_09h08.50.191,t1_Paradigm,2021.1.4,59.940851158681774,
N,left,Pretarget,0,1,1,1,632.7637457221058,634.7630996269713,left,1,2,0.5429672512532306,B03E01,2022-08-23_09h08.50.191,t1_Paradigm,2021.1.4,59.940851158681774,
V,left,Distractor,0,2,2,2,636.2636632760036,638.2635519577261,left,1,2,0.5148454312029571,B03E01,2022-08-23_09h08.50.191,t1_Paradigm,2021.1.4,59.940851158681774,
N,right,Target,0,3,3,3,639.763579867496,641.7634217121326,right,1,2,0.5669119090666754,B03E01,2022-08-23_09h08.50.191,t1_Paradigm,2021.1.4,59.940851158681774,
N,left,Lure,0,4,4,4,643.2633196971115,645.2636635968056,left,1,2,0.6184708782402595,B03E01,2022-08-23_09h08.50.191,t1_Paradigm,2021.1.4,59.940851158681774,
X,left,Distractor,0,5,5,5,646.763612268493,648.763462774783,left,1,2,0.4149512316871551,B03E01,2022-08-23_09h08.50.191,t1_Paradigm,2021.1.4,59.940851158681774,
G,left,Pretarget,0,6,6,6,650.2634964589879,652.2639962684316,left,1,2,0.9942675898919333,B03E01,2022-08-23_09h08.50.191,t1_Paradigm,2021.1.4,59.940851158681774,
H,left,Pretarget,0,7,7,7,653.7638509451467,655.7804174788303,left,1,2,0.6457887685951391,B03E01,2022-08-23_09h08.50.191,t1_Paradigm,2021.1.4,59.940851158681774,
G,right,Target,0,8,8,8,657.2634977421958,659.2634310153894,right,1,2,0.4587827234031465,B03E01,2022-08-23_09h08.50.191,t1_Paradigm,2021.1.4,59.940851158681774,
H,right,Target,0,9,9,9,660.7637242283749,662.7639378824761,right,1,2,0.7340696165902045,B03E01,2022-08-23_09h08.50.191,t1_Paradigm,2021.1.4,59.940851158681774,
T,left,Pretarget,0,10,10,10,664.263723907573,666.2630335417689,left,1,2,0.49936898255737106,B03E01,2022-08-23_09h08.50.191,t1_Paradigm,2021.1.4,59.940851158681774,
K,left,Distractor,0,11,11,11,667.7635166695109,669.7638458123156,left,1,2,0.42232037336225403,B03E01,2022-08-23_09h08.50.191,t1_Paradigm,2021.1.4,59.940851158681774,
T,right,Target,0,12,12,12,671.2635259727676,673.2485794889494,right,1,2,0.6655896275747182,B03E01,2022-08-23_09h08.50.191,t1_Paradigm,2021.1.4,59.940851158681774,
T,left,Lure,0,13,13,13,674.7636555767572,676.7634582835553,left,1,2,0.44683188822773445,B03E01,2022-08-23_09h08.50.191,t1_Paradigm,2021.1.4,59.940851158681774,
J,left,Distractor,0,14,14,14,678.2637126795048,680.2641014914725,left,1,2,0.4982464965219151,B03E01,2022-08-23_09h08.50.191,t1_Paradigm,2021.1.4,59.940851158681774,
Q,left,Pretarget,0,15,15,15,681.7637668950347,683.7640081381041,left,1,2,0.5500415759329371,B03E01,2022-08-23_09h08.50.191,t1_Paradigm,2021.1.4,59.940851158681774,
M,left,Distractor,0,16,16,16,685.2636052108501,687.2639099727062,left,1,2,0.7628429854089518,B03E01,2022-08-23_09h08.50.191,t1_Paradigm,2021.1.4,59.940851158681774,
Q,right,Target,0,17,17,17,688.7633639677811,690.7486426869345,right,1,2,0.44569945733110217,B03E01,2022-08-23_09h08.50.191,t1_Paradigm,2021.1.4,59.940851158681774,
R,left,Distractor,0,18,18,18,692.2468609528846,694.2469745167759,left,1,2,0.8191077984388357,B03E01,2022-08-23_09h08.50.191,t1_Paradigm,2021.1.4,59.940851158681774,
W,left,Distractor,0,19,19,19,695.7470527924525,697.7473113588271,left,1,2,0.4547919471010573,B03E01,2022-08-23_09h08.50.191,t1_Paradigm,2021.1.4,59.940851158681774,
C,left,Pretarget,0,20,20,20,699.2470396395724,701.2489872282326,left,1,2,0.6976797677907598,B03E01,2022-08-23_09h08.50.191,t1_Paradigm,2021.1.4,59.940851158681774,
T,left,Distractor,0,21,21,21,702.7639879275807,704.7639362784662,left,1,2,0.5105008103455475,B03E01,2022-08-23_09h08.50.191,t1_Paradigm,2021.1.4,59.940851158681774,
C,right,Target,0,22,22,22,706.2473283613308,708.2469167724244,right,1,2,0.6272653429950878,B03E01,2022-08-23_09h08.50.191,t1_Paradigm,2021.1.4,59.940851158681774,
F,left,Pretarget,0,23,23,23,709.7470123714065,711.7473877096922,left,1,2,0.5027085308938695,B03E01,2022-08-23_09h08.50.191,t1_Paradigm,2021.1.4,59.940851158681774,
C,right,Target,0,24,24,24,713.24697355437,715.2472982059471,right,1,2,0.44290912193946497,B03E01,2022-08-23_09h08.50.191,t1_Paradigm,2021.1.4,59.940851158681774,
F,right,Target,0,25,25,25,716.7468214942442,718.7476809226778,right,1,2,0.44654573288516985,B03E01,2022-08-23_09h08.50.191,t1_Paradigm,2021.1.4,59.940851158681774,
H,left,Distractor,0,26,26,26,720.2469895944678,722.2482837095486,left,1,2,0.4498345945125948,B03E01,2022-08-23_09h08.50.191,t1_Paradigm,2021.1.4,59.940851158681774,
H,left,Lure,0,27,27,27,723.7634861933257,725.7635474664985,left,1,2,0.6307223048465858,B03E01,2022-08-23_09h08.50.191,t1_Paradigm,2021.1.4,59.940851158681774,
P,left,Distractor,0,28,28,28,727.263489080543,729.2635282183815,left,1,2,0.9385343456988267,B03E01,2022-08-23_09h08.50.191,t1_Paradigm,2021.1.4,59.940851158681774,
G,left,Pretarget,0,29,29,29,730.7636350454318,732.7489060653384,left,1,2,0.5413850560184983,B03E01,2022-08-23_09h08.50.191,t1_Paradigm,2021.1.4,59.940851158681774,
K,left,Distractor,0,30,30,30,734.2636879777542,736.2639141431314,left,1,2,0.562259318334327,B03E01,2022-08-23_09h08.50.191,t1_Paradigm,2021.1.4,59.940851158681774,
G,right,Target,0,31,31,31,737.7635474664985,739.7485573536146,right,1,2,0.3896534312334552,B03E01,2022-08-23_09h08.50.191,t1_Paradigm,2021.1.4,59.940851158681774,
M,left,Pretarget,0,32,32,32,741.2635012710175,743.2634804188901,left,1,2,0.47471374841688885,B03E01,2022-08-23_09h08.50.191,t1_Paradigm,2021.1.4,59.940851158681774,
B,left,Distractor,0,33,33,33,744.7637723486682,746.7651931805203,left,1,2,0.5411008254873195,B03E01,2022-08-23_09h08.50.191,t1_Paradigm,2021.1.4,59.940851158681774,
M,right,Target,0,34,34,34,748.2472494440503,750.2472590681086,right,1,2,0.7548787561099743,B03E01,2022-08-23_09h08.50.191,t1_Paradigm,2021.1.4,59.940851158681774,
M,left,Lure,0,35,35,35,751.7469645719152,753.7472510480598,left,1,2,0.647047274659144,B03E01,2022-08-23_09h08.50.191,t1_Paradigm,2021.1.4,59.940851158681774,
T,left,Distractor,0,36,36,36,755.2467483513988,757.2468741057646,left,1,2,0.5392911816675223,B03E01,2022-08-23_09h08.50.191,t1_Paradigm,2021.1.4,59.940851158681774,
F,left,Distractor,0,37,37,37,758.7468574240629,760.7468936746836,left,1,2,0.5592550080391447,B03E01,2022-08-23_09h08.50.191,t1_Paradigm,2021.1.4,59.940851158681774,
X,left,Distractor,0,38,38,38,762.246706326343,764.247899388808,left,1,2,0.6902900947907256,B03E01,2022-08-23_09h08.50.191,t1_Paradigm,2021.1.4,59.940851158681774,
C,left,Distractor,0,39,39,39,765.7468657649138,767.7476376144141,left,1,2,0.582598803793644,B03E01,2022-08-23_09h08.50.191,t1_Paradigm,2021.1.4,59.940851158681774,
R,left,Distractor,0,40,40,40,769.2468086621661,771.248695298455,left,1,2,1.0653669268585872,B03E01,2022-08-23_09h08.50.191,t1_Paradigm,2021.1.4,59.940851158681774,
B,left,Pretarget,0,41,41,41,772.746855820053,774.7469430781844,left,1,2,0.9432716281467037,B03E01,2022-08-23_09h08.50.191,t1_Paradigm,2021.1.4,59.940851158681774,
H,left,Distractor,0,42,42,42,776.246954306253,778.246744822577,left,1,2,1.379359858949556,B03E01,2022-08-23_09h08.50.191,t1_Paradigm,2021.1.4,59.940851158681774,
B,right,Target,0,43,43,43,779.7468538952417,781.7468644817059,right,1,2,1.1593657488738245,B03E01,2022-08-23_09h08.50.191,t1_Paradigm,2021.1.4,59.940851158681774,
W,left,Pretarget,0,44,44,44,783.2470280907023,785.2466643012867,left,1,2,1.2755066425252153,B03E01,2022-08-23_09h08.50.191,t1_Paradigm,2021.1.4,59.940851158681774,
L,left,Pretarget,0,45,45,45,786.7469000907226,788.7472372535758,left,1,2,0.9271465179517691,B03E01,2022-08-23_09h08.50.191,t1_Paradigm,2021.1.4,59.940851158681774,
W,right,Target,0,46,46,46,790.2472385367837,792.2467435393696,right,1,2,0.7873686155598989,B03E01,2022-08-23_09h08.50.191,t1_Paradigm,2021.1.4,59.940851158681774,
L,right,Target,0,47,47,47,793.7469466070061,795.7477293637726,right,1,2,0.48630336059295587,B03E01,2022-08-23_09h08.50.191,t1_Paradigm,2021.1.4,59.940851158681774,
W,right,Target,0,48,48,48,797.2471384465744,799.2470110881986,right,1,2,0.3950178815007348,B03E01,2022-08-23_09h08.50.191,t1_Paradigm,2021.1.4,59.940851158681774,
X,left,Distractor,0,49,49,49,800.7470466972154,802.7467980757015,left,1,2,0.7834881951298485,B03E01,2022-08-23_09h08.50.191,t1_Paradigm,2021.1.4,59.940851158681774,
R,left,Distractor,0,50,50,50,804.2468538952417,806.2486542358047,left,1,2,0.5774842582482052,B03E01,2022-08-23_09h08.50.191,t1_Paradigm,2021.1.4,59.940851158681774,
V,left,Pretarget,0,51,51,51,807.7636414614708,809.7637694614505,left,1,2,0.5342180195739274,B03E01,2022-08-23_09h08.50.191,t1_Paradigm,2021.1.4,59.940851158681774,
Z,left,Distractor,0,52,52,52,811.2636597471824,813.2633042986176,left,1,2,0.5387830313729864,B03E01,2022-08-23_09h08.50.191,t1_Paradigm,2021.1.4,59.940851158681774,
V,right,Target,0,53,53,53,814.7637158875241,816.7643587746393,right,1,2,0.4139022092990672,B03E01,2022-08-23_09h08.50.191,t1_Paradigm,2021.1.4,59.940851158681774,
V,left,Lure,0,54,54,54,818.2638313762277,820.2637085090792,left,1,2,0.6587299194015941,B03E01,2022-08-23_09h08.50.191,t1_Paradigm,2021.1.4,59.940851158681774,
N,left,Distractor,0,55,55,55,821.7631743738266,823.7653426742309,left,1,2,0.5969550120171334,B03E01,2022-08-23_09h08.50.191,t1_Paradigm,2021.1.4,59.940851158681774,
B,left,Distractor,0,56,56,56,825.2634092008566,827.2634537923282,left,1,2,0.5067172721055613,B03E01,2022-08-23_09h08.50.191,t1_Paradigm,2021.1.4,59.940851158681774,
V,left,Lure,0,57,57,57,828.7475019151875,830.7471503162465,left,1,2,0.655011183156148,B03E01,2022-08-23_09h08.50.191,t1_Paradigm,2021.1.4,59.940851158681774,
J,left,Distractor,0,58,58,58,832.2472430280113,834.2465757599475,left,1,2,0.6276371524595561,B03E01,2022-08-23_09h08.50.191,t1_Paradigm,2021.1.4,59.940851158681774,
H,left,Distractor,0,59,59,59,835.7470123714065,837.7469658551231,left,1,2,0.7111682067302354,B03E01,2022-08-23_09h08.50.191,t1_Paradigm,2021.1.4,59.940851158681774,
X,left,Pretarget,0,60,60,60,839.2469629679058,841.2479629075947,left,1,2,0.5225950439948974,B03E01,2022-08-23_09h08.50.191,t1_Paradigm,2021.1.4,59.940851158681774,
P,left,Distractor,0,61,61,61,842.763566393814,844.7641229852034,left,1,2,0.5740827951344727,B03E01,2022-08-23_09h08.50.191,t1_Paradigm,2021.1.4,59.940851158681774,
X,right,Target,0,62,62,62,846.2635497121123,848.2639141431314,right,1,2,0.9621906025558928,B03E01,2022-08-23_09h08.50.191,t1_Paradigm,2021.1.4,59.940851158681774,
Q,left,Distractor,0,63,63,63,849.7639337120509,851.7633889903336,left,1,2,0.5186058717022206,B03E01,2022-08-23_09h08.50.191,t1_Paradigm,2021.1.4,59.940851158681774,
B,left,Pretarget,0,0,0,0,856.6793151391576,858.6808501765054,left,1,2,1.0253664520719212,B03E01,2022-08-23_09h08.50.191,t1_Paradigm,2021.1.4,59.940851158681774,
F,left,Distractor,0,1,1,1,860.1801813044322,862.1816573142205,left,1,2,1.0125728701636945,B03E01,2022-08-23_09h08.50.191,t1_Paradigm,2021.1.4,59.940851158681774,
B,right,Target,0,2,2,2,863.6799824072209,865.6805922517347,right,1,2,0.4255896660711187,B03E01,2022-08-23_09h08.50.191,t1_Paradigm,2021.1.4,59.940851158681774,
V,left,Distractor,0,3,3,3,867.1800667781345,869.1802271791112,left,1,2,0.5899679454691977,B03E01,2022-08-23_09h08.50.191,t1_Paradigm,2021.1.4,59.940851158681774,
G,left,Pretarget,0,4,4,4,870.6799670087271,872.6826139456457,left,1,2,0.6075661782347197,B03E01,2022-08-23_09h08.50.191,t1_Paradigm,2021.1.4,59.940851158681774,
B,left,Lure,0,5,5,5,874.180249635248,876.1801155400317,left,1,2,0.5178712352285402,B03E01,2022-08-23_09h08.50.191,t1_Paradigm,2021.1.4,59.940851158681774,
G,right,Target,0,6,6,6,877.6800773645991,879.6802265375077,left,0,2,0.5699152569559374,B03E01,2022-08-23_09h08.50.191,t1_Paradigm,2021.1.4,59.940851158681774,
Y,left,Pretarget,0,7,7,7,881.180241936001,883.1801351089507,left,1,2,0.7981228594489949,B03E01,2022-08-23_09h08.50.191,t1_Paradigm,2021.1.4,59.940851158681774,
P,left,Distractor,0,8,8,8,884.6802563720894,886.6809849133256,left,1,2,1.0091066050554218,B03E01,2022-08-23_09h08.50.191,t1_Paradigm,2021.1.4,59.940851158681774,
Y,right,Target,0,9,9,9,888.1801556402756,890.1818703267177,right,1,2,0.5001353784246021,B03E01,2022-08-23_09h08.50.191,t1_Paradigm,2021.1.4,59.940851158681774,
X,left,Distractor,0,10,10,10,891.680353254279,893.6804828582685,left,1,2,0.3936573604160003,B03E01,2022-08-23_09h08.50.191,t1_Paradigm,2021.1.4,59.940851158681774,
Y,right,Target,0,11,11,11,895.1801713595714,897.1805508682824,left,0,2,1.149701590022687,B03E01,2022-08-23_09h08.50.191,t1_Paradigm,2021.1.4,59.940851158681774,
N,left,Distractor,0,12,12,12,898.6803975249486,900.6804863870898,left,1,2,0.6256908470068083,B03E01,2022-08-23_09h08.50.191,t1_Paradigm,2021.1.4,59.940851158681774,
Y,right,Target,0,13,13,13,902.1801453746134,904.1805473394611,right,1,2,0.8696029883344636,B03E01,2022-08-23_09h08.50.191,t1_Paradigm,2021.1.4,59.940851158681774,
Y,left,Lure,0,14,14,14,905.6802348783581,907.6806320311766,left,1,2,0.7135902614791121,B03E01,2022-08-23_09h08.50.191,t1_Paradigm,2021.1.4,59.940851158681774,
K,left,Distractor,0,15,15,15,909.1802191590627,911.1804026577802,left,1,2,0.44582264528116866,B03E01,2022-08-23_09h08.50.191,t1_Paradigm,2021.1.4,59.940851158681774,
T,left,Pretarget,0,16,16,16,912.6802172342509,914.6805431690354,left,1,2,0.9936625574073332,B03E01,2022-08-23_09h08.50.191,t1_Paradigm,2021.1.4,59.940851158681774,
J,left,Distractor,0,17,17,17,916.1803288733308,918.1801604523052,left,1,2,0.917823692379443,B03E01,2022-08-23_09h08.50.191,t1_Paradigm,2021.1.4,59.940851158681774,
T,right,Target,0,18,18,18,919.6802611841185,921.6804655349629,right,1,2,0.6660579984268225,B03E01,2022-08-23_09h08.50.191,t1_Paradigm,2021.1.4,59.940851158681774,
S,left,Pretarget,0,19,19,19,923.180587760507,925.1805579259253,left,1,2,0.8456442152350974,B03E01,2022-08-23_09h08.50.191,t1_Paradigm,2021.1.4,59.940851158681774,
R,left,Distractor,0,20,20,20,926.6800658157285,928.6807504070975,left,1,2,0.737331530854135,B03E01,2022-08-23_09h08.50.191,t1_Paradigm,2021.1.4,59.940851158681774,
S,right,Target,0,21,21,21,930.180307700402,932.1804539860927,right,1,2,0.5657393779265476,B03E01,2022-08-23_09h08.50.191,t1_Paradigm,2021.1.4,59.940851158681774,
Q,left,Distractor,0,22,22,22,933.68019574052,935.6805393194122,left,1,2,0.6977577226653011,B03E01,2022-08-23_09h08.50.191,t1_Paradigm,2021.1.4,59.940851158681774,
D,left,Distractor,0,23,23,23,937.1801854748574,939.1803144372429,left,1,2,0.445832590142345,B03E01,2022-08-23_09h08.50.191,t1_Paradigm,2021.1.4,59.940851158681774,
F,left,Distractor,0,24,24,24,940.6803086628074,942.6806317103747,left,1,2,0.9135987306508468,B03E01,2022-08-23_09h08.50.191,t1_Paradigm,2021.1.4,59.940851158681774,
Z,left,Distractor,0,25,25,25,944.1802380863778,946.1805280913436,left,1,2,0.7574377932933203,B03E01,2022-08-23_09h08.50.191,t1_Paradigm,2021.1.4,59.940851158681774,
P,left,Distractor,0,26,26,26,947.6802846026612,949.6805604923411,left,1,2,1.4496469253699615,B03E01,2022-08-23_09h08.50.191,t1_Paradigm,2021.1.4,59.940851158681774,
H,left,Distractor,0,27,27,27,951.1802412943975,953.1806323519786,left,1,2,0.6055197825730829,B03E01,2022-08-23_09h08.50.191,t1_Paradigm,2021.1.4,59.940851158681774,
Z,left,Pretarget,0,28,28,28,954.6802579760988,956.6816210635998,right,0,2,0.5926366969206356,B03E01,2022-08-23_09h08.50.191,t1_Paradigm,2021.1.4,59.940851158681774,
J,left,Pretarget,0,29,29,29,958.1803240613012,960.1813015448538,left,1,2,0.48472726059526394,B03E01,2022-08-23_09h08.50.191,t1_Paradigm,2021.1.4,59.940851158681774,
Z,right,Target,0,30,30,30,961.6802149886371,963.6808610837716,right,1,2,1.001127618866576,B03E01,2022-08-23_09h08.50.191,t1_Paradigm,2021.1.4,59.940851158681774,
J,right,Target,0,31,31,31,965.1800969335181,967.1803195700741,left,0,2,0.49385664258943507,B03E01,2022-08-23_09h08.50.191,t1_Paradigm,2021.1.4,59.940851158681774,
V,left,Pretarget,0,32,32,32,968.6802121014198,970.6799987681206,left,1,2,0.8822182043563771,B03E01,2022-08-23_09h08.50.191,t1_Paradigm,2021.1.4,59.940851158681774,
Z,left,Lure,0,33,33,33,972.1798284222832,974.181129595007,left,1,2,0.7247544902652407,B03E01,2022-08-23_09h08.50.191,t1_Paradigm,2021.1.4,59.940851158681774,
V,right,Target,0,34,34,34,975.6803038507783,977.6802509184558,right,1,2,0.6659309608530748,B03E01,2022-08-23_09h08.50.191,t1_Paradigm,2021.1.4,59.940851158681774,
X,left,Distractor,0,35,35,35,979.180111690408,981.1807889033321,left,1,2,0.46120991098405284,B03E01,2022-08-23_09h08.50.191,t1_Paradigm,2021.1.4,59.940851158681774,
S,left,Distractor,0,36,36,36,982.6802262167057,984.6805264873342,left,1,2,0.46559270727357216,B03E01,2022-08-23_09h08.50.191,t1_Paradigm,2021.1.4,59.940851158681774,
Q,left,Distractor,0,37,37,37,986.1801363921586,988.1806301063652,left,1,2,1.3976320966207822,B03E01,2022-08-23_09h08.50.191,t1_Paradigm,2021.1.4,59.940851158681774,
P,left,Distractor,0,38,38,38,989.6805040311974,991.6800892342712,left,1,2,0.4740689364903119,B03E01,2022-08-23_09h08.50.191,t1_Paradigm,2021.1.4,59.940851158681774,
S,left,Lure,0,39,39,39,993.1802467480306,995.1800837806381,left,1,2,0.6538527673019416,B03E01,2022-08-23_09h08.50.191,t1_Paradigm,2021.1.4,59.940851158681774,
K,left,Pretarget,0,40,40,40,996.6800507380372,998.68041741467,left,1,2,0.6257617442388437,B03E01,2022-08-23_09h08.50.191,t1_Paradigm,2021.1.4,59.940851158681774,
L,left,Distractor,0,41,41,41,1000.1802929435121,1002.1810012742253,left,1,2,0.597221598440683,B03E01,2022-08-23_09h08.50.191,t1_Paradigm,2021.1.4,59.940851158681774,
K,right,Target,0,42,42,42,1003.6800998207359,1005.681136011046,right,1,2,1.0491696362232688,B03E01,2022-08-23_09h08.50.191,t1_Paradigm,2021.1.4,59.940851158681774,
B,left,Distractor,0,43,43,43,1007.1803025675704,1009.1800141666145,left,1,2,1.19822096068674,B03E01,2022-08-23_09h08.50.191,t1_Paradigm,2021.1.4,59.940851158681774,
N,left,Distractor,0,44,44,44,1010.6801652643344,1012.6819065773384,left,1,2,0.9123097484016398,B03E01,2022-08-23_09h08.50.191,t1_Paradigm,2021.1.4,59.940851158681774,
S,left,Pretarget,0,45,45,45,1014.1802461064267,1016.1799827280229,left,1,2,0.709934081614847,B03E01,2022-08-23_09h08.50.191,t1_Paradigm,2021.1.4,59.940851158681774,
Z,left,Distractor,0,46,46,46,1017.6802538056736,1019.6801331841389,left,1,2,0.7939928550990771,B03E01,2022-08-23_09h08.50.191,t1_Paradigm,2021.1.4,59.940851158681774,
S,right,Target,0,47,47,47,1021.1799516102333,1023.1817792189627,right,1,2,0.9723677237307129,B03E01,2022-08-23_09h08.50.191,t1_Paradigm,2021.1.4,59.940851158681774,
C,left,Distractor,0,48,48,48,1024.6804729134078,1026.679982407221,left,1,2,0.7061611298390744,B03E01,2022-08-23_09h08.50.191,t1_Paradigm,2021.1.4,59.940851158681774,
T,left,Pretarget,0,49,49,49,1028.1802063269843,1030.18043056755,left,1,2,0.5978356133796296,B03E01,2022-08-23_09h08.50.191,t1_Paradigm,2021.1.4,59.940851158681774,
S,left,Lure,0,50,50,50,1031.6802698457714,1033.6817468179652,left,1,2,0.7602451311886398,B03E01,2022-08-23_09h08.50.191,t1_Paradigm,2021.1.4,59.940851158681774,
T,right,Target,0,51,51,51,1035.1801161816356,1037.180534186581,right,1,2,0.5256779507685678,B03E01,2022-08-23_09h08.50.191,t1_Paradigm,2021.1.4,59.940851158681774,
N,left,Pretarget,0,52,52,52,1038.6801354297527,1040.6815463167445,left,1,2,0.6086273910973432,B03E01,2022-08-23_09h08.50.191,t1_Paradigm,2021.1.4,59.940851158681774,
B,left,Distractor,0,53,53,53,1042.1801668683443,1044.1800058257636,left,1,2,0.7741329685600249,B03E01,2022-08-23_09h08.50.191,t1_Paradigm,2021.1.4,59.940851158681774,
N,right,Target,0,54,54,54,1045.680175209195,1047.6809900461571,right,1,2,0.47313219478610335,B03E01,2022-08-23_09h08.50.191,t1_Paradigm,2021.1.4,59.940851158681774,
N,left,Lure,0,55,55,55,1049.1800263570885,1051.1800231490688,left,1,2,0.46195032189234553,B03E01,2022-08-23_09h08.50.191,t1_Paradigm,2021.1.4,59.940851158681774,
X,left,Distractor,0,56,56,56,1052.6802964723333,1054.679858256865,left,1,2,0.4340979754829277,B03E01,2022-08-23_09h08.50.191,t1_Paradigm,2021.1.4,59.940851158681774,
W,left,Distractor,0,57,57,57,1056.1805191088893,1058.1800885926673,left,1,2,0.5178680272092606,B03E01,2022-08-23_09h08.50.191,t1_Paradigm,2021.1.4,59.940851158681774,
S,left,Distractor,0,58,58,58,1059.6803314397462,1061.680416773066,left,1,2,0.9216463684579139,B03E01,2022-08-23_09h08.50.191,t1_Paradigm,2021.1.4,59.940851158681774,
L,left,Distractor,0,59,59,59,1063.1803295149348,1065.1804924823268,left,1,2,0.7174013886874491,B03E01,2022-08-23_09h08.50.191,t1_Paradigm,2021.1.4,59.940851158681774,
K,left,Pretarget,0,60,60,60,1066.6800555500663,1068.6804677805767,left,1,2,0.8817536831274992,B03E01,2022-08-23_09h08.50.191,t1_Paradigm,2021.1.4,59.940851158681774,
V,left,Pretarget,0,61,61,61,1070.1802268583097,1072.1802124222213,left,1,2,0.7737095099814724,B03E01,2022-08-23_09h08.50.191,t1_Paradigm,2021.1.4,59.940851158681774,
K,right,Target,0,62,62,62,1073.6800289235039,1075.6799435901844,left,0,2,1.0662446410033226,B03E01,2022-08-23_09h08.50.191,t1_Paradigm,2021.1.4,59.940851158681774,
V,right,Target,0,63,63,63,1077.1803038507783,1079.1805046728014,right,1,2,0.7657080676558508,B03E01,2022-08-23_09h08.50.191,t1_Paradigm,2021.1.4,59.940851158681774,
R,left,Distractor,0,0,0,0,1262.6045214468936,1264.5970252676452,left,1,3,0.35708048407741444,B03E01,2022-08-23_09h08.50.191,t1_Paradigm,2021.1.4,59.940851158681774,
P,left,Lure,0,1,1,1,1266.0967946110404,1268.096629718836,left,1,3,0.3613952703526593,B03E01,2022-08-23_09h08.50.191,t1_Paradigm,2021.1.4,59.940851158681774,
V,left,Distractor,0,2,2,2,1269.5968042350992,1271.5972264104698,left,1,3,1.0208258212205692,B03E01,2022-08-23_09h08.50.191,t1_Paradigm,2021.1.4,59.940851158681774,
P,left,Pretarget,0,3,3,3,1273.0968744907268,1275.0970903904417,left,1,3,0.4650813489597567,B03E01,2022-08-23_09h08.50.191,t1_Paradigm,2021.1.4,59.940851158681774,
Z,left,Distractor,0,4,4,4,1276.596624586005,1278.5967458491436,left,1,3,0.6452398764527061,B03E01,2022-08-23_09h08.50.191,t1_Paradigm,2021.1.4,59.940851158681774,
L,left,Pretarget,0,5,5,5,1280.096864866668,1282.0969649568779,left,1,3,0.6492059510046602,B03E01,2022-08-23_09h08.50.191,t1_Paradigm,2021.1.4,59.940851158681774,
P,right,Target,0,6,6,6,1283.5967914030207,1285.5969248566334,right,1,3,1.0850086680688946,B03E01,2022-08-23_09h08.50.191,t1_Paradigm,2021.1.4,59.940851158681774,
S,left,Distractor,0,7,7,7,1287.0968209168004,1289.097765999356,left,1,3,0.976112765736616,B03E01,2022-08-23_09h08.50.191,t1_Paradigm,2021.1.4,59.940851158681774,
L,right,Target,0,8,8,8,1290.5971831022061,1292.5972286560836,right,1,3,0.4527526090819265,B03E01,2022-08-23_09h08.50.191,t1_Paradigm,2021.1.4,59.940851158681774,
D,left,Distractor,0,9,9,9,1294.096707673711,1296.098261959176,left,1,3,0.5357418288535882,B03E01,2022-08-23_09h08.50.191,t1_Paradigm,2021.1.4,59.940851158681774,
G,left,Distractor,0,10,10,10,1297.5967715132997,1299.597087503224,left,1,3,1.1492656201680802,B03E01,2022-08-23_09h08.50.191,t1_Paradigm,2021.1.4,59.940851158681774,
M,left,Pretarget,0,11,11,11,1301.0966277940247,1303.0968979092695,left,1,3,0.8009305181462878,B03E01,2022-08-23_09h08.50.191,t1_Paradigm,2021.1.4,59.940851158681774,
Y,left,Distractor,0,12,12,12,1304.5968789819544,1306.5976023903595,left,1,3,0.6125171147841684,B03E01,2022-08-23_09h08.50.191,t1_Paradigm,2021.1.4,59.940851158681774,
V,left,Distractor,0,13,13,13,1308.0966024506702,1310.0988130969322,left,1,3,0.5192202074435954,B03E01,2022-08-23_09h08.50.191,t1_Paradigm,2021.1.4,59.940851158681774,
M,right,Target,0,14,14,14,1311.596963032066,1313.5967532275886,right,1,3,1.2293502990514753,B03E01,2022-08-23_09h08.50.191,t1_Paradigm,2021.1.4,59.940851158681774,
S,left,Pretarget,0,15,15,15,1315.0968372777002,1317.0985051270568,left,1,3,0.863457064508566,B03E01,2022-08-23_09h08.50.191,t1_Paradigm,2021.1.4,59.940851158681774,
Q,left,Distractor,0,16,16,16,1318.5967853077836,1320.596747453153,left,1,3,0.5654926812244412,B03E01,2022-08-23_09h08.50.191,t1_Paradigm,2021.1.4,59.940851158681774,
R,left,Pretarget,0,17,17,17,1322.0967442451338,1324.0970589518502,left,1,3,0.9369768522142294,B03E01,2022-08-23_09h08.50.191,t1_Paradigm,2021.1.4,59.940851158681774,
S,right,Target,0,18,18,18,1325.5966893879995,1327.597197217492,right,1,3,0.49285445728628474,B03E01,2022-08-23_09h08.50.191,t1_Paradigm,2021.1.4,59.940851158681774,
F,left,Distractor,0,19,19,19,1329.0973473528065,1331.098462781199,left,1,3,0.5756242485213079,B03E01,2022-08-23_09h08.50.191,t1_Paradigm,2021.1.4,59.940851158681774,
R,right,Target,0,20,20,20,1332.5966560245965,1334.597100335302,left,0,3,0.5810919970176656,B03E01,2022-08-23_09h08.50.191,t1_Paradigm,2021.1.4,59.940851158681774,
P,left,Distractor,0,21,21,21,1336.0967942902384,1338.0972276936777,left,1,3,0.8727933637624119,B03E01,2022-08-23_09h08.50.191,t1_Paradigm,2021.1.4,59.940851158681774,
L,left,Distractor,0,22,22,22,1339.5967769669328,1341.5970563854344,left,1,3,0.9890096458730113,B03E01,2022-08-23_09h08.50.191,t1_Paradigm,2021.1.4,59.940851158681774,
R,right,Target,0,23,23,23,1343.0971019393119,1345.0969954330635,right,1,3,0.913199653020456,B03E01,2022-08-23_09h08.50.191,t1_Paradigm,2021.1.4,59.940851158681774,
H,left,Pretarget,0,24,24,24,1346.596832144869,1348.5968536386,left,1,3,0.4851452655407229,B03E01,2022-08-23_09h08.50.191,t1_Paradigm,2021.1.4,59.940851158681774,
G,left,Pretarget,0,25,25,25,1350.0969271022473,1352.0968138591575,left,1,3,0.7611334317980436,B03E01,2022-08-23_09h08.50.191,t1_Paradigm,2021.1.4,59.940851158681774,
T,left,Distractor,0,26,26,26,1353.5966749519116,1355.5967811373584,left,1,3,0.6212458151385363,B03E01,2022-08-23_09h08.50.191,t1_Paradigm,2021.1.4,59.940851158681774,
H,right,Target,0,27,27,27,1357.096996716271,1359.0965347614579,right,1,3,0.6255618846216748,B03E01,2022-08-23_09h08.50.191,t1_Paradigm,2021.1.4,59.940851158681774,
G,right,Target,0,28,28,28,1360.5966614782296,1362.5970105107554,right,1,3,0.6771705780979573,B03E01,2022-08-23_09h08.50.191,t1_Paradigm,2021.1.4,59.940851158681774,
D,left,Distractor,0,29,29,29,1364.0967708716958,1366.0973534480436,left,1,3,0.8404488275973563,B03E01,2022-08-23_09h08.50.191,t1_Paradigm,2021.1.4,59.940851158681774,
N,left,Pretarget,0,30,30,30,1367.596721468195,1369.5964754130964,left,1,3,0.4936218155594361,B03E01,2022-08-23_09h08.50.191,t1_Paradigm,2021.1.4,59.940851158681774,
V,left,Distractor,0,31,31,31,1371.0967035032854,1373.098012054454,left,1,3,0.7839087664906401,B03E01,2022-08-23_09h08.50.191,t1_Paradigm,2021.1.4,59.940851158681774,
R,left,Distractor,0,32,32,32,1374.596859733837,1376.5965822401472,left,1,3,0.9334435394976026,B03E01,2022-08-23_09h08.50.191,t1_Paradigm,2021.1.4,59.940851158681774,
N,right,Target,0,33,33,33,1378.0967590020236,1380.0968699994996,right,1,3,0.8249521684288084,B03E01,2022-08-23_09h08.50.191,t1_Paradigm,2021.1.4,59.940851158681774,
Z,left,Distractor,0,34,34,34,1381.5968809067658,1383.5965228917858,left,1,3,0.653548326247801,B03E01,2022-08-23_09h08.50.191,t1_Paradigm,2021.1.4,59.940851158681774,
N,left,Lure,0,35,35,35,1385.0968170671772,1387.0973778289922,left,1,3,1.28078768428486,B03E01,2022-08-23_09h08.50.191,t1_Paradigm,2021.1.4,59.940851158681774,
Y,left,Pretarget,0,36,36,36,1388.5966063002938,1390.5977483552483,left,1,3,0.4842300175669152,B03E01,2022-08-23_09h08.50.191,t1_Paradigm,2021.1.4,59.940851158681774,
Y,left,Lure,0,37,37,37,1392.0969277438512,1394.097185027018,left,1,3,0.6169618258509217,B03E01,2022-08-23_09h08.50.191,t1_Paradigm,2021.1.4,59.940851158681774,
B,left,Distractor,0,38,38,38,1395.5970143603786,1397.5970490069894,left,1,3,0.74920248634362,B03E01,2022-08-23_09h08.50.191,t1_Paradigm,2021.1.4,59.940851158681774,
Y,right,Target,0,39,39,39,1399.0964571273853,1401.0975010169423,right,1,3,0.8164865256762823,B03E01,2022-08-23_09h08.50.191,t1_Paradigm,2021.1.4,59.940851158681774,
J,left,Distractor,0,40,40,40,1402.596872245113,1404.5970297588724,left,1,3,0.6931455529788764,B03E01,2022-08-23_09h08.50.191,t1_Paradigm,2021.1.4,59.940851158681774,
X,left,Distractor,0,41,41,41,1406.096417027141,1408.0970647262852,left,1,3,0.6168489035630955,B03E01,2022-08-23_09h08.50.191,t1_Paradigm,2021.1.4,59.940851158681774,
W,left,Pretarget,0,42,42,42,1409.5965049268762,1411.5971529468225,left,1,3,0.71697825091087,B03E01,2022-08-23_09h08.50.191,t1_Paradigm,2021.1.4,59.940851158681774,
S,left,Pretarget,0,43,43,43,1413.0968876436068,1415.0982446358703,left,1,3,0.5918391832638008,B03E01,2022-08-23_09h08.50.191,t1_Paradigm,2021.1.4,59.940851158681774,
R,left,Distractor,0,44,44,44,1416.5967439243318,1418.5969248566334,left,1,3,0.9651740607241663,B03E01,2022-08-23_09h08.50.191,t1_Paradigm,2021.1.4,59.940851158681774,
W,right,Target,0,45,45,45,1420.0964398040796,1422.0970201348136,left,0,3,1.0168959972897937,B03E01,2022-08-23_09h08.50.191,t1_Paradigm,2021.1.4,59.940851158681774,
S,right,Target,0,46,46,46,1423.5967375082928,1425.5971519844165,right,1,3,0.9089515935515919,B03E01,2022-08-23_09h08.50.191,t1_Paradigm,2021.1.4,59.940851158681774,
D,left,Distractor,0,47,47,47,1427.0966576286064,1429.0966005258583,left,1,3,0.8976831041309197,B03E01,2022-08-23_09h08.50.191,t1_Paradigm,2021.1.4,59.940851158681774,
T,left,Distractor,0,48,48,48,1430.5967872325955,1432.5966499293595,left,1,3,0.6612857485656605,B03E01,2022-08-23_09h08.50.191,t1_Paradigm,2021.1.4,59.940851158681774,
S,right,Target,0,49,49,49,1434.0969280646532,1436.0970361749114,left,0,3,0.40902505719896,B03E01,2022-08-23_09h08.50.191,t1_Paradigm,2021.1.4,59.940851158681774,
K,left,Distractor,0,50,50,50,1437.5968735283209,1439.5968699994996,None,0,3,,B03E01,2022-08-23_09h08.50.191,t1_Paradigm,2021.1.4,59.940851158681774,
S,left,Lure,0,51,51,51,1441.096733658669,1443.0966136787388,right,0,3,1.409468405498501,B03E01,2022-08-23_09h08.50.191,t1_Paradigm,2021.1.4,59.940851158681774,
T,left,Pretarget,0,52,52,52,1444.5971106009647,1446.5969947914596,left,1,3,0.7570316580199687,B03E01,2022-08-23_09h08.50.191,t1_Paradigm,2021.1.4,59.940851158681774,
V,left,Distractor,0,53,53,53,1448.0964709218692,1450.0970445157623,left,1,3,0.4889557511446583,B03E01,2022-08-23_09h08.50.191,t1_Paradigm,2021.1.4,59.940851158681774,
B,left,Distractor,0,54,54,54,1451.596590580998,1453.5973662801216,left,1,3,0.780850882269533,B03E01,2022-08-23_09h08.50.191,t1_Paradigm,2021.1.4,59.940851158681774,
T,right,Target,0,55,55,55,1455.0966454381319,1457.0984550819521,left,0,3,0.9117316632814436,B03E01,2022-08-23_09h08.50.191,t1_Paradigm,2021.1.4,59.940851158681774,
Y,left,Pretarget,0,56,56,56,1458.5968090471283,1460.5963650572248,left,1,3,0.581834653540227,B03E01,2022-08-23_09h08.50.191,t1_Paradigm,2021.1.4,59.940851158681774,
T,left,Lure,0,57,57,57,1462.096840164918,1464.0967939694365,left,1,3,0.4412977337265147,B03E01,2022-08-23_09h08.50.191,t1_Paradigm,2021.1.4,59.940851158681774,
P,left,Pretarget,0,58,58,58,1465.5968286160473,1467.5972459793893,left,1,3,0.5248165975231132,B03E01,2022-08-23_09h08.50.191,t1_Paradigm,2021.1.4,59.940851158681774,
Y,right,Target,0,59,59,59,1469.0966213779857,1471.0976726459871,right,1,3,0.480516414153044,B03E01,2022-08-23_09h08.50.191,t1_Paradigm,2021.1.4,59.940851158681774,
R,left,Distractor,0,60,60,60,1472.596651533369,1474.5970781999672,left,1,3,0.6448738414233048,B03E01,2022-08-23_09h08.50.191,t1_Paradigm,2021.1.4,59.940851158681774,
P,right,Target,0,61,61,61,1476.096840164918,1478.0975215482672,left,0,3,0.6163651342171761,B03E01,2022-08-23_09h08.50.191,t1_Paradigm,2021.1.4,59.940851158681774,
L,left,Distractor,0,62,62,62,1479.5966082251052,1481.597054460623,left,1,3,0.5889981611630901,B03E01,2022-08-23_09h08.50.191,t1_Paradigm,2021.1.4,59.940851158681774,
V,left,Distractor,0,63,63,63,1483.0966884255936,1485.0965440647146,left,1,3,0.8977052394657221,B03E01,2022-08-23_09h08.50.191,t1_Paradigm,2021.1.4,59.940851158681774,
H,left,Lure,0,0,0,0,1492.8627115207682,1494.8640839115255,left,1,3,0.34606927782351704,B03E01,2022-08-23_09h08.50.191,t1_Paradigm,2021.1.4,59.940851158681774,
B,left,Distractor,0,1,1,1,1496.3635436810355,1498.3651800918005,left,1,3,0.2847643453010278,B03E01,2022-08-23_09h08.50.191,t1_Paradigm,2021.1.4,59.940851158681774,
T,left,Distractor,0,2,2,2,1499.8634743878138,1501.8636598113426,left,1,3,0.4502529202604819,B03E01,2022-08-23_09h08.50.191,t1_Paradigm,2021.1.4,59.940851158681774,
R,left,Distractor,0,3,3,3,1503.363438137193,1505.363217746251,left,1,3,0.47075986433947037,B03E01,2022-08-23_09h08.50.191,t1_Paradigm,2021.1.4,59.940851158681774,
H,left,Pretarget,0,4,4,4,1506.863849726099,1508.8641288237986,left,1,3,0.7777917148405322,B03E01,2022-08-23_09h08.50.191,t1_Paradigm,2021.1.4,59.940851158681774,
K,left,Distractor,0,5,5,5,1510.3632674705536,1512.3631866284613,left,1,3,0.5109364593986356,B03E01,2022-08-23_09h08.50.191,t1_Paradigm,2021.1.4,59.940851158681774,
G,left,Distractor,0,6,6,6,1513.8631567938796,1515.863679701064,left,1,3,0.4825993812373781,B03E01,2022-08-23_09h08.50.191,t1_Paradigm,2021.1.4,59.940851158681774,
H,right,Target,0,7,7,7,1517.3634602725278,1519.3639331346071,right,1,3,0.7101775702972191,B03E01,2022-08-23_09h08.50.191,t1_Paradigm,2021.1.4,59.940851158681774,
Y,left,Pretarget,0,8,8,8,1520.8631506986426,1522.8650347685157,left,1,3,0.569183507699563,B03E01,2022-08-23_09h08.50.191,t1_Paradigm,2021.1.4,59.940851158681774,
S,left,Distractor,0,9,9,9,1524.36370536522,1526.3636485832744,left,1,3,0.686313433774103,B03E01,2022-08-23_09h08.50.191,t1_Paradigm,2021.1.4,59.940851158681774,
P,left,Distractor,0,10,10,10,1527.8638401020407,1529.8646770743376,left,1,3,0.8815486906787555,B03E01,2022-08-23_09h08.50.191,t1_Paradigm,2021.1.4,59.940851158681774,
Y,right,Target,0,11,11,11,1531.36367905946,1533.3636585281351,right,1,3,0.99866225585356,B03E01,2022-08-23_09h08.50.191,t1_Paradigm,2021.1.4,59.940851158681774,
H,left,Lure,0,12,12,12,1534.863380392841,1536.863842668456,left,1,3,1.0501891448320748,B03E01,2022-08-23_09h08.50.191,t1_Paradigm,2021.1.4,59.940851158681774,
Q,left,Distractor,0,13,13,13,1538.3634156810563,1540.3654582270942,left,1,3,0.36447208188928926,B03E01,2022-08-23_09h08.50.191,t1_Paradigm,2021.1.4,59.940851158681774,
V,left,Pretarget,0,14,14,14,1541.8633579367042,1543.8632485432381,left,1,3,0.5149211404641392,B03E01,2022-08-23_09h08.50.191,t1_Paradigm,2021.1.4,59.940851158681774,
G,left,Distractor,0,15,15,15,1545.363380392841,1547.3631449242075,left,1,3,0.726933377133264,B03E01,2022-08-23_09h08.50.191,t1_Paradigm,2021.1.4,59.940851158681774,
Z,left,Pretarget,0,16,16,16,1548.863367881565,1550.8647858261997,left,1,3,0.9691969172213248,B03E01,2022-08-23_09h08.50.191,t1_Paradigm,2021.1.4,59.940851158681774,
V,right,Target,0,17,17,17,1552.363720442912,1554.3634891447036,right,1,3,1.0225449988902255,B03E01,2022-08-23_09h08.50.191,t1_Paradigm,2021.1.4,59.940851158681774,
N,left,Distractor,0,18,18,18,1555.8632402023877,1557.8636639817682,left,1,3,0.41821378755503247,B03E01,2022-08-23_09h08.50.191,t1_Paradigm,2021.1.4,59.940851158681774,
Z,right,Target,0,19,19,19,1559.363326818915,1561.3635263577303,left,0,3,0.6307171720154656,B03E01,2022-08-23_09h08.50.191,t1_Paradigm,2021.1.4,59.940851158681774,
R,left,Distractor,0,20,20,20,1562.8632597713067,1564.8643261170005,left,1,3,0.48973947031754506,B03E01,2022-08-23_09h08.50.191,t1_Paradigm,2021.1.4,59.940851158681774,
P,left,Distractor,0,21,21,21,1566.3633290645284,1568.3632591297028,left,1,3,0.9108520243244129,B03E01,2022-08-23_09h08.50.191,t1_Paradigm,2021.1.4,59.940851158681774,
Z,right,Target,0,22,22,22,1569.8633954705329,1571.863348312646,right,1,3,0.7386484228736663,B03E01,2022-08-23_09h08.50.191,t1_Paradigm,2021.1.4,59.940851158681774,
D,left,Pretarget,0,23,23,23,1573.3637409742369,1575.363596613358,left,1,3,0.5182760872944527,B03E01,2022-08-23_09h08.50.191,t1_Paradigm,2021.1.4,59.940851158681774,
K,left,Distractor,0,24,24,24,1576.8631968941236,1578.8637024780028,left,1,3,0.5223143422854264,B03E01,2022-08-23_09h08.50.191,t1_Paradigm,2021.1.4,59.940851158681774,
W,left,Distractor,0,25,25,25,1580.3633698063768,1582.3635712700034,left,1,3,0.6543775992977316,B03E01,2022-08-23_09h08.50.191,t1_Paradigm,2021.1.4,59.940851158681774,
D,right,Target,0,26,26,26,1583.8632523928618,1585.8644489841486,left,0,3,0.43340151444181174,B03E01,2022-08-23_09h08.50.191,t1_Paradigm,2021.1.4,59.940851158681774,
G,left,Pretarget,0,27,27,27,1587.363210047004,1589.3629598214802,left,1,3,0.3271041079333372,B03E01,2022-08-23_09h08.50.191,t1_Paradigm,2021.1.4,59.940851158681774,
V,left,Distractor,0,28,28,28,1590.8633197612721,1592.8631365833567,left,1,3,0.5068478385005619,B03E01,2022-08-23_09h08.50.191,t1_Paradigm,2021.1.4,59.940851158681774,
D,right,Target,0,29,29,29,1594.3636739266285,1596.363568382786,None,0,3,,B03E01,2022-08-23_09h08.50.191,t1_Paradigm,2021.1.4,59.940851158681774,
G,right,Target,0,30,30,30,1597.863686117103,1599.8638134754783,None,0,3,,B03E01,2022-08-23_09h08.50.191,t1_Paradigm,2021.1.4,59.940851158681774,
B,left,Pretarget,0,31,31,31,1601.363333876558,1603.3632806234336,left,1,3,1.1426285485504195,B03E01,2022-08-23_09h08.50.191,t1_Paradigm,2021.1.4,59.940851158681774,
N,left,Distractor,0,32,32,32,1604.8633913001077,1606.8648782171622,left,1,3,0.4731479140814372,B03E01,2022-08-23_09h08.50.191,t1_Paradigm,2021.1.4,59.940851158681774,
F,left,Distractor,0,33,33,33,1608.3632209542702,1610.3650139163888,left,1,3,0.41314864550986385,B03E01,2022-08-23_09h08.50.191,t1_Paradigm,2021.1.4,59.940851158681774,
B,right,Target,0,34,34,34,1611.8628266886694,1613.8632860770667,right,1,3,0.8667824975586882,B03E01,2022-08-23_09h08.50.191,t1_Paradigm,2021.1.4,59.940851158681774,
Q,left,Pretarget,0,35,35,35,1615.3637108188532,1617.3635398314123,left,1,3,0.4384230274208676,B03E01,2022-08-23_09h08.50.191,t1_Paradigm,2021.1.4,59.940851158681774,
S,left,Pretarget,0,36,36,36,1618.8632533552677,1620.8637031196063,left,1,3,0.4904247032905005,B03E01,2022-08-23_09h08.50.191,t1_Paradigm,2021.1.4,59.940851158681774,
W,left,Distractor,0,37,37,37,1622.3634390995985,1624.3650126331809,left,1,3,0.7168534589509363,B03E01,2022-08-23_09h08.50.191,t1_Paradigm,2021.1.4,59.940851158681774,
Q,right,Target,0,38,38,38,1625.8633370845773,1627.8632004229453,right,1,3,0.786736314909831,B03E01,2022-08-23_09h08.50.191,t1_Paradigm,2021.1.4,59.940851158681774,
S,right,Target,0,39,39,39,1629.363490107109,1631.3632681121576,right,1,3,0.5185702626854436,B03E01,2022-08-23_09h08.50.191,t1_Paradigm,2021.1.4,59.940851158681774,
T,left,Distractor,0,40,40,40,1632.863229615923,1634.863561645945,left,1,3,0.6183749584565703,B03E01,2022-08-23_09h08.50.191,t1_Paradigm,2021.1.4,59.940851158681774,
G,left,Distractor,0,41,41,41,1636.3632677913556,1638.3631221472688,left,1,3,0.7348209347655938,B03E01,2022-08-23_09h08.50.191,t1_Paradigm,2021.1.4,59.940851158681774,
D,left,Distractor,0,42,42,42,1639.8634423076182,1641.8641268989873,left,1,3,0.8499455278279129,B03E01,2022-08-23_09h08.50.191,t1_Paradigm,2021.1.4,59.940851158681774,
S,left,Lure,0,43,43,43,1643.3635529842923,1645.3642144779205,None,0,3,,B03E01,2022-08-23_09h08.50.191,t1_Paradigm,2021.1.4,59.940851158681774,
Z,left,Pretarget,0,44,44,44,1646.8634108690267,1648.8641275405912,left,1,3,0.8740409625597749,B03E01,2022-08-23_09h08.50.191,t1_Paradigm,2021.1.4,59.940851158681774,
J,left,Distractor,0,45,45,45,1650.3635565131135,1652.3652917308805,left,1,3,0.4926064773762846,B03E01,2022-08-23_09h08.50.191,t1_Paradigm,2021.1.4,59.940851158681774,
M,left,Pretarget,0,46,46,46,1653.8632854354628,1655.8636527536996,left,1,3,0.43427698297318784,B03E01,2022-08-23_09h08.50.191,t1_Paradigm,2021.1.4,59.940851158681774,
Z,right,Target,0,47,47,47,1657.3633845632667,1659.3633101372134,right,1,3,1.1267424358106837,B03E01,2022-08-23_09h08.50.191,t1_Paradigm,2021.1.4,59.940851158681774,
P,left,Distractor,0,48,48,48,1660.8633723727926,1662.864846457769,left,1,3,0.5531886430972008,B03E01,2022-08-23_09h08.50.191,t1_Paradigm,2021.1.4,59.940851158681774,
M,right,Target,0,49,49,49,1664.363718838902,1666.3638147586862,right,1,3,0.5739676272332872,B03E01,2022-08-23_09h08.50.191,t1_Paradigm,2021.1.4,59.940851158681774,
K,left,Distractor,0,50,50,50,1667.863320723678,1669.8639809340984,left,1,3,0.48223270460403,B03E01,2022-08-23_09h08.50.191,t1_Paradigm,2021.1.4,59.940851158681774,
Y,left,Distractor,0,51,51,51,1671.3634256259165,1673.365316111829,left,1,3,0.8846248606114386,B03E01,2022-08-23_09h08.50.191,t1_Paradigm,2021.1.4,59.940851158681774,
X,left,Distractor,0,52,52,52,1674.863085896648,1676.8631490946327,left,1,3,0.5387868809966676,B03E01,2022-08-23_09h08.50.191,t1_Paradigm,2021.1.4,59.940851158681774,
F,left,Pretarget,0,53,53,53,1678.3634208138874,1680.3637178764961,left,1,3,0.6384780128755665,B03E01,2022-08-23_09h08.50.191,t1_Paradigm,2021.1.4,59.940851158681774,
M,left,Lure,0,54,54,54,1681.863699269983,1683.863589876517,left,1,3,0.48269113059586743,B03E01,2022-08-23_09h08.50.191,t1_Paradigm,2021.1.4,59.940851158681774,
V,left,Distractor,0,55,55,55,1685.3634740670118,1687.36311412722,left,1,3,0.9187376571449022,B03E01,2022-08-23_09h08.50.191,t1_Paradigm,2021.1.4,59.940851158681774,
F,right,Target,0,56,56,56,1688.86324886404,1690.8632863978687,left,0,3,0.4587573800490645,B03E01,2022-08-23_09h08.50.191,t1_Paradigm,2021.1.4,59.940851158681774,
S,left,Distractor,0,57,57,57,1692.3631927236984,1694.3630611948975,left,1,3,0.3672713997361825,B03E01,2022-08-23_09h08.50.191,t1_Paradigm,2021.1.4,59.940851158681774,
D,left,Distractor,0,58,58,58,1695.863478558239,1697.862996713705,left,1,3,0.4673567972163255,B03E01,2022-08-23_09h08.50.191,t1_Paradigm,2021.1.4,59.940851158681774,
F,right,Target,0,59,59,59,1699.3631603227009,1701.3643642924326,right,1,3,0.5015581350885441,B03E01,2022-08-23_09h08.50.191,t1_Paradigm,2021.1.4,59.940851158681774,
V,left,Pretarget,0,60,60,60,1702.8635542675001,1704.8632899266904,left,1,3,0.6829822262889138,B03E01,2022-08-23_09h08.50.191,t1_Paradigm,2021.1.4,59.940851158681774,
J,left,Distractor,0,61,61,61,1706.3632908890963,1708.3630310395138,left,1,3,0.686867458748111,B03E01,2022-08-23_09h08.50.191,t1_Paradigm,2021.1.4,59.940851158681774,
V,left,Lure,0,62,62,62,1709.8632857562648,1711.863224803894,left,1,3,0.7867196332081221,B03E01,2022-08-23_09h08.50.191,t1_Paradigm,2021.1.4,59.940851158681774,
V,right,Target,0,63,63,63,1713.363700232389,1715.3633069291936,left,0,3,0.6632917231813735,B03E01,2022-08-23_09h08.50.191,t1_Paradigm,2021.1.4,59.940851158681774,
R,left,Distractor,0,0,0,0,1788.3855481286337,1790.381480039061,left,1,4,0.9565922876645345,B03E01,2022-08-23_09h08.50.191,t1_Paradigm,2021.1.4,59.940851158681774,
F,left,Distractor,0,1,1,1,1791.8799369816643,1793.8802959590503,left,1,4,0.48186602797113665,B03E01,2022-08-23_09h08.50.191,t1_Paradigm,2021.1.4,59.940851158681774,
P,left,Pretarget,0,2,2,2,1795.3800178237566,1797.3807020943236,left,1,4,0.42122483469074723,B03E01,2022-08-23_09h08.50.191,t1_Paradigm,2021.1.4,59.940851158681774,
H,left,Distractor,0,3,3,3,1798.8800742849003,1800.8802539339945,left,1,4,0.5696900539842318,B03E01,2022-08-23_09h08.50.191,t1_Paradigm,2021.1.4,59.940851158681774,
Z,left,Distractor,0,4,4,4,1802.3800232773897,1804.3802757485273,left,1,4,0.49380820149463034,B03E01,2022-08-23_09h08.50.191,t1_Paradigm,2021.1.4,59.940851158681774,
T,left,Distractor,0,5,5,5,1805.880071397683,1807.8813202796878,left,1,4,0.7686639368557735,B03E01,2022-08-23_09h08.50.191,t1_Paradigm,2021.1.4,59.940851158681774,
P,right,Target,0,6,6,6,1809.3800325806465,1811.3802722197056,right,1,4,0.9978528725250726,B03E01,2022-08-23_09h08.50.191,t1_Paradigm,2021.1.4,59.940851158681774,
G,left,Distractor,0,7,7,7,1812.8800245605976,1814.8797846007365,left,1,4,0.4582421721115679,B03E01,2022-08-23_09h08.50.191,t1_Paradigm,2021.1.4,59.940851158681774,
L,left,Distractor,0,8,8,8,1816.3802257034222,1818.3802940342384,left,1,4,0.41381783838505726,B03E01,2022-08-23_09h08.50.191,t1_Paradigm,2021.1.4,59.940851158681774,
P,left,Lure,0,9,9,9,1819.8798519691463,1821.8818749462657,left,1,4,0.7681490497207051,B03E01,2022-08-23_09h08.50.191,t1_Paradigm,2021.1.4,59.940851158681774,
Q,left,Pretarget,0,10,10,10,1823.380240460312,1825.3806363299232,left,1,4,0.7414884825684567,B03E01,2022-08-23_09h08.50.191,t1_Paradigm,2021.1.4,59.940851158681774,
D,left,Distractor,0,11,11,11,1826.8800175029546,1828.8799514177522,left,1,4,0.42616325996368687,B03E01,2022-08-23_09h08.50.191,t1_Paradigm,2021.1.4,59.940851158681774,
M,left,Pretarget,0,12,12,12,1830.3799969716297,1832.380580510383,left,1,4,0.5572191988421764,B03E01,2022-08-23_09h08.50.191,t1_Paradigm,2021.1.4,59.940851158681774,
C,left,Distractor,0,13,13,13,1833.8798596683932,1835.879842024286,left,1,4,0.5142545140042785,B03E01,2022-08-23_09h08.50.191,t1_Paradigm,2021.1.4,59.940851158681774,
Q,right,Target,0,14,14,14,1837.3800662648514,1839.3799908763922,left,0,4,0.6941458134706409,B03E01,2022-08-23_09h08.50.191,t1_Paradigm,2021.1.4,59.940851158681774,
R,left,Distractor,0,15,15,15,1840.8800351470618,1842.8803277184438,left,1,4,0.633515848258412,B03E01,2022-08-23_09h08.50.191,t1_Paradigm,2021.1.4,59.940851158681774,
M,right,Target,0,16,16,16,1844.3799963300257,1846.3797951872007,right,1,4,0.6860773235366651,B03E01,2022-08-23_09h08.50.191,t1_Paradigm,2021.1.4,59.940851158681774,
S,left,Distractor,0,17,17,17,1847.879752199739,1849.8802305154518,left,1,4,0.8979144023396657,B03E01,2022-08-23_09h08.50.191,t1_Paradigm,2021.1.4,59.940851158681774,
Z,left,Distractor,0,18,18,18,1851.3799504553463,1853.379960400207,left,1,4,0.3100631081601932,B03E01,2022-08-23_09h08.50.191,t1_Paradigm,2021.1.4,59.940851158681774,
L,left,Pretarget,0,19,19,19,1854.8802641996567,1856.8650838512144,left,1,4,0.37676713756127356,B03E01,2022-08-23_09h08.50.191,t1_Paradigm,2021.1.4,59.940851158681774,
M,right,Target,0,20,20,20,1858.3800646608415,1860.3802058137012,left,0,4,0.31764397912456843,B03E01,2022-08-23_09h08.50.191,t1_Paradigm,2021.1.4,59.940851158681774,
P,left,Distractor,0,21,21,21,1861.8800303350326,1863.8808480592124,right,0,4,0.6411996966494371,B03E01,2022-08-23_09h08.50.191,t1_Paradigm,2021.1.4,59.940851158681774,
F,left,Distractor,0,22,22,22,1865.3799770819082,1867.3801689214765,left,1,4,1.1099369046714855,B03E01,2022-08-23_09h08.50.191,t1_Paradigm,2021.1.4,59.940851158681774,
L,right,Target,0,23,23,23,1868.8801317084499,1870.8801496733595,right,1,4,0.72992966738002,B03E01,2022-08-23_09h08.50.191,t1_Paradigm,2021.1.4,59.940851158681774,
L,left,Lure,0,24,24,24,1872.3798670468382,1874.380359798639,left,1,4,0.47758909632648283,B03E01,2022-08-23_09h08.50.191,t1_Paradigm,2021.1.4,59.940851158681774,
V,left,Pretarget,0,25,25,25,1875.880000500451,1877.880235006679,left,1,4,0.7057517865459886,B03E01,2022-08-23_09h08.50.191,t1_Paradigm,2021.1.4,59.940851158681774,
Z,left,Distractor,0,26,26,26,1879.3798452323053,1881.379968099454,left,1,4,0.4379713382704722,B03E01,2022-08-23_09h08.50.191,t1_Paradigm,2021.1.4,59.940851158681774,
H,left,Distractor,0,27,27,27,1882.8799228663784,1884.8806806005928,left,1,4,0.5532194400852859,B03E01,2022-08-23_09h08.50.191,t1_Paradigm,2021.1.4,59.940851158681774,
X,left,Distractor,0,28,28,28,1886.3800492623482,1888.3802648412607,left,1,4,0.4619990837900332,B03E01,2022-08-23_09h08.50.191,t1_Paradigm,2021.1.4,59.940851158681774,
V,right,Target,0,29,29,29,1889.8799716282751,1891.881707166844,right,1,4,0.9761756429193156,B03E01,2022-08-23_09h08.50.191,t1_Paradigm,2021.1.4,59.940851158681774,
C,left,Distractor,0,30,30,30,1893.3801349164696,1895.3802237786108,left,1,4,0.4377037894410023,B03E01,2022-08-23_09h08.50.191,t1_Paradigm,2021.1.4,59.940851158681774,
S,left,Pretarget,0,31,31,31,1896.8797932623888,1898.8802119089382,left,1,4,0.7298359932092353,B03E01,2022-08-23_09h08.50.191,t1_Paradigm,2021.1.4,59.940851158681774,
D,left,Distractor,0,32,32,32,1900.3799552673754,1902.3802250618187,left,1,4,0.5100632364810735,B03E01,2022-08-23_09h08.50.191,t1_Paradigm,2021.1.4,59.940851158681774,
V,left,Distractor,0,33,33,33,1903.8798927109942,1905.879812189704,right,0,4,0.5142699124980936,B03E01,2022-08-23_09h08.50.191,t1_Paradigm,2021.1.4,59.940851158681774,
R,left,Distractor,0,34,34,34,1907.3803431169376,1909.3801798287427,left,1,4,0.7898484146608098,B03E01,2022-08-23_09h08.50.191,t1_Paradigm,2021.1.4,59.940851158681774,
S,right,Target,0,35,35,35,1910.8800675480593,1912.880346645759,right,1,4,0.5056541344310972,B03E01,2022-08-23_09h08.50.191,t1_Paradigm,2021.1.4,59.940851158681774,
Y,left,Distractor,0,36,36,36,1914.3798920693903,1916.3805920592536,left,1,4,0.5412945898679027,B03E01,2022-08-23_09h08.50.191,t1_Paradigm,2021.1.4,59.940851158681774,
N,left,Pretarget,0,37,37,37,1917.8799475681285,1919.880449302384,left,1,4,0.8816410816416465,B03E01,2022-08-23_09h08.50.191,t1_Paradigm,2021.1.4,59.940851158681774,
Z,left,Pretarget,0,38,38,38,1921.3798862949557,1923.3966873348668,left,1,4,0.5814237062377288,B03E01,2022-08-23_09h08.50.191,t1_Paradigm,2021.1.4,59.940851158681774,
P,left,Pretarget,0,39,39,39,1924.8797958288046,1926.8817216029315,left,1,4,0.4723058089539336,B03E01,2022-08-23_09h08.50.191,t1_Paradigm,2021.1.4,59.940851158681774,
M,left,Distractor,0,40,40,40,1928.379850044335,1930.3818505653176,left,1,4,0.46029081338656397,B03E01,2022-08-23_09h08.50.191,t1_Paradigm,2021.1.4,59.940851158681774,
N,right,Target,0,41,41,41,1931.8799462849206,1933.8802257034226,left,0,4,0.7058287790150644,B03E01,2022-08-23_09h08.50.191,t1_Paradigm,2021.1.4,59.940851158681774,
Z,right,Target,0,42,42,42,1935.380352099392,1937.3812201894784,right,1,4,0.9491342838473429,B03E01,2022-08-23_09h08.50.191,t1_Paradigm,2021.1.4,59.940851158681774,
P,right,Target,0,43,43,43,1938.8801904152074,1940.8813308661524,left,0,4,0.7927914517831596,B03E01,2022-08-23_09h08.50.191,t1_Paradigm,2021.1.4,59.940851158681774,
X,left,Pretarget,0,44,44,44,1942.3798468363152,1944.380317773583,left,1,4,1.0856258910271208,B03E01,2022-08-23_09h08.50.191,t1_Paradigm,2021.1.4,59.940851158681774,
Z,left,Lure,0,45,45,45,1945.8798981646282,1947.8801708462884,left,1,4,0.7862753225026609,B03E01,2022-08-23_09h08.50.191,t1_Paradigm,2021.1.4,59.940851158681774,
R,left,Pretarget,0,46,46,46,1949.3798080192787,1951.3801862447822,left,1,4,1.02988719320183,B03E01,2022-08-23_09h08.50.191,t1_Paradigm,2021.1.4,59.940851158681774,
K,left,Distractor,0,47,47,47,1952.8799700242657,1954.8807085103622,left,1,4,0.5692197583211964,B03E01,2022-08-23_09h08.50.191,t1_Paradigm,2021.1.4,59.940851158681774,
X,right,Target,0,48,48,48,1956.379804811259,1958.3797339140278,left,0,4,0.47812002356022276,B03E01,2022-08-23_09h08.50.191,t1_Paradigm,2021.1.4,59.940851158681774,
B,left,Distractor,0,49,49,49,1959.8800569615946,1961.8798904653809,left,1,4,0.482248744701792,B03E01,2022-08-23_09h08.50.191,t1_Paradigm,2021.1.4,59.940851158681774,
R,right,Target,0,50,50,50,1963.3803094327327,1965.3796857937346,left,0,4,1.3983635250742736,B03E01,2022-08-23_09h08.50.191,t1_Paradigm,2021.1.4,59.940851158681774,
Y,left,Pretarget,0,51,51,51,1966.8798609516011,1968.88062606426,left,1,4,0.7934577574405921,B03E01,2022-08-23_09h08.50.191,t1_Paradigm,2021.1.4,59.940851158681774,
W,left,Pretarget,0,52,52,52,1970.3798513275428,1972.3812885202947,left,1,4,0.7166009878137629,B03E01,2022-08-23_09h08.50.191,t1_Paradigm,2021.1.4,59.940851158681774,
Z,left,Distractor,0,53,53,53,1973.880318415187,1975.8803026958908,right,0,4,1.0257023317162748,B03E01,2022-08-23_09h08.50.191,t1_Paradigm,2021.1.4,59.940851158681774,
Q,left,Distractor,0,54,54,54,1977.3798619140075,1979.381250986466,left,1,4,0.5808587739984432,B03E01,2022-08-23_09h08.50.191,t1_Paradigm,2021.1.4,59.940851158681774,
Y,right,Target,0,55,55,55,1980.8802828061703,1982.8797303852057,right,1,4,0.6341048406447953,B03E01,2022-08-23_09h08.50.191,t1_Paradigm,2021.1.4,59.940851158681774,
W,right,Target,0,56,56,56,1984.3799058638747,1986.3797400092649,right,1,4,0.4780921137898986,B03E01,2022-08-23_09h08.50.191,t1_Paradigm,2021.1.4,59.940851158681774,
H,left,Pretarget,0,57,57,57,1987.8801750167136,1989.8796886809519,left,1,4,0.4182179579802323,B03E01,2022-08-23_09h08.50.191,t1_Paradigm,2021.1.4,59.940851158681774,
M,left,Distractor,0,58,58,58,1991.3801515981709,1993.3796296533924,left,1,4,0.5341387814914924,B03E01,2022-08-23_09h08.50.191,t1_Paradigm,2021.1.4,59.940851158681774,
R,left,Pretarget,0,59,59,59,1994.880174054308,1996.8804339038902,left,1,4,0.6976701437324664,B03E01,2022-08-23_09h08.50.191,t1_Paradigm,2021.1.4,59.940851158681774,
J,left,Distractor,0,60,60,60,1998.379945964119,2000.379783317528,left,1,4,0.7180410677829059,B03E01,2022-08-23_09h08.50.191,t1_Paradigm,2021.1.4,59.940851158681774,
H,right,Target,0,61,61,61,2001.8798907861833,2003.8808403599655,left,0,4,0.577017491405968,B03E01,2022-08-23_09h08.50.191,t1_Paradigm,2021.1.4,59.940851158681774,
Z,left,Distractor,0,62,62,62,2005.3801734127042,2007.380969643153,left,1,4,0.8529540085492044,B03E01,2022-08-23_09h08.50.191,t1_Paradigm,2021.1.4,59.940851158681774,
R,right,Target,0,63,63,63,2008.8802661244686,2010.8800749265042,left,0,4,0.7140127576521991,B03E01,2022-08-23_09h08.50.191,t1_Paradigm,2021.1.4,59.940851158681774,
J,left,Pretarget,0,0,0,0,2018.345038220345,2020.34685203459,left,1,4,0.27106481867667753,B03E01,2022-08-23_09h08.50.191,t1_Paradigm,2021.1.4,59.940851158681774,
G,left,Pretarget,0,1,1,1,2021.8469611072546,2023.8468812275682,left,1,4,0.33905398070328374,B03E01,2022-08-23_09h08.50.191,t1_Paradigm,2021.1.4,59.940851158681774,
Z,left,Distractor,0,2,2,2,2025.3469264606433,2027.3470377789213,left,1,4,0.3270591956597855,B03E01,2022-08-23_09h08.50.191,t1_Paradigm,2021.1.4,59.940851158681774,
F,left,Distractor,0,3,3,3,2028.8464385208722,2030.8466614782296,left,1,4,0.5712148256698129,B03E01,2022-08-23_09h08.50.191,t1_Paradigm,2021.1.4,59.940851158681774,
J,right,Target,0,4,4,4,2032.3464584105927,2034.346389117371,right,1,4,0.4477108855799088,B03E01,2022-08-23_09h08.50.191,t1_Paradigm,2021.1.4,59.940851158681774,
G,right,Target,0,5,5,5,2035.8463801349167,2037.8473973979112,right,1,4,0.4344954491034514,B03E01,2022-08-23_09h08.50.191,t1_Paradigm,2021.1.4,59.940851158681774,
H,left,Distractor,0,6,6,6,2039.3464208767641,2041.347020134814,left,1,4,0.3909658320253584,B03E01,2022-08-23_09h08.50.191,t1_Paradigm,2021.1.4,59.940851158681774,
P,left,Distractor,0,7,7,7,2042.8466804055447,2044.8470474029796,left,1,4,0.6347968104591928,B03E01,2022-08-23_09h08.50.191,t1_Paradigm,2021.1.4,59.940851158681774,
G,left,Lure,0,8,8,8,2046.3463759644915,2048.347508716189,left,1,4,0.622262115727608,B03E01,2022-08-23_09h08.50.191,t1_Paradigm,2021.1.4,59.940851158681774,
S,left,Distractor,0,9,9,9,2049.8465844857606,2051.8464237639823,left,1,4,0.4998793784661757,B03E01,2022-08-23_09h08.50.191,t1_Paradigm,2021.1.4,59.940851158681774,
R,left,Pretarget,0,10,10,10,2053.3465533679714,2055.346921648614,left,1,4,0.8390347325857874,B03E01,2022-08-23_09h08.50.191,t1_Paradigm,2021.1.4,59.940851158681774,
T,left,Pretarget,0,11,11,11,2056.8468164255733,2058.8464542401675,left,1,4,1.0353963251491223,B03E01,2022-08-23_09h08.50.191,t1_Paradigm,2021.1.4,59.940851158681774,
X,left,Distractor,0,12,12,12,2060.3465562551887,2062.3464500697423,left,1,4,0.5275812687586949,B03E01,2022-08-23_09h08.50.191,t1_Paradigm,2021.1.4,59.940851158681774,
F,left,Pretarget,0,13,13,13,2063.8469145909708,2065.848501277433,left,1,4,0.65758850605107,B03E01,2022-08-23_09h08.50.191,t1_Paradigm,2021.1.4,59.940851158681774,
R,right,Target,0,14,14,14,2067.3465857689685,2069.3473293878974,right,1,4,0.66270690122019,B03E01,2022-08-23_09h08.50.191,t1_Paradigm,2021.1.4,59.940851158681774,
T,right,Target,0,15,15,15,2070.8463839845394,2072.84631501212,right,1,4,0.4114981194588836,B03E01,2022-08-23_09h08.50.191,t1_Paradigm,2021.1.4,59.940851158681774,
C,left,Distractor,0,16,16,16,2074.346494340412,2076.3460333480048,left,1,4,0.4480547852745076,B03E01,2022-08-23_09h08.50.191,t1_Paradigm,2021.1.4,59.940851158681774,
F,right,Target,0,17,17,17,2077.8468347112844,2079.848154490521,left,0,4,0.38579065491012443,B03E01,2022-08-23_09h08.50.191,t1_Paradigm,2021.1.4,59.940851158681774,
M,left,Distractor,0,18,18,18,2081.3465998842544,2083.3466419093106,left,1,4,0.5195993953520883,B03E01,2022-08-23_09h08.50.191,t1_Paradigm,2021.1.4,59.940851158681774,
N,left,Distractor,0,19,19,19,2084.8463807765206,2086.846285819142,left,1,4,0.49177078828688536,B03E01,2022-08-23_09h08.50.191,t1_Paradigm,2021.1.4,59.940851158681774,
R,left,Lure,0,20,20,20,2088.346368265244,2090.3490049365005,left,1,4,0.5568890936319804,B03E01,2022-08-23_09h08.50.191,t1_Paradigm,2021.1.4,59.940851158681774,
F,right,Target,0,21,21,21,2091.8465514431596,2093.846720505789,right,1,4,0.4510818725084391,B03E01,2022-08-23_09h08.50.191,t1_Paradigm,2021.1.4,59.940851158681774,
P,left,Distractor,0,22,22,22,2095.3465116637176,2097.346765097261,left,1,4,0.47111467129980156,B03E01,2022-08-23_09h08.50.191,t1_Paradigm,2021.1.4,59.940851158681774,
L,left,Pretarget,0,23,23,23,2098.846410611102,2100.848455402754,left,1,4,0.5694135227004153,B03E01,2022-08-23_09h08.50.191,t1_Paradigm,2021.1.4,59.940851158681774,
T,left,Distractor,0,24,24,24,2102.346226470781,2104.346743282728,left,1,4,0.4473146951677336,B03E01,2022-08-23_09h08.50.191,t1_Paradigm,2021.1.4,59.940851158681774,
F,left,Distractor,0,25,25,25,2105.8462890271617,2107.8469649568774,right,0,4,0.4508829752976453,B03E01,2022-08-23_09h08.50.191,t1_Paradigm,2021.1.4,59.940851158681774,
V,left,Distractor,0,26,26,26,2109.34657935293,2111.346450390544,left,1,4,0.2953559425995991,B03E01,2022-08-23_09h08.50.191,t1_Paradigm,2021.1.4,59.940851158681774,
L,right,Target,0,27,27,27,2112.846253418145,2114.8468529969964,left,0,4,0.5550521816458058,B03E01,2022-08-23_09h08.50.191,t1_Paradigm,2021.1.4,59.940851158681774,
S,left,Pretarget,0,28,28,28,2116.3465171173507,2118.346752906786,left,1,4,0.5110689506054769,B03E01,2022-08-23_09h08.50.191,t1_Paradigm,2021.1.4,59.940851158681774,
W,left,Distractor,0,29,29,29,2119.8469007964873,2121.846894380448,left,1,4,0.7230869617096687,B03E01,2022-08-23_09h08.50.191,t1_Paradigm,2021.1.4,59.940851158681774,
Q,left,Distractor,0,30,30,30,2123.3458026914,2125.346911382952,left,1,4,1.110910859402793,B03E01,2022-08-23_09h08.50.191,t1_Paradigm,2021.1.4,59.940851158681774,
L,right,Target,0,31,31,31,2126.84646931786,2128.8468090471283,right,1,4,0.49124948511234834,B03E01,2022-08-23_09h08.50.191,t1_Paradigm,2021.1.4,59.940851158681774,
S,right,Target,0,32,32,32,2130.346409327894,2132.346237378047,right,1,4,0.4797172964863421,B03E01,2022-08-23_09h08.50.191,t1_Paradigm,2021.1.4,59.940851158681774,
Z,left,Pretarget,0,33,33,33,2133.8465690872667,2135.846668535873,left,1,4,0.46712870702685905,B03E01,2022-08-23_09h08.50.191,t1_Paradigm,2021.1.4,59.940851158681774,
F,left,Distractor,0,34,34,34,2137.3465440647146,2139.3464683554535,left,1,4,0.43948295707559737,B03E01,2022-08-23_09h08.50.191,t1_Paradigm,2021.1.4,59.940851158681774,
V,left,Distractor,0,35,35,35,2140.8468828315777,2142.847202350323,right,0,4,1.274789008555672,B03E01,2022-08-23_09h08.50.191,t1_Paradigm,2021.1.4,59.940851158681774,
M,left,Distractor,0,36,36,36,2144.3464981900356,2146.346334581039,left,1,4,0.5434936872588878,B03E01,2022-08-23_09h08.50.191,t1_Paradigm,2021.1.4,59.940851158681774,
Z,right,Target,0,37,37,37,2147.8469264606433,2149.8485696082494,right,1,4,0.9775130662637821,B03E01,2022-08-23_09h08.50.191,t1_Paradigm,2021.1.4,59.940851158681774,
H,left,Pretarget,0,38,38,38,2151.3464382000698,2153.346557859199,left,1,4,0.519310673594191,B03E01,2022-08-23_09h08.50.191,t1_Paradigm,2021.1.4,59.940851158681774,
L,left,Distractor,0,39,39,39,2154.846593468216,2156.847132094696,left,1,4,0.5068192871267456,B03E01,2022-08-23_09h08.50.191,t1_Paradigm,2021.1.4,59.940851158681774,
G,left,Distractor,0,40,40,40,2158.34639713742,2160.346851392986,left,1,4,0.5429919530042753,B03E01,2022-08-23_09h08.50.191,t1_Paradigm,2021.1.4,59.940851158681774,
K,left,Distractor,0,41,41,41,2161.8464109319043,2163.847987031902,left,1,4,0.513994022818224,B03E01,2022-08-23_09h08.50.191,t1_Paradigm,2021.1.4,59.940851158681774,
H,right,Target,0,42,42,42,2165.346485037155,2167.347491713686,right,1,4,0.7265041441196445,B03E01,2022-08-23_09h08.50.191,t1_Paradigm,2021.1.4,59.940851158681774,
B,left,Distractor,0,43,43,43,2168.84660565869,2170.848459252378,left,1,4,0.5215476256162219,B03E01,2022-08-23_09h08.50.191,t1_Paradigm,2021.1.4,59.940851158681774,
Z,left,Distractor,0,44,44,44,2172.346566520852,2174.3474124756026,left,1,4,0.5903413589421689,B03E01,2022-08-23_09h08.50.191,t1_Paradigm,2021.1.4,59.940851158681774,
T,left,Pretarget,0,45,45,45,2175.846277799093,2177.8468228416127,left,1,4,0.7550568011938594,B03E01,2022-08-23_09h08.50.191,t1_Paradigm,2021.1.4,59.940851158681774,
H,right,Target,0,46,46,46,2179.346457127385,2181.3469784305594,left,0,4,0.5991419189349472,B03E01,2022-08-23_09h08.50.191,t1_Paradigm,2021.1.4,59.940851158681774,
F,left,Distractor,0,47,47,47,2182.8465312326366,2184.847711142222,left,1,4,0.6501025924653732,B03E01,2022-08-23_09h08.50.191,t1_Paradigm,2021.1.4,59.940851158681774,
R,left,Distractor,0,48,48,48,2186.3463791725103,2188.34668457597,left,1,4,0.7671141426180839,B03E01,2022-08-23_09h08.50.191,t1_Paradigm,2021.1.4,59.940851158681774,
T,right,Target,0,49,49,49,2189.8464035534594,2191.846793969437,left,0,4,0.771111014158123,B03E01,2022-08-23_09h08.50.191,t1_Paradigm,2021.1.4,59.940851158681774,
H,right,Target,0,50,50,50,2193.3463137289123,2195.348393808779,right,1,4,0.437547558890401,B03E01,2022-08-23_09h08.50.191,t1_Paradigm,2021.1.4,59.940851158681774,
Y,left,Pretarget,0,51,51,51,2196.8464837539473,2198.846452636158,left,1,4,0.4915301868222741,B03E01,2022-08-23_09h08.50.191,t1_Paradigm,2021.1.4,59.940851158681774,
H,left,Distractor,0,52,52,52,2200.346298009616,2202.347921588303,left,1,4,0.7179534888491617,B03E01,2022-08-23_09h08.50.191,t1_Paradigm,2021.1.4,59.940851158681774,
S,left,Distractor,0,53,53,53,2203.846389117371,2205.84862061576,left,1,4,0.7852372073803053,B03E01,2022-08-23_09h08.50.191,t1_Paradigm,2021.1.4,59.940851158681774,
Q,left,Distractor,0,54,54,54,2207.3464786211166,2209.3461154733045,left,1,4,0.5037123202073417,B03E01,2022-08-23_09h08.50.191,t1_Paradigm,2021.1.4,59.940851158681774,
Y,right,Target,0,55,55,55,2210.8463483755227,2212.846719864185,right,1,4,0.4110900593741462,B03E01,2022-08-23_09h08.50.191,t1_Paradigm,2021.1.4,59.940851158681774,
R,left,Distractor,0,56,56,56,2214.3464763755023,2216.347337087144,left,1,4,0.5424943891739531,B03E01,2022-08-23_09h08.50.191,t1_Paradigm,2021.1.4,59.940851158681774,
H,left,Pretarget,0,57,57,57,2217.8463602451952,2219.8478949617415,left,1,4,0.7060719468963725,B03E01,2022-08-23_09h08.50.191,t1_Paradigm,2021.1.4,59.940851158681774,
J,left,Distractor,0,58,58,58,2221.346354791562,2223.3477249367056,left,1,4,0.5499735659195721,B03E01,2022-08-23_09h08.50.191,t1_Paradigm,2021.1.4,59.940851158681774,
V,left,Distractor,0,59,59,59,2224.846675914318,2226.8467740797155,left,1,4,0.3951215005317863,B03E01,2022-08-23_09h08.50.191,t1_Paradigm,2021.1.4,59.940851158681774,
Y,left,Lure,0,60,60,60,2228.3467727965076,2230.347495242507,left,1,4,0.4145742893915667,B03E01,2022-08-23_09h08.50.191,t1_Paradigm,2021.1.4,59.940851158681774,
H,right,Target,0,61,61,61,2231.84667463111,2233.8463422802856,left,0,4,0.9156201037603751,B03E01,2022-08-23_09h08.50.191,t1_Paradigm,2021.1.4,59.940851158681774,
L,left,Distractor,0,62,62,62,2235.346384946946,2237.3484987110173,left,1,4,0.437441694244626,B03E01,2022-08-23_09h08.50.191,t1_Paradigm,2021.1.4,59.940851158681774,
P,left,Distractor,0,63,63,63,2238.8467172977694,2240.8485109014923,left,1,4,0.47349181377558125,B03E01,2022-08-23_09h08.50.191,t1_Paradigm,2021.1.4,59.940851158681774,
