Letter,CorrAnswer,Stimulus,nback_run.thisRepN,nback_run.thisTrialN,nback_run.thisN,nback_run.thisIndex,fixcross.started,nback_trial.started,trial_resp.keys,trial_resp.corr,currentlevel,trial_resp.rt,Participant,date,expName,psychopyVersion,frameRate,
H,left,Distractor,0,0,0,0,222.71206094988156,224.64738751383265,left,1,1,0.9485436214017682,B03I09,2022-09-22_12h02.58.993,t1_Paradigm,2021.1.4,59.97802666965467,
Q,left,Pretarget,0,1,1,1,226.14764030609513,228.14912658347748,left,1,1,0.6307965779560618,B03I09,2022-09-22_12h02.58.993,t1_Paradigm,2021.1.4,59.97802666965467,
Q,right,Target,0,2,2,2,229.64588006353006,231.64595481049037,right,1,1,0.4943747305078432,B03I09,2022-09-22_12h02.58.993,t1_Paradigm,2021.1.4,59.97802666965467,
T,left,Distractor,0,3,3,3,233.14657620462822,235.14960907021305,left,1,1,0.4463644109782763,B03I09,2022-09-22_12h02.58.993,t1_Paradigm,2021.1.4,59.97802666965467,
Q,left,Lure,0,4,4,4,236.64590187807335,238.64608377299737,left,1,1,0.4699613497359678,B03I09,2022-09-22_12h02.58.993,t1_Paradigm,2021.1.4,59.97802666965467,
L,left,Distractor,0,5,5,5,240.12947968422668,242.13097109441878,left,1,1,0.44115458050509915,B03I09,2022-09-22_12h02.58.993,t1_Paradigm,2021.1.4,59.97802666965467,
V,left,Pretarget,0,6,6,6,243.64572062477237,245.64734163909452,left,1,1,0.5726643021334894,B03I09,2022-09-22_12h02.58.993,t1_Paradigm,2021.1.4,59.97802666965467,
V,right,Target,0,7,7,7,247.1458762139082,249.14616525679594,right,1,1,0.6579476860933937,B03I09,2022-09-22_12h02.58.993,t1_Paradigm,2021.1.4,59.97802666965467,
K,left,Distractor,0,8,8,8,250.66286943596788,252.64627529203426,left,1,1,0.4856979890028015,B03I09,2022-09-22_12h02.58.993,t1_Paradigm,2021.1.4,59.97802666965467,
G,left,Pretarget,0,9,9,9,254.14614344225265,256.1469271624228,left,1,1,0.7294256610912271,B03I09,2022-09-22_12h02.58.993,t1_Paradigm,2021.1.4,59.97802666965467,
G,right,Target,0,10,10,10,257.6463022394455,259.6460420687217,right,1,1,0.4460750471916981,B03I09,2022-09-22_12h02.58.993,t1_Paradigm,2021.1.4,59.97802666965467,
G,right,Target,0,11,11,11,261.14603244466707,263.1460812066216,right,1,1,0.5141547627863474,B03I09,2022-09-22_12h02.58.993,t1_Paradigm,2021.1.4,59.97802666965467,
P,left,Pretarget,0,12,12,12,264.64605842961464,266.64660283125704,left,1,1,0.5172752073849551,B03I09,2022-09-22_12h02.58.993,t1_Paradigm,2021.1.4,59.97802666965467,
P,right,Target,0,13,13,13,268.14620760275284,270.145984645118,right,1,1,0.506137911695987,B03I09,2022-09-22_12h02.58.993,t1_Paradigm,2021.1.4,59.97802666965467,
G,left,Lure,0,14,14,14,271.64642029470997,273.645982078684,left,1,1,0.7181138488813303,B03I09,2022-09-22_12h02.58.993,t1_Paradigm,2021.1.4,59.97802666965467,
Y,left,Distractor,0,15,15,15,275.1461232317379,277.14843846240547,left,1,1,0.8638392857392319,B03I09,2022-09-22_12h02.58.993,t1_Paradigm,2021.1.4,59.97802666965467,
B,left,Distractor,0,16,16,16,278.64588583796285,280.64676676125964,left,1,1,0.437328691536095,B03I09,2022-09-22_12h02.58.993,t1_Paradigm,2021.1.4,59.97802666965467,
T,left,Pretarget,0,17,17,17,282.1460459183436,284.1475004362874,left,1,1,0.5686019817949273,B03I09,2022-09-22_12h02.58.993,t1_Paradigm,2021.1.4,59.97802666965467,
T,right,Target,0,18,18,18,285.64592240942875,287.6460837729974,right,1,1,0.4943577279918827,B03I09,2022-09-22_12h02.58.993,t1_Paradigm,2021.1.4,59.97802666965467,
S,left,Distractor,0,19,19,19,289.14599394833203,291.1471510825213,left,1,1,0.44897542137186974,B03I09,2022-09-22_12h02.58.993,t1_Paradigm,2021.1.4,59.97802666965467,
T,left,Lure,0,20,20,20,292.64591503096744,294.64579505089205,left,1,1,0.7583431070670485,B03I09,2022-09-22_12h02.58.993,t1_Paradigm,2021.1.4,59.97802666965467,
J,left,Distractor,0,21,21,21,296.14596892578993,298.1498063636827,left,1,1,0.47038801689632237,B03I09,2022-09-22_12h02.58.993,t1_Paradigm,2021.1.4,59.97802666965467,
P,left,Distractor,0,22,22,22,299.6459483944345,301.64771986508276,left,1,1,0.5244387242128141,B03I09,2022-09-22_12h02.58.993,t1_Paradigm,2021.1.4,59.97802666965467,
F,left,Distractor,0,23,23,23,303.14623422932345,305.14817187562585,left,1,1,0.5604927396052517,B03I09,2022-09-22_12h02.58.993,t1_Paradigm,2021.1.4,59.97802666965467,
L,left,Distractor,0,24,24,24,306.6462566854898,308.64635420939885,left,1,1,0.5496852287324145,B03I09,2022-09-22_12h02.58.993,t1_Paradigm,2021.1.4,59.97802666965467,
W,left,Pretarget,0,25,25,25,310.14599715638906,312.147474772064,left,1,1,0.48865386191755533,B03I09,2022-09-22_12h02.58.993,t1_Paradigm,2021.1.4,59.97802666965467,
W,right,Target,0,26,26,26,313.64596796338446,315.64632469561184,right,1,1,0.7177702696062624,B03I09,2022-09-22_12h02.58.993,t1_Paradigm,2021.1.4,59.97802666965467,
V,left,Distractor,0,27,27,27,317.14647739753127,319.1477362260339,left,1,1,0.4647951484657824,B03I09,2022-09-22_12h02.58.993,t1_Paradigm,2021.1.4,59.97802666965467,
W,left,Lure,0,28,28,28,320.6460244245827,322.64600870525464,left,1,1,0.8221526223351248,B03I09,2022-09-22_12h02.58.993,t1_Paradigm,2021.1.4,59.97802666965467,
R,left,Pretarget,0,29,29,29,324.1458495872794,326.16232760075945,left,1,1,0.4259078065515496,B03I09,2022-09-22_12h02.58.993,t1_Paradigm,2021.1.4,59.97802666965467,
R,right,Target,0,30,30,30,327.6457722739433,329.646063883265,right,1,1,0.47800290264422074,B03I09,2022-09-22_12h02.58.993,t1_Paradigm,2021.1.4,59.97802666965467,
G,left,Distractor,0,31,31,31,331.1461254773312,333.14714145840844,left,1,1,0.5610079481848516,B03I09,2022-09-22_12h02.58.993,t1_Paradigm,2021.1.4,59.97802666965467,
R,left,Lure,0,32,32,32,334.6463272620458,336.64776349422755,left,1,1,0.5482242947327904,B03I09,2022-09-22_12h02.58.993,t1_Paradigm,2021.1.4,59.97802666965467,
S,left,Distractor,0,33,33,33,338.14583001832943,340.14609852992,left,1,1,0.601946500421036,B03I09,2022-09-22_12h02.58.993,t1_Paradigm,2021.1.4,59.97802666965467,
R,left,Lure,0,34,34,34,341.64595192327397,343.6461780889076,left,1,1,0.6379113327711821,B03I09,2022-09-22_12h02.58.993,t1_Paradigm,2021.1.4,59.97802666965467,
P,left,Pretarget,0,35,35,35,345.14616236957954,347.146031803044,left,1,1,0.4180170307517983,B03I09,2022-09-22_12h02.58.993,t1_Paradigm,2021.1.4,59.97802666965467,
P,right,Target,0,36,36,36,348.645964434545,350.6458576073637,right,1,1,0.6465707510360517,B03I09,2022-09-22_12h02.58.993,t1_Paradigm,2021.1.4,59.97802666965467,
Y,left,Pretarget,0,37,37,37,352.14617135206936,354.14631475071656,left,1,1,0.4259193554171361,B03I09,2022-09-22_12h02.58.993,t1_Paradigm,2021.1.4,59.97802666965467,
Y,right,Target,0,38,38,38,355.64635549264494,357.64646103658015,right,1,1,0.7497132027056068,B03I09,2022-09-22_12h02.58.993,t1_Paradigm,2021.1.4,59.97802666965467,
J,left,Distractor,0,39,39,39,359.1463237332064,361.1464190115221,left,1,1,0.48176110233180225,B03I09,2022-09-22_12h02.58.993,t1_Paradigm,2021.1.4,59.97802666965467,
Y,left,Lure,0,40,40,40,362.6460783194052,364.6458717226633,left,1,1,0.4223238025442697,B03I09,2022-09-22_12h02.58.993,t1_Paradigm,2021.1.4,59.97802666965467,
T,left,Distractor,0,41,41,41,366.1458313015755,368.14939830306685,left,1,1,0.5827201730571687,B03I09,2022-09-22_12h02.58.993,t1_Paradigm,2021.1.4,59.97802666965467,
V,left,Distractor,0,42,42,42,369.6458935372066,371.6454537171521,left,1,1,0.6067514782771468,B03I09,2022-09-22_12h02.58.993,t1_Paradigm,2021.1.4,59.97802666965467,
N,left,Pretarget,0,43,43,43,373.14590219885577,375.14900147053413,left,1,1,0.47931947553297505,B03I09,2022-09-22_12h02.58.993,t1_Paradigm,2021.1.4,59.97802666965467,
N,right,Target,0,44,44,44,376.6460035724449,378.6459775874391,right,1,1,0.7582484704325907,B03I09,2022-09-22_12h02.58.993,t1_Paradigm,2021.1.4,59.97802666965467,
N,right,Target,0,45,45,45,380.1460648456705,382.1463214875548,right,1,1,0.5379072906798683,B03I09,2022-09-22_12h02.58.993,t1_Paradigm,2021.1.4,59.97802666965467,
X,left,Distractor,0,46,46,46,383.6461851465865,385.64884684380377,left,1,1,0.47549166169483215,B03I09,2022-09-22_12h02.58.993,t1_Paradigm,2021.1.4,59.97802666965467,
Z,left,Distractor,0,47,47,47,387.1462114523747,389.14792774501257,left,1,1,0.6564177796244621,B03I09,2022-09-22_12h02.58.993,t1_Paradigm,2021.1.4,59.97802666965467,
H,left,Pretarget,0,48,48,48,390.6463975177612,392.6462656679796,left,1,1,0.46998412668472156,B03I09,2022-09-22_12h02.58.993,t1_Paradigm,2021.1.4,59.97802666965467,
H,right,Target,0,49,49,49,394.146520385053,396.1462271717028,right,1,1,0.7300922884023748,B03I09,2022-09-22_12h02.58.993,t1_Paradigm,2021.1.4,59.97802666965467,
K,left,Distractor,0,50,50,50,397.646031803044,399.6463782695937,left,1,1,0.5258733523660339,B03I09,2022-09-22_12h02.58.993,t1_Paradigm,2021.1.4,59.97802666965467,
V,left,Pretarget,0,51,51,51,401.1465367459459,403.1471963156364,left,1,1,0.6251042608055286,B03I09,2022-09-22_12h02.58.993,t1_Paradigm,2021.1.4,59.97802666965467,
V,right,Target,0,52,52,52,404.64609820913756,406.64608601864893,right,1,1,0.677913783758413,B03I09,2022-09-22_12h02.58.993,t1_Paradigm,2021.1.4,59.97802666965467,
R,left,Distractor,0,53,53,53,408.145984645118,410.1587265942362,left,1,1,0.4455569513957016,B03I09,2022-09-22_12h02.58.993,t1_Paradigm,2021.1.4,59.97802666965467,
V,left,Lure,0,54,54,54,411.6458078830037,413.6466166257742,left,1,1,0.4938550306833349,B03I09,2022-09-22_12h02.58.993,t1_Paradigm,2021.1.4,59.97802666965467,
Y,left,Distractor,0,55,55,55,415.1463404149399,417.1461225901148,left,1,1,0.4822092632530257,B03I09,2022-09-22_12h02.58.993,t1_Paradigm,2021.1.4,59.97802666965467,
Q,left,Distractor,0,56,56,56,418.64614504628116,420.6464629613911,left,1,1,0.5495758351171389,B03I09,2022-09-22_12h02.58.993,t1_Paradigm,2021.1.4,59.97802666965467,
Z,left,Pretarget,0,57,57,57,422.12966639117803,424.12961827084655,left,1,1,0.5866548140766099,B03I09,2022-09-22_12h02.58.993,t1_Paradigm,2021.1.4,59.97802666965467,
Z,right,Target,0,58,58,58,425.6293892179383,427.6294886666583,right,1,1,0.6707422468462028,B03I09,2022-09-22_12h02.58.993,t1_Paradigm,2021.1.4,59.97802666965467,
B,left,Distractor,0,59,59,59,429.1293911427492,431.12963719817344,left,1,1,0.7546298197703436,B03I09,2022-09-22_12h02.58.993,t1_Paradigm,2021.1.4,59.97802666965467,
S,left,Pretarget,0,60,60,60,432.6291758843581,434.6311908439966,left,1,1,0.6292224007192999,B03I09,2022-09-22_12h02.58.993,t1_Paradigm,2021.1.4,59.97802666965467,
S,right,Target,0,61,61,61,436.146420936333,438.1463356028544,right,1,1,0.4260242577875033,B03I09,2022-09-22_12h02.58.993,t1_Paradigm,2021.1.4,59.97802666965467,
T,left,Distractor,0,62,62,62,439.6461922042072,441.6458380384138,left,1,1,0.4628966400632635,B03I09,2022-09-22_12h02.58.993,t1_Paradigm,2021.1.4,59.97802666965467,
D,left,Distractor,0,63,63,63,443.1460882642423,445.1480056999717,left,1,1,0.49648625164991245,B03I09,2022-09-22_12h02.58.993,t1_Paradigm,2021.1.4,59.97802666965467,
R,left,Distractor,0,0,0,0,455.08836052025435,457.079486164439,left,1,1,0.7088760240003467,B03I09,2022-09-22_12h02.58.993,t1_Paradigm,2021.1.4,59.97802666965467,
V,left,Distractor,0,1,1,1,458.57933763292385,460.57918108138256,left,1,1,0.6169594094972126,B03I09,2022-09-22_12h02.58.993,t1_Paradigm,2021.1.4,59.97802666965467,
N,left,Pretarget,0,2,2,2,462.07925005385187,464.0804771229159,left,1,1,0.6517517092288472,B03I09,2022-09-22_12h02.58.993,t1_Paradigm,2021.1.4,59.97802666965467,
N,right,Target,0,3,3,3,465.5792009711149,467.5797306158347,right,1,1,0.5923856275039725,B03I09,2022-09-22_12h02.58.993,t1_Paradigm,2021.1.4,59.97802666965467,
S,left,Distractor,0,4,4,4,469.07974312710576,471.07948263559956,left,1,1,0.5332238969276659,B03I09,2022-09-22_12h02.58.993,t1_Paradigm,2021.1.4,59.97802666965467,
N,left,Lure,0,5,5,5,472.57964913203614,474.57974473113427,left,1,1,0.6325507253059186,B03I09,2022-09-22_12h02.58.993,t1_Paradigm,2021.1.4,59.97802666965467,
Z,left,Distractor,0,6,6,6,476.07931549753994,478.0815409035422,left,1,1,0.650662585219834,B03I09,2022-09-22_12h02.58.993,t1_Paradigm,2021.1.4,59.97802666965467,
L,left,Pretarget,0,7,7,7,479.57958785875235,481.5794819939765,left,1,1,0.4809655125136487,B03I09,2022-09-22_12h02.58.993,t1_Paradigm,2021.1.4,59.97802666965467,
L,right,Target,0,8,8,8,483.07921316160355,485.0797235581558,right,1,1,0.5005421559908427,B03I09,2022-09-22_12h02.58.993,t1_Paradigm,2021.1.4,59.97802666965467,
H,left,Distractor,0,9,9,9,486.579834876582,488.5796090317308,left,1,1,0.6486983122886159,B03I09,2022-09-22_12h02.58.993,t1_Paradigm,2021.1.4,59.97802666965467,
L,left,Lure,0,10,10,10,490.079553532938,492.0791951966821,left,1,1,0.9892078876728192,B03I09,2022-09-22_12h02.58.993,t1_Paradigm,2021.1.4,59.97802666965467,
X,left,Pretarget,0,11,11,11,493.5793851116905,495.579834876582,left,1,1,0.5612443795544095,B03I09,2022-09-22_12h02.58.993,t1_Paradigm,2021.1.4,59.97802666965467,
X,right,Target,0,12,12,12,497.0795362095814,499.0792429962312,right,1,1,0.7411304562119767,B03I09,2022-09-22_12h02.58.993,t1_Paradigm,2021.1.4,59.97802666965467,
X,right,Target,0,13,13,13,500.57952947274316,502.5792962494306,right,1,1,0.6331762899062596,B03I09,2022-09-22_12h02.58.993,t1_Paradigm,2021.1.4,59.97802666965467,
R,left,Distractor,0,14,14,14,504.0793546354398,506.07983102696016,left,1,1,0.6364410955575295,B03I09,2022-09-22_12h02.58.993,t1_Paradigm,2021.1.4,59.97802666965467,
T,left,Distractor,0,15,15,15,507.57955128728645,509.57925262028584,left,1,1,0.5134454687358811,B03I09,2022-09-22_12h02.58.993,t1_Paradigm,2021.1.4,59.97802666965467,
V,left,Pretarget,0,16,16,16,511.0793703547679,513.0792956078076,left,1,1,0.5971521090832539,B03I09,2022-09-22_12h02.58.993,t1_Paradigm,2021.1.4,59.97802666965467,
V,right,Target,0,17,17,17,514.5795188862248,516.5796587560908,right,1,1,0.6488298412878066,B03I09,2022-09-22_12h02.58.993,t1_Paradigm,2021.1.4,59.97802666965467,
N,left,Distractor,0,18,18,18,518.0798236484989,520.0810439807246,left,1,1,0.6992468202370219,B03I09,2022-09-22_12h02.58.993,t1_Paradigm,2021.1.4,59.97802666965467,
B,left,Distractor,0,19,19,19,521.5797139341012,523.5792773220455,left,1,1,0.576880928419996,B03I09,2022-09-22_12h02.58.993,t1_Paradigm,2021.1.4,59.97802666965467,
V,left,Lure,0,20,20,20,525.0795708562364,527.0814860463724,left,1,1,0.6109806158347055,B03I09,2022-09-22_12h02.58.993,t1_Paradigm,2021.1.4,59.97802666965467,
P,left,Distractor,0,21,21,21,528.5793119687005,530.5800013730186,left,1,1,0.6483556953608058,B03I09,2022-09-22_12h02.58.993,t1_Paradigm,2021.1.4,59.97802666965467,
K,left,Pretarget,0,22,22,22,532.0796632473357,534.0792866253178,left,1,1,0.525132619717624,B03I09,2022-09-22_12h02.58.993,t1_Paradigm,2021.1.4,59.97802666965467,
K,right,Target,0,23,23,23,535.5795095830108,537.5796642097412,right,1,1,0.6246153580141254,B03I09,2022-09-22_12h02.58.993,t1_Paradigm,2021.1.4,59.97802666965467,
J,left,Pretarget,0,24,24,24,539.0795548161259,541.0792314473074,left,1,1,0.5653548202244565,B03I09,2022-09-22_12h02.58.993,t1_Paradigm,2021.1.4,59.97802666965467,
J,right,Target,0,25,25,25,542.5795567409368,544.5795063749538,right,1,1,0.6489815808017738,B03I09,2022-09-22_12h02.58.993,t1_Paradigm,2021.1.4,59.97802666965467,
H,left,Distractor,0,26,26,26,546.0795400592033,548.0812897153082,left,1,1,0.49113013537134975,B03I09,2022-09-22_12h02.58.993,t1_Paradigm,2021.1.4,59.97802666965467,
J,left,Lure,0,27,27,27,549.5794325903989,551.5805130527588,left,1,1,0.43232545780483633,B03I09,2022-09-22_12h02.58.993,t1_Paradigm,2021.1.4,59.97802666965467,
V,left,Distractor,0,28,28,28,553.0794649914606,555.0798810721026,left,1,1,0.5003718099324033,B03I09,2022-09-22_12h02.58.993,t1_Paradigm,2021.1.4,59.97802666965467,
Z,left,Pretarget,0,29,29,29,556.5796112773241,558.5799737839843,left,1,1,0.6003139371750876,B03I09,2022-09-22_12h02.58.993,t1_Paradigm,2021.1.4,59.97802666965467,
Z,right,Target,0,30,30,30,560.0794139838545,562.0797091220738,right,1,1,0.76484609185718,B03I09,2022-09-22_12h02.58.993,t1_Paradigm,2021.1.4,59.97802666965467,
T,left,Distractor,0,31,31,31,563.5796144853812,565.5793321792735,left,1,1,0.6571678155451082,B03I09,2022-09-22_12h02.58.993,t1_Paradigm,2021.1.4,59.97802666965467,
Z,left,Lure,0,32,32,32,567.0790877278778,569.0795140741975,left,1,1,0.48475386755308136,B03I09,2022-09-22_12h02.58.993,t1_Paradigm,2021.1.4,59.97802666965467,
F,left,Distractor,0,33,33,33,570.5795439088251,572.5793283296516,left,1,1,0.6652388822985813,B03I09,2022-09-22_12h02.58.993,t1_Paradigm,2021.1.4,59.97802666965467,
Y,left,Pretarget,0,34,34,34,574.07959812443,576.0800398692954,left,1,1,0.5883964501554146,B03I09,2022-09-22_12h02.58.993,t1_Paradigm,2021.1.4,59.97802666965467,
Y,right,Target,0,35,35,35,577.5794059638283,579.5795990868355,right,1,1,0.5287195109413005,B03I09,2022-09-22_12h02.58.993,t1_Paradigm,2021.1.4,59.97802666965467,
Y,right,Target,0,36,36,36,581.0794056430459,583.0799067363259,right,1,1,0.644413034315221,B03I09,2022-09-22_12h02.58.993,t1_Paradigm,2021.1.4,59.97802666965467,
W,left,Distractor,0,37,37,37,584.5799850120675,586.579804721172,left,1,1,0.5525496730115265,B03I09,2022-09-22_12h02.58.993,t1_Paradigm,2021.1.4,59.97802666965467,
Q,left,Distractor,0,38,38,38,588.0794707658933,590.0815463571926,left,1,1,0.6827630322659388,B03I09,2022-09-22_12h02.58.993,t1_Paradigm,2021.1.4,59.97802666965467,
P,left,Pretarget,0,39,39,39,591.5795384551748,593.5798769016983,left,1,1,0.6406445689499378,B03I09,2022-09-22_12h02.58.993,t1_Paradigm,2021.1.4,59.97802666965467,
P,right,Target,0,40,40,40,595.0795099037932,597.0794544050004,right,1,1,0.6930149134714156,B03I09,2022-09-22_12h02.58.993,t1_Paradigm,2021.1.4,59.97802666965467,
J,left,Distractor,0,41,41,41,598.5792882293463,600.5800331324572,left,1,1,0.5044350926764309,B03I09,2022-09-22_12h02.58.993,t1_Paradigm,2021.1.4,59.97802666965467,
P,left,Lure,0,42,42,42,602.0795355679584,604.0806163511588,left,1,1,0.57187031628564,B03I09,2022-09-22_12h02.58.993,t1_Paradigm,2021.1.4,59.97802666965467,
L,left,Distractor,0,43,43,43,605.5794200791279,607.579333141679,left,1,1,0.6250824462040327,B03I09,2022-09-22_12h02.58.993,t1_Paradigm,2021.1.4,59.97802666965467,
Z,left,Distractor,0,44,44,44,609.0793719587964,611.0799686511746,left,1,1,0.5806240504607558,B03I09,2022-09-22_12h02.58.993,t1_Paradigm,2021.1.4,59.97802666965467,
F,left,Pretarget,0,45,45,45,612.5795920292148,614.5807982460828,left,1,1,0.5834753418457694,B03I09,2022-09-22_12h02.58.993,t1_Paradigm,2021.1.4,59.97802666965467,
F,right,Target,0,46,46,46,616.0796260342468,618.0799548566574,right,1,1,0.748608359368518,B03I09,2022-09-22_12h02.58.993,t1_Paradigm,2021.1.4,59.97802666965467,
G,left,Pretarget,0,47,47,47,619.5795487208525,621.579386074096,left,1,1,0.8009116561152041,B03I09,2022-09-22_12h02.58.993,t1_Paradigm,2021.1.4,59.97802666965467,
G,right,Target,0,48,48,48,623.0792449210421,625.0798935834318,right,1,1,0.6766382735222578,B03I09,2022-09-22_12h02.58.993,t1_Paradigm,2021.1.4,59.97802666965467,
V,left,Distractor,0,49,49,49,626.5797739241389,628.5800610422739,left,1,1,0.44046517624519765,B03I09,2022-09-22_12h02.58.993,t1_Paradigm,2021.1.4,59.97802666965467,
G,left,Lure,0,50,50,50,630.0799516486586,632.0804655740503,left,1,1,0.46021794027183205,B03I09,2022-09-22_12h02.58.993,t1_Paradigm,2021.1.4,59.97802666965467,
Q,left,Pretarget,0,51,51,51,633.5793726003612,635.5798637488042,left,1,1,0.6246824056725018,B03I09,2022-09-22_12h02.58.993,t1_Paradigm,2021.1.4,59.97802666965467,
Q,right,Target,0,52,52,52,637.0794588961871,639.0797492223792,right,1,1,0.4206716703483835,B03I09,2022-09-22_12h02.58.993,t1_Paradigm,2021.1.4,59.97802666965467,
Y,left,Distractor,0,53,53,53,640.5796051821089,642.5804081503884,left,1,1,0.47210559278028086,B03I09,2022-09-22_12h02.58.993,t1_Paradigm,2021.1.4,59.97802666965467,
V,left,Distractor,0,54,54,54,644.0794755779207,646.0793023446458,left,1,1,0.6532601219369099,B03I09,2022-09-22_12h02.58.993,t1_Paradigm,2021.1.4,59.97802666965467,
B,left,Distractor,0,55,55,55,647.5794736531097,649.5794752571383,left,1,1,0.5928020289866254,B03I09,2022-09-22_12h02.58.993,t1_Paradigm,2021.1.4,59.97802666965467,
J,left,Pretarget,0,56,56,56,651.0795596281532,653.0789366299869,left,1,1,0.5497692789649591,B03I09,2022-09-22_12h02.58.993,t1_Paradigm,2021.1.4,59.97802666965467,
J,right,Target,0,57,57,57,654.5795487208525,656.579953894252,right,1,1,1.2085978883551434,B03I09,2022-09-22_12h02.58.993,t1_Paradigm,2021.1.4,59.97802666965467,
H,left,Distractor,0,58,58,58,658.0798127411981,660.0795763098868,left,1,1,0.636891181289684,B03I09,2022-09-22_12h02.58.993,t1_Paradigm,2021.1.4,59.97802666965467,
J,left,Lure,0,59,59,59,661.5795949164312,663.5798788265092,left,1,1,1.4407038532663137,B03I09,2022-09-22_12h02.58.993,t1_Paradigm,2021.1.4,59.97802666965467,
D,left,Pretarget,0,60,60,60,665.0795862547238,667.0805730428547,left,1,1,0.6921092884149402,B03I09,2022-09-22_12h02.58.993,t1_Paradigm,2021.1.4,59.97802666965467,
D,right,Target,0,61,61,61,668.5800600798684,670.5795949164312,right,1,1,0.6007588900974952,B03I09,2022-09-22_12h02.58.993,t1_Paradigm,2021.1.4,59.97802666965467,
R,left,Distractor,0,62,62,62,672.0796549064689,674.079787077033,left,1,1,0.6687099638511427,B03I09,2022-09-22_12h02.58.993,t1_Paradigm,2021.1.4,59.97802666965467,
F,left,Distractor,0,63,63,63,675.5799202100025,677.5816024976084,left,1,1,0.5428935218369588,B03I09,2022-09-22_12h02.58.993,t1_Paradigm,2021.1.4,59.97802666965467,
F,left,Distractor,0,0,0,0,796.8526808170136,798.8463709552889,left,1,2,0.5264447013614699,B03I09,2022-09-22_12h02.58.993,t1_Paradigm,2021.1.4,59.97802666965467,
N,left,Pretarget,0,1,1,1,800.3461945140152,802.3480763406842,left,1,2,0.4967464223736897,B03I09,2022-09-22_12h02.58.993,t1_Paradigm,2021.1.4,59.97802666965467,
V,left,Distractor,0,2,2,2,803.846346895094,805.846705872973,left,1,2,0.6461780889658257,B03I09,2022-09-22_12h02.58.993,t1_Paradigm,2021.1.4,59.97802666965467,
N,right,Target,0,3,3,3,807.3462737521622,809.3466192563064,right,1,2,0.4901016430230811,B03I09,2022-09-22_12h02.58.993,t1_Paradigm,2021.1.4,59.97802666965467,
N,left,Lure,0,4,4,4,810.8466028954135,812.8464094515657,left,1,2,0.5102185177383944,B03I09,2022-09-22_12h02.58.993,t1_Paradigm,2021.1.4,59.97802666965467,
X,left,Distractor,0,5,5,5,814.3465615119203,816.3467097225948,left,1,2,0.482066826953087,B03I09,2022-09-22_12h02.58.993,t1_Paradigm,2021.1.4,59.97802666965467,
G,left,Pretarget,0,6,6,6,817.8300834984402,819.830188721593,left,1,2,0.5984609827282839,B03I09,2022-09-22_12h02.58.993,t1_Paradigm,2021.1.4,59.97802666965467,
H,left,Pretarget,0,7,7,7,821.329530114308,823.3296757586068,left,1,2,0.6189175871550106,B03I09,2022-09-22_12h02.58.993,t1_Paradigm,2021.1.4,59.97802666965467,
G,right,Target,0,8,8,8,824.8297896434669,826.8314337555785,right,1,2,0.6051622233353555,B03I09,2022-09-22_12h02.58.993,t1_Paradigm,2021.1.4,59.97802666965467,
H,right,Target,0,9,9,9,828.3461919475812,830.3463953362661,right,1,2,0.546467260166537,B03I09,2022-09-22_12h02.58.993,t1_Paradigm,2021.1.4,59.97802666965467,
T,left,Pretarget,0,10,10,10,831.8461909851758,833.8460068446002,left,1,2,0.4707052904414013,B03I09,2022-09-22_12h02.58.993,t1_Paradigm,2021.1.4,59.97802666965467,
K,left,Distractor,0,11,11,11,835.3300433981349,837.3300270371838,left,1,2,0.4907217539730482,B03I09,2022-09-22_12h02.58.993,t1_Paradigm,2021.1.4,59.97802666965467,
T,right,Target,0,12,12,12,838.8295034877374,840.8299413829809,right,1,2,0.47882736468454823,B03I09,2022-09-22_12h02.58.993,t1_Paradigm,2021.1.4,59.97802666965467,
T,left,Lure,0,13,13,13,842.3295249814983,844.3297909266548,left,1,2,0.7708890460198745,B03I09,2022-09-22_12h02.58.993,t1_Paradigm,2021.1.4,59.97802666965467,
J,left,Distractor,0,14,14,14,845.8296112773241,847.8302108569769,left,1,2,0.47046468866756186,B03I09,2022-09-22_12h02.58.993,t1_Paradigm,2021.1.4,59.97802666965467,
Q,left,Pretarget,0,15,15,15,849.3296516984119,851.3305993486429,left,1,2,0.6825015783542767,B03I09,2022-09-22_12h02.58.993,t1_Paradigm,2021.1.4,59.97802666965467,
M,left,Distractor,0,16,16,16,852.8298736936413,854.8319277912378,left,1,2,0.46090124937472865,B03I09,2022-09-22_12h02.58.993,t1_Paradigm,2021.1.4,59.97802666965467,
Q,right,Target,0,17,17,17,856.346282734652,858.347666034475,right,1,2,0.6572014997946098,B03I09,2022-09-22_12h02.58.993,t1_Paradigm,2021.1.4,59.97802666965467,
R,left,Distractor,0,18,18,18,859.8462782434071,861.8468508756487,left,1,2,0.533740067970939,B03I09,2022-09-22_12h02.58.993,t1_Paradigm,2021.1.4,59.97802666965467,
W,left,Distractor,0,19,19,19,863.3463080780348,865.3464399278164,left,1,2,0.9383347277762368,B03I09,2022-09-22_12h02.58.993,t1_Paradigm,2021.1.4,59.97802666965467,
C,left,Pretarget,0,20,20,20,866.8296664553345,868.831602176826,left,1,2,0.46137379121501,B03I09,2022-09-22_12h02.58.993,t1_Paradigm,2021.1.4,59.97802666965467,
T,left,Distractor,0,21,21,21,870.3465207699919,872.3466439581243,left,1,2,0.6741786818020046,B03I09,2022-09-22_12h02.58.993,t1_Paradigm,2021.1.4,59.97802666965467,
C,right,Target,0,22,22,22,873.8296780042001,875.8301158994436,right,1,2,0.40658363449620083,B03I09,2022-09-22_12h02.58.993,t1_Paradigm,2021.1.4,59.97802666965467,
F,left,Pretarget,0,23,23,23,877.3298185156891,879.3313310988015,left,1,2,0.5534139146329835,B03I09,2022-09-22_12h02.58.993,t1_Paradigm,2021.1.4,59.97802666965467,
C,right,Target,0,24,24,24,880.8464935017982,882.8463186644949,right,1,2,0.4305379470461048,B03I09,2022-09-22_12h02.58.993,t1_Paradigm,2021.1.4,59.97802666965467,
F,right,Target,0,25,25,25,884.3461909851758,886.3463241181453,right,1,2,0.7704100881237537,B03I09,2022-09-22_12h02.58.993,t1_Paradigm,2021.1.4,59.97802666965467,
H,left,Distractor,0,26,26,26,887.8463244389859,889.8462804890587,left,1,2,0.4064745616633445,B03I09,2022-09-22_12h02.58.993,t1_Paradigm,2021.1.4,59.97802666965467,
H,left,Lure,0,27,27,27,891.3465445094043,893.3465807600296,left,1,2,0.8099691901588812,B03I09,2022-09-22_12h02.58.993,t1_Paradigm,2021.1.4,59.97802666965467,
P,left,Distractor,0,28,28,28,894.8462897923309,896.8459696315695,left,1,2,0.43094729084987193,B03I09,2022-09-22_12h02.58.993,t1_Paradigm,2021.1.4,59.97802666965467,
G,left,Pretarget,0,29,29,29,898.3297270869953,900.330343027541,left,1,2,0.5305974879884161,B03I09,2022-09-22_12h02.58.993,t1_Paradigm,2021.1.4,59.97802666965467,
K,left,Distractor,0,30,30,30,901.8296568312799,903.8293357081129,left,1,2,0.5354194683022797,B03I09,2022-09-22_12h02.58.993,t1_Paradigm,2021.1.4,59.97802666965467,
G,right,Target,0,31,31,31,905.3298634280218,907.3304367018281,right,1,2,0.5383265793789178,B03I09,2022-09-22_12h02.58.993,t1_Paradigm,2021.1.4,59.97802666965467,
M,left,Pretarget,0,32,32,32,908.8301040297956,910.8296911571524,left,1,2,0.5113336268113926,B03I09,2022-09-22_12h02.58.993,t1_Paradigm,2021.1.4,59.97802666965467,
B,left,Distractor,0,33,33,33,912.329684420256,914.3313516301569,left,1,2,0.7214851609896868,B03I09,2022-09-22_12h02.58.993,t1_Paradigm,2021.1.4,59.97802666965467,
M,right,Target,0,34,34,34,915.8464909353643,917.8462974915747,right,1,2,0.4065675943857059,B03I09,2022-09-22_12h02.58.993,t1_Paradigm,2021.1.4,59.97802666965467,
M,left,Lure,0,35,35,35,919.3466089906287,921.346550925402,left,1,2,0.9381971035618335,B03I09,2022-09-22_12h02.58.993,t1_Paradigm,2021.1.4,59.97802666965467,
T,left,Distractor,0,36,36,36,922.8299561399035,924.8301146162557,left,1,2,0.5428027347661555,B03I09,2022-09-22_12h02.58.993,t1_Paradigm,2021.1.4,59.97802666965467,
F,left,Distractor,0,37,37,37,926.3300523805665,928.3296064652968,left,1,2,0.5153757365769707,B03I09,2022-09-22_12h02.58.993,t1_Paradigm,2021.1.4,59.97802666965467,
X,left,Distractor,0,38,38,38,929.8297139341012,931.830250957224,left,1,2,0.7107276952592656,B03I09,2022-09-22_12h02.58.993,t1_Paradigm,2021.1.4,59.97802666965467,
C,left,Distractor,0,39,39,39,933.3300103554502,935.332342588692,left,1,2,0.4884844783227891,B03I09,2022-09-22_12h02.58.993,t1_Paradigm,2021.1.4,59.97802666965467,
R,left,Distractor,0,40,40,40,936.8465435469989,938.8313888432458,left,1,2,0.589471458864864,B03I09,2022-09-22_12h02.58.993,t1_Paradigm,2021.1.4,59.97802666965467,
B,left,Pretarget,0,41,41,41,940.3462708649458,942.3466301636072,left,1,2,0.674310531525407,B03I09,2022-09-22_12h02.58.993,t1_Paradigm,2021.1.4,59.97802666965467,
H,left,Distractor,0,42,42,42,943.830201232864,945.8302102153539,left,1,2,0.8546303330222145,B03I09,2022-09-22_12h02.58.993,t1_Paradigm,2021.1.4,59.97802666965467,
B,right,Target,0,43,43,43,947.3300382652669,949.3299888617476,right,1,2,0.84265189350117,B03I09,2022-09-22_12h02.58.993,t1_Paradigm,2021.1.4,59.97802666965467,
W,left,Pretarget,0,44,44,44,950.8296234678128,952.8316964927362,left,1,2,0.557294339989312,B03I09,2022-09-22_12h02.58.993,t1_Paradigm,2021.1.4,59.97802666965467,
L,left,Pretarget,0,45,45,45,954.329985974473,956.3301819847547,left,1,2,0.6267249542870559,B03I09,2022-09-22_12h02.58.993,t1_Paradigm,2021.1.4,59.97802666965467,
W,right,Target,0,46,46,46,957.8296154477866,959.8312361413264,right,1,2,0.5175042602350004,B03I09,2022-09-22_12h02.58.993,t1_Paradigm,2021.1.4,59.97802666965467,
L,right,Target,0,47,47,47,961.3465605495148,963.3307042510132,right,1,2,0.5701238681795076,B03I09,2022-09-22_12h02.58.993,t1_Paradigm,2021.1.4,59.97802666965467,
W,right,Target,0,48,48,48,964.8296629264951,966.8317484626896,right,1,2,0.4612352045951411,B03I09,2022-09-22_12h02.58.993,t1_Paradigm,2021.1.4,59.97802666965467,
X,left,Distractor,0,49,49,49,968.3301932128379,970.3301059546066,left,1,2,0.5149089691112749,B03I09,2022-09-22_12h02.58.993,t1_Paradigm,2021.1.4,59.97802666965467,
R,left,Distractor,0,50,50,50,971.8296722297673,973.8303497643792,left,1,2,0.5343521588947624,B03I09,2022-09-22_12h02.58.993,t1_Paradigm,2021.1.4,59.97802666965467,
V,left,Pretarget,0,51,51,51,975.3296677385224,977.3300992177101,left,1,2,0.5547324123326689,B03I09,2022-09-22_12h02.58.993,t1_Paradigm,2021.1.4,59.97802666965467,
Z,left,Distractor,0,52,52,52,978.829985974473,980.8303638796788,left,1,2,0.7184080246370286,B03I09,2022-09-22_12h02.58.993,t1_Paradigm,2021.1.4,59.97802666965467,
V,right,Target,0,53,53,53,982.3297036684235,984.3292179736309,right,1,2,0.7237647825386375,B03I09,2022-09-22_12h02.58.993,t1_Paradigm,2021.1.4,59.97802666965467,
V,left,Lure,0,54,54,54,985.8297335030511,987.8299577438738,left,1,2,1.1269806337659247,B03I09,2022-09-22_12h02.58.993,t1_Paradigm,2021.1.4,59.97802666965467,
N,left,Distractor,0,55,55,55,989.3297796985717,991.330777393945,left,1,2,0.6823992423596792,B03I09,2022-09-22_12h02.58.993,t1_Paradigm,2021.1.4,59.97802666965467,
B,left,Distractor,0,56,56,56,992.829737352673,994.8301614533993,left,1,2,0.494594159303233,B03I09,2022-09-22_12h02.58.993,t1_Paradigm,2021.1.4,59.97802666965467,
V,left,Lure,0,57,57,57,996.3296924403403,998.3301242403104,left,1,2,0.7228068666881882,B03I09,2022-09-22_12h02.58.993,t1_Paradigm,2021.1.4,59.97802666965467,
J,left,Distractor,0,58,58,58,999.8300543053774,1001.8305268472759,left,1,2,0.7905070730485022,B03I09,2022-09-22_12h02.58.993,t1_Paradigm,2021.1.4,59.97802666965467,
H,left,Distractor,0,59,59,59,1003.3302766214474,1005.3301768518868,left,1,2,0.6666183324414305,B03I09,2022-09-22_12h02.58.993,t1_Paradigm,2021.1.4,59.97802666965467,
X,left,Pretarget,0,60,60,60,1006.830072270357,1008.8303263458074,left,1,2,0.4944658384192735,B03I09,2022-09-22_12h02.58.993,t1_Paradigm,2021.1.4,59.97802666965467,
P,left,Distractor,0,61,61,61,1010.3297450519167,1012.3296209013788,left,1,2,0.931452875433024,B03I09,2022-09-22_12h02.58.993,t1_Paradigm,2021.1.4,59.97802666965467,
X,right,Target,0,62,62,62,1013.8299378541415,1015.8318248136784,right,1,2,0.6613501160172746,B03I09,2022-09-22_12h02.58.993,t1_Paradigm,2021.1.4,59.97802666965467,
Q,left,Distractor,0,63,63,63,1017.3465210908325,1019.3469099032809,left,1,2,0.5380372156505473,B03I09,2022-09-22_12h02.58.993,t1_Paradigm,2021.1.4,59.97802666965467,
B,left,Pretarget,0,0,0,0,1053.0037771270145,1054.9964432641282,left,1,2,0.3925674583297223,B03I09,2022-09-22_12h02.58.993,t1_Paradigm,2021.1.4,59.97802666965467,
F,left,Distractor,0,1,1,1,1056.4966726378188,1058.4968763473444,left,1,2,0.4120828286395408,B03I09,2022-09-22_12h02.58.993,t1_Paradigm,2021.1.4,59.97802666965467,
B,right,Target,0,2,2,2,1059.996721720614,1061.9968266229844,right,1,2,0.49626457726117224,B03I09,2022-09-22_12h02.58.993,t1_Paradigm,2021.1.4,59.97802666965467,
V,left,Distractor,0,3,3,3,1063.4965263519553,1065.4966225926764,left,1,2,0.6602119092131034,B03I09,2022-09-22_12h02.58.993,t1_Paradigm,2021.1.4,59.97802666965467,
G,left,Pretarget,0,4,4,4,1066.996384878119,1068.9974800974014,left,1,2,0.5194816860603169,B03I09,2022-09-22_12h02.58.993,t1_Paradigm,2021.1.4,59.97802666965467,
B,left,Lure,0,5,5,5,1070.4969652096042,1072.4965135198436,left,1,2,0.46041908336337656,B03I09,2022-09-22_12h02.58.993,t1_Paradigm,2021.1.4,59.97802666965467,
G,right,Target,0,6,6,6,1073.9967730490025,1075.9969677760382,right,1,2,0.4164791042567231,B03I09,2022-09-22_12h02.58.993,t1_Paradigm,2021.1.4,59.97802666965467,
Y,left,Pretarget,0,7,7,7,1077.4968076956575,1079.4969209388946,left,1,2,0.4839274806436151,B03I09,2022-09-22_12h02.58.993,t1_Paradigm,2021.1.4,59.97802666965467,
P,left,Distractor,0,8,8,8,1080.9964054094744,1082.997431335447,left,1,2,0.5035872120060958,B03I09,2022-09-22_12h02.58.993,t1_Paradigm,2021.1.4,59.97802666965467,
Y,right,Target,0,9,9,9,1084.496709209343,1086.496407013503,right,1,2,0.5086286211735569,B03I09,2022-09-22_12h02.58.993,t1_Paradigm,2021.1.4,59.97802666965467,
X,left,Distractor,0,10,10,10,1087.99699119461,1089.9964439057512,left,1,2,0.46471975988242775,B03I09,2022-09-22_12h02.58.993,t1_Paradigm,2021.1.4,59.97802666965467,
Y,right,Target,0,11,11,11,1091.4966950939852,1093.4969626431703,left,0,2,0.6125288080656901,B03I09,2022-09-22_12h02.58.993,t1_Paradigm,2021.1.4,59.97802666965467,
N,left,Distractor,0,12,12,12,1094.99665884336,1096.9977181327413,left,1,2,0.7753571813227609,B03I09,2022-09-22_12h02.58.993,t1_Paradigm,2021.1.4,59.97802666965467,
Y,right,Target,0,13,13,13,1098.496790372301,1100.4964525674004,right,1,2,0.7806533076218329,B03I09,2022-09-22_12h02.58.993,t1_Paradigm,2021.1.4,59.97802666965467,
Y,left,Lure,0,14,14,14,1101.996855815989,1103.9970322573208,left,1,2,0.8481488419929519,B03I09,2022-09-22_12h02.58.993,t1_Paradigm,2021.1.4,59.97802666965467,
K,left,Distractor,0,15,15,15,1105.4967547632405,1107.4972250595456,left,1,2,0.6116924763191491,B03I09,2022-09-22_12h02.58.993,t1_Paradigm,2021.1.4,59.97802666965467,
T,left,Pretarget,0,16,16,16,1108.996617780649,1110.9966017405386,left,1,2,0.6166068476741202,B03I09,2022-09-22_12h02.58.993,t1_Paradigm,2021.1.4,59.97802666965467,
J,left,Distractor,0,17,17,17,1112.4968959162943,1114.4965670938836,left,1,2,0.8283761882921681,B03I09,2022-09-22_12h02.58.993,t1_Paradigm,2021.1.4,59.97802666965467,
T,right,Target,0,18,18,18,1115.996674562688,1118.0133396039018,right,1,2,0.7515363225247711,B03I09,2022-09-22_12h02.58.993,t1_Paradigm,2021.1.4,59.97802666965467,
S,left,Pretarget,0,19,19,19,1119.496821810957,1121.496588908427,left,1,2,0.6762289297184907,B03I09,2022-09-22_12h02.58.993,t1_Paradigm,2021.1.4,59.97802666965467,
R,left,Distractor,0,20,20,20,1122.996451604995,1124.9964949133573,left,1,2,0.6487188436440192,B03I09,2022-09-22_12h02.58.993,t1_Paradigm,2021.1.4,59.97802666965467,
S,right,Target,0,21,21,21,1126.4967868434615,1128.4968567783944,right,1,2,0.5560842734994367,B03I09,2022-09-22_12h02.58.993,t1_Paradigm,2021.1.4,59.97802666965467,
Q,left,Distractor,0,22,22,22,1129.9966630137642,1131.996620988648,left,1,2,0.6564700704184361,B03I09,2022-09-22_12h02.58.993,t1_Paradigm,2021.1.4,59.97802666965467,
D,left,Distractor,0,23,23,23,1133.49668899877,1135.4976751452195,left,1,2,0.835418441798538,B03I09,2022-09-22_12h02.58.993,t1_Paradigm,2021.1.4,59.97802666965467,
F,left,Distractor,0,24,24,24,1136.9966453696252,1138.9964538506465,left,1,2,0.6647464506677352,B03I09,2022-09-22_12h02.58.993,t1_Paradigm,2021.1.4,59.97802666965467,
Z,left,Distractor,0,25,25,25,1140.4965510537731,1142.4971965081058,left,1,2,0.555915531469509,B03I09,2022-09-22_12h02.58.993,t1_Paradigm,2021.1.4,59.97802666965467,
P,left,Distractor,0,26,26,26,1143.9967140213703,1145.9965751139098,left,1,2,0.5765293290023692,B03I09,2022-09-22_12h02.58.993,t1_Paradigm,2021.1.4,59.97802666965467,
H,left,Distractor,0,27,27,27,1147.4966530689271,1149.4966424824088,left,1,2,0.7724648272269405,B03I09,2022-09-22_12h02.58.993,t1_Paradigm,2021.1.4,59.97802666965467,
Z,left,Pretarget,0,28,28,28,1150.9966036653495,1152.9989978133817,left,1,2,0.630185128597077,B03I09,2022-09-22_12h02.58.993,t1_Paradigm,2021.1.4,59.97802666965467,
J,left,Pretarget,0,29,29,29,1154.4965500913677,1156.4965369384154,left,1,2,0.5565641938010231,B03I09,2022-09-22_12h02.58.993,t1_Paradigm,2021.1.4,59.97802666965467,
Z,right,Target,0,30,30,30,1157.9967278158292,1159.9965757555328,right,1,2,0.44867418793728575,B03I09,2022-09-22_12h02.58.993,t1_Paradigm,2021.1.4,59.97802666965467,
J,right,Target,0,31,31,31,1161.496824377391,1163.4964734195964,right,1,2,0.8366134305833839,B03I09,2022-09-22_12h02.58.993,t1_Paradigm,2021.1.4,59.97802666965467,
V,left,Pretarget,0,32,32,32,1164.9968872546451,1166.9967249286128,left,1,2,0.6164595994050615,B03I09,2022-09-22_12h02.58.993,t1_Paradigm,2021.1.4,59.97802666965467,
Z,left,Lure,0,33,33,33,1168.4972131898394,1170.4985894319834,left,1,2,0.8745470270514488,B03I09,2022-09-22_12h02.58.993,t1_Paradigm,2021.1.4,59.97802666965467,
V,right,Target,0,34,34,34,1171.9965950037003,1173.9981066244072,right,1,2,1.3269158958573826,B03I09,2022-09-22_12h02.58.993,t1_Paradigm,2021.1.4,59.97802666965467,
X,left,Distractor,0,35,35,35,1175.496804808441,1177.4983732111868,left,1,2,1.2186762155033648,B03I09,2022-09-22_12h02.58.993,t1_Paradigm,2021.1.4,59.97802666965467,
S,left,Distractor,0,36,36,36,1178.9968834050233,1180.9969693800085,left,1,2,1.2401763899833895,B03I09,2022-09-22_12h02.58.993,t1_Paradigm,2021.1.4,59.97802666965467,
Q,left,Distractor,0,37,37,37,1182.4968070540344,1184.4981938826386,left,1,2,0.6667094402946532,B03I09,2022-09-22_12h02.58.993,t1_Paradigm,2021.1.4,59.97802666965467,
P,left,Distractor,0,38,38,38,1185.9967246078304,1187.9966174598667,left,1,2,0.5447621956118383,B03I09,2022-09-22_12h02.58.993,t1_Paradigm,2021.1.4,59.97802666965467,
S,left,Lure,0,39,39,39,1189.4967194749624,1191.4972224931116,left,1,2,0.7878678319975734,B03I09,2022-09-22_12h02.58.993,t1_Paradigm,2021.1.4,59.97802666965467,
K,left,Pretarget,0,40,40,40,1192.9968439462828,1194.9971313852002,left,1,2,0.9519521465408616,B03I09,2022-09-22_12h02.58.993,t1_Paradigm,2021.1.4,59.97802666965467,
L,left,Distractor,0,41,41,41,1196.4966671842267,1198.496697018796,left,1,2,0.6525104068568908,B03I09,2022-09-22_12h02.58.993,t1_Paradigm,2021.1.4,59.97802666965467,
K,right,Target,0,42,42,42,1199.996938262193,1201.997663596354,right,1,2,0.4636405807104893,B03I09,2022-09-22_12h02.58.993,t1_Paradigm,2021.1.4,59.97802666965467,
B,left,Distractor,0,43,43,43,1203.4968076956575,1205.4971089290339,left,1,2,0.5801158994436264,B03I09,2022-09-22_12h02.58.993,t1_Paradigm,2021.1.4,59.97802666965467,
N,left,Distractor,0,44,44,44,1206.9965289183892,1208.997127214796,left,1,2,0.7760664753732271,B03I09,2022-09-22_12h02.58.993,t1_Paradigm,2021.1.4,59.97802666965467,
S,left,Pretarget,0,45,45,45,1210.4967842770857,1212.4967605376733,left,1,2,1.100293405877892,B03I09,2022-09-22_12h02.58.993,t1_Paradigm,2021.1.4,59.97802666965467,
Z,left,Distractor,0,46,46,46,1213.9971281772014,1215.9976356865373,left,1,2,0.703454784816131,B03I09,2022-09-22_12h02.58.993,t1_Paradigm,2021.1.4,59.97802666965467,
S,right,Target,0,47,47,47,1217.4966052693198,1219.49676887854,right,1,2,0.5002765316748992,B03I09,2022-09-22_12h02.58.993,t1_Paradigm,2021.1.4,59.97802666965467,
C,left,Distractor,0,48,48,48,1220.996893670701,1222.99619849195,left,1,2,0.7135311870952137,B03I09,2022-09-22_12h02.58.993,t1_Paradigm,2021.1.4,59.97802666965467,
T,left,Pretarget,0,49,49,49,1224.4968818009947,1226.4972754254704,left,1,2,0.55592611792963,B03I09,2022-09-22_12h02.58.993,t1_Paradigm,2021.1.4,59.97802666965467,
S,left,Lure,0,50,50,50,1227.99690746516,1229.9967829938396,left,1,2,0.8964892672374845,B03I09,2022-09-22_12h02.58.993,t1_Paradigm,2021.1.4,59.97802666965467,
T,right,Target,0,51,51,51,1231.4970842272742,1233.4983379229088,right,1,2,0.6109312123153359,B03I09,2022-09-22_12h02.58.993,t1_Paradigm,2021.1.4,59.97802666965467,
N,left,Pretarget,0,52,52,52,1234.9967018308816,1236.9970322573208,left,1,2,0.6803505984717049,B03I09,2022-09-22_12h02.58.993,t1_Paradigm,2021.1.4,59.97802666965467,
B,left,Distractor,0,53,53,53,1238.4968073748169,1240.4971718063462,left,1,2,0.7482429654337466,B03I09,2022-09-22_12h02.58.993,t1_Paradigm,2021.1.4,59.97802666965467,
N,right,Target,0,54,54,54,1241.9967717657564,1243.9964952341397,right,1,2,0.46484198555117473,B03I09,2022-09-22_12h02.58.993,t1_Paradigm,2021.1.4,59.97802666965467,
N,left,Lure,0,55,55,55,1245.4969071443775,1247.4970322573208,left,1,2,0.8839789374032989,B03I09,2022-09-22_12h02.58.993,t1_Paradigm,2021.1.4,59.97802666965467,
X,left,Distractor,0,56,56,56,1248.9965959661058,1250.9968484375277,left,1,2,0.7604578362661414,B03I09,2022-09-22_12h02.58.993,t1_Paradigm,2021.1.4,59.97802666965467,
W,left,Distractor,0,57,57,57,1252.4969793249038,1254.4972013201332,left,1,2,0.4920466677285731,B03I09,2022-09-22_12h02.58.993,t1_Paradigm,2021.1.4,59.97802666965467,
S,left,Distractor,0,58,58,58,1255.9966575601138,1257.9978791755275,left,1,2,0.5753510219510645,B03I09,2022-09-22_12h02.58.993,t1_Paradigm,2021.1.4,59.97802666965467,
L,left,Distractor,0,59,59,59,1259.4968157156836,1261.496723645425,left,1,2,0.5964999178540893,B03I09,2022-09-22_12h02.58.993,t1_Paradigm,2021.1.4,59.97802666965467,
K,left,Pretarget,0,60,60,60,1262.9966697506025,1264.9970521470532,left,1,2,0.6802739267004654,B03I09,2022-09-22_12h02.58.993,t1_Paradigm,2021.1.4,59.97802666965467,
V,left,Pretarget,0,61,61,61,1266.4968484375277,1268.4987353970646,left,1,2,0.5225139100220986,B03I09,2022-09-22_12h02.58.993,t1_Paradigm,2021.1.4,59.97802666965467,
K,right,Target,0,62,62,62,1269.9968320766347,1271.9978804587736,right,1,2,0.6073667771997862,B03I09,2022-09-22_12h02.58.993,t1_Paradigm,2021.1.4,59.97802666965467,
V,right,Target,0,63,63,63,1273.4967319862917,1275.497045410215,right,1,2,1.2520399822387844,B03I09,2022-09-22_12h02.58.993,t1_Paradigm,2021.1.4,59.97802666965467,
R,left,Distractor,0,0,0,0,1396.6791639504954,1398.6800647635828,left,1,3,0.6294026916730218,B03I09,2022-09-22_12h02.58.993,t1_Paradigm,2021.1.4,59.97802666965467,
P,left,Lure,0,1,1,1,1400.1804160421598,1402.1799110991997,left,1,3,0.4094654021319002,B03I09,2022-09-22_12h02.58.993,t1_Paradigm,2021.1.4,59.97802666965467,
V,left,Distractor,0,2,2,2,1403.6806688344222,1405.6802322223666,left,1,3,0.476962540531531,B03I09,2022-09-22_12h02.58.993,t1_Paradigm,2021.1.4,59.97802666965467,
P,left,Pretarget,0,3,3,3,1407.1803124229773,1409.1799832797842,left,1,3,1.265520418412052,B03I09,2022-09-22_12h02.58.993,t1_Paradigm,2021.1.4,59.97802666965467,
Z,left,Distractor,0,4,4,4,1410.680225164746,1412.6803435407928,left,1,3,0.7570380831020884,B03I09,2022-09-22_12h02.58.993,t1_Paradigm,2021.1.4,59.97802666965467,
L,left,Pretarget,0,5,5,5,1414.1803316711448,1416.180187951657,left,1,3,0.7771389177069068,B03I09,2022-09-22_12h02.58.993,t1_Paradigm,2021.1.4,59.97802666965467,
P,right,Target,0,6,6,6,1417.680491430685,1419.681144905102,right,1,3,0.8923865257529542,B03I09,2022-09-22_12h02.58.993,t1_Paradigm,2021.1.4,59.97802666965467,
S,left,Distractor,0,7,7,7,1421.1805658568628,1423.180579009757,left,1,3,0.8006880569155328,B03I09,2022-09-22_12h02.58.993,t1_Paradigm,2021.1.4,59.97802666965467,
L,right,Target,0,8,8,8,1424.6806701176101,1426.6809691054514,left,0,3,0.9645715492079034,B03I09,2022-09-22_12h02.58.993,t1_Paradigm,2021.1.4,59.97802666965467,
D,left,Distractor,0,9,9,9,1428.1802447336959,1430.1801529842196,left,1,3,0.8252852574805729,B03I09,2022-09-22_12h02.58.993,t1_Paradigm,2021.1.4,59.97802666965467,
G,left,Distractor,0,10,10,10,1431.6802174655022,1433.6800888237194,left,1,3,0.5251393565558828,B03I09,2022-09-22_12h02.58.993,t1_Paradigm,2021.1.4,59.97802666965467,
M,left,Pretarget,0,11,11,11,1435.1803297463339,1437.1816411863547,left,1,3,0.7516890244442038,B03I09,2022-09-22_12h02.58.993,t1_Paradigm,2021.1.4,59.97802666965467,
Y,left,Distractor,0,12,12,12,1438.6798751693568,1440.6814377976698,left,1,3,0.6601397286867723,B03I09,2022-09-22_12h02.58.993,t1_Paradigm,2021.1.4,59.97802666965467,
V,left,Distractor,0,13,13,13,1442.180186668469,1444.1801244327798,left,1,3,0.7293313451809809,B03I09,2022-09-22_12h02.58.993,t1_Paradigm,2021.1.4,59.97802666965467,
M,right,Target,0,14,14,14,1445.6803185182507,1447.6825991022633,right,1,3,0.7949049526941963,B03I09,2022-09-22_12h02.58.993,t1_Paradigm,2021.1.4,59.97802666965467,
S,left,Pretarget,0,15,15,15,1449.18036792177,1451.1807050851057,left,1,3,0.8648831765749492,B03I09,2022-09-22_12h02.58.993,t1_Paradigm,2021.1.4,59.97802666965467,
Q,left,Distractor,0,16,16,16,1452.680224523123,1454.6805616864003,left,1,3,1.0610701838159002,B03I09,2022-09-22_12h02.58.993,t1_Paradigm,2021.1.4,59.97802666965467,
R,left,Pretarget,0,17,17,17,1456.1802476209123,1458.180845917319,left,1,3,0.8246064396225847,B03I09,2022-09-22_12h02.58.993,t1_Paradigm,2021.1.4,59.97802666965467,
S,right,Target,0,18,18,18,1459.6803387287655,1461.6807965137414,right,1,3,0.716488664096687,B03I09,2022-09-22_12h02.58.993,t1_Paradigm,2021.1.4,59.97802666965467,
F,left,Distractor,0,19,19,19,1463.1804458767874,1465.1801943677128,left,1,3,0.5772482471074909,B03I09,2022-09-22_12h02.58.993,t1_Paradigm,2021.1.4,59.97802666965467,
R,right,Target,0,20,20,20,1466.6800625179312,1468.6816030109185,right,1,3,0.7079043136327527,B03I09,2022-09-22_12h02.58.993,t1_Paradigm,2021.1.4,59.97802666965467,
P,left,Distractor,0,21,21,21,1470.1803454656038,1472.180746468599,left,1,3,0.8886559150996618,B03I09,2022-09-22_12h02.58.993,t1_Paradigm,2021.1.4,59.97802666965467,
L,left,Distractor,0,22,22,22,1473.68057965138,1475.6806515110657,left,1,3,0.8928388570784591,B03I09,2022-09-22_12h02.58.993,t1_Paradigm,2021.1.4,59.97802666965467,
R,right,Target,0,23,23,23,1477.180588954594,1479.1822661093902,right,1,3,1.2793348099221475,B03I09,2022-09-22_12h02.58.993,t1_Paradigm,2021.1.4,59.97802666965467,
H,left,Pretarget,0,24,24,24,1480.6802104078233,1482.6804792401963,left,1,3,0.7729713741573505,B03I09,2022-09-22_12h02.58.993,t1_Paradigm,2021.1.4,59.97802666965467,
G,left,Pretarget,0,25,25,25,1484.1804673705483,1486.182291452773,left,1,3,0.6793002915219404,B03I09,2022-09-22_12h02.58.993,t1_Paradigm,2021.1.4,59.97802666965467,
T,left,Distractor,0,26,26,26,1487.680153946625,1489.6806319421157,left,1,3,1.2448212874587625,B03I09,2022-09-22_12h02.58.993,t1_Paradigm,2021.1.4,59.97802666965467,
H,right,Target,0,27,27,27,1491.1643460892956,1493.1639165349188,right,1,3,1.185428258322645,B03I09,2022-09-22_12h02.58.993,t1_Paradigm,2021.1.4,59.97802666965467,
G,right,Target,0,28,28,28,1494.663685877982,1496.6657261810615,right,1,3,1.3155909308115952,B03I09,2022-09-22_12h02.58.993,t1_Paradigm,2021.1.4,59.97802666965467,
D,left,Distractor,0,29,29,29,1498.1801802524133,1500.1801346984576,left,1,3,0.7933667053584941,B03I09,2022-09-22_12h02.58.993,t1_Paradigm,2021.1.4,59.97802666965467,
N,left,Pretarget,0,30,30,30,1501.6974349284428,1503.680792343337,left,1,3,0.7968150099623017,B03I09,2022-09-22_12h02.58.993,t1_Paradigm,2021.1.4,59.97802666965467,
V,left,Distractor,0,31,31,31,1505.1806024283287,1507.1802373552346,left,1,3,0.7371881159488112,B03I09,2022-09-22_12h02.58.993,t1_Paradigm,2021.1.4,59.97802666965467,
R,left,Distractor,0,32,32,32,1508.6801093550748,1510.6803505984717,left,1,3,1.3652912371908315,B03I09,2022-09-22_12h02.58.993,t1_Paradigm,2021.1.4,59.97802666965467,
N,right,Target,0,33,33,33,1512.180591521028,1514.1802562825615,left,0,3,0.7772585769998841,B03I09,2022-09-22_12h02.58.993,t1_Paradigm,2021.1.4,59.97802666965467,
Z,left,Distractor,0,34,34,34,1515.6806030699518,1517.6812542987172,left,1,3,0.8282841179752722,B03I09,2022-09-22_12h02.58.993,t1_Paradigm,2021.1.4,59.97802666965467,
N,left,Lure,0,35,35,35,1519.1804048140766,1521.1800952397753,right,0,3,0.8493585877586156,B03I09,2022-09-22_12h02.58.993,t1_Paradigm,2021.1.4,59.97802666965467,
Y,left,Pretarget,0,36,36,36,1522.680335841549,1524.6802479416947,left,1,3,0.8691110310028307,B03I09,2022-09-22_12h02.58.993,t1_Paradigm,2021.1.4,59.97802666965467,
Y,left,Lure,0,37,37,37,1526.1636817075778,1528.1634969253791,left,1,3,1.274021681107115,B03I09,2022-09-22_12h02.58.993,t1_Paradigm,2021.1.4,59.97802666965467,
B,left,Distractor,0,38,38,38,1529.6636788203614,1531.6636306999717,left,1,3,0.6858257324201986,B03I09,2022-09-22_12h02.58.993,t1_Paradigm,2021.1.4,59.97802666965467,
Y,right,Target,0,39,39,39,1533.163685877982,1535.1653328773682,right,1,3,0.7041942343348637,B03I09,2022-09-22_12h02.58.993,t1_Paradigm,2021.1.4,59.97802666965467,
J,left,Distractor,0,40,40,40,1536.6807686039247,1538.6803380872007,left,1,3,0.5010403620544821,B03I09,2022-09-22_12h02.58.993,t1_Paradigm,2021.1.4,59.97802666965467,
X,left,Distractor,0,41,41,41,1540.1804073805106,1542.1811843637843,left,1,3,0.7924161679111421,B03I09,2022-09-22_12h02.58.993,t1_Paradigm,2021.1.4,59.97802666965467,
W,left,Pretarget,0,42,42,42,1543.6806335461442,1545.682361387706,left,1,3,0.6990341282216832,B03I09,2022-09-22_12h02.58.993,t1_Paradigm,2021.1.4,59.97802666965467,
S,left,Pretarget,0,43,43,43,1547.1807108595385,1549.1802373552346,left,1,3,0.6572983821388334,B03I09,2022-09-22_12h02.58.993,t1_Paradigm,2021.1.4,59.97802666965467,
R,left,Distractor,0,44,44,44,1550.6803464280092,1552.6812145192525,left,1,3,0.7723772482131608,B03I09,2022-09-22_12h02.58.993,t1_Paradigm,2021.1.4,59.97802666965467,
W,right,Target,0,45,45,45,1554.1808167243144,1556.1807907393086,right,1,3,0.9047524945344776,B03I09,2022-09-22_12h02.58.993,t1_Paradigm,2021.1.4,59.97802666965467,
S,right,Target,0,46,46,46,1557.680474428169,1559.6802116910694,right,1,3,0.5250674968119711,B03I09,2022-09-22_12h02.58.993,t1_Paradigm,2021.1.4,59.97802666965467,
D,left,Distractor,0,47,47,47,1561.180878639163,1563.180539871857,left,1,3,1.1689419039757922,B03I09,2022-09-22_12h02.58.993,t1_Paradigm,2021.1.4,59.97802666965467,
T,left,Distractor,0,48,48,48,1564.6805802929448,1566.6807076514815,left,1,3,0.8846677000983618,B03I09,2022-09-22_12h02.58.993,t1_Paradigm,2021.1.4,59.97802666965467,
S,right,Target,0,49,49,49,1568.1802845131606,1570.1802617362118,right,1,3,0.873343376617413,B03I09,2022-09-22_12h02.58.993,t1_Paradigm,2021.1.4,59.97802666965467,
K,left,Distractor,0,50,50,50,1571.6807974761468,1573.680055781093,left,1,3,0.7656497018178925,B03I09,2022-09-22_12h02.58.993,t1_Paradigm,2021.1.4,59.97802666965467,
S,left,Lure,0,51,51,51,1575.1801475305692,1577.1821262395824,left,1,3,0.8475778138381429,B03I09,2022-09-22_12h02.58.993,t1_Paradigm,2021.1.4,59.97802666965467,
T,left,Pretarget,0,52,52,52,1578.6804779570084,1580.6803794706939,right,0,3,1.2371069529326633,B03I09,2022-09-22_12h02.58.993,t1_Paradigm,2021.1.4,59.97802666965467,
V,left,Distractor,0,53,53,53,1582.1802694354556,1584.1817348607,left,1,3,0.6799682020791806,B03I09,2022-09-22_12h02.58.993,t1_Paradigm,2021.1.4,59.97802666965467,
B,left,Distractor,0,54,54,54,1585.6805427590734,1587.6803823579103,left,1,3,0.6690545056480914,B03I09,2022-09-22_12h02.58.993,t1_Paradigm,2021.1.4,59.97802666965467,
T,right,Target,0,55,55,55,1589.1804952803068,1591.1804741073865,left,0,3,0.5771529688499868,B03I09,2022-09-22_12h02.58.993,t1_Paradigm,2021.1.4,59.97802666965467,
Y,left,Pretarget,0,56,56,56,1592.6801699867356,1594.6803412951995,right,0,3,0.6933629840495996,B03I09,2022-09-22_12h02.58.993,t1_Paradigm,2021.1.4,59.97802666965467,
T,left,Lure,0,57,57,57,1596.1806515110657,1598.1803499568487,None,0,3,,B03I09,2022-09-22_12h02.58.993,t1_Paradigm,2021.1.4,59.97802666965467,
P,left,Pretarget,0,58,58,58,1599.6802668690216,1601.6803092149785,left,1,3,0.8614579697605222,B03I09,2022-09-22_12h02.58.993,t1_Paradigm,2021.1.4,59.97802666965467,
Y,right,Target,0,59,59,59,1603.1804933554959,1605.1803021572996,right,1,3,1.3134290436282754,B03I09,2022-09-22_12h02.58.993,t1_Paradigm,2021.1.4,59.97802666965467,
R,left,Distractor,0,60,60,60,1606.6802456961013,1608.6803326335503,left,1,3,1.1573590137413703,B03I09,2022-09-22_12h02.58.993,t1_Paradigm,2021.1.4,59.97802666965467,
P,right,Target,0,61,61,61,1610.180655039905,1612.1814926548977,right,1,3,1.3680231901817024,B03I09,2022-09-22_12h02.58.993,t1_Paradigm,2021.1.4,59.97802666965467,
L,left,Distractor,0,62,62,62,1613.6806069195736,1615.6804862978752,left,1,3,1.0370161017635837,B03I09,2022-09-22_12h02.58.993,t1_Paradigm,2021.1.4,59.97802666965467,
V,left,Distractor,0,63,63,63,1617.1802813051618,1619.1807798320078,left,1,3,0.6568508627824485,B03I09,2022-09-22_12h02.58.993,t1_Paradigm,2021.1.4,59.97802666965467,
H,left,Lure,0,0,0,0,1680.2879756215843,1682.280894230178,left,1,3,0.5168668259284459,B03I09,2022-09-22_12h02.58.993,t1_Paradigm,2021.1.4,59.97802666965467,
B,left,Distractor,0,1,1,1,1683.780777137319,1685.780422009062,left,1,3,0.7772710882709362,B03I09,2022-09-22_12h02.58.993,t1_Paradigm,2021.1.4,59.97802666965467,
T,left,Distractor,0,2,2,2,1687.2806388714816,1689.2811486264109,left,1,3,0.5565811963751912,B03I09,2022-09-22_12h02.58.993,t1_Paradigm,2021.1.4,59.97802666965467,
R,left,Distractor,0,3,3,3,1690.7808794732555,1692.781142851978,left,1,3,0.5606480079004541,B03I09,2022-09-22_12h02.58.993,t1_Paradigm,2021.1.4,59.97802666965467,
H,left,Pretarget,0,4,4,4,1694.2809837340028,1696.2811771778506,left,1,3,0.708559392078314,B03I09,2022-09-22_12h02.58.993,t1_Paradigm,2021.1.4,59.97802666965467,
K,left,Distractor,0,5,5,5,1697.7805647661444,1699.7810090773855,left,1,3,0.9526277563418262,B03I09,2022-09-22_12h02.58.993,t1_Paradigm,2021.1.4,59.97802666965467,
G,left,Distractor,0,6,6,6,1701.2803931368398,1703.28038800403,left,1,3,0.8930470578488894,B03I09,2022-09-22_12h02.58.993,t1_Paradigm,2021.1.4,59.97802666965467,
H,right,Target,0,7,7,7,1704.780671272485,1706.780765909236,left,0,3,1.1528972944943234,B03I09,2022-09-22_12h02.58.993,t1_Paradigm,2021.1.4,59.97802666965467,
Y,left,Pretarget,0,8,8,8,1708.2805464803823,1710.2804653173662,left,1,3,0.8052434505079873,B03I09,2022-09-22_12h02.58.993,t1_Paradigm,2021.1.4,59.97802666965467,
S,left,Distractor,0,9,9,9,1711.7804691670462,1713.780977317947,left,1,3,0.8568765911622904,B03I09,2022-09-22_12h02.58.993,t1_Paradigm,2021.1.4,59.97802666965467,
P,left,Distractor,0,10,10,10,1715.2806209065602,1717.279990209092,left,1,3,0.9575937769841403,B03I09,2022-09-22_12h02.58.993,t1_Paradigm,2021.1.4,59.97802666965467,
Y,right,Target,0,11,11,11,1718.7811059597298,1720.780863433145,right,1,3,1.0568580488325097,B03I09,2022-09-22_12h02.58.993,t1_Paradigm,2021.1.4,59.97802666965467,
H,left,Lure,0,12,12,12,1722.2808076135116,1724.2805621997104,left,1,3,1.0931594028370455,B03I09,2022-09-22_12h02.58.993,t1_Paradigm,2021.1.4,59.97802666965467,
Q,left,Distractor,0,13,13,13,1725.7809728267603,1727.7816583813983,left,1,3,0.8401326325256377,B03I09,2022-09-22_12h02.58.993,t1_Paradigm,2021.1.4,59.97802666965467,
V,left,Pretarget,0,14,14,14,1729.2804961143993,1731.2803838335676,left,1,3,1.005304146267008,B03I09,2022-09-22_12h02.58.993,t1_Paradigm,2021.1.4,59.97802666965467,
G,left,Distractor,0,15,15,15,1732.7807681548293,1734.7803504701587,left,1,3,0.8172263812739402,B03I09,2022-09-22_12h02.58.993,t1_Paradigm,2021.1.4,59.97802666965467,
Z,left,Pretarget,0,16,16,16,1736.2806930870865,1738.2803908912465,left,1,3,0.7573588854866102,B03I09,2022-09-22_12h02.58.993,t1_Paradigm,2021.1.4,59.97802666965467,
V,right,Target,0,17,17,17,1739.7810093982262,1741.7804973976454,right,1,3,0.7933073568856344,B03I09,2022-09-22_12h02.58.993,t1_Paradigm,2021.1.4,59.97802666965467,
N,left,Distractor,0,18,18,18,1743.2808679243317,1745.2805002848618,left,1,3,1.0692060526343994,B03I09,2022-09-22_12h02.58.993,t1_Paradigm,2021.1.4,59.97802666965467,
Z,right,Target,0,19,19,19,1746.78069533268,1748.7807896485901,right,1,3,1.2008771378314123,B03I09,2022-09-22_12h02.58.993,t1_Paradigm,2021.1.4,59.97802666965467,
R,left,Distractor,0,20,20,20,1750.2807646259898,1752.2809054582613,left,1,3,0.9172548043425195,B03I09,2022-09-22_12h02.58.993,t1_Paradigm,2021.1.4,59.97802666965467,
P,left,Distractor,0,21,21,21,1753.7807527562836,1755.78065619478,left,1,3,0.649306874431204,B03I09,2022-09-22_12h02.58.993,t1_Paradigm,2021.1.4,59.97802666965467,
Z,right,Target,0,22,22,22,1757.2806318138028,1759.2805403851671,right,1,3,0.8611496787052602,B03I09,2022-09-22_12h02.58.993,t1_Paradigm,2021.1.4,59.97802666965467,
D,left,Pretarget,0,23,23,23,1760.7806497787242,1762.7810876739677,left,1,3,0.7046042197034694,B03I09,2022-09-22_12h02.58.993,t1_Paradigm,2021.1.4,59.97802666965467,
K,left,Distractor,0,24,24,24,1764.2805067009176,1766.2806427211035,left,1,3,0.7571651207981631,B03I09,2022-09-22_12h02.58.993,t1_Paradigm,2021.1.4,59.97802666965467,
W,left,Distractor,0,25,25,25,1767.7804957936169,1769.7815477045951,left,1,3,0.8722160770557821,B03I09,2022-09-22_12h02.58.993,t1_Paradigm,2021.1.4,59.97802666965467,
D,right,Target,0,26,26,26,1771.280726771336,1773.2825213397737,None,0,3,,B03I09,2022-09-22_12h02.58.993,t1_Paradigm,2021.1.4,59.97802666965467,
G,left,Pretarget,0,27,27,27,1774.7809907916817,1776.7804133474128,left,1,3,0.9134821685729548,B03I09,2022-09-22_12h02.58.993,t1_Paradigm,2021.1.4,59.97802666965467,
V,left,Distractor,0,28,28,28,1778.280458580528,1780.2806699892972,left,1,3,0.7891292268759571,B03I09,2022-09-22_12h02.58.993,t1_Paradigm,2021.1.4,59.97802666965467,
D,right,Target,0,29,29,29,1781.7805891471216,1783.7805686157662,right,1,3,0.8093461919343099,B03I09,2022-09-22_12h02.58.993,t1_Paradigm,2021.1.4,59.97802666965467,
G,right,Target,0,30,30,30,1785.2977212766418,1787.280459863774,right,1,3,0.5573610669234768,B03I09,2022-09-22_12h02.58.993,t1_Paradigm,2021.1.4,59.97802666965467,
B,left,Pretarget,0,31,31,31,1788.7805249866215,1790.7806401546695,left,1,3,0.6891691347118467,B03I09,2022-09-22_12h02.58.993,t1_Paradigm,2021.1.4,59.97802666965467,
N,left,Distractor,0,32,32,32,1792.280674480542,1794.2810135686304,left,1,3,0.6609433385892771,B03I09,2022-09-22_12h02.58.993,t1_Paradigm,2021.1.4,59.97802666965467,
F,left,Distractor,0,33,33,33,1795.7805974879884,1797.78047686629,left,1,3,1.0336425440036692,B03I09,2022-09-22_12h02.58.993,t1_Paradigm,2021.1.4,59.97802666965467,
B,right,Target,0,34,34,34,1799.280561878928,1801.2808855684707,left,0,3,0.797028022701852,B03I09,2022-09-22_12h02.58.993,t1_Paradigm,2021.1.4,59.97802666965467,
Q,left,Pretarget,0,35,35,35,1802.7805365355453,1804.7813350125798,left,1,3,0.6725397025002167,B03I09,2022-09-22_12h02.58.993,t1_Paradigm,2021.1.4,59.97802666965467,
S,left,Pretarget,0,36,36,36,1806.280845147383,1808.280573748576,left,1,3,0.7253011050634086,B03I09,2022-09-22_12h02.58.993,t1_Paradigm,2021.1.4,59.97802666965467,
W,left,Distractor,0,37,37,37,1809.78069533268,1811.7805362147046,left,1,3,0.6654320053057745,B03I09,2022-09-22_12h02.58.993,t1_Paradigm,2021.1.4,59.97802666965467,
Q,right,Target,0,38,38,38,1813.2809016085812,1815.280521457782,right,1,3,0.6372501591104083,B03I09,2022-09-22_12h02.58.993,t1_Paradigm,2021.1.4,59.97802666965467,
S,right,Target,0,39,39,39,1816.7809173279093,1818.7825527783716,left,0,3,0.7352462991839275,B03I09,2022-09-22_12h02.58.993,t1_Paradigm,2021.1.4,59.97802666965467,
T,left,Distractor,0,40,40,40,1820.2810116438195,1822.2806696685147,left,1,3,0.7572045795386657,B03I09,2022-09-22_12h02.58.993,t1_Paradigm,2021.1.4,59.97802666965467,
G,left,Distractor,0,41,41,41,1823.7806019791751,1825.7806982198963,left,1,3,0.5690382730099373,B03I09,2022-09-22_12h02.58.993,t1_Paradigm,2021.1.4,59.97802666965467,
D,left,Distractor,0,42,42,42,1827.2807806661003,1829.2806603652425,left,1,3,1.0371498762979172,B03I09,2022-09-22_12h02.58.993,t1_Paradigm,2021.1.4,59.97802666965467,
S,left,Lure,0,43,43,43,1830.7810588017455,1832.7811049973243,left,1,3,1.2006846563890576,B03I09,2022-09-22_12h02.58.993,t1_Paradigm,2021.1.4,59.97802666965467,
Z,left,Pretarget,0,44,44,44,1834.2809330472373,1836.2810158142238,left,1,3,0.8528168372577056,B03I09,2022-09-22_12h02.58.993,t1_Paradigm,2021.1.4,59.97802666965467,
J,left,Distractor,0,45,45,45,1837.7806244353415,1839.7805477635702,left,1,3,0.7773410231457092,B03I09,2022-09-22_12h02.58.993,t1_Paradigm,2021.1.4,59.97802666965467,
M,left,Pretarget,0,46,46,46,1841.2807508314727,1843.280995603709,left,1,3,0.7007446464849636,B03I09,2022-09-22_12h02.58.993,t1_Paradigm,2021.1.4,59.97802666965467,
Z,right,Target,0,47,47,47,1844.7806526659988,1846.7802657783031,left,0,3,0.49781180708669126,B03I09,2022-09-22_12h02.58.993,t1_Paradigm,2021.1.4,59.97802666965467,
P,left,Distractor,0,48,48,48,1848.2811005060794,1850.2804438236053,left,1,3,0.8373891306691803,B03I09,2022-09-22_12h02.58.993,t1_Paradigm,2021.1.4,59.97802666965467,
M,right,Target,0,49,49,49,1851.7805798438494,1853.7805522548151,right,1,3,1.22535596229136,B03I09,2022-09-22_12h02.58.993,t1_Paradigm,2021.1.4,59.97802666965467,
K,left,Distractor,0,50,50,50,1855.2806379090762,1857.2827359565417,left,1,3,0.8909137221053243,B03I09,2022-09-22_12h02.58.993,t1_Paradigm,2021.1.4,59.97802666965467,
Y,left,Distractor,0,51,51,51,1858.7807014279533,1860.7813375790138,left,1,3,0.7524903887533583,B03I09,2022-09-22_12h02.58.993,t1_Paradigm,2021.1.4,59.97802666965467,
X,left,Distractor,0,52,52,52,1862.2812217693427,1864.2805891471216,left,1,3,0.5814478709362447,B03I09,2022-09-22_12h02.58.993,t1_Paradigm,2021.1.4,59.97802666965467,
F,left,Pretarget,0,53,53,53,1865.780571823765,1867.7806074328255,left,1,3,0.8093455503694713,B03I09,2022-09-22_12h02.58.993,t1_Paradigm,2021.1.4,59.97802666965467,
M,left,Lure,0,54,54,54,1869.2812548120273,1871.2806164153153,left,1,3,0.861218009609729,B03I09,2022-09-22_12h02.58.993,t1_Paradigm,2021.1.4,59.97802666965467,
V,left,Distractor,0,55,55,55,1872.7807229217142,1874.7813019699533,left,1,3,0.7525150905130431,B03I09,2022-09-22_12h02.58.993,t1_Paradigm,2021.1.4,59.97802666965467,
F,right,Target,0,56,56,56,1876.2809699394857,1878.281703293731,right,1,3,0.7082745195948519,B03I09,2022-09-22_12h02.58.993,t1_Paradigm,2021.1.4,59.97802666965467,
S,left,Distractor,0,57,57,57,1879.780646249943,1881.7805493675987,left,1,3,0.921298518194817,B03I09,2022-09-22_12h02.58.993,t1_Paradigm,2021.1.4,59.97802666965467,
D,left,Distractor,0,58,58,58,1883.2810074734152,1885.297330218542,left,1,3,0.8284833362558857,B03I09,2022-09-22_12h02.58.993,t1_Paradigm,2021.1.4,59.97802666965467,
F,right,Target,0,59,59,59,1886.7805904303095,1888.7806504203472,right,1,3,0.6572797755943611,B03I09,2022-09-22_12h02.58.993,t1_Paradigm,2021.1.4,59.97802666965467,
V,left,Pretarget,0,60,60,60,1890.2807540395297,1892.2805182497832,left,1,3,0.8373044388717972,B03I09,2022-09-22_12h02.58.993,t1_Paradigm,2021.1.4,59.97802666965467,
J,left,Distractor,0,61,61,61,1893.7811008268618,1895.780811783974,left,1,3,1.0493605767260306,B03I09,2022-09-22_12h02.58.993,t1_Paradigm,2021.1.4,59.97802666965467,
V,left,Lure,0,62,62,62,1897.280947162537,1899.2940301246126,left,1,3,0.8956551810842939,B03I09,2022-09-22_12h02.58.993,t1_Paradigm,2021.1.4,59.97802666965467,
V,right,Target,0,63,63,63,1900.7808031222667,1902.7805670117377,None,0,3,,B03I09,2022-09-22_12h02.58.993,t1_Paradigm,2021.1.4,59.97802666965467,
R,left,Distractor,0,0,0,0,2022.3219081709394,2024.315106519207,left,1,4,0.5470620277919807,B03I09,2022-09-22_12h02.58.993,t1_Paradigm,2021.1.4,59.97802666965467,
F,left,Distractor,0,1,1,1,2025.8142454856425,2027.8166069118306,left,1,4,0.3893090686760843,B03I09,2022-09-22_12h02.58.993,t1_Paradigm,2021.1.4,59.97802666965467,
P,left,Pretarget,0,2,2,2,2029.3140658363118,2031.314496994717,left,1,4,0.6195258283987641,B03I09,2022-09-22_12h02.58.993,t1_Paradigm,2021.1.4,59.97802666965467,
H,left,Distractor,0,3,3,3,2032.814246448048,2034.8144398918957,left,1,4,0.5278905576560646,B03I09,2022-09-22_12h02.58.993,t1_Paradigm,2021.1.4,59.97802666965467,
Z,left,Distractor,0,4,4,4,2036.314095350157,2038.315001295996,left,1,4,0.5154463130747899,B03I09,2022-09-22_12h02.58.993,t1_Paradigm,2021.1.4,59.97802666965467,
T,left,Distractor,0,5,5,5,2039.8141171647003,2041.8143298566574,left,1,4,0.5197104181279428,B03I09,2022-09-22_12h02.58.993,t1_Paradigm,2021.1.4,59.97802666965467,
P,right,Target,0,6,6,6,2043.314114919107,2045.315202759928,right,1,4,1.1149203897221014,B03I09,2022-09-22_12h02.58.993,t1_Paradigm,2021.1.4,59.97802666965467,
G,left,Distractor,0,7,7,7,2046.814266658621,2048.814363540907,left,1,4,0.9439593556453474,B03I09,2022-09-22_12h02.58.993,t1_Paradigm,2021.1.4,59.97802666965467,
L,left,Distractor,0,8,8,8,2050.314797907311,2052.3152791108587,left,1,4,0.9470881411107257,B03I09,2022-09-22_12h02.58.993,t1_Paradigm,2021.1.4,59.97802666965467,
P,left,Lure,0,9,9,9,2053.8146413557697,2055.8146955713746,left,1,4,1.0797280494589359,B03I09,2022-09-22_12h02.58.993,t1_Paradigm,2021.1.4,59.97802666965467,
Q,left,Pretarget,0,10,10,10,2057.3145393406157,2059.3145534559153,left,1,4,0.5715353986015543,B03I09,2022-09-22_12h02.58.993,t1_Paradigm,2021.1.4,59.97802666965467,
D,left,Distractor,0,11,11,11,2060.8147905288497,2062.8147568446,left,1,4,0.6074315792648122,B03I09,2022-09-22_12h02.58.993,t1_Paradigm,2021.1.4,59.97802666965467,
M,left,Pretarget,0,12,12,12,2064.314268262591,2066.314391129941,left,1,4,0.8835904457373545,B03I09,2022-09-22_12h02.58.993,t1_Paradigm,2021.1.4,59.97802666965467,
C,left,Distractor,0,13,13,13,2067.8140578162856,2069.814912433736,left,1,4,0.6154259741888382,B03I09,2022-09-22_12h02.58.993,t1_Paradigm,2021.1.4,59.97802666965467,
Q,right,Target,0,14,14,14,2071.314124222379,2073.315770580084,right,1,4,0.5063550948398188,B03I09,2022-09-22_12h02.58.993,t1_Paradigm,2021.1.4,59.97802666965467,
R,left,Distractor,0,15,15,15,2074.8141543777892,2076.815244784986,left,1,4,1.1347373141907156,B03I09,2022-09-22_12h02.58.993,t1_Paradigm,2021.1.4,59.97802666965467,
M,right,Target,0,16,16,16,2078.3142637714045,2080.3149198121973,right,1,4,1.0111815664567985,B03I09,2022-09-22_12h02.58.993,t1_Paradigm,2021.1.4,59.97802666965467,
S,left,Distractor,0,17,17,17,2081.8141697762767,2083.814296172408,left,1,4,0.8558557980577461,B03I09,2022-09-22_12h02.58.993,t1_Paradigm,2021.1.4,59.97802666965467,
Z,left,Distractor,0,18,18,18,2085.314642959798,2087.316650220193,left,1,4,1.081505936163012,B03I09,2022-09-22_12h02.58.993,t1_Paradigm,2021.1.4,59.97802666965467,
L,left,Pretarget,0,19,19,19,2088.8147674311185,2090.8141854956048,left,1,4,0.5119601538171992,B03I09,2022-09-22_12h02.58.993,t1_Paradigm,2021.1.4,59.97802666965467,
M,right,Target,0,20,20,20,2092.314241956803,2094.315154960379,left,0,4,1.3630693600862287,B03I09,2022-09-22_12h02.58.993,t1_Paradigm,2021.1.4,59.97802666965467,
P,left,Distractor,0,21,21,21,2095.8145463982364,2097.815350008197,left,1,4,1.046932423603721,B03I09,2022-09-22_12h02.58.993,t1_Paradigm,2021.1.4,59.97802666965467,
F,left,Distractor,0,22,22,22,2099.314359049662,2101.3144658768433,left,1,4,0.7158021470531821,B03I09,2022-09-22_12h02.58.993,t1_Paradigm,2021.1.4,59.97802666965467,
L,right,Target,0,23,23,23,2102.8140231696307,2104.8148296667496,right,1,4,0.7672347862971947,B03I09,2022-09-22_12h02.58.993,t1_Paradigm,2021.1.4,59.97802666965467,
L,left,Lure,0,24,24,24,2106.314480633766,2108.314622107602,left,1,4,0.7236210631090216,B03I09,2022-09-22_12h02.58.993,t1_Paradigm,2021.1.4,59.97802666965467,
V,left,Pretarget,0,25,25,25,2109.8141617562505,2111.8162331770873,left,1,4,0.8379482892341912,B03I09,2022-09-22_12h02.58.993,t1_Paradigm,2021.1.4,59.97802666965467,
Z,left,Distractor,0,26,26,26,2113.314525866939,2115.3140805932344,left,1,4,0.9560722113237716,B03I09,2022-09-22_12h02.58.993,t1_Paradigm,2021.1.4,59.97802666965467,
H,left,Distractor,0,27,27,27,2116.8145213756943,2118.831057454401,left,1,4,0.8633786134887487,B03I09,2022-09-22_12h02.58.993,t1_Paradigm,2021.1.4,59.97802666965467,
X,left,Distractor,0,28,28,28,2120.3145653256215,2122.31445464876,left,1,4,0.5959391553187743,B03I09,2022-09-22_12h02.58.993,t1_Paradigm,2021.1.4,59.97802666965467,
V,right,Target,0,29,29,29,2123.814331460686,2125.8156275022193,right,1,4,0.6945958274882287,B03I09,2022-09-22_12h02.58.993,t1_Paradigm,2021.1.4,59.97802666965467,
C,left,Distractor,0,30,30,30,2127.31434974639,2129.3147536366014,left,1,4,0.6512656936538406,B03I09,2022-09-22_12h02.58.993,t1_Paradigm,2021.1.4,59.97802666965467,
S,left,Pretarget,0,31,31,31,2130.814143791271,2132.814984935103,left,1,4,0.5592826730571687,B03I09,2022-09-22_12h02.58.993,t1_Paradigm,2021.1.4,59.97802666965467,
D,left,Distractor,0,32,32,32,2134.3147616566275,2136.3163727261126,left,1,4,0.5941298299585469,B03I09,2022-09-22_12h02.58.993,t1_Paradigm,2021.1.4,59.97802666965467,
V,left,Distractor,0,33,33,33,2137.8140642322833,2139.8140465882025,right,0,4,1.320115527312737,B03I09,2022-09-22_12h02.58.993,t1_Paradigm,2021.1.4,59.97802666965467,
R,left,Distractor,0,34,34,34,2141.3147228395683,2143.314258317754,left,1,4,1.003873046953231,B03I09,2022-09-22_12h02.58.993,t1_Paradigm,2021.1.4,59.97802666965467,
S,right,Target,0,35,35,35,2144.8148732958944,2146.814211801393,right,1,4,0.8966204753960483,B03I09,2022-09-22_12h02.58.993,t1_Paradigm,2021.1.4,59.97802666965467,
Y,left,Distractor,0,36,36,36,2148.3147427293006,2150.3146641327185,left,1,4,0.7075944185489789,B03I09,2022-09-22_12h02.58.993,t1_Paradigm,2021.1.4,59.97802666965467,
N,left,Pretarget,0,37,37,37,2151.81420057331,2153.814333385497,left,1,4,0.7598383669392206,B03I09,2022-09-22_12h02.58.993,t1_Paradigm,2021.1.4,59.97802666965467,
Z,left,Pretarget,0,38,38,38,2155.3142612049705,2157.3160208059126,left,1,4,0.81006960128434,B03I09,2022-09-22_12h02.58.993,t1_Paradigm,2021.1.4,59.97802666965467,
P,left,Pretarget,0,39,39,39,2158.8144860874163,2160.815429887967,left,1,4,0.8473461944959126,B03I09,2022-09-22_12h02.58.993,t1_Paradigm,2021.1.4,59.97802666965467,
M,left,Distractor,0,40,40,40,2162.3141848539817,2164.3162809766363,left,1,4,0.8656941649969667,B03I09,2022-09-22_12h02.58.993,t1_Paradigm,2021.1.4,59.97802666965467,
N,right,Target,0,41,41,41,2165.8140963125625,2167.8152037223335,None,0,4,,B03I09,2022-09-22_12h02.58.993,t1_Paradigm,2021.1.4,59.97802666965467,
Z,right,Target,0,42,42,42,2169.314739521302,2171.3153660483076,right,1,4,0.84269873064477,B03I09,2022-09-22_12h02.58.993,t1_Paradigm,2021.1.4,59.97802666965467,
P,right,Target,0,43,43,43,2172.8141428288654,2174.816624235187,right,1,4,1.0056480464409105,B03I09,2022-09-22_12h02.58.993,t1_Paradigm,2021.1.4,59.97802666965467,
X,left,Pretarget,0,44,44,44,2176.3143519920413,2178.31466637837,right,0,4,1.3157205349416472,B03I09,2022-09-22_12h02.58.993,t1_Paradigm,2021.1.4,59.97802666965467,
Z,left,Lure,0,45,45,45,2179.8144017164013,2181.8142624881584,left,1,4,1.096112067811191,B03I09,2022-09-22_12h02.58.993,t1_Paradigm,2021.1.4,59.97802666965467,
R,left,Pretarget,0,46,46,46,2183.314608954708,2185.315056794847,left,1,4,0.7313719690428115,B03I09,2022-09-22_12h02.58.993,t1_Paradigm,2021.1.4,59.97802666965467,
K,left,Distractor,0,47,47,47,2186.814054287446,2188.8153856172576,left,1,4,0.5429021834861487,B03I09,2022-09-22_12h02.58.993,t1_Paradigm,2021.1.4,59.97802666965467,
X,right,Target,0,48,48,48,2190.3144796713605,2192.3141376960557,right,1,4,0.5482281443546526,B03I09,2022-09-22_12h02.58.993,t1_Paradigm,2021.1.4,59.97802666965467,
B,left,Distractor,0,49,49,49,2193.814372844179,2195.814661245502,left,1,4,0.6637481136713177,B03I09,2022-09-22_12h02.58.993,t1_Paradigm,2021.1.4,59.97802666965467,
R,right,Target,0,50,50,50,2197.3143696361803,2199.3143927339115,right,1,4,0.9236439042142592,B03I09,2022-09-22_12h02.58.993,t1_Paradigm,2021.1.4,59.97802666965467,
Y,left,Pretarget,0,51,51,51,2200.8147818672005,2202.8164032023633,left,1,4,0.846027055173181,B03I09,2022-09-22_12h02.58.993,t1_Paradigm,2021.1.4,59.97802666965467,
W,left,Pretarget,0,52,52,52,2204.3148421780206,2206.3151094064233,left,1,4,0.7551678052986972,B03I09,2022-09-22_12h02.58.993,t1_Paradigm,2021.1.4,59.97802666965467,
Z,left,Distractor,0,53,53,53,2207.8145072603947,2209.814891260816,left,1,4,1.0315310228616,B03I09,2022-09-22_12h02.58.993,t1_Paradigm,2021.1.4,59.97802666965467,
Q,left,Distractor,0,54,54,54,2211.3145274709095,2213.3143279318465,left,1,4,1.4518966477480717,B03I09,2022-09-22_12h02.58.993,t1_Paradigm,2021.1.4,59.97802666965467,
Y,right,Target,0,55,55,55,2214.814816834638,2216.81419159082,right,1,4,0.672116564179305,B03I09,2022-09-22_12h02.58.993,t1_Paradigm,2021.1.4,59.97802666965467,
W,right,Target,0,56,56,56,2218.3144620272215,2220.3142749994877,right,1,4,0.7879425788996741,B03I09,2022-09-22_12h02.58.993,t1_Paradigm,2021.1.4,59.97802666965467,
H,left,Pretarget,0,57,57,57,2221.8148033609614,2223.815419301507,left,1,4,0.7588881503324956,B03I09,2022-09-22_12h02.58.993,t1_Paradigm,2021.1.4,59.97802666965467,
M,left,Distractor,0,58,58,58,2225.3143985084025,2227.3155129757943,left,1,4,0.7948433586279862,B03I09,2022-09-22_12h02.58.993,t1_Paradigm,2021.1.4,59.97802666965467,
R,left,Pretarget,0,59,59,59,2228.814425776596,2230.8142839819193,left,1,4,1.119940305070486,B03I09,2022-09-22_12h02.58.993,t1_Paradigm,2021.1.4,59.97802666965467,
J,left,Distractor,0,60,60,60,2232.3145024483674,2234.314300663653,left,1,4,1.044130856578704,B03I09,2022-09-22_12h02.58.993,t1_Paradigm,2021.1.4,59.97802666965467,
H,right,Target,0,61,61,61,2235.8144588192226,2237.815324985597,right,1,4,1.0950312846689485,B03I09,2022-09-22_12h02.58.993,t1_Paradigm,2021.1.4,59.97802666965467,
Z,left,Distractor,0,62,62,62,2239.314292964409,2241.314293605974,left,1,4,0.9559400407597423,B03I09,2022-09-22_12h02.58.993,t1_Paradigm,2021.1.4,59.97802666965467,
R,right,Target,0,63,63,63,2242.8144633104675,2244.8161933976226,right,1,4,0.8462750354083255,B03I09,2022-09-22_12h02.58.993,t1_Paradigm,2021.1.4,59.97802666965467,
J,left,Pretarget,0,0,0,0,2268.268728762865,2270.2647809689515,left,1,4,0.9173330801422708,B03I09,2022-09-22_12h02.58.993,t1_Paradigm,2021.1.4,59.97802666965467,
G,left,Pretarget,0,1,1,1,2271.7644710738678,2273.7642805172363,left,1,4,0.5220724859391339,B03I09,2022-09-22_12h02.58.993,t1_Paradigm,2021.1.4,59.97802666965467,
Z,left,Distractor,0,2,2,2,2275.2646394951153,2277.26435077301,left,1,4,0.5260773826739751,B03I09,2022-09-22_12h02.58.993,t1_Paradigm,2021.1.4,59.97802666965467,
F,left,Distractor,0,3,3,3,2278.7643013694324,2280.764727715752,left,1,4,0.5457967832917348,B03I09,2022-09-22_12h02.58.993,t1_Paradigm,2021.1.4,59.97802666965467,
J,right,Target,0,4,4,4,2282.264559615345,2284.2643905524747,right,1,4,0.501833385496866,B03I09,2022-09-22_12h02.58.993,t1_Paradigm,2021.1.4,59.97802666965467,
G,right,Target,0,5,5,5,2285.7648005379015,2287.7648306933115,right,1,4,0.6976335051003844,B03I09,2022-09-22_12h02.58.993,t1_Paradigm,2021.1.4,59.97802666965467,
H,left,Distractor,0,6,6,6,2289.264310993487,2291.265351676382,left,1,4,0.6209649478551,B03I09,2022-09-22_12h02.58.993,t1_Paradigm,2021.1.4,59.97802666965467,
P,left,Distractor,0,7,7,7,2292.764501870901,2294.7648242772557,left,1,4,0.5612937831319869,B03I09,2022-09-22_12h02.58.993,t1_Paradigm,2021.1.4,59.97802666965467,
G,left,Lure,0,8,8,8,2296.2643231839756,2298.2646921066917,left,1,4,0.7897195032564923,B03I09,2022-09-22_12h02.58.993,t1_Paradigm,2021.1.4,59.97802666965467,
S,left,Distractor,0,9,9,9,2299.7645317055285,2301.7661062035477,left,1,4,0.8883553232299164,B03I09,2022-09-22_12h02.58.993,t1_Paradigm,2021.1.4,59.97802666965467,
R,left,Pretarget,0,10,10,10,2303.2644707530853,2305.2647816105746,left,1,4,0.9733573636040092,B03I09,2022-09-22_12h02.58.993,t1_Paradigm,2021.1.4,59.97802666965467,
T,left,Pretarget,0,11,11,11,2306.7645721266163,2308.749645513366,left,1,4,0.6247770423651673,B03I09,2022-09-22_12h02.58.993,t1_Paradigm,2021.1.4,59.97802666965467,
X,left,Distractor,0,12,12,12,2310.2643950437196,2312.266455878096,left,1,4,0.7559560167137533,B03I09,2022-09-22_12h02.58.993,t1_Paradigm,2021.1.4,59.97802666965467,
F,left,Pretarget,0,13,13,13,2313.7643668131204,2315.766311837826,left,1,4,0.664169006398879,B03I09,2022-09-22_12h02.58.993,t1_Paradigm,2021.1.4,59.97802666965467,
R,right,Target,0,14,14,14,2317.264878172078,2319.2656817819807,right,1,4,0.7648602071567439,B03I09,2022-09-22_12h02.58.993,t1_Paradigm,2021.1.4,59.97802666965467,
T,right,Target,0,15,15,15,2320.764817219635,2322.7647193748853,right,1,4,0.48181756353005767,B03I09,2022-09-22_12h02.58.993,t1_Paradigm,2021.1.4,59.97802666965467,
C,left,Distractor,0,16,16,16,2324.2644553545397,2326.2648095203913,left,1,4,0.7096757842809893,B03I09,2022-09-22_12h02.58.993,t1_Paradigm,2021.1.4,59.97802666965467,
F,right,Target,0,17,17,17,2327.7641268529114,2329.764367775526,right,1,4,0.6018733575474471,B03I09,2022-09-22_12h02.58.993,t1_Paradigm,2021.1.4,59.97802666965467,
M,left,Distractor,0,18,18,18,2331.2645592945046,2333.2645304222824,left,1,4,0.8140334353083745,B03I09,2022-09-22_12h02.58.993,t1_Paradigm,2021.1.4,59.97802666965467,
N,left,Distractor,0,19,19,19,2334.7646860114764,2336.766023436503,left,1,4,0.7363658995018341,B03I09,2022-09-22_12h02.58.993,t1_Paradigm,2021.1.4,59.97802666965467,
R,left,Lure,0,20,20,20,2338.264777440112,2340.2661376421456,left,1,4,0.6283786905114539,B03I09,2022-09-22_12h02.58.993,t1_Paradigm,2021.1.4,59.97802666965467,
F,right,Target,0,21,21,21,2341.748419727548,2343.7480819226475,right,1,4,1.1943481680937111,B03I09,2022-09-22_12h02.58.993,t1_Paradigm,2021.1.4,59.97802666965467,
P,left,Distractor,0,22,22,22,2345.247872117907,2347.2491325503797,left,1,4,0.797545156092383,B03I09,2022-09-22_12h02.58.993,t1_Paradigm,2021.1.4,59.97802666965467,
L,left,Pretarget,0,23,23,23,2348.764332487248,2350.7496929921326,left,1,4,0.6568017800454982,B03I09,2022-09-22_12h02.58.993,t1_Paradigm,2021.1.4,59.97802666965467,
T,left,Distractor,0,24,24,24,2352.2646298710606,2354.2645230438793,left,1,4,1.1259495750418864,B03I09,2022-09-22_12h02.58.993,t1_Paradigm,2021.1.4,59.97802666965467,
F,left,Distractor,0,25,25,25,2355.7645548032597,2357.747372628597,right,0,4,0.5551497762207873,B03I09,2022-09-22_12h02.58.993,t1_Paradigm,2021.1.4,59.97802666965467,
V,left,Distractor,0,26,26,26,2359.2477437969646,2361.247781972401,left,1,4,0.8307600706466474,B03I09,2022-09-22_12h02.58.993,t1_Paradigm,2021.1.4,59.97802666965467,
L,right,Target,0,27,27,27,2362.7480780730257,2364.748293010576,right,1,4,0.7380966282216832,B03I09,2022-09-22_12h02.58.993,t1_Paradigm,2021.1.4,59.97802666965467,
S,left,Pretarget,0,28,28,28,2366.2478987444774,2368.248143837496,left,1,4,0.6303631739574485,B03I09,2022-09-22_12h02.58.993,t1_Paradigm,2021.1.4,59.97802666965467,
W,left,Distractor,0,29,29,29,2369.7484267851687,2371.7482153763995,left,1,4,0.9701640968560241,B03I09,2022-09-22_12h02.58.993,t1_Paradigm,2021.1.4,59.97802666965467,
Q,left,Distractor,0,30,30,30,2373.247898423695,2375.248016158177,left,1,4,0.7502781356452033,B03I09,2022-09-22_12h02.58.993,t1_Paradigm,2021.1.4,59.97802666965467,
L,right,Target,0,31,31,31,2376.7481492911465,2378.748707487248,right,1,4,0.609766699722968,B03I09,2022-09-22_12h02.58.993,t1_Paradigm,2021.1.4,59.97802666965467,
S,right,Target,0,32,32,32,2380.248306484311,2382.2498604509747,right,1,4,0.6925728478236124,B03I09,2022-09-22_12h02.58.993,t1_Paradigm,2021.1.4,59.97802666965467,
Z,left,Pretarget,0,33,33,33,2383.764781931357,2385.783978103311,left,1,4,0.6946086595999077,B03I09,2022-09-22_12h02.58.993,t1_Paradigm,2021.1.4,59.97802666965467,
F,left,Distractor,0,34,34,34,2387.264756267192,2389.2649157059495,left,1,4,0.6055914569296874,B03I09,2022-09-22_12h02.58.993,t1_Paradigm,2021.1.4,59.97802666965467,
V,left,Distractor,0,35,35,35,2390.7646927483147,2392.749675668776,left,1,4,0.6248665461898781,B03I09,2022-09-22_12h02.58.993,t1_Paradigm,2021.1.4,59.97802666965467,
M,left,Distractor,0,36,36,36,2394.2645554448827,2396.264920517977,left,1,4,0.8853580667637289,B03I09,2022-09-22_12h02.58.993,t1_Paradigm,2021.1.4,59.97802666965467,
Z,right,Target,0,37,37,37,2397.748312579526,2399.7478464536835,right,1,4,0.7466922068269923,B03I09,2022-09-22_12h02.58.993,t1_Paradigm,2021.1.4,59.97802666965467,
H,left,Pretarget,0,38,38,38,2401.2478490201174,2403.2494071571855,left,1,4,0.8929235489340499,B03I09,2022-09-22_12h02.58.993,t1_Paradigm,2021.1.4,59.97802666965467,
L,left,Distractor,0,39,39,39,2404.764927254815,2406.7652596060652,left,1,4,0.7371579605387524,B03I09,2022-09-22_12h02.58.993,t1_Paradigm,2021.1.4,59.97802666965467,
G,left,Distractor,0,40,40,40,2408.2647861018195,2410.2644434848917,left,1,4,0.7420851640636101,B03I09,2022-09-22_12h02.58.993,t1_Paradigm,2021.1.4,59.97802666965467,
K,left,Distractor,0,41,41,41,2411.764576617861,2413.7644694698392,left,1,4,0.6822879239916801,B03I09,2022-09-22_12h02.58.993,t1_Paradigm,2021.1.4,59.97802666965467,
H,right,Target,0,42,42,42,2415.2646221717587,2417.264865660807,right,1,4,0.8137216154136695,B03I09,2022-09-22_12h02.58.993,t1_Paradigm,2021.1.4,59.97802666965467,
B,left,Distractor,0,43,43,43,2418.7642628731555,2420.7645977907814,left,1,4,0.5459806029684842,B03I09,2022-09-22_12h02.58.993,t1_Paradigm,2021.1.4,59.97802666965467,
Z,left,Distractor,0,44,44,44,2422.264813370013,2424.2660016219597,left,1,4,0.6924913640250452,B03I09,2022-09-22_12h02.58.993,t1_Paradigm,2021.1.4,59.97802666965467,
T,left,Pretarget,0,45,45,45,2425.7644710738678,2427.764401780558,left,1,4,0.761990309227258,B03I09,2022-09-22_12h02.58.993,t1_Paradigm,2021.1.4,59.97802666965467,
H,right,Target,0,46,46,46,2429.264734131808,2431.247441921907,right,1,4,0.47897685860516503,B03I09,2022-09-22_12h02.58.993,t1_Paradigm,2021.1.4,59.97802666965467,
F,left,Distractor,0,47,47,47,2432.7481637272285,2434.7497988569085,left,1,4,0.672807251685299,B03I09,2022-09-22_12h02.58.993,t1_Paradigm,2021.1.4,59.97802666965467,
R,left,Distractor,0,48,48,48,2436.248353000614,2438.2482878777664,left,1,4,0.6303837053128518,B03I09,2022-09-22_12h02.58.993,t1_Paradigm,2021.1.4,59.97802666965467,
T,right,Target,0,49,49,49,2439.748110474029,2441.7497523405473,right,1,4,0.6167168829124421,B03I09,2022-09-22_12h02.58.993,t1_Paradigm,2021.1.4,59.97802666965467,
H,right,Target,0,50,50,50,2443.2478515865514,2445.2489766404033,left,0,4,0.7815810680622235,B03I09,2022-09-22_12h02.58.993,t1_Paradigm,2021.1.4,59.97802666965467,
Y,left,Pretarget,0,51,51,51,2446.747967717005,2448.749495698663,left,1,4,0.8491378757171333,B03I09,2022-09-22_12h02.58.993,t1_Paradigm,2021.1.4,59.97802666965467,
H,left,Distractor,0,52,52,52,2450.248490945669,2452.2482291709166,left,1,4,0.7423764526029117,B03I09,2022-09-22_12h02.58.993,t1_Paradigm,2021.1.4,59.97802666965467,
S,left,Distractor,0,53,53,53,2453.748143837496,2455.7494090819964,left,1,4,0.857181032653898,B03I09,2022-09-22_12h02.58.993,t1_Paradigm,2021.1.4,59.97802666965467,
Q,left,Distractor,0,54,54,54,2457.2646375703043,2459.264532667934,left,1,4,0.5420539820916019,B03I09,2022-09-22_12h02.58.993,t1_Paradigm,2021.1.4,59.97802666965467,
Y,right,Target,0,55,55,55,2460.7646876154467,2462.7655836164486,right,1,4,0.5130454281461425,B03I09,2022-09-22_12h02.58.993,t1_Paradigm,2021.1.4,59.97802666965467,
R,left,Distractor,0,56,56,56,2464.2649070443003,2466.2644636954064,left,1,4,0.6620552396052517,B03I09,2022-09-22_12h02.58.993,t1_Paradigm,2021.1.4,59.97802666965467,
H,left,Pretarget,0,57,57,57,2467.7651190946344,2469.7499040800612,left,1,4,0.9845909000141546,B03I09,2022-09-22_12h02.58.993,t1_Paradigm,2021.1.4,59.97802666965467,
J,left,Distractor,0,58,58,58,2471.264442522486,2473.249949634017,left,1,4,0.6525710384594277,B03I09,2022-09-22_12h02.58.993,t1_Paradigm,2021.1.4,59.97802666965467,
V,left,Distractor,0,59,59,59,2474.7646597056882,2476.7643735499587,left,1,4,0.5463954004808329,B03I09,2022-09-22_12h02.58.993,t1_Paradigm,2021.1.4,59.97802666965467,
Y,left,Lure,0,60,60,60,2478.264649760793,2480.2644768483005,left,1,4,0.8061009552329779,B03I09,2022-09-22_12h02.58.993,t1_Paradigm,2021.1.4,59.97802666965467,
H,right,Target,0,61,61,61,2481.7480674865074,2483.74830070982,right,1,4,0.5220343104447238,B03I09,2022-09-22_12h02.58.993,t1_Paradigm,2021.1.4,59.97802666965467,
L,left,Distractor,0,62,62,62,2485.2475991150714,2487.2481897122343,left,1,4,0.5745066701201722,B03I09,2022-09-22_12h02.58.993,t1_Paradigm,2021.1.4,59.97802666965467,
P,left,Distractor,0,63,63,63,2488.747878854745,2490.748964129132,left,1,4,0.5457111289724708,B03I09,2022-09-22_12h02.58.993,t1_Paradigm,2021.1.4,59.97802666965467,
