Letter,CorrAnswer,Stimulus,finaln_nback_run.thisRepN,finaln_nback_run.thisTrialN,finaln_nback_run.thisN,finaln_nback_run.thisIndex,finaln_fixcross.started,finaln_nback_trial.started,finaln_trial_resp.keys,finaln_trial_resp.corr,finaln_trial_resp.rt,finaln_level,finaln_money,Participant,date,expName,psychopyVersion,frameRate,
D,left,Distractor,0,0,0,0,2970.6886594584794,2972.6901168617187,left,1,0.6063221083022654,2,3.0,B07R09,2022-11-17_10h36.48.995,t1_Paradigm,2021.1.4,60.00257936218466,
M,left,Pretarget,0,1,1,1,2974.188269042468,2976.1897736036335,left,1,0.6516661812202074,2,3.0,B07R09,2022-11-17_10h36.48.995,t1_Paradigm,2021.1.4,60.00257936218466,
T,left,Distractor,0,2,2,2,2977.6876925613615,2979.6897197089274,left,1,0.5415383993531577,2,3.0,B07R09,2022-11-17_10h36.48.995,t1_Paradigm,2021.1.4,60.00257936218466,
G,left,Pretarget,0,3,3,3,2981.1869412431843,2983.1884057041025,left,1,0.7431967529701069,2,3.0,B07R09,2022-11-17_10h36.48.995,t1_Paradigm,2021.1.4,60.00257936218466,
M,right,Target,0,4,4,4,2984.6862499149865,2986.68749462656,right,1,0.5444121432374232,2,3.0,B07R09,2022-11-17_10h36.48.995,t1_Paradigm,2021.1.4,60.00257936218466,
P,left,Distractor,0,5,5,5,2988.1858681606827,2990.1869316191296,left,1,0.6920859441161156,2,3.0,B07R09,2022-11-17_10h36.48.995,t1_Paradigm,2021.1.4,60.00257936218466,
G,right,Target,0,6,6,6,2991.6852887923014,2993.6869543960784,right,1,0.5859271240769885,2,3.0,B07R09,2022-11-17_10h36.48.995,t1_Paradigm,2021.1.4,60.00257936218466,
J,left,Distractor,0,7,7,7,2995.1843559002737,2997.185633654415,left,1,0.6444994655321352,2,3.0,B07R09,2022-11-17_10h36.48.995,t1_Paradigm,2021.1.4,60.00257936218466,
M,left,Lure,0,8,8,8,2998.684151549416,3000.685801433865,left,1,0.6033113819430582,2,3.0,B07R09,2022-11-17_10h36.48.995,t1_Paradigm,2021.1.4,60.00257936218466,
F,left,Pretarget,0,9,9,9,3002.1835516497376,3004.185066797363,left,1,0.6489614999154583,2,3.0,B07R09,2022-11-17_10h36.48.995,t1_Paradigm,2021.1.4,60.00257936218466,
R,left,Distractor,0,10,10,10,3005.6828070683987,3007.6848261959385,left,1,0.6652171764872037,2,3.0,B07R09,2022-11-17_10h36.48.995,t1_Paradigm,2021.1.4,60.00257936218466,
G,left,Distractor,0,11,11,11,3009.1823970834957,3011.1816043818835,left,1,0.5540252945502289,2,3.0,B07R09,2022-11-17_10h36.48.995,t1_Paradigm,2021.1.4,60.00257936218466,
F,right,Target,0,12,12,12,3012.681644802913,3014.6829392388463,right,1,0.7157617699122056,2,3.0,B07R09,2022-11-17_10h36.48.995,t1_Paradigm,2021.1.4,60.00257936218466,
F,left,Lure,0,13,13,13,3016.1811023268383,3018.180905996065,left,1,0.8081033290363848,2,3.0,B07R09,2022-11-17_10h36.48.995,t1_Paradigm,2021.1.4,60.00257936218466,
S,left,Distractor,0,14,14,14,3019.6804604021017,3021.6825234795106,left,1,0.5980954629485495,2,3.0,B07R09,2022-11-17_10h36.48.995,t1_Paradigm,2021.1.4,60.00257936218466,
F,right,Target,0,15,15,15,3023.1802804322215,3025.1814115798916,right,1,0.5666241496801376,2,3.0,B07R09,2022-11-17_10h36.48.995,t1_Paradigm,2021.1.4,60.00257936218466,
T,left,Pretarget,0,16,16,16,3026.6794944674475,3028.681064151402,left,1,0.6646730963839218,2,3.0,B07R09,2022-11-17_10h36.48.995,t1_Paradigm,2021.1.4,60.00257936218466,
Z,left,Distractor,0,17,17,17,3030.17891606153,3032.1805473394343,left,1,0.7389740368234925,2,3.0,B07R09,2022-11-17_10h36.48.995,t1_Paradigm,2021.1.4,60.00257936218466,
W,left,Distractor,0,18,18,18,3033.678044121829,3035.6794819561765,left,1,0.7728058108477853,2,3.0,B07R09,2022-11-17_10h36.48.995,t1_Paradigm,2021.1.4,60.00257936218466,
T,right,Target,0,19,19,19,3037.1775805630023,3039.179229164205,right,1,0.4428536231862381,2,3.0,B07R09,2022-11-17_10h36.48.995,t1_Paradigm,2021.1.4,60.00257936218466,
V,left,Distractor,0,20,20,20,3040.677077866334,3042.678558688145,left,1,0.5533737458172254,2,3.0,B07R09,2022-11-17_10h36.48.995,t1_Paradigm,2021.1.4,60.00257936218466,
N,left,Distractor,0,21,21,21,3044.176528011798,3046.178658457531,left,1,0.9614540412439965,2,3.0,B07R09,2022-11-17_10h36.48.995,t1_Paradigm,2021.1.4,60.00257936218466,
P,left,Pretarget,0,22,22,22,3047.675828663516,3049.6769405630766,left,1,0.6328495425987057,2,3.0,B07R09,2022-11-17_10h36.48.995,t1_Paradigm,2021.1.4,60.00257936218466,
T,left,Lure,0,23,23,23,3051.1752261974616,3053.1769113701303,left,1,0.5350248364848085,2,3.0,B07R09,2022-11-17_10h36.48.995,t1_Paradigm,2021.1.4,60.00257936218466,
L,left,Pretarget,0,24,24,24,3054.6739587089396,3056.67604648805,left,1,0.8053165224264376,2,3.0,B07R09,2022-11-17_10h36.48.995,t1_Paradigm,2021.1.4,60.00257936218466,
P,right,Target,0,25,25,25,3058.174180703878,3060.176264954149,left,0,0.5847966179717332,2,3.0,B07R09,2022-11-17_10h36.48.995,t1_Paradigm,2021.1.4,60.00257936218466,
G,left,Pretarget,0,26,26,26,3061.673576633795,3063.6752999819,left,1,0.5085435976507142,2,3.0,B07R09,2022-11-17_10h36.48.995,t1_Paradigm,2021.1.4,60.00257936218466,
L,right,Target,0,27,27,27,3065.1729940574733,3067.1745919719688,right,1,0.6356607301277108,2,3.0,B07R09,2022-11-17_10h36.48.995,t1_Paradigm,2021.1.4,60.00257936218466,
F,left,Distractor,0,28,28,28,3068.6891137140337,3070.6909965006635,left,1,0.6602534078410827,2,3.0,B07R09,2022-11-17_10h36.48.995,t1_Paradigm,2021.1.4,60.00257936218466,
G,right,Target,0,29,29,29,3072.188511568762,3074.1898653529934,right,1,0.4366393685922958,2,3.0,B07R09,2022-11-17_10h36.48.995,t1_Paradigm,2021.1.4,60.00257936218466,
R,left,Pretarget,0,30,30,30,3075.687879909703,3077.6892638493446,left,1,0.6330850112135522,2,3.0,B07R09,2022-11-17_10h36.48.995,t1_Paradigm,2021.1.4,60.00257936218466,
X,left,Distractor,0,31,31,31,3079.1872674987535,3081.1895647615893,left,1,0.6493586527649313,2,3.0,B07R09,2022-11-17_10h36.48.995,t1_Paradigm,2021.1.4,60.00257936218466,
W,left,Distractor,0,32,32,32,3082.686708340945,3084.688848731632,left,1,0.5769404989550821,2,3.0,B07R09,2022-11-17_10h36.48.995,t1_Paradigm,2021.1.4,60.00257936218466,
R,right,Target,0,33,33,33,3086.1860968924593,3088.1876518194913,right,1,0.570127627812326,2,3.0,B07R09,2022-11-17_10h36.48.995,t1_Paradigm,2021.1.4,60.00257936218466,
S,left,Distractor,0,34,34,34,3089.685540301085,3091.68723894743,left,1,0.6644809360150248,2,3.0,B07R09,2022-11-17_10h36.48.995,t1_Paradigm,2021.1.4,60.00257936218466,
D,left,Distractor,0,35,35,35,3093.1849968625465,3095.185701022856,left,1,0.5645822452497669,2,3.0,B07R09,2022-11-17_10h36.48.995,t1_Paradigm,2021.1.4,60.00257936218466,
R,right,Target,0,36,36,36,3096.6842266170424,3098.6857414438855,right,1,0.5642117190291174,2,3.0,B07R09,2022-11-17_10h36.48.995,t1_Paradigm,2021.1.4,60.00257936218466,
T,left,Distractor,0,37,37,37,3100.183809574519,3102.185531960218,left,1,0.5845406180014834,2,3.0,B07R09,2022-11-17_10h36.48.995,t1_Paradigm,2021.1.4,60.00257936218466,
G,left,Distractor,0,38,38,38,3103.683168612246,3105.684744712198,left,1,0.5649389770696871,2,3.0,B07R09,2022-11-17_10h36.48.995,t1_Paradigm,2021.1.4,60.00257936218466,
K,left,Pretarget,0,39,39,39,3107.1825812238385,3109.1839693338843,left,1,0.6720002130023204,2,3.0,B07R09,2022-11-17_10h36.48.995,t1_Paradigm,2021.1.4,60.00257936218466,
R,left,Lure,0,40,40,40,3110.681659880618,3112.6831140758586,left,1,0.8522995725506917,2,3.0,B07R09,2022-11-17_10h36.48.995,t1_Paradigm,2021.1.4,60.00257936218466,
Q,left,Pretarget,0,41,41,41,3114.181426336814,3116.1834085721057,left,1,0.5501532150083221,2,3.0,B07R09,2022-11-17_10h36.48.995,t1_Paradigm,2021.1.4,60.00257936218466,
K,right,Target,0,42,42,42,3117.6806817554752,3119.6823791186325,right,1,0.8046065877424553,2,3.0,B07R09,2022-11-17_10h36.48.995,t1_Paradigm,2021.1.4,60.00257936218466,
Z,left,Distractor,0,43,43,43,3121.1801104071783,3123.1819473191863,left,1,0.5845117458375171,2,3.0,B07R09,2022-11-17_10h36.48.995,t1_Paradigm,2021.1.4,60.00257936218466,
Q,right,Target,0,44,44,44,3124.6796532644075,3126.680553113867,right,1,0.47190416493685916,2,3.0,B07R09,2022-11-17_10h36.48.995,t1_Paradigm,2021.1.4,60.00257936218466,
W,left,Distractor,0,45,45,45,3128.1790726128966,3130.1800568332546,left,1,0.6560942105134018,2,3.0,B07R09,2022-11-17_10h36.48.995,t1_Paradigm,2021.1.4,60.00257936218466,
X,left,Distractor,0,46,46,46,3131.67854361044,3133.6800645324984,left,1,1.108505165495444,2,3.0,B07R09,2022-11-17_10h36.48.995,t1_Paradigm,2021.1.4,60.00257936218466,
R,left,Distractor,0,47,47,47,3135.1777053549304,3137.1791643622564,left,1,0.6080210753716528,2,3.0,B07R09,2022-11-17_10h36.48.995,t1_Paradigm,2021.1.4,60.00257936218466,
P,left,Pretarget,0,48,48,48,3138.677175710909,3140.679152813391,left,1,0.7753510536276735,2,3.0,B07R09,2022-11-17_10h36.48.995,t1_Paradigm,2021.1.4,60.00257936218466,
Z,left,Pretarget,0,49,49,49,3142.1766977160005,3144.177683540387,left,1,0.7931622988544405,2,3.0,B07R09,2022-11-17_10h36.48.995,t1_Paradigm,2021.1.4,60.00257936218466,
V,left,Distractor,0,50,50,50,3145.6759852148825,3147.6772443625377,left,1,0.5571107677533291,2,3.0,B07R09,2022-11-17_10h36.48.995,t1_Paradigm,2021.1.4,60.00257936218466,
P,right,Target,0,51,51,51,3149.1754799517803,3151.1776100767893,right,1,0.47532070567831397,2,3.0,B07R09,2022-11-17_10h36.48.995,t1_Paradigm,2021.1.4,60.00257936218466,
Z,right,Target,0,52,52,52,3152.674795360421,3154.6761677511968,right,1,0.6684402737300843,2,3.0,B07R09,2022-11-17_10h36.48.995,t1_Paradigm,2021.1.4,60.00257936218466,
H,left,Distractor,0,53,53,53,3156.1740741976537,3158.176187640929,left,1,0.6646820788737386,2,3.0,B07R09,2022-11-17_10h36.48.995,t1_Paradigm,2021.1.4,60.00257936218466,
L,left,Distractor,0,54,54,54,3159.673782588681,3161.674968593463,left,1,0.6254111076705158,2,3.0,B07R09,2022-11-17_10h36.48.995,t1_Paradigm,2021.1.4,60.00257936218466,
Z,right,Target,0,55,55,55,3163.1728788895416,3165.1743273103493,right,1,0.42572055326309055,2,3.0,B07R09,2022-11-17_10h36.48.995,t1_Paradigm,2021.1.4,60.00257936218466,
Z,left,Lure,0,56,56,56,3166.689230806718,3168.6890399295953,left,1,0.6189132641302422,2,3.0,B07R09,2022-11-17_10h36.48.995,t1_Paradigm,2021.1.4,60.00257936218466,
B,left,Distractor,0,57,57,57,3170.188919628854,3172.1909852726385,left,1,0.7108634448959492,2,3.0,B07R09,2022-11-17_10h36.48.995,t1_Paradigm,2021.1.4,60.00257936218466,
J,left,Distractor,0,58,58,58,3173.687971659063,3175.689430024766,left,1,0.7205295285675675,2,3.0,B07R09,2022-11-17_10h36.48.995,t1_Paradigm,2021.1.4,60.00257936218466,
X,left,Pretarget,0,59,59,59,3177.187206867209,3179.1890636688913,left,1,0.6072149000829086,2,3.0,B07R09,2022-11-17_10h36.48.995,t1_Paradigm,2021.1.4,60.00257936218466,
R,left,Distractor,0,60,60,60,3180.686910125427,3182.6882562104147,left,1,0.6651498081046157,2,3.0,B07R09,2022-11-17_10h36.48.995,t1_Paradigm,2021.1.4,60.00257936218466,
F,left,Distractor,0,61,61,61,3184.186437263328,3186.1882003908395,left,1,0.7917902289191261,2,3.0,B07R09,2022-11-17_10h36.48.995,t1_Paradigm,2021.1.4,60.00257936218466,
X,right,Target,0,62,62,62,3187.684764281148,3189.6871741454233,right,1,0.584860457573086,2,3.0,B07R09,2022-11-17_10h36.48.995,t1_Paradigm,2021.1.4,60.00257936218466,
T,left,Distractor,0,63,63,63,3191.1850302259554,3193.186785012658,left,1,0.5954183706780896,2,3.0,B07R09,2022-11-17_10h36.48.995,t1_Paradigm,2021.1.4,60.00257936218466,
