Letter,CorrAnswer,Stimulus,nback_run.thisRepN,nback_run.thisTrialN,nback_run.thisN,nback_run.thisIndex,fixcross.started,nback_trial.started,trial_resp.keys,trial_resp.corr,currentlevel,trial_resp.rt,Participant,date,expName,psychopyVersion,frameRate,
H,left,Distractor,0,0,0,0,365.44576907134615,367.444522434962,None,0,1,,B07R09,2022-11-17_10h36.48.995,t1_Paradigm,2021.1.4,60.00257936218466,
Q,left,Pretarget,0,1,1,1,368.9421000594157,370.94448842993006,left,1,1,0.5751090405974537,B07R09,2022-11-17_10h36.48.995,t1_Paradigm,2021.1.4,60.00257936218466,
Q,right,Target,0,2,2,2,372.44158613466425,374.44114150316454,left,0,1,0.5326762453769334,B07R09,2022-11-17_10h36.48.995,t1_Paradigm,2021.1.4,60.00257936218466,
T,left,Distractor,0,3,3,3,375.94075108721154,377.9423464353313,left,1,1,0.6849192284862511,B07R09,2022-11-17_10h36.48.995,t1_Paradigm,2021.1.4,60.00257936218466,
Q,left,Lure,0,4,4,4,379.4402621850022,381.44201729248744,left,1,1,0.5044171221088618,B07R09,2022-11-17_10h36.48.995,t1_Paradigm,2021.1.4,60.00257936218466,
L,left,Distractor,0,5,5,5,382.93967415502993,384.94130286655854,left,1,1,0.6179922417504713,B07R09,2022-11-17_10h36.48.995,t1_Paradigm,2021.1.4,60.00257936218466,
V,left,Pretarget,0,6,6,6,386.4390226062387,388.44012776901945,left,1,1,0.4831992808612995,B07R09,2022-11-17_10h36.48.995,t1_Paradigm,2021.1.4,60.00257936218466,
V,right,Target,0,7,7,7,389.9386392479064,391.9381432881346,right,1,1,0.749225904874038,B07R09,2022-11-17_10h36.48.995,t1_Paradigm,2021.1.4,60.00257936218466,
K,left,Distractor,0,8,8,8,393.43799860641593,395.43951311247656,left,1,1,0.6402860527159646,B07R09,2022-11-17_10h36.48.995,t1_Paradigm,2021.1.4,60.00257936218466,
G,left,Pretarget,0,9,9,9,396.9370387669769,398.939220220258,left,1,1,0.6145641520270146,B07R09,2022-11-17_10h36.48.995,t1_Paradigm,2021.1.4,60.00257936218466,
G,right,Target,0,10,10,10,400.43669615051476,402.4362563310424,left,0,1,0.49380210624076426,B07R09,2022-11-17_10h36.48.995,t1_Paradigm,2021.1.4,60.00257936218466,
G,right,Target,0,11,11,11,403.9361568824388,405.9358527621371,right,1,1,0.643721841624938,B07R09,2022-11-17_10h36.48.995,t1_Paradigm,2021.1.4,60.00257936218466,
P,left,Pretarget,0,12,12,12,407.4355755892466,409.4371943559381,left,1,1,0.669612484110985,B07R09,2022-11-17_10h36.48.995,t1_Paradigm,2021.1.4,60.00257936218466,
P,right,Target,0,13,13,13,410.9347091031959,412.9344239102793,right,1,1,0.516404528694693,B07R09,2022-11-17_10h36.48.995,t1_Paradigm,2021.1.4,60.00257936218466,
G,left,Lure,0,14,14,14,414.4342131433659,416.4359262257931,left,1,1,0.5456934262765571,B07R09,2022-11-17_10h36.48.995,t1_Paradigm,2021.1.4,60.00257936218466,
Y,left,Distractor,0,15,15,15,417.9338166321395,419.93654505279846,left,1,1,0.5435058777220547,B07R09,2022-11-17_10h36.48.995,t1_Paradigm,2021.1.4,60.00257936218466,
B,left,Distractor,0,16,16,16,421.43292544432916,423.4351190880989,left,1,1,0.5435751709155738,B07R09,2022-11-17_10h36.48.995,t1_Paradigm,2021.1.4,60.00257936218466,
T,left,Pretarget,0,17,17,17,424.93177793576615,426.9347674891469,left,1,1,0.5751247598673217,B07R09,2022-11-17_10h36.48.995,t1_Paradigm,2021.1.4,60.00257936218466,
T,right,Target,0,18,18,18,428.432010837947,430.4318972741021,right,1,1,0.5118456120835617,B07R09,2022-11-17_10h36.48.995,t1_Paradigm,2021.1.4,60.00257936218466,
S,left,Distractor,0,19,19,19,431.9314693242777,433.93419902806636,left,1,1,0.5854087080806494,B07R09,2022-11-17_10h36.48.995,t1_Paradigm,2021.1.4,60.00257936218466,
T,left,Lure,0,20,20,20,435.4306852843147,437.4429752071155,left,1,1,0.8318709041341208,B07R09,2022-11-17_10h36.48.995,t1_Paradigm,2021.1.4,60.00257936218466,
J,left,Distractor,0,21,21,21,438.9301944572944,440.932465414342,left,1,1,0.5270740808336996,B07R09,2022-11-17_10h36.48.995,t1_Paradigm,2021.1.4,60.00257936218466,
P,left,Distractor,0,22,22,22,442.4296628884622,444.43167527910555,left,1,1,0.5594632084830664,B07R09,2022-11-17_10h36.48.995,t1_Paradigm,2021.1.4,60.00257936218466,
F,left,Distractor,0,23,23,23,445.92825103906216,447.9307799208909,left,1,1,0.6483468433725648,B07R09,2022-11-17_10h36.48.995,t1_Paradigm,2021.1.4,60.00257936218466,
L,left,Distractor,0,24,24,24,449.42825520952465,451.4304389083991,left,1,1,1.0960670321946964,B07R09,2022-11-17_10h36.48.995,t1_Paradigm,2021.1.4,60.00257936218466,
W,left,Pretarget,0,25,25,25,452.9278821168118,454.9297616954427,left,1,1,0.7651598171214573,B07R09,2022-11-17_10h36.48.995,t1_Paradigm,2021.1.4,60.00257936218466,
W,right,Target,0,26,26,26,456.4269999114331,458.427485926426,right,1,1,0.5543027882813476,B07R09,2022-11-17_10h36.48.995,t1_Paradigm,2021.1.4,60.00257936218466,
V,left,Distractor,0,27,27,27,459.94335247023264,461.94484772812575,left,1,1,0.6051200633519329,B07R09,2022-11-17_10h36.48.995,t1_Paradigm,2021.1.4,60.00257936218466,
W,left,Lure,0,28,28,28,463.4429444101406,465.4448685802636,left,1,1,0.5309965263586491,B07R09,2022-11-17_10h36.48.995,t1_Paradigm,2021.1.4,60.00257936218466,
R,left,Pretarget,0,29,29,29,466.94220816966845,468.9440030566184,left,1,1,0.591400005389005,B07R09,2022-11-17_10h36.48.995,t1_Paradigm,2021.1.4,60.00257936218466,
R,right,Target,0,30,30,30,470.44169456575764,472.44125570869073,right,1,1,0.6007443246780895,B07R09,2022-11-17_10h36.48.995,t1_Paradigm,2021.1.4,60.00257936218466,
G,left,Distractor,0,31,31,31,473.94105071621016,475.9422264553723,left,1,1,0.7327440629014745,B07R09,2022-11-17_10h36.48.995,t1_Paradigm,2021.1.4,60.00257936218466,
R,left,Lure,0,32,32,32,477.440271167492,479.4403321198188,left,1,1,0.8559557524276897,B07R09,2022-11-17_10h36.48.995,t1_Paradigm,2021.1.4,60.00257936218466,
S,left,Distractor,0,33,33,33,480.94004243565723,482.94172536273254,left,1,1,0.8693915798212402,B07R09,2022-11-17_10h36.48.995,t1_Paradigm,2021.1.4,60.00257936218466,
R,left,Lure,0,34,34,34,484.43922086188104,486.44013226020616,left,1,1,0.6006804850767367,B07R09,2022-11-17_10h36.48.995,t1_Paradigm,2021.1.4,60.00257936218466,
P,left,Pretarget,0,35,35,35,487.9387595486478,489.94058138295077,left,1,1,0.9946217552060261,B07R09,2022-11-17_10h36.48.995,t1_Paradigm,2021.1.4,60.00257936218466,
P,right,Target,0,36,36,36,491.4383238996379,493.4378619447816,right,1,1,0.41714615863747895,B07R09,2022-11-17_10h36.48.995,t1_Paradigm,2021.1.4,60.00257936218466,
Y,left,Pretarget,0,37,37,37,494.93778623553226,496.9394685209845,left,1,1,0.6916387461824343,B07R09,2022-11-17_10h36.48.995,t1_Paradigm,2021.1.4,60.00257936218466,
Y,right,Target,0,38,38,38,498.43685590988025,500.43645554903196,right,1,1,0.4610280162887648,B07R09,2022-11-17_10h36.48.995,t1_Paradigm,2021.1.4,60.00257936218466,
J,left,Distractor,0,39,39,39,501.9363371731015,503.93817793473136,left,1,1,0.5562211839715019,B07R09,2022-11-17_10h36.48.995,t1_Paradigm,2021.1.4,60.00257936218466,
Y,left,Lure,0,40,40,40,505.4359265466337,507.4380184961483,left,1,1,0.6448796158656478,B07R09,2022-11-17_10h36.48.995,t1_Paradigm,2021.1.4,60.00257936218466,
T,left,Distractor,0,41,41,41,508.9350270179566,510.93762006011093,left,1,1,0.7375884932698682,B07R09,2022-11-17_10h36.48.995,t1_Paradigm,2021.1.4,60.00257936218466,
V,left,Distractor,0,42,42,42,512.4345875192666,514.436790787091,left,1,1,0.7210152227198705,B07R09,2022-11-17_10h36.48.995,t1_Paradigm,2021.1.4,60.00257936218466,
N,left,Pretarget,0,43,43,43,515.9341092035174,517.9356856243685,left,1,1,0.5902723865583539,B07R09,2022-11-17_10h36.48.995,t1_Paradigm,2021.1.4,60.00257936218466,
N,right,Target,0,44,44,44,519.4333963816171,521.4331625169725,right,1,1,0.828149922308512,B07R09,2022-11-17_10h36.48.995,t1_Paradigm,2021.1.4,60.00257936218466,
N,right,Target,0,45,45,45,522.9330402914202,524.9325311787543,right,1,1,0.5579984267824329,B07R09,2022-11-17_10h36.48.995,t1_Paradigm,2021.1.4,60.00257936218466,
X,left,Distractor,0,46,46,46,526.4322142263991,528.4339170431485,left,1,1,0.6325556879746728,B07R09,2022-11-17_10h36.48.995,t1_Paradigm,2021.1.4,60.00257936218466,
Z,left,Distractor,0,47,47,47,529.9316444821307,531.9335930332309,left,1,1,0.5463687143637799,B07R09,2022-11-17_10h36.48.995,t1_Paradigm,2021.1.4,60.00257936218466,
H,left,Pretarget,0,48,48,48,533.4311584671959,535.4325510684284,left,1,1,0.5914920755894855,B07R09,2022-11-17_10h36.48.995,t1_Paradigm,2021.1.4,60.00257936218466,
H,right,Target,0,49,49,49,536.930438266776,538.9303198908456,right,1,1,0.6697327847941779,B07R09,2022-11-17_10h36.48.995,t1_Paradigm,2021.1.4,60.00257936218466,
K,left,Distractor,0,50,50,50,540.4298810337787,542.4310952692176,left,1,1,0.7941282335086726,B07R09,2022-11-17_10h36.48.995,t1_Paradigm,2021.1.4,60.00257936218466,
V,left,Pretarget,0,51,51,51,543.9292346178554,545.9312367428793,left,1,1,0.5277381408959627,B07R09,2022-11-17_10h36.48.995,t1_Paradigm,2021.1.4,60.00257936218466,
V,right,Target,0,52,52,52,547.4289237607736,549.4283780766418,right,1,1,0.6678516021347605,B07R09,2022-11-17_10h36.48.995,t1_Paradigm,2021.1.4,60.00257936218466,
R,left,Distractor,0,53,53,53,550.9281573648914,552.9294441015227,left,1,1,0.6005489563103765,B07R09,2022-11-17_10h36.48.995,t1_Paradigm,2021.1.4,60.00257936218466,
V,left,Lure,0,54,54,54,554.4275943574612,556.4295255852048,left,1,1,0.6767689340631478,B07R09,2022-11-17_10h36.48.995,t1_Paradigm,2021.1.4,60.00257936218466,
Y,left,Distractor,0,55,55,55,557.926308262453,559.9388843406341,left,1,1,0.7479487922973931,B07R09,2022-11-17_10h36.48.995,t1_Paradigm,2021.1.4,60.00257936218466,
Q,left,Distractor,0,56,56,56,561.4268427185016,563.4284178561065,left,1,1,0.5901331584900618,B07R09,2022-11-17_10h36.48.995,t1_Paradigm,2021.1.4,60.00257936218466,
Z,left,Pretarget,0,57,57,57,564.9424041796592,566.9442879287526,left,1,1,0.6145548488129862,B07R09,2022-11-17_10h36.48.995,t1_Paradigm,2021.1.4,60.00257936218466,
Z,right,Target,0,58,58,58,568.4420512975194,570.4414199592429,right,1,1,0.48133862955728546,B07R09,2022-11-17_10h36.48.995,t1_Paradigm,2021.1.4,60.00257936218466,
B,left,Distractor,0,59,59,59,571.9413660645369,573.9400315284147,left,1,1,0.6611333676846698,B07R09,2022-11-17_10h36.48.995,t1_Paradigm,2021.1.4,60.00257936218466,
S,left,Pretarget,0,60,60,60,575.4408665758674,577.4404594782391,left,1,1,0.6306581444805488,B07R09,2022-11-17_10h36.48.995,t1_Paradigm,2021.1.4,60.00257936218466,
S,right,Target,0,61,61,61,578.9402102151071,580.939918285294,right,1,1,0.5727957377093844,B07R09,2022-11-17_10h36.48.995,t1_Paradigm,2021.1.4,60.00257936218466,
T,left,Distractor,0,62,62,62,582.4396067866473,584.4413593276986,left,1,1,0.5619080401957035,B07R09,2022-11-17_10h36.48.995,t1_Paradigm,2021.1.4,60.00257936218466,
D,left,Distractor,0,63,63,63,585.9389587666956,587.9409557588515,left,1,1,0.47532776335719973,B07R09,2022-11-17_10h36.48.995,t1_Paradigm,2021.1.4,60.00257936218466,
R,left,Distractor,0,0,0,0,600.8207477380056,602.820230926096,left,1,1,0.7390638614306226,B07R09,2022-11-17_10h36.48.995,t1_Paradigm,2021.1.4,60.00257936218466,
V,left,Distractor,0,1,1,1,604.3193458335008,606.3212542842957,left,1,1,0.687997002445627,B07R09,2022-11-17_10h36.48.995,t1_Paradigm,2021.1.4,60.00257936218466,
N,left,Pretarget,0,2,2,2,607.8188280591276,609.82047505636,left,1,1,0.49983863660600036,B07R09,2022-11-17_10h36.48.995,t1_Paradigm,2021.1.4,60.00257936218466,
N,right,Target,0,3,3,3,611.3180635880562,613.3177989264368,right,1,1,0.7382689141668379,B07R09,2022-11-17_10h36.48.995,t1_Paradigm,2021.1.4,60.00257936218466,
S,left,Distractor,0,4,4,4,614.817561533011,616.8293356063077,left,1,1,0.562946155318059,B07R09,2022-11-17_10h36.48.995,t1_Paradigm,2021.1.4,60.00257936218466,
N,left,Lure,0,5,5,5,618.3169308363576,620.3176260142354,left,1,1,0.4429857935756445,B07R09,2022-11-17_10h36.48.995,t1_Paradigm,2021.1.4,60.00257936218466,
Z,left,Distractor,0,6,6,6,621.8163732825778,623.8183738035732,left,1,1,0.49426951474742964,B07R09,2022-11-17_10h36.48.995,t1_Paradigm,2021.1.4,60.00257936218466,
L,left,Pretarget,0,7,7,7,625.3156970320852,627.3179314176668,left,1,1,0.7872332371189259,B07R09,2022-11-17_10h36.48.995,t1_Paradigm,2021.1.4,60.00257936218466,
L,right,Target,0,8,8,8,628.8149887013715,630.8149242201471,right,1,1,0.3854303943226114,B07R09,2022-11-17_10h36.48.995,t1_Paradigm,2021.1.4,60.00257936218466,
H,left,Distractor,0,9,9,9,632.3146265159594,634.3164445006405,left,1,1,0.44805542688118294,B07R09,2022-11-17_10h36.48.995,t1_Paradigm,2021.1.4,60.00257936218466,
L,left,Lure,0,10,10,10,635.814064150094,637.8162356585381,left,1,1,0.8305373304756358,B07R09,2022-11-17_10h36.48.995,t1_Paradigm,2021.1.4,60.00257936218466,
X,left,Pretarget,0,11,11,11,639.3132887717802,641.3131367116584,left,1,1,0.5594138050219044,B07R09,2022-11-17_10h36.48.995,t1_Paradigm,2021.1.4,60.00257936218466,
X,right,Target,0,12,12,12,642.8127908871393,644.8123157794471,right,1,1,0.8976949737989344,B07R09,2022-11-17_10h36.48.995,t1_Paradigm,2021.1.4,60.00257936218466,
X,right,Target,0,13,13,13,646.3122525814688,648.3119757294189,right,1,1,0.7094856005278416,B07R09,2022-11-17_10h36.48.995,t1_Paradigm,2021.1.4,60.00257936218466,
R,left,Distractor,0,14,14,14,649.8116793084191,651.8108256544219,left,1,1,0.5743201886070892,B07R09,2022-11-17_10h36.48.995,t1_Paradigm,2021.1.4,60.00257936218466,
T,left,Distractor,0,15,15,15,653.3111233586096,655.3131004610332,left,1,1,0.5670716683962382,B07R09,2022-11-17_10h36.48.995,t1_Paradigm,2021.1.4,60.00257936218466,
V,left,Pretarget,0,16,16,16,656.8103646619711,658.8119397995761,left,1,1,0.6201586173265241,B07R09,2022-11-17_10h36.48.995,t1_Paradigm,2021.1.4,60.00257936218466,
V,right,Target,0,17,17,17,660.3098661357653,662.3095565618714,right,1,1,0.6784993397886865,B07R09,2022-11-17_10h36.48.995,t1_Paradigm,2021.1.4,60.00257936218466,
N,left,Distractor,0,18,18,18,663.8093955192599,665.8109016844537,left,1,1,0.529272215848323,B07R09,2022-11-17_10h36.48.995,t1_Paradigm,2021.1.4,60.00257936218466,
B,left,Distractor,0,19,19,19,667.3087083615246,669.3107117696782,left,1,1,0.47507721703732386,B07R09,2022-11-17_10h36.48.995,t1_Paradigm,2021.1.4,60.00257936218466,
V,left,Lure,0,20,20,20,670.808097233763,672.8100380856195,left,1,1,0.4704964858829044,B07R09,2022-11-17_10h36.48.995,t1_Paradigm,2021.1.4,60.00257936218466,
P,left,Distractor,0,21,21,21,674.3074402313796,676.3095331432996,left,1,1,0.5393040137714706,B07R09,2022-11-17_10h36.48.995,t1_Paradigm,2021.1.4,60.00257936218466,
K,left,Pretarget,0,22,22,22,677.8066189783858,679.8089191283798,left,1,1,0.5346254381001927,B07R09,2022-11-17_10h36.48.995,t1_Paradigm,2021.1.4,60.00257936218466,
K,right,Target,0,23,23,23,681.30648392078,683.3060126627097,right,1,1,0.5037806510226801,B07R09,2022-11-17_10h36.48.995,t1_Paradigm,2021.1.4,60.00257936218466,
J,left,Pretarget,0,24,24,24,684.8057598707383,686.8079852738883,left,1,1,0.5742117575719021,B07R09,2022-11-17_10h36.48.995,t1_Paradigm,2021.1.4,60.00257936218466,
J,right,Target,0,25,25,25,688.3215952967876,690.3049591490999,left,0,1,0.44600967282895,B07R09,2022-11-17_10h36.48.995,t1_Paradigm,2021.1.4,60.00257936218466,
H,left,Distractor,0,26,26,26,691.8047477405635,693.8067126525566,left,1,1,0.7323854063288309,B07R09,2022-11-17_10h36.48.995,t1_Paradigm,2021.1.4,60.00257936218466,
J,left,Lure,0,27,27,27,695.3206887104316,697.3226212214213,left,1,1,0.6338793168542907,B07R09,2022-11-17_10h36.48.995,t1_Paradigm,2021.1.4,60.00257936218466,
V,left,Distractor,0,28,28,28,698.8200714875129,700.8222545448225,left,1,1,0.47015322785591707,B07R09,2022-11-17_10h36.48.995,t1_Paradigm,2021.1.4,60.00257936218466,
Z,left,Pretarget,0,29,29,29,702.3192608209793,704.3214300837717,left,1,1,0.7639706042828038,B07R09,2022-11-17_10h36.48.995,t1_Paradigm,2021.1.4,60.00257936218466,
Z,right,Target,0,30,30,30,705.8190413924167,707.818596760917,right,1,1,0.4228763231658377,B07R09,2022-11-17_10h36.48.995,t1_Paradigm,2021.1.4,60.00257936218466,
T,left,Distractor,0,31,31,31,709.3182849414297,711.3201240990311,left,1,1,0.6325178333790973,B07R09,2022-11-17_10h36.48.995,t1_Paradigm,2021.1.4,60.00257936218466,
Z,left,Lure,0,32,32,32,712.8175685906317,714.8197118685348,left,1,1,0.48498454375658184,B07R09,2022-11-17_10h36.48.995,t1_Paradigm,2021.1.4,60.00257936218466,
F,left,Distractor,0,33,33,33,716.3170729516423,718.3195123297046,left,1,1,0.7130747327464633,B07R09,2022-11-17_10h36.48.995,t1_Paradigm,2021.1.4,60.00257936218466,
Y,left,Pretarget,0,34,34,34,719.8165009617805,721.8183789363829,left,1,1,0.6639743897831067,B07R09,2022-11-17_10h36.48.995,t1_Paradigm,2021.1.4,60.00257936218466,
Y,right,Target,0,35,35,35,723.3159177438356,725.31572782906,right,1,1,0.41234471584903076,B07R09,2022-11-17_10h36.48.995,t1_Paradigm,2021.1.4,60.00257936218466,
Y,right,Target,0,36,36,36,726.8153528115945,728.8150826963247,right,1,1,0.530069408705458,B07R09,2022-11-17_10h36.48.995,t1_Paradigm,2021.1.4,60.00257936218466,
W,left,Distractor,0,37,37,37,730.3148106562439,732.3165625557303,left,1,1,0.7273449660278857,B07R09,2022-11-17_10h36.48.995,t1_Paradigm,2021.1.4,60.00257936218466,
Q,left,Distractor,0,38,38,38,733.8139618142741,735.8157435483299,left,1,1,0.6457724077044986,B07R09,2022-11-17_10h36.48.995,t1_Paradigm,2021.1.4,60.00257936218466,
P,left,Pretarget,0,39,39,39,737.3132255738019,739.3156918992172,left,1,1,0.4814258876722306,B07R09,2022-11-17_10h36.48.995,t1_Paradigm,2021.1.4,60.00257936218466,
P,right,Target,0,40,40,40,740.8127315387828,742.8126753984834,right,1,1,0.9403552176081575,B07R09,2022-11-17_10h36.48.995,t1_Paradigm,2021.1.4,60.00257936218466,
J,left,Distractor,0,41,41,41,744.3123940551304,746.3144564909162,left,1,1,0.6518628327758051,B07R09,2022-11-17_10h36.48.995,t1_Paradigm,2021.1.4,60.00257936218466,
P,left,Lure,0,42,42,42,747.8110803711461,749.8137901852606,left,1,1,0.802688192052301,B07R09,2022-11-17_10h36.48.995,t1_Paradigm,2021.1.4,60.00257936218466,
L,left,Distractor,0,43,43,43,751.3104211231112,753.3134581552004,left,1,1,0.5166823431500234,B07R09,2022-11-17_10h36.48.995,t1_Paradigm,2021.1.4,60.00257936218466,
Z,left,Distractor,0,44,44,44,754.8108224463649,756.8126728320494,left,1,1,0.9975035191746429,B07R09,2022-11-17_10h36.48.995,t1_Paradigm,2021.1.4,60.00257936218466,
F,left,Pretarget,0,45,45,45,758.3101006419747,760.3113909074455,left,1,1,0.7126538406009786,B07R09,2022-11-17_10h36.48.995,t1_Paradigm,2021.1.4,60.00257936218466,
F,right,Target,0,46,46,46,761.8094949679216,763.8091103263432,right,1,1,0.3957749740802683,B07R09,2022-11-17_10h36.48.995,t1_Paradigm,2021.1.4,60.00257936218466,
G,left,Pretarget,0,47,47,47,765.3088645920507,767.3108397696633,left,1,1,0.4746932170819491,B07R09,2022-11-17_10h36.48.995,t1_Paradigm,2021.1.4,60.00257936218466,
G,right,Target,0,48,48,48,768.8083185871365,770.8079839907004,right,1,1,0.37908685649745166,B07R09,2022-11-17_10h36.48.995,t1_Paradigm,2021.1.4,60.00257936218466,
V,left,Distractor,0,49,49,49,772.3078527827165,774.3099841908552,left,1,1,0.44104750821134076,B07R09,2022-11-17_10h36.48.995,t1_Paradigm,2021.1.4,60.00257936218466,
G,left,Lure,0,50,50,50,775.8072111787624,777.8091504265903,left,1,1,0.8282933207810856,B07R09,2022-11-17_10h36.48.995,t1_Paradigm,2021.1.4,60.00257936218466,
Q,left,Pretarget,0,51,51,51,779.3067331838538,781.3087962612626,left,1,1,0.7295395722030662,B07R09,2022-11-17_10h36.48.995,t1_Paradigm,2021.1.4,60.00257936218466,
Q,right,Target,0,52,52,52,782.8059443318634,784.8056353995926,right,1,1,0.699421722383704,B07R09,2022-11-17_10h36.48.995,t1_Paradigm,2021.1.4,60.00257936218466,
Y,left,Distractor,0,53,53,53,786.3052218858502,788.3076991185662,left,1,1,0.5166088795522228,B07R09,2022-11-17_10h36.48.995,t1_Paradigm,2021.1.4,60.00257936218466,
V,left,Distractor,0,54,54,54,789.8213880587136,791.8235031060176,left,1,1,0.5978436333825812,B07R09,2022-11-17_10h36.48.995,t1_Paradigm,2021.1.4,60.00257936218466,
B,left,Distractor,0,55,55,55,793.3208228056901,795.3227768103825,left,1,1,0.6505343918688595,B07R09,2022-11-17_10h36.48.995,t1_Paradigm,2021.1.4,60.00257936218466,
J,left,Pretarget,0,56,56,56,796.8202549862326,798.8221252615913,left,1,1,0.662833938782569,B07R09,2022-11-17_10h36.48.995,t1_Paradigm,2021.1.4,60.00257936218466,
J,right,Target,0,57,57,57,800.3198186955415,802.319237081625,right,1,1,0.7137695897836238,B07R09,2022-11-17_10h36.48.995,t1_Paradigm,2021.1.4,60.00257936218466,
H,left,Distractor,0,58,58,58,803.8190885503427,805.8199829461519,left,1,1,0.544933446450159,B07R09,2022-11-17_10h36.48.995,t1_Paradigm,2021.1.4,60.00257936218466,
J,left,Lure,0,59,59,59,807.3184706857428,809.320545953582,left,1,1,0.7838381900801323,B07R09,2022-11-17_10h36.48.995,t1_Paradigm,2021.1.4,60.00257936218466,
D,left,Pretarget,0,60,60,60,810.8178303650348,812.8194340540213,left,1,1,0.6046693365788087,B07R09,2022-11-17_10h36.48.995,t1_Paradigm,2021.1.4,60.00257936218466,
D,right,Target,0,61,61,61,814.3174816533574,816.3171117687016,right,1,1,0.6958454222185537,B07R09,2022-11-17_10h36.48.995,t1_Paradigm,2021.1.4,60.00257936218466,
R,left,Distractor,0,62,62,62,817.8167704354273,819.8182984151063,left,1,1,0.5143677570740692,B07R09,2022-11-17_10h36.48.995,t1_Paradigm,2021.1.4,60.00257936218466,
F,left,Distractor,0,63,63,63,821.3160633879015,823.3184254526859,left,1,1,0.4807589403935708,B07R09,2022-11-17_10h36.48.995,t1_Paradigm,2021.1.4,60.00257936218466,
F,left,Distractor,0,0,0,0,996.7878764450434,998.7862948914408,left,1,2,0.5256112240022048,B07R09,2022-11-17_10h36.48.995,t1_Paradigm,2021.1.4,60.00257936218466,
N,left,Pretarget,0,1,1,1,1000.2858518639114,1002.288034921221,left,1,2,0.8982554147951305,B07R09,2022-11-17_10h36.48.995,t1_Paradigm,2021.1.4,60.00257936218466,
V,left,Distractor,0,2,2,2,1003.7853369767545,1005.7846363453427,left,1,2,0.6155698662041686,B07R09,2022-11-17_10h36.48.995,t1_Paradigm,2021.1.4,60.00257936218466,
N,right,Target,0,3,3,3,1007.2849090269883,1009.2868463499472,right,1,2,0.5400100988335907,B07R09,2022-11-17_10h36.48.995,t1_Paradigm,2021.1.4,60.00257936218466,
N,left,Lure,0,4,4,4,1010.7843578892061,1012.7839633027907,left,1,2,0.7699602975626476,B07R09,2022-11-17_10h36.48.995,t1_Paradigm,2021.1.4,60.00257936218466,
X,left,Distractor,0,5,5,5,1014.283853267727,1016.2855891271029,left,1,2,0.7309924842556939,B07R09,2022-11-17_10h36.48.995,t1_Paradigm,2021.1.4,60.00257936218466,
G,left,Pretarget,0,6,6,6,1017.7830740397912,1019.7854168564663,left,1,2,0.9508675768156536,B07R09,2022-11-17_10h36.48.995,t1_Paradigm,2021.1.4,60.00257936218466,
H,left,Pretarget,0,7,7,7,1021.2826425611856,1023.2845006461139,left,1,2,0.8038777257315814,B07R09,2022-11-17_10h36.48.995,t1_Paradigm,2021.1.4,60.00257936218466,
G,right,Target,0,8,8,8,1024.7817982104607,1026.7838715534308,right,1,2,0.6811575047322549,B07R09,2022-11-17_10h36.48.995,t1_Paradigm,2021.1.4,60.00257936218466,
H,right,Target,0,9,9,9,1028.2813619197696,1030.2823916940251,right,1,2,0.49458871263777837,B07R09,2022-11-17_10h36.48.995,t1_Paradigm,2021.1.4,60.00257936218466,
T,left,Pretarget,0,10,10,10,1031.780856335885,1033.7816743808798,left,1,2,1.0654785659280606,B07R09,2022-11-17_10h36.48.995,t1_Paradigm,2021.1.4,60.00257936218466,
K,left,Distractor,0,11,11,11,1035.279846772144,1037.2822171777952,left,1,2,0.7992479118984193,B07R09,2022-11-17_10h36.48.995,t1_Paradigm,2021.1.4,60.00257936218466,
T,right,Target,0,12,12,12,1038.7795946217957,1040.7794839451672,right,1,2,0.5850936805945821,B07R09,2022-11-17_10h36.48.995,t1_Paradigm,2021.1.4,60.00257936218466,
T,left,Lure,0,13,13,13,1042.2785853788955,1044.2786091181915,left,1,2,0.666815732663963,B07R09,2022-11-17_10h36.48.995,t1_Paradigm,2021.1.4,60.00257936218466,
J,left,Distractor,0,14,14,14,1045.7785946821095,1047.7804813184193,left,1,2,0.8604421677300707,B07R09,2022-11-17_10h36.48.995,t1_Paradigm,2021.1.4,60.00257936218466,
Q,left,Pretarget,0,15,15,15,1049.2780185218435,1051.2796449877205,left,1,2,0.8483334979973733,B07R09,2022-11-17_10h36.48.995,t1_Paradigm,2021.1.4,60.00257936218466,
M,left,Distractor,0,16,16,16,1052.7771308628144,1054.780283062777,left,1,2,0.5858180513605475,B07R09,2022-11-17_10h36.48.995,t1_Paradigm,2021.1.4,60.00257936218466,
Q,right,Target,0,17,17,17,1056.2766916849068,1058.2779161859653,right,1,2,0.5548433395451866,B07R09,2022-11-17_10h36.48.995,t1_Paradigm,2021.1.4,60.00257936218466,
R,left,Distractor,0,18,18,18,1059.7761716649402,1061.7755204369896,left,1,2,0.6664532264694571,B07R09,2022-11-17_10h36.48.995,t1_Paradigm,2021.1.4,60.00257936218466,
W,left,Distractor,0,19,19,19,1063.2755153041799,1065.2770285269944,left,1,2,0.5950295586953871,B07R09,2022-11-17_10h36.48.995,t1_Paradigm,2021.1.4,60.00257936218466,
C,left,Pretarget,0,20,20,20,1066.7751181513304,1068.7766236749012,left,1,2,0.6234644814394414,B07R09,2022-11-17_10h36.48.995,t1_Paradigm,2021.1.4,60.00257936218466,
T,left,Distractor,0,21,21,21,1070.2741865424905,1072.2759230434312,left,1,2,0.9294107381138019,B07R09,2022-11-17_10h36.48.995,t1_Paradigm,2021.1.4,60.00257936218466,
C,right,Target,0,22,22,22,1073.7735808683792,1075.7732555752154,right,1,2,0.3845725699211471,B07R09,2022-11-17_10h36.48.995,t1_Paradigm,2021.1.4,60.00257936218466,
F,left,Pretarget,0,23,23,23,1077.273162221827,1079.2753407878918,left,1,2,0.8469505208195187,B07R09,2022-11-17_10h36.48.995,t1_Paradigm,2021.1.4,60.00257936218466,
C,right,Target,0,24,24,24,1080.772423414921,1082.7749009684194,right,1,2,0.5811920872074552,B07R09,2022-11-17_10h36.48.995,t1_Paradigm,2021.1.4,60.00257936218466,
F,right,Target,0,25,25,25,1084.272048076673,1086.2744518456748,left,0,2,0.5850744324852712,B07R09,2022-11-17_10h36.48.995,t1_Paradigm,2021.1.4,60.00257936218466,
H,left,Distractor,0,26,26,26,1087.7713801669888,1089.7733633646858,left,1,2,0.601776986150071,B07R09,2022-11-17_10h36.48.995,t1_Paradigm,2021.1.4,60.00257936218466,
H,left,Lure,0,27,27,27,1091.2874776882236,1093.2870000140974,left,1,2,0.9379196891677566,B07R09,2022-11-17_10h36.48.995,t1_Paradigm,2021.1.4,60.00257936218466,
P,left,Distractor,0,28,28,28,1094.786928796093,1096.7886957732262,left,1,2,0.8497216081013903,B07R09,2022-11-17_10h36.48.995,t1_Paradigm,2021.1.4,60.00257936218466,
G,left,Pretarget,0,29,29,29,1098.2863125355216,1100.2878915227484,left,1,2,1.017103876976762,B07R09,2022-11-17_10h36.48.995,t1_Paradigm,2021.1.4,60.00257936218466,
K,left,Distractor,0,30,30,30,1101.785792515555,1103.786945156986,None,0,2,,B07R09,2022-11-17_10h36.48.995,t1_Paradigm,2021.1.4,60.00257936218466,
G,right,Target,0,31,31,31,1105.284363022074,1107.2845455583883,right,1,2,1.1009634324582294,B07R09,2022-11-17_10h36.48.995,t1_Paradigm,2021.1.4,60.00257936218466,
M,left,Pretarget,0,32,32,32,1108.7846215884201,1110.786997768504,left,1,2,0.6082966442918405,B07R09,2022-11-17_10h36.48.995,t1_Paradigm,2021.1.4,60.00257936218466,
B,left,Distractor,0,33,33,33,1112.2839915333898,1114.2861267912085,left,1,2,0.5554509385256097,B07R09,2022-11-17_10h36.48.995,t1_Paradigm,2021.1.4,60.00257936218466,
M,right,Target,0,34,34,34,1115.7834092778503,1117.784555182443,right,1,2,0.3726801206939854,B07R09,2022-11-17_10h36.48.995,t1_Paradigm,2021.1.4,60.00257936218466,
M,left,Lure,0,35,35,35,1119.2825607566629,1121.282282621367,left,1,2,1.0268402162473649,B07R09,2022-11-17_10h36.48.995,t1_Paradigm,2021.1.4,60.00257936218466,
T,left,Distractor,0,36,36,36,1122.7822181402007,1124.7838721950538,left,1,2,0.9346301858895458,B07R09,2022-11-17_10h36.48.995,t1_Paradigm,2021.1.4,60.00257936218466,
F,left,Distractor,0,37,37,37,1126.281842481112,1128.2838359444286,left,1,2,0.9908882621093653,B07R09,2022-11-17_10h36.48.995,t1_Paradigm,2021.1.4,60.00257936218466,
X,left,Distractor,0,38,38,38,1129.7807620201493,1131.7809663709486,left,1,2,0.9849415562930517,B07R09,2022-11-17_10h36.48.995,t1_Paradigm,2021.1.4,60.00257936218466,
C,left,Distractor,0,39,39,39,1133.2806606466766,1135.2824058093247,left,1,2,0.8444906114600599,B07R09,2022-11-17_10h36.48.995,t1_Paradigm,2021.1.4,60.00257936218466,
R,left,Distractor,0,40,40,40,1136.7800697294879,1138.781888355792,left,1,2,0.4979013135889545,B07R09,2022-11-17_10h36.48.995,t1_Paradigm,2021.1.4,60.00257936218466,
B,left,Pretarget,0,41,41,41,1140.2792446268722,1142.2800421405118,left,1,2,0.5845139914890751,B07R09,2022-11-17_10h36.48.995,t1_Paradigm,2021.1.4,60.00257936218466,
H,left,Distractor,0,42,42,42,1143.777984837594,1145.77791009075,left,1,2,0.5701571415993385,B07R09,2022-11-17_10h36.48.995,t1_Paradigm,2021.1.4,60.00257936218466,
B,right,Target,0,43,43,43,1147.2780226922478,1149.2805140402052,right,1,2,0.7710930492612533,B07R09,2022-11-17_10h36.48.995,t1_Paradigm,2021.1.4,60.00257936218466,
W,left,Pretarget,0,44,44,44,1150.7775357148494,1152.7791147020762,left,1,2,1.0736615821952,B07R09,2022-11-17_10h36.48.995,t1_Paradigm,2021.1.4,60.00257936218466,
L,left,Pretarget,0,45,45,45,1154.2769451185013,1156.2793075040681,None,0,2,,B07R09,2022-11-17_10h36.48.995,t1_Paradigm,2021.1.4,60.00257936218466,
W,right,Target,0,46,46,46,1157.7764068127726,1159.7774808577378,right,1,2,0.8642404628917575,B07R09,2022-11-17_10h36.48.995,t1_Paradigm,2021.1.4,60.00257936218466,
L,right,Target,0,47,47,47,1161.2756933492492,1163.2774115645443,left,0,2,1.2721905127400532,B07R09,2022-11-17_10h36.48.995,t1_Paradigm,2021.1.4,60.00257936218466,
W,right,Target,0,48,48,48,1164.775257700181,1166.7766140508465,right,1,2,1.337787133816164,B07R09,2022-11-17_10h36.48.995,t1_Paradigm,2021.1.4,60.00257936218466,
X,left,Distractor,0,49,49,49,1168.2744938707328,1170.276269830356,left,1,2,0.5830700618680567,B07R09,2022-11-17_10h36.48.995,t1_Paradigm,2021.1.4,60.00257936218466,
R,left,Distractor,0,50,50,50,1171.7740187630407,1173.7755990334554,left,1,2,0.574901481741108,B07R09,2022-11-17_10h36.48.995,t1_Paradigm,2021.1.4,60.00257936218466,
V,left,Pretarget,0,51,51,51,1175.273286051408,1177.275685329223,left,1,2,0.8108939852099866,B07R09,2022-11-17_10h36.48.995,t1_Paradigm,2021.1.4,60.00257936218466,
Z,left,Distractor,0,52,52,52,1178.7728680464788,1180.7743132592295,left,1,2,0.4775124246953055,B07R09,2022-11-17_10h36.48.995,t1_Paradigm,2021.1.4,60.00257936218466,
V,right,Target,0,53,53,53,1182.272117690707,1184.2742956151487,right,1,2,0.648025399830658,B07R09,2022-11-17_10h36.48.995,t1_Paradigm,2021.1.4,60.00257936218466,
V,left,Lure,0,54,54,54,1185.771530623082,1187.7710314552533,left,1,2,0.8139213933027349,B07R09,2022-11-17_10h36.48.995,t1_Paradigm,2021.1.4,60.00257936218466,
N,left,Distractor,0,55,55,55,1189.2710064327111,1191.2706516257604,left,1,2,0.8139544358709827,B07R09,2022-11-17_10h36.48.995,t1_Paradigm,2021.1.4,60.00257936218466,
B,left,Distractor,0,56,56,56,1192.770427706011,1194.7722601267742,left,1,2,0.9262601421796717,B07R09,2022-11-17_10h36.48.995,t1_Paradigm,2021.1.4,60.00257936218466,
V,left,Lure,0,57,57,57,1196.2863879239885,1198.2879996330012,left,1,2,1.0030145759810694,B07R09,2022-11-17_10h36.48.995,t1_Paradigm,2021.1.4,60.00257936218466,
J,left,Distractor,0,58,58,58,1199.7859660694376,1201.787451061653,left,1,2,0.8685475498787127,B07R09,2022-11-17_10h36.48.995,t1_Paradigm,2021.1.4,60.00257936218466,
H,left,Distractor,0,59,59,59,1203.2852003151784,1205.287027923856,left,1,2,0.8155876385862939,B07R09,2022-11-17_10h36.48.995,t1_Paradigm,2021.1.4,60.00257936218466,
X,left,Pretarget,0,60,60,60,1206.7848429417936,1208.7859853175469,left,1,2,0.8856745245866477,B07R09,2022-11-17_10h36.48.995,t1_Paradigm,2021.1.4,60.00257936218466,
P,left,Distractor,0,61,61,61,1210.2843440947472,1212.285425197333,left,1,2,0.7919965045293793,B07R09,2022-11-17_10h36.48.995,t1_Paradigm,2021.1.4,60.00257936218466,
X,right,Target,0,62,62,62,1213.783473438234,1215.7852189216646,left,0,2,0.4651734190993011,B07R09,2022-11-17_10h36.48.995,t1_Paradigm,2021.1.4,60.00257936218466,
Q,left,Distractor,0,63,63,63,1217.28299448092,1219.2848824004177,left,1,2,0.6201688830042258,B07R09,2022-11-17_10h36.48.995,t1_Paradigm,2021.1.4,60.00257936218466,
B,left,Pretarget,0,0,0,0,1253.6891820448218,1255.6935571418726,left,1,2,0.4363660453236662,B07R09,2022-11-17_10h36.48.995,t1_Paradigm,2021.1.4,60.00257936218466,
F,left,Distractor,0,1,1,1,1257.1929890016327,1259.19472325698,left,1,2,0.6470524074393325,B07R09,2022-11-17_10h36.48.995,t1_Paradigm,2021.1.4,60.00257936218466,
B,right,Target,0,2,2,2,1260.6924359390396,1262.6940893523279,right,1,2,0.45898386620683596,B07R09,2022-11-17_10h36.48.995,t1_Paradigm,2021.1.4,60.00257936218466,
V,left,Distractor,0,3,3,3,1264.1918389266357,1266.1929549966007,left,1,2,0.5620132632320747,B07R09,2022-11-17_10h36.48.995,t1_Paradigm,2021.1.4,60.00257936218466,
G,left,Pretarget,0,4,4,4,1267.6910757387523,1269.6926800693618,left,1,2,0.5045874679344706,B07R09,2022-11-17_10h36.48.995,t1_Paradigm,2021.1.4,60.00257936218466,
B,left,Lure,0,5,5,5,1271.1906724906876,1273.19231948792,left,1,2,0.5369737083092332,B07R09,2022-11-17_10h36.48.995,t1_Paradigm,2021.1.4,60.00257936218466,
G,right,Target,0,6,6,6,1274.6898852427257,1276.6911289918935,right,1,2,0.7497533033019863,B07R09,2022-11-17_10h36.48.995,t1_Paradigm,2021.1.4,60.00257936218466,
Y,left,Pretarget,0,7,7,7,1278.1894438192248,1280.1914283001097,left,1,2,0.516292568820063,B07R09,2022-11-17_10h36.48.995,t1_Paradigm,2021.1.4,60.00257936218466,
P,left,Distractor,0,8,8,8,1281.6887730223243,1283.6905929318164,left,1,2,0.5206525881658308,B07R09,2022-11-17_10h36.48.995,t1_Paradigm,2021.1.4,60.00257936218466,
Y,right,Target,0,9,9,9,1285.1882619848475,1287.1906205207924,right,1,2,0.6018154824269004,B07R09,2022-11-17_10h36.48.995,t1_Paradigm,2021.1.4,60.00257936218466,
X,left,Distractor,0,10,10,10,1288.687733624014,1290.6892446012353,left,1,2,0.7904524847399443,B07R09,2022-11-17_10h36.48.995,t1_Paradigm,2021.1.4,60.00257936218466,
Y,right,Target,0,11,11,11,1292.187080792035,1294.18926481175,right,1,2,0.8877424139645882,B07R09,2022-11-17_10h36.48.995,t1_Paradigm,2021.1.4,60.00257936218466,
N,left,Distractor,0,12,12,12,1295.6865537144477,1297.6873152982444,left,1,2,0.5954190123011358,B07R09,2022-11-17_10h36.48.995,t1_Paradigm,2021.1.4,60.00257936218466,
Y,right,Target,0,13,13,13,1299.1860712282942,1301.1879662054125,right,1,2,0.5453293160535395,B07R09,2022-11-17_10h36.48.995,t1_Paradigm,2021.1.4,60.00257936218466,
Y,left,Lure,0,14,14,14,1302.6853102860623,1304.6849205116741,left,1,2,0.7884474725578912,B07R09,2022-11-17_10h36.48.995,t1_Paradigm,2021.1.4,60.00257936218466,
K,left,Distractor,0,15,15,15,1306.1848172134487,1308.1863057345035,left,1,2,0.8767664959304966,B07R09,2022-11-17_10h36.48.995,t1_Paradigm,2021.1.4,60.00257936218466,
T,left,Pretarget,0,16,16,16,1309.6841329428717,1311.6858973536291,left,1,2,0.8396936598001048,B07R09,2022-11-17_10h36.48.995,t1_Paradigm,2021.1.4,60.00257936218466,
J,left,Distractor,0,17,17,17,1313.183502567059,1315.1849291733233,left,1,2,0.7258124951622449,B07R09,2022-11-17_10h36.48.995,t1_Paradigm,2021.1.4,60.00257936218466,
T,right,Target,0,18,18,18,1316.6831269079703,1318.684695308737,right,1,2,0.5337541399640031,B07R09,2022-11-17_10h36.48.995,t1_Paradigm,2021.1.4,60.00257936218466,
S,left,Pretarget,0,19,19,19,1320.1824224268785,1322.1840854642214,left,1,2,0.4935820361133665,B07R09,2022-11-17_10h36.48.995,t1_Paradigm,2021.1.4,60.00257936218466,
R,left,Distractor,0,20,20,20,1323.681884121208,1325.6833678302355,left,1,2,0.5668073276174255,B07R09,2022-11-17_10h36.48.995,t1_Paradigm,2021.1.4,60.00257936218466,
S,right,Target,0,21,21,21,1327.1816091939108,1329.183281534526,right,1,2,0.46451705833896995,B07R09,2022-11-17_10h36.48.995,t1_Paradigm,2021.1.4,60.00257936218466,
Q,left,Distractor,0,22,22,22,1330.6808248331654,1332.6830999606173,left,1,2,0.5303395239752717,B07R09,2022-11-17_10h36.48.995,t1_Paradigm,2021.1.4,60.00257936218466,
D,left,Distractor,0,23,23,23,1334.1801174648572,1336.1815854545566,left,1,2,0.5552581365336664,B07R09,2022-11-17_10h36.48.995,t1_Paradigm,2021.1.4,60.00257936218466,
F,left,Distractor,0,24,24,24,1337.6794588584453,1339.680861404573,left,1,2,0.5063788260449655,B07R09,2022-11-17_10h36.48.995,t1_Paradigm,2021.1.4,60.00257936218466,
Z,left,Distractor,0,25,25,25,1341.178927289613,1343.1803317605518,left,1,2,0.46971501235384494,B07R09,2022-11-17_10h36.48.995,t1_Paradigm,2021.1.4,60.00257936218466,
P,left,Distractor,0,26,26,26,1344.6782831192832,1346.680198627757,left,1,2,0.48992361064301804,B07R09,2022-11-17_10h36.48.995,t1_Paradigm,2021.1.4,60.00257936218466,
H,left,Distractor,0,27,27,27,1348.19434920192,1350.1951393370982,left,1,2,0.5151245289016515,B07R09,2022-11-17_10h36.48.995,t1_Paradigm,2021.1.4,60.00257936218466,
Z,left,Pretarget,0,28,28,28,1351.6934974727337,1353.692760911421,left,1,2,0.5089426752529107,B07R09,2022-11-17_10h36.48.995,t1_Paradigm,2021.1.4,60.00257936218466,
J,left,Pretarget,0,29,29,29,1355.1930294226622,1357.19481500634,left,1,2,0.6248028671834618,B07R09,2022-11-17_10h36.48.995,t1_Paradigm,2021.1.4,60.00257936218466,
Z,right,Target,0,30,30,30,1358.692625212192,1360.6919771922403,right,1,2,0.47610891616204754,B07R09,2022-11-17_10h36.48.995,t1_Paradigm,2021.1.4,60.00257936218466,
J,right,Target,0,31,31,31,1362.1918074880377,1364.192029482976,right,1,2,0.744617905584164,B07R09,2022-11-17_10h36.48.995,t1_Paradigm,2021.1.4,60.00257936218466,
V,left,Pretarget,0,32,32,32,1365.6905589268426,1367.6929514678195,left,1,2,0.5965206461842172,B07R09,2022-11-17_10h36.48.995,t1_Paradigm,2021.1.4,60.00257936218466,
Z,left,Lure,0,33,33,33,1369.1908030571067,1371.192531858862,left,1,2,0.7226092875935137,B07R09,2022-11-17_10h36.48.995,t1_Paradigm,2021.1.4,60.00257936218466,
V,right,Target,0,34,34,34,1372.6903260246036,1374.6919220143463,right,1,2,0.6654799132957123,B07R09,2022-11-17_10h36.48.995,t1_Paradigm,2021.1.4,60.00257936218466,
X,left,Distractor,0,35,35,35,1376.1897511475254,1378.1913519492373,left,1,2,0.6371948050800711,B07R09,2022-11-17_10h36.48.995,t1_Paradigm,2021.1.4,60.00257936218466,
S,left,Distractor,0,36,36,36,1379.689002395724,1381.6911068565678,left,1,2,0.5612532834056765,B07R09,2022-11-17_10h36.48.995,t1_Paradigm,2021.1.4,60.00257936218466,
Q,left,Distractor,0,37,37,37,1383.1884304058622,1385.188363358262,left,1,2,0.5932433334528469,B07R09,2022-11-17_10h36.48.995,t1_Paradigm,2021.1.4,60.00257936218466,
P,left,Distractor,0,38,38,38,1386.687762496178,1388.689222786692,left,1,2,0.5312483559246175,B07R09,2022-11-17_10h36.48.995,t1_Paradigm,2021.1.4,60.00257936218466,
S,left,Lure,0,39,39,39,1390.1876065864344,1392.1888333330862,left,1,2,0.7675574909662828,B07R09,2022-11-17_10h36.48.995,t1_Paradigm,2021.1.4,60.00257936218466,
K,left,Pretarget,0,40,40,40,1393.686716681812,1395.6880598795833,left,1,2,0.6786074500414543,B07R09,2022-11-17_10h36.48.995,t1_Paradigm,2021.1.4,60.00257936218466,
L,left,Distractor,0,41,41,41,1397.1858906167909,1399.1880768820993,left,1,2,0.6413600976229645,B07R09,2022-11-17_10h36.48.995,t1_Paradigm,2021.1.4,60.00257936218466,
K,right,Target,0,42,42,42,1400.6854132635053,1402.6873329423834,right,1,2,0.6210337650845759,B07R09,2022-11-17_10h36.48.995,t1_Paradigm,2021.1.4,60.00257936218466,
B,left,Distractor,0,43,43,43,1404.184880411427,1406.1863429475343,left,1,2,0.8988565976615064,B07R09,2022-11-17_10h36.48.995,t1_Paradigm,2021.1.4,60.00257936218466,
N,left,Distractor,0,44,44,44,1407.6837556798127,1409.686162977654,left,1,2,0.5194444480002858,B07R09,2022-11-17_10h36.48.995,t1_Paradigm,2021.1.4,60.00257936218466,
S,left,Pretarget,0,45,45,45,1411.1835981660406,1413.1851117096376,left,1,2,0.7891837129718624,B07R09,2022-11-17_10h36.48.995,t1_Paradigm,2021.1.4,60.00257936218466,
Z,left,Distractor,0,46,46,46,1414.683000832796,1416.684165985498,left,1,2,0.8632665081531741,B07R09,2022-11-17_10h36.48.995,t1_Paradigm,2021.1.4,60.00257936218466,
S,right,Target,0,47,47,47,1418.182725905499,1420.1839911484276,right,1,2,0.4795414970139973,B07R09,2022-11-17_10h36.48.995,t1_Paradigm,2021.1.4,60.00257936218466,
C,left,Distractor,0,48,48,48,1421.6819540560246,1423.6832751184702,left,1,2,0.8834686903865077,B07R09,2022-11-17_10h36.48.995,t1_Paradigm,2021.1.4,60.00257936218466,
T,left,Pretarget,0,49,49,49,1425.1812511789612,1427.1830210433109,left,1,2,0.5649162001209334,B07R09,2022-11-17_10h36.48.995,t1_Paradigm,2021.1.4,60.00257936218466,
S,left,Lure,0,50,50,50,1428.680575249251,1430.6829408428166,left,1,2,1.1115604833466932,B07R09,2022-11-17_10h36.48.995,t1_Paradigm,2021.1.4,60.00257936218466,
T,right,Target,0,51,51,51,1432.1802871690597,1434.1821487828274,right,1,2,0.6017179586342536,B07R09,2022-11-17_10h36.48.995,t1_Paradigm,2021.1.4,60.00257936218466,
N,left,Pretarget,0,52,52,52,1435.6795570238028,1437.6809018256026,left,1,2,0.729463221388869,B07R09,2022-11-17_10h36.48.995,t1_Paradigm,2021.1.4,60.00257936218466,
B,left,Distractor,0,53,53,53,1439.178982467507,1441.1801309385337,left,1,2,0.5990447159856558,B07R09,2022-11-17_10h36.48.995,t1_Paradigm,2021.1.4,60.00257936218466,
N,right,Target,0,54,54,54,1442.6785821066587,1444.6800584372832,right,1,2,0.4971140656271018,B07R09,2022-11-17_10h36.48.995,t1_Paradigm,2021.1.4,60.00257936218466,
N,left,Lure,0,55,55,55,1446.1943998886272,1448.1943254625658,left,1,2,0.7389403526321985,B07R09,2022-11-17_10h36.48.995,t1_Paradigm,2021.1.4,60.00257936218466,
X,left,Distractor,0,56,56,56,1449.6938323899521,1451.6955483595957,left,1,2,0.8347783322678879,B07R09,2022-11-17_10h36.48.995,t1_Paradigm,2021.1.4,60.00257936218466,
W,left,Distractor,0,57,57,57,1453.1932770817657,1455.1950514373602,left,1,2,1.1778160316171125,B07R09,2022-11-17_10h36.48.995,t1_Paradigm,2021.1.4,60.00257936218466,
S,left,Distractor,0,58,58,58,1456.6926309866249,1458.6936395879602,left,1,2,0.5014529120526277,B07R09,2022-11-17_10h36.48.995,t1_Paradigm,2021.1.4,60.00257936218466,
L,left,Distractor,0,59,59,59,1460.1914491522475,1462.194563818397,left,1,2,1.2309061885462143,B07R09,2022-11-17_10h36.48.995,t1_Paradigm,2021.1.4,60.00257936218466,
K,left,Pretarget,0,60,60,60,1463.6917115682154,1465.6927532121772,left,1,2,1.064828300382942,B07R09,2022-11-17_10h36.48.995,t1_Paradigm,2021.1.4,60.00257936218466,
V,left,Pretarget,0,61,61,61,1467.1908810120076,1469.193066635693,left,1,2,0.566436480556149,B07R09,2022-11-17_10h36.48.995,t1_Paradigm,2021.1.4,60.00257936218466,
K,right,Target,0,62,62,62,1470.6902477489202,1472.692652159545,right,1,2,0.45667056331876665,B07R09,2022-11-17_10h36.48.995,t1_Paradigm,2021.1.4,60.00257936218466,
V,right,Target,0,63,63,63,1474.1897639795789,1476.1911354079493,left,0,2,0.5636429371661507,B07R09,2022-11-17_10h36.48.995,t1_Paradigm,2021.1.4,60.00257936218466,
R,left,Distractor,0,0,0,0,1577.9883972349344,1579.9883532850654,left,1,3,0.6372682686778717,B07R09,2022-11-17_10h36.48.995,t1_Paradigm,2021.1.4,60.00257936218466,
P,left,Lure,0,1,1,1,1581.4884944379446,1583.4901170541998,left,1,3,0.8642119115102105,B07R09,2022-11-17_10h36.48.995,t1_Paradigm,2021.1.4,60.00257936218466,
V,left,Distractor,0,2,2,2,1584.9880392199848,1586.9897436407628,left,1,3,0.7657536215265281,B07R09,2022-11-17_10h36.48.995,t1_Paradigm,2021.1.4,60.00257936218466,
P,left,Pretarget,0,3,3,3,1588.487431941845,1590.4894783375203,left,1,3,0.5132991657592356,B07R09,2022-11-17_10h36.48.995,t1_Paradigm,2021.1.4,60.00257936218466,
Z,left,Distractor,0,4,4,4,1591.9867524832953,1593.988118137233,left,1,3,0.4935249333502725,B07R09,2022-11-17_10h36.48.995,t1_Paradigm,2021.1.4,60.00257936218466,
L,left,Pretarget,0,5,5,5,1595.4862177064642,1597.4881425182102,left,1,3,0.6607612373190932,B07R09,2022-11-17_10h36.48.995,t1_Paradigm,2021.1.4,60.00257936218466,
P,right,Target,0,6,6,6,1598.985541776754,1600.9867605033796,right,1,3,0.42506804212462157,B07R09,2022-11-17_10h36.48.995,t1_Paradigm,2021.1.4,60.00257936218466,
S,left,Distractor,0,7,7,7,1602.484898248047,1604.48700752086,left,1,3,0.9749264401034452,B07R09,2022-11-17_10h36.48.995,t1_Paradigm,2021.1.4,60.00257936218466,
L,right,Target,0,8,8,8,1605.9843737368356,1607.986344744044,left,0,3,0.7712585830595344,B07R09,2022-11-17_10h36.48.995,t1_Paradigm,2021.1.4,60.00257936218466,
D,left,Distractor,0,9,9,9,1609.483397215663,1611.485421796795,left,1,3,0.6740161324851215,B07R09,2022-11-17_10h36.48.995,t1_Paradigm,2021.1.4,60.00257936218466,
G,left,Distractor,0,10,10,10,1612.9831915816176,1614.9845973358024,left,1,3,0.5764817521558143,B07R09,2022-11-17_10h36.48.995,t1_Paradigm,2021.1.4,60.00257936218466,
M,left,Pretarget,0,11,11,11,1616.4826904889778,1618.483778328402,left,1,3,0.5199952650000341,B07R09,2022-11-17_10h36.48.995,t1_Paradigm,2021.1.4,60.00257936218466,
Y,left,Distractor,0,12,12,12,1619.9820193712949,1621.982962208218,left,1,3,0.49612727883504704,B07R09,2022-11-17_10h36.48.995,t1_Paradigm,2021.1.4,60.00257936218466,
V,left,Distractor,0,13,13,13,1623.4815311107086,1625.4836763133644,right,0,3,1.0006236389745027,B07R09,2022-11-17_10h36.48.995,t1_Paradigm,2021.1.4,60.00257936218466,
M,right,Target,0,14,14,14,1626.9807711308822,1628.981901316205,right,1,3,0.7161313337273896,B07R09,2022-11-17_10h36.48.995,t1_Paradigm,2021.1.4,60.00257936218466,
S,left,Pretarget,0,15,15,15,1630.4795597827178,1632.481186248653,left,1,3,0.7246758937835693,B07R09,2022-11-17_10h36.48.995,t1_Paradigm,2021.1.4,60.00257936218466,
Q,left,Distractor,0,16,16,16,1633.9797554719262,1635.9815230906825,left,1,3,0.9157477829721756,B07R09,2022-11-17_10h36.48.995,t1_Paradigm,2021.1.4,60.00257936218466,
R,left,Pretarget,0,17,17,17,1637.4790407251567,1639.4807345594745,left,1,3,0.9324933241005056,B07R09,2022-11-17_10h36.48.995,t1_Paradigm,2021.1.4,60.00257936218466,
S,right,Target,0,18,18,18,1640.9785704294918,1642.9802600934054,left,0,3,0.8916231552138925,B07R09,2022-11-17_10h36.48.995,t1_Paradigm,2021.1.4,60.00257936218466,
F,left,Distractor,0,19,19,19,1644.4778579283739,1646.4790237226407,None,0,3,,B07R09,2022-11-17_10h36.48.995,t1_Paradigm,2021.1.4,60.00257936218466,
R,right,Target,0,20,20,20,1647.9773218682967,1649.9788177678129,right,1,3,0.7952196017140523,B07R09,2022-11-17_10h36.48.995,t1_Paradigm,2021.1.4,60.00257936218466,
P,left,Distractor,0,21,21,21,1651.4768589510932,1653.478043672687,left,1,3,0.7919849556637928,B07R09,2022-11-17_10h36.48.995,t1_Paradigm,2021.1.4,60.00257936218466,
L,left,Distractor,0,22,22,22,1654.9761111616972,1656.9774216376827,left,1,3,1.0041832574643195,B07R09,2022-11-17_10h36.48.995,t1_Paradigm,2021.1.4,60.00257936218466,
R,right,Target,0,23,23,23,1658.4756395828445,1660.477810128883,left,0,3,1.3217688506119885,B07R09,2022-11-17_10h36.48.995,t1_Paradigm,2021.1.4,60.00257936218466,
H,left,Pretarget,0,24,24,24,1661.974457748467,1663.9765901190112,left,1,3,0.7599625046714209,B07R09,2022-11-17_10h36.48.995,t1_Paradigm,2021.1.4,60.00257936218466,
G,left,Pretarget,0,25,25,25,1665.4743262196425,1667.4756180891418,left,1,3,0.7441950886277482,B07R09,2022-11-17_10h36.48.995,t1_Paradigm,2021.1.4,60.00257936218466,
T,left,Distractor,0,26,26,26,1668.9739268211997,1670.9752783598378,left,1,3,0.8420076043112203,B07R09,2022-11-17_10h36.48.995,t1_Paradigm,2021.1.4,60.00257936218466,
H,right,Target,0,27,27,27,1672.4733904403402,1674.475071763387,right,1,3,0.5156891403021291,B07R09,2022-11-17_10h36.48.995,t1_Paradigm,2021.1.4,60.00257936218466,
G,right,Target,0,28,28,28,1675.989383059321,1677.991014658066,left,0,3,0.5243450186681002,B07R09,2022-11-17_10h36.48.995,t1_Paradigm,2021.1.4,60.00257936218466,
D,left,Distractor,0,29,29,29,1679.4888559817336,1681.4904494050425,left,1,3,0.5690795678528957,B07R09,2022-11-17_10h36.48.995,t1_Paradigm,2021.1.4,60.00257936218466,
N,left,Pretarget,0,30,30,30,1682.988043390389,1684.9903072897578,left,1,3,0.4632059407304041,B07R09,2022-11-17_10h36.48.995,t1_Paradigm,2021.1.4,60.00257936218466,
V,left,Distractor,0,31,31,31,1686.4867277815938,1688.4891450242721,left,1,3,0.34945277601946145,B07R09,2022-11-17_10h36.48.995,t1_Paradigm,2021.1.4,60.00257936218466,
R,left,Distractor,0,32,32,32,1689.9872336862609,1691.988206678594,left,1,3,0.33795844204723835,B07R09,2022-11-17_10h36.48.995,t1_Paradigm,2021.1.4,60.00257936218466,
N,right,Target,0,33,33,33,1693.4863935059402,1695.4882865582476,left,0,3,0.374512862181291,B07R09,2022-11-17_10h36.48.995,t1_Paradigm,2021.1.4,60.00257936218466,
Z,left,Distractor,0,34,34,34,1696.985918398248,1698.9873607238405,left,1,3,0.4563317964784801,B07R09,2022-11-17_10h36.48.995,t1_Paradigm,2021.1.4,60.00257936218466,
N,left,Lure,0,35,35,35,1700.485192102613,1702.4867611450027,left,1,3,0.4646832337602973,B07R09,2022-11-17_10h36.48.995,t1_Paradigm,2021.1.4,60.00257936218466,
Y,left,Pretarget,0,36,36,36,1703.9846185087226,1705.9846707994584,left,1,3,0.3117489224532619,B07R09,2022-11-17_10h36.48.995,t1_Paradigm,2021.1.4,60.00257936218466,
Y,left,Lure,0,37,37,37,1707.4839335965808,1709.4836413459852,left,1,3,0.7528054130962119,B07R09,2022-11-17_10h36.48.995,t1_Paradigm,2021.1.4,60.00257936218466,
B,left,Distractor,0,38,38,38,1710.9834783785627,1712.9842075614142,left,1,3,0.4828621180495247,B07R09,2022-11-17_10h36.48.995,t1_Paradigm,2021.1.4,60.00257936218466,
Y,right,Target,0,39,39,39,1714.482978569169,1716.4851523232064,right,1,3,0.47354763332987204,B07R09,2022-11-17_10h36.48.995,t1_Paradigm,2021.1.4,60.00257936218466,
J,left,Distractor,0,40,40,40,1717.982337606838,1719.984244132822,left,1,3,0.49839566939044744,B07R09,2022-11-17_10h36.48.995,t1_Paradigm,2021.1.4,60.00257936218466,
X,left,Distractor,0,41,41,41,1721.481837797386,1723.4827068498707,left,1,3,0.5983819391112775,B07R09,2022-11-17_10h36.48.995,t1_Paradigm,2021.1.4,60.00257936218466,
W,left,Pretarget,0,42,42,42,1724.9813341383124,1726.983500834729,left,1,3,0.5763730002800003,B07R09,2022-11-17_10h36.48.995,t1_Paradigm,2021.1.4,60.00257936218466,
S,left,Pretarget,0,43,43,43,1728.4804025294725,1730.4827219275758,left,1,3,0.5316843257751316,B07R09,2022-11-17_10h36.48.995,t1_Paradigm,2021.1.4,60.00257936218466,
R,left,Distractor,0,44,44,44,1731.9799521234818,1733.9811349203228,left,1,3,0.43149659247137606,B07R09,2022-11-17_10h36.48.995,t1_Paradigm,2021.1.4,60.00257936218466,
W,right,Target,0,45,45,45,1735.4791764243855,1737.4805363038904,right,1,3,0.4315825673402287,B07R09,2022-11-17_10h36.48.995,t1_Paradigm,2021.1.4,60.00257936218466,
S,right,Target,0,46,46,46,1738.9780119133065,1740.9802905695979,left,0,3,0.4765503396047279,B07R09,2022-11-17_10h36.48.995,t1_Paradigm,2021.1.4,60.00257936218466,
D,left,Distractor,0,47,47,47,1742.4782393618952,1744.4798831510707,left,1,3,0.43556307803373784,B07R09,2022-11-17_10h36.48.995,t1_Paradigm,2021.1.4,60.00257936218466,
T,left,Distractor,0,48,48,48,1745.9773446452455,1747.9785867903847,left,1,3,0.4079779596067965,B07R09,2022-11-17_10h36.48.995,t1_Paradigm,2021.1.4,60.00257936218466,
S,right,Target,0,49,49,49,1749.4769853470498,1751.478974639962,right,1,3,0.3914207292255014,B07R09,2022-11-17_10h36.48.995,t1_Paradigm,2021.1.4,60.00257936218466,
K,left,Distractor,0,50,50,50,1752.9762516729534,1754.9781411964796,left,1,3,0.5100375723559409,B07R09,2022-11-17_10h36.48.995,t1_Paradigm,2021.1.4,60.00257936218466,
S,left,Lure,0,51,51,51,1756.4757938885596,1758.4748712621513,left,1,3,0.611081526032649,B07R09,2022-11-17_10h36.48.995,t1_Paradigm,2021.1.4,60.00257936218466,
T,left,Pretarget,0,52,52,52,1759.9752401844016,1761.9762151015457,left,1,3,0.5442889553378336,B07R09,2022-11-17_10h36.48.995,t1_Paradigm,2021.1.4,60.00257936218466,
V,left,Distractor,0,53,53,53,1763.4747342797345,1765.4768733871751,left,1,3,0.5433724241447635,B07R09,2022-11-17_10h36.48.995,t1_Paradigm,2021.1.4,60.00257936218466,
B,left,Distractor,0,54,54,54,1766.974369207106,1768.9761695476482,left,1,3,0.43809613020857796,B07R09,2022-11-17_10h36.48.995,t1_Paradigm,2021.1.4,60.00257936218466,
T,right,Target,0,55,55,55,1770.4737407561042,1772.4754474224756,left,0,3,0.2752936300239526,B07R09,2022-11-17_10h36.48.995,t1_Paradigm,2021.1.4,60.00257936218466,
Y,left,Pretarget,0,56,56,56,1773.9894093651092,1775.991307229444,left,1,3,0.3736835891613737,B07R09,2022-11-17_10h36.48.995,t1_Paradigm,2021.1.4,60.00257936218466,
T,left,Lure,0,57,57,57,1777.4889134052792,1779.4910172245,right,0,3,0.40658375434577465,B07R09,2022-11-17_10h36.48.995,t1_Paradigm,2021.1.4,60.00257936218466,
P,left,Pretarget,0,58,58,58,1780.988338528201,1782.9900374953286,left,1,3,0.4154965950292535,B07R09,2022-11-17_10h36.48.995,t1_Paradigm,2021.1.4,60.00257936218466,
Y,right,Target,0,59,59,59,1784.4878807438072,1786.4894087234861,right,1,3,0.4570013101911172,B07R09,2022-11-17_10h36.48.995,t1_Paradigm,2021.1.4,60.00257936218466,
R,left,Distractor,0,60,60,60,1787.9872859769966,1789.9885810544365,left,1,3,0.48201552167302,B07R09,2022-11-17_10h36.48.995,t1_Paradigm,2021.1.4,60.00257936218466,
P,right,Target,0,61,61,61,1791.4865109194652,1793.4876818466,right,1,3,0.6620826206053607,B07R09,2022-11-17_10h36.48.995,t1_Paradigm,2021.1.4,60.00257936218466,
L,left,Distractor,0,62,62,62,1794.9859370047343,1796.9868692552554,left,1,3,0.7765646473853849,B07R09,2022-11-17_10h36.48.995,t1_Paradigm,2021.1.4,60.00257936218466,
V,left,Distractor,0,63,63,63,1798.48535410763,1800.4857794910204,left,1,3,0.7163032835815102,B07R09,2022-11-17_10h36.48.995,t1_Paradigm,2021.1.4,60.00257936218466,
H,left,Lure,0,0,0,0,1820.014208318491,1822.0170047491556,left,1,3,0.4464222241076641,B07R09,2022-11-17_10h36.48.995,t1_Paradigm,2021.1.4,60.00257936218466,
B,left,Distractor,0,1,1,1,1823.5146856718347,1825.5163028344978,left,1,3,0.3939140019356273,B07R09,2022-11-17_10h36.48.995,t1_Paradigm,2021.1.4,60.00257936218466,
T,left,Distractor,0,2,2,2,1827.0142339826562,1829.0156532105175,left,1,3,0.4022179605672136,B07R09,2022-11-17_10h36.48.995,t1_Paradigm,2021.1.4,60.00257936218466,
R,left,Distractor,0,3,3,3,1830.5132860129233,1832.5149304437218,left,1,3,0.7209010171936825,B07R09,2022-11-17_10h36.48.995,t1_Paradigm,2021.1.4,60.00257936218466,
H,left,Pretarget,0,4,4,4,1834.0127223638701,1836.0147353961365,left,1,3,0.6472516255453229,B07R09,2022-11-17_10h36.48.995,t1_Paradigm,2021.1.4,60.00257936218466,
K,left,Distractor,0,5,5,5,1837.5120929504628,1839.5131207999075,left,1,3,0.5383688760339282,B07R09,2022-11-17_10h36.48.995,t1_Paradigm,2021.1.4,60.00257936218466,
G,left,Distractor,0,6,6,6,1841.0115376422764,1843.0109265145147,left,1,3,0.446596740395762,B07R09,2022-11-17_10h36.48.995,t1_Paradigm,2021.1.4,60.00257936218466,
H,right,Target,0,7,7,7,1844.5111565295374,1846.512768880173,right,1,3,0.6154774752212688,B07R09,2022-11-17_10h36.48.995,t1_Paradigm,2021.1.4,60.00257936218466,
Y,left,Pretarget,0,8,8,8,1848.0103628655197,1850.0116893815575,left,1,3,0.45306378696113825,B07R09,2022-11-17_10h36.48.995,t1_Paradigm,2021.1.4,60.00257936218466,
S,left,Distractor,0,9,9,9,1851.509143497271,1853.5087928607245,left,1,3,0.537269166961778,B07R09,2022-11-17_10h36.48.995,t1_Paradigm,2021.1.4,60.00257936218466,
P,left,Distractor,0,10,10,10,1855.0091518381378,1857.0110025446047,left,1,3,0.49011416698340327,B07R09,2022-11-17_10h36.48.995,t1_Paradigm,2021.1.4,60.00257936218466,
Y,right,Target,0,11,11,11,1858.5087226051255,1860.5107924193144,right,1,3,0.5389909110381268,B07R09,2022-11-17_10h36.48.995,t1_Paradigm,2021.1.4,60.00257936218466,
H,left,Lure,0,12,12,12,1862.0082022643182,1864.0095682390383,left,1,3,0.7151124667725526,B07R09,2022-11-17_10h36.48.995,t1_Paradigm,2021.1.4,60.00257936218466,
Q,left,Distractor,0,13,13,13,1865.5074965000385,1867.5092666852288,left,1,3,0.462544126319699,B07R09,2022-11-17_10h36.48.995,t1_Paradigm,2021.1.4,60.00257936218466,
V,left,Pretarget,0,14,14,14,1869.0062498636544,1871.0084765499923,left,1,3,0.5646650121780112,B07R09,2022-11-17_10h36.48.995,t1_Paradigm,2021.1.4,60.00257936218466,
G,left,Distractor,0,15,15,15,1872.5064407408354,1874.5077797681442,left,1,3,0.6389765391359106,B07R09,2022-11-17_10h36.48.995,t1_Paradigm,2021.1.4,60.00257936218466,
Z,left,Pretarget,0,16,16,16,1876.0058273674804,1878.0074615326594,left,1,3,0.43925615010084584,B07R09,2022-11-17_10h36.48.995,t1_Paradigm,2021.1.4,60.00257936218466,
V,right,Target,0,17,17,17,1879.5051719690673,1881.5071712068748,right,1,3,0.3819824149250053,B07R09,2022-11-17_10h36.48.995,t1_Paradigm,2021.1.4,60.00257936218466,
N,left,Distractor,0,18,18,18,1883.0045730318525,1885.0059540842776,left,1,3,0.39932496851542965,B07R09,2022-11-17_10h36.48.995,t1_Paradigm,2021.1.4,60.00257936218466,
Z,right,Target,0,19,19,19,1886.5040668063448,1888.5053227460012,right,1,3,0.47330061584943905,B07R09,2022-11-17_10h36.48.995,t1_Paradigm,2021.1.4,60.00257936218466,
R,left,Distractor,0,20,20,20,1890.003279558383,1892.004642325046,left,1,3,0.45750496920663863,B07R09,2022-11-17_10h36.48.995,t1_Paradigm,2021.1.4,60.00257936218466,
P,left,Distractor,0,21,21,21,1893.5027412527124,1895.5045194579288,left,1,3,0.5101633266895078,B07R09,2022-11-17_10h36.48.995,t1_Paradigm,2021.1.4,60.00257936218466,
Z,right,Target,0,22,22,22,1897.0024794783094,1899.0032532525947,right,1,3,0.7317575968918391,B07R09,2022-11-17_10h36.48.995,t1_Paradigm,2021.1.4,60.00257936218466,
D,left,Pretarget,0,23,23,23,1900.5017220648588,1902.5006784961442,left,1,3,0.5301412683329545,B07R09,2022-11-17_10h36.48.995,t1_Paradigm,2021.1.4,60.00257936218466,
K,left,Distractor,0,24,24,24,1904.001119278022,1906.002564490831,left,1,3,0.4992095439811237,B07R09,2022-11-17_10h36.48.995,t1_Paradigm,2021.1.4,60.00257936218466,
W,left,Distractor,0,25,25,25,1907.5010021852795,1909.5021836988744,left,1,3,0.4992028071428649,B07R09,2022-11-17_10h36.48.995,t1_Paradigm,2021.1.4,60.00257936218466,
D,right,Target,0,26,26,26,1910.9997930827085,1913.0017461250536,right,1,3,0.38530399836599827,B07R09,2022-11-17_10h36.48.995,t1_Paradigm,2021.1.4,60.00257936218466,
G,left,Pretarget,0,27,27,27,1914.516075385909,1916.5177198167075,left,1,3,0.711852477339562,B07R09,2022-11-17_10h36.48.995,t1_Paradigm,2021.1.4,60.00257936218466,
V,left,Distractor,0,28,28,28,1918.015202804585,1920.0176168392645,left,1,3,0.7728125476860441,B07R09,2022-11-17_10h36.48.995,t1_Paradigm,2021.1.4,60.00257936218466,
D,right,Target,0,29,29,29,1921.5145660127164,1923.5166476965533,right,1,3,0.5368694476783276,B07R09,2022-11-17_10h36.48.995,t1_Paradigm,2021.1.4,60.00257936218466,
G,right,Target,0,30,30,30,1925.0141788047622,1927.0130717171705,right,1,3,0.9729775682208128,B07R09,2022-11-17_10h36.48.995,t1_Paradigm,2021.1.4,60.00257936218466,
B,left,Pretarget,0,31,31,31,1928.5135368800256,1930.5157443182543,left,1,3,0.6517380408477038,B07R09,2022-11-17_10h36.48.995,t1_Paradigm,2021.1.4,60.00257936218466,
N,left,Distractor,0,32,32,32,1932.0131580129382,1934.0143982332665,left,1,3,0.5631877192063257,B07R09,2022-11-17_10h36.48.995,t1_Paradigm,2021.1.4,60.00257936218466,
F,left,Distractor,0,33,33,33,1935.512551697204,1937.514193882409,left,1,3,0.8568844741093926,B07R09,2022-11-17_10h36.48.995,t1_Paradigm,2021.1.4,60.00257936218466,
B,right,Target,0,34,34,34,1939.0119072060916,1941.013220248511,right,1,3,0.3676938958815299,B07R09,2022-11-17_10h36.48.995,t1_Paradigm,2021.1.4,60.00257936218466,
Q,left,Pretarget,0,35,35,35,1942.5113486899063,1944.5128516470431,left,1,3,0.49045004666550085,B07R09,2022-11-17_10h36.48.995,t1_Paradigm,2021.1.4,60.00257936218466,
S,left,Pretarget,0,36,36,36,1946.0110747250146,1948.0122331408784,left,1,3,0.7072066233959049,B07R09,2022-11-17_10h36.48.995,t1_Paradigm,2021.1.4,60.00257936218466,
W,left,Distractor,0,37,37,37,1949.5100282690837,1951.509392760403,left,1,3,0.6199423968209885,B07R09,2022-11-17_10h36.48.995,t1_Paradigm,2021.1.4,60.00257936218466,
Q,right,Target,0,38,38,38,1953.0096176425577,1955.0112787550897,right,1,3,0.6259388269390911,B07R09,2022-11-17_10h36.48.995,t1_Paradigm,2021.1.4,60.00257936218466,
S,right,Target,0,39,39,39,1956.508825261728,1958.5108350859955,right,1,3,0.7035347242490388,B07R09,2022-11-17_10h36.48.995,t1_Paradigm,2021.1.4,60.00257936218466,
T,left,Distractor,0,40,40,40,1960.0079854022479,1962.0094687904348,left,1,3,0.5534334149560891,B07R09,2022-11-17_10h36.48.995,t1_Paradigm,2021.1.4,60.00257936218466,
G,left,Distractor,0,41,41,41,1963.5076623546774,1965.5099718079437,left,1,3,0.5898097900790162,B07R09,2022-11-17_10h36.48.995,t1_Paradigm,2021.1.4,60.00257936218466,
D,left,Distractor,0,42,42,42,1967.0070582845947,1969.0074522293871,left,1,3,0.8935678566922434,B07R09,2022-11-17_10h36.48.995,t1_Paradigm,2021.1.4,60.00257936218466,
S,left,Lure,0,43,43,43,1970.506698344776,1972.5083848006325,right,0,3,1.0557563419570215,B07R09,2022-11-17_10h36.48.995,t1_Paradigm,2021.1.4,60.00257936218466,
Z,left,Pretarget,0,44,44,44,1974.006012791011,1976.0072395376628,left,1,3,0.6239241906441748,B07R09,2022-11-17_10h36.48.995,t1_Paradigm,2021.1.4,60.00257936218466,
J,left,Distractor,0,45,45,45,1977.5046753676725,1979.5072443496902,left,1,3,0.7140756348380819,B07R09,2022-11-17_10h36.48.995,t1_Paradigm,2021.1.4,60.00257936218466,
M,left,Pretarget,0,46,46,46,1981.00480368844,1983.0064561393228,left,1,3,0.514670594187919,B07R09,2022-11-17_10h36.48.995,t1_Paradigm,2021.1.4,60.00257936218466,
Z,right,Target,0,47,47,47,1984.5042025055736,1986.506070535339,right,1,3,0.40825256606331095,B07R09,2022-11-17_10h36.48.995,t1_Paradigm,2021.1.4,60.00257936218466,
P,left,Distractor,0,48,48,48,1988.0035586560844,1990.0051001094398,left,1,3,0.6210722613031976,B07R09,2022-11-17_10h36.48.995,t1_Paradigm,2021.1.4,60.00257936218466,
M,right,Target,0,49,49,49,1991.503003347898,1993.5042987461784,right,1,3,0.4829371856758371,B07R09,2022-11-17_10h36.48.995,t1_Paradigm,2021.1.4,60.00257936218466,
K,left,Distractor,0,50,50,50,1995.0025709068286,1997.0043086910155,left,1,3,0.4825656970497221,B07R09,2022-11-17_10h36.48.995,t1_Paradigm,2021.1.4,60.00257936218466,
Y,left,Distractor,0,51,51,51,1998.5018648217665,2000.5037383051822,left,1,3,0.544491702108644,B07R09,2022-11-17_10h36.48.995,t1_Paradigm,2021.1.4,60.00257936218466,
X,left,Distractor,0,52,52,52,2002.0014009420993,2004.0023216437548,left,1,3,0.488603510602843,B07R09,2022-11-17_10h36.48.995,t1_Paradigm,2021.1.4,60.00257936218466,
F,left,Pretarget,0,53,53,53,2005.5007554885815,2007.5025320898276,left,1,3,0.5131313863676041,B07R09,2022-11-17_10h36.48.995,t1_Paradigm,2021.1.4,60.00257936218466,
M,left,Lure,0,54,54,54,2009.00005646114,2011.0017846212722,left,1,3,0.8235374318319373,B07R09,2022-11-17_10h36.48.995,t1_Paradigm,2021.1.4,60.00257936218466,
V,left,Distractor,0,55,55,55,2012.5162482981104,2014.5181102326605,left,1,3,0.5378671418293379,B07R09,2022-11-17_10h36.48.995,t1_Paradigm,2021.1.4,60.00257936218466,
F,right,Target,0,56,56,56,2016.0157192957122,2018.015082824626,right,1,3,0.49180351005634293,B07R09,2022-11-17_10h36.48.995,t1_Paradigm,2021.1.4,60.00257936218466,
S,left,Distractor,0,57,57,57,2019.5150058321888,2021.5168353657355,left,1,3,0.6935587458428927,B07R09,2022-11-17_10h36.48.995,t1_Paradigm,2021.1.4,60.00257936218466,
D,left,Distractor,0,58,58,58,2023.0145798071753,2025.0161976114032,left,1,3,0.440913092228584,B07R09,2022-11-17_10h36.48.995,t1_Paradigm,2021.1.4,60.00257936218466,
F,right,Target,0,59,59,59,2026.5137675366132,2028.5149525790475,right,1,3,0.44982849928783253,B07R09,2022-11-17_10h36.48.995,t1_Paradigm,2021.1.4,60.00257936218466,
V,left,Pretarget,0,60,60,60,2030.013190734724,2032.014966694347,left,1,3,0.6126531347981654,B07R09,2022-11-17_10h36.48.995,t1_Paradigm,2021.1.4,60.00257936218466,
J,left,Distractor,0,61,61,61,2033.5125186546356,2035.5145490102004,left,1,3,0.5963997038197704,B07R09,2022-11-17_10h36.48.995,t1_Paradigm,2021.1.4,60.00257936218466,
V,left,Lure,0,62,62,62,2037.0121417123592,2039.0133052610327,left,1,3,0.5483987491461448,B07R09,2022-11-17_10h36.48.995,t1_Paradigm,2021.1.4,60.00257936218466,
V,right,Target,0,63,63,63,2040.5114859931637,2042.5112511661137,right,1,3,1.162334450171329,B07R09,2022-11-17_10h36.48.995,t1_Paradigm,2021.1.4,60.00257936218466,
R,left,Distractor,0,0,0,0,2143.8285926289973,2145.8295158970286,left,1,4,0.4307115900446661,B07R09,2022-11-17_10h36.48.995,t1_Paradigm,2021.1.4,60.00257936218466,
F,left,Distractor,0,1,1,1,2147.3267945340485,2149.328491897206,left,1,4,0.4231005636975169,B07R09,2022-11-17_10h36.48.995,t1_Paradigm,2021.1.4,60.00257936218466,
P,left,Pretarget,0,2,2,2,2150.8264336318243,2152.8280652305693,left,1,4,0.4723853678442538,B07R09,2022-11-17_10h36.48.995,t1_Paradigm,2021.1.4,60.00257936218466,
H,left,Distractor,0,3,3,3,2154.325654083106,2156.327590122877,left,1,4,0.7659823533613235,B07R09,2022-11-17_10h36.48.995,t1_Paradigm,2021.1.4,60.00257936218466,
Z,left,Distractor,0,4,4,4,2157.825050333806,2159.8266232258175,left,1,4,0.5100735021405853,B07R09,2022-11-17_10h36.48.995,t1_Paradigm,2021.1.4,60.00257936218466,
T,left,Distractor,0,5,5,5,2161.3244667950785,2163.326050273492,left,1,4,0.5059553674655035,B07R09,2022-11-17_10h36.48.995,t1_Paradigm,2021.1.4,60.00257936218466,
P,right,Target,0,6,6,6,2164.8242772010854,2166.8257410204387,right,1,4,0.43638689746148884,B07R09,2022-11-17_10h36.48.995,t1_Paradigm,2021.1.4,60.00257936218466,
G,left,Distractor,0,7,7,7,2168.3232891311054,2170.325240569364,left,1,4,0.6651706601842307,B07R09,2022-11-17_10h36.48.995,t1_Paradigm,2021.1.4,60.00257936218466,
L,left,Distractor,0,8,8,8,2171.822616409394,2173.8245566196274,left,1,4,0.7107392944744788,B07R09,2022-11-17_10h36.48.995,t1_Paradigm,2021.1.4,60.00257936218466,
P,left,Lure,0,9,9,9,2175.3223485397757,2177.324563677248,left,1,4,0.8044346378883347,B07R09,2022-11-17_10h36.48.995,t1_Paradigm,2021.1.4,60.00257936218466,
Q,left,Pretarget,0,10,10,10,2178.8217258631485,2180.8230860634358,left,1,4,0.5854488083859906,B07R09,2022-11-17_10h36.48.995,t1_Paradigm,2021.1.4,60.00257936218466,
D,left,Distractor,0,11,11,11,2182.321014324436,2184.322385431966,left,1,4,0.5576343165594153,B07R09,2022-11-17_10h36.48.995,t1_Paradigm,2021.1.4,60.00257936218466,
M,left,Pretarget,0,12,12,12,2185.820202053874,2187.821995016013,left,1,4,0.5657810822012834,B07R09,2022-11-17_10h36.48.995,t1_Paradigm,2021.1.4,60.00257936218466,
C,left,Distractor,0,13,13,13,2189.3196906955563,2191.3192518384894,left,1,4,0.6905290922732092,B07R09,2022-11-17_10h36.48.995,t1_Paradigm,2021.1.4,60.00257936218466,
Q,right,Target,0,14,14,14,2192.8191857532947,2194.8202816128032,right,1,4,0.42455347575014457,B07R09,2022-11-17_10h36.48.995,t1_Paradigm,2021.1.4,60.00257936218466,
R,left,Distractor,0,15,15,15,2196.318606705754,2198.3199123697123,left,1,4,0.6164632996078581,B07R09,2022-11-17_10h36.48.995,t1_Paradigm,2021.1.4,60.00257936218466,
M,right,Target,0,16,16,16,2199.818018034217,2201.8197109061293,right,1,4,0.6860699451062828,B07R09,2022-11-17_10h36.48.995,t1_Paradigm,2021.1.4,60.00257936218466,
S,left,Distractor,0,17,17,17,2203.317572761094,2205.318569813564,left,1,4,0.5483031501644291,B07R09,2022-11-17_10h36.48.995,t1_Paradigm,2021.1.4,60.00257936218466,
Z,left,Distractor,0,18,18,18,2206.8167871171026,2208.818558585481,left,1,4,0.5072395376628265,B07R09,2022-11-17_10h36.48.995,t1_Paradigm,2021.1.4,60.00257936218466,
L,left,Pretarget,0,19,19,19,2210.316162194882,2212.318200570531,left,1,4,0.7032716666581109,B07R09,2022-11-17_10h36.48.995,t1_Paradigm,2021.1.4,60.00257936218466,
M,right,Target,0,20,20,20,2213.815454826574,2215.817220520519,right,1,4,0.5529615153209306,B07R09,2022-11-17_10h36.48.995,t1_Paradigm,2021.1.4,60.00257936218466,
P,left,Distractor,0,21,21,21,2217.315046766482,2219.3166238288977,left,1,4,0.5857766679837368,B07R09,2022-11-17_10h36.48.995,t1_Paradigm,2021.1.4,60.00257936218466,
F,left,Distractor,0,22,22,22,2220.8144840798923,2222.8161833678023,left,1,4,0.5124952361220494,B07R09,2022-11-17_10h36.48.995,t1_Paradigm,2021.1.4,60.00257936218466,
L,right,Target,0,23,23,23,2224.314093663881,2226.3154519393574,left,0,4,1.0633895036298782,B07R09,2022-11-17_10h36.48.995,t1_Paradigm,2021.1.4,60.00257936218466,
L,left,Lure,0,24,24,24,2227.813721533632,2229.813305132673,left,1,4,0.8126587167498656,B07R09,2022-11-17_10h36.48.995,t1_Paradigm,2021.1.4,60.00257936218466,
V,left,Pretarget,0,25,25,25,2231.3127081202692,2233.314190546109,left,1,4,0.6031631713849492,B07R09,2022-11-17_10h36.48.995,t1_Paradigm,2021.1.4,60.00257936218466,
Z,left,Distractor,0,26,26,26,2234.8123042305815,2236.8131466565537,left,1,4,0.8613185986760072,B07R09,2022-11-17_10h36.48.995,t1_Paradigm,2021.1.4,60.00257936218466,
H,left,Distractor,0,27,27,27,2238.311431328475,2240.310979960137,left,1,4,0.487756593443919,B07R09,2022-11-17_10h36.48.995,t1_Paradigm,2021.1.4,60.00257936218466,
X,left,Distractor,0,28,28,28,2241.8111265666084,2243.812862746825,left,1,4,0.6286951572983526,B07R09,2022-11-17_10h36.48.995,t1_Paradigm,2021.1.4,60.00257936218466,
V,right,Target,0,29,29,29,2245.3264127797447,2247.329142804316,right,1,4,0.4571915456908755,B07R09,2022-11-17_10h36.48.995,t1_Paradigm,2021.1.4,60.00257936218466,
C,left,Distractor,0,30,30,30,2248.8264134213096,2250.828937491111,left,1,4,0.5832936608348973,B07R09,2022-11-17_10h36.48.995,t1_Paradigm,2021.1.4,60.00257936218466,
S,left,Pretarget,0,31,31,31,2252.325837581826,2254.3279734812095,left,1,4,0.5514896759414114,B07R09,2022-11-17_10h36.48.995,t1_Paradigm,2021.1.4,60.00257936218466,
D,left,Distractor,0,32,32,32,2255.82524345658,2257.8274919574615,left,1,4,0.502864440670237,B07R09,2022-11-17_10h36.48.995,t1_Paradigm,2021.1.4,60.00257936218466,
V,left,Distractor,0,33,33,33,2259.3246288000373,2261.326688669389,right,0,4,0.5322906414512545,B07R09,2022-11-17_10h36.48.995,t1_Paradigm,2021.1.4,60.00257936218466,
R,left,Distractor,0,34,34,34,2262.8239486999228,2264.823868820211,left,1,4,0.5022802602616139,B07R09,2022-11-17_10h36.48.995,t1_Paradigm,2021.1.4,60.00257936218466,
S,right,Target,0,35,35,35,2266.3238861435093,2268.3254616018967,right,1,4,0.41457108134636655,B07R09,2022-11-17_10h36.48.995,t1_Paradigm,2021.1.4,60.00257936218466,
Y,left,Distractor,0,36,36,36,2269.8229939932935,2271.824693602044,left,1,4,0.578628558840137,B07R09,2022-11-17_10h36.48.995,t1_Paradigm,2021.1.4,60.00257936218466,
N,left,Pretarget,0,37,37,37,2273.322426173836,2275.323607687431,left,1,4,0.5270795345422812,B07R09,2022-11-17_10h36.48.995,t1_Paradigm,2021.1.4,60.00257936218466,
Z,left,Pretarget,0,38,38,38,2276.8220428155037,2278.82407156704,left,1,4,0.46103860274888575,B07R09,2022-11-17_10h36.48.995,t1_Paradigm,2021.1.4,60.00257936218466,
P,left,Pretarget,0,39,39,39,2280.3216090912465,2282.3222747553373,left,1,4,0.4542026338749565,B07R09,2022-11-17_10h36.48.995,t1_Paradigm,2021.1.4,60.00257936218466,
M,left,Distractor,0,40,40,40,2283.8203197882394,2285.8207377931685,left,1,4,0.5617903058882803,B07R09,2022-11-17_10h36.48.995,t1_Paradigm,2021.1.4,60.00257936218466,
N,right,Target,0,41,41,41,2287.3202209812007,2289.3217101438786,right,1,4,0.397838051430881,B07R09,2022-11-17_10h36.48.995,t1_Paradigm,2021.1.4,60.00257936218466,
Z,right,Target,0,42,42,42,2290.819841793331,2292.821330635168,right,1,4,0.44263130746548995,B07R09,2022-11-17_10h36.48.995,t1_Paradigm,2021.1.4,60.00257936218466,
P,right,Target,0,43,43,43,2294.3190247107414,2296.321094204148,right,1,4,0.4099197738105431,B07R09,2022-11-17_10h36.48.995,t1_Paradigm,2021.1.4,60.00257936218466,
X,left,Pretarget,0,44,44,44,2297.818349422596,2299.8203358282917,left,1,4,0.6063426395994611,B07R09,2022-11-17_10h36.48.995,t1_Paradigm,2021.1.4,60.00257936218466,
Z,left,Lure,0,45,45,45,2301.317833252251,2303.3298581927083,left,1,4,0.7396538161556236,B07R09,2022-11-17_10h36.48.995,t1_Paradigm,2021.1.4,60.00257936218466,
R,left,Pretarget,0,46,46,46,2304.8169609917677,2306.818786996475,left,1,4,0.6853680303902365,B07R09,2022-11-17_10h36.48.995,t1_Paradigm,2021.1.4,60.00257936218466,
K,left,Distractor,0,47,47,47,2308.316489412915,2310.3183869564673,left,1,4,0.46135780069744214,B07R09,2022-11-17_10h36.48.995,t1_Paradigm,2021.1.4,60.00257936218466,
X,right,Target,0,48,48,48,2311.816091939283,2313.815929292701,right,1,4,0.7203620699001476,B07R09,2022-11-17_10h36.48.995,t1_Paradigm,2021.1.4,60.00257936218466,
B,left,Distractor,0,49,49,49,2315.315304049698,2317.3154506561696,left,1,4,0.4923658759216778,B07R09,2022-11-17_10h36.48.995,t1_Paradigm,2021.1.4,60.00257936218466,
R,right,Target,0,50,50,50,2318.814597964578,2320.816648209875,right,1,4,0.4665310529526323,B07R09,2022-11-17_10h36.48.995,t1_Paradigm,2021.1.4,60.00257936218466,
Y,left,Pretarget,0,51,51,51,2322.314322395716,2324.3155818641535,left,1,4,0.5576728128362447,B07R09,2022-11-17_10h36.48.995,t1_Paradigm,2021.1.4,60.00257936218466,
W,left,Pretarget,0,52,52,52,2325.8135396389407,2327.815450335387,left,1,4,0.732907030323986,B07R09,2022-11-17_10h36.48.995,t1_Paradigm,2021.1.4,60.00257936218466,
Z,left,Distractor,0,53,53,53,2329.312727047596,2331.315336129861,left,1,4,0.6513088078354485,B07R09,2022-11-17_10h36.48.995,t1_Paradigm,2021.1.4,60.00257936218466,
Q,left,Distractor,0,54,54,54,2332.8124450626783,2334.8134889522335,left,1,4,0.6613011470763013,B07R09,2022-11-17_10h36.48.995,t1_Paradigm,2021.1.4,60.00257936218466,
Y,right,Target,0,55,55,55,2336.311939799576,2338.31391176919,right,1,4,0.40771169401705265,B07R09,2022-11-17_10h36.48.995,t1_Paradigm,2021.1.4,60.00257936218466,
W,right,Target,0,56,56,56,2339.828220498748,2341.8297042077756,right,1,4,0.6199350183596835,B07R09,2022-11-17_10h36.48.995,t1_Paradigm,2021.1.4,60.00257936218466,
H,left,Pretarget,0,57,57,57,2343.327259376063,2345.32897245849,left,1,4,0.5312088972423226,B07R09,2022-11-17_10h36.48.995,t1_Paradigm,2021.1.4,60.00257936218466,
M,left,Distractor,0,58,58,58,2346.8268734512967,2348.82863369165,left,1,4,0.5149445589631796,B07R09,2022-11-17_10h36.48.995,t1_Paradigm,2021.1.4,60.00257936218466,
R,left,Pretarget,0,59,59,59,2350.3263194263563,2352.327983105264,left,1,4,0.49881591997109354,B07R09,2022-11-17_10h36.48.995,t1_Paradigm,2021.1.4,60.00257936218466,
J,left,Distractor,0,60,60,60,2353.82561590767,2355.826689311012,left,1,4,0.5449369752896018,B07R09,2022-11-17_10h36.48.995,t1_Paradigm,2021.1.4,60.00257936218466,
H,right,Target,0,61,61,61,2357.3249143137946,2359.3261503637186,right,1,4,0.4476563492207788,B07R09,2022-11-17_10h36.48.995,t1_Paradigm,2021.1.4,60.00257936218466,
Z,left,Distractor,0,62,62,62,2360.824524860247,2362.826079145714,left,1,4,0.4922677105641924,B07R09,2022-11-17_10h36.48.995,t1_Paradigm,2021.1.4,60.00257936218466,
R,right,Target,0,63,63,63,2364.323763918015,2366.3227787351934,right,1,4,0.5036949968780391,B07R09,2022-11-17_10h36.48.995,t1_Paradigm,2021.1.4,60.00257936218466,
J,left,Pretarget,0,0,0,0,2386.6385367196053,2388.638947025349,left,1,4,0.6857898849411868,B07R09,2022-11-17_10h36.48.995,t1_Paradigm,2021.1.4,60.00257936218466,
G,left,Pretarget,0,1,1,1,2390.1360806598677,2392.137750434049,left,1,4,0.6093848045566119,B07R09,2022-11-17_10h36.48.995,t1_Paradigm,2021.1.4,60.00257936218466,
Z,left,Distractor,0,2,2,2,2393.635534975736,2395.637262494245,left,1,4,0.57751120562898,B07R09,2022-11-17_10h36.48.995,t1_Paradigm,2021.1.4,60.00257936218466,
F,left,Distractor,0,3,3,3,2397.1350399783114,2399.1369708852726,left,1,4,0.4962883213884197,B07R09,2022-11-17_10h36.48.995,t1_Paradigm,2021.1.4,60.00257936218466,
J,right,Target,0,4,4,4,2400.6344782541273,2402.635850644845,right,1,4,0.9171124744461849,B07R09,2022-11-17_10h36.48.995,t1_Paradigm,2021.1.4,60.00257936218466,
G,right,Target,0,5,5,5,2404.1338966401527,2406.1355760383885,right,1,4,0.6317937833955511,B07R09,2022-11-17_10h36.48.995,t1_Paradigm,2021.1.4,60.00257936218466,
H,left,Distractor,0,6,6,6,2407.633073462348,2409.6352427251404,left,1,4,0.6154992897063494,B07R09,2022-11-17_10h36.48.995,t1_Paradigm,2021.1.4,60.00257936218466,
P,left,Distractor,0,7,7,7,2411.132563708059,2413.13390145218,left,1,4,0.4944905472220853,B07R09,2022-11-17_10h36.48.995,t1_Paradigm,2021.1.4,60.00257936218466,
G,left,Lure,0,8,8,8,2414.6325175125967,2416.6336768908077,left,1,4,0.6782747784163803,B07R09,2022-11-17_10h36.48.995,t1_Paradigm,2021.1.4,60.00257936218466,
S,left,Distractor,0,9,9,9,2418.1315551067237,2420.132812329568,left,1,4,0.5279655895428732,B07R09,2022-11-17_10h36.48.995,t1_Paradigm,2021.1.4,60.00257936218466,
R,left,Pretarget,0,10,10,10,2421.6309683599393,2423.630957773479,left,1,4,0.6356950559420511,B07R09,2022-11-17_10h36.48.995,t1_Paradigm,2021.1.4,60.00257936218466,
T,left,Pretarget,0,11,11,11,2425.1299607210094,2427.132057161769,left,1,4,0.4754018686362542,B07R09,2022-11-17_10h36.48.995,t1_Paradigm,2021.1.4,60.00257936218466,
X,left,Distractor,0,12,12,12,2428.6297576533398,2430.6310799990315,left,1,4,0.6150193700450473,B07R09,2022-11-17_10h36.48.995,t1_Paradigm,2021.1.4,60.00257936218466,
F,left,Pretarget,0,13,13,13,2432.12909776374,2434.1308057133574,left,1,4,0.7048346137744375,B07R09,2022-11-17_10h36.48.995,t1_Paradigm,2021.1.4,60.00257936218466,
R,right,Target,0,14,14,14,2435.628588651074,2437.6294188864995,right,1,4,0.4901773649617098,B07R09,2022-11-17_10h36.48.995,t1_Paradigm,2021.1.4,60.00257936218466,
T,right,Target,0,15,15,15,2439.12795602961,2441.1295545857283,right,1,4,0.44074884155998006,B07R09,2022-11-17_10h36.48.995,t1_Paradigm,2021.1.4,60.00257936218466,
C,left,Distractor,0,16,16,16,2442.627406495856,2444.6263209020253,left,1,4,0.4808952812454663,B07R09,2022-11-17_10h36.48.995,t1_Paradigm,2021.1.4,60.00257936218466,
F,right,Target,0,17,17,17,2446.126694636303,2448.1287419943837,right,1,4,0.6128622976830229,B07R09,2022-11-17_10h36.48.995,t1_Paradigm,2021.1.4,60.00257936218466,
M,left,Distractor,0,18,18,18,2449.625970265479,2451.6280391173204,left,1,4,0.5973232926335186,B07R09,2022-11-17_10h36.48.995,t1_Paradigm,2021.1.4,60.00257936218466,
N,left,Distractor,0,19,19,19,2453.1254399798927,2455.1270786362584,left,1,4,0.5525845730444416,B07R09,2022-11-17_10h36.48.995,t1_Paradigm,2021.1.4,60.00257936218466,
R,left,Lure,0,20,20,20,2456.625003368419,2458.6263565110276,left,1,4,0.8510981692234054,B07R09,2022-11-17_10h36.48.995,t1_Paradigm,2021.1.4,60.00257936218466,
F,right,Target,0,21,21,21,2460.1244605715037,2462.1254929121933,right,1,4,0.4603883371455595,B07R09,2022-11-17_10h36.48.995,t1_Paradigm,2021.1.4,60.00257936218466,
P,left,Distractor,0,22,22,22,2463.623690005217,2465.6255769623094,left,1,4,0.5254232339793816,B07R09,2022-11-17_10h36.48.995,t1_Paradigm,2021.1.4,60.00257936218466,
L,left,Pretarget,0,23,23,23,2467.1232899651513,2469.1249761002255,left,1,4,0.5792364785447717,B07R09,2022-11-17_10h36.48.995,t1_Paradigm,2021.1.4,60.00257936218466,
T,left,Distractor,0,24,24,24,2470.62198750925,2472.6244971429114,left,1,4,0.7182835940620862,B07R09,2022-11-17_10h36.48.995,t1_Paradigm,2021.1.4,60.00257936218466,
F,left,Distractor,0,25,25,25,2474.1219095543493,2476.1235485315556,right,0,4,0.49050105415517464,B07R09,2022-11-17_10h36.48.995,t1_Paradigm,2021.1.4,60.00257936218466,
V,left,Distractor,0,26,26,26,2477.6381469452754,2479.6399476066,left,1,4,0.5640744157717563,B07R09,2022-11-17_10h36.48.995,t1_Paradigm,2021.1.4,60.00257936218466,
L,right,Target,0,27,27,27,2481.1375034165103,2483.1397650702856,right,1,4,0.9805180181283504,B07R09,2022-11-17_10h36.48.995,t1_Paradigm,2021.1.4,60.00257936218466,
S,left,Pretarget,0,28,28,28,2484.6367581936065,2486.6382479978492,left,1,4,0.8470262300688773,B07R09,2022-11-17_10h36.48.995,t1_Paradigm,2021.1.4,60.00257936218466,
W,left,Distractor,0,29,29,29,2488.1363879881683,2490.138682042889,left,1,4,0.5853374900761992,B07R09,2022-11-17_10h36.48.995,t1_Paradigm,2021.1.4,60.00257936218466,
Q,left,Distractor,0,30,30,30,2491.6356934519135,2493.6372188652167,left,1,4,0.49749132874421775,B07R09,2022-11-17_10h36.48.995,t1_Paradigm,2021.1.4,60.00257936218466,
L,right,Target,0,31,31,31,2495.135550053441,2497.1358192063053,right,1,4,0.3802244202233851,B07R09,2022-11-17_10h36.48.995,t1_Paradigm,2021.1.4,60.00257936218466,
S,right,Target,0,32,32,32,2498.6346941538504,2500.6364235971705,right,1,4,0.6730290249106474,B07R09,2022-11-17_10h36.48.995,t1_Paradigm,2021.1.4,60.00257936218466,
Z,left,Pretarget,0,33,33,33,2502.13390145218,2504.1361900533084,left,1,4,0.5911067923880182,B07R09,2022-11-17_10h36.48.995,t1_Paradigm,2021.1.4,60.00257936218466,
F,left,Distractor,0,34,34,34,2505.633371166594,2507.634493973397,left,1,4,0.617399399750866,B07R09,2022-11-17_10h36.48.995,t1_Paradigm,2021.1.4,60.00257936218466,
V,left,Distractor,0,35,35,35,2509.1327170513687,2511.1340297730058,left,1,4,0.5851251191925257,B07R09,2022-11-17_10h36.48.995,t1_Paradigm,2021.1.4,60.00257936218466,
M,left,Distractor,0,36,36,36,2512.6323981742607,2514.634563266649,left,1,4,0.7397093149484135,B07R09,2022-11-17_10h36.48.995,t1_Paradigm,2021.1.4,60.00257936218466,
Z,right,Target,0,37,37,37,2516.131683106709,2518.1307126808097,right,1,4,0.4697788520134054,B07R09,2022-11-17_10h36.48.995,t1_Paradigm,2021.1.4,60.00257936218466,
H,left,Pretarget,0,38,38,38,2519.630974134372,2521.6327273170464,left,1,4,0.5945396940805949,B07R09,2022-11-17_10h36.48.995,t1_Paradigm,2021.1.4,60.00257936218466,
L,left,Distractor,0,39,39,39,2523.130583718419,2525.1323468459304,left,1,4,0.6599515332491137,B07R09,2022-11-17_10h36.48.995,t1_Paradigm,2021.1.4,60.00257936218466,
G,left,Distractor,0,40,40,40,2526.6299902347964,2528.6316266455688,left,1,4,0.6564512631157413,B07R09,2022-11-17_10h36.48.995,t1_Paradigm,2021.1.4,60.00257936218466,
K,left,Distractor,0,41,41,41,2530.1292437286465,2532.1314861343126,left,1,4,0.5745935118175112,B07R09,2022-11-17_10h36.48.995,t1_Paradigm,2021.1.4,60.00257936218466,
H,right,Target,0,42,42,42,2533.6288180244155,2535.6308400391717,right,1,4,0.4080331375589594,B07R09,2022-11-17_10h36.48.995,t1_Paradigm,2021.1.4,60.00257936218466,
B,left,Distractor,0,43,43,43,2537.12795763358,2539.129968420253,left,1,4,0.6010362544911914,B07R09,2022-11-17_10h36.48.995,t1_Paradigm,2021.1.4,60.00257936218466,
Z,left,Distractor,0,44,44,44,2540.6274552577524,2542.6265801099944,left,1,4,0.6168883621576242,B07R09,2022-11-17_10h36.48.995,t1_Paradigm,2021.1.4,60.00257936218466,
T,left,Pretarget,0,45,45,45,2544.127008380601,2546.1289431371843,left,1,4,0.5485764734330587,B07R09,2022-11-17_10h36.48.995,t1_Paradigm,2021.1.4,60.00257936218466,
H,right,Target,0,46,46,46,2547.626147348201,2549.6257854835712,left,0,4,0.46220888826064765,B07R09,2022-11-17_10h36.48.995,t1_Paradigm,2021.1.4,60.00257936218466,
F,left,Distractor,0,47,47,47,2551.125902576314,2553.127893794037,left,1,4,0.5863627730868757,B07R09,2022-11-17_10h36.48.995,t1_Paradigm,2021.1.4,60.00257936218466,
R,left,Distractor,0,48,48,48,2554.624541413621,2556.627600581036,left,1,4,0.5989475129172206,B07R09,2022-11-17_10h36.48.995,t1_Paradigm,2021.1.4,60.00257936218466,
T,right,Target,0,49,49,49,2558.1244997093454,2560.1262522503966,left,0,4,0.7104765577241778,B07R09,2022-11-17_10h36.48.995,t1_Paradigm,2021.1.4,60.00257936218466,
H,right,Target,0,50,50,50,2561.6239007720724,2563.6252497443347,right,1,4,0.45880646276054904,B07R09,2022-11-17_10h36.48.995,t1_Paradigm,2021.1.4,60.00257936218466,
Y,left,Pretarget,0,51,51,51,2565.1231510579237,2567.1249411328463,left,1,4,0.7118155850912444,B07R09,2022-11-17_10h36.48.995,t1_Paradigm,2021.1.4,60.00257936218466,
H,left,Distractor,0,52,52,52,2568.6228090830264,2570.624954606523,left,1,4,0.8302335310145281,B07R09,2022-11-17_10h36.48.995,t1_Paradigm,2021.1.4,60.00257936218466,
S,left,Distractor,0,53,53,53,2572.122307669604,2574.124486877292,left,1,4,0.7160694189369678,B07R09,2022-11-17_10h36.48.995,t1_Paradigm,2021.1.4,60.00257936218466,
Q,left,Distractor,0,54,54,54,2575.6380847097025,2577.6404243183206,left,1,4,0.5413109507644549,B07R09,2022-11-17_10h36.48.995,t1_Paradigm,2021.1.4,60.00257936218466,
Y,right,Target,0,55,55,55,2579.1380147748278,2581.139427907474,right,1,4,0.42001669452292845,B07R09,2022-11-17_10h36.48.995,t1_Paradigm,2021.1.4,60.00257936218466,
R,left,Distractor,0,56,56,56,2582.63730772736,2584.6389938624343,left,1,4,0.5423522738856263,B07R09,2022-11-17_10h36.48.995,t1_Paradigm,2021.1.4,60.00257936218466,
H,left,Pretarget,0,57,57,57,2586.136501231231,2588.1380006595864,left,1,4,0.821145853260532,B07R09,2022-11-17_10h36.48.995,t1_Paradigm,2021.1.4,60.00257936218466,
J,left,Distractor,0,58,58,58,2589.63613583782,2591.6366205695667,left,1,4,1.0019004307687283,B07R09,2022-11-17_10h36.48.995,t1_Paradigm,2021.1.4,60.00257936218466,
V,left,Distractor,0,59,59,59,2593.1357110959943,2595.1371989754844,left,1,4,0.7156713037402369,B07R09,2022-11-17_10h36.48.995,t1_Paradigm,2021.1.4,60.00257936218466,
Y,left,Lure,0,60,60,60,2596.6349645899027,2598.6362189255306,left,1,4,0.704654002271127,B07R09,2022-11-17_10h36.48.995,t1_Paradigm,2021.1.4,60.00257936218466,
H,right,Target,0,61,61,61,2600.1341718882322,2602.1358480784693,right,1,4,0.6809361514169723,B07R09,2022-11-17_10h36.48.995,t1_Paradigm,2021.1.4,60.00257936218466,
L,left,Distractor,0,62,62,62,2603.6339239083463,2605.6360286899726,left,1,4,0.6925206307787448,B07R09,2022-11-17_10h36.48.995,t1_Paradigm,2021.1.4,60.00257936218466,
P,left,Distractor,0,63,63,63,2607.1329538032296,2609.1339463644545,left,1,4,0.7107190840179101,B07R09,2022-11-17_10h36.48.995,t1_Paradigm,2021.1.4,60.00257936218466,
