Letter,CorrAnswer,Stimulus,nback_run.thisRepN,nback_run.thisTrialN,nback_run.thisN,nback_run.thisIndex,fixcross.started,nback_trial.started,trial_resp.keys,trial_resp.corr,currentlevel,trial_resp.rt,Participant,date,expName,psychopyVersion,frameRate,
H,left,Distractor,0,0,0,0,205.27572583869915,207.22688853763975,None,0,1,,B08A08,2022-11-28_10h37.27.119,t1_Paradigm,2021.1.4,59.96008671990067,
Q,left,Pretarget,0,1,1,1,208.72608893850702,210.72800316437497,left,1,1,0.6858388669206761,B08A08,2022-11-28_10h37.27.119,t1_Paradigm,2021.1.4,59.96008671990067,
Q,right,Target,0,2,2,2,212.22626682324335,214.22591650739196,None,0,1,,B08A08,2022-11-28_10h37.27.119,t1_Paradigm,2021.1.4,59.96008671990067,
T,left,Distractor,0,3,3,3,215.72623939468758,217.7271151843015,left,1,1,0.6628675148531329,B08A08,2022-11-28_10h37.27.119,t1_Paradigm,2021.1.4,59.96008671990067,
Q,left,Lure,0,4,4,4,219.22622672299622,221.22615229690564,left,1,1,0.5237430413835682,B08A08,2022-11-28_10h37.27.119,t1_Paradigm,2021.1.4,59.96008671990067,
L,left,Distractor,0,5,5,5,222.72605429188116,224.72668274311582,left,1,1,0.7190922456502449,B08A08,2022-11-28_10h37.27.119,t1_Paradigm,2021.1.4,59.96008671990067,
V,left,Pretarget,0,6,6,6,226.22593671793584,228.2281954852224,left,1,1,0.5781029498903081,B08A08,2022-11-28_10h37.27.119,t1_Paradigm,2021.1.4,59.96008671990067,
V,right,Target,0,7,7,7,229.725892286835,231.72623714906513,right,1,1,0.7115354324341752,B08A08,2022-11-28_10h37.27.119,t1_Paradigm,2021.1.4,59.96008671990067,
K,left,Distractor,0,8,8,8,233.22644583080546,235.22693409153726,left,1,1,0.42718739685369655,B08A08,2022-11-28_10h37.27.119,t1_Paradigm,2021.1.4,59.96008671990067,
G,left,Pretarget,0,9,9,9,236.72608316407423,238.72678251256002,left,1,1,0.799400549265556,B08A08,2022-11-28_10h37.27.119,t1_Paradigm,2021.1.4,59.96008671990067,
G,right,Target,0,10,10,10,240.22611732949736,242.22618501872057,right,1,1,0.4196543229627423,B08A08,2022-11-28_10h37.27.119,t1_Paradigm,2021.1.4,59.96008671990067,
G,right,Target,0,11,11,11,243.7262060312496,245.72601034201216,right,1,1,0.4718003764282912,B08A08,2022-11-28_10h37.27.119,t1_Paradigm,2021.1.4,59.96008671990067,
P,left,Pretarget,0,12,12,12,247.22631269795238,249.22678716419614,left,1,1,0.427282675052993,B08A08,2022-11-28_10h37.27.119,t1_Paradigm,2021.1.4,59.96008671990067,
P,right,Target,0,13,13,13,250.72616881821887,252.7260360061773,right,1,1,0.8158949078060687,B08A08,2022-11-28_10h37.27.119,t1_Paradigm,2021.1.4,59.96008671990067,
G,left,Lure,0,14,14,14,254.22646026688744,256.2261593545554,left,1,1,0.531848426151555,B08A08,2022-11-28_10h37.27.119,t1_Paradigm,2021.1.4,59.96008671990067,
Y,left,Distractor,0,15,15,15,257.7262262417935,259.7266532293288,left,1,1,0.50309429623303,B08A08,2022-11-28_10h37.27.119,t1_Paradigm,2021.1.4,59.96008671990067,
B,left,Distractor,0,16,16,16,261.22619047237094,263.2265581115207,left,1,1,0.47544115895288996,B08A08,2022-11-28_10h37.27.119,t1_Paradigm,2021.1.4,59.96008671990067,
T,left,Pretarget,0,17,17,17,264.7260988833732,266.7266182618914,left,1,1,0.4633475630253088,B08A08,2022-11-28_10h37.27.119,t1_Paradigm,2021.1.4,59.96008671990067,
T,right,Target,0,18,18,18,268.2262956954364,270.22612438714714,right,1,1,0.4998917293269187,B08A08,2022-11-28_10h37.27.119,t1_Paradigm,2021.1.4,59.96008671990067,
S,left,Distractor,0,19,19,19,271.7260164372565,273.7265377405856,left,1,1,0.4873012110183481,B08A08,2022-11-28_10h37.27.119,t1_Paradigm,2021.1.4,59.96008671990067,
T,left,Lure,0,20,20,20,275.22631366035785,277.22604546984076,left,1,1,0.5238524348824285,B08A08,2022-11-28_10h37.27.119,t1_Paradigm,2021.1.4,59.96008671990067,
J,left,Distractor,0,21,21,21,278.72613160518813,280.71182383346604,left,1,1,0.4301015627279412,B08A08,2022-11-28_10h37.27.119,t1_Paradigm,2021.1.4,59.96008671990067,
P,left,Distractor,0,22,22,22,282.2264214498282,284.22623474305146,left,1,1,0.43551990945707075,B08A08,2022-11-28_10h37.27.119,t1_Paradigm,2021.1.4,59.96008671990067,
F,left,Distractor,0,23,23,23,285.7261896703567,287.7282206681848,left,1,1,0.533631443977356,B08A08,2022-11-28_10h37.27.119,t1_Paradigm,2021.1.4,59.96008671990067,
L,left,Distractor,0,24,24,24,289.2262735600816,291.2262267229962,left,1,1,0.4596775875252206,B08A08,2022-11-28_10h37.27.119,t1_Paradigm,2021.1.4,59.96008671990067,
W,left,Pretarget,0,25,25,25,292.7261441164592,294.72650726439315,left,1,1,0.4475317008618731,B08A08,2022-11-28_10h37.27.119,t1_Paradigm,2021.1.4,59.96008671990067,
W,right,Target,0,26,26,26,296.2262321766175,298.2263835952035,right,1,1,0.40341115242335945,B08A08,2022-11-28_10h37.27.119,t1_Paradigm,2021.1.4,59.96008671990067,
V,left,Distractor,0,27,27,27,299.72600135955145,301.72618036708445,left,1,1,0.5997343117196579,B08A08,2022-11-28_10h37.27.119,t1_Paradigm,2021.1.4,59.96008671990067,
W,left,Lure,0,28,28,28,303.2259819510218,305.226503254351,left,1,1,0.8112326915143058,B08A08,2022-11-28_10h37.27.119,t1_Paradigm,2021.1.4,59.96008671990067,
R,left,Pretarget,0,29,29,29,306.72618165030144,308.7278613698727,left,1,1,0.39822955761337653,B08A08,2022-11-28_10h37.27.119,t1_Paradigm,2021.1.4,59.96008671990067,
R,right,Target,0,30,30,30,310.22607498362777,312.2262559159717,right,1,1,0.49987055637757294,B08A08,2022-11-28_10h37.27.119,t1_Paradigm,2021.1.4,59.96008671990067,
G,left,Distractor,0,31,31,31,313.7261328884051,315.7267456203117,left,1,1,0.4391398398729507,B08A08,2022-11-28_10h37.27.119,t1_Paradigm,2021.1.4,59.96008671990067,
R,left,Lure,0,32,32,32,317.2262527079729,319.2262071540754,left,1,1,0.42775425408035517,B08A08,2022-11-28_10h37.27.119,t1_Paradigm,2021.1.4,59.96008671990067,
S,left,Distractor,0,33,33,33,320.726284948556,322.726284948556,left,1,1,0.43178256548708305,B08A08,2022-11-28_10h37.27.119,t1_Paradigm,2021.1.4,59.96008671990067,
R,left,Lure,0,34,34,34,324.22638391598593,326.2260432242183,left,1,1,0.6758539029106032,B08A08,2022-11-28_10h37.27.119,t1_Paradigm,2021.1.4,59.96008671990067,
P,left,Pretarget,0,35,35,35,327.726119735511,329.72603664777125,left,1,1,0.4398645317123737,B08A08,2022-11-28_10h37.27.119,t1_Paradigm,2021.1.4,59.96008671990067,
P,right,Target,0,36,36,36,331.2101109108771,333.2097086251015,right,1,1,0.6361360418668482,B08A08,2022-11-28_10h37.27.119,t1_Paradigm,2021.1.4,59.96008671990067,
Y,left,Pretarget,0,37,37,37,334.7095329859876,336.7102705099096,left,1,1,0.4477325229672715,B08A08,2022-11-28_10h37.27.119,t1_Paradigm,2021.1.4,59.96008671990067,
Y,right,Target,0,38,38,38,338.20945198345,340.2096104596858,right,1,1,0.5001698646810837,B08A08,2022-11-28_10h37.27.119,t1_Paradigm,2021.1.4,59.96008671990067,
J,left,Distractor,0,39,39,39,341.709792194044,343.71005589334527,left,1,1,0.4718202661606483,B08A08,2022-11-28_10h37.27.119,t1_Paradigm,2021.1.4,59.96008671990067,
Y,left,Lure,0,40,40,40,345.2097160035628,347.21254098645295,left,1,1,0.48937615868635476,B08A08,2022-11-28_10h37.27.119,t1_Paradigm,2021.1.4,59.96008671990067,
T,left,Distractor,0,41,41,41,348.72621982573764,350.72606904877466,left,1,1,0.4479452147206757,B08A08,2022-11-28_10h37.27.119,t1_Paradigm,2021.1.4,59.96008671990067,
V,left,Distractor,0,42,42,42,352.22620234204805,354.2268818008015,left,1,1,0.45087734548724256,B08A08,2022-11-28_10h37.27.119,t1_Paradigm,2021.1.4,59.96008671990067,
N,left,Pretarget,0,43,43,43,355.7259522768436,357.72693970554974,left,1,1,0.45495538125396706,B08A08,2022-11-28_10h37.27.119,t1_Paradigm,2021.1.4,59.96008671990067,
N,right,Target,0,44,44,44,359.22628607138176,361.2263582518499,right,1,1,0.42768720642197877,B08A08,2022-11-28_10h37.27.119,t1_Paradigm,2021.1.4,59.96008671990067,
N,right,Target,0,45,45,45,362.72601483322796,364.7261887079512,right,1,1,0.39973861048929393,B08A08,2022-11-28_10h37.27.119,t1_Paradigm,2021.1.4,59.96008671990067,
X,left,Distractor,0,46,46,46,366.22625046235044,368.2270662619849,left,1,1,0.49895851613837294,B08A08,2022-11-28_10h37.27.119,t1_Paradigm,2021.1.4,59.96008671990067,
Z,left,Distractor,0,47,47,47,369.72616689340794,371.7268806779757,left,1,1,0.7751084551564418,B08A08,2022-11-28_10h37.27.119,t1_Paradigm,2021.1.4,59.96008671990067,
H,left,Pretarget,0,48,48,48,373.2262341014284,375.2260242968914,left,1,1,0.44392267771763727,B08A08,2022-11-28_10h37.27.119,t1_Paradigm,2021.1.4,59.96008671990067,
H,right,Target,0,49,49,49,376.72616593100247,378.7262150137103,right,1,1,0.5917976688360795,B08A08,2022-11-28_10h37.27.119,t1_Paradigm,2021.1.4,59.96008671990067,
K,left,Distractor,0,50,50,50,380.22629344981397,382.22593992596376,left,1,1,0.5160091454454232,B08A08,2022-11-28_10h37.27.119,t1_Paradigm,2021.1.4,59.96008671990067,
V,left,Pretarget,0,51,51,51,383.7264305927092,385.72673727947404,left,1,1,0.45515844895271584,B08A08,2022-11-28_10h37.27.119,t1_Paradigm,2021.1.4,59.96008671990067,
V,right,Target,0,52,52,52,387.2262411590782,389.22634606136126,right,1,1,0.6036035053548403,B08A08,2022-11-28_10h37.27.119,t1_Paradigm,2021.1.4,59.96008671990067,
R,left,Distractor,0,53,53,53,390.72643989595235,392.72599879311747,left,1,1,0.49614540286711417,B08A08,2022-11-28_10h37.27.119,t1_Paradigm,2021.1.4,59.96008671990067,
V,left,Lure,0,54,54,54,394.2261433144449,396.2261237455241,left,1,1,0.4356405310390983,B08A08,2022-11-28_10h37.27.119,t1_Paradigm,2021.1.4,59.96008671990067,
Y,left,Distractor,0,55,55,55,397.7262092392775,399.7267760965042,left,1,1,0.5510099329985678,B08A08,2022-11-28_10h37.27.119,t1_Paradigm,2021.1.4,59.96008671990067,
Q,left,Distractor,0,56,56,56,401.22638102876954,403.2260239760799,left,1,1,0.44387648222618736,B08A08,2022-11-28_10h37.27.119,t1_Paradigm,2021.1.4,59.96008671990067,
Z,left,Pretarget,0,57,57,57,404.7259946227132,406.7262143721164,left,1,1,0.46377743780612946,B08A08,2022-11-28_10h37.27.119,t1_Paradigm,2021.1.4,59.96008671990067,
Z,right,Target,0,58,58,58,408.2260560563009,410.22628735456965,right,1,1,0.43551317261881195,B08A08,2022-11-28_10h37.27.119,t1_Paradigm,2021.1.4,59.96008671990067,
B,left,Distractor,0,59,59,59,411.7261280763487,413.7260931089404,left,1,1,0.48775835390551947,B08A08,2022-11-28_10h37.27.119,t1_Paradigm,2021.1.4,59.96008671990067,
S,left,Pretarget,0,60,60,60,415.22610963025363,417.2263162267627,left,1,1,0.5715216956741642,B08A08,2022-11-28_10h37.27.119,t1_Paradigm,2021.1.4,59.96008671990067,
S,right,Target,0,61,61,61,418.7257453594939,420.726044988638,right,1,1,0.5117357412236743,B08A08,2022-11-28_10h37.27.119,t1_Paradigm,2021.1.4,59.96008671990067,
T,left,Distractor,0,62,62,62,422.2261474848783,424.22643428191077,left,1,1,0.7714054370007943,B08A08,2022-11-28_10h37.27.119,t1_Paradigm,2021.1.4,59.96008671990067,
D,left,Distractor,0,63,63,63,425.7260289485275,427.7284330391267,left,1,1,0.4534543484041933,B08A08,2022-11-28_10h37.27.119,t1_Paradigm,2021.1.4,59.96008671990067,
R,left,Distractor,0,0,0,0,445.7419830763829,447.7434680691222,None,0,1,,B08A08,2022-11-28_10h37.27.119,t1_Paradigm,2021.1.4,59.96008671990067,
V,left,Distractor,0,1,1,1,449.2427679186221,451.24346630470245,left,1,1,0.4106163666001521,B08A08,2022-11-28_10h37.27.119,t1_Paradigm,2021.1.4,59.96008671990067,
N,left,Pretarget,0,2,2,2,452.7429271968431,454.742823577777,left,1,1,0.5112933551718015,B08A08,2022-11-28_10h37.27.119,t1_Paradigm,2021.1.4,59.96008671990067,
N,right,Target,0,3,3,3,456.24268643491087,458.2427820339217,right,1,1,0.5312565463827923,B08A08,2022-11-28_10h37.27.119,t1_Paradigm,2021.1.4,59.96008671990067,
S,left,Distractor,0,4,4,4,459.74279791361187,461.7432223347423,left,1,1,0.5345877549261786,B08A08,2022-11-28_10h37.27.119,t1_Paradigm,2021.1.4,59.96008671990067,
N,left,Lure,0,5,5,5,463.24273006399744,465.24351346259937,left,1,1,0.5063244521443266,B08A08,2022-11-28_10h37.27.119,t1_Paradigm,2021.1.4,59.96008671990067,
Z,left,Distractor,0,6,6,6,466.7426278885396,468.7428566204035,left,1,1,0.5270797036064323,B08A08,2022-11-28_10h37.27.119,t1_Paradigm,2021.1.4,59.96008671990067,
L,left,Pretarget,0,7,7,7,470.24272108153673,472.24353078592685,left,1,1,0.498460310511291,B08A08,2022-11-28_10h37.27.119,t1_Paradigm,2021.1.4,59.96008671990067,
L,right,Target,0,8,8,8,473.74305455526337,475.7428348058602,right,1,1,0.5029836195462849,B08A08,2022-11-28_10h37.27.119,t1_Paradigm,2021.1.4,59.96008671990067,
H,left,Distractor,0,9,9,9,477.2429732319433,479.24312882093363,left,1,1,0.474843183910707,B08A08,2022-11-28_10h37.27.119,t1_Paradigm,2021.1.4,59.96008671990067,
L,left,Lure,0,10,10,10,480.7432425452571,482.74283993869903,left,1,1,0.43131868573254906,B08A08,2022-11-28_10h37.27.119,t1_Paradigm,2021.1.4,59.96008671990067,
X,left,Pretarget,0,11,11,11,484.2429036179092,486.2433177733619,left,1,1,0.4024635031528305,B08A08,2022-11-28_10h37.27.119,t1_Paradigm,2021.1.4,59.96008671990067,
X,right,Target,0,12,12,12,487.7430901642947,489.74271097625024,right,1,1,0.4391600504168309,B08A08,2022-11-28_10h37.27.119,t1_Paradigm,2021.1.4,59.96008671990067,
X,right,Target,0,13,13,13,491.2430008209194,493.2427220439422,right,1,1,0.3950558628712315,B08A08,2022-11-28_10h37.27.119,t1_Paradigm,2021.1.4,59.96008671990067,
R,left,Distractor,0,14,14,14,494.7428479587543,496.74338722700486,left,1,1,0.47858758553047664,B08A08,2022-11-28_10h37.27.119,t1_Paradigm,2021.1.4,59.96008671990067,
T,left,Distractor,0,15,15,15,498.24338546258514,500.2428214925749,left,1,1,0.46707079172483645,B08A08,2022-11-28_10h37.27.119,t1_Paradigm,2021.1.4,59.96008671990067,
V,left,Pretarget,0,16,16,16,501.7427103346563,503.74295574822463,left,1,1,0.40700413545710035,B08A08,2022-11-28_10h37.27.119,t1_Paradigm,2021.1.4,59.96008671990067,
V,right,Target,0,17,17,17,505.2431490314775,507.24301044497406,right,1,1,0.3947620081889909,B08A08,2022-11-28_10h37.27.119,t1_Paradigm,2021.1.4,59.96008671990067,
N,left,Distractor,0,18,18,18,508.74279759282945,510.74310588359367,left,1,1,0.44692923460388556,B08A08,2022-11-28_10h37.27.119,t1_Paradigm,2021.1.4,59.96008671990067,
B,left,Distractor,0,19,19,19,512.2429036179092,514.2433273974166,left,1,1,0.45039325521793216,B08A08,2022-11-28_10h37.27.119,t1_Paradigm,2021.1.4,59.96008671990067,
V,left,Lure,0,20,20,20,515.7430972219445,517.7426314173499,left,1,1,0.40738524828338996,B08A08,2022-11-28_10h37.27.119,t1_Paradigm,2021.1.4,59.96008671990067,
P,left,Distractor,0,21,21,21,519.2431705252093,521.2433081492782,left,1,1,0.506637554964982,B08A08,2022-11-28_10h37.27.119,t1_Paradigm,2021.1.4,59.96008671990067,
K,left,Pretarget,0,22,22,22,522.7428992870846,524.7430343447486,left,1,1,0.4469847333675716,B08A08,2022-11-28_10h37.27.119,t1_Paradigm,2021.1.4,59.96008671990067,
K,right,Target,0,23,23,23,526.2429440389678,528.2429520590231,right,1,1,0.4668417390494142,B08A08,2022-11-28_10h37.27.119,t1_Paradigm,2021.1.4,59.96008671990067,
J,left,Pretarget,0,24,24,24,529.7429024950834,531.743230033986,left,1,1,0.4866272058861796,B08A08,2022-11-28_10h37.27.119,t1_Paradigm,2021.1.4,59.96008671990067,
J,right,Target,0,25,25,25,533.2430887206865,535.242695738154,right,1,1,0.5072422668163199,B08A08,2022-11-28_10h37.27.119,t1_Paradigm,2021.1.4,59.96008671990067,
H,left,Distractor,0,26,26,26,536.7427664750139,538.7436422646279,left,1,1,0.47860940007376485,B08A08,2022-11-28_10h37.27.119,t1_Paradigm,2021.1.4,59.96008671990067,
J,left,Lure,0,27,27,27,540.2426864349109,542.2435259738995,left,1,1,0.4662514632800594,B08A08,2022-11-28_10h37.27.119,t1_Paradigm,2021.1.4,59.96008671990067,
V,left,Distractor,0,28,28,28,543.7429711467412,545.743337502674,left,1,1,0.48649792265496217,B08A08,2022-11-28_10h37.27.119,t1_Paradigm,2021.1.4,59.96008671990067,
Z,left,Pretarget,0,29,29,29,547.2429767607537,549.2428067356814,left,1,1,0.42712804846814834,B08A08,2022-11-28_10h37.27.119,t1_Paradigm,2021.1.4,59.96008671990067,
Z,right,Target,0,30,30,30,550.7429663347139,552.7428781141352,right,1,1,0.39906973819597624,B08A08,2022-11-28_10h37.27.119,t1_Paradigm,2021.1.4,59.96008671990067,
T,left,Distractor,0,31,31,31,554.242893673043,556.2428599888226,left,1,1,0.4990323006059043,B08A08,2022-11-28_10h37.27.119,t1_Paradigm,2021.1.4,59.96008671990067,
Z,left,Lure,0,32,32,32,557.7431434174359,559.7428466755373,left,1,1,0.42309364178800024,B08A08,2022-11-28_10h37.27.119,t1_Paradigm,2021.1.4,59.96008671990067,
F,left,Distractor,0,33,33,33,561.2430142945959,563.2426245201204,left,1,1,0.47533946472685784,B08A08,2022-11-28_10h37.27.119,t1_Paradigm,2021.1.4,59.96008671990067,
Y,left,Pretarget,0,34,34,34,564.7428716980794,566.7434757683659,left,1,1,0.5424711446394213,B08A08,2022-11-28_10h37.27.119,t1_Paradigm,2021.1.4,59.96008671990067,
Y,right,Target,0,35,35,35,568.2426585251233,570.2429353772895,right,1,1,0.5151471502904315,B08A08,2022-11-28_10h37.27.119,t1_Paradigm,2021.1.4,59.96008671990067,
Y,right,Target,0,36,36,36,571.7429345753044,573.7428652820527,right,1,1,0.5029544265416916,B08A08,2022-11-28_10h37.27.119,t1_Paradigm,2021.1.4,59.96008671990067,
W,left,Distractor,0,37,37,37,575.2426511466911,577.2435147458164,left,1,1,0.42647906590718776,B08A08,2022-11-28_10h37.27.119,t1_Paradigm,2021.1.4,59.96008671990067,
Q,left,Distractor,0,38,38,38,578.7430455728027,580.7446993073972,left,1,1,0.6851507464889437,B08A08,2022-11-28_10h37.27.119,t1_Paradigm,2021.1.4,59.96008671990067,
P,left,Pretarget,0,39,39,39,582.2430258434906,584.2428442695236,left,1,1,0.48335245848284103,B08A08,2022-11-28_10h37.27.119,t1_Paradigm,2021.1.4,59.96008671990067,
P,right,Target,0,40,40,40,585.7427234875504,587.7428668860521,right,1,1,0.5348777599865571,B08A08,2022-11-28_10h37.27.119,t1_Paradigm,2021.1.4,59.96008671990067,
J,left,Distractor,0,41,41,41,589.2427088910481,591.2426142544427,left,1,1,0.5233439636358526,B08A08,2022-11-28_10h37.27.119,t1_Paradigm,2021.1.4,59.96008671990067,
P,left,Lure,0,42,42,42,592.742627567728,594.7432123898761,left,1,1,0.6227624457678758,B08A08,2022-11-28_10h37.27.119,t1_Paradigm,2021.1.4,59.96008671990067,
L,left,Distractor,0,43,43,43,596.2431410114223,598.2428115477087,left,1,1,0.49933289212640375,B08A08,2022-11-28_10h37.27.119,t1_Paradigm,2021.1.4,59.96008671990067,
Z,left,Distractor,0,44,44,44,599.7428312770207,601.7432521693408,left,1,1,0.5026448525604792,B08A08,2022-11-28_10h37.27.119,t1_Paradigm,2021.1.4,59.96008671990067,
F,left,Pretarget,0,45,45,45,603.2429494925891,605.24292318683,left,1,1,0.45905106110149063,B08A08,2022-11-28_10h37.27.119,t1_Paradigm,2021.1.4,59.96008671990067,
F,right,Target,0,46,46,46,606.7427918183676,608.743110695621,left,0,1,0.5110209942504298,B08A08,2022-11-28_10h37.27.119,t1_Paradigm,2021.1.4,59.96008671990067,
G,left,Pretarget,0,47,47,47,610.2426755276392,612.2428449111176,left,1,1,0.83488414392923,B08A08,2022-11-28_10h37.27.119,t1_Paradigm,2021.1.4,59.96008671990067,
G,right,Target,0,48,48,48,613.7426586855145,615.7428290314274,right,1,1,0.7270542319165543,B08A08,2022-11-28_10h37.27.119,t1_Paradigm,2021.1.4,59.96008671990067,
V,left,Distractor,0,49,49,49,617.2428542143898,619.2427461040788,left,1,1,0.45919991325354204,B08A08,2022-11-28_10h37.27.119,t1_Paradigm,2021.1.4,59.96008671990067,
G,left,Lure,0,50,50,50,620.7429377833032,622.743726956367,left,1,1,0.4788512848317623,B08A08,2022-11-28_10h37.27.119,t1_Paradigm,2021.1.4,59.96008671990067,
Q,left,Pretarget,0,51,51,51,624.2430450915999,626.2431981141854,left,1,1,0.6427121632441413,B08A08,2022-11-28_10h37.27.119,t1_Paradigm,2021.1.4,59.96008671990067,
Q,right,Target,0,52,52,52,627.7429929612845,629.7430500640476,right,1,1,0.5829878028016537,B08A08,2022-11-28_10h37.27.119,t1_Paradigm,2021.1.4,59.96008671990067,
Y,left,Distractor,0,53,53,53,631.2428625552275,633.2425626053009,left,1,1,0.45940362257533707,B08A08,2022-11-28_10h37.27.119,t1_Paradigm,2021.1.4,59.96008671990067,
V,left,Distractor,0,54,54,54,634.7429024950834,636.7426821040863,left,1,1,0.6072962578036822,B08A08,2022-11-28_10h37.27.119,t1_Paradigm,2021.1.4,59.96008671990067,
B,left,Distractor,0,55,55,55,638.2428186053585,640.2434772119741,left,1,1,0.49857579928357154,B08A08,2022-11-28_10h37.27.119,t1_Paradigm,2021.1.4,59.96008671990067,
J,left,Pretarget,0,56,56,56,641.7427825151244,643.7433897934097,left,1,1,0.47049759927904233,B08A08,2022-11-28_10h37.27.119,t1_Paradigm,2021.1.4,59.96008671990067,
J,right,Target,0,57,57,57,645.243058886088,647.2427990364376,right,1,1,0.44318739941809326,B08A08,2022-11-28_10h37.27.119,t1_Paradigm,2021.1.4,59.96008671990067,
H,left,Distractor,0,58,58,58,648.7430462144257,650.7427799487195,left,1,1,0.4632343199045863,B08A08,2022-11-28_10h37.27.119,t1_Paradigm,2021.1.4,59.96008671990067,
J,left,Lure,0,59,59,59,652.2426922093437,654.2427104950475,left,1,1,0.7391799080360215,B08A08,2022-11-28_10h37.27.119,t1_Paradigm,2021.1.4,59.96008671990067,
D,left,Pretarget,0,60,60,60,655.7429044198943,657.742826144211,left,1,1,0.47111065199715085,B08A08,2022-11-28_10h37.27.119,t1_Paradigm,2021.1.4,59.96008671990067,
D,right,Target,0,61,61,61,659.2427281391865,661.24284715674,right,1,1,0.411112326575676,B08A08,2022-11-28_10h37.27.119,t1_Paradigm,2021.1.4,59.96008671990067,
R,left,Distractor,0,62,62,62,662.7426522694877,664.7448532923881,left,1,1,0.46123411908047274,B08A08,2022-11-28_10h37.27.119,t1_Paradigm,2021.1.4,59.96008671990067,
F,left,Distractor,0,63,63,63,666.2430508660327,668.2427788258938,left,1,1,0.595574150676839,B08A08,2022-11-28_10h37.27.119,t1_Paradigm,2021.1.4,59.96008671990067,
F,left,Distractor,0,0,0,0,768.8901153507759,770.8928145792743,None,0,2,,B08A08,2022-11-28_10h37.27.119,t1_Paradigm,2021.1.4,59.96008671990067,
N,left,Pretarget,0,1,1,1,772.3929571757908,774.3928869201627,None,0,2,,B08A08,2022-11-28_10h37.27.119,t1_Paradigm,2021.1.4,59.96008671990067,
V,left,Distractor,0,2,2,2,775.8928514715226,777.893111962796,left,1,2,0.5447077766002622,B08A08,2022-11-28_10h37.27.119,t1_Paradigm,2021.1.4,59.96008671990067,
N,right,Target,0,3,3,3,779.3928173060995,781.3928407246422,right,1,2,0.8050415326142684,B08A08,2022-11-28_10h37.27.119,t1_Paradigm,2021.1.4,59.96008671990067,
N,left,Lure,0,4,4,4,782.8928922133928,784.8930022484856,left,1,2,0.633028111566091,B08A08,2022-11-28_10h37.27.119,t1_Paradigm,2021.1.4,59.96008671990067,
X,left,Distractor,0,5,5,5,786.3927919627458,788.3928602935921,left,1,2,0.8612284088158049,B08A08,2022-11-28_10h37.27.119,t1_Paradigm,2021.1.4,59.96008671990067,
G,left,Pretarget,0,6,6,6,789.8927225091029,791.8926990905602,left,1,2,0.5450808693713043,B08A08,2022-11-28_10h37.27.119,t1_Paradigm,2021.1.4,59.96008671990067,
H,left,Pretarget,0,7,7,7,793.3928519527253,795.3928670304304,left,1,2,0.6291749580705073,B08A08,2022-11-28_10h37.27.119,t1_Paradigm,2021.1.4,59.96008671990067,
G,right,Target,0,8,8,8,796.8930227798119,798.893515852571,right,1,2,0.4244965091929771,B08A08,2022-11-28_10h37.27.119,t1_Paradigm,2021.1.4,59.96008671990067,
H,right,Target,0,9,9,9,800.3929222083825,802.3927371056052,right,1,2,0.4932601092150435,B08A08,2022-11-28_10h37.27.119,t1_Paradigm,2021.1.4,59.96008671990067,
T,left,Pretarget,0,10,10,10,803.8931738775864,805.8929429001,left,1,2,0.6570475239423104,B08A08,2022-11-28_10h37.27.119,t1_Paradigm,2021.1.4,59.96008671990067,
K,left,Distractor,0,11,11,11,807.3931227096764,809.3928031907999,left,1,2,0.7731692067172844,B08A08,2022-11-28_10h37.27.119,t1_Paradigm,2021.1.4,59.96008671990067,
T,right,Target,0,12,12,12,810.8929653562664,812.8928354314121,right,1,2,0.5210659482399933,B08A08,2022-11-28_10h37.27.119,t1_Paradigm,2021.1.4,59.96008671990067,
T,left,Lure,0,13,13,13,814.3922318423574,816.3930367347202,left,1,2,0.5250095679366495,B08A08,2022-11-28_10h37.27.119,t1_Paradigm,2021.1.4,59.96008671990067,
J,left,Distractor,0,14,14,14,817.8929300680174,819.8928909301758,left,1,2,0.8651938430557493,B08A08,2022-11-28_10h37.27.119,t1_Paradigm,2021.1.4,59.96008671990067,
Q,left,Pretarget,0,15,15,15,821.3929735367128,823.3936132160015,left,1,2,0.5162022682779934,B08A08,2022-11-28_10h37.27.119,t1_Paradigm,2021.1.4,59.96008671990067,
M,left,Distractor,0,16,16,16,824.8929502785613,826.8951830608712,left,1,2,0.7589810941717587,B08A08,2022-11-28_10h37.27.119,t1_Paradigm,2021.1.4,59.96008671990067,
Q,right,Target,0,17,17,17,828.3928503487259,830.3926514514314,right,1,2,0.49336854030843824,B08A08,2022-11-28_10h37.27.119,t1_Paradigm,2021.1.4,59.96008671990067,
R,left,Distractor,0,18,18,18,831.8930898274411,833.8928517923341,left,1,2,0.43330830009654164,B08A08,2022-11-28_10h37.27.119,t1_Paradigm,2021.1.4,59.96008671990067,
W,left,Distractor,0,19,19,19,835.3930797221838,837.3926129551837,left,1,2,0.5815178877674043,B08A08,2022-11-28_10h37.27.119,t1_Paradigm,2021.1.4,59.96008671990067,
C,left,Pretarget,0,20,20,20,838.8929932660249,840.894885998161,left,1,2,0.5189489754557144,B08A08,2022-11-28_10h37.27.119,t1_Paradigm,2021.1.4,59.96008671990067,
T,left,Distractor,0,21,21,21,842.3930393011251,844.3926184088341,left,1,2,0.477296036464395,B08A08,2022-11-28_10h37.27.119,t1_Paradigm,2021.1.4,59.96008671990067,
C,right,Target,0,22,22,22,845.8931687447475,847.8925913010607,right,1,2,0.40127428993582726,B08A08,2022-11-28_10h37.27.119,t1_Paradigm,2021.1.4,59.96008671990067,
F,left,Pretarget,0,23,23,23,849.3926536970539,851.3927756018238,left,1,2,0.48515536604099907,B08A08,2022-11-28_10h37.27.119,t1_Paradigm,2021.1.4,59.96008671990067,
C,right,Target,0,24,24,24,852.8927286043472,854.8926990905602,right,1,2,0.5851169660454616,B08A08,2022-11-28_10h37.27.119,t1_Paradigm,2021.1.4,59.96008671990067,
F,right,Target,0,25,25,25,856.3931326545135,858.3933601031895,right,1,2,0.4446993395104073,B08A08,2022-11-28_10h37.27.119,t1_Paradigm,2021.1.4,59.96008671990067,
H,left,Distractor,0,26,26,26,859.8931761232088,861.8926644439343,left,1,2,0.44970032275887206,B08A08,2022-11-28_10h37.27.119,t1_Paradigm,2021.1.4,59.96008671990067,
H,left,Lure,0,27,27,27,863.3926103887788,865.3928198725334,left,1,2,0.6611294093017932,B08A08,2022-11-28_10h37.27.119,t1_Paradigm,2021.1.4,59.96008671990067,
P,left,Distractor,0,28,28,28,866.892839281034,868.8933195217105,left,1,2,0.5845125749474391,B08A08,2022-11-28_10h37.27.119,t1_Paradigm,2021.1.4,59.96008671990067,
G,left,Pretarget,0,29,29,29,870.392693797301,872.3926678123535,left,1,2,0.5573579640768003,B08A08,2022-11-28_10h37.27.119,t1_Paradigm,2021.1.4,59.96008671990067,
K,left,Distractor,0,30,30,30,873.8928206745186,875.8928508299286,left,1,2,0.5931270725559443,B08A08,2022-11-28_10h37.27.119,t1_Paradigm,2021.1.4,59.96008671990067,
G,right,Target,0,31,31,31,877.3929767447407,879.3927829802851,left,0,2,0.6135705044143833,B08A08,2022-11-28_10h37.27.119,t1_Paradigm,2021.1.4,59.96008671990067,
M,left,Pretarget,0,32,32,32,880.8929422585061,882.8922714614018,left,1,2,0.8577457816863898,B08A08,2022-11-28_10h37.27.119,t1_Paradigm,2021.1.4,59.96008671990067,
B,left,Distractor,0,33,33,33,884.3927929251513,886.3928423286707,left,1,2,0.6691154556756373,B08A08,2022-11-28_10h37.27.119,t1_Paradigm,2021.1.4,59.96008671990067,
M,right,Target,0,34,34,34,887.8931065091456,889.8932277723216,left,0,2,0.7527148676163051,B08A08,2022-11-28_10h37.27.119,t1_Paradigm,2021.1.4,59.96008671990067,
M,left,Lure,0,35,35,35,891.3926998925454,893.3927884339064,left,1,2,0.5333385517005809,B08A08,2022-11-28_10h37.27.119,t1_Paradigm,2021.1.4,59.96008671990067,
T,left,Distractor,0,36,36,36,894.8930253462458,896.892931672046,left,1,2,0.5529841488460079,B08A08,2022-11-28_10h37.27.119,t1_Paradigm,2021.1.4,59.96008671990067,
F,left,Distractor,0,37,37,37,898.3926492058381,900.3930845342111,left,1,2,0.49282702640630305,B08A08,2022-11-28_10h37.27.119,t1_Paradigm,2021.1.4,59.96008671990067,
X,left,Distractor,0,38,38,38,901.8929903788085,903.8928132960864,left,1,2,0.44924542543594725,B08A08,2022-11-28_10h37.27.119,t1_Paradigm,2021.1.4,59.96008671990067,
C,left,Distractor,0,39,39,39,905.3928426494531,907.3927043837903,left,1,2,0.46922337351134047,B08A08,2022-11-28_10h37.27.119,t1_Paradigm,2021.1.4,59.96008671990067,
R,left,Distractor,0,40,40,40,908.892687862477,910.8931151708239,left,1,2,0.4888567801681347,B08A08,2022-11-28_10h37.27.119,t1_Paradigm,2021.1.4,59.96008671990067,
B,left,Pretarget,0,41,41,41,912.3926649251371,914.3942981284054,left,1,2,0.37978440176812,B08A08,2022-11-28_10h37.27.119,t1_Paradigm,2021.1.4,59.96008671990067,
H,left,Distractor,0,42,42,42,915.8928505091171,917.8928476219007,left,1,2,0.43342860086704604,B08A08,2022-11-28_10h37.27.119,t1_Paradigm,2021.1.4,59.96008671990067,
B,right,Target,0,43,43,43,919.3930585492635,921.3928830705408,left,0,2,0.6930841813446023,B08A08,2022-11-28_10h37.27.119,t1_Paradigm,2021.1.4,59.96008671990067,
W,left,Pretarget,0,44,44,44,922.8942960431741,924.8934083838831,left,1,2,0.4885940432723146,B08A08,2022-11-28_10h37.27.119,t1_Paradigm,2021.1.4,59.96008671990067,
L,left,Pretarget,0,45,45,45,926.3930858174281,928.3930591908575,left,1,2,0.46077633457025513,B08A08,2022-11-28_10h37.27.119,t1_Paradigm,2021.1.4,59.96008671990067,
W,right,Target,0,46,46,46,929.8928225993295,931.8930263086513,right,1,2,0.7529166520980652,B08A08,2022-11-28_10h37.27.119,t1_Paradigm,2021.1.4,59.96008671990067,
L,right,Target,0,47,47,47,933.393027431448,935.3932420480414,right,1,2,0.5647941557690501,B08A08,2022-11-28_10h37.27.119,t1_Paradigm,2021.1.4,59.96008671990067,
W,right,Target,0,48,48,48,936.8924761331291,938.892795331165,left,0,2,0.329221506457543,B08A08,2022-11-28_10h37.27.119,t1_Paradigm,2021.1.4,59.96008671990067,
X,left,Distractor,0,49,49,49,940.3929222083825,942.3928118524782,left,1,2,0.525204936391674,B08A08,2022-11-28_10h37.27.119,t1_Paradigm,2021.1.4,59.96008671990067,
R,left,Distractor,0,50,50,50,943.8926978073432,945.8926278724975,left,1,2,0.8814944371406455,B08A08,2022-11-28_10h37.27.119,t1_Paradigm,2021.1.4,59.96008671990067,
V,left,Pretarget,0,51,51,51,947.3927707897965,949.3933046044258,left,1,2,0.46860133833251894,B08A08,2022-11-28_10h37.27.119,t1_Paradigm,2021.1.4,59.96008671990067,
Z,left,Distractor,0,52,52,52,950.8926246644696,952.8927119226428,left,1,2,0.4892548955103848,B08A08,2022-11-28_10h37.27.119,t1_Paradigm,2021.1.4,59.96008671990067,
V,right,Target,0,53,53,53,954.3928445742931,956.3928060780454,right,1,2,0.42950358768575825,B08A08,2022-11-28_10h37.27.119,t1_Paradigm,2021.1.4,59.96008671990067,
V,left,Lure,0,54,54,54,957.8929733762925,959.8926349301473,left,1,2,0.5934754635964055,B08A08,2022-11-28_10h37.27.119,t1_Paradigm,2021.1.4,59.96008671990067,
N,left,Distractor,0,55,55,55,961.392637336161,963.3930996119161,left,1,2,0.516737045312766,B08A08,2022-11-28_10h37.27.119,t1_Paradigm,2021.1.4,59.96008671990067,
B,left,Distractor,0,56,56,56,964.8928081632475,966.8926981281547,left,1,2,0.4733007676550187,B08A08,2022-11-28_10h37.27.119,t1_Paradigm,2021.1.4,59.96008671990067,
V,left,Lure,0,57,57,57,968.3926979677344,970.3927932459628,left,1,2,0.49315039490466006,B08A08,2022-11-28_10h37.27.119,t1_Paradigm,2021.1.4,59.96008671990067,
J,left,Distractor,0,58,58,58,971.8927719126223,973.8927741582156,left,1,2,0.49738530282047577,B08A08,2022-11-28_10h37.27.119,t1_Paradigm,2021.1.4,59.96008671990067,
H,left,Distractor,0,59,59,59,975.3929440229258,977.3927887547179,left,1,2,0.5331983611977194,B08A08,2022-11-28_10h37.27.119,t1_Paradigm,2021.1.4,59.96008671990067,
X,left,Pretarget,0,60,60,60,978.8928553211445,980.8929589402105,left,1,2,0.6169896127539687,B08A08,2022-11-28_10h37.27.119,t1_Paradigm,2021.1.4,59.96008671990067,
P,left,Distractor,0,61,61,61,982.3929587798193,984.3934399829013,left,1,2,0.5565729614754673,B08A08,2022-11-28_10h37.27.119,t1_Paradigm,2021.1.4,59.96008671990067,
X,right,Target,0,62,62,62,985.8927885943267,987.8930311206786,left,0,2,0.9929462043801323,B08A08,2022-11-28_10h37.27.119,t1_Paradigm,2021.1.4,59.96008671990067,
Q,left,Distractor,0,63,63,63,989.3928420078591,991.3931772460055,left,1,2,0.5809118926990777,B08A08,2022-11-28_10h37.27.119,t1_Paradigm,2021.1.4,59.96008671990067,
B,left,Pretarget,0,0,0,0,1005.2066783288901,1007.2094737979933,None,0,2,,B08A08,2022-11-28_10h37.27.119,t1_Paradigm,2021.1.4,59.96008671990067,
F,left,Distractor,0,1,1,1,1008.7097937980434,1010.7097610762285,None,0,2,,B08A08,2022-11-28_10h37.27.119,t1_Paradigm,2021.1.4,59.96008671990067,
B,right,Target,0,2,2,2,1012.20978433438,1014.2094811764546,right,1,2,0.46836619041278027,B08A08,2022-11-28_10h37.27.119,t1_Paradigm,2021.1.4,59.96008671990067,
V,left,Distractor,0,3,3,3,1015.7096141488873,1017.7094774872239,left,1,2,0.44051415589638054,B08A08,2022-11-28_10h37.27.119,t1_Paradigm,2021.1.4,59.96008671990067,
G,left,Pretarget,0,4,4,4,1019.209588324331,1021.2094510210445,left,1,2,0.4926220338966232,B08A08,2022-11-28_10h37.27.119,t1_Paradigm,2021.1.4,59.96008671990067,
B,left,Lure,0,5,5,5,1022.7094704295741,1024.7095897679392,left,1,2,0.40024194889701903,B08A08,2022-11-28_10h37.27.119,t1_Paradigm,2021.1.4,59.96008671990067,
G,right,Target,0,6,6,6,1026.2096245749563,1028.2095584897324,right,1,2,0.4363549572008196,B08A08,2022-11-28_10h37.27.119,t1_Paradigm,2021.1.4,59.96008671990067,
Y,left,Pretarget,0,7,7,7,1029.709383813024,1031.7094864696846,left,1,2,0.4085709326900542,B08A08,2022-11-28_10h37.27.119,t1_Paradigm,2021.1.4,59.96008671990067,
P,left,Distractor,0,8,8,8,1033.2096726952877,1035.2094523042615,left,1,2,0.41264447721187025,B08A08,2022-11-28_10h37.27.119,t1_Paradigm,2021.1.4,59.96008671990067,
Y,right,Target,0,9,9,9,1036.7096651564352,1038.710105617647,right,1,2,0.43202958308393136,B08A08,2022-11-28_10h37.27.119,t1_Paradigm,2021.1.4,59.96008671990067,
X,left,Distractor,0,10,10,10,1040.209467061155,1042.210027502355,left,1,2,0.45181504989159293,B08A08,2022-11-28_10h37.27.119,t1_Paradigm,2021.1.4,59.96008671990067,
Y,right,Target,0,11,11,11,1043.7094746000075,1045.7098884346487,right,1,2,0.44018661699374206,B08A08,2022-11-28_10h37.27.119,t1_Paradigm,2021.1.4,59.96008671990067,
N,left,Distractor,0,12,12,12,1047.209529938351,1049.2095690762217,left,1,2,0.5084760715253651,B08A08,2022-11-28_10h37.27.119,t1_Paradigm,2021.1.4,59.96008671990067,
Y,right,Target,0,13,13,13,1050.709414610028,1052.7095284947427,right,1,2,0.9604207254596986,B08A08,2022-11-28_10h37.27.119,t1_Paradigm,2021.1.4,59.96008671990067,
Y,left,Lure,0,14,14,14,1054.2097407053225,1056.209617196524,left,1,2,0.6767925697204191,B08A08,2022-11-28_10h37.27.119,t1_Paradigm,2021.1.4,59.96008671990067,
K,left,Distractor,0,15,15,15,1057.709356224048,1059.7100542893168,left,1,2,0.5678154695197009,B08A08,2022-11-28_10h37.27.119,t1_Paradigm,2021.1.4,59.96008671990067,
T,left,Pretarget,0,16,16,16,1061.2096819985309,1063.2092809959722,left,1,2,0.588703533023363,B08A08,2022-11-28_10h37.27.119,t1_Paradigm,2021.1.4,59.96008671990067,
J,left,Distractor,0,17,17,17,1064.7099185900588,1066.7095904095331,left,1,2,0.48053325002547354,B08A08,2022-11-28_10h37.27.119,t1_Paradigm,2021.1.4,59.96008671990067,
T,right,Target,0,18,18,18,1068.209678148909,1070.210173146479,right,1,2,0.49983815537416376,B08A08,2022-11-28_10h37.27.119,t1_Paradigm,2021.1.4,59.96008671990067,
S,left,Pretarget,0,19,19,19,1071.709504434606,1073.7092131463287,left,1,2,0.5366594946244732,B08A08,2022-11-28_10h37.27.119,t1_Paradigm,2021.1.4,59.96008671990067,
R,left,Distractor,0,20,20,20,1075.2096524847439,1077.2096242541738,left,1,2,0.46040997860836796,B08A08,2022-11-28_10h37.27.119,t1_Paradigm,2021.1.4,59.96008671990067,
S,right,Target,0,21,21,21,1078.7093607152638,1080.7093648856971,right,1,2,0.5125585985078942,B08A08,2022-11-28_10h37.27.119,t1_Paradigm,2021.1.4,59.96008671990067,
Q,left,Distractor,0,22,22,22,1082.2095007453754,1084.2101811665343,left,1,2,0.37179418496089056,B08A08,2022-11-28_10h37.27.119,t1_Paradigm,2021.1.4,59.96008671990067,
D,left,Distractor,0,23,23,23,1085.7094701087626,1087.709276344336,left,1,2,0.5206604544364382,B08A08,2022-11-28_10h37.27.119,t1_Paradigm,2021.1.4,59.96008671990067,
F,left,Distractor,0,24,24,24,1089.20933007868,1091.2094943293196,left,1,2,0.4605033319967333,B08A08,2022-11-28_10h37.27.119,t1_Paradigm,2021.1.4,59.96008671990067,
Z,left,Distractor,0,25,25,25,1092.7093931162963,1094.7094813368458,left,1,2,0.6565698496997356,B08A08,2022-11-28_10h37.27.119,t1_Paradigm,2021.1.4,59.96008671990067,
P,left,Distractor,0,26,26,26,1096.2095578481385,1098.2094882341044,left,1,2,0.6924935847637244,B08A08,2022-11-28_10h37.27.119,t1_Paradigm,2021.1.4,59.96008671990067,
H,left,Distractor,0,27,27,27,1099.709368735319,1101.7100311915856,left,1,2,0.4560297473508399,B08A08,2022-11-28_10h37.27.119,t1_Paradigm,2021.1.4,59.96008671990067,
Z,left,Pretarget,0,28,28,28,1103.2097115123179,1105.2095636225713,right,0,2,1.1965390591067262,B08A08,2022-11-28_10h37.27.119,t1_Paradigm,2021.1.4,59.96008671990067,
J,left,Pretarget,0,29,29,29,1106.709413326811,1108.7100109810417,left,1,2,0.7039523134299088,B08A08,2022-11-28_10h37.27.119,t1_Paradigm,2021.1.4,59.96008671990067,
Z,right,Target,0,30,30,30,1110.2098010160844,1112.2093323243025,right,1,2,0.42060999225941487,B08A08,2022-11-28_10h37.27.119,t1_Paradigm,2021.1.4,59.96008671990067,
J,right,Target,0,31,31,31,1113.709380604996,1115.7094223092718,left,0,2,0.5365135296888184,B08A08,2022-11-28_10h37.27.119,t1_Paradigm,2021.1.4,59.96008671990067,
V,left,Pretarget,0,32,32,32,1117.2097939584637,1119.2094288857188,left,1,2,0.4926005401648581,B08A08,2022-11-28_10h37.27.119,t1_Paradigm,2021.1.4,59.96008671990067,
Z,left,Lure,0,33,33,33,1120.7095894471277,1122.7094778080354,left,1,2,1.328336092759855,B08A08,2022-11-28_10h37.27.119,t1_Paradigm,2021.1.4,59.96008671990067,
V,right,Target,0,34,34,34,1124.2094529458554,1126.2098353419278,left,0,2,1.1721786341222469,B08A08,2022-11-28_10h37.27.119,t1_Paradigm,2021.1.4,59.96008671990067,
X,left,Distractor,0,35,35,35,1127.709489998495,1129.7094649759529,left,1,2,0.9204677165835164,B08A08,2022-11-28_10h37.27.119,t1_Paradigm,2021.1.4,59.96008671990067,
S,left,Distractor,0,36,36,36,1131.2095495072717,1133.2095966651978,left,1,2,0.9244430956605356,B08A08,2022-11-28_10h37.27.119,t1_Paradigm,2021.1.4,59.96008671990067,
Q,left,Distractor,0,37,37,37,1134.7094377077592,1136.7095920135616,left,1,2,0.4805258715641685,B08A08,2022-11-28_10h37.27.119,t1_Paradigm,2021.1.4,59.96008671990067,
P,left,Distractor,0,38,38,38,1138.2094285649073,1140.2093400235462,left,1,2,0.516813396156067,B08A08,2022-11-28_10h37.27.119,t1_Paradigm,2021.1.4,59.96008671990067,
S,left,Lure,0,39,39,39,1141.7093324846937,1143.7098836226214,right,0,2,0.5839989708620124,B08A08,2022-11-28_10h37.27.119,t1_Paradigm,2021.1.4,59.96008671990067,
K,left,Pretarget,0,40,40,40,1145.2095908907359,1147.2092922240263,left,1,2,0.7488174434110988,B08A08,2022-11-28_10h37.27.119,t1_Paradigm,2021.1.4,59.96008671990067,
L,left,Distractor,0,41,41,41,1148.7094328957319,1150.7095047553885,left,1,2,0.5283240947755985,B08A08,2022-11-28_10h37.27.119,t1_Paradigm,2021.1.4,59.96008671990067,
K,right,Target,0,42,42,42,1152.2093971263093,1154.2099306201271,right,1,2,0.724110231443774,B08A08,2022-11-28_10h37.27.119,t1_Paradigm,2021.1.4,59.96008671990067,
B,left,Distractor,0,43,43,43,1155.7096439834859,1157.7104206452786,left,1,2,0.5035642712609842,B08A08,2022-11-28_10h37.27.119,t1_Paradigm,2021.1.4,59.96008671990067,
N,left,Distractor,0,44,44,44,1159.2096130260907,1161.2095639433828,left,1,2,0.5564703048148658,B08A08,2022-11-28_10h37.27.119,t1_Paradigm,2021.1.4,59.96008671990067,
S,left,Pretarget,0,45,45,45,1162.709596183995,1164.71014154749,left,1,2,0.7358272057317663,B08A08,2022-11-28_10h37.27.119,t1_Paradigm,2021.1.4,59.96008671990067,
Z,left,Distractor,0,46,46,46,1166.2096990010468,1168.209494650131,left,1,2,0.5488063436932862,B08A08,2022-11-28_10h37.27.119,t1_Paradigm,2021.1.4,59.96008671990067,
S,right,Target,0,47,47,47,1169.709474920819,1171.7094332165434,right,1,2,0.9684757443028502,B08A08,2022-11-28_10h37.27.119,t1_Paradigm,2021.1.4,59.96008671990067,
C,left,Distractor,0,48,48,48,1173.2096386902558,1175.2098449659825,left,1,2,0.6681039668328594,B08A08,2022-11-28_10h37.27.119,t1_Paradigm,2021.1.4,59.96008671990067,
T,left,Pretarget,0,49,49,49,1176.7093725849409,1178.709490640118,left,1,2,0.4487209140788764,B08A08,2022-11-28_10h37.27.119,t1_Paradigm,2021.1.4,59.96008671990067,
S,left,Lure,0,50,50,50,1180.2097198531847,1182.2095616977604,left,1,2,0.4363989070698153,B08A08,2022-11-28_10h37.27.119,t1_Paradigm,2021.1.4,59.96008671990067,
T,right,Target,0,51,51,51,1183.709566670208,1185.7099821088486,right,1,2,0.6801378935633693,B08A08,2022-11-28_10h37.27.119,t1_Paradigm,2021.1.4,59.96008671990067,
N,left,Pretarget,0,52,52,52,1187.2094837428594,1189.2100669610081,left,1,2,0.45995443969150074,B08A08,2022-11-28_10h37.27.119,t1_Paradigm,2021.1.4,59.96008671990067,
B,left,Distractor,0,53,53,53,1190.7096064496436,1192.7093571864534,left,1,2,0.46497595429536887,B08A08,2022-11-28_10h37.27.119,t1_Paradigm,2021.1.4,59.96008671990067,
N,right,Target,0,54,54,54,1194.2096900185861,1196.2094423593953,left,0,2,0.6283658952743281,B08A08,2022-11-28_10h37.27.119,t1_Paradigm,2021.1.4,59.96008671990067,
N,left,Lure,0,55,55,55,1197.7097039734654,1199.7094816576573,left,1,2,0.4724958752922248,B08A08,2022-11-28_10h37.27.119,t1_Paradigm,2021.1.4,59.96008671990067,
X,left,Distractor,0,56,56,56,1201.2094914421032,1203.2094660987495,left,1,2,0.5246069613203872,B08A08,2022-11-28_10h37.27.119,t1_Paradigm,2021.1.4,59.96008671990067,
W,left,Distractor,0,57,57,57,1204.7095592917467,1206.7093376175326,left,1,2,0.5927478845405858,B08A08,2022-11-28_10h37.27.119,t1_Paradigm,2021.1.4,59.96008671990067,
S,left,Distractor,0,58,58,58,1208.209666279232,1210.209362158872,left,1,2,0.4365679697948508,B08A08,2022-11-28_10h37.27.119,t1_Paradigm,2021.1.4,59.96008671990067,
L,left,Distractor,0,59,59,59,1211.709594900778,1213.7093616776692,left,1,2,0.45669573239865713,B08A08,2022-11-28_10h37.27.119,t1_Paradigm,2021.1.4,59.96008671990067,
K,left,Pretarget,0,60,60,60,1215.2099880437017,1217.2093316826795,left,1,2,0.4606338984449394,B08A08,2022-11-28_10h37.27.119,t1_Paradigm,2021.1.4,59.96008671990067,
V,left,Pretarget,0,61,61,61,1218.7095021889836,1220.7095525549084,left,1,2,0.592626942176139,B08A08,2022-11-28_10h37.27.119,t1_Paradigm,2021.1.4,59.96008671990067,
K,right,Target,0,62,62,62,1222.2095325047849,1224.209377878171,left,0,2,0.612741872726474,B08A08,2022-11-28_10h37.27.119,t1_Paradigm,2021.1.4,59.96008671990067,
V,right,Target,0,63,63,63,1225.7096266601875,1227.7098082341545,left,0,2,0.44028799040825106,B08A08,2022-11-28_10h37.27.119,t1_Paradigm,2021.1.4,59.96008671990067,
R,left,Distractor,0,0,0,0,1289.0688399508945,1291.0767785185599,None,0,3,,B08A08,2022-11-28_10h37.27.119,t1_Paradigm,2021.1.4,59.96008671990067,
P,left,Lure,0,1,1,1,1292.5761515109625,1294.5763507290394,None,0,3,,B08A08,2022-11-28_10h37.27.119,t1_Paradigm,2021.1.4,59.96008671990067,
V,left,Distractor,0,2,2,2,1296.0760101976339,1298.0608834182785,None,0,3,,B08A08,2022-11-28_10h37.27.119,t1_Paradigm,2021.1.4,59.96008671990067,
P,left,Pretarget,0,3,3,3,1299.5759641625627,1301.576087671332,left,1,3,0.5100733449799009,B08A08,2022-11-28_10h37.27.119,t1_Paradigm,2021.1.4,59.96008671990067,
Z,left,Distractor,0,4,4,4,1303.0598122602096,1305.0602857640479,None,0,3,,B08A08,2022-11-28_10h37.27.119,t1_Paradigm,2021.1.4,59.96008671990067,
L,left,Pretarget,0,5,5,5,1306.559359448118,1308.5598056837625,None,0,3,,B08A08,2022-11-28_10h37.27.119,t1_Paradigm,2021.1.4,59.96008671990067,
P,right,Target,0,6,6,6,1310.05948343809,1312.059526746365,right,1,3,0.5544489310414065,B08A08,2022-11-28_10h37.27.119,t1_Paradigm,2021.1.4,59.96008671990067,
S,left,Distractor,0,7,7,7,1313.559596841631,1315.5602653931128,right,0,3,1.1496268911578227,B08A08,2022-11-28_10h37.27.119,t1_Paradigm,2021.1.4,59.96008671990067,
L,right,Target,0,8,8,8,1317.0595642802073,1319.0607560598582,left,0,3,0.9617039337172173,B08A08,2022-11-28_10h37.27.119,t1_Paradigm,2021.1.4,59.96008671990067,
D,left,Distractor,0,9,9,9,1320.5598294231168,1322.559939779021,None,0,3,,B08A08,2022-11-28_10h37.27.119,t1_Paradigm,2021.1.4,59.96008671990067,
G,left,Distractor,0,10,10,10,1324.0593179042335,1326.059318866639,None,0,3,,B08A08,2022-11-28_10h37.27.119,t1_Paradigm,2021.1.4,59.96008671990067,
M,left,Pretarget,0,11,11,11,1327.5596010120644,1329.5594784656714,left,1,3,0.6705022829992231,B08A08,2022-11-28_10h37.27.119,t1_Paradigm,2021.1.4,59.96008671990067,
Y,left,Distractor,0,12,12,12,1331.0593531924533,1333.0605876387854,left,1,3,0.48181966628180817,B08A08,2022-11-28_10h37.27.119,t1_Paradigm,2021.1.4,59.96008671990067,
V,left,Distractor,0,13,13,13,1334.5599173228838,1336.5593924907153,left,1,3,0.518545085680671,B08A08,2022-11-28_10h37.27.119,t1_Paradigm,2021.1.4,59.96008671990067,
M,right,Target,0,14,14,14,1338.0596406311088,1340.0599299945752,right,1,3,0.44215056716348045,B08A08,2022-11-28_10h37.27.119,t1_Paradigm,2021.1.4,59.96008671990067,
S,left,Pretarget,0,15,15,15,1341.5598194782506,1343.5608139646356,left,1,3,0.4133842467563227,B08A08,2022-11-28_10h37.27.119,t1_Paradigm,2021.1.4,59.96008671990067,
Q,left,Distractor,0,16,16,16,1345.060068901861,1347.0594760596578,left,1,3,0.46668871646397747,B08A08,2022-11-28_10h37.27.119,t1_Paradigm,2021.1.4,59.96008671990067,
R,left,Pretarget,0,17,17,17,1348.5596366210957,1350.5594409318292,left,1,3,0.694652903417591,B08A08,2022-11-28_10h37.27.119,t1_Paradigm,2021.1.4,59.96008671990067,
S,right,Target,0,18,18,18,1352.0594930621737,1354.0595674882352,left,0,3,0.39455541167990305,B08A08,2022-11-28_10h37.27.119,t1_Paradigm,2021.1.4,59.96008671990067,
F,left,Distractor,0,19,19,19,1355.559550966922,1357.5595285107847,left,1,3,0.7183851979207247,B08A08,2022-11-28_10h37.27.119,t1_Paradigm,2021.1.4,59.96008671990067,
R,right,Target,0,20,20,20,1359.0595649218303,1361.0593336235324,right,1,3,0.7386788152216468,B08A08,2022-11-28_10h37.27.119,t1_Paradigm,2021.1.4,59.96008671990067,
P,left,Distractor,0,21,21,21,1362.5593507864396,1364.5759981675656,left,1,3,0.32595798710826784,B08A08,2022-11-28_10h37.27.119,t1_Paradigm,2021.1.4,59.96008671990067,
L,left,Distractor,0,22,22,22,1366.076157766598,1368.0759835710633,left,1,3,0.37815665212110616,B08A08,2022-11-28_10h37.27.119,t1_Paradigm,2021.1.4,59.96008671990067,
R,right,Target,0,23,23,23,1369.5763167240075,1371.5763237816573,right,1,3,0.9098036146024242,B08A08,2022-11-28_10h37.27.119,t1_Paradigm,2021.1.4,59.96008671990067,
H,left,Pretarget,0,24,24,24,1373.0597262852534,1375.0593560796988,left,1,3,0.3866165231738705,B08A08,2022-11-28_10h37.27.119,t1_Paradigm,2021.1.4,59.96008671990067,
G,left,Pretarget,0,25,25,25,1376.5594929017534,1378.5595336436236,left,1,3,0.5184302385605406,B08A08,2022-11-28_10h37.27.119,t1_Paradigm,2021.1.4,59.96008671990067,
T,left,Distractor,0,26,26,26,1380.059783708828,1382.0600948868087,left,1,3,0.45798246943741105,B08A08,2022-11-28_10h37.27.119,t1_Paradigm,2021.1.4,59.96008671990067,
H,right,Target,0,27,27,27,1383.5597742451646,1385.5603872978827,left,0,3,0.5096502070664428,B08A08,2022-11-28_10h37.27.119,t1_Paradigm,2021.1.4,59.96008671990067,
G,right,Target,0,28,28,28,1387.0593589669152,1389.0593727614032,left,0,3,0.8505120161280502,B08A08,2022-11-28_10h37.27.119,t1_Paradigm,2021.1.4,59.96008671990067,
D,left,Distractor,0,29,29,29,1390.5598785058246,1392.5594884105376,left,1,3,0.7745509012020193,B08A08,2022-11-28_10h37.27.119,t1_Paradigm,2021.1.4,59.96008671990067,
N,left,Pretarget,0,30,30,30,1394.0593750069966,1396.059813864209,left,1,3,0.6823722798726521,B08A08,2022-11-28_10h37.27.119,t1_Paradigm,2021.1.4,59.96008671990067,
V,left,Distractor,0,31,31,31,1397.5593264054914,1399.5593841498776,left,1,3,0.686616811901331,B08A08,2022-11-28_10h37.27.119,t1_Paradigm,2021.1.4,59.96008671990067,
R,left,Distractor,0,32,32,32,1401.059541182476,1403.0599976837984,left,1,3,0.449998347874498,B08A08,2022-11-28_10h37.27.119,t1_Paradigm,2021.1.4,59.96008671990067,
N,right,Target,0,33,33,33,1404.5596080697142,1406.5601441299368,right,1,3,0.8858733852102887,B08A08,2022-11-28_10h37.27.119,t1_Paradigm,2021.1.4,59.96008671990067,
Z,left,Distractor,0,34,34,34,1408.059509102255,1410.0614242905285,left,1,3,0.7448266658466309,B08A08,2022-11-28_10h37.27.119,t1_Paradigm,2021.1.4,59.96008671990067,
N,left,Lure,0,35,35,35,1411.5763074207644,1413.5762913806539,left,1,3,1.4379984261468053,B08A08,2022-11-28_10h37.27.119,t1_Paradigm,2021.1.4,59.96008671990067,
Y,left,Pretarget,0,36,36,36,1415.0601882402261,1417.0594754180638,left,1,3,1.4585810861026403,B08A08,2022-11-28_10h37.27.119,t1_Paradigm,2021.1.4,59.96008671990067,
Y,left,Lure,0,37,37,37,1418.5594560095342,1420.5598692025815,left,1,3,0.40616235087509267,B08A08,2022-11-28_10h37.27.119,t1_Paradigm,2021.1.4,59.96008671990067,
B,left,Distractor,0,38,38,38,1422.0598112978041,1424.0600515785336,left,1,3,0.4100450181576889,B08A08,2022-11-28_10h37.27.119,t1_Paradigm,2021.1.4,59.96008671990067,
Y,right,Target,0,39,39,39,1425.5598547664704,1427.559687949426,right,1,3,0.5263569365779404,B08A08,2022-11-28_10h37.27.119,t1_Paradigm,2021.1.4,59.96008671990067,
J,left,Distractor,0,40,40,40,1429.0593685909698,1431.0594503954926,left,1,3,0.4504609444120433,B08A08,2022-11-28_10h37.27.119,t1_Paradigm,2021.1.4,59.96008671990067,
X,left,Distractor,0,41,41,41,1432.5596180145512,1434.5594746160496,left,1,3,0.47050818576826714,B08A08,2022-11-28_10h37.27.119,t1_Paradigm,2021.1.4,59.96008671990067,
W,left,Pretarget,0,42,42,42,1436.0594138240558,1438.0594763804693,left,1,3,0.4266481285740156,B08A08,2022-11-28_10h37.27.119,t1_Paradigm,2021.1.4,59.96008671990067,
S,left,Pretarget,0,43,43,43,1439.5593036285427,1441.5594396486122,left,1,3,0.6387143280007876,B08A08,2022-11-28_10h37.27.119,t1_Paradigm,2021.1.4,59.96008671990067,
R,left,Distractor,0,44,44,44,1443.0595257839595,1445.060133703868,left,1,3,0.433755177364219,B08A08,2022-11-28_10h37.27.119,t1_Paradigm,2021.1.4,59.96008671990067,
W,right,Target,0,45,45,45,1446.5595230571635,1448.561717022414,left,0,3,0.3724046712741256,B08A08,2022-11-28_10h37.27.119,t1_Paradigm,2021.1.4,59.96008671990067,
S,right,Target,0,46,46,46,1450.0759819670639,1452.0765526739124,left,0,3,0.3774768725852482,B08A08,2022-11-28_10h37.27.119,t1_Paradigm,2021.1.4,59.96008671990067,
D,left,Distractor,0,47,47,47,1453.5762958718697,1455.5759930347267,left,1,3,0.3981538483349141,B08A08,2022-11-28_10h37.27.119,t1_Paradigm,2021.1.4,59.96008671990067,
T,left,Distractor,0,48,48,48,1457.0596746361407,1459.0605773731077,left,1,3,0.4655787413357757,B08A08,2022-11-28_10h37.27.119,t1_Paradigm,2021.1.4,59.96008671990067,
S,right,Target,0,49,49,49,1460.5594656335888,1462.5595265859738,left,0,3,0.9023873126425315,B08A08,2022-11-28_10h37.27.119,t1_Paradigm,2021.1.4,59.96008671990067,
K,left,Distractor,0,50,50,50,1464.059585132345,1466.0592890320695,left,1,3,0.4587511111749336,B08A08,2022-11-28_10h37.27.119,t1_Paradigm,2021.1.4,59.96008671990067,
S,left,Lure,0,51,51,51,1467.5594784656714,1469.5598005509237,left,1,3,1.0701946979970671,B08A08,2022-11-28_10h37.27.119,t1_Paradigm,2021.1.4,59.96008671990067,
T,left,Pretarget,0,52,52,52,1471.0597958993167,1473.0598331123474,right,0,3,0.5780904385901522,B08A08,2022-11-28_10h37.27.119,t1_Paradigm,2021.1.4,59.96008671990067,
V,left,Distractor,0,53,53,53,1474.5597424857551,1476.5599256637506,left,1,3,0.8221402822528034,B08A08,2022-11-28_10h37.27.119,t1_Paradigm,2021.1.4,59.96008671990067,
B,left,Distractor,0,54,54,54,1478.0596143253497,1480.0600429168844,left,1,3,0.45806716120569035,B08A08,2022-11-28_10h37.27.119,t1_Paradigm,2021.1.4,59.96008671990067,
T,right,Target,0,55,55,55,1481.5595554581669,1483.5600838191458,left,0,3,0.6539325359626673,B08A08,2022-11-28_10h37.27.119,t1_Paradigm,2021.1.4,59.96008671990067,
Y,left,Pretarget,0,56,56,56,1485.059618495754,1487.060203959525,left,1,3,0.5459787943400443,B08A08,2022-11-28_10h37.27.119,t1_Paradigm,2021.1.4,59.96008671990067,
T,left,Lure,0,57,57,57,1488.5595246611629,1490.5602560898405,right,0,3,0.9823658317618538,B08A08,2022-11-28_10h37.27.119,t1_Paradigm,2021.1.4,59.96008671990067,
P,left,Pretarget,0,58,58,58,1492.0593143754231,1494.0600015334203,left,1,3,0.4260908954020124,B08A08,2022-11-28_10h37.27.119,t1_Paradigm,2021.1.4,59.96008671990067,
Y,right,Target,0,59,59,59,1495.559459217533,1497.5597267664562,left,0,3,0.7022879923461005,B08A08,2022-11-28_10h37.27.119,t1_Paradigm,2021.1.4,59.96008671990067,
R,left,Distractor,0,60,60,60,1499.0593134130177,1501.0601414031116,left,1,3,0.6260063961381093,B08A08,2022-11-28_10h37.27.119,t1_Paradigm,2021.1.4,59.96008671990067,
P,right,Target,0,61,61,61,1502.5600437188987,1504.5593395583855,left,0,3,0.454671471437905,B08A08,2022-11-28_10h37.27.119,t1_Paradigm,2021.1.4,59.96008671990067,
L,left,Distractor,0,62,62,62,1506.059335869155,1508.0593381147773,left,1,3,0.49074726668186486,B08A08,2022-11-28_10h37.27.119,t1_Paradigm,2021.1.4,59.96008671990067,
V,left,Distractor,0,63,63,63,1509.5594842401042,1511.5596523403947,left,1,3,0.38272006140323356,B08A08,2022-11-28_10h37.27.119,t1_Paradigm,2021.1.4,59.96008671990067,
H,left,Lure,0,0,0,0,1541.6400392405048,1543.6442234617134,None,0,3,,B08A08,2022-11-28_10h37.27.119,t1_Paradigm,2021.1.4,59.96008671990067,
B,left,Distractor,0,1,1,1,1545.1429497171484,1547.1428069602407,None,0,3,,B08A08,2022-11-28_10h37.27.119,t1_Paradigm,2021.1.4,59.96008671990067,
T,left,Distractor,0,2,2,2,1548.6431571156718,1550.6432867197145,None,0,3,,B08A08,2022-11-28_10h37.27.119,t1_Paradigm,2021.1.4,59.96008671990067,
R,left,Distractor,0,3,3,3,1552.1429301482276,1554.1434649252624,left,1,3,0.3906470802030526,B08A08,2022-11-28_10h37.27.119,t1_Paradigm,2021.1.4,59.96008671990067,
H,left,Pretarget,0,4,4,4,1555.6429370454862,1557.6435529854207,left,1,3,0.6186035679129418,B08A08,2022-11-28_10h37.27.119,t1_Paradigm,2021.1.4,59.96008671990067,
K,left,Distractor,0,5,5,5,1559.1429522835824,1561.1428133762674,left,1,3,0.4795159866916947,B08A08,2022-11-28_10h37.27.119,t1_Paradigm,2021.1.4,59.96008671990067,
G,left,Distractor,0,6,6,6,1562.642958539218,1564.6432171056804,left,1,3,0.483329360751668,B08A08,2022-11-28_10h37.27.119,t1_Paradigm,2021.1.4,59.96008671990067,
H,right,Target,0,7,7,7,1566.1430847748125,1568.1427620479371,right,1,3,0.4073756242287345,B08A08,2022-11-28_10h37.27.119,t1_Paradigm,2021.1.4,59.96008671990067,
Y,left,Pretarget,0,8,8,8,1569.643050288607,1571.6441381283803,left,1,3,0.4740658805530984,B08A08,2022-11-28_10h37.27.119,t1_Paradigm,2021.1.4,59.96008671990067,
S,left,Distractor,0,9,9,9,1573.1428919727914,1575.1427193812851,left,1,3,0.5113870294007938,B08A08,2022-11-28_10h37.27.119,t1_Paradigm,2021.1.4,59.96008671990067,
P,left,Distractor,0,10,10,10,1576.6429001532379,1578.643347992911,left,1,3,0.5308812079601921,B08A08,2022-11-28_10h37.27.119,t1_Paradigm,2021.1.4,59.96008671990067,
Y,right,Target,0,11,11,11,1580.142888443952,1582.1457615471736,left,0,3,0.4682882355118636,B08A08,2022-11-28_10h37.27.119,t1_Paradigm,2021.1.4,59.96008671990067,
H,left,Lure,0,12,12,12,1583.6430384189298,1585.6428507497185,left,1,3,0.5551829261530656,B08A08,2022-11-28_10h37.27.119,t1_Paradigm,2021.1.4,59.96008671990067,
Q,left,Distractor,0,13,13,13,1587.1428284539725,1589.1427174564742,left,1,3,0.38394295881153084,B08A08,2022-11-28_10h37.27.119,t1_Paradigm,2021.1.4,59.96008671990067,
V,left,Pretarget,0,14,14,14,1590.6428420880693,1592.642639341153,left,1,3,0.4995718896680046,B08A08,2022-11-28_10h37.27.119,t1_Paradigm,2021.1.4,59.96008671990067,
G,left,Distractor,0,15,15,15,1594.1429615868255,1596.145175121026,left,1,3,0.4210433958505746,B08A08,2022-11-28_10h37.27.119,t1_Paradigm,2021.1.4,59.96008671990067,
Z,left,Pretarget,0,16,16,16,1597.642773115629,1599.6439417975198,left,1,3,0.4902156977041159,B08A08,2022-11-28_10h37.27.119,t1_Paradigm,2021.1.4,59.96008671990067,
V,right,Target,0,17,17,17,1601.1428784990858,1603.1430324840767,right,1,3,0.6071005685662385,B08A08,2022-11-28_10h37.27.119,t1_Paradigm,2021.1.4,59.96008671990067,
N,left,Distractor,0,18,18,18,1604.6429511607566,1606.6430637622834,left,1,3,0.5949469826591667,B08A08,2022-11-28_10h37.27.119,t1_Paradigm,2021.1.4,59.96008671990067,
Z,right,Target,0,19,19,19,1608.1430485241872,1610.142736383772,right,1,3,0.45529382742824964,B08A08,2022-11-28_10h37.27.119,t1_Paradigm,2021.1.4,59.96008671990067,
R,left,Distractor,0,20,20,20,1611.6429588600004,1613.6426650053181,left,1,3,0.4594809358532075,B08A08,2022-11-28_10h37.27.119,t1_Paradigm,2021.1.4,59.96008671990067,
P,left,Distractor,0,21,21,21,1615.1431181382213,1617.1427610855317,left,1,3,0.591362982057035,B08A08,2022-11-28_10h37.27.119,t1_Paradigm,2021.1.4,59.96008671990067,
Z,right,Target,0,22,22,22,1618.6432331457618,1620.6433508801274,right,1,3,0.7547275797114708,B08A08,2022-11-28_10h37.27.119,t1_Paradigm,2021.1.4,59.96008671990067,
D,left,Pretarget,0,23,23,23,1622.1429404139053,1624.1433459076798,left,1,3,1.0148935562756378,B08A08,2022-11-28_10h37.27.119,t1_Paradigm,2021.1.4,59.96008671990067,
K,left,Distractor,0,24,24,24,1625.6429550103785,1627.6431956119195,left,1,3,0.39489064982626587,B08A08,2022-11-28_10h37.27.119,t1_Paradigm,2021.1.4,59.96008671990067,
W,left,Distractor,0,25,25,25,1629.142933035444,1631.142634689546,left,1,3,0.4476555304718204,B08A08,2022-11-28_10h37.27.119,t1_Paradigm,2021.1.4,59.96008671990067,
D,right,Target,0,26,26,26,1632.6428286143637,1634.6433425392606,right,1,3,0.4345998491626233,B08A08,2022-11-28_10h37.27.119,t1_Paradigm,2021.1.4,59.96008671990067,
G,left,Pretarget,0,27,27,27,1636.1428364740277,1638.1433561733575,left,1,3,0.5345993037917651,B08A08,2022-11-28_10h37.27.119,t1_Paradigm,2021.1.4,59.96008671990067,
V,left,Distractor,0,28,28,28,1639.6429646344623,1641.6429614264343,left,1,3,0.4751517954864539,B08A08,2022-11-28_10h37.27.119,t1_Paradigm,2021.1.4,59.96008671990067,
D,right,Target,0,29,29,29,1643.1428377572447,1645.142949396366,left,0,3,0.4154024125018623,B08A08,2022-11-28_10h37.27.119,t1_Paradigm,2021.1.4,59.96008671990067,
G,right,Target,0,30,30,30,1646.642682007834,1648.6451739982003,left,0,3,0.5610279396059923,B08A08,2022-11-28_10h37.27.119,t1_Paradigm,2021.1.4,59.96008671990067,
B,left,Pretarget,0,31,31,31,1650.142890368763,1652.1440138175676,left,1,3,0.4222030952805653,B08A08,2022-11-28_10h37.27.119,t1_Paradigm,2021.1.4,59.96008671990067,
N,left,Distractor,0,32,32,32,1653.6430092259252,1655.6428988700209,left,1,3,0.4432801112125162,B08A08,2022-11-28_10h37.27.119,t1_Paradigm,2021.1.4,59.96008671990067,
F,left,Distractor,0,33,33,33,1657.1430472409702,1659.1432531958853,left,1,3,0.4149555352050811,B08A08,2022-11-28_10h37.27.119,t1_Paradigm,2021.1.4,59.96008671990067,
B,right,Target,0,34,34,34,1660.6428286143637,1662.6429229301866,right,1,3,0.40311954336357303,B08A08,2022-11-28_10h37.27.119,t1_Paradigm,2021.1.4,59.96008671990067,
Q,left,Pretarget,0,35,35,35,1664.142921165767,1666.1434020480665,left,1,3,0.39070097493822686,B08A08,2022-11-28_10h37.27.119,t1_Paradigm,2021.1.4,59.96008671990067,
S,left,Pretarget,0,36,36,36,1667.642733656976,1669.643224804924,left,1,3,0.6507257985940669,B08A08,2022-11-28_10h37.27.119,t1_Paradigm,2021.1.4,59.96008671990067,
W,left,Distractor,0,37,37,37,1671.1429991206678,1673.14353870973,left,1,3,0.5426357161195483,B08A08,2022-11-28_10h37.27.119,t1_Paradigm,2021.1.4,59.96008671990067,
Q,right,Target,0,38,38,38,1674.6429177973478,1676.643713065656,left,0,3,0.48281062379828654,B08A08,2022-11-28_10h37.27.119,t1_Paradigm,2021.1.4,59.96008671990067,
S,right,Target,0,39,39,39,1678.1433921032003,1680.1430350505107,right,1,3,0.966929799207719,B08A08,2022-11-28_10h37.27.119,t1_Paradigm,2021.1.4,59.96008671990067,
T,left,Distractor,0,40,40,40,1681.6430400229292,1683.6431619277282,left,1,3,0.45899299590382725,B08A08,2022-11-28_10h37.27.119,t1_Paradigm,2021.1.4,59.96008671990067,
G,left,Distractor,0,41,41,41,1685.1429076920904,1687.142801185808,left,1,3,0.6233238493732642,B08A08,2022-11-28_10h37.27.119,t1_Paradigm,2021.1.4,59.96008671990067,
D,left,Distractor,0,42,42,42,1688.642851712124,1690.6429412158905,left,1,3,0.4511160222173203,B08A08,2022-11-28_10h37.27.119,t1_Paradigm,2021.1.4,59.96008671990067,
S,left,Lure,0,43,43,43,1692.1428249251621,1694.1428063186468,left,1,3,1.3352371866058093,B08A08,2022-11-28_10h37.27.119,t1_Paradigm,2021.1.4,59.96008671990067,
Z,left,Pretarget,0,44,44,44,1695.6430919928534,1697.6435189803888,left,1,3,0.762832002073992,B08A08,2022-11-28_10h37.27.119,t1_Paradigm,2021.1.4,59.96008671990067,
J,left,Distractor,0,45,45,45,1699.1428233211336,1701.143131611927,left,1,3,0.5750405734579545,B08A08,2022-11-28_10h37.27.119,t1_Paradigm,2021.1.4,59.96008671990067,
M,left,Pretarget,0,46,46,46,1702.6429007948318,1704.643694138329,left,1,3,0.6584612985898275,B08A08,2022-11-28_10h37.27.119,t1_Paradigm,2021.1.4,59.96008671990067,
Z,right,Target,0,47,47,47,1706.1430000830733,1708.1438598325767,left,0,3,0.42227559656021185,B08A08,2022-11-28_10h37.27.119,t1_Paradigm,2021.1.4,59.96008671990067,
P,left,Distractor,0,48,48,48,1709.6430544590112,1711.6432353913842,left,1,3,0.5069073494814802,B08A08,2022-11-28_10h37.27.119,t1_Paradigm,2021.1.4,59.96008671990067,
M,right,Target,0,49,49,49,1713.1427543486934,1715.143684995477,left,0,3,0.5264528563711792,B08A08,2022-11-28_10h37.27.119,t1_Paradigm,2021.1.4,59.96008671990067,
K,left,Distractor,0,50,50,50,1716.6427403938142,1718.6429970354657,left,1,3,0.7231741310388315,B08A08,2022-11-28_10h37.27.119,t1_Paradigm,2021.1.4,59.96008671990067,
Y,left,Distractor,0,51,51,51,1720.1427845041035,1722.1427145692578,left,1,3,0.4713307222118601,B08A08,2022-11-28_10h37.27.119,t1_Paradigm,2021.1.4,59.96008671990067,
X,left,Distractor,0,52,52,52,1723.6426916318887,1725.643435251055,left,1,3,0.5868759237055201,B08A08,2022-11-28_10h37.27.119,t1_Paradigm,2021.1.4,59.96008671990067,
F,left,Pretarget,0,53,53,53,1727.1427800128586,1729.143204433989,left,1,3,0.5428394254122395,B08A08,2022-11-28_10h37.27.119,t1_Paradigm,2021.1.4,59.96008671990067,
M,left,Lure,0,54,54,54,1730.6432312209508,1732.643425947812,left,1,3,0.5148253858496901,B08A08,2022-11-28_10h37.27.119,t1_Paradigm,2021.1.4,59.96008671990067,
V,left,Distractor,0,55,55,55,1734.1429285442282,1736.142843852489,left,1,3,1.3352211464953143,B08A08,2022-11-28_10h37.27.119,t1_Paradigm,2021.1.4,59.96008671990067,
F,right,Target,0,56,56,56,1737.6429062484822,1739.6438401032647,right,1,3,0.4743231638276484,B08A08,2022-11-28_10h37.27.119,t1_Paradigm,2021.1.4,59.96008671990067,
S,left,Distractor,0,57,57,57,1741.1428114514565,1743.143235230993,left,1,3,0.526928926614346,B08A08,2022-11-28_10h37.27.119,t1_Paradigm,2021.1.4,59.96008671990067,
D,left,Distractor,0,58,58,58,1744.6429909402214,1746.6432488650607,left,1,3,0.4507188692805357,B08A08,2022-11-28_10h37.27.119,t1_Paradigm,2021.1.4,59.96008671990067,
F,right,Target,0,59,59,59,1748.1429086544958,1750.1438415468729,right,1,3,0.42211679951287806,B08A08,2022-11-28_10h37.27.119,t1_Paradigm,2021.1.4,59.96008671990067,
V,left,Pretarget,0,60,60,60,1751.6432328249793,1753.642850428907,left,1,3,0.41139719882630743,B08A08,2022-11-28_10h37.27.119,t1_Paradigm,2021.1.4,59.96008671990067,
J,left,Distractor,0,61,61,61,1755.1429089752783,1757.1428611757874,left,1,3,0.43136873084586114,B08A08,2022-11-28_10h37.27.119,t1_Paradigm,2021.1.4,59.96008671990067,
V,left,Lure,0,62,62,62,1758.6432177472743,1760.642775682034,left,1,3,0.41929534543305635,B08A08,2022-11-28_10h37.27.119,t1_Paradigm,2021.1.4,59.96008671990067,
V,right,Target,0,63,63,63,1762.142920524173,1764.1433468700852,left,0,3,0.4227776517509483,B08A08,2022-11-28_10h37.27.119,t1_Paradigm,2021.1.4,59.96008671990067,
R,left,Distractor,0,0,0,0,1832.0754074105935,1834.0770277817792,None,0,4,,B08A08,2022-11-28_10h37.27.119,t1_Paradigm,2021.1.4,59.96008671990067,
F,left,Distractor,0,1,1,1,1835.5759956011607,1837.5760825385223,None,0,4,,B08A08,2022-11-28_10h37.27.119,t1_Paradigm,2021.1.4,59.96008671990067,
P,left,Pretarget,0,2,2,2,1839.0763422277814,1841.076142688893,None,0,4,,B08A08,2022-11-28_10h37.27.119,t1_Paradigm,2021.1.4,59.96008671990067,
H,left,Distractor,0,3,3,3,1842.576011641242,1844.5761309796071,None,0,4,,B08A08,2022-11-28_10h37.27.119,t1_Paradigm,2021.1.4,59.96008671990067,
Z,left,Distractor,0,4,4,4,1846.0763024483167,1848.076712433336,left,1,4,0.4415195495239459,B08A08,2022-11-28_10h37.27.119,t1_Paradigm,2021.1.4,59.96008671990067,
T,left,Distractor,0,5,5,5,1849.5760382678127,1851.5765303781664,left,1,4,0.39784716157009825,B08A08,2022-11-28_10h37.27.119,t1_Paradigm,2021.1.4,59.96008671990067,
P,right,Target,0,6,6,6,1853.0762857666123,1855.0766694458725,right,1,4,0.8180275998893194,B08A08,2022-11-28_10h37.27.119,t1_Paradigm,2021.1.4,59.96008671990067,
G,left,Distractor,0,7,7,7,1856.5762362027017,1858.5771954008378,left,1,4,0.40495260630268604,B08A08,2022-11-28_10h37.27.119,t1_Paradigm,2021.1.4,59.96008671990067,
L,left,Distractor,0,8,8,8,1860.0761365936487,1862.076414729032,left,1,4,0.42573255952447653,B08A08,2022-11-28_10h37.27.119,t1_Paradigm,2021.1.4,59.96008671990067,
P,left,Lure,0,9,9,9,1863.5762477515673,1865.5766830799694,left,1,4,0.4935780240339227,B08A08,2022-11-28_10h37.27.119,t1_Paradigm,2021.1.4,59.96008671990067,
Q,left,Pretarget,0,10,10,10,1867.0760442026658,1869.0760599219648,left,1,4,0.7699226899130736,B08A08,2022-11-28_10h37.27.119,t1_Paradigm,2021.1.4,59.96008671990067,
D,left,Distractor,0,11,11,11,1870.576168834261,1872.5760972954158,left,1,4,0.9500411749468185,B08A08,2022-11-28_10h37.27.119,t1_Paradigm,2021.1.4,59.96008671990067,
M,left,Pretarget,0,12,12,12,1874.0761398016766,1876.0761083630787,left,1,4,0.36188910066266544,B08A08,2022-11-28_10h37.27.119,t1_Paradigm,2021.1.4,59.96008671990067,
C,left,Distractor,0,13,13,13,1877.5765095260576,1879.5762952302757,left,1,4,0.4299337832489982,B08A08,2022-11-28_10h37.27.119,t1_Paradigm,2021.1.4,59.96008671990067,
Q,right,Target,0,14,14,14,1881.0760336162057,1883.0763582678628,right,1,4,0.43366567356861196,B08A08,2022-11-28_10h37.27.119,t1_Paradigm,2021.1.4,59.96008671990067,
R,left,Distractor,0,15,15,15,1884.5764533857,1886.5771578669955,left,1,4,0.6131037374434527,B08A08,2022-11-28_10h37.27.119,t1_Paradigm,2021.1.4,59.96008671990067,
M,right,Target,0,16,16,16,1888.0768731551652,1890.0781059974688,left,0,4,0.9040173079119995,B08A08,2022-11-28_10h37.27.119,t1_Paradigm,2021.1.4,59.96008671990067,
S,left,Distractor,0,17,17,17,1891.576180062344,1893.5768232704431,left,1,4,0.5573717585939448,B08A08,2022-11-28_10h37.27.119,t1_Paradigm,2021.1.4,59.96008671990067,
Z,left,Distractor,0,18,18,18,1895.076278388151,1897.0759999319853,left,1,4,0.49826109246350825,B08A08,2022-11-28_10h37.27.119,t1_Paradigm,2021.1.4,59.96008671990067,
L,left,Pretarget,0,19,19,19,1898.576764242869,1900.5766811551584,left,1,4,0.3412669820827432,B08A08,2022-11-28_10h37.27.119,t1_Paradigm,2021.1.4,59.96008671990067,
M,right,Target,0,20,20,20,1902.0761869595735,1904.076023992122,right,1,4,0.394128424115479,B08A08,2022-11-28_10h37.27.119,t1_Paradigm,2021.1.4,59.96008671990067,
P,left,Distractor,0,21,21,21,1905.5760029795929,1907.5777715613367,left,1,4,0.38045455724932253,B08A08,2022-11-28_10h37.27.119,t1_Paradigm,2021.1.4,59.96008671990067,
F,left,Distractor,0,22,22,22,1909.0761526337592,1911.0763040523161,left,1,4,0.43371956833289005,B08A08,2022-11-28_10h37.27.119,t1_Paradigm,2021.1.4,59.96008671990067,
L,right,Target,0,23,23,23,1912.5762637916778,1914.5765749696584,right,1,4,0.5015117796720006,B08A08,2022-11-28_10h37.27.119,t1_Paradigm,2021.1.4,59.96008671990067,
L,left,Lure,0,24,24,24,1916.0760737164528,1918.076267160097,left,1,4,1.0018346669676248,B08A08,2022-11-28_10h37.27.119,t1_Paradigm,2021.1.4,59.96008671990067,
V,left,Pretarget,0,25,25,25,1919.576587801741,1921.576013566053,left,1,4,0.478256197005976,B08A08,2022-11-28_10h37.27.119,t1_Paradigm,2021.1.4,59.96008671990067,
Z,left,Distractor,0,26,26,26,1923.0761491049489,1925.0765436914517,left,1,4,0.44967112978338264,B08A08,2022-11-28_10h37.27.119,t1_Paradigm,2021.1.4,59.96008671990067,
H,left,Distractor,0,27,27,27,1926.5759449144243,1928.578395200544,left,1,4,0.6118599878682289,B08A08,2022-11-28_10h37.27.119,t1_Paradigm,2021.1.4,59.96008671990067,
X,left,Distractor,0,28,28,28,1930.0761385184596,1932.0761667490588,left,1,4,0.5219350010156631,B08A08,2022-11-28_10h37.27.119,t1_Paradigm,2021.1.4,59.96008671990067,
V,right,Target,0,29,29,29,1933.5762426187284,1935.5775421878789,right,1,4,0.396868394484045,B08A08,2022-11-28_10h37.27.119,t1_Paradigm,2021.1.4,59.96008671990067,
C,left,Distractor,0,30,30,30,1937.0760178969067,1939.07616161622,left,1,4,0.4018433927849401,B08A08,2022-11-28_10h37.27.119,t1_Paradigm,2021.1.4,59.96008671990067,
S,left,Pretarget,0,31,31,31,1940.5761566437723,1942.5761457365006,left,1,4,0.4059403558494523,B08A08,2022-11-28_10h37.27.119,t1_Paradigm,2021.1.4,59.96008671990067,
D,left,Distractor,0,32,32,32,1944.0762729345297,1946.0760525435035,left,1,4,0.36195807307376526,B08A08,2022-11-28_10h37.27.119,t1_Paradigm,2021.1.4,59.96008671990067,
V,left,Distractor,0,33,33,33,1947.5761611350172,1949.5761707590718,left,1,4,0.621916490723379,B08A08,2022-11-28_10h37.27.119,t1_Paradigm,2021.1.4,59.96008671990067,
R,left,Distractor,0,34,34,34,1951.0764567541191,1953.0765815461054,left,1,4,0.4816846086177975,B08A08,2022-11-28_10h37.27.119,t1_Paradigm,2021.1.4,59.96008671990067,
S,right,Target,0,35,35,35,1954.575971540995,1956.5764267591294,right,1,4,0.4056862806028221,B08A08,2022-11-28_10h37.27.119,t1_Paradigm,2021.1.4,59.96008671990067,
Y,left,Distractor,0,36,36,36,1958.0762094157108,1960.0766694458725,left,1,4,0.40952788523281924,B08A08,2022-11-28_10h37.27.119,t1_Paradigm,2021.1.4,59.96008671990067,
N,left,Pretarget,0,37,37,37,1961.5761303380132,1963.576123601175,left,1,4,0.5421099215454888,B08A08,2022-11-28_10h37.27.119,t1_Paradigm,2021.1.4,59.96008671990067,
Z,left,Pretarget,0,38,38,38,1965.076446809253,1967.0767881426436,left,1,4,0.4012117335223593,B08A08,2022-11-28_10h37.27.119,t1_Paradigm,2021.1.4,59.96008671990067,
P,left,Pretarget,0,39,39,39,1968.5764867491089,1970.5761954608315,left,1,4,0.5018325817363802,B08A08,2022-11-28_10h37.27.119,t1_Paradigm,2021.1.4,59.96008671990067,
M,left,Distractor,0,40,40,40,1972.0762944282615,1974.0760336162057,left,1,4,0.39422145672142506,B08A08,2022-11-28_10h37.27.119,t1_Paradigm,2021.1.4,59.96008671990067,
N,right,Target,0,41,41,41,1975.5764713505923,1977.5765496263048,left,0,4,0.35034856747370213,B08A08,2022-11-28_10h37.27.119,t1_Paradigm,2021.1.4,59.96008671990067,
Z,right,Target,0,42,42,42,1979.076233155065,1981.0768096363754,left,0,4,0.3053397181502078,B08A08,2022-11-28_10h37.27.119,t1_Paradigm,2021.1.4,59.96008671990067,
P,right,Target,0,43,43,43,1982.576572082442,1984.5761345084466,right,1,4,0.45394934600335546,B08A08,2022-11-28_10h37.27.119,t1_Paradigm,2021.1.4,59.96008671990067,
X,left,Pretarget,0,44,44,44,1986.0759585485212,1988.076008914446,left,1,4,0.8740989873185754,B08A08,2022-11-28_10h37.27.119,t1_Paradigm,2021.1.4,59.96008671990067,
Z,left,Lure,0,45,45,45,1989.57632955609,1991.5771703782957,left,1,4,0.5888780493405648,B08A08,2022-11-28_10h37.27.119,t1_Paradigm,2021.1.4,59.96008671990067,
R,left,Pretarget,0,46,46,46,1993.076096814213,1995.076066017209,left,1,4,0.6901443513052072,B08A08,2022-11-28_10h37.27.119,t1_Paradigm,2021.1.4,59.96008671990067,
K,left,Distractor,0,47,47,47,1996.5765820273082,1998.579084924946,left,1,4,0.45098641820368357,B08A08,2022-11-28_10h37.27.119,t1_Paradigm,2021.1.4,59.96008671990067,
X,right,Target,0,48,48,48,2000.0759970447689,2002.0761619370314,left,0,4,0.44209378521190956,B08A08,2022-11-28_10h37.27.119,t1_Paradigm,2021.1.4,59.96008671990067,
B,left,Distractor,0,49,49,49,2003.5760520623007,2005.5766792303475,left,1,4,0.5894558138388675,B08A08,2022-11-28_10h37.27.119,t1_Paradigm,2021.1.4,59.96008671990067,
R,right,Target,0,50,50,50,2007.0765639019955,2009.076247591176,right,1,4,0.5300782404374331,B08A08,2022-11-28_10h37.27.119,t1_Paradigm,2021.1.4,59.96008671990067,
Y,left,Pretarget,0,51,51,51,2010.5762888142199,2012.5762949094642,left,1,4,0.5018149376264773,B08A08,2022-11-28_10h37.27.119,t1_Paradigm,2021.1.4,59.96008671990067,
W,left,Pretarget,0,52,52,52,2014.07614397211,2016.0761731650855,left,1,4,0.5379645173670724,B08A08,2022-11-28_10h37.27.119,t1_Paradigm,2021.1.4,59.96008671990067,
Z,left,Distractor,0,53,53,53,2017.5760568743572,2019.5760296061635,left,1,4,0.41422506896196865,B08A08,2022-11-28_10h37.27.119,t1_Paradigm,2021.1.4,59.96008671990067,
Q,left,Distractor,0,54,54,54,2021.0762527239858,2023.0764708693896,left,1,4,0.9938749263237696,B08A08,2022-11-28_10h37.27.119,t1_Paradigm,2021.1.4,59.96008671990067,
Y,right,Target,0,55,55,55,2024.5763221776579,2026.5768739571795,left,0,4,0.9171230343345087,B08A08,2022-11-28_10h37.27.119,t1_Paradigm,2021.1.4,59.96008671990067,
W,right,Target,0,56,56,56,2028.0762520823919,2030.0760313705832,left,0,4,0.49015923650586046,B08A08,2022-11-28_10h37.27.119,t1_Paradigm,2021.1.4,59.96008671990067,
H,left,Pretarget,0,57,57,57,2031.5763796012034,2033.5760074708378,left,1,4,0.4303094424540177,B08A08,2022-11-28_10h37.27.119,t1_Paradigm,2021.1.4,59.96008671990067,
M,left,Distractor,0,58,58,58,2035.0762703681248,2037.0767538168002,left,1,4,0.4975100948358886,B08A08,2022-11-28_10h37.27.119,t1_Paradigm,2021.1.4,59.96008671990067,
R,left,Pretarget,0,59,59,59,2038.5761781375331,2040.5764482528612,left,1,4,0.42172253382159397,B08A08,2022-11-28_10h37.27.119,t1_Paradigm,2021.1.4,59.96008671990067,
J,left,Distractor,0,60,60,60,2042.0760429194488,2044.0761507089483,left,1,4,0.426051115966402,B08A08,2022-11-28_10h37.27.119,t1_Paradigm,2021.1.4,59.96008671990067,
H,right,Target,0,61,61,61,2045.5758746587671,2047.5768197416328,left,0,4,0.7012335159815848,B08A08,2022-11-28_10h37.27.119,t1_Paradigm,2021.1.4,59.96008671990067,
Z,left,Distractor,0,62,62,62,2049.07685454865,2051.076671691495,left,1,4,0.5613423256436363,B08A08,2022-11-28_10h37.27.119,t1_Paradigm,2021.1.4,59.96008671990067,
R,right,Target,0,63,63,63,2052.576327631279,2054.576406227774,left,0,4,0.9818153354281094,B08A08,2022-11-28_10h37.27.119,t1_Paradigm,2021.1.4,59.96008671990067,
J,left,Pretarget,0,0,0,0,2062.8243159617705,2064.826434538554,None,0,4,,B08A08,2022-11-28_10h37.27.119,t1_Paradigm,2021.1.4,59.96008671990067,
G,left,Pretarget,0,1,1,1,2066.3262242528144,2068.326264032279,None,0,4,,B08A08,2022-11-28_10h37.27.119,t1_Paradigm,2021.1.4,59.96008671990067,
Z,left,Distractor,0,2,2,2,2069.826522117539,2071.827285305626,None,0,4,,B08A08,2022-11-28_10h37.27.119,t1_Paradigm,2021.1.4,59.96008671990067,
F,left,Distractor,0,3,3,3,2073.326278468361,2075.3261732452956,None,0,4,,B08A08,2022-11-28_10h37.27.119,t1_Paradigm,2021.1.4,59.96008671990067,
J,right,Target,0,4,4,4,2076.8261182277347,2078.826256172615,right,1,4,0.4438751990383025,B08A08,2022-11-28_10h37.27.119,t1_Paradigm,2021.1.4,59.96008671990067,
G,right,Target,0,5,5,5,2080.325958628702,2082.326509766659,right,1,4,0.38355767555185594,B08A08,2022-11-28_10h37.27.119,t1_Paradigm,2021.1.4,59.96008671990067,
H,left,Distractor,0,6,6,6,2083.826324824273,2085.8265468192985,left,1,4,0.6438179679389577,B08A08,2022-11-28_10h37.27.119,t1_Paradigm,2021.1.4,59.96008671990067,
P,left,Distractor,0,7,7,7,2087.326277185144,2089.3264680623834,left,1,4,0.7757481344451662,B08A08,2022-11-28_10h37.27.119,t1_Paradigm,2021.1.4,59.96008671990067,
G,left,Lure,0,8,8,8,2090.8264107992,2092.826508643833,left,1,4,0.5236872218374629,B08A08,2022-11-28_10h37.27.119,t1_Paradigm,2021.1.4,59.96008671990067,
S,left,Distractor,0,9,9,9,2094.3263775962114,2096.326700002275,left,1,4,0.46358688137843274,B08A08,2022-11-28_10h37.27.119,t1_Paradigm,2021.1.4,59.96008671990067,
R,left,Pretarget,0,10,10,10,2097.826229225262,2099.8266424183093,left,1,4,0.5476309249352198,B08A08,2022-11-28_10h37.27.119,t1_Paradigm,2021.1.4,59.96008671990067,
T,left,Pretarget,0,11,11,11,2101.3259307189437,2103.326141485886,left,1,4,0.760102618165547,B08A08,2022-11-28_10h37.27.119,t1_Paradigm,2021.1.4,59.96008671990067,
X,left,Distractor,0,12,12,12,2104.826531420782,2106.8265788994904,left,1,4,0.4916006001585629,B08A08,2022-11-28_10h37.27.119,t1_Paradigm,2021.1.4,59.96008671990067,
F,left,Pretarget,0,13,13,13,2108.3262775059557,2110.326742668927,left,1,4,0.3512949335563462,B08A08,2022-11-28_10h37.27.119,t1_Paradigm,2021.1.4,59.96008671990067,
R,right,Target,0,14,14,14,2111.8260733154602,2113.826131701411,right,1,4,0.5001907168480102,B08A08,2022-11-28_10h37.27.119,t1_Paradigm,2021.1.4,59.96008671990067,
T,right,Target,0,15,15,15,2115.3265979872085,2117.326558207744,right,1,4,0.6956884524261113,B08A08,2022-11-28_10h37.27.119,t1_Paradigm,2021.1.4,59.96008671990067,
C,left,Distractor,0,16,16,16,2118.8259732252045,2120.826764643891,left,1,4,0.4594703493930865,B08A08,2022-11-28_10h37.27.119,t1_Paradigm,2021.1.4,59.96008671990067,
F,right,Target,0,17,17,17,2122.326210137515,2124.327712774364,right,1,4,0.5902799543400761,B08A08,2022-11-28_10h37.27.119,t1_Paradigm,2021.1.4,59.96008671990067,
M,left,Distractor,0,18,18,18,2125.8260316111846,2127.82728594722,left,1,4,0.41887926519848406,B08A08,2022-11-28_10h37.27.119,t1_Paradigm,2021.1.4,59.96008671990067,
N,left,Distractor,0,19,19,19,2129.326279751578,2131.3267356113065,left,1,4,0.4075302508135792,B08A08,2022-11-28_10h37.27.119,t1_Paradigm,2021.1.4,59.96008671990067,
R,left,Lure,0,20,20,20,2132.8260454056726,2134.826234999695,left,1,4,0.5239942294138018,B08A08,2022-11-28_10h37.27.119,t1_Paradigm,2021.1.4,59.96008671990067,
F,right,Target,0,21,21,21,2136.326288092416,2138.3260898367444,right,1,4,0.4482143676141277,B08A08,2022-11-28_10h37.27.119,t1_Paradigm,2021.1.4,59.96008671990067,
P,left,Distractor,0,22,22,22,2139.8263155210007,2141.82643389696,left,1,4,0.5639382558874786,B08A08,2022-11-28_10h37.27.119,t1_Paradigm,2021.1.4,59.96008671990067,
L,left,Pretarget,0,23,23,23,2143.3264250748907,2145.326163621241,left,1,4,0.4560281433223281,B08A08,2022-11-28_10h37.27.119,t1_Paradigm,2021.1.4,59.96008671990067,
T,left,Distractor,0,24,24,24,2146.8259809244482,2148.826274458348,left,1,4,0.5878954326617531,B08A08,2022-11-28_10h37.27.119,t1_Paradigm,2021.1.4,59.96008671990067,
F,left,Distractor,0,25,25,25,2150.3262925836607,2152.32620757111,right,0,4,0.46410786392516457,B08A08,2022-11-28_10h37.27.119,t1_Paradigm,2021.1.4,59.96008671990067,
V,left,Distractor,0,26,26,26,2153.8261599320103,2155.826157686388,left,1,4,0.4841666541178711,B08A08,2022-11-28_10h37.27.119,t1_Paradigm,2021.1.4,59.96008671990067,
L,right,Target,0,27,27,27,2157.3262569746294,2159.3260741174454,right,1,4,0.40814619077718817,B08A08,2022-11-28_10h37.27.119,t1_Paradigm,2021.1.4,59.96008671990067,
S,left,Pretarget,0,28,28,28,2160.8261804633366,2162.826530779188,left,1,4,0.3798280308546964,B08A08,2022-11-28_10h37.27.119,t1_Paradigm,2021.1.4,59.96008671990067,
W,left,Distractor,0,29,29,29,2164.3262839220115,2166.326780523581,left,1,4,0.5117232299526222,B08A08,2022-11-28_10h37.27.119,t1_Paradigm,2021.1.4,59.96008671990067,
Q,left,Distractor,0,30,30,30,2167.8263357315445,2169.8263023681066,left,1,4,0.5163899374601897,B08A08,2022-11-28_10h37.27.119,t1_Paradigm,2021.1.4,59.96008671990067,
L,right,Target,0,31,31,31,2171.326391711482,2173.3262255360314,right,1,4,0.3759989374957513,B08A08,2022-11-28_10h37.27.119,t1_Paradigm,2021.1.4,59.96008671990067,
S,right,Target,0,32,32,32,2174.826440313016,2176.82610860368,right,1,4,0.4601478833355941,B08A08,2022-11-28_10h37.27.119,t1_Paradigm,2021.1.4,59.96008671990067,
Z,left,Pretarget,0,33,33,33,2178.326191210217,2180.3263022077153,left,1,4,0.5757274106435943,B08A08,2022-11-28_10h37.27.119,t1_Paradigm,2021.1.4,59.96008671990067,
F,left,Distractor,0,34,34,34,2181.8265994308167,2183.8260479720775,left,1,4,0.4360476288420614,B08A08,2022-11-28_10h37.27.119,t1_Paradigm,2021.1.4,59.96008671990067,
V,left,Distractor,0,35,35,35,2185.32634711999,2187.3266740172985,left,1,4,0.47148438642034307,B08A08,2022-11-28_10h37.27.119,t1_Paradigm,2021.1.4,59.96008671990067,
M,left,Distractor,0,36,36,36,2188.8265737666516,2190.8263280322717,left,1,4,0.4440654346253723,B08A08,2022-11-28_10h37.27.119,t1_Paradigm,2021.1.4,59.96008671990067,
Z,right,Target,0,37,37,37,2192.326098177611,2194.326030488388,right,1,4,0.41655312947114,B08A08,2022-11-28_10h37.27.119,t1_Paradigm,2021.1.4,59.96008671990067,
H,left,Pretarget,0,38,38,38,2195.82624815256,2197.8260014557745,left,1,4,0.4680168369959574,B08A08,2022-11-28_10h37.27.119,t1_Paradigm,2021.1.4,59.96008671990067,
L,left,Distractor,0,39,39,39,2199.326222648815,2201.3268247942615,left,1,4,0.5191931058361661,B08A08,2022-11-28_10h37.27.119,t1_Paradigm,2021.1.4,59.96008671990067,
G,left,Distractor,0,40,40,40,2202.8265670298133,2204.826533345593,left,1,4,0.6676311045885086,B08A08,2022-11-28_10h37.27.119,t1_Paradigm,2021.1.4,59.96008671990067,
K,left,Distractor,0,41,41,41,2206.3263211350422,2208.326848854427,left,1,4,0.5431143527675886,B08A08,2022-11-28_10h37.27.119,t1_Paradigm,2021.1.4,59.96008671990067,
H,right,Target,0,42,42,42,2209.8262263380166,2211.826228583639,left,0,4,0.8358414172835182,B08A08,2022-11-28_10h37.27.119,t1_Paradigm,2021.1.4,59.96008671990067,
B,left,Distractor,0,43,43,43,2213.3261575259967,2215.3437586516084,left,1,4,0.42244209282216616,B08A08,2022-11-28_10h37.27.119,t1_Paradigm,2021.1.4,59.96008671990067,
Z,left,Distractor,0,44,44,44,2216.826338618761,2218.826508643833,left,1,4,0.41154637178988196,B08A08,2022-11-28_10h37.27.119,t1_Paradigm,2021.1.4,59.96008671990067,
T,left,Pretarget,0,45,45,45,2220.3261719620787,2222.325993275328,left,1,4,0.5280494882026687,B08A08,2022-11-28_10h37.27.119,t1_Paradigm,2021.1.4,59.96008671990067,
H,right,Target,0,46,46,46,2223.8265080022393,2225.8267033706943,right,1,4,0.7075016673479695,B08A08,2022-11-28_10h37.27.119,t1_Paradigm,2021.1.4,59.96008671990067,
F,left,Distractor,0,47,47,47,2227.326475761627,2229.326168112457,left,1,4,0.6960791893361602,B08A08,2022-11-28_10h37.27.119,t1_Paradigm,2021.1.4,59.96008671990067,
R,left,Distractor,0,48,48,48,2230.8260248743463,2232.8278460676083,left,1,4,0.5224312817736063,B08A08,2022-11-28_10h37.27.119,t1_Paradigm,2021.1.4,59.96008671990067,
T,right,Target,0,49,49,49,2234.326181906945,2236.3260336963867,left,0,4,0.4962416435300838,B08A08,2022-11-28_10h37.27.119,t1_Paradigm,2021.1.4,59.96008671990067,
H,right,Target,0,50,50,50,2237.826155761577,2239.826707220316,right,1,4,0.4194275158806704,B08A08,2022-11-28_10h37.27.119,t1_Paradigm,2021.1.4,59.96008671990067,
Y,left,Pretarget,0,51,51,51,2241.326090157556,2243.326577455882,left,1,4,0.4395559201366268,B08A08,2022-11-28_10h37.27.119,t1_Paradigm,2021.1.4,59.96008671990067,
H,left,Distractor,0,52,52,52,2244.826013004669,2246.826406307984,left,1,4,0.49182067037327215,B08A08,2022-11-28_10h37.27.119,t1_Paradigm,2021.1.4,59.96008671990067,
S,left,Distractor,0,53,53,53,2248.3261633004295,2250.326023430738,left,1,4,0.46428719226969406,B08A08,2022-11-28_10h37.27.119,t1_Paradigm,2021.1.4,59.96008671990067,
Q,left,Distractor,0,54,54,54,2251.8262674006983,2253.8262064483133,left,1,4,1.060026876773918,B08A08,2022-11-28_10h37.27.119,t1_Paradigm,2021.1.4,59.96008671990067,
Y,right,Target,0,55,55,55,2255.3261870397837,2257.326107160072,left,0,4,0.47202172985998914,B08A08,2022-11-28_10h37.27.119,t1_Paradigm,2021.1.4,59.96008671990067,
R,left,Distractor,0,56,56,56,2258.8268188594375,2260.826938518585,left,1,4,0.3794587876764126,B08A08,2022-11-28_10h37.27.119,t1_Paradigm,2021.1.4,59.96008671990067,
H,left,Pretarget,0,57,57,57,2262.326157205185,2264.325709365512,left,1,4,0.3843792496190872,B08A08,2022-11-28_10h37.27.119,t1_Paradigm,2021.1.4,59.96008671990067,
J,left,Distractor,0,58,58,58,2265.8259312001464,2267.8266289446037,left,1,4,0.3874644030001946,B08A08,2022-11-28_10h37.27.119,t1_Paradigm,2021.1.4,59.96008671990067,
V,left,Distractor,0,59,59,59,2269.326102668827,2271.326770578715,left,1,4,0.45543658433598466,B08A08,2022-11-28_10h37.27.119,t1_Paradigm,2021.1.4,59.96008671990067,
Y,left,Lure,0,60,60,60,2272.8264130448224,2274.826119831734,left,1,4,0.4601273519801907,B08A08,2022-11-28_10h37.27.119,t1_Paradigm,2021.1.4,59.96008671990067,
H,right,Target,0,61,61,61,2276.3257327840547,2278.3276421978953,left,0,4,0.5743104279681575,B08A08,2022-11-28_10h37.27.119,t1_Paradigm,2021.1.4,59.96008671990067,
L,left,Distractor,0,62,62,62,2279.8263867390633,2281.826507039834,left,1,4,0.4195879168983083,B08A08,2022-11-28_10h37.27.119,t1_Paradigm,2021.1.4,59.96008671990067,
P,left,Distractor,0,63,63,63,2283.3260163730884,2285.3258649545023,left,1,4,1.0326290979573969,B08A08,2022-11-28_10h37.27.119,t1_Paradigm,2021.1.4,59.96008671990067,
