Letter,CorrAnswer,Stimulus,finaln_nback_run.thisRepN,finaln_nback_run.thisTrialN,finaln_nback_run.thisN,finaln_nback_run.thisIndex,finaln_fixcross.started,finaln_nback_trial.started,finaln_trial_resp.keys,finaln_trial_resp.corr,finaln_level,finaln_money,finaln_trial_resp.rt,Participant,date,expName,psychopyVersion,frameRate,
T,left,Distractor,0,0,0,0,2556.450692884304,2558.442674757709,None,0,0,2.9699999999999998,,B08A08,2022-11-28_10h37.27.119,t1_Paradigm,2021.1.4,59.96008671990067,
F,left,Distractor,0,1,1,1,2559.94297550965,2561.945050457347,left,1,0,2.9699999999999998,0.38163286322378553,B08A08,2022-11-28_10h37.27.119,t1_Paradigm,2021.1.4,59.96008671990067,
G,left,Distractor,0,2,2,2,2563.4429214544944,2565.4428980359517,left,1,0,2.9699999999999998,0.3871692651300691,B08A08,2022-11-28_10h37.27.119,t1_Paradigm,2021.1.4,59.96008671990067,
V,left,Distractor,0,3,3,3,2566.942939579807,2568.942655028397,left,1,0,2.9699999999999998,0.4076258498535026,B08A08,2022-11-28_10h37.27.119,t1_Paradigm,2021.1.4,59.96008671990067,
H,left,Distractor,0,4,4,4,2570.4430048630165,2572.4428656349482,left,1,0,2.9699999999999998,0.3795393090113066,B08A08,2022-11-28_10h37.27.119,t1_Paradigm,2021.1.4,59.96008671990067,
C,left,Pretarget,0,5,5,5,2573.9428285823087,2575.9438997403777,left,1,0,2.9699999999999998,0.3985853270860389,B08A08,2022-11-28_10h37.27.119,t1_Paradigm,2021.1.4,59.96008671990067,
C,right,Target,0,6,6,6,2577.4429522514984,2579.4429256249277,right,1,0,2.9699999999999998,0.3871471297752578,B08A08,2022-11-28_10h37.27.119,t1_Paradigm,2021.1.4,59.96008671990067,
C,right,Target,0,7,7,7,2580.9428443016077,2582.9429575447284,right,1,0,2.9699999999999998,0.39132621814496815,B08A08,2022-11-28_10h37.27.119,t1_Paradigm,2021.1.4,59.96008671990067,
W,left,Distractor,0,8,8,8,2584.4431203517597,2586.4428178354283,left,1,0,2.9699999999999998,0.41126791559509,B08A08,2022-11-28_10h37.27.119,t1_Paradigm,2021.1.4,59.96008671990067,
R,left,Pretarget,0,9,9,9,2587.9427759707614,2589.9449198908987,left,1,0,2.9699999999999998,0.41355010142433457,B08A08,2022-11-28_10h37.27.119,t1_Paradigm,2021.1.4,59.96008671990067,
R,right,Target,0,10,10,10,2591.4428605021094,2593.442841253971,right,1,0,2.9699999999999998,0.5315269824932329,B08A08,2022-11-28_10h37.27.119,t1_Paradigm,2021.1.4,59.96008671990067,
Z,left,Distractor,0,11,11,11,2594.9427695547056,2596.942599208822,left,1,0,2.9699999999999998,0.4556435016565956,B08A08,2022-11-28_10h37.27.119,t1_Paradigm,2021.1.4,59.96008671990067,
R,left,Lure,0,12,12,12,2598.4425846123195,2600.4436172741407,left,1,0,2.9699999999999998,0.5064428281039,B08A08,2022-11-28_10h37.27.119,t1_Paradigm,2021.1.4,59.96008671990067,
H,left,Pretarget,0,13,13,13,2601.942997965787,2603.9427859156276,left,1,0,2.9699999999999998,0.5754877715080511,B08A08,2022-11-28_10h37.27.119,t1_Paradigm,2021.1.4,59.96008671990067,
H,right,Target,0,14,14,14,2605.443088913162,2607.44295064747,right,1,0,2.9699999999999998,0.40315707720583305,B08A08,2022-11-28_10h37.27.119,t1_Paradigm,2021.1.4,59.96008671990067,
K,left,Distractor,0,15,15,15,2608.9428074093594,2610.942887289071,left,1,0,2.9699999999999998,0.43937755416845903,B08A08,2022-11-28_10h37.27.119,t1_Paradigm,2021.1.4,59.96008671990067,
J,left,Distractor,0,16,16,16,2612.4429753492295,2614.4433202114596,left,1,0,2.9699999999999998,0.4587437327427324,B08A08,2022-11-28_10h37.27.119,t1_Paradigm,2021.1.4,59.96008671990067,
H,left,Lure,0,17,17,17,2615.943015609897,2617.943897494755,left,1,0,2.9699999999999998,0.5423485982755665,B08A08,2022-11-28_10h37.27.119,t1_Paradigm,2021.1.4,59.96008671990067,
S,left,Distractor,0,18,18,18,2619.4428592188924,2621.4426080308913,left,1,0,2.9699999999999998,0.4195407590304967,B08A08,2022-11-28_10h37.27.119,t1_Paradigm,2021.1.4,59.96008671990067,
T,left,Pretarget,0,19,19,19,2622.942824091064,2624.942670747696,left,1,0,2.9699999999999998,0.4076633836666588,B08A08,2022-11-28_10h37.27.119,t1_Paradigm,2021.1.4,59.96008671990067,
T,right,Target,0,20,20,20,2626.442859539704,2628.4430613241857,right,1,0,2.9699999999999998,0.5232826904393733,B08A08,2022-11-28_10h37.27.119,t1_Paradigm,2021.1.4,59.96008671990067,
X,left,Pretarget,0,21,21,21,2629.942986737704,2631.943303369335,left,1,0,2.9699999999999998,0.38300717921811156,B08A08,2022-11-28_10h37.27.119,t1_Paradigm,2021.1.4,59.96008671990067,
X,right,Target,0,22,22,22,2633.4428409331886,2635.442890336679,right,1,0,2.9699999999999998,0.41923760107601993,B08A08,2022-11-28_10h37.27.119,t1_Paradigm,2021.1.4,59.96008671990067,
W,left,Distractor,0,23,23,23,2636.9430210635182,2638.9447630186914,left,1,0,2.9699999999999998,0.48542868939694017,B08A08,2022-11-28_10h37.27.119,t1_Paradigm,2021.1.4,59.96008671990067,
K,left,Distractor,0,24,24,24,2640.443137675087,2642.4428364419437,left,1,0,2.9699999999999998,0.42732117130071856,B08A08,2022-11-28_10h37.27.119,t1_Paradigm,2021.1.4,59.96008671990067,
F,left,Pretarget,0,25,25,25,2643.9428876098827,2645.942693203833,left,1,0,2.9699999999999998,0.6075833756476641,B08A08,2022-11-28_10h37.27.119,t1_Paradigm,2021.1.4,59.96008671990067,
F,right,Target,0,26,26,26,2647.442870767758,2649.4430433592643,right,1,0,2.9699999999999998,0.5312921553850174,B08A08,2022-11-28_10h37.27.119,t1_Paradigm,2021.1.4,59.96008671990067,
Z,left,Distractor,0,27,27,27,2650.94281639182,2652.9426489331527,left,1,0,2.9699999999999998,0.3916219976672437,B08A08,2022-11-28_10h37.27.119,t1_Paradigm,2021.1.4,59.96008671990067,
F,left,Lure,0,28,28,28,2654.442769715126,2656.442674757709,left,1,0,2.9699999999999998,0.44336704854504205,B08A08,2022-11-28_10h37.27.119,t1_Paradigm,2021.1.4,59.96008671990067,
P,left,Distractor,0,29,29,29,2657.9428821562324,2659.9428436599846,left,1,0,2.9699999999999998,0.3998008460912388,B08A08,2022-11-28_10h37.27.119,t1_Paradigm,2021.1.4,59.96008671990067,
F,left,Lure,0,30,30,30,2661.4430289231823,2663.4429419858207,left,1,0,2.9699999999999998,0.41923856348148547,B08A08,2022-11-28_10h37.27.119,t1_Paradigm,2021.1.4,59.96008671990067,
R,left,Distractor,0,31,31,31,2664.94271918881,2666.94319654227,left,1,0,2.9699999999999998,0.4070862607914023,B08A08,2022-11-28_10h37.27.119,t1_Paradigm,2021.1.4,59.96008671990067,
V,left,Distractor,0,32,32,32,2668.4429647627694,2670.4427385973104,left,1,0,2.9699999999999998,0.37962752956082113,B08A08,2022-11-28_10h37.27.119,t1_Paradigm,2021.1.4,59.96008671990067,
M,left,Pretarget,0,33,33,33,2671.9428455847956,2673.942663048423,left,1,0,2.9699999999999998,0.6555923658015672,B08A08,2022-11-28_10h37.27.119,t1_Paradigm,2021.1.4,59.96008671990067,
M,right,Target,0,34,34,34,2675.442942306632,2677.4427883216413,right,1,0,2.9699999999999998,0.5156472806993406,B08A08,2022-11-28_10h37.27.119,t1_Paradigm,2021.1.4,59.96008671990067,
M,right,Target,0,35,35,35,2678.9428850434488,2680.9429399006185,right,1,0,2.9699999999999998,0.7913914051605389,B08A08,2022-11-28_10h37.27.119,t1_Paradigm,2021.1.4,59.96008671990067,
D,left,Distractor,0,36,36,36,2682.4599756126117,2684.442814948212,left,1,0,2.9699999999999998,0.4274703442642931,B08A08,2022-11-28_10h37.27.119,t1_Paradigm,2021.1.4,59.96008671990067,
M,left,Lure,0,37,37,37,2685.9431208329624,2687.9429261061305,left,1,0,2.9699999999999998,0.399636916234158,B08A08,2022-11-28_10h37.27.119,t1_Paradigm,2021.1.4,59.96008671990067,
F,left,Distractor,0,38,38,38,2689.4430966124055,2691.443354537274,left,1,0,2.9699999999999998,0.41884012732771225,B08A08,2022-11-28_10h37.27.119,t1_Paradigm,2021.1.4,59.96008671990067,
T,left,Pretarget,0,39,39,39,2692.942808371765,2694.9428141461976,left,1,0,2.9699999999999998,0.4554481332015712,B08A08,2022-11-28_10h37.27.119,t1_Paradigm,2021.1.4,59.96008671990067,
T,right,Target,0,40,40,40,2696.4426946474414,2698.442929795332,right,1,0,2.9699999999999998,0.5553648209024686,B08A08,2022-11-28_10h37.27.119,t1_Paradigm,2021.1.4,59.96008671990067,
Z,left,Distractor,0,41,41,41,2699.94301432668,2701.9427050735103,left,1,0,2.9699999999999998,0.399745988950599,B08A08,2022-11-28_10h37.27.119,t1_Paradigm,2021.1.4,59.96008671990067,
S,left,Distractor,0,42,42,42,2703.442994597368,2705.442406567192,left,1,0,2.9699999999999998,0.3718397388292942,B08A08,2022-11-28_10h37.27.119,t1_Paradigm,2021.1.4,59.96008671990067,
D,left,Distractor,0,43,43,43,2706.9431339858565,2708.9432225272176,left,1,0,2.9699999999999998,0.5190564441436436,B08A08,2022-11-28_10h37.27.119,t1_Paradigm,2021.1.4,59.96008671990067,
Y,left,Pretarget,0,44,44,44,2710.4431331838423,2712.442832592322,left,1,0,2.9699999999999998,0.37953866738826036,B08A08,2022-11-28_10h37.27.119,t1_Paradigm,2021.1.4,59.96008671990067,
Y,right,Target,0,45,45,45,2713.942906857992,2715.9430938856094,right,1,0,2.9699999999999998,0.4313068160263356,B08A08,2022-11-28_10h37.27.119,t1_Paradigm,2021.1.4,59.96008671990067,
Z,left,Pretarget,0,46,46,46,2717.4430991788395,2719.443397203955,left,1,0,2.9699999999999998,0.37079488654853776,B08A08,2022-11-28_10h37.27.119,t1_Paradigm,2021.1.4,59.96008671990067,
Z,right,Target,0,47,47,47,2720.943023629952,2722.9427426073526,right,1,0,2.9699999999999998,0.407578371145064,B08A08,2022-11-28_10h37.27.119,t1_Paradigm,2021.1.4,59.96008671990067,
H,left,Pretarget,0,48,48,48,2724.443243218964,2726.4434074696037,left,1,0,2.9699999999999998,0.5548428759502713,B08A08,2022-11-28_10h37.27.119,t1_Paradigm,2021.1.4,59.96008671990067,
H,right,Target,0,49,49,49,2727.9426980158605,2729.942989945732,right,1,0,2.9699999999999998,0.4153879764198791,B08A08,2022-11-28_10h37.27.119,t1_Paradigm,2021.1.4,59.96008671990067,
Z,left,Lure,0,50,50,50,2731.4430350184266,2733.442802436941,left,1,0,2.9699999999999998,0.4032597338373307,B08A08,2022-11-28_10h37.27.119,t1_Paradigm,2021.1.4,59.96008671990067,
R,left,Distractor,0,51,51,51,2734.9430643718224,2736.942668181262,left,1,0,2.9699999999999998,0.5195636322023347,B08A08,2022-11-28_10h37.27.119,t1_Paradigm,2021.1.4,59.96008671990067,
H,left,Lure,0,52,52,52,2738.4431909282284,2740.4426259958127,left,1,0,2.9699999999999998,0.42758968262933195,B08A08,2022-11-28_10h37.27.119,t1_Paradigm,2021.1.4,59.96008671990067,
L,left,Distractor,0,53,53,53,2741.9430861863366,2743.942695770238,left,1,0,2.9699999999999998,0.543411415477749,B08A08,2022-11-28_10h37.27.119,t1_Paradigm,2021.1.4,59.96008671990067,
N,left,Pretarget,0,54,54,54,2745.4429432690376,2747.442986898124,left,1,0,2.9699999999999998,0.40309644560329616,B08A08,2022-11-28_10h37.27.119,t1_Paradigm,2021.1.4,59.96008671990067,
N,right,Target,0,55,55,55,2748.9431227577734,2750.9427438905404,right,1,0,2.9699999999999998,0.3916502282372676,B08A08,2022-11-28_10h37.27.119,t1_Paradigm,2021.1.4,59.96008671990067,
W,left,Distractor,0,56,56,56,2752.4424790684425,2754.4428954695177,left,1,0,2.9699999999999998,0.37946841173106804,B08A08,2022-11-28_10h37.27.119,t1_Paradigm,2021.1.4,59.96008671990067,
R,left,Pretarget,0,57,57,57,2755.9430977352313,2757.942670747696,left,1,0,2.9699999999999998,0.43173925721202977,B08A08,2022-11-28_10h37.27.119,t1_Paradigm,2021.1.4,59.96008671990067,
R,right,Target,0,58,58,58,2759.442892903113,2761.4428191186453,right,1,0,2.9699999999999998,0.403240806539543,B08A08,2022-11-28_10h37.27.119,t1_Paradigm,2021.1.4,59.96008671990067,
Q,left,Distractor,0,59,59,59,2762.943085223931,2764.942719830404,left,1,0,2.9699999999999998,0.4395748474635184,B08A08,2022-11-28_10h37.27.119,t1_Paradigm,2021.1.4,59.96008671990067,
R,left,Lure,0,60,60,60,2766.443102066056,2768.443408432009,left,1,0,2.9699999999999998,0.3629849604621995,B08A08,2022-11-28_10h37.27.119,t1_Paradigm,2021.1.4,59.96008671990067,
Z,left,Distractor,0,61,61,61,2769.942921294103,2771.9426739556948,left,1,0,2.9699999999999998,0.38351276324829087,B08A08,2022-11-28_10h37.27.119,t1_Paradigm,2021.1.4,59.96008671990067,
K,left,Pretarget,0,62,62,62,2773.4429849733133,2775.443479650072,left,1,0,2.9699999999999998,0.46683083177777007,B08A08,2022-11-28_10h37.27.119,t1_Paradigm,2021.1.4,59.96008671990067,
K,right,Target,0,63,63,63,2776.942956582323,2778.9424949481618,right,1,0,2.9699999999999998,0.43981737378635444,B08A08,2022-11-28_10h37.27.119,t1_Paradigm,2021.1.4,59.96008671990067,
