Letter,CorrAnswer,Stimulus,nback_run.thisRepN,nback_run.thisTrialN,nback_run.thisN,nback_run.thisIndex,fixcross.started,nback_trial.started,trial_resp.keys,trial_resp.corr,currentlevel,trial_resp.rt,Participant,date,expName,psychopyVersion,frameRate,
H,left,Distractor,0,0,0,0,338.9433969709189,340.8798639669212,None,0,1,,B09N05,2022-11-10_16h30.12.686,t1_Paradigm,2021.1.4,60.01415072553496,
Q,left,Pretarget,0,1,1,1,342.3786344914615,344.38148097176145,None,0,1,,B09N05,2022-11-10_16h30.12.686,t1_Paradigm,2021.1.4,60.01415072553496,
Q,right,Target,0,2,2,2,345.8785188421725,347.8786298398263,right,1,1,0.8549568632961382,B09N05,2022-11-10_16h30.12.686,t1_Paradigm,2021.1.4,60.01415072553496,
T,left,Distractor,0,3,3,3,349.37848980954914,351.380346293432,left,1,1,1.1136879034693266,B09N05,2022-11-10_16h30.12.686,t1_Paradigm,2021.1.4,60.01415072553496,
Q,left,Lure,0,4,4,4,352.8785130677279,354.8803868749437,left,1,1,1.1492709924314113,B09N05,2022-11-10_16h30.12.686,t1_Paradigm,2021.1.4,60.01415072553496,
L,left,Distractor,0,5,5,5,356.3784009472647,358.38101324176296,left,1,1,0.784871148084676,B09N05,2022-11-10_16h30.12.686,t1_Paradigm,2021.1.4,60.01415072553496,
V,left,Pretarget,0,6,6,6,359.878506330876,361.8808770611149,left,1,1,1.1569458706790101,B09N05,2022-11-10_16h30.12.686,t1_Paradigm,2021.1.4,60.01415072553496,
V,right,Target,0,7,7,7,363.378562310907,365.3784747318332,left,0,1,1.083525413811003,B09N05,2022-11-10_16h30.12.686,t1_Paradigm,2021.1.4,60.01415072553496,
K,left,Distractor,0,8,8,8,366.878699133159,368.8798447187728,left,1,1,0.637868549905761,B09N05,2022-11-10_16h30.12.686,t1_Paradigm,2021.1.4,60.01415072553496,
G,left,Pretarget,0,9,9,9,370.37833967399365,372.38010665398815,left,1,1,1.0096160539815173,B09N05,2022-11-10_16h30.12.686,t1_Paradigm,2021.1.4,60.01415072553496,
G,right,Target,0,10,10,10,373.8785300702584,375.8783494584686,right,1,1,0.631556440543136,B09N05,2022-11-10_16h30.12.686,t1_Paradigm,2021.1.4,60.01415072553496,
G,right,Target,0,11,11,11,377.37760567794703,379.37870635121453,right,1,1,0.45914275806080695,B09N05,2022-11-10_16h30.12.686,t1_Paradigm,2021.1.4,60.01415072553496,
P,left,Pretarget,0,12,12,12,380.87853135346813,382.88044109056136,left,1,1,0.4932799902990155,B09N05,2022-11-10_16h30.12.686,t1_Paradigm,2021.1.4,60.01415072553496,
P,right,Target,0,13,13,13,384.3786498899799,386.3787393938692,right,1,1,0.7549813405239547,B09N05,2022-11-10_16h30.12.686,t1_Paradigm,2021.1.4,60.01415072553496,
G,left,Lure,0,14,14,14,387.87860225081386,389.8793186027251,left,1,1,0.6785588141601693,B09N05,2022-11-10_16h30.12.686,t1_Paradigm,2021.1.4,60.01415072553496,
Y,left,Distractor,0,15,15,15,391.37850905769665,393.381645543428,left,1,1,0.7283155977693241,B09N05,2022-11-10_16h30.12.686,t1_Paradigm,2021.1.4,60.01415072553496,
B,left,Distractor,0,16,16,16,394.878694641925,396.8806277975973,left,1,1,0.8771958527941024,B09N05,2022-11-10_16h30.12.686,t1_Paradigm,2021.1.4,60.01415072553496,
T,left,Pretarget,0,17,17,17,398.3787057096097,400.38036939120957,left,1,1,0.8653072341276129,B09N05,2022-11-10_16h30.12.686,t1_Paradigm,2021.1.4,60.01415072553496,
T,right,Target,0,18,18,18,401.8783478544565,403.87865935365335,right,1,1,0.6791580731705835,B09N05,2022-11-10_16h30.12.686,t1_Paradigm,2021.1.4,60.01415072553496,
S,left,Distractor,0,19,19,19,405.3785860502894,407.38008098979026,left,1,1,0.6016473848349051,B09N05,2022-11-10_16h30.12.686,t1_Paradigm,2021.1.4,60.01415072553496,
T,left,Lure,0,20,20,20,408.87856182970245,410.88061945673326,left,1,1,0.8294816184998126,B09N05,2022-11-10_16h30.12.686,t1_Paradigm,2021.1.4,60.01415072553496,
J,left,Distractor,0,21,21,21,412.37852381461016,414.38022310528413,left,1,1,0.689660825174542,B09N05,2022-11-10_16h30.12.686,t1_Paradigm,2021.1.4,60.01415072553496,
P,left,Distractor,0,22,22,22,415.8786298398263,417.88092004864575,left,1,1,0.5167800542994883,B09N05,2022-11-10_16h30.12.686,t1_Paradigm,2021.1.4,60.01415072553496,
F,left,Distractor,0,23,23,23,419.3786126768937,421.3806703039245,left,1,1,0.6813206026081389,B09N05,2022-11-10_16h30.12.686,t1_Paradigm,2021.1.4,60.01415072553496,
L,left,Distractor,0,24,24,24,422.8785801154436,424.8803236768581,left,1,1,0.5735245572686836,B09N05,2022-11-10_16h30.12.686,t1_Paradigm,2021.1.4,60.01415072553496,
W,left,Pretarget,0,25,25,25,426.37860561923935,428.3809352867629,left,1,1,0.5449869321118967,B09N05,2022-11-10_16h30.12.686,t1_Paradigm,2021.1.4,60.01415072553496,
W,right,Target,0,26,26,26,429.87857209538197,431.87838121791356,right,1,1,0.5353933343021708,B09N05,2022-11-10_16h30.12.686,t1_Paradigm,2021.1.4,60.01415072553496,
V,left,Distractor,0,27,27,27,433.37840575930204,435.38043772213496,left,1,1,0.5373726855304994,B09N05,2022-11-10_16h30.12.686,t1_Paradigm,2021.1.4,60.01415072553496,
W,left,Lure,0,28,28,28,436.87865807044363,438.8802059423524,left,1,1,0.7335209386174029,B09N05,2022-11-10_16h30.12.686,t1_Paradigm,2021.1.4,60.01415072553496,
R,left,Pretarget,0,29,29,29,440.37859214553646,442.3819047518218,left,1,1,0.6242206505039576,B09N05,2022-11-10_16h30.12.686,t1_Paradigm,2021.1.4,60.01415072553496,
R,right,Target,0,30,30,30,443.8786240653817,445.87877516334447,right,1,1,0.7911367410888488,B09N05,2022-11-10_16h30.12.686,t1_Paradigm,2021.1.4,60.01415072553496,
G,left,Distractor,0,31,31,31,447.37868614065883,449.380418153185,left,1,1,0.5055006395205055,B09N05,2022-11-10_16h30.12.686,t1_Paradigm,2021.1.4,60.01415072553496,
R,left,Lure,0,32,32,32,450.8788280957515,452.88121518691696,left,1,1,0.6525792678839935,B09N05,2022-11-10_16h30.12.686,t1_Paradigm,2021.1.4,60.01415072553496,
S,left,Distractor,0,33,33,33,454.37871982491833,456.3801477167044,left,1,1,0.545821339331269,B09N05,2022-11-10_16h30.12.686,t1_Paradigm,2021.1.4,60.01415072553496,
R,left,Lure,0,34,34,34,457.8786612784679,459.88037147642535,right,0,1,0.8055465463530709,B09N05,2022-11-10_16h30.12.686,t1_Paradigm,2021.1.4,60.01415072553496,
P,left,Pretarget,0,35,35,35,461.37876826609136,463.3804941833696,left,1,1,0.8093589628842892,B09N05,2022-11-10_16h30.12.686,t1_Paradigm,2021.1.4,60.01415072553496,
P,right,Target,0,36,36,36,464.8786654489004,466.8786388222952,right,1,1,0.7031897068600301,B09N05,2022-11-10_16h30.12.686,t1_Paradigm,2021.1.4,60.01415072553496,
Y,left,Pretarget,0,37,37,37,468.37882761454784,470.3915573772856,left,1,1,0.6146334687437047,B09N05,2022-11-10_16h30.12.686,t1_Paradigm,2021.1.4,60.01415072553496,
Y,right,Target,0,38,38,38,471.8786298398263,473.8787360254428,right,1,1,0.6312978737532831,B09N05,2022-11-10_16h30.12.686,t1_Paradigm,2021.1.4,60.01415072553496,
J,left,Distractor,0,39,39,39,475.3788054791776,477.3801265437414,left,1,1,0.5697358801198789,B09N05,2022-11-10_16h30.12.686,t1_Paradigm,2021.1.4,60.01415072553496,
Y,left,Lure,0,40,40,40,478.8786914338998,480.88175445586603,left,1,1,1.3562501784463166,B09N05,2022-11-10_16h30.12.686,t1_Paradigm,2021.1.4,60.01415072553496,
T,left,Distractor,0,41,41,41,482.37865373960994,484.38002677417353,left,1,1,0.6098438878962043,B09N05,2022-11-10_16h30.12.686,t1_Paradigm,2021.1.4,60.01415072553496,
V,left,Distractor,0,42,42,42,485.8786564664315,487.8802944838335,left,1,1,0.6139495178813377,B09N05,2022-11-10_16h30.12.686,t1_Paradigm,2021.1.4,60.01415072553496,
N,left,Pretarget,0,43,43,43,489.37876377485736,491.38023882460584,left,1,1,0.7457682144431601,B09N05,2022-11-10_16h30.12.686,t1_Paradigm,2021.1.4,60.01415072553496,
N,right,Target,0,44,44,44,492.87878831624585,494.8787241557511,right,1,1,0.49515668473759433,B09N05,2022-11-10_16h30.12.686,t1_Paradigm,2021.1.4,60.01415072553496,
N,right,Target,0,45,45,45,496.3786598348561,498.378858732387,right,1,1,0.6591258838507201,B09N05,2022-11-10_16h30.12.686,t1_Paradigm,2021.1.4,60.01415072553496,
X,left,Distractor,0,46,46,46,499.87882103809716,501.88059475494265,left,1,1,0.5174226216440729,B09N05,2022-11-10_16h30.12.686,t1_Paradigm,2021.1.4,60.01415072553496,
Z,left,Distractor,0,47,47,47,503.37843270670965,505.3805265844185,left,1,1,0.6173724802174547,B09N05,2022-11-10_16h30.12.686,t1_Paradigm,2021.1.4,60.01415072553496,
H,left,Pretarget,0,48,48,48,506.8784569272957,508.8804571306846,left,1,1,0.7334070537399384,B09N05,2022-11-10_16h30.12.686,t1_Paradigm,2021.1.4,60.01415072553496,
H,right,Target,0,49,49,49,510.3783714334386,512.378824727326,right,1,1,0.6110051928280882,B09N05,2022-11-10_16h30.12.686,t1_Paradigm,2021.1.4,60.01415072553496,
K,left,Distractor,0,50,50,50,513.8785518848272,515.8804962685863,left,1,1,0.45339141141266737,B09N05,2022-11-10_16h30.12.686,t1_Paradigm,2021.1.4,60.01415072553496,
V,left,Pretarget,0,51,51,51,517.3787727573254,519.3804390053447,left,1,1,0.6494909025241213,B09N05,2022-11-10_16h30.12.686,t1_Paradigm,2021.1.4,60.01415072553496,
V,right,Target,0,52,52,52,520.8787639352577,522.8787081156279,left,0,1,1.1671412939176662,B09N05,2022-11-10_16h30.12.686,t1_Paradigm,2021.1.4,60.01415072553496,
R,left,Distractor,0,53,53,53,524.3785045664627,526.3805660431226,left,1,1,0.6894795717798843,B09N05,2022-11-10_16h30.12.686,t1_Paradigm,2021.1.4,60.01415072553496,
V,left,Lure,0,54,54,54,527.8786372182822,529.8795203874779,left,1,1,0.9503192465763277,B09N05,2022-11-10_16h30.12.686,t1_Paradigm,2021.1.4,60.01415072553496,
Y,left,Distractor,0,55,55,55,531.3786052984378,533.3794567081877,left,1,1,0.522517285638969,B09N05,2022-11-10_16h30.12.686,t1_Paradigm,2021.1.4,60.01415072553496,
Q,left,Distractor,0,56,56,56,534.8787632936528,536.8807875572274,left,1,1,0.5412604906414344,B09N05,2022-11-10_16h30.12.686,t1_Paradigm,2021.1.4,60.01415072553496,
Z,left,Pretarget,0,57,57,57,538.3787130880664,540.3809667254045,left,1,1,0.5451928872971621,B09N05,2022-11-10_16h30.12.686,t1_Paradigm,2021.1.4,60.01415072553496,
Z,right,Target,0,58,58,58,541.8788588927891,543.8787774089615,right,1,1,0.5351748678222066,B09N05,2022-11-10_16h30.12.686,t1_Paradigm,2021.1.4,60.01415072553496,
B,left,Distractor,0,59,59,59,545.3785344010921,547.3801249397293,left,1,1,0.5059398180983408,B09N05,2022-11-10_16h30.12.686,t1_Paradigm,2021.1.4,60.01415072553496,
S,left,Pretarget,0,60,60,60,548.8787273637772,550.8800028743899,left,1,1,0.6699269821510825,B09N05,2022-11-10_16h30.12.686,t1_Paradigm,2021.1.4,60.01415072553496,
S,right,Target,0,61,61,61,552.3788596947943,554.3787900806583,right,1,1,0.7711090430038894,B09N05,2022-11-10_16h30.12.686,t1_Paradigm,2021.1.4,60.01415072553496,
T,left,Distractor,0,62,62,62,555.8786214989614,557.8801562179688,None,0,1,,B09N05,2022-11-10_16h30.12.686,t1_Paradigm,2021.1.4,60.01415072553496,
D,left,Distractor,0,63,63,63,559.3788106120173,561.3812515979971,left,1,1,0.42496157588357164,B09N05,2022-11-10_16h30.12.686,t1_Paradigm,2021.1.4,60.01415072553496,
R,left,Distractor,0,0,0,0,582.6925801276338,584.697565397988,None,0,1,,B09N05,2022-11-10_16h30.12.686,t1_Paradigm,2021.1.4,60.01415072553496,
V,left,Distractor,0,1,1,1,586.1956324027178,588.197337788637,left,1,1,0.5846130945792538,B09N05,2022-11-10_16h30.12.686,t1_Paradigm,2021.1.4,60.01415072553496,
N,left,Pretarget,0,2,2,2,589.6955045629329,591.6981114037899,left,1,1,0.6519245100462285,B09N05,2022-11-10_16h30.12.686,t1_Paradigm,2021.1.4,60.01415072553496,
N,right,Target,0,3,3,3,593.1954399212354,595.1954213146928,right,1,1,0.5944209884364682,B09N05,2022-11-10_16h30.12.686,t1_Paradigm,2021.1.4,60.01415072553496,
S,left,Distractor,0,4,4,4,596.6954660666379,598.6969757630523,left,1,1,0.6291918055503629,B09N05,2022-11-10_16h30.12.686,t1_Paradigm,2021.1.4,60.01415072553496,
N,left,Lure,0,5,5,5,600.1956298362966,602.1973692272786,left,1,1,0.7767070460722607,B09N05,2022-11-10_16h30.12.686,t1_Paradigm,2021.1.4,60.01415072553496,
Z,left,Distractor,0,6,6,6,603.6954968636746,605.6972699389153,left,1,1,0.5568309592345031,B09N05,2022-11-10_16h30.12.686,t1_Paradigm,2021.1.4,60.01415072553496,
L,left,Pretarget,0,7,7,7,607.1952676503115,609.1976913129583,left,1,1,0.5130430263470771,B09N05,2022-11-10_16h30.12.686,t1_Paradigm,2021.1.4,60.01415072553496,
L,right,Target,0,8,8,8,610.6955106581809,612.6957146885507,right,1,1,0.7105421786272927,B09N05,2022-11-10_16h30.12.686,t1_Paradigm,2021.1.4,60.01415072553496,
H,left,Distractor,0,9,9,9,614.1954155402491,616.1957620069134,left,1,1,0.6182713687321666,B09N05,2022-11-10_16h30.12.686,t1_Paradigm,2021.1.4,60.01415072553496,
L,left,Lure,0,10,10,10,617.6956633601549,619.6977030222479,left,1,1,0.49236474085773807,B09N05,2022-11-10_16h30.12.686,t1_Paradigm,2021.1.4,60.01415072553496,
X,left,Pretarget,0,11,11,11,621.1955804327172,623.1970785802441,left,1,1,0.6730990769556229,B09N05,2022-11-10_16h30.12.686,t1_Paradigm,2021.1.4,60.01415072553496,
X,right,Target,0,12,12,12,624.6955744978713,626.6952764723792,right,1,1,0.5989064485474955,B09N05,2022-11-10_16h30.12.686,t1_Paradigm,2021.1.4,60.01415072553496,
X,right,Target,0,13,13,13,628.1957164529631,630.1955169138291,right,1,1,0.4586952386180201,B09N05,2022-11-10_16h30.12.686,t1_Paradigm,2021.1.4,60.01415072553496,
R,left,Distractor,0,14,14,14,631.6951513594158,633.697573738853,left,1,1,0.4606017676869669,B09N05,2022-11-10_16h30.12.686,t1_Paradigm,2021.1.4,60.01415072553496,
T,left,Distractor,0,15,15,15,635.195464623026,637.1977028618458,left,1,1,0.6724481687469961,B09N05,2022-11-10_16h30.12.686,t1_Paradigm,2021.1.4,60.01415072553496,
V,left,Pretarget,0,16,16,16,638.6952004421928,640.6970376779282,left,1,1,0.6930732010278007,B09N05,2022-11-10_16h30.12.686,t1_Paradigm,2021.1.4,60.01415072553496,
V,right,Target,0,17,17,17,642.1946109676592,644.1956182874092,right,1,1,0.7944631418813515,B09N05,2022-11-10_16h30.12.686,t1_Paradigm,2021.1.4,60.01415072553496,
N,left,Distractor,0,18,18,18,645.6955260566992,647.6960524935494,left,1,1,0.4301810320393997,B09N05,2022-11-10_16h30.12.686,t1_Paradigm,2021.1.4,60.01415072553496,
B,left,Distractor,0,19,19,19,649.1953892344463,651.1968556225274,left,1,1,0.6253100956855633,B09N05,2022-11-10_16h30.12.686,t1_Paradigm,2021.1.4,60.01415072553496,
V,left,Lure,0,20,20,20,652.6955427384273,654.6973774077433,left,1,1,0.5487146567920718,B09N05,2022-11-10_16h30.12.686,t1_Paradigm,2021.1.4,60.01415072553496,
P,left,Distractor,0,21,21,21,656.1953687030891,658.197051953639,left,1,1,0.5850618972308439,B09N05,2022-11-10_16h30.12.686,t1_Paradigm,2021.1.4,60.01415072553496,
K,left,Pretarget,0,22,22,22,659.6956569441063,661.6967707702752,left,1,1,0.46162031552194094,B09N05,2022-11-10_16h30.12.686,t1_Paradigm,2021.1.4,60.01415072553496,
K,right,Target,0,23,23,23,663.1955881319773,665.1954893248167,right,1,1,0.7707417241799703,B09N05,2022-11-10_16h30.12.686,t1_Paradigm,2021.1.4,60.01415072553496,
J,left,Pretarget,0,24,24,24,666.695757355279,668.6963979978063,left,1,1,0.5657005058728828,B09N05,2022-11-10_16h30.12.686,t1_Paradigm,2021.1.4,60.01415072553496,
J,right,Target,0,25,25,25,670.1957090745072,672.195746608395,right,1,1,0.586342861486628,B09N05,2022-11-10_16h30.12.686,t1_Paradigm,2021.1.4,60.01415072553496,
H,left,Distractor,0,26,26,26,673.6955882923776,675.6975198440377,left,1,1,0.5408460138514783,B09N05,2022-11-10_16h30.12.686,t1_Paradigm,2021.1.4,60.01415072553496,
J,left,Lure,0,27,27,27,677.1955839615439,679.197290951477,left,1,1,0.7368758908287418,B09N05,2022-11-10_16h30.12.686,t1_Paradigm,2021.1.4,60.01415072553496,
V,left,Distractor,0,28,28,28,680.6955998412668,682.6975445458284,left,1,1,0.5966573024434183,B09N05,2022-11-10_16h30.12.686,t1_Paradigm,2021.1.4,60.01415072553496,
Z,left,Pretarget,0,29,29,29,684.1955149890146,686.1982276946837,left,1,1,0.4560733200451068,B09N05,2022-11-10_16h30.12.686,t1_Paradigm,2021.1.4,60.01415072553496,
Z,right,Target,0,30,30,30,687.695658227316,689.6957246334259,right,1,1,0.5744734909694671,B09N05,2022-11-10_16h30.12.686,t1_Paradigm,2021.1.4,60.01415072553496,
T,left,Distractor,0,31,31,31,691.1956314403087,693.1981157346236,left,1,1,0.6240621740853385,B09N05,2022-11-10_16h30.12.686,t1_Paradigm,2021.1.4,60.01415072553496,
Z,left,Lure,0,32,32,32,694.6957400319443,696.6963627095356,left,1,1,0.8538468867573101,B09N05,2022-11-10_16h30.12.686,t1_Paradigm,2021.1.4,60.01415072553496,
F,left,Distractor,0,33,33,33,698.1955967936428,700.1973656984519,left,1,1,0.5528510838157672,B09N05,2022-11-10_16h30.12.686,t1_Paradigm,2021.1.4,60.01415072553496,
Y,left,Pretarget,0,34,34,34,701.6954217958973,703.6977344608895,left,1,1,0.5565242720749666,B09N05,2022-11-10_16h30.12.686,t1_Paradigm,2021.1.4,60.01415072553496,
Y,right,Target,0,35,35,35,705.1957251146305,707.1958274506178,None,0,1,,B09N05,2022-11-10_16h30.12.686,t1_Paradigm,2021.1.4,60.01415072553496,
Y,right,Target,0,36,36,36,708.6955510792905,710.6956072197227,right,1,1,0.7109094974530308,B09N05,2022-11-10_16h30.12.686,t1_Paradigm,2021.1.4,60.01415072553496,
W,left,Distractor,0,37,37,37,712.1957514204332,714.1976284356733,left,1,1,0.6005531276150577,B09N05,2022-11-10_16h30.12.686,t1_Paradigm,2021.1.4,60.01415072553496,
Q,left,Distractor,0,38,38,38,715.6956867787358,717.697055642866,left,1,1,0.685167986606757,B09N05,2022-11-10_16h30.12.686,t1_Paradigm,2021.1.4,60.01415072553496,
P,left,Pretarget,0,39,39,39,719.195670257408,721.1959317114197,left,1,1,0.5150413049213967,B09N05,2022-11-10_16h30.12.686,t1_Paradigm,2021.1.4,60.01415072553496,
P,right,Target,0,40,40,40,722.6953954900946,724.6957313702787,right,1,1,0.5024562240978412,B09N05,2022-11-10_16h30.12.686,t1_Paradigm,2021.1.4,60.01415072553496,
J,left,Distractor,0,41,41,41,726.1957074704951,728.1969130461694,left,1,1,0.5533322875180602,B09N05,2022-11-10_16h30.12.686,t1_Paradigm,2021.1.4,60.01415072553496,
P,left,Lure,0,42,42,42,729.6956271094768,731.6972378586688,left,1,1,0.9251378568405926,B09N05,2022-11-10_16h30.12.686,t1_Paradigm,2021.1.4,60.01415072553496,
L,left,Distractor,0,43,43,43,733.1957802926554,735.1967757427137,left,1,1,0.6895899278279103,B09N05,2022-11-10_16h30.12.686,t1_Paradigm,2021.1.4,60.01415072553496,
Z,left,Distractor,0,44,44,44,736.69581092929,738.6975833629276,left,1,1,0.7727477020125662,B09N05,2022-11-10_16h30.12.686,t1_Paradigm,2021.1.4,60.01415072553496,
F,left,Pretarget,0,45,45,45,740.1957482124071,742.1975504806742,left,1,1,0.7766762490373367,B09N05,2022-11-10_16h30.12.686,t1_Paradigm,2021.1.4,60.01415072553496,
F,right,Target,0,46,46,46,743.6955754602786,745.695664964167,left,0,1,1.3746931123387185,B09N05,2022-11-10_16h30.12.686,t1_Paradigm,2021.1.4,60.01415072553496,
G,left,Pretarget,0,47,47,47,747.1956545380872,749.1981754038825,left,1,1,0.5762314884959778,B09N05,2022-11-10_16h30.12.686,t1_Paradigm,2021.1.4,60.01415072553496,
G,right,Target,0,48,48,48,750.6958227989817,752.6957740370071,right,1,1,0.5828451521774696,B09N05,2022-11-10_16h30.12.686,t1_Paradigm,2021.1.4,60.01415072553496,
V,left,Distractor,0,49,49,49,754.1958142977164,756.1967106198117,left,1,1,0.5057418829765084,B09N05,2022-11-10_16h30.12.686,t1_Paradigm,2021.1.4,60.01415072553496,
G,left,Lure,0,50,50,50,757.6957923227474,759.6973709916929,left,1,1,0.4130540298738197,B09N05,2022-11-10_16h30.12.686,t1_Paradigm,2021.1.4,60.01415072553496,
Q,left,Pretarget,0,51,51,51,761.1958088440751,763.1975139091919,left,1,1,0.6089899117250752,B09N05,2022-11-10_16h30.12.686,t1_Paradigm,2021.1.4,60.01415072553496,
Q,right,Target,0,52,52,52,764.69581092929,766.6958596912664,right,1,1,0.5023574169372296,B09N05,2022-11-10_16h30.12.686,t1_Paradigm,2021.1.4,60.01415072553496,
Y,left,Distractor,0,53,53,53,768.1955146682103,770.1962926141969,left,1,1,0.570140412031833,B09N05,2022-11-10_16h30.12.686,t1_Paradigm,2021.1.4,60.01415072553496,
V,left,Distractor,0,54,54,54,771.6954801819466,773.6967130258308,left,1,1,0.7977760689700517,B09N05,2022-11-10_16h30.12.686,t1_Paradigm,2021.1.4,60.01415072553496,
B,left,Distractor,0,55,55,55,775.1957802926554,777.1971311918478,left,1,1,0.5133590167788498,B09N05,2022-11-10_16h30.12.686,t1_Paradigm,2021.1.4,60.01415072553496,
J,left,Pretarget,0,56,56,56,778.6956678513889,780.697480064533,left,1,1,0.45284989684478205,B09N05,2022-11-10_16h30.12.686,t1_Paradigm,2021.1.4,60.01415072553496,
J,right,Target,0,57,57,57,782.1957841422845,784.1956275906796,right,1,1,0.5067626764302986,B09N05,2022-11-10_16h30.12.686,t1_Paradigm,2021.1.4,60.01415072553496,
H,left,Distractor,0,58,58,58,785.6955687234276,787.6977479345933,None,0,1,,B09N05,2022-11-10_16h30.12.686,t1_Paradigm,2021.1.4,60.01415072553496,
J,left,Lure,0,59,59,59,789.1957122825315,791.1949189380284,left,1,1,0.4673520932210522,B09N05,2022-11-10_16h30.12.686,t1_Paradigm,2021.1.4,60.01415072553496,
D,left,Pretarget,0,60,60,60,792.6957669793519,794.6971380891009,left,1,1,0.645361853956274,B09N05,2022-11-10_16h30.12.686,t1_Paradigm,2021.1.4,60.01415072553496,
D,right,Target,0,61,61,61,796.1958049944442,798.1958726837656,right,1,1,0.5382285865161975,B09N05,2022-11-10_16h30.12.686,t1_Paradigm,2021.1.4,60.01415072553496,
R,left,Distractor,0,62,62,62,799.6958876010813,801.6973507811381,left,1,1,0.4929813232010929,B09N05,2022-11-10_16h30.12.686,t1_Paradigm,2021.1.4,60.01415072553496,
F,left,Distractor,0,63,63,63,803.1958861574694,805.1965226295652,left,1,1,0.48220364348344447,B09N05,2022-11-10_16h30.12.686,t1_Paradigm,2021.1.4,60.01415072553496,
F,left,Distractor,0,0,0,0,949.0881205883634,951.0790999437631,None,0,2,,B09N05,2022-11-10_16h30.12.686,t1_Paradigm,2021.1.4,60.01415072553496,
N,left,Pretarget,0,1,1,1,952.5793901095949,954.581072076935,None,0,2,,B09N05,2022-11-10_16h30.12.686,t1_Paradigm,2021.1.4,60.01415072553496,
V,left,Distractor,0,2,2,2,956.0791913724661,958.0806157354255,left,1,2,0.7018548477899458,B09N05,2022-11-10_16h30.12.686,t1_Paradigm,2021.1.4,60.01415072553496,
N,right,Target,0,3,3,3,959.5794064705206,961.5809046180475,right,1,2,1.2980566107289633,B09N05,2022-11-10_16h30.12.686,t1_Paradigm,2021.1.4,60.01415072553496,
N,left,Lure,0,4,4,4,963.0792770267253,965.0791252871586,left,1,2,1.3835969848405512,B09N05,2022-11-10_16h30.12.686,t1_Paradigm,2021.1.4,60.01415072553496,
X,left,Distractor,0,5,5,5,966.5793763150887,968.581215796441,left,1,2,0.8894623767664598,B09N05,2022-11-10_16h30.12.686,t1_Paradigm,2021.1.4,60.01415072553496,
G,left,Pretarget,0,6,6,6,970.0794316535157,972.0784198425299,left,1,2,0.704123883646389,B09N05,2022-11-10_16h30.12.686,t1_Paradigm,2021.1.4,60.01415072553496,
H,left,Pretarget,0,7,7,7,973.5794561949042,975.5807512744668,left,1,2,0.9140095400234713,B09N05,2022-11-10_16h30.12.686,t1_Paradigm,2021.1.4,60.01415072553496,
G,right,Target,0,8,8,8,977.0792240943174,979.0810687085104,right,1,2,1.029714649412199,B09N05,2022-11-10_16h30.12.686,t1_Paradigm,2021.1.4,60.01415072553496,
H,right,Target,0,9,9,9,980.5791360340409,982.5783760529939,right,1,2,1.420229418677991,B09N05,2022-11-10_16h30.12.686,t1_Paradigm,2021.1.4,60.01415072553496,
T,left,Pretarget,0,10,10,10,984.0795047964784,986.0810594052382,left,1,2,1.261799515779785,B09N05,2022-11-10_16h30.12.686,t1_Paradigm,2021.1.4,60.01415072553496,
K,left,Distractor,0,11,11,11,987.5794266810772,989.579251843732,left,1,2,1.0434655264070898,B09N05,2022-11-10_16h30.12.686,t1_Paradigm,2021.1.4,60.01415072553496,
T,right,Target,0,12,12,12,991.0784936270975,993.0783380379016,right,1,2,0.9202776994479791,B09N05,2022-11-10_16h30.12.686,t1_Paradigm,2021.1.4,60.01415072553496,
T,left,Lure,0,13,13,13,994.5794661397795,996.5793002849041,None,0,2,,B09N05,2022-11-10_16h30.12.686,t1_Paradigm,2021.1.4,60.01415072553496,
J,left,Distractor,0,14,14,14,998.079340224811,1000.0808775102396,left,1,2,0.9578593877868116,B09N05,2022-11-10_16h30.12.686,t1_Paradigm,2021.1.4,60.01415072553496,
Q,left,Pretarget,0,15,15,15,1001.5791488661398,1003.5806662618143,left,1,2,1.1539646533419727,B09N05,2022-11-10_16h30.12.686,t1_Paradigm,2021.1.4,60.01415072553496,
M,left,Distractor,0,16,16,16,1005.0794124053664,1007.0813930398053,left,1,2,0.8372392637829762,B09N05,2022-11-10_16h30.12.686,t1_Paradigm,2021.1.4,60.01415072553496,
Q,right,Target,0,17,17,17,1008.5791809463863,1010.5819292611304,right,1,2,1.0326939419355767,B09N05,2022-11-10_16h30.12.686,t1_Paradigm,2021.1.4,60.01415072553496,
R,left,Distractor,0,18,18,18,1012.0794897187625,1014.0802513038216,left,1,2,1.4064756544612464,B09N05,2022-11-10_16h30.12.686,t1_Paradigm,2021.1.4,60.01415072553496,
W,left,Distractor,0,19,19,19,1015.579561097311,1017.5802793740368,None,0,2,,B09N05,2022-11-10_16h30.12.686,t1_Paradigm,2021.1.4,60.01415072553496,
C,left,Pretarget,0,20,20,20,1019.0789356928999,1021.0813211800523,left,1,2,0.8373566774880601,B09N05,2022-11-10_16h30.12.686,t1_Paradigm,2021.1.4,60.01415072553496,
T,left,Distractor,0,21,21,21,1022.5793843351512,1024.579918792062,left,1,2,1.0667298005919292,B09N05,2022-11-10_16h30.12.686,t1_Paradigm,2021.1.4,60.01415072553496,
C,right,Target,0,22,22,22,1026.0795025508596,1028.081416137582,None,0,2,,B09N05,2022-11-10_16h30.12.686,t1_Paradigm,2021.1.4,60.01415072553496,
F,left,Pretarget,0,23,23,23,1029.579505919286,1031.5812305533545,None,0,2,,B09N05,2022-11-10_16h30.12.686,t1_Paradigm,2021.1.4,60.01415072553496,
C,right,Target,0,24,24,24,1033.0787801037022,1035.0920905189068,right,1,2,1.1467084223168058,B09N05,2022-11-10_16h30.12.686,t1_Paradigm,2021.1.4,60.01415072553496,
F,right,Target,0,25,25,25,1036.579440154781,1038.5803663115057,right,1,2,1.0822056324577716,B09N05,2022-11-10_16h30.12.686,t1_Paradigm,2021.1.4,60.01415072553496,
H,left,Distractor,0,26,26,26,1040.079181427589,1042.0812133904237,left,1,2,1.0375367759934306,B09N05,2022-11-10_16h30.12.686,t1_Paradigm,2021.1.4,60.01415072553496,
H,left,Lure,0,27,27,27,1043.5793824103366,1045.5795434531756,left,1,2,0.75512473922754,B09N05,2022-11-10_16h30.12.686,t1_Paradigm,2021.1.4,60.01415072553496,
P,left,Distractor,0,28,28,28,1047.0794085557372,1049.0811899718428,left,1,2,0.6938071970762394,B09N05,2022-11-10_16h30.12.686,t1_Paradigm,2021.1.4,60.01415072553496,
G,left,Pretarget,0,29,29,29,1050.5795479444096,1052.5813781224897,left,1,2,0.6976250672469178,B09N05,2022-11-10_16h30.12.686,t1_Paradigm,2021.1.4,60.01415072553496,
K,left,Distractor,0,30,30,30,1054.0791086054287,1056.07995359913,left,1,2,0.7667438838216185,B09N05,2022-11-10_16h30.12.686,t1_Paradigm,2021.1.4,60.01415072553496,
G,right,Target,0,31,31,31,1057.5794587613236,1059.5802209879876,left,0,2,1.1225096505404508,B09N05,2022-11-10_16h30.12.686,t1_Paradigm,2021.1.4,60.01415072553496,
M,left,Pretarget,0,32,32,32,1061.0794881147485,1063.080846713201,left,1,2,0.7259650780852098,B09N05,2022-11-10_16h30.12.686,t1_Paradigm,2021.1.4,60.01415072553496,
B,left,Distractor,0,33,33,33,1064.5795219594092,1066.5813229444666,left,1,2,0.5374823999754881,B09N05,2022-11-10_16h30.12.686,t1_Paradigm,2021.1.4,60.01415072553496,
M,right,Target,0,34,34,34,1068.0794791322805,1070.0812573403618,right,1,2,1.1816617760323425,B09N05,2022-11-10_16h30.12.686,t1_Paradigm,2021.1.4,60.01415072553496,
M,left,Lure,0,35,35,35,1071.579582270273,1073.579469668608,None,0,2,,B09N05,2022-11-10_16h30.12.686,t1_Paradigm,2021.1.4,60.01415072553496,
T,left,Distractor,0,36,36,36,1075.0792808763545,1077.0810959767205,left,1,2,1.0936159346438217,B09N05,2022-11-10_16h30.12.686,t1_Paradigm,2021.1.4,60.01415072553496,
F,left,Distractor,0,37,37,37,1078.5795110521267,1080.579499182435,left,1,2,0.7473972493771726,B09N05,2022-11-10_16h30.12.686,t1_Paradigm,2021.1.4,60.01415072553496,
X,left,Distractor,0,38,38,38,1082.07902038475,1084.0801771984516,left,1,2,0.5268375324758381,B09N05,2022-11-10_16h30.12.686,t1_Paradigm,2021.1.4,60.01415072553496,
C,left,Distractor,0,39,39,39,1085.5792380492258,1087.5812677664417,left,1,2,1.0415968520301249,B09N05,2022-11-10_16h30.12.686,t1_Paradigm,2021.1.4,60.01415072553496,
R,left,Distractor,0,40,40,40,1089.0795840346873,1091.0809528988193,left,1,2,0.7096266083826777,B09N05,2022-11-10_16h30.12.686,t1_Paradigm,2021.1.4,60.01415072553496,
B,left,Pretarget,0,41,41,41,1092.5795793830512,1094.5819132210072,left,1,2,0.5049392352011637,B09N05,2022-11-10_16h30.12.686,t1_Paradigm,2021.1.4,60.01415072553496,
H,left,Distractor,0,42,42,42,1096.0794460896268,1098.0801961257966,left,1,2,0.5746133608463424,B09N05,2022-11-10_16h30.12.686,t1_Paradigm,2021.1.4,60.01415072553496,
B,right,Target,0,43,43,43,1099.5795296586693,1101.5816552958222,left,0,2,0.9292855119510932,B09N05,2022-11-10_16h30.12.686,t1_Paradigm,2021.1.4,60.01415072553496,
W,left,Pretarget,0,44,44,44,1103.0795224406138,1105.0795445759832,left,1,2,1.0314072032342665,B09N05,2022-11-10_16h30.12.686,t1_Paradigm,2021.1.4,60.01415072553496,
L,left,Pretarget,0,45,45,45,1106.5794542700896,1108.5803560458262,left,1,2,0.8104166486209579,B09N05,2022-11-10_16h30.12.686,t1_Paradigm,2021.1.4,60.01415072553496,
W,right,Target,0,46,46,46,1110.0795214782065,1112.079384174749,right,1,2,1.0713602634168637,B09N05,2022-11-10_16h30.12.686,t1_Paradigm,2021.1.4,60.01415072553496,
L,right,Target,0,47,47,47,1113.5793307611384,1115.5811237261332,right,1,2,0.9138501011984772,B09N05,2022-11-10_16h30.12.686,t1_Paradigm,2021.1.4,60.01415072553496,
W,right,Target,0,48,48,48,1117.0795051172809,1119.0808720565965,None,0,2,,B09N05,2022-11-10_16h30.12.686,t1_Paradigm,2021.1.4,60.01415072553496,
X,left,Distractor,0,49,49,49,1120.5796236537917,1122.5794337387306,left,1,2,1.003404676594073,B09N05,2022-11-10_16h30.12.686,t1_Paradigm,2021.1.4,60.01415072553496,
R,left,Distractor,0,50,50,50,1124.0795166661683,1126.0811521171509,None,0,2,,B09N05,2022-11-10_16h30.12.686,t1_Paradigm,2021.1.4,60.01415072553496,
V,left,Pretarget,0,51,51,51,1127.5794193026195,1129.5921173059141,None,0,2,,B09N05,2022-11-10_16h30.12.686,t1_Paradigm,2021.1.4,60.01415072553496,
Z,left,Distractor,0,52,52,52,1131.0795516336384,1133.078451601974,None,0,2,,B09N05,2022-11-10_16h30.12.686,t1_Paradigm,2021.1.4,60.01415072553496,
V,right,Target,0,53,53,53,1134.5793089465715,1136.579027923608,None,0,2,,B09N05,2022-11-10_16h30.12.686,t1_Paradigm,2021.1.4,60.01415072553496,
V,left,Lure,0,54,54,54,1138.0792914628364,1140.0794284454896,None,0,2,,B09N05,2022-11-10_16h30.12.686,t1_Paradigm,2021.1.4,60.01415072553496,
N,left,Distractor,0,55,55,55,1141.5791507909544,1143.5801536194685,None,0,2,,B09N05,2022-11-10_16h30.12.686,t1_Paradigm,2021.1.4,60.01415072553496,
B,left,Distractor,0,56,56,56,1145.079617077341,1147.0803395245002,None,0,2,,B09N05,2022-11-10_16h30.12.686,t1_Paradigm,2021.1.4,60.01415072553496,
V,left,Lure,0,57,57,57,1148.5795052776812,1150.5809620416894,None,0,2,,B09N05,2022-11-10_16h30.12.686,t1_Paradigm,2021.1.4,60.01415072553496,
J,left,Distractor,0,58,58,58,1152.0792629114167,1154.0813529394964,left,1,2,0.7174795320006524,B09N05,2022-11-10_16h30.12.686,t1_Paradigm,2021.1.4,60.01415072553496,
H,left,Distractor,0,59,59,59,1155.5793310819408,1157.5922148298632,left,1,2,1.1905958039678808,B09N05,2022-11-10_16h30.12.686,t1_Paradigm,2021.1.4,60.01415072553496,
X,left,Pretarget,0,60,60,60,1159.079337979194,1161.079796405922,left,1,2,0.5031680847750977,B09N05,2022-11-10_16h30.12.686,t1_Paradigm,2021.1.4,60.01415072553496,
P,left,Distractor,0,61,61,61,1162.5795145809534,1164.5802973389746,left,1,2,0.4746667102954234,B09N05,2022-11-10_16h30.12.686,t1_Paradigm,2021.1.4,60.01415072553496,
X,right,Target,0,62,62,62,1166.0793488864783,1168.0804242163522,left,0,2,1.3266904766260268,B09N05,2022-11-10_16h30.12.686,t1_Paradigm,2021.1.4,60.01415072553496,
Q,left,Distractor,0,63,63,63,1169.5795055984836,1171.580606271751,left,1,2,0.8022146919174702,B09N05,2022-11-10_16h30.12.686,t1_Paradigm,2021.1.4,60.01415072553496,
B,left,Pretarget,0,0,0,0,1216.1715433453846,1218.1758712914834,None,0,2,,B09N05,2022-11-10_16h30.12.686,t1_Paradigm,2021.1.4,60.01415072553496,
F,left,Distractor,0,1,1,1,1219.6629270722951,1221.6644797562403,None,0,2,,B09N05,2022-11-10_16h30.12.686,t1_Paradigm,2021.1.4,60.01415072553496,
B,right,Target,0,2,2,2,1223.1629153630056,1225.1630430423884,right,1,2,1.2519159125404258,B09N05,2022-11-10_16h30.12.686,t1_Paradigm,2021.1.4,60.01415072553496,
V,left,Distractor,0,3,3,3,1226.6630974184063,1228.6650382733387,left,1,2,1.1099181536665128,B09N05,2022-11-10_16h30.12.686,t1_Paradigm,2021.1.4,60.01415072553496,
G,left,Pretarget,0,4,4,4,1230.1630671025723,1232.1636965170146,left,1,2,0.7474187431416794,B09N05,2022-11-10_16h30.12.686,t1_Paradigm,2021.1.4,60.01415072553496,
B,left,Lure,0,5,5,5,1233.6629870623565,1235.6630849071098,None,0,2,,B09N05,2022-11-10_16h30.12.686,t1_Paradigm,2021.1.4,60.01415072553496,
G,right,Target,0,6,6,6,1237.162083843008,1239.1645520971979,left,0,2,0.9305716090457281,B09N05,2022-11-10_16h30.12.686,t1_Paradigm,2021.1.4,60.01415072553496,
Y,left,Pretarget,0,7,7,7,1240.663011764147,1242.6647043179692,left,1,2,0.5502721527736867,B09N05,2022-11-10_16h30.12.686,t1_Paradigm,2021.1.4,60.01415072553496,
P,left,Distractor,0,8,8,8,1244.162843824055,1246.164684588617,left,1,2,0.8102719667076599,B09N05,2022-11-10_16h30.12.686,t1_Paradigm,2021.1.4,60.01415072553496,
Y,right,Target,0,9,9,9,1247.663060846924,1249.6644589040807,left,0,2,0.510531784626437,B09N05,2022-11-10_16h30.12.686,t1_Paradigm,2021.1.4,60.01415072553496,
X,left,Distractor,0,10,10,10,1251.1630667817699,1253.1644022824457,left,1,2,0.930743238364812,B09N05,2022-11-10_16h30.12.686,t1_Paradigm,2021.1.4,60.01415072553496,
Y,right,Target,0,11,11,11,1254.662971663838,1256.6631291778504,right,1,2,1.2079002098998899,B09N05,2022-11-10_16h30.12.686,t1_Paradigm,2021.1.4,60.01415072553496,
N,left,Distractor,0,12,12,12,1258.1628999644872,1260.1645161673205,left,1,2,1.1947158700659202,B09N05,2022-11-10_16h30.12.686,t1_Paradigm,2021.1.4,60.01415072553496,
Y,right,Target,0,13,13,13,1261.6627570469864,1263.6647704032766,None,0,2,,B09N05,2022-11-10_16h30.12.686,t1_Paradigm,2021.1.4,60.01415072553496,
Y,left,Lure,0,14,14,14,1265.163138641523,1267.1630302102894,None,0,2,,B09N05,2022-11-10_16h30.12.686,t1_Paradigm,2021.1.4,60.01415072553496,
K,left,Distractor,0,15,15,15,1268.6629742302575,1270.6647501927218,None,0,2,,B09N05,2022-11-10_16h30.12.686,t1_Paradigm,2021.1.4,60.01415072553496,
T,left,Pretarget,0,16,16,16,1272.1630459296102,1274.1630821802883,left,1,2,0.6518706152310187,B09N05,2022-11-10_16h30.12.686,t1_Paradigm,2021.1.4,60.01415072553496,
J,left,Distractor,0,17,17,17,1275.6628738190848,1277.665610264139,left,1,2,1.1333960822958034,B09N05,2022-11-10_16h30.12.686,t1_Paradigm,2021.1.4,60.01415072553496,
T,right,Target,0,18,18,18,1279.1629657289923,1281.1759415472243,None,0,2,,B09N05,2022-11-10_16h30.12.686,t1_Paradigm,2021.1.4,60.01415072553496,
S,left,Pretarget,0,19,19,19,1282.6627548013694,1284.6639934196992,left,1,2,0.6631776190242817,B09N05,2022-11-10_16h30.12.686,t1_Paradigm,2021.1.4,60.01415072553496,
R,left,Distractor,0,20,20,20,1286.1629997340551,1288.164247334853,left,1,2,0.7308679022062279,B09N05,2022-11-10_16h30.12.686,t1_Paradigm,2021.1.4,60.01415072553496,
S,right,Target,0,21,21,21,1289.6630640549483,1291.6646895610556,right,1,2,0.9426026640085183,B09N05,2022-11-10_16h30.12.686,t1_Paradigm,2021.1.4,60.01415072553496,
Q,left,Distractor,0,22,22,22,1293.1631989523867,1295.1639416101007,left,1,2,0.6751172452823084,B09N05,2022-11-10_16h30.12.686,t1_Paradigm,2021.1.4,60.01415072553496,
D,left,Distractor,0,23,23,23,1296.6628911424195,1298.6650947345715,left,1,2,1.2060908839812328,B09N05,2022-11-10_16h30.12.686,t1_Paradigm,2021.1.4,60.01415072553496,
F,left,Distractor,0,24,24,24,1300.162725127142,1302.1645803278152,None,0,2,,B09N05,2022-11-10_16h30.12.686,t1_Paradigm,2021.1.4,60.01415072553496,
Z,left,Distractor,0,25,25,25,1303.6631166665538,1305.6639693595134,None,0,2,,B09N05,2022-11-10_16h30.12.686,t1_Paradigm,2021.1.4,60.01415072553496,
P,left,Distractor,0,26,26,26,1307.1631059196716,1309.1758530057414,left,1,2,0.3911615070392145,B09N05,2022-11-10_16h30.12.686,t1_Paradigm,2021.1.4,60.01415072553496,
H,left,Distractor,0,27,27,27,1310.6628568165543,1312.6641563873527,None,0,2,,B09N05,2022-11-10_16h30.12.686,t1_Paradigm,2021.1.4,60.01415072553496,
Z,left,Pretarget,0,28,28,28,1314.163072235413,1316.1639249283726,None,0,2,,B09N05,2022-11-10_16h30.12.686,t1_Paradigm,2021.1.4,60.01415072553496,
J,left,Pretarget,0,29,29,29,1317.6628147914307,1319.6759048153417,None,0,2,,B09N05,2022-11-10_16h30.12.686,t1_Paradigm,2021.1.4,60.01415072553496,
Z,right,Target,0,30,30,30,1321.1628752626966,1323.1657060236757,None,0,2,,B09N05,2022-11-10_16h30.12.686,t1_Paradigm,2021.1.4,60.01415072553496,
J,right,Target,0,31,31,31,1324.6631849974801,1326.662991232788,None,0,2,,B09N05,2022-11-10_16h30.12.686,t1_Paradigm,2021.1.4,60.01415072553496,
V,left,Pretarget,0,32,32,32,1328.1631328670792,1330.1651635467024,left,1,2,0.5379603956516803,B09N05,2022-11-10_16h30.12.686,t1_Paradigm,2021.1.4,60.01415072553496,
Z,left,Lure,0,33,33,33,1331.662751593345,1333.675713617069,left,1,2,0.8675448313442757,B09N05,2022-11-10_16h30.12.686,t1_Paradigm,2021.1.4,60.01415072553496,
V,right,Target,0,34,34,34,1335.163212105288,1337.1645873854686,left,0,2,0.7546053600308369,B09N05,2022-11-10_16h30.12.686,t1_Paradigm,2021.1.4,60.01415072553496,
X,left,Distractor,0,35,35,35,1338.663088115134,1340.663826281614,left,1,2,0.6794009206387273,B09N05,2022-11-10_16h30.12.686,t1_Paradigm,2021.1.4,60.01415072553496,
S,left,Distractor,0,36,36,36,1342.1631277342385,1344.16490465911,left,1,2,0.7942690563886572,B09N05,2022-11-10_16h30.12.686,t1_Paradigm,2021.1.4,60.01415072553496,
Q,left,Distractor,0,37,37,37,1345.6631888471093,1347.6652878576588,left,1,2,0.9739383282922063,B09N05,2022-11-10_16h30.12.686,t1_Paradigm,2021.1.4,60.01415072553496,
P,left,Distractor,0,38,38,38,1349.1629589921413,1351.165038433739,left,1,2,0.626044091732183,B09N05,2022-11-10_16h30.12.686,t1_Paradigm,2021.1.4,60.01415072553496,
S,left,Lure,0,39,39,39,1352.6631493884051,1354.6649269548816,right,0,2,0.758321535822688,B09N05,2022-11-10_16h30.12.686,t1_Paradigm,2021.1.4,60.01415072553496,
K,left,Pretarget,0,40,40,40,1356.1632788322022,1358.165551076083,left,1,2,1.1457421652812627,B09N05,2022-11-10_16h30.12.686,t1_Paradigm,2021.1.4,60.01415072553496,
L,left,Distractor,0,41,41,41,1359.663160616492,1361.6643931395738,left,1,2,0.6388178044071537,B09N05,2022-11-10_16h30.12.686,t1_Paradigm,2021.1.4,60.01415072553496,
K,right,Target,0,42,42,42,1363.1632339198568,1365.1650079575047,right,1,2,1.3943480379566608,B09N05,2022-11-10_16h30.12.686,t1_Paradigm,2021.1.4,60.01415072553496,
B,left,Distractor,0,43,43,43,1366.6631461803809,1368.675779381576,left,1,2,0.6037730219886726,B09N05,2022-11-10_16h30.12.686,t1_Paradigm,2021.1.4,60.01415072553496,
N,left,Distractor,0,44,44,44,1370.1629320447337,1372.164723084914,left,1,2,1.242749302815355,B09N05,2022-11-10_16h30.12.686,t1_Paradigm,2021.1.4,60.01415072553496,
S,left,Pretarget,0,45,45,45,1373.6632947119233,1375.664533330253,None,0,2,,B09N05,2022-11-10_16h30.12.686,t1_Paradigm,2021.1.4,60.01415072553496,
Z,left,Distractor,0,46,46,46,1377.1630687065845,1379.1637808880641,left,1,2,0.6593363302708894,B09N05,2022-11-10_16h30.12.686,t1_Paradigm,2021.1.4,60.01415072553496,
S,right,Target,0,47,47,47,1380.663202320813,1382.6655249306823,None,0,2,,B09N05,2022-11-10_16h30.12.686,t1_Paradigm,2021.1.4,60.01415072553496,
C,left,Distractor,0,48,48,48,1384.1632855690532,1386.1641491692972,left,1,2,0.9071286478847469,B09N05,2022-11-10_16h30.12.686,t1_Paradigm,2021.1.4,60.01415072553496,
T,left,Pretarget,0,49,49,49,1387.663131102665,1389.6650684287706,left,1,2,0.6701383909767173,B09N05,2022-11-10_16h30.12.686,t1_Paradigm,2021.1.4,60.01415072553496,
S,left,Lure,0,50,50,50,1391.1629634833753,1393.1649267944795,left,1,2,0.8023629026592971,B09N05,2022-11-10_16h30.12.686,t1_Paradigm,2021.1.4,60.01415072553496,
T,right,Target,0,51,51,51,1394.663156125258,1396.6633614388375,left,0,2,1.0162759132199426,B09N05,2022-11-10_16h30.12.686,t1_Paradigm,2021.1.4,60.01415072553496,
N,left,Pretarget,0,52,52,52,1398.1632842858435,1400.1759787603096,None,0,2,,B09N05,2022-11-10_16h30.12.686,t1_Paradigm,2021.1.4,60.01415072553496,
B,left,Distractor,0,53,53,53,1401.6632828422316,1403.6647620624135,None,0,2,,B09N05,2022-11-10_16h30.12.686,t1_Paradigm,2021.1.4,60.01415072553496,
N,right,Target,0,54,54,54,1405.1631668721402,1407.1652235367637,left,0,2,0.43398767412872985,B09N05,2022-11-10_16h30.12.686,t1_Paradigm,2021.1.4,60.01415072553496,
N,left,Lure,0,55,55,55,1408.6631394435299,1410.6629630021725,left,1,2,1.16034413122361,B09N05,2022-11-10_16h30.12.686,t1_Paradigm,2021.1.4,60.01415072553496,
X,left,Distractor,0,56,56,56,1412.1631120149177,1414.165106443863,None,0,2,,B09N05,2022-11-10_16h30.12.686,t1_Paradigm,2021.1.4,60.01415072553496,
W,left,Distractor,0,57,57,57,1415.6632950327257,1417.6650398773509,left,1,2,0.6701768872735556,B09N05,2022-11-10_16h30.12.686,t1_Paradigm,2021.1.4,60.01415072553496,
S,left,Distractor,0,58,58,58,1419.1633468423242,1421.1624489162168,left,1,2,1.3649144115042873,B09N05,2022-11-10_16h30.12.686,t1_Paradigm,2021.1.4,60.01415072553496,
L,left,Distractor,0,59,59,59,1422.6633309626031,1424.6651008298195,left,1,2,0.822228595498018,B09N05,2022-11-10_16h30.12.686,t1_Paradigm,2021.1.4,60.01415072553496,
K,left,Pretarget,0,60,60,60,1426.1630010172648,1428.1826729454115,left,1,2,0.712785871090091,B09N05,2022-11-10_16h30.12.686,t1_Paradigm,2021.1.4,60.01415072553496,
V,left,Pretarget,0,61,61,61,1429.6631461803809,1431.665548990868,left,1,2,0.4938523019027343,B09N05,2022-11-10_16h30.12.686,t1_Paradigm,2021.1.4,60.01415072553496,
K,right,Target,0,62,62,62,1433.1633615992378,1435.163941930903,right,1,2,0.9314701767598308,B09N05,2022-11-10_16h30.12.686,t1_Paradigm,2021.1.4,60.01415072553496,
V,right,Target,0,63,63,63,1436.6632735389612,1438.6631615788992,None,0,2,,B09N05,2022-11-10_16h30.12.686,t1_Paradigm,2021.1.4,60.01415072553496,
R,left,Distractor,0,0,0,0,1592.0094309509568,1593.9978432450062,None,0,3,,B09N05,2022-11-10_16h30.12.686,t1_Paradigm,2021.1.4,60.01415072553496,
P,left,Lure,0,1,1,1,1595.4967953437445,1597.4976156356552,None,0,3,,B09N05,2022-11-10_16h30.12.686,t1_Paradigm,2021.1.4,60.01415072553496,
V,left,Distractor,0,2,2,2,1598.9967817096385,1600.9975882070448,None,0,3,,B09N05,2022-11-10_16h30.12.686,t1_Paradigm,2021.1.4,60.01415072553496,
P,left,Pretarget,0,3,3,3,1602.496935534422,1604.497427966211,left,1,3,0.4621528476181993,B09N05,2022-11-10_16h30.12.686,t1_Paradigm,2021.1.4,60.01415072553496,
Z,left,Distractor,0,4,4,4,1605.9968112234656,1607.9985791658673,None,0,3,,B09N05,2022-11-10_16h30.12.686,t1_Paradigm,2021.1.4,60.01415072553496,
L,left,Pretarget,0,5,5,5,1609.4967719251636,1611.4977574303466,left,1,3,0.45372985801623145,B09N05,2022-11-10_16h30.12.686,t1_Paradigm,2021.1.4,60.01415072553496,
P,right,Target,0,6,6,6,1612.9965799248876,1614.999145382224,left,0,3,0.37651142072900257,B09N05,2022-11-10_16h30.12.686,t1_Paradigm,2021.1.4,60.01415072553496,
S,left,Distractor,0,7,7,7,1616.4967693587441,1618.4984651205905,left,1,3,0.7009947763726814,B09N05,2022-11-10_16h30.12.686,t1_Paradigm,2021.1.4,60.01415072553496,
L,right,Target,0,8,8,8,1619.9968381708732,1621.9988053316083,left,0,3,0.67284051016577,B09N05,2022-11-10_16h30.12.686,t1_Paradigm,2021.1.4,60.01415072553496,
D,left,Distractor,0,9,9,9,1623.4968466721384,1625.498118333122,left,1,3,0.48536771822546143,B09N05,2022-11-10_16h30.12.686,t1_Paradigm,2021.1.4,60.01415072553496,
G,left,Distractor,0,10,10,10,1626.9967849176646,1628.9979478266105,left,1,3,1.0175116443278966,B09N05,2022-11-10_16h30.12.686,t1_Paradigm,2021.1.4,60.01415072553496,
M,left,Pretarget,0,11,11,11,1630.4965993334354,1632.4982533909624,left,1,3,0.7816287975383602,B09N05,2022-11-10_16h30.12.686,t1_Paradigm,2021.1.4,60.01415072553496,
Y,left,Distractor,0,12,12,12,1633.9969328076022,1635.998354283338,left,1,3,0.5771839510216523,B09N05,2022-11-10_16h30.12.686,t1_Paradigm,2021.1.4,60.01415072553496,
V,left,Distractor,0,13,13,13,1637.496813950287,1639.4977776409014,left,1,3,0.5177280255920778,B09N05,2022-11-10_16h30.12.686,t1_Paradigm,2021.1.4,60.01415072553496,
M,right,Target,0,14,14,14,1640.9968506821697,1642.9989073467932,None,0,3,,B09N05,2022-11-10_16h30.12.686,t1_Paradigm,2021.1.4,60.01415072553496,
S,left,Pretarget,0,15,15,15,1644.4965807268927,1646.498336157998,left,1,3,0.42936298574750253,B09N05,2022-11-10_16h30.12.686,t1_Paradigm,2021.1.4,60.01415072553496,
Q,left,Distractor,0,16,16,16,1647.997003063343,1649.9983834763625,left,1,3,1.0413068465968536,B09N05,2022-11-10_16h30.12.686,t1_Paradigm,2021.1.4,60.01415072553496,
R,left,Pretarget,0,17,17,17,1651.4968052886215,1653.4986203889857,left,1,3,0.50094171564524,B09N05,2022-11-10_16h30.12.686,t1_Paradigm,2021.1.4,60.01415072553496,
S,right,Target,0,18,18,18,1654.996987023218,1656.99677529359,left,0,3,0.5068945262446505,B09N05,2022-11-10_16h30.12.686,t1_Paradigm,2021.1.4,60.01415072553496,
F,left,Distractor,0,19,19,19,1658.4969307223855,1660.4995388464522,left,1,3,0.4282356858730054,B09N05,2022-11-10_16h30.12.686,t1_Paradigm,2021.1.4,60.01415072553496,
R,right,Target,0,20,20,20,1661.9970466924788,1663.9976693700683,left,0,3,0.8178554162532237,B09N05,2022-11-10_16h30.12.686,t1_Paradigm,2021.1.4,60.01415072553496,
P,left,Distractor,0,21,21,21,1665.496981088374,1667.4981475261466,None,0,3,,B09N05,2022-11-10_16h30.12.686,t1_Paradigm,2021.1.4,60.01415072553496,
L,left,Distractor,0,22,22,22,1668.9968782711821,1670.9988178429048,left,1,3,1.176736495739533,B09N05,2022-11-10_16h30.12.686,t1_Paradigm,2021.1.4,60.01415072553496,
R,right,Target,0,23,23,23,1672.4969708226945,1674.4986996271946,right,1,3,0.9889457885528827,B09N05,2022-11-10_16h30.12.686,t1_Paradigm,2021.1.4,60.01415072553496,
H,left,Pretarget,0,24,24,24,1675.9967586118619,1677.9983042381537,left,1,3,0.8172503827972832,B09N05,2022-11-10_16h30.12.686,t1_Paradigm,2021.1.4,60.01415072553496,
G,left,Pretarget,0,25,25,25,1679.4967674339296,1681.4982264435548,left,1,3,0.7734662995408144,B09N05,2022-11-10_16h30.12.686,t1_Paradigm,2021.1.4,60.01415072553496,
T,left,Distractor,0,26,26,26,1682.9969219003178,1684.9981377416716,left,1,3,0.5694532531451841,B09N05,2022-11-10_16h30.12.686,t1_Paradigm,2021.1.4,60.01415072553496,
H,right,Target,0,27,27,27,1686.4968752235582,1688.498408017751,right,1,3,0.9733304076144123,B09N05,2022-11-10_16h30.12.686,t1_Paradigm,2021.1.4,60.01415072553496,
G,right,Target,0,28,28,28,1689.9966857897016,1691.9984380127826,right,1,3,0.9454520315284753,B09N05,2022-11-10_16h30.12.686,t1_Paradigm,2021.1.4,60.01415072553496,
D,left,Distractor,0,29,29,29,1693.4970154142375,1695.4987394067011,left,1,3,0.4689185716724751,B09N05,2022-11-10_16h30.12.686,t1_Paradigm,2021.1.4,60.01415072553496,
N,left,Pretarget,0,30,30,30,1696.9968590230346,1698.9987161485224,left,1,3,0.5209646016937768,B09N05,2022-11-10_16h30.12.686,t1_Paradigm,2021.1.4,60.01415072553496,
V,left,Distractor,0,31,31,31,1700.4970276047316,1702.4985700229972,left,1,3,0.4292301735258661,B09N05,2022-11-10_16h30.12.686,t1_Paradigm,2021.1.4,60.01415072553496,
R,left,Distractor,0,32,32,32,1703.996648255812,1705.9990786553117,left,1,3,0.6086450490711286,B09N05,2022-11-10_16h30.12.686,t1_Paradigm,2021.1.4,60.01415072553496,
N,right,Target,0,33,33,33,1707.4970535897319,1709.4988199281197,right,1,3,0.8368260702045518,B09N05,2022-11-10_16h30.12.686,t1_Paradigm,2021.1.4,60.01415072553496,
Z,left,Distractor,0,34,34,34,1710.9969350532192,1712.9983048797585,left,1,3,0.601307975823147,B09N05,2022-11-10_16h30.12.686,t1_Paradigm,2021.1.4,60.01415072553496,
N,left,Lure,0,35,35,35,1714.4970439656572,1716.4987775821955,left,1,3,1.0049284883170913,B09N05,2022-11-10_16h30.12.686,t1_Paradigm,2021.1.4,60.01415072553496,
Y,left,Pretarget,0,36,36,36,1717.9969263915518,1719.9995989969138,left,1,3,1.248006613663165,B09N05,2022-11-10_16h30.12.686,t1_Paradigm,2021.1.4,60.01415072553496,
Y,left,Lure,0,37,37,37,1721.4969525369543,1723.497182873125,left,1,3,1.014637575015513,B09N05,2022-11-10_16h30.12.686,t1_Paradigm,2021.1.4,60.01415072553496,
B,left,Distractor,0,38,38,38,1724.9969449980963,1726.999611187408,left,1,3,0.952074677683413,B09N05,2022-11-10_16h30.12.686,t1_Paradigm,2021.1.4,60.01415072553496,
Y,right,Target,0,39,39,39,1728.4969557449785,1730.4959115329439,left,0,3,1.0717834018723806,B09N05,2022-11-10_16h30.12.686,t1_Paradigm,2021.1.4,60.01415072553496,
J,left,Distractor,0,40,40,40,1731.9969706622924,1733.9977505330935,left,1,3,0.6420665710029425,B09N05,2022-11-10_16h30.12.686,t1_Paradigm,2021.1.4,60.01415072553496,
X,left,Distractor,0,41,41,41,1735.497078612323,1737.4983441780605,left,1,3,0.6135311914640624,B09N05,2022-11-10_16h30.12.686,t1_Paradigm,2021.1.4,60.01415072553496,
W,left,Pretarget,0,42,42,42,1738.9968792335894,1740.9982346240176,left,1,3,0.5534557964674605,B09N05,2022-11-10_16h30.12.686,t1_Paradigm,2021.1.4,60.01415072553496,
S,left,Pretarget,0,43,43,43,1742.4970471736815,1744.4988622740457,left,1,3,0.6048894145769736,B09N05,2022-11-10_16h30.12.686,t1_Paradigm,2021.1.4,60.01415072553496,
R,left,Distractor,0,44,44,44,1745.9969276747615,1747.998347546487,left,1,3,0.49746421689087583,B09N05,2022-11-10_16h30.12.686,t1_Paradigm,2021.1.4,60.01415072553496,
W,right,Target,0,45,45,45,1749.4969634442368,1751.4989376626272,right,1,3,0.9487691290505609,B09N05,2022-11-10_16h30.12.686,t1_Paradigm,2021.1.4,60.01415072553496,
S,right,Target,0,46,46,46,1752.9971041161207,1754.9984893411765,left,0,3,0.5052680577300634,B09N05,2022-11-10_16h30.12.686,t1_Paradigm,2021.1.4,60.01415072553496,
D,left,Distractor,0,47,47,47,1756.496965048249,1758.498498804849,left,1,3,0.7973580633552046,B09N05,2022-11-10_16h30.12.686,t1_Paradigm,2021.1.4,60.01415072553496,
T,left,Distractor,0,48,48,48,1759.9969597550098,1761.9985220630297,left,1,3,0.9772936013050639,B09N05,2022-11-10_16h30.12.686,t1_Paradigm,2021.1.4,60.01415072553496,
S,right,Target,0,49,49,49,1763.4970186222617,1765.509737477716,right,1,3,0.8260121398070623,B09N05,2022-11-10_16h30.12.686,t1_Paradigm,2021.1.4,60.01415072553496,
K,left,Distractor,0,50,50,50,1766.996161277666,1768.998411065375,left,1,3,1.0653968663373234,B09N05,2022-11-10_16h30.12.686,t1_Paradigm,2021.1.4,60.01415072553496,
S,left,Lure,0,51,51,51,1770.4971402063966,1772.499182434909,left,1,3,1.13252542439659,B09N05,2022-11-10_16h30.12.686,t1_Paradigm,2021.1.4,60.01415072553496,
T,left,Pretarget,0,52,52,52,1773.9971124569838,1775.998470093029,right,0,3,0.9777093613047327,B09N05,2022-11-10_16h30.12.686,t1_Paradigm,2021.1.4,60.01415072553496,
V,left,Distractor,0,53,53,53,1777.4970612889902,1779.498547246023,left,1,3,1.1733218742701865,B09N05,2022-11-10_16h30.12.686,t1_Paradigm,2021.1.4,60.01415072553496,
B,left,Distractor,0,54,54,54,1780.9970489380958,1782.9992143547552,left,1,3,1.2726480928449746,B09N05,2022-11-10_16h30.12.686,t1_Paradigm,2021.1.4,60.01415072553496,
T,right,Target,0,55,55,55,1784.497087594793,1786.4988757477495,right,1,3,1.08475889930196,B09N05,2022-11-10_16h30.12.686,t1_Paradigm,2021.1.4,60.01415072553496,
Y,left,Pretarget,0,56,56,56,1787.9969020105655,1789.9985814114862,left,1,3,1.08925109626216,B09N05,2022-11-10_16h30.12.686,t1_Paradigm,2021.1.4,60.01415072553496,
T,left,Lure,0,57,57,57,1791.4971386023844,1793.4990707956513,None,0,3,,B09N05,2022-11-10_16h30.12.686,t1_Paradigm,2021.1.4,60.01415072553496,
P,left,Pretarget,0,58,58,58,1794.9971361963671,1796.9982958972887,left,1,3,0.6493837544985581,B09N05,2022-11-10_16h30.12.686,t1_Paradigm,2021.1.4,60.01415072553496,
Y,right,Target,0,59,59,59,1798.4969958452875,1800.4990695124416,right,1,3,1.0527238856375334,B09N05,2022-11-10_16h30.12.686,t1_Paradigm,2021.1.4,60.01415072553496,
R,left,Distractor,0,60,60,60,1801.9970630534044,1803.9980081374742,left,1,3,0.6418968664984277,B09N05,2022-11-10_16h30.12.686,t1_Paradigm,2021.1.4,60.01415072553496,
P,right,Target,0,61,61,61,1805.4971004268918,1807.4990015023177,left,0,3,0.7408974705685978,B09N05,2022-11-10_16h30.12.686,t1_Paradigm,2021.1.4,60.01415072553496,
L,left,Distractor,0,62,62,62,1808.9970620909971,1810.9991177932116,left,1,3,0.3607715684320283,B09N05,2022-11-10_16h30.12.686,t1_Paradigm,2021.1.4,60.01415072553496,
V,left,Distractor,0,63,63,63,1812.49716394578,1814.4988346850332,right,0,3,0.5090435819765844,B09N05,2022-11-10_16h30.12.686,t1_Paradigm,2021.1.4,60.01415072553496,
H,left,Lure,0,0,0,0,1862.1957212650013,1864.198835294559,None,0,3,,B09N05,2022-11-10_16h30.12.686,t1_Paradigm,2021.1.4,60.01415072553496,
B,left,Distractor,0,1,1,1,1865.6972179689164,1867.6986368782327,None,0,3,,B09N05,2022-11-10_16h30.12.686,t1_Paradigm,2021.1.4,60.01415072553496,
T,left,Distractor,0,2,2,2,1869.1969136877742,1871.1977381501183,left,1,3,1.234118112410215,B09N05,2022-11-10_16h30.12.686,t1_Paradigm,2021.1.4,60.01415072553496,
R,left,Distractor,0,3,3,3,1872.6973026607666,1874.6988113947755,left,1,3,0.4850003993979044,B09N05,2022-11-10_16h30.12.686,t1_Paradigm,2021.1.4,60.01415072553496,
H,left,Pretarget,0,4,4,4,1876.1972239037623,1878.198983505299,left,1,3,0.4570440683146444,B09N05,2022-11-10_16h30.12.686,t1_Paradigm,2021.1.4,60.01415072553496,
K,left,Distractor,0,5,5,5,1879.696902940892,1881.6980145214438,left,1,3,0.44598921526267077,B09N05,2022-11-10_16h30.12.686,t1_Paradigm,2021.1.4,60.01415072553496,
G,left,Distractor,0,6,6,6,1883.1969261990707,1885.198447123572,left,1,3,0.5136557590631128,B09N05,2022-11-10_16h30.12.686,t1_Paradigm,2021.1.4,60.01415072553496,
H,right,Target,0,7,7,7,1886.6971913423113,1888.697742480952,right,1,3,0.8381519468057377,B09N05,2022-11-10_16h30.12.686,t1_Paradigm,2021.1.4,60.01415072553496,
Y,left,Pretarget,0,8,8,8,1890.1971183597489,1892.1991285080148,left,1,3,0.8248707246257254,B09N05,2022-11-10_16h30.12.686,t1_Paradigm,2021.1.4,60.01415072553496,
S,left,Distractor,0,9,9,9,1893.6971477131756,1895.6989041066881,left,1,3,0.42918205315436353,B09N05,2022-11-10_16h30.12.686,t1_Paradigm,2021.1.4,60.01415072553496,
P,left,Distractor,0,10,10,10,1897.197168404935,1899.1991329992488,left,1,3,0.6087881269722857,B09N05,2022-11-10_16h30.12.686,t1_Paradigm,2021.1.4,60.01415072553496,
Y,right,Target,0,11,11,11,1900.6973238337305,1902.6983256998374,left,0,3,0.4376076091775758,B09N05,2022-11-10_16h30.12.686,t1_Paradigm,2021.1.4,60.01415072553496,
H,left,Lure,0,12,12,12,1904.1969701490088,1906.19871338962,left,1,3,0.7453909507403296,B09N05,2022-11-10_16h30.12.686,t1_Paradigm,2021.1.4,60.01415072553496,
Q,left,Distractor,0,13,13,13,1907.6970460187931,1909.698496366751,left,1,3,1.1014114346198767,B09N05,2022-11-10_16h30.12.686,t1_Paradigm,2021.1.4,60.01415072553496,
V,left,Pretarget,0,14,14,14,1911.1970044748723,1913.198588597461,None,0,3,,B09N05,2022-11-10_16h30.12.686,t1_Paradigm,2021.1.4,60.01415072553496,
G,left,Distractor,0,15,15,15,1914.6971137081127,1916.6985518655783,left,1,3,1.1094465740388841,B09N05,2022-11-10_16h30.12.686,t1_Paradigm,2021.1.4,60.01415072553496,
Z,left,Pretarget,0,16,16,16,1918.1972264701817,1920.1996013708522,left,1,3,0.552112596533334,B09N05,2022-11-10_16h30.12.686,t1_Paradigm,2021.1.4,60.01415072553496,
V,right,Target,0,17,17,17,1921.697308435212,1923.6981271231107,right,1,3,0.7978825753889396,B09N05,2022-11-10_16h30.12.686,t1_Paradigm,2021.1.4,60.01415072553496,
N,left,Distractor,0,18,18,18,1925.196924915861,1927.1991034854218,left,1,3,0.7848518999362568,B09N05,2022-11-10_16h30.12.686,t1_Paradigm,2021.1.4,60.01415072553496,
Z,right,Target,0,19,19,19,1928.6972753925584,1930.6987616703918,left,0,3,1.3171571896800742,B09N05,2022-11-10_16h30.12.686,t1_Paradigm,2021.1.4,60.01415072553496,
R,left,Distractor,0,20,20,20,1932.1969913219727,1934.199245921718,None,0,3,,B09N05,2022-11-10_16h30.12.686,t1_Paradigm,2021.1.4,60.01415072553496,
P,left,Distractor,0,21,21,21,1935.6973405154586,1937.6979311128016,left,1,3,0.9261175875781191,B09N05,2022-11-10_16h30.12.686,t1_Paradigm,2021.1.4,60.01415072553496,
Z,right,Target,0,22,22,22,1939.197022439812,1941.1984301210414,right,1,3,0.7535284261466586,B09N05,2022-11-10_16h30.12.686,t1_Paradigm,2021.1.4,60.01415072553496,
D,left,Pretarget,0,23,23,23,1942.6973328161985,1944.6992800871813,left,1,3,0.8207221071079402,B09N05,2022-11-10_16h30.12.686,t1_Paradigm,2021.1.4,60.01415072553496,
K,left,Distractor,0,24,24,24,1946.1973320141933,1948.1974138188234,left,1,3,0.5703797306741762,B09N05,2022-11-10_16h30.12.686,t1_Paradigm,2021.1.4,60.01415072553496,
W,left,Distractor,0,25,25,25,1949.6971929463234,1951.6984630032948,None,0,3,,B09N05,2022-11-10_16h30.12.686,t1_Paradigm,2021.1.4,60.01415072553496,
D,right,Target,0,26,26,26,1953.1972267909841,1955.1988099511636,left,0,3,1.2652664280540193,B09N05,2022-11-10_16h30.12.686,t1_Paradigm,2021.1.4,60.01415072553496,
G,left,Pretarget,0,27,27,27,1956.6972898286695,1958.6986230837265,left,1,3,1.141449507456855,B09N05,2022-11-10_16h30.12.686,t1_Paradigm,2021.1.4,60.01415072553496,
V,left,Distractor,0,28,28,28,1960.1972178085143,1962.1992253903609,None,0,3,,B09N05,2022-11-10_16h30.12.686,t1_Paradigm,2021.1.4,60.01415072553496,
D,right,Target,0,29,29,29,1963.6971945503356,1965.6977286864458,left,0,3,0.8782686162467144,B09N05,2022-11-10_16h30.12.686,t1_Paradigm,2021.1.4,60.01415072553496,
G,right,Target,0,30,30,30,1967.1972620792549,1969.1981513436967,left,0,3,1.153890868774397,B09N05,2022-11-10_16h30.12.686,t1_Paradigm,2021.1.4,60.01415072553496,
B,left,Pretarget,0,31,31,31,1970.6972728261371,1972.698060075394,left,1,3,0.9338822905174311,B09N05,2022-11-10_16h30.12.686,t1_Paradigm,2021.1.4,60.01415072553496,
N,left,Distractor,0,32,32,32,1974.1969987004286,1976.1978587718459,left,1,3,0.9861570526973082,B09N05,2022-11-10_16h30.12.686,t1_Paradigm,2021.1.4,60.01415072553496,
F,left,Distractor,0,33,33,33,1977.697348535521,1979.6986067228008,left,1,3,0.8295794632522302,B09N05,2022-11-10_16h30.12.686,t1_Paradigm,2021.1.4,60.01415072553496,
B,right,Target,0,34,34,34,1981.1969653369724,1983.1991602674589,right,1,3,0.897057375201257,B09N05,2022-11-10_16h30.12.686,t1_Paradigm,2021.1.4,60.01415072553496,
Q,left,Pretarget,0,35,35,35,1984.697461137186,1986.6991508037863,left,1,3,0.7729979279374675,B09N05,2022-11-10_16h30.12.686,t1_Paradigm,2021.1.4,60.01415072553496,
S,left,Pretarget,0,36,36,36,1988.197189577897,1990.1981683462272,left,1,3,0.7140087700972799,B09N05,2022-11-10_16h30.12.686,t1_Paradigm,2021.1.4,60.01415072553496,
W,left,Distractor,0,37,37,37,1991.6969375875578,1993.698093438852,left,1,3,0.47813522657997964,B09N05,2022-11-10_16h30.12.686,t1_Paradigm,2021.1.4,60.01415072553496,
Q,right,Target,0,38,38,38,1995.1972540591942,1997.19854560993,left,0,3,0.4977048187429318,B09N05,2022-11-10_16h30.12.686,t1_Paradigm,2021.1.4,60.01415072553496,
S,right,Target,0,39,39,39,1998.6972112320636,2000.6989631343422,None,0,3,,B09N05,2022-11-10_16h30.12.686,t1_Paradigm,2021.1.4,60.01415072553496,
T,left,Distractor,0,40,40,40,2002.1972858186382,2004.1963603035165,left,1,3,1.2758355861678865,B09N05,2022-11-10_16h30.12.686,t1_Paradigm,2021.1.4,60.01415072553496,
G,left,Distractor,0,41,41,41,2005.6972673724958,2007.697939774469,None,0,3,,B09N05,2022-11-10_16h30.12.686,t1_Paradigm,2021.1.4,60.01415072553496,
D,left,Distractor,0,42,42,42,2009.197311482836,2011.199140056904,left,1,3,1.0730438347691234,B09N05,2022-11-10_16h30.12.686,t1_Paradigm,2021.1.4,60.01415072553496,
S,left,Lure,0,43,43,43,2012.6969680637922,2014.710048142826,left,1,3,1.0503906892863597,B09N05,2022-11-10_16h30.12.686,t1_Paradigm,2021.1.4,60.01415072553496,
Z,left,Pretarget,0,44,44,44,2016.1974333877733,2018.1981462108579,None,0,3,,B09N05,2022-11-10_16h30.12.686,t1_Paradigm,2021.1.4,60.01415072553496,
J,left,Distractor,0,45,45,45,2019.6972891870628,2021.6985438455158,None,0,3,,B09N05,2022-11-10_16h30.12.686,t1_Paradigm,2021.1.4,60.01415072553496,
M,left,Pretarget,0,46,46,46,2023.1974372374025,2025.196914329379,None,0,3,,B09N05,2022-11-10_16h30.12.686,t1_Paradigm,2021.1.4,60.01415072553496,
Z,right,Target,0,47,47,47,2026.6975342801488,2028.6990876057007,left,0,3,1.0611199278318963,B09N05,2022-11-10_16h30.12.686,t1_Paradigm,2021.1.4,60.01415072553496,
P,left,Distractor,0,48,48,48,2030.1973750017241,2032.1987310337572,left,1,3,0.4254533660678135,B09N05,2022-11-10_16h30.12.686,t1_Paradigm,2021.1.4,60.01415072553496,
M,right,Target,0,49,49,49,2033.6972632020643,2035.6980575089747,left,0,3,0.7661462288233452,B09N05,2022-11-10_16h30.12.686,t1_Paradigm,2021.1.4,60.01415072553496,
K,left,Distractor,0,50,50,50,2037.1974439742553,2039.1981118849926,left,1,3,0.6419469116826804,B09N05,2022-11-10_16h30.12.686,t1_Paradigm,2021.1.4,60.01415072553496,
Y,left,Distractor,0,51,51,51,2040.6973629716322,2042.6993942928602,left,1,3,0.6772784915083321,B09N05,2022-11-10_16h30.12.686,t1_Paradigm,2021.1.4,60.01415072553496,
X,left,Distractor,0,52,52,52,2044.1970747306132,2046.1982992336343,left,1,3,0.761977721551375,B09N05,2022-11-10_16h30.12.686,t1_Paradigm,2021.1.4,60.01415072553496,
F,left,Pretarget,0,53,53,53,2047.6972991319399,2049.6988152444046,left,1,3,0.5093573267913598,B09N05,2022-11-10_16h30.12.686,t1_Paradigm,2021.1.4,60.01415072553496,
M,left,Lure,0,54,54,54,2051.1971741793786,2053.1995866139387,right,0,3,0.832562284600499,B09N05,2022-11-10_16h30.12.686,t1_Paradigm,2021.1.4,60.01415072553496,
V,left,Distractor,0,55,55,55,2054.6974094879897,2056.6989762872436,None,0,3,,B09N05,2022-11-10_16h30.12.686,t1_Paradigm,2021.1.4,60.01415072553496,
F,right,Target,0,56,56,56,2058.1974728464775,2060.197971694315,left,0,3,0.45825188960589003,B09N05,2022-11-10_16h30.12.686,t1_Paradigm,2021.1.4,60.01415072553496,
S,left,Distractor,0,57,57,57,2061.6971255778044,2063.6987324773672,left,1,3,0.5255921772968577,B09N05,2022-11-10_16h30.12.686,t1_Paradigm,2021.1.4,60.01415072553496,
D,left,Distractor,0,58,58,58,2065.197165196909,2067.199172457953,left,1,3,0.6890323731386161,B09N05,2022-11-10_16h30.12.686,t1_Paradigm,2021.1.4,60.01415072553496,
F,right,Target,0,59,59,59,2068.697222139348,2070.699120327552,right,1,3,0.7891596354784269,B09N05,2022-11-10_16h30.12.686,t1_Paradigm,2021.1.4,60.01415072553496,
V,left,Pretarget,0,60,60,60,2072.1975456686378,2074.1995153957905,left,1,3,0.9526537261353951,B09N05,2022-11-10_16h30.12.686,t1_Paradigm,2021.1.4,60.01415072553496,
J,left,Distractor,0,61,61,61,2075.697528505705,2077.699152086996,None,0,3,,B09N05,2022-11-10_16h30.12.686,t1_Paradigm,2021.1.4,60.01415072553496,
V,left,Lure,0,62,62,62,2079.197437558205,2081.197916195488,left,1,3,0.48250519780231116,B09N05,2022-11-10_16h30.12.686,t1_Paradigm,2021.1.4,60.01415072553496,
V,right,Target,0,63,63,63,2082.6973049063854,2084.697558661137,None,0,3,,B09N05,2022-11-10_16h30.12.686,t1_Paradigm,2021.1.4,60.01415072553496,
R,left,Distractor,0,0,0,0,2382.454307302458,2384.448530612415,None,0,4,,B09N05,2022-11-10_16h30.12.686,t1_Paradigm,2021.1.4,60.01415072553496,
F,left,Distractor,0,1,1,1,2385.947813458497,2387.9490344326914,None,0,4,,B09N05,2022-11-10_16h30.12.686,t1_Paradigm,2021.1.4,60.01415072553496,
P,left,Pretarget,0,2,2,2,2389.4477882755036,2391.448910121735,None,0,4,,B09N05,2022-11-10_16h30.12.686,t1_Paradigm,2021.1.4,60.01415072553496,
H,left,Distractor,0,3,3,3,2392.9478189121382,2394.949485480962,left,1,4,0.7153208521940542,B09N05,2022-11-10_16h30.12.686,t1_Paradigm,2021.1.4,60.01415072553496,
Z,left,Distractor,0,4,4,4,2396.4479002355656,2398.449987697224,left,1,4,0.8947735824294796,B09N05,2022-11-10_16h30.12.686,t1_Paradigm,2021.1.4,60.01415072553496,
T,left,Distractor,0,5,5,5,2399.9477290874474,2401.9497992257748,left,1,4,0.6269118624095427,B09N05,2022-11-10_16h30.12.686,t1_Paradigm,2021.1.4,60.01415072553496,
P,right,Target,0,6,6,6,2403.4479146716767,2405.449367586054,None,0,4,,B09N05,2022-11-10_16h30.12.686,t1_Paradigm,2021.1.4,60.01415072553496,
G,left,Distractor,0,7,7,7,2406.9478336690536,2408.9499621934283,left,1,4,1.2112160242104437,B09N05,2022-11-10_16h30.12.686,t1_Paradigm,2021.1.4,60.01415072553496,
L,left,Distractor,0,8,8,8,2410.4479210877253,2412.449750303398,left,1,4,0.7189202558838588,B09N05,2022-11-10_16h30.12.686,t1_Paradigm,2021.1.4,60.01415072553496,
P,left,Lure,0,9,9,9,2413.947792285535,2415.9506015527477,left,1,4,1.0420154992516473,B09N05,2022-11-10_16h30.12.686,t1_Paradigm,2021.1.4,60.01415072553496,
Q,left,Pretarget,0,10,10,10,2417.4476997340225,2419.4496620827194,left,1,4,0.7113137085616472,B09N05,2022-11-10_16h30.12.686,t1_Paradigm,2021.1.4,60.01415072553496,
D,left,Distractor,0,11,11,11,2420.9479202857183,2422.949664167936,left,1,4,0.7311964039326995,B09N05,2022-11-10_16h30.12.686,t1_Paradigm,2021.1.4,60.01415072553496,
M,left,Pretarget,0,12,12,12,2424.4478473031577,2426.4498430153126,left,1,4,0.7028127639605373,B09N05,2022-11-10_16h30.12.686,t1_Paradigm,2021.1.4,60.01415072553496,
C,left,Distractor,0,13,13,13,2427.9477079144854,2429.9490989139867,left,1,4,0.5957478274467576,B09N05,2022-11-10_16h30.12.686,t1_Paradigm,2021.1.4,60.01415072553496,
Q,right,Target,0,14,14,14,2431.447736947108,2433.4487683270436,right,1,4,0.9039074703032384,B09N05,2022-11-10_16h30.12.686,t1_Paradigm,2021.1.4,60.01415072553496,
R,left,Distractor,0,15,15,15,2434.947635092325,2436.948795755654,left,1,4,0.6038557890260563,B09N05,2022-11-10_16h30.12.686,t1_Paradigm,2021.1.4,60.01415072553496,
M,right,Target,0,16,16,16,2438.4478335086515,2440.450342504755,left,0,4,0.9745080734737712,B09N05,2022-11-10_16h30.12.686,t1_Paradigm,2021.1.4,60.01415072553496,
S,left,Distractor,0,17,17,17,2441.947811854485,2443.9498149450956,left,1,4,0.738976505388564,B09N05,2022-11-10_16h30.12.686,t1_Paradigm,2021.1.4,60.01415072553496,
Z,left,Distractor,0,18,18,18,2445.4478251677865,2447.449816067905,left,1,4,0.7428967115502019,B09N05,2022-11-10_16h30.12.686,t1_Paradigm,2021.1.4,60.01415072553496,
L,left,Pretarget,0,19,19,19,2448.9478365562754,2450.9606041737043,left,1,4,0.9761290883470792,B09N05,2022-11-10_16h30.12.686,t1_Paradigm,2021.1.4,60.01415072553496,
M,right,Target,0,20,20,20,2452.4478357542685,2454.449901722164,right,1,4,0.8312370496059884,B09N05,2022-11-10_16h30.12.686,t1_Paradigm,2021.1.4,60.01415072553496,
P,left,Distractor,0,21,21,21,2455.947970651707,2457.949971817503,left,1,4,0.9629283875856345,B09N05,2022-11-10_16h30.12.686,t1_Paradigm,2021.1.4,60.01415072553496,
F,left,Distractor,0,22,22,22,2459.4478896490837,2461.4487840463644,left,1,4,0.6641053797611676,B09N05,2022-11-10_16h30.12.686,t1_Paradigm,2021.1.4,60.01415072553496,
L,right,Target,0,23,23,23,2462.9478080048557,2464.948555474606,right,1,4,1.05231069205729,B09N05,2022-11-10_16h30.12.686,t1_Paradigm,2021.1.4,60.01415072553496,
L,left,Lure,0,24,24,24,2466.4477109621093,2468.448019894886,left,1,4,0.7207289401994785,B09N05,2022-11-10_16h30.12.686,t1_Paradigm,2021.1.4,60.01415072553496,
V,left,Pretarget,0,25,25,25,2469.9479956743,2471.9495531702814,left,1,4,1.0432117716536595,B09N05,2022-11-10_16h30.12.686,t1_Paradigm,2021.1.4,60.01415072553496,
Z,left,Distractor,0,26,26,26,2473.4481058699475,2475.448298351428,left,1,4,0.6805959098310268,B09N05,2022-11-10_16h30.12.686,t1_Paradigm,2021.1.4,60.01415072553496,
H,left,Distractor,0,27,27,27,2476.947917719299,2478.9644878083836,left,1,4,0.9882586296662339,B09N05,2022-11-10_16h30.12.686,t1_Paradigm,2021.1.4,60.01415072553496,
X,left,Distractor,0,28,28,28,2480.4480506919226,2482.449828900004,left,1,4,0.8148972966937436,B09N05,2022-11-10_16h30.12.686,t1_Paradigm,2021.1.4,60.01415072553496,
V,right,Target,0,29,29,29,2483.947873127756,2485.949876539169,None,0,4,,B09N05,2022-11-10_16h30.12.686,t1_Paradigm,2021.1.4,60.01415072553496,
C,left,Distractor,0,30,30,30,2487.44769941322,2489.448585469636,left,1,4,0.71229215609128,B09N05,2022-11-10_16h30.12.686,t1_Paradigm,2021.1.4,60.01415072553496,
S,left,Pretarget,0,31,31,31,2490.947659152511,2492.9605839631477,left,1,4,0.528253875374503,B09N05,2022-11-10_16h30.12.686,t1_Paradigm,2021.1.4,60.01415072553496,
D,left,Distractor,0,32,32,32,2494.4480513335275,2496.4490358763014,left,1,4,0.8638873624022381,B09N05,2022-11-10_16h30.12.686,t1_Paradigm,2021.1.4,60.01415072553496,
V,left,Distractor,0,33,33,33,2497.9478721653486,2499.9488275150998,left,1,4,1.2679342213778,B09N05,2022-11-10_16h30.12.686,t1_Paradigm,2021.1.4,60.01415072553496,
R,left,Distractor,0,34,34,34,2501.4477751226023,2503.449477942104,left,1,4,0.9032940959841653,B09N05,2022-11-10_16h30.12.686,t1_Paradigm,2021.1.4,60.01415072553496,
S,right,Target,0,35,35,35,2504.9479324762124,2506.9486985525073,right,1,4,0.8920053779311274,B09N05,2022-11-10_16h30.12.686,t1_Paradigm,2021.1.4,60.01415072553496,
Y,left,Distractor,0,36,36,36,2508.4478351126636,2510.4487696102533,left,1,4,0.7200732199544291,B09N05,2022-11-10_16h30.12.686,t1_Paradigm,2021.1.4,60.01415072553496,
N,left,Pretarget,0,37,37,37,2511.9479433834967,2513.949260919233,left,1,4,0.7874459086924617,B09N05,2022-11-10_16h30.12.686,t1_Paradigm,2021.1.4,60.01415072553496,
Z,left,Pretarget,0,38,38,38,2515.4480952834656,2517.448634873217,left,1,4,1.4164708969601634,B09N05,2022-11-10_16h30.12.686,t1_Paradigm,2021.1.4,60.01415072553496,
P,left,Pretarget,0,39,39,39,2518.9479735389286,2520.949438002195,left,1,4,0.875342576935509,B09N05,2022-11-10_16h30.12.686,t1_Paradigm,2021.1.4,60.01415072553496,
M,left,Distractor,0,40,40,40,2522.447697809208,2524.4497769300033,left,1,4,0.7990461259414587,B09N05,2022-11-10_16h30.12.686,t1_Paradigm,2021.1.4,60.01415072553496,
N,right,Target,0,41,41,41,2525.9479982407192,2527.949947436515,left,0,4,0.9469601239325129,B09N05,2022-11-10_16h30.12.686,t1_Paradigm,2021.1.4,60.01415072553496,
Z,right,Target,0,42,42,42,2529.4481196644538,2531.449159706055,left,0,4,0.5036550629210979,B09N05,2022-11-10_16h30.12.686,t1_Paradigm,2021.1.4,60.01415072553496,
P,right,Target,0,43,43,43,2532.9477781702262,2534.950289411947,left,0,4,1.242514154606397,B09N05,2022-11-10_16h30.12.686,t1_Paradigm,2021.1.4,60.01415072553496,
X,left,Pretarget,0,44,44,44,2536.4479522055644,2538.4488174098205,left,1,4,0.5920451253587089,B09N05,2022-11-10_16h30.12.686,t1_Paradigm,2021.1.4,60.01415072553496,
Z,left,Lure,0,45,45,45,2539.9477685461516,2541.9497183835538,right,0,4,0.579240294842748,B09N05,2022-11-10_16h30.12.686,t1_Paradigm,2021.1.4,60.01415072553496,
R,left,Pretarget,0,46,46,46,2543.4477731977877,2545.448838261982,left,1,4,1.0801499302415323,B09N05,2022-11-10_16h30.12.686,t1_Paradigm,2021.1.4,60.01415072553496,
K,left,Distractor,0,47,47,47,2546.948083574176,2548.950230384293,left,1,4,0.7310574964631087,B09N05,2022-11-10_16h30.12.686,t1_Paradigm,2021.1.4,60.01415072553496,
X,right,Target,0,48,48,48,2550.4479461103183,2552.4480028923554,left,0,4,0.5610989152701222,B09N05,2022-11-10_16h30.12.686,t1_Paradigm,2021.1.4,60.01415072553496,
B,left,Distractor,0,49,49,49,2553.948092556644,2555.950077040712,left,1,4,0.5468790250688471,B09N05,2022-11-10_16h30.12.686,t1_Paradigm,2021.1.4,60.01415072553496,
R,right,Target,0,50,50,50,2557.4481203060586,2559.4488440364257,left,0,4,0.5839993994577526,B09N05,2022-11-10_16h30.12.686,t1_Paradigm,2021.1.4,60.01415072553496,
Y,left,Pretarget,0,51,51,51,2560.948057909978,2562.9498014713918,left,1,4,1.0990134361709352,B09N05,2022-11-10_16h30.12.686,t1_Paradigm,2021.1.4,60.01415072553496,
W,left,Pretarget,0,52,52,52,2564.4479493183426,2566.449132437845,left,1,4,0.7517518220774946,B09N05,2022-11-10_16h30.12.686,t1_Paradigm,2021.1.4,60.01415072553496,
Z,left,Distractor,0,53,53,53,2567.948100897509,2569.948794472444,None,0,4,,B09N05,2022-11-10_16h30.12.686,t1_Paradigm,2021.1.4,60.01415072553496,
Q,left,Distractor,0,54,54,54,2571.4481196644538,2573.4501076773486,left,1,4,1.1267256365754292,B09N05,2022-11-10_16h30.12.686,t1_Paradigm,2021.1.4,60.01415072553496,
Y,right,Target,0,55,55,55,2574.947992787076,2576.9502140233653,left,0,4,0.5866896489551436,B09N05,2022-11-10_16h30.12.686,t1_Paradigm,2021.1.4,60.01415072553496,
W,right,Target,0,56,56,56,2578.4479599048245,2580.4507935530255,left,0,4,0.8304234945462667,B09N05,2022-11-10_16h30.12.686,t1_Paradigm,2021.1.4,60.01415072553496,
H,left,Pretarget,0,57,57,57,2581.9479985615217,2583.9492913954673,left,1,4,0.9478644660903228,B09N05,2022-11-10_16h30.12.686,t1_Paradigm,2021.1.4,60.01415072553496,
M,left,Distractor,0,58,58,58,2585.4481571983415,2587.450271928212,left,1,4,0.7107446049849386,B09N05,2022-11-10_16h30.12.686,t1_Paradigm,2021.1.4,60.01415072553496,
R,left,Pretarget,0,59,59,59,2588.947858691645,2590.94863535442,right,0,4,0.7483660728303221,B09N05,2022-11-10_16h30.12.686,t1_Paradigm,2021.1.4,60.01415072553496,
J,left,Distractor,0,60,60,60,2592.448068336058,2594.450008870188,left,1,4,0.7668616183273116,B09N05,2022-11-10_16h30.12.686,t1_Paradigm,2021.1.4,60.01415072553496,
H,right,Target,0,61,61,61,2595.948210611952,2597.950303848058,None,0,4,,B09N05,2022-11-10_16h30.12.686,t1_Paradigm,2021.1.4,60.01415072553496,
Z,left,Distractor,0,62,62,62,2599.447849869577,2601.4503017628413,right,0,4,1.031022881878016,B09N05,2022-11-10_16h30.12.686,t1_Paradigm,2021.1.4,60.01415072553496,
R,right,Target,0,63,63,63,2602.948101539114,2604.9501325395395,left,0,4,0.7630655627217493,B09N05,2022-11-10_16h30.12.686,t1_Paradigm,2021.1.4,60.01415072553496,
J,left,Pretarget,0,0,0,0,2617.0127172514403,2619.0149307884712,None,0,4,,B09N05,2022-11-10_16h30.12.686,t1_Paradigm,2021.1.4,60.01415072553496,
G,left,Pretarget,0,1,1,1,2620.514480542208,2622.5168685957797,None,0,4,,B09N05,2022-11-10_16h30.12.686,t1_Paradigm,2021.1.4,60.01415072553496,
Z,left,Distractor,0,2,2,2,2624.0145378054476,2626.0165177982817,None,0,4,,B09N05,2022-11-10_16h30.12.686,t1_Paradigm,2021.1.4,60.01415072553496,
F,left,Distractor,0,3,3,3,2627.5148388785638,2629.5161846449173,left,1,4,0.38881355377634463,B09N05,2022-11-10_16h30.12.686,t1_Paradigm,2021.1.4,60.01415072553496,
J,right,Target,0,4,4,4,2631.0145528831636,2633.016121607232,right,1,4,1.0008504473426,B09N05,2022-11-10_16h30.12.686,t1_Paradigm,2021.1.4,60.01415072553496,
G,right,Target,0,5,5,5,2634.514948913811,2636.5159533463375,right,1,4,1.4209091991069727,B09N05,2022-11-10_16h30.12.686,t1_Paradigm,2021.1.4,60.01415072553496,
H,left,Distractor,0,6,6,6,2638.0148348685325,2640.0165976780954,left,1,4,0.6084772693811829,B09N05,2022-11-10_16h30.12.686,t1_Paradigm,2021.1.4,60.01415072553496,
P,left,Distractor,0,7,7,7,2641.5148985478227,2643.516650450101,left,1,4,0.5804676850857504,B09N05,2022-11-10_16h30.12.686,t1_Paradigm,2021.1.4,60.01415072553496,
G,left,Lure,0,8,8,8,2645.0148438510023,2647.01695954328,right,0,4,1.1442594162745081,B09N05,2022-11-10_16h30.12.686,t1_Paradigm,2021.1.4,60.01415072553496,
S,left,Distractor,0,9,9,9,2648.5149325528855,2650.5167505404715,left,1,4,0.7162354600295657,B09N05,2022-11-10_16h30.12.686,t1_Paradigm,2021.1.4,60.01415072553496,
R,left,Pretarget,0,10,10,10,2652.0148634199522,2654.0163339784667,left,1,4,1.0727814183501323,B09N05,2022-11-10_16h30.12.686,t1_Paradigm,2021.1.4,60.01415072553496,
T,left,Pretarget,0,11,11,11,2655.5146990086887,2657.516182078498,left,1,4,0.5809998963813996,B09N05,2022-11-10_16h30.12.686,t1_Paradigm,2021.1.4,60.01415072553496,
X,left,Distractor,0,12,12,12,2659.0148435302,2661.016106529516,left,1,4,0.568897623270459,B09N05,2022-11-10_16h30.12.686,t1_Paradigm,2021.1.4,60.01415072553496,
F,left,Pretarget,0,13,13,13,2662.514916833563,2664.5151503777597,left,1,4,0.7017765719883755,B09N05,2022-11-10_16h30.12.686,t1_Paradigm,2021.1.4,60.01415072553496,
R,right,Target,0,14,14,14,2666.014780973719,2668.016041406616,left,0,4,0.5131193773358973,B09N05,2022-11-10_16h30.12.686,t1_Paradigm,2021.1.4,60.01415072553496,
T,right,Target,0,15,15,15,2669.514966237144,2671.5167104401626,None,0,4,,B09N05,2022-11-10_16h30.12.686,t1_Paradigm,2021.1.4,60.01415072553496,
C,left,Distractor,0,16,16,16,2673.014914106743,2675.015620192975,left,1,4,1.0815720475820854,B09N05,2022-11-10_16h30.12.686,t1_Paradigm,2021.1.4,60.01415072553496,
F,right,Target,0,17,17,17,2676.5147416754153,2678.5175021806535,left,0,4,0.8918048763898696,B09N05,2022-11-10_16h30.12.686,t1_Paradigm,2021.1.4,60.01415072553496,
M,left,Distractor,0,18,18,18,2680.014931430076,2682.0153818367417,left,1,4,0.5458136400720832,B09N05,2022-11-10_16h30.12.686,t1_Paradigm,2021.1.4,60.01415072553496,
N,left,Distractor,0,19,19,19,2683.5149627083174,2685.517096365533,left,1,4,0.6120840515304735,B09N05,2022-11-10_16h30.12.686,t1_Paradigm,2021.1.4,60.01415072553496,
R,left,Lure,0,20,20,20,2687.0146224972996,2689.0155005336546,right,0,4,1.4015561486121442,B09N05,2022-11-10_16h30.12.686,t1_Paradigm,2021.1.4,60.01415072553496,
F,right,Target,0,21,21,21,2690.514815780787,2692.515559721709,left,0,4,0.9414708729018457,B09N05,2022-11-10_16h30.12.686,t1_Paradigm,2021.1.4,60.01415072553496,
P,left,Distractor,0,22,22,22,2694.014521444522,2696.01617325643,left,1,4,0.7847008019743953,B09N05,2022-11-10_16h30.12.686,t1_Paradigm,2021.1.4,60.01415072553496,
L,left,Pretarget,0,23,23,23,2697.514660512392,2699.5162565046703,left,1,4,0.7888997854806803,B09N05,2022-11-10_16h30.12.686,t1_Paradigm,2021.1.4,60.01415072553496,
T,left,Distractor,0,24,24,24,2701.0148419261877,2703.016316013529,left,1,4,0.968998932688919,B09N05,2022-11-10_16h30.12.686,t1_Paradigm,2021.1.4,60.01415072553496,
F,left,Distractor,0,25,25,25,2704.5148908485644,2706.5165397732508,left,1,4,1.0685715275612893,B09N05,2022-11-10_16h30.12.686,t1_Paradigm,2021.1.4,60.01415072553496,
V,left,Distractor,0,26,26,26,2708.014737023781,2710.015715471309,left,1,4,0.6093767995007511,B09N05,2022-11-10_16h30.12.686,t1_Paradigm,2021.1.4,60.01415072553496,
L,right,Target,0,27,27,27,2711.514615279244,2713.5159142084376,left,0,4,0.7093459062234615,B09N05,2022-11-10_16h30.12.686,t1_Paradigm,2021.1.4,60.01415072553496,
S,left,Pretarget,0,28,28,28,2715.014878497668,2717.0164353520468,left,1,4,0.6166702436130436,B09N05,2022-11-10_16h30.12.686,t1_Paradigm,2021.1.4,60.01415072553496,
W,left,Distractor,0,29,29,29,2718.5146646828234,2720.5164621390522,left,1,4,0.7968181528012792,B09N05,2022-11-10_16h30.12.686,t1_Paradigm,2021.1.4,60.01415072553496,
Q,left,Distractor,0,30,30,30,2722.01466805125,2724.016723753466,left,1,4,0.6244516282804398,B09N05,2022-11-10_16h30.12.686,t1_Paradigm,2021.1.4,60.01415072553496,
L,right,Target,0,31,31,31,2725.514846577824,2727.517244576273,left,0,4,0.5318295396846224,B09N05,2022-11-10_16h30.12.686,t1_Paradigm,2021.1.4,60.01415072553496,
S,right,Target,0,32,32,32,2729.014903199459,2731.0156214761846,right,1,4,0.649517529129298,B09N05,2022-11-10_16h30.12.686,t1_Paradigm,2021.1.4,60.01415072553496,
Z,left,Pretarget,0,33,33,33,2732.514853314675,2734.5160229604735,left,1,4,0.8292378086243843,B09N05,2022-11-10_16h30.12.686,t1_Paradigm,2021.1.4,60.01415072553496,
F,left,Distractor,0,34,34,34,2736.0147492142733,2738.0168995532185,left,1,4,0.8962412537221098,B09N05,2022-11-10_16h30.12.686,t1_Paradigm,2021.1.4,60.01415072553496,
V,left,Distractor,0,35,35,35,2739.5147285225157,2741.5165952720763,left,1,4,1.4608446151542012,B09N05,2022-11-10_16h30.12.686,t1_Paradigm,2021.1.4,60.01415072553496,
M,left,Distractor,0,36,36,36,2743.01481626199,2745.0163285248254,left,1,4,0.536787541828744,B09N05,2022-11-10_16h30.12.686,t1_Paradigm,2021.1.4,60.01415072553496,
Z,right,Target,0,37,37,37,2746.514711199181,2748.5166809263355,left,0,4,0.8764801424858888,B09N05,2022-11-10_16h30.12.686,t1_Paradigm,2021.1.4,60.01415072553496,
H,left,Pretarget,0,38,38,38,2750.0150449941502,2752.016852074452,left,1,4,0.8483688638116291,B09N05,2022-11-10_16h30.12.686,t1_Paradigm,2021.1.4,60.01415072553496,
L,left,Distractor,0,39,39,39,2753.514799099057,2755.5161673215844,left,1,4,1.1411338378275104,B09N05,2022-11-10_16h30.12.686,t1_Paradigm,2021.1.4,60.01415072553496,
G,left,Distractor,0,40,40,40,2757.0148778560633,2759.015219510693,left,1,4,1.257994798508662,B09N05,2022-11-10_16h30.12.686,t1_Paradigm,2021.1.4,60.01415072553496,
K,left,Distractor,0,41,41,41,2760.5149765028236,2762.531064425797,left,1,4,0.4781891213970084,B09N05,2022-11-10_16h30.12.686,t1_Paradigm,2021.1.4,60.01415072553496,
H,right,Target,0,42,42,42,2764.0147697456323,2766.0162650059356,left,0,4,1.169011572306772,B09N05,2022-11-10_16h30.12.686,t1_Paradigm,2021.1.4,60.01415072553496,
B,left,Distractor,0,43,43,43,2767.5149822772673,2769.5162330860912,left,1,4,0.7410347740242287,B09N05,2022-11-10_16h30.12.686,t1_Paradigm,2021.1.4,60.01415072553496,
Z,left,Distractor,0,44,44,44,2771.015035690878,2773.0171898794524,left,1,4,0.9039373049326969,B09N05,2022-11-10_16h30.12.686,t1_Paradigm,2021.1.4,60.01415072553496,
T,left,Pretarget,0,45,45,45,2774.515100653378,2776.5175929677534,left,1,4,0.6835193827246258,B09N05,2022-11-10_16h30.12.686,t1_Paradigm,2021.1.4,60.01415072553496,
H,right,Target,0,46,46,46,2778.015075791187,2780.0162746300102,left,0,4,0.8006847849483165,B09N05,2022-11-10_16h30.12.686,t1_Paradigm,2021.1.4,60.01415072553496,
F,left,Distractor,0,47,47,47,2781.514924532823,2783.5163219483748,left,1,4,0.8528520783020213,B09N05,2022-11-10_16h30.12.686,t1_Paradigm,2021.1.4,60.01415072553496,
R,left,Distractor,0,48,48,48,2785.014743760632,2787.015758779642,left,1,4,1.0976208326555934,B09N05,2022-11-10_16h30.12.686,t1_Paradigm,2021.1.4,60.01415072553496,
T,right,Target,0,49,49,49,2788.514734617762,2790.517169829298,left,0,4,0.715988121326518,B09N05,2022-11-10_16h30.12.686,t1_Paradigm,2021.1.4,60.01415072553496,
H,right,Target,0,50,50,50,2792.014960943903,2794.0171125660563,left,0,4,0.46421336187086126,B09N05,2022-11-10_16h30.12.686,t1_Paradigm,2021.1.4,60.01415072553496,
Y,left,Pretarget,0,51,51,51,2795.5148189888114,2797.516639542817,left,1,4,0.6127064083175355,B09N05,2022-11-10_16h30.12.686,t1_Paradigm,2021.1.4,60.01415072553496,
H,left,Distractor,0,52,52,52,2799.014950357421,2801.016815182169,right,0,4,0.8563629405143729,B09N05,2022-11-10_16h30.12.686,t1_Paradigm,2021.1.4,60.01415072553496,
S,left,Distractor,0,53,53,53,2802.5150506081936,2804.5156001428204,left,1,4,1.3097565975422185,B09N05,2022-11-10_16h30.12.686,t1_Paradigm,2021.1.4,60.01415072553496,
Q,left,Distractor,0,54,54,54,2806.014974417607,2808.0163859484674,left,1,4,0.6890323731404351,B09N05,2022-11-10_16h30.12.686,t1_Paradigm,2021.1.4,60.01415072553496,
Y,right,Target,0,55,55,55,2809.515014357514,2811.5159613664,left,0,4,0.8212803034020908,B09N05,2022-11-10_16h30.12.686,t1_Paradigm,2021.1.4,60.01415072553496,
R,left,Distractor,0,56,56,56,2813.01493592131,2815.0168087661186,left,1,4,0.5844491645184462,B09N05,2022-11-10_16h30.12.686,t1_Paradigm,2021.1.4,60.01415072553496,
H,left,Pretarget,0,57,57,57,2816.514919399984,2818.515747391153,left,1,4,1.29363466950781,B09N05,2022-11-10_16h30.12.686,t1_Paradigm,2021.1.4,60.01415072553496,
J,left,Distractor,0,58,58,58,2820.0151691447045,2822.015443430815,left,1,4,1.0259404083753907,B09N05,2022-11-10_16h30.12.686,t1_Paradigm,2021.1.4,60.01415072553496,
V,left,Distractor,0,59,59,59,2823.515057024242,2825.5169404555327,left,1,4,0.5162776776342071,B09N05,2022-11-10_16h30.12.686,t1_Paradigm,2021.1.4,60.01415072553496,
Y,left,Lure,0,60,60,60,2827.014762046372,2829.016668575441,left,1,4,0.9365664447668678,B09N05,2022-11-10_16h30.12.686,t1_Paradigm,2021.1.4,60.01415072553496,
H,right,Target,0,61,61,61,2830.514971369983,2832.5163928457187,right,1,4,0.7810718844539224,B09N05,2022-11-10_16h30.12.686,t1_Paradigm,2021.1.4,60.01415072553496,
L,left,Distractor,0,62,62,62,2834.0147870689652,2836.0167035429095,left,1,4,0.8323730111460463,B09N05,2022-11-10_16h30.12.686,t1_Paradigm,2021.1.4,60.01415072553496,
P,left,Distractor,0,63,63,63,2837.5151391496747,2839.516388675287,left,1,4,0.6130143786867848,B09N05,2022-11-10_16h30.12.686,t1_Paradigm,2021.1.4,60.01415072553496,
