Letter,CorrAnswer,Stimulus,nback_run.thisRepN,nback_run.thisTrialN,nback_run.thisN,nback_run.thisIndex,fixcross.started,nback_trial.started,trial_resp.keys,trial_resp.corr,currentlevel,trial_resp.rt,Participant,date,expName,psychopyVersion,frameRate,
H,left,Distractor,0,0,0,0,206.18428089171448,208.1203678188058,None,0,1,,B10L08,2023-01-25_16h26.01.542,t1_Paradigm,2021.1.4,59.972314730904046,
Q,left,Pretarget,0,1,1,1,209.62169417490804,211.62295011495917,None,0,1,,B10L08,2023-01-25_16h26.01.542,t1_Paradigm,2021.1.4,59.972314730904046,
Q,right,Target,0,2,2,2,213.11847701148508,215.11943813444668,None,0,1,,B10L08,2023-01-25_16h26.01.542,t1_Paradigm,2021.1.4,59.972314730904046,
T,left,Distractor,0,3,3,3,216.619405252236,218.622085874219,None,0,1,,B10L08,2023-01-25_16h26.01.542,t1_Paradigm,2021.1.4,59.972314730904046,
Q,left,Lure,0,4,4,4,220.11940316702203,222.12144443050784,None,0,1,,B10L08,2023-01-25_16h26.01.542,t1_Paradigm,2021.1.4,59.972314730904046,
L,left,Distractor,0,5,5,5,223.61940878105816,225.6216367513407,None,0,1,,B10L08,2023-01-25_16h26.01.542,t1_Paradigm,2021.1.4,59.972314730904046,
V,left,Pretarget,0,6,6,6,227.1194291519887,229.12204625516551,None,0,1,,B10L08,2023-01-25_16h26.01.542,t1_Paradigm,2021.1.4,59.972314730904046,
V,right,Target,0,7,7,7,230.61946780863673,232.61936675598918,None,0,1,,B10L08,2023-01-25_16h26.01.542,t1_Paradigm,2021.1.4,59.972314730904046,
K,left,Distractor,0,8,8,8,234.11915133740786,236.1219298040187,None,0,1,,B10L08,2023-01-25_16h26.01.542,t1_Paradigm,2021.1.4,59.972314730904046,
G,left,Pretarget,0,9,9,9,237.61895933737742,239.62094253569012,None,0,1,,B10L08,2023-01-25_16h26.01.542,t1_Paradigm,2021.1.4,59.972314730904046,
G,right,Target,0,10,10,10,241.11946315700698,243.11946283620455,None,0,1,,B10L08,2023-01-25_16h26.01.542,t1_Paradigm,2021.1.4,59.972314730904046,
G,right,Target,0,11,11,11,244.618903838621,246.61935969834394,None,0,1,,B10L08,2023-01-25_16h26.01.542,t1_Paradigm,2021.1.4,59.972314730904046,
P,left,Pretarget,0,12,12,12,248.1194448712895,250.12191312231244,None,0,1,,B10L08,2023-01-25_16h26.01.542,t1_Paradigm,2021.1.4,59.972314730904046,
P,right,Target,0,13,13,13,251.6194200091304,253.61903408425587,None,0,1,,B10L08,2023-01-25_16h26.01.542,t1_Paradigm,2021.1.4,59.972314730904046,
G,left,Lure,0,14,14,14,255.11942145273952,257.12121505703726,left,1,1,1.3570494808300282,B10L08,2023-01-25_16h26.01.542,t1_Paradigm,2021.1.4,59.972314730904046,
Y,left,Distractor,0,15,15,15,258.6194370116391,260.6226431073919,left,1,1,0.911607805370295,B10L08,2023-01-25_16h26.01.542,t1_Paradigm,2021.1.4,59.972314730904046,
B,left,Distractor,0,16,16,16,262.11853603906366,264.12140657586497,left,1,1,0.9486934855049185,B10L08,2023-01-25_16h26.01.542,t1_Paradigm,2021.1.4,59.972314730904046,
T,left,Pretarget,0,17,17,17,265.6193593775415,267.62084019983376,left,1,1,0.7773210269388073,B10L08,2023-01-25_16h26.01.542,t1_Paradigm,2021.1.4,59.972314730904046,
T,right,Target,0,18,18,18,269.11944294647765,271.11911540757774,right,1,1,1.023011773115286,B10L08,2023-01-25_16h26.01.542,t1_Paradigm,2021.1.4,59.972314730904046,
S,left,Distractor,0,19,19,19,272.6192759690066,274.6226623555149,left,1,1,1.1834365407012228,B10L08,2023-01-25_16h26.01.542,t1_Paradigm,2021.1.4,59.972314730904046,
T,left,Lure,0,20,20,20,276.1193986757935,278.11901114690954,left,1,1,1.1752175920146328,B10L08,2023-01-25_16h26.01.542,t1_Paradigm,2021.1.4,59.972314730904046,
J,left,Distractor,0,21,21,21,279.61942995399386,281.62035129749984,left,1,1,0.8738782755090142,B10L08,2023-01-25_16h26.01.542,t1_Paradigm,2021.1.4,59.972314730904046,
P,left,Distractor,0,22,22,22,283.11895981858015,285.1190881394032,left,1,1,1.2151856786258577,B10L08,2023-01-25_16h26.01.542,t1_Paradigm,2021.1.4,59.972314730904046,
F,left,Distractor,0,23,23,23,286.6194440692843,288.62234764869754,left,1,1,0.7678451757947187,B10L08,2023-01-25_16h26.01.542,t1_Paradigm,2021.1.4,59.972314730904046,
L,left,Distractor,0,24,24,24,290.1194070166466,292.12136294678476,left,1,1,0.7728852969039508,B10L08,2023-01-25_16h26.01.542,t1_Paradigm,2021.1.4,59.972314730904046,
W,left,Pretarget,0,25,25,25,293.6185711668886,295.6320464572709,left,1,1,0.6060438465829066,B10L08,2023-01-25_16h26.01.542,t1_Paradigm,2021.1.4,59.972314730904046,
W,right,Target,0,26,26,26,297.1195837785799,299.1194936332022,right,1,1,0.8467804466008602,B10L08,2023-01-25_16h26.01.542,t1_Paradigm,2021.1.4,59.972314730904046,
V,left,Distractor,0,27,27,27,300.619405252236,302.6216720395669,left,1,1,0.8808695147263279,B10L08,2023-01-25_16h26.01.542,t1_Paradigm,2021.1.4,59.972314730904046,
W,left,Lure,0,28,28,28,304.1194182447189,306.1216738039775,left,1,1,1.0124708591429226,B10L08,2023-01-25_16h26.01.542,t1_Paradigm,2021.1.4,59.972314730904046,
R,left,Pretarget,0,29,29,29,307.619428029182,309.62001188892464,left,1,1,0.6340864375470119,B10L08,2023-01-25_16h26.01.542,t1_Paradigm,2021.1.4,59.972314730904046,
R,right,Target,0,30,30,30,311.11936884120223,313.1194750266832,right,1,1,0.7186248370726389,B10L08,2023-01-25_16h26.01.542,t1_Paradigm,2021.1.4,59.972314730904046,
G,left,Distractor,0,31,31,31,314.619400440205,316.6220393579215,left,1,1,0.6882047820681692,B10L08,2023-01-25_16h26.01.542,t1_Paradigm,2021.1.4,59.972314730904046,
R,left,Lure,0,32,32,32,318.1194054126363,320.1192690717626,left,1,1,0.9830234759729137,B10L08,2023-01-25_16h26.01.542,t1_Paradigm,2021.1.4,59.972314730904046,
S,left,Distractor,0,33,33,33,321.61905076596304,323.6216633779113,left,1,1,0.7126004952542644,B10L08,2023-01-25_16h26.01.542,t1_Paradigm,2021.1.4,59.972314730904046,
R,left,Lure,0,34,34,34,325.119463157007,327.1204826659423,left,1,1,0.8616971006231324,B10L08,2023-01-25_16h26.01.542,t1_Paradigm,2021.1.4,59.972314730904046,
P,left,Pretarget,0,35,35,35,328.61936515197885,330.62144042048203,left,1,1,1.056787417630403,B10L08,2023-01-25_16h26.01.542,t1_Paradigm,2021.1.4,59.972314730904046,
P,right,Target,0,36,36,36,332.11943781364425,334.1194689314434,right,1,1,1.3506247780451304,B10L08,2023-01-25_16h26.01.542,t1_Paradigm,2021.1.4,59.972314730904046,
Y,left,Pretarget,0,37,37,37,335.6194094226621,337.6212963803582,left,1,1,0.8888571651295933,B10L08,2023-01-25_16h26.01.542,t1_Paradigm,2021.1.4,59.972314730904046,
Y,right,Target,0,38,38,38,339.11915262061575,341.1195622848418,right,1,1,1.4226839775728877,B10L08,2023-01-25_16h26.01.542,t1_Paradigm,2021.1.4,59.972314730904046,
J,left,Distractor,0,39,39,39,342.61915021460027,344.62081742288774,left,1,1,0.7853776497850049,B10L08,2023-01-25_16h26.01.542,t1_Paradigm,2021.1.4,59.972314730904046,
Y,left,Lure,0,40,40,40,346.11923025471333,348.1216577638752,left,1,1,0.692467920596755,B10L08,2023-01-25_16h26.01.542,t1_Paradigm,2021.1.4,59.972314730904046,
T,left,Distractor,0,41,41,41,349.61946043018906,351.6213608615717,left,1,1,1.0647670479829685,B10L08,2023-01-25_16h26.01.542,t1_Paradigm,2021.1.4,59.972314730904046,
V,left,Distractor,0,42,42,42,353.1193948261689,355.1189550065492,left,1,1,0.7031798220632481,B10L08,2023-01-25_16h26.01.542,t1_Paradigm,2021.1.4,59.972314730904046,
N,left,Pretarget,0,43,43,43,356.61937541764473,358.62284938311404,left,1,1,0.6872552079812522,B10L08,2023-01-25_16h26.01.542,t1_Paradigm,2021.1.4,59.972314730904046,
N,right,Target,0,44,44,44,360.1196681495212,362.11921581862134,right,1,1,0.7749567157825368,B10L08,2023-01-25_16h26.01.542,t1_Paradigm,2021.1.4,59.972314730904046,
N,right,Target,0,45,45,45,363.619461071793,365.619299708359,right,1,1,0.6832406910461941,B10L08,2023-01-25_16h26.01.542,t1_Paradigm,2021.1.4,59.972314730904046,
X,left,Distractor,0,46,46,46,367.1189694426421,369.12204914238373,left,1,1,0.652059693564297,B10L08,2023-01-25_16h26.01.542,t1_Paradigm,2021.1.4,59.972314730904046,
Z,left,Distractor,0,47,47,47,370.619423858755,372.62141186909867,left,1,1,0.6888191180059948,B10L08,2023-01-25_16h26.01.542,t1_Paradigm,2021.1.4,59.972314730904046,
H,left,Pretarget,0,48,48,48,374.11952603421014,376.12146175381895,left,1,1,0.852672297170102,B10L08,2023-01-25_16h26.01.542,t1_Paradigm,2021.1.4,59.972314730904046,
H,right,Target,0,49,49,49,377.6194091018606,379.6194989264359,right,1,1,0.6831996283826811,B10L08,2023-01-25_16h26.01.542,t1_Paradigm,2021.1.4,59.972314730904046,
K,left,Distractor,0,50,50,50,381.1194605905903,383.12166642553075,left,1,1,0.8764844714160063,B10L08,2023-01-25_16h26.01.542,t1_Paradigm,2021.1.4,59.972314730904046,
V,left,Pretarget,0,51,51,51,384.6194174427137,386.62064579378784,left,1,1,1.1215031372839803,B10L08,2023-01-25_16h26.01.542,t1_Paradigm,2021.1.4,59.972314730904046,
V,right,Target,0,52,52,52,388.1193601795467,390.1194281895823,right,1,1,0.45469232356026623,B10L08,2023-01-25_16h26.01.542,t1_Paradigm,2021.1.4,59.972314730904046,
R,left,Distractor,0,53,53,53,391.61927244018443,393.61859266062675,left,1,1,0.7477251124173563,B10L08,2023-01-25_16h26.01.542,t1_Paradigm,2021.1.4,59.972314730904046,
V,left,Lure,0,54,54,54,395.11944166326884,397.1191105955468,left,1,1,0.9269411812638282,B10L08,2023-01-25_16h26.01.542,t1_Paradigm,2021.1.4,59.972314730904046,
Y,left,Distractor,0,55,55,55,398.6191505354027,400.61911588878047,left,1,1,0.6751189453825646,B10L08,2023-01-25_16h26.01.542,t1_Paradigm,2021.1.4,59.972314730904046,
Q,left,Distractor,0,56,56,56,402.11938103167995,404.12120960340235,left,1,1,0.6290629981458551,B10L08,2023-01-25_16h26.01.542,t1_Paradigm,2021.1.4,59.972314730904046,
Z,left,Pretarget,0,57,57,57,405.6194501645232,407.6210766309496,left,1,1,0.5370819909103375,B10L08,2023-01-25_16h26.01.542,t1_Paradigm,2021.1.4,59.972314730904046,
Z,right,Target,0,58,58,58,409.1193434978395,411.1193948261689,right,1,1,0.6707326188643492,B10L08,2023-01-25_16h26.01.542,t1_Paradigm,2021.1.4,59.972314730904046,
B,left,Distractor,0,59,59,59,412.61941936752646,414.6215783653661,left,1,1,0.8485252889859112,B10L08,2023-01-25_16h26.01.542,t1_Paradigm,2021.1.4,59.972314730904046,
S,left,Pretarget,0,60,60,60,416.11949299159824,418.1190717784975,left,1,1,0.6151815723596883,B10L08,2023-01-25_16h26.01.542,t1_Paradigm,2021.1.4,59.972314730904046,
S,right,Target,0,61,61,61,419.6194119890788,421.6193667559892,right,1,1,0.7947765084354614,B10L08,2023-01-25_16h26.01.542,t1_Paradigm,2021.1.4,59.972314730904046,
T,left,Distractor,0,62,62,62,423.1192084401737,425.1212567613047,left,1,1,0.6049297010413284,B10L08,2023-01-25_16h26.01.542,t1_Paradigm,2021.1.4,59.972314730904046,
D,left,Distractor,0,63,63,63,426.61953389386053,428.6218587463636,left,1,1,0.7043950202532869,B10L08,2023-01-25_16h26.01.542,t1_Paradigm,2021.1.4,59.972314730904046,
R,left,Distractor,0,0,0,0,442.17772754730504,444.1712746139392,None,0,1,,B10L08,2023-01-25_16h26.01.542,t1_Paradigm,2021.1.4,59.972314730904046,
V,left,Distractor,0,1,1,1,445.66891206719447,447.67122087959433,left,1,1,0.8230099766224157,B10L08,2023-01-25_16h26.01.542,t1_Paradigm,2021.1.4,59.972314730904046,
N,left,Pretarget,0,2,2,2,449.16944668382075,451.17141255882325,left,1,1,0.6827270869534914,B10L08,2023-01-25_16h26.01.542,t1_Paradigm,2021.1.4,59.972314730904046,
N,right,Target,0,3,3,3,452.66937273894746,454.66942952091085,right,1,1,0.7047029902278155,B10L08,2023-01-25_16h26.01.542,t1_Paradigm,2021.1.4,59.972314730904046,
S,left,Distractor,0,4,4,4,456.16940562115815,458.1689366085511,left,1,1,0.6292567625869196,B10L08,2023-01-25_16h26.01.542,t1_Paradigm,2021.1.4,59.972314730904046,
N,left,Lure,0,5,5,5,459.6694170096307,461.6714672555736,left,1,1,0.9185980821812336,B10L08,2023-01-25_16h26.01.542,t1_Paradigm,2021.1.4,59.972314730904046,
Z,left,Distractor,0,6,6,6,463.16900173136855,465.17152323553273,left,1,1,0.9226068246789509,B10L08,2023-01-25_16h26.01.542,t1_Paradigm,2021.1.4,59.972314730904046,
L,left,Pretarget,0,7,7,7,466.66956939060765,468.6720389248385,left,1,1,0.638126939448739,B10L08,2023-01-25_16h26.01.542,t1_Paradigm,2021.1.4,59.972314730904046,
L,right,Target,0,8,8,8,470.16905819253043,472.16940145073113,right,1,1,0.8047136729364865,B10L08,2023-01-25_16h26.01.542,t1_Paradigm,2021.1.4,59.972314730904046,
H,left,Distractor,0,9,9,9,473.6695552753172,475.66917704969273,None,0,1,,B10L08,2023-01-25_16h26.01.542,t1_Paradigm,2021.1.4,59.972314730904046,
L,left,Lure,0,10,10,10,477.1695249595232,479.1706711852703,left,1,1,0.8912712006049333,B10L08,2023-01-25_16h26.01.542,t1_Paradigm,2021.1.4,59.972314730904046,
X,left,Pretarget,0,11,11,11,480.6694548642736,482.6717171603759,left,1,1,0.6225430171498374,B10L08,2023-01-25_16h26.01.542,t1_Paradigm,2021.1.4,59.972314730904046,
X,right,Target,0,12,12,12,484.1694062627621,486.169476518412,right,1,1,0.5968008977333739,B10L08,2023-01-25_16h26.01.542,t1_Paradigm,2021.1.4,59.972314730904046,
X,right,Target,0,13,13,13,487.66940161113234,489.66941476401644,right,1,1,0.5687079408453428,B10L08,2023-01-25_16h26.01.542,t1_Paradigm,2021.1.4,59.972314730904046,
R,left,Distractor,0,14,14,14,491.16957885426837,493.17161434331683,left,1,1,0.6185920190227989,B10L08,2023-01-25_16h26.01.542,t1_Paradigm,2021.1.4,59.972314730904046,
T,left,Distractor,0,15,15,15,494.6693512452093,496.6693506036054,right,0,1,0.5610369220703433,B10L08,2023-01-25_16h26.01.542,t1_Paradigm,2021.1.4,59.972314730904046,
V,left,Pretarget,0,16,16,16,498.16940754597,500.1711187041392,None,0,1,,B10L08,2023-01-25_16h26.01.542,t1_Paradigm,2021.1.4,59.972314730904046,
V,right,Target,0,17,17,17,501.6693756261657,503.6694179720371,right,1,1,0.5047210834636644,B10L08,2023-01-25_16h26.01.542,t1_Paradigm,2021.1.4,59.972314730904046,
N,left,Distractor,0,18,18,18,505.16931451337405,507.17120917031934,left,1,1,0.8112400699728823,B10L08,2023-01-25_16h26.01.542,t1_Paradigm,2021.1.4,59.972314730904046,
B,left,Distractor,0,19,19,19,508.6693762677696,510.6714650099593,left,1,1,0.6866883507464081,B10L08,2023-01-25_16h26.01.542,t1_Paradigm,2021.1.4,59.972314730904046,
V,left,Lure,0,20,20,20,512.16938412742,514.1688881674409,left,1,1,0.741304900860996,B10L08,2023-01-25_16h26.01.542,t1_Paradigm,2021.1.4,59.972314730904046,
P,left,Distractor,0,21,21,21,515.6693759469681,517.6719590451266,left,1,1,0.6943859960920236,B10L08,2023-01-25_16h26.01.542,t1_Paradigm,2021.1.4,59.972314730904046,
K,left,Pretarget,0,22,22,22,519.1695336211787,521.1712787843653,left,1,1,0.6028685478286206,B10L08,2023-01-25_16h26.01.542,t1_Paradigm,2021.1.4,59.972314730904046,
K,right,Target,0,23,23,23,522.6694616011164,524.6694144432149,right,1,1,0.6887459751378628,B10L08,2023-01-25_16h26.01.542,t1_Paradigm,2021.1.4,59.972314730904046,
J,left,Pretarget,0,24,24,24,526.1693629544843,528.1708983131266,left,1,1,0.5634204813504766,B10L08,2023-01-25_16h26.01.542,t1_Paradigm,2021.1.4,59.972314730904046,
J,right,Target,0,25,25,25,529.6695562377236,531.6694490898362,right,1,1,0.4405805618980594,B10L08,2023-01-25_16h26.01.542,t1_Paradigm,2021.1.4,59.972314730904046,
H,left,Distractor,0,26,26,26,533.1694370597597,535.1713461527979,left,1,1,0.7149304805898282,B10L08,2023-01-25_16h26.01.542,t1_Paradigm,2021.1.4,59.972314730904046,
J,left,Lure,0,27,27,27,536.6695094006236,538.6710235863302,left,1,1,0.8953229305780042,B10L08,2023-01-25_16h26.01.542,t1_Paradigm,2021.1.4,59.972314730904046,
V,left,Distractor,0,28,28,28,540.1692763379287,542.1713204886328,left,1,1,0.947416372517182,B10L08,2023-01-25_16h26.01.542,t1_Paradigm,2021.1.4,59.972314730904046,
Z,left,Pretarget,0,29,29,29,543.6689611499087,545.6716048796561,left,1,1,0.9346490922753219,B10L08,2023-01-25_16h26.01.542,t1_Paradigm,2021.1.4,59.972314730904046,
Z,right,Target,0,30,30,30,547.1693767489733,549.1694101123867,right,1,1,0.8131812432175138,B10L08,2023-01-25_16h26.01.542,t1_Paradigm,2021.1.4,59.972314730904046,
T,left,Distractor,0,31,31,31,550.6694529394617,552.6718188546274,left,1,1,0.8944590106402757,B10L08,2023-01-25_16h26.01.542,t1_Paradigm,2021.1.4,59.972314730904046,
Z,left,Lure,0,32,32,32,554.1691807389161,556.1689491198313,left,1,1,1.3336238730626064,B10L08,2023-01-25_16h26.01.542,t1_Paradigm,2021.1.4,59.972314730904046,
F,left,Distractor,0,33,33,33,557.6694314457236,559.6714428746172,left,1,1,0.694905374622067,B10L08,2023-01-25_16h26.01.542,t1_Paradigm,2021.1.4,59.972314730904046,
Y,left,Pretarget,0,34,34,34,561.169415886824,563.1710404284377,left,1,1,0.7632737464891761,B10L08,2023-01-25_16h26.01.542,t1_Paradigm,2021.1.4,59.972314730904046,
Y,right,Target,0,35,35,35,564.6694580722942,566.6693897414561,right,1,1,0.8333407652471578,B10L08,2023-01-25_16h26.01.542,t1_Paradigm,2021.1.4,59.972314730904046,
Y,right,Target,0,36,36,36,568.1695839871018,570.1695743630398,right,1,1,0.6926883116084355,B10L08,2023-01-25_16h26.01.542,t1_Paradigm,2021.1.4,59.972314730904046,
W,left,Distractor,0,37,37,37,571.6692315860428,573.6696560071632,left,1,1,0.7284808386539225,B10L08,2023-01-25_16h26.01.542,t1_Paradigm,2021.1.4,59.972314730904046,
Q,left,Distractor,0,38,38,38,575.1693411399447,577.1714587543192,left,1,1,0.8746700149840763,B10L08,2023-01-25_16h26.01.542,t1_Paradigm,2021.1.4,59.972314730904046,
P,left,Pretarget,0,39,39,39,578.6690249895182,580.6706235461652,left,1,1,0.7675404138408339,B10L08,2023-01-25_16h26.01.542,t1_Paradigm,2021.1.4,59.972314730904046,
P,right,Target,0,40,40,40,582.1694656111422,584.168905490752,right,1,1,0.9654114430732079,B10L08,2023-01-25_16h26.01.542,t1_Paradigm,2021.1.4,59.972314730904046,
J,left,Distractor,0,41,41,41,585.6694205384538,587.6716016716355,left,1,1,0.9984633581498201,B10L08,2023-01-25_16h26.01.542,t1_Paradigm,2021.1.4,59.972314730904046,
P,left,Lure,0,42,42,42,589.1690392652099,591.1704976313586,left,1,1,0.8117876790838636,B10L08,2023-01-25_16h26.01.542,t1_Paradigm,2021.1.4,59.972314730904046,
L,left,Distractor,0,43,43,43,592.6694061023609,594.6708522780318,left,1,1,0.9273242189192388,B10L08,2023-01-25_16h26.01.542,t1_Paradigm,2021.1.4,59.972314730904046,
Z,left,Distractor,0,44,44,44,596.1695278467414,598.1690107138265,left,1,1,1.0291618693390774,B10L08,2023-01-25_16h26.01.542,t1_Paradigm,2021.1.4,59.972314730904046,
F,left,Pretarget,0,45,45,45,599.6694061023609,601.6711127693015,left,1,1,0.6474568256571729,B10L08,2023-01-25_16h26.01.542,t1_Paradigm,2021.1.4,59.972314730904046,
F,right,Target,0,46,46,46,603.1693988843144,605.1694457214153,right,1,1,0.7006910397094543,B10L08,2023-01-25_16h26.01.542,t1_Paradigm,2021.1.4,59.972314730904046,
G,left,Pretarget,0,47,47,47,606.6692168291474,608.6716507543506,left,1,1,0.7345885890063073,B10L08,2023-01-25_16h26.01.542,t1_Paradigm,2021.1.4,59.972314730904046,
G,right,Target,0,48,48,48,610.1694171700319,612.1694239068747,right,1,1,0.9172564879809215,B10L08,2023-01-25_16h26.01.542,t1_Paradigm,2021.1.4,59.972314730904046,
V,left,Distractor,0,49,49,49,613.6690477664642,615.6714050199753,left,1,1,0.8228928838725551,B10L08,2023-01-25_16h26.01.542,t1_Paradigm,2021.1.4,59.972314730904046,
G,left,Lure,0,50,50,50,617.1693870146382,619.1716752957082,left,1,1,1.0504307248811529,B10L08,2023-01-25_16h26.01.542,t1_Paradigm,2021.1.4,59.972314730904046,
Q,left,Pretarget,0,51,51,51,620.668926182484,622.6692867639968,left,1,1,0.6888919400735176,B10L08,2023-01-25_16h26.01.542,t1_Paradigm,2021.1.4,59.972314730904046,
Q,right,Target,0,52,52,52,624.1694720271835,626.1694684983604,right,1,1,0.8366414976080705,B10L08,2023-01-25_16h26.01.542,t1_Paradigm,2021.1.4,59.972314730904046,
Y,left,Distractor,0,53,53,53,627.6694044983515,629.6711162981237,left,1,1,0.7750997934999759,B10L08,2023-01-25_16h26.01.542,t1_Paradigm,2021.1.4,59.972314730904046,
V,left,Distractor,0,54,54,54,631.1694197364477,633.1687993052719,None,0,1,,B10L08,2023-01-25_16h26.01.542,t1_Paradigm,2021.1.4,59.972314730904046,
B,left,Distractor,0,55,55,55,634.6694725083862,636.6701830849424,left,1,1,1.056075237063851,B10L08,2023-01-25_16h26.01.542,t1_Paradigm,2021.1.4,59.972314730904046,
J,left,Pretarget,0,56,56,56,638.1695243179192,640.1708514760257,left,1,1,0.6914413540162059,B10L08,2023-01-25_16h26.01.542,t1_Paradigm,2021.1.4,59.972314730904046,
J,right,Target,0,57,57,57,641.6695418016307,643.6694564682848,right,1,1,0.6330476804887439,B10L08,2023-01-25_16h26.01.542,t1_Paradigm,2021.1.4,59.972314730904046,
H,left,Distractor,0,58,58,58,645.1694466838208,647.1689269844892,left,1,1,0.7973570401773031,B10L08,2023-01-25_16h26.01.542,t1_Paradigm,2021.1.4,59.972314730904046,
J,left,Lure,0,59,59,59,648.6694086687776,650.6710556665357,left,1,1,1.3271016464532295,B10L08,2023-01-25_16h26.01.542,t1_Paradigm,2021.1.4,59.972314730904046,
D,left,Pretarget,0,60,60,60,652.1694235860732,654.171502062597,left,1,1,0.578843361017789,B10L08,2023-01-25_16h26.01.542,t1_Paradigm,2021.1.4,59.972314730904046,
D,right,Target,0,61,61,61,655.669528327945,657.6695135710497,right,1,1,0.8407814481452078,B10L08,2023-01-25_16h26.01.542,t1_Paradigm,2021.1.4,59.972314730904046,
R,left,Distractor,0,62,62,62,659.1694396261764,661.1714218620828,left,1,1,0.7789263204304007,B10L08,2023-01-25_16h26.01.542,t1_Paradigm,2021.1.4,59.972314730904046,
F,left,Distractor,0,63,63,63,662.6694182928395,664.6703142929828,left,1,1,0.5759702577997814,B10L08,2023-01-25_16h26.01.542,t1_Paradigm,2021.1.4,59.972314730904046,
F,left,Distractor,0,0,0,0,784.1300765722435,786.119412791083,None,0,2,,B10L08,2023-01-25_16h26.01.542,t1_Paradigm,2021.1.4,59.972314730904046,
N,left,Pretarget,0,1,1,1,787.6194479189098,789.6210041296845,None,0,2,,B10L08,2023-01-25_16h26.01.542,t1_Paradigm,2021.1.4,59.972314730904046,
V,left,Distractor,0,2,2,2,791.1195366206784,793.1217787062496,left,1,2,0.764368643907801,B10L08,2023-01-25_16h26.01.542,t1_Paradigm,2021.1.4,59.972314730904046,
N,right,Target,0,3,3,3,794.6191463649766,796.620118395208,right,1,2,1.1221736135812534,B10L08,2023-01-25_16h26.01.542,t1_Paradigm,2021.1.4,59.972314730904046,
N,left,Lure,0,4,4,4,798.119522505388,800.1194496833205,None,0,2,,B10L08,2023-01-25_16h26.01.542,t1_Paradigm,2021.1.4,59.972314730904046,
X,left,Distractor,0,5,5,5,801.6194578637724,803.6211176936131,None,0,2,,B10L08,2023-01-25_16h26.01.542,t1_Paradigm,2021.1.4,59.972314730904046,
G,left,Pretarget,0,6,6,6,805.1194554577569,807.1214742650982,left,1,2,0.7006897565006511,B10L08,2023-01-25_16h26.01.542,t1_Paradigm,2021.1.4,59.972314730904046,
H,left,Pretarget,0,7,7,7,808.619507908893,810.6219341348469,left,1,2,0.6243520199459454,B10L08,2023-01-25_16h26.01.542,t1_Paradigm,2021.1.4,59.972314730904046,
G,right,Target,0,8,8,8,812.1194182447189,814.1193470266617,right,1,2,0.5348857800308906,B10L08,2023-01-25_16h26.01.542,t1_Paradigm,2021.1.4,59.972314730904046,
H,right,Target,0,9,9,9,815.6189352772226,817.6195380642866,right,1,2,0.5385820613264514,B10L08,2023-01-25_16h26.01.542,t1_Paradigm,2021.1.4,59.972314730904046,
T,left,Pretarget,0,10,10,10,819.119356971526,821.1197987159585,left,1,2,0.7184131077156053,B10L08,2023-01-25_16h26.01.542,t1_Paradigm,2021.1.4,59.972314730904046,
K,left,Distractor,0,11,11,11,822.619392099351,824.620865863998,left,1,2,0.6413609449809883,B10L08,2023-01-25_16h26.01.542,t1_Paradigm,2021.1.4,59.972314730904046,
T,right,Target,0,12,12,12,826.1189043198237,828.1216648215204,right,1,2,0.580928253582897,B10L08,2023-01-25_16h26.01.542,t1_Paradigm,2021.1.4,59.972314730904046,
T,left,Lure,0,13,13,13,829.6194447108892,831.619530044235,left,1,2,1.3226534051373164,B10L08,2023-01-25_16h26.01.542,t1_Paradigm,2021.1.4,59.972314730904046,
J,left,Distractor,0,14,14,14,833.1194525705387,835.121258365315,left,1,2,0.6049527987906913,B10L08,2023-01-25_16h26.01.542,t1_Paradigm,2021.1.4,59.972314730904046,
Q,left,Pretarget,0,15,15,15,836.6194536933463,838.6200189465699,left,1,2,0.5784840627129597,B10L08,2023-01-25_16h26.01.542,t1_Paradigm,2021.1.4,59.972314730904046,
M,left,Distractor,0,16,16,16,840.1192639389292,842.1205291822398,left,1,2,0.7737148910218821,B10L08,2023-01-25_16h26.01.542,t1_Paradigm,2021.1.4,59.972314730904046,
Q,right,Target,0,17,17,17,843.6193840792994,845.6210849718036,right,1,2,0.7292575004321407,B10L08,2023-01-25_16h26.01.542,t1_Paradigm,2021.1.4,59.972314730904046,
R,left,Distractor,0,18,18,18,847.1194650818188,849.1214020846355,left,1,2,0.9249528501168243,B10L08,2023-01-25_16h26.01.542,t1_Paradigm,2021.1.4,59.972314730904046,
W,left,Distractor,0,19,19,19,850.6193805504781,852.6190167609448,left,1,2,0.6272183863202372,B10L08,2023-01-25_16h26.01.542,t1_Paradigm,2021.1.4,59.972314730904046,
C,left,Pretarget,0,20,20,20,854.119039698292,856.1191006506824,left,1,2,0.7272755853282433,B10L08,2023-01-25_16h26.01.542,t1_Paradigm,2021.1.4,59.972314730904046,
T,left,Distractor,0,21,21,21,857.6193712472168,859.6213050420147,left,1,2,0.9689428321125888,B10L08,2023-01-25_16h26.01.542,t1_Paradigm,2021.1.4,59.972314730904046,
C,right,Target,0,22,22,22,861.1185979538614,863.1188664651809,right,1,2,0.4953626458718645,B10L08,2023-01-25_16h26.01.542,t1_Paradigm,2021.1.4,59.972314730904046,
F,left,Pretarget,0,23,23,23,864.6194235379526,866.6322456753487,left,1,2,0.6301023968080699,B10L08,2023-01-25_16h26.01.542,t1_Paradigm,2021.1.4,59.972314730904046,
C,right,Target,0,24,24,24,868.1194596281848,870.1211124003794,right,1,2,0.7730835525744624,B10L08,2023-01-25_16h26.01.542,t1_Paradigm,2021.1.4,59.972314730904046,
F,right,Target,0,25,25,25,871.6195172121525,873.6194578637724,right,1,2,0.9868493612993916,B10L08,2023-01-25_16h26.01.542,t1_Paradigm,2021.1.4,59.972314730904046,
H,left,Distractor,0,26,26,26,875.1195690216855,877.1202199290574,left,1,2,0.7179649472418532,B10L08,2023-01-25_16h26.01.542,t1_Paradigm,2021.1.4,59.972314730904046,
H,left,Lure,0,27,27,27,878.6194437484819,880.6193709264162,left,1,2,0.8349810261624953,B10L08,2023-01-25_16h26.01.542,t1_Paradigm,2021.1.4,59.972314730904046,
P,left,Distractor,0,28,28,28,882.119427227176,884.1212189066619,left,1,2,1.237062774867809,B10L08,2023-01-25_16h26.01.542,t1_Paradigm,2021.1.4,59.972314730904046,
G,left,Pretarget,0,29,29,29,885.6185766205244,887.6217262551136,left,1,2,0.7607833601250604,B10L08,2023-01-25_16h26.01.542,t1_Paradigm,2021.1.4,59.972314730904046,
K,left,Distractor,0,30,30,30,889.1193945053665,891.1210206509904,None,0,2,,B10L08,2023-01-25_16h26.01.542,t1_Paradigm,2021.1.4,59.972314730904046,
G,right,Target,0,31,31,31,892.6190170817472,894.6213550871353,right,1,2,0.5928450875726412,B10L08,2023-01-25_16h26.01.542,t1_Paradigm,2021.1.4,59.972314730904046,
M,left,Pretarget,0,32,32,32,896.1194115078752,898.1213590971611,left,1,2,0.6769070960453973,B10L08,2023-01-25_16h26.01.542,t1_Paradigm,2021.1.4,59.972314730904046,
B,left,Distractor,0,33,33,33,899.6196192272064,901.6193269765345,left,1,2,0.5708297256478545,B10L08,2023-01-25_16h26.01.542,t1_Paradigm,2021.1.4,59.972314730904046,
M,right,Target,0,34,34,34,903.1192363499531,905.1185103748985,right,1,2,0.44786212697545125,B10L08,2023-01-25_16h26.01.542,t1_Paradigm,2021.1.4,59.972314730904046,
M,left,Lure,0,35,35,35,906.6194434276795,908.6191713875369,left,1,2,0.8029980235387484,B10L08,2023-01-25_16h26.01.542,t1_Paradigm,2021.1.4,59.972314730904046,
T,left,Distractor,0,36,36,36,910.1193264953299,912.1189643098087,left,1,2,1.3352253169286996,B10L08,2023-01-25_16h26.01.542,t1_Paradigm,2021.1.4,59.972314730904046,
F,left,Distractor,0,37,37,37,913.6195460843383,915.6215716285233,None,0,2,,B10L08,2023-01-25_16h26.01.542,t1_Paradigm,2021.1.4,59.972314730904046,
X,left,Distractor,0,38,38,38,917.1190522095721,919.1194025254181,left,1,2,0.8629052411688463,B10L08,2023-01-25_16h26.01.542,t1_Paradigm,2021.1.4,59.972314730904046,
C,left,Distractor,0,39,39,39,920.6193731720296,922.6191078687289,left,1,2,0.7391064443672803,B10L08,2023-01-25_16h26.01.542,t1_Paradigm,2021.1.4,59.972314730904046,
R,left,Distractor,0,40,40,40,924.1193653123801,926.1209439792992,left,1,2,1.4133877755812136,B10L08,2023-01-25_16h26.01.542,t1_Paradigm,2021.1.4,59.972314730904046,
B,left,Pretarget,0,41,41,41,927.6191367409147,929.6210137537464,left,1,2,0.6650704625662911,B10L08,2023-01-25_16h26.01.542,t1_Paradigm,2021.1.4,59.972314730904046,
H,left,Distractor,0,42,42,42,931.119453532946,933.1212070369866,None,0,2,,B10L08,2023-01-25_16h26.01.542,t1_Paradigm,2021.1.4,59.972314730904046,
B,right,Target,0,43,43,43,934.6194033274232,936.6201440593713,right,1,2,0.4339053127059742,B10L08,2023-01-25_16h26.01.542,t1_Paradigm,2021.1.4,59.972314730904046,
W,left,Pretarget,0,44,44,44,938.1191952872896,940.1322006026594,left,1,2,1.0982250984616257,B10L08,2023-01-25_16h26.01.542,t1_Paradigm,2021.1.4,59.972314730904046,
L,left,Pretarget,0,45,45,45,941.6190388962868,943.6212039893662,left,1,2,1.4009945505367796,B10L08,2023-01-25_16h26.01.542,t1_Paradigm,2021.1.4,59.972314730904046,
W,right,Target,0,46,46,46,945.119380390076,947.1211890720706,right,1,2,0.47707917426851054,B10L08,2023-01-25_16h26.01.542,t1_Paradigm,2021.1.4,59.972314730904046,
L,right,Target,0,47,47,47,948.6193654727804,950.6213480294891,right,1,2,0.7208707722711551,B10L08,2023-01-25_16h26.01.542,t1_Paradigm,2021.1.4,59.972314730904046,
W,right,Target,0,48,48,48,952.1194429464767,954.1208073176231,right,1,2,0.7255522366795049,B10L08,2023-01-25_16h26.01.542,t1_Paradigm,2021.1.4,59.972314730904046,
X,left,Distractor,0,49,49,49,955.6193953073716,957.6211090319566,left,1,2,0.7932607187194662,B10L08,2023-01-25_16h26.01.542,t1_Paradigm,2021.1.4,59.972314730904046,
R,left,Distractor,0,50,50,50,959.119366595588,961.1194904251815,left,1,2,1.1988116208613064,B10L08,2023-01-25_16h26.01.542,t1_Paradigm,2021.1.4,59.972314730904046,
V,left,Pretarget,0,51,51,51,962.6194257835677,964.6213432174582,left,1,2,0.7850632637691888,B10L08,2023-01-25_16h26.01.542,t1_Paradigm,2021.1.4,59.972314730904046,
Z,left,Distractor,0,52,52,52,966.1193659539831,968.1218380546316,left,1,2,0.6923187476404564,B10L08,2023-01-25_16h26.01.542,t1_Paradigm,2021.1.4,59.972314730904046,
V,right,Target,0,53,53,53,969.6194543349511,971.6322889836256,right,1,2,0.9419662663804047,B10L08,2023-01-25_16h26.01.542,t1_Paradigm,2021.1.4,59.972314730904046,
V,left,Lure,0,54,54,54,973.1193605003491,975.1191009714848,left,1,2,0.9911628657500842,B10L08,2023-01-25_16h26.01.542,t1_Paradigm,2021.1.4,59.972314730904046,
N,left,Distractor,0,55,55,55,976.619236189551,978.6189150666933,left,1,2,1.2032970752152323,B10L08,2023-01-25_16h26.01.542,t1_Paradigm,2021.1.4,59.972314730904046,
B,left,Distractor,0,56,56,56,980.1195074276902,982.1189392872484,left,1,2,0.743377282145957,B10L08,2023-01-25_16h26.01.542,t1_Paradigm,2021.1.4,59.972314730904046,
V,left,Lure,0,57,57,57,983.6190754677218,985.6211715883592,right,0,2,1.3211016855893831,B10L08,2023-01-25_16h26.01.542,t1_Paradigm,2021.1.4,59.972314730904046,
J,left,Distractor,0,58,58,58,987.119366595588,989.1209946660247,None,0,2,,B10L08,2023-01-25_16h26.01.542,t1_Paradigm,2021.1.4,59.972314730904046,
H,left,Distractor,0,59,59,59,990.6194046106311,992.6192871970788,None,0,2,,B10L08,2023-01-25_16h26.01.542,t1_Paradigm,2021.1.4,59.972314730904046,
X,left,Pretarget,0,60,60,60,994.118496259608,996.1190133925238,left,1,2,1.1273382058880088,B10L08,2023-01-25_16h26.01.542,t1_Paradigm,2021.1.4,59.972314730904046,
P,left,Distractor,0,61,61,61,997.6193956281741,999.6216130119874,None,0,2,,B10L08,2023-01-25_16h26.01.542,t1_Paradigm,2021.1.4,59.972314730904046,
X,right,Target,0,62,62,62,1001.1194426256743,1003.1194018838132,right,1,2,0.7188121854742349,B10L08,2023-01-25_16h26.01.542,t1_Paradigm,2021.1.4,59.972314730904046,
Q,left,Distractor,0,63,63,63,1004.6195444803279,1006.6214744255003,left,1,2,0.6888476693893608,B10L08,2023-01-25_16h26.01.542,t1_Paradigm,2021.1.4,59.972314730904046,
B,left,Pretarget,0,0,0,0,1024.4112983917867,1026.4033540496612,None,0,2,,B10L08,2023-01-25_16h26.01.542,t1_Paradigm,2021.1.4,59.972314730904046,
F,left,Distractor,0,1,1,1,1027.9022779191628,1029.9044818292905,None,0,2,,B10L08,2023-01-25_16h26.01.542,t1_Paradigm,2021.1.4,59.972314730904046,
B,right,Target,0,2,2,2,1031.4027910420527,1033.402682290155,right,1,2,0.6114682885563525,B10L08,2023-01-25_16h26.01.542,t1_Paradigm,2021.1.4,59.972314730904046,
V,left,Distractor,0,3,3,3,1034.9022846560065,1036.9153595854214,left,1,2,0.7789904808414576,B10L08,2023-01-25_16h26.01.542,t1_Paradigm,2021.1.4,59.972314730904046,
G,left,Pretarget,0,4,4,4,1038.4028009869153,1040.4048550824837,None,0,2,,B10L08,2023-01-25_16h26.01.542,t1_Paradigm,2021.1.4,59.972314730904046,
B,left,Lure,0,5,5,5,1041.9029172776618,1043.902226911635,left,1,2,1.0719594300881,B10L08,2023-01-25_16h26.01.542,t1_Paradigm,2021.1.4,59.972314730904046,
G,right,Target,0,6,6,6,1045.4023906810862,1047.4041736989157,right,1,2,0.7860670534046221,B10L08,2023-01-25_16h26.01.542,t1_Paradigm,2021.1.4,59.972314730904046,
Y,left,Pretarget,0,7,7,7,1048.9027007362738,1050.9047833832237,left,1,2,0.5494498725929589,B10L08,2023-01-25_16h26.01.542,t1_Paradigm,2021.1.4,59.972314730904046,
P,left,Distractor,0,8,8,8,1052.4027583202414,1054.4046802453622,left,1,2,1.1935761312997784,B10L08,2023-01-25_16h26.01.542,t1_Paradigm,2021.1.4,59.972314730904046,
Y,right,Target,0,9,9,9,1055.9027799743808,1057.9049947917783,right,1,2,1.357340127493444,B10L08,2023-01-25_16h26.01.542,t1_Paradigm,2021.1.4,59.972314730904046,
X,left,Distractor,0,10,10,10,1059.4027775683653,1061.4044075636148,left,1,2,1.3138942257864983,B10L08,2023-01-25_16h26.01.542,t1_Paradigm,2021.1.4,59.972314730904046,
Y,right,Target,0,11,11,11,1062.9027751623498,1064.9046884258141,right,1,2,0.6297209631648002,B10L08,2023-01-25_16h26.01.542,t1_Paradigm,2021.1.4,59.972314730904046,
N,left,Distractor,0,12,12,12,1066.4028138189979,1068.4049285461542,left,1,2,0.7614701973288902,B10L08,2023-01-25_16h26.01.542,t1_Paradigm,2021.1.4,59.972314730904046,
Y,right,Target,0,13,13,13,1069.9027119643442,1071.904771192746,right,1,2,0.8775857848759188,B10L08,2023-01-25_16h26.01.542,t1_Paradigm,2021.1.4,59.972314730904046,
Y,left,Lure,0,14,14,14,1073.4024715232035,1075.4026678540622,left,1,2,0.563753153082871,B10L08,2023-01-25_16h26.01.542,t1_Paradigm,2021.1.4,59.972314730904046,
K,left,Distractor,0,15,15,15,1076.9028755733934,1078.9049264609412,None,0,2,,B10L08,2023-01-25_16h26.01.542,t1_Paradigm,2021.1.4,59.972314730904046,
T,left,Pretarget,0,16,16,16,1080.4022344504838,1082.4021577787926,None,0,2,,B10L08,2023-01-25_16h26.01.542,t1_Paradigm,2021.1.4,59.972314730904046,
J,left,Distractor,0,17,17,17,1083.9024736084166,1085.9044330673778,None,0,2,,B10L08,2023-01-25_16h26.01.542,t1_Paradigm,2021.1.4,59.972314730904046,
T,right,Target,0,18,18,18,1087.402493979348,1089.40457534309,right,1,2,1.2496638796437765,B10L08,2023-01-25_16h26.01.542,t1_Paradigm,2021.1.4,59.972314730904046,
S,left,Pretarget,0,19,19,19,1090.902779332776,1092.9028845558505,left,1,2,0.5033169328635267,B10L08,2023-01-25_16h26.01.542,t1_Paradigm,2021.1.4,59.972314730904046,
R,left,Distractor,0,20,20,20,1094.4026357738558,1096.4053224910795,left,1,2,0.5689212742126983,B10L08,2023-01-25_16h26.01.542,t1_Paradigm,2021.1.4,59.972314730904046,
S,right,Target,0,21,21,21,1097.9027110019388,1099.9048244458872,right,1,2,0.8933647548255976,B10L08,2023-01-25_16h26.01.542,t1_Paradigm,2021.1.4,59.972314730904046,
Q,left,Distractor,0,22,22,22,1101.4027236736192,1103.4045756638925,left,1,2,0.8656192265643767,B10L08,2023-01-25_16h26.01.542,t1_Paradigm,2021.1.4,59.972314730904046,
D,left,Distractor,0,23,23,23,1104.9027889568379,1106.903560164982,left,1,2,0.5826862488520419,B10L08,2023-01-25_16h26.01.542,t1_Paradigm,2021.1.4,59.972314730904046,
F,left,Distractor,0,24,24,24,1108.4028657889312,1110.40501676672,left,1,2,0.5532308456313331,B10L08,2023-01-25_16h26.01.542,t1_Paradigm,2021.1.4,59.972314730904046,
Z,left,Distractor,0,25,25,25,1111.90278767363,1113.9044452578555,right,0,2,0.8619447598102852,B10L08,2023-01-25_16h26.01.542,t1_Paradigm,2021.1.4,59.972314730904046,
P,left,Distractor,0,26,26,26,1115.4024054379797,1117.404964155182,left,1,2,0.8812753293277638,B10L08,2023-01-25_16h26.01.542,t1_Paradigm,2021.1.4,59.972314730904046,
H,left,Distractor,0,27,27,27,1118.9027722751316,1120.9040740898772,left,1,2,0.9661547414380038,B10L08,2023-01-25_16h26.01.542,t1_Paradigm,2021.1.4,59.972314730904046,
Z,left,Pretarget,0,28,28,28,1122.4028606560978,1124.4033473128175,left,1,2,0.5708531441960076,B10L08,2023-01-25_16h26.01.542,t1_Paradigm,2021.1.4,59.972314730904046,
J,left,Pretarget,0,29,29,29,1125.9027520646023,1127.9022968464842,left,1,2,0.8959597226603364,B10L08,2023-01-25_16h26.01.542,t1_Paradigm,2021.1.4,59.972314730904046,
Z,right,Target,0,30,30,30,1129.402722069609,1131.4051861502057,right,1,2,0.8331162038084585,B10L08,2023-01-25_16h26.01.542,t1_Paradigm,2021.1.4,59.972314730904046,
J,right,Target,0,31,31,31,1132.902782861599,1134.904687784211,right,1,2,0.6456981887840811,B10L08,2023-01-25_16h26.01.542,t1_Paradigm,2021.1.4,59.972314730904046,
V,left,Pretarget,0,32,32,32,1136.4027852676145,1138.4047046263195,left,1,2,0.8256241925828363,B10L08,2023-01-25_16h26.01.542,t1_Paradigm,2021.1.4,59.972314730904046,
Z,left,Lure,0,33,33,33,1139.9021701296724,1141.90457389948,right,0,2,1.0696977755906119,B10L08,2023-01-25_16h26.01.542,t1_Paradigm,2021.1.4,59.972314730904046,
V,right,Target,0,34,34,34,1143.4027310520678,1145.4040027114197,right,1,2,0.6744404490345914,B10L08,2023-01-25_16h26.01.542,t1_Paradigm,2021.1.4,59.972314730904046,
X,left,Distractor,0,35,35,35,1146.9027097187309,1148.904813217815,left,1,2,1.1093764987454051,B10L08,2023-01-25_16h26.01.542,t1_Paradigm,2021.1.4,59.972314730904046,
S,left,Distractor,0,36,36,36,1150.402877979409,1152.4046603556353,left,1,2,0.617589833398597,B10L08,2023-01-25_16h26.01.542,t1_Paradigm,2021.1.4,59.972314730904046,
Q,left,Distractor,0,37,37,37,1153.9024594931261,1155.9029163152545,left,1,2,1.2953964584085043,B10L08,2023-01-25_16h26.01.542,t1_Paradigm,2021.1.4,59.972314730904046,
P,left,Distractor,0,38,38,38,1157.4026951222377,1159.404272505949,left,1,2,1.3141091631641757,B10L08,2023-01-25_16h26.01.542,t1_Paradigm,2021.1.4,59.972314730904046,
S,left,Lure,0,39,39,39,1160.9027886360373,1162.9044452578555,None,0,2,,B10L08,2023-01-25_16h26.01.542,t1_Paradigm,2021.1.4,59.972314730904046,
K,left,Pretarget,0,40,40,40,1164.4026903102067,1166.4046966062679,left,1,2,0.8576995861967589,B10L08,2023-01-25_16h26.01.542,t1_Paradigm,2021.1.4,59.972314730904046,
L,left,Distractor,0,41,41,41,1167.9027915232555,1169.9047054283246,None,0,2,,B10L08,2023-01-25_16h26.01.542,t1_Paradigm,2021.1.4,59.972314730904046,
K,right,Target,0,42,42,42,1171.4025709718417,1173.4044527967044,right,1,2,0.6736487095586199,B10L08,2023-01-25_16h26.01.542,t1_Paradigm,2021.1.4,59.972314730904046,
B,left,Distractor,0,43,43,43,1174.90288423505,1176.9041674432747,left,1,2,0.6462002440021024,B10L08,2023-01-25_16h26.01.542,t1_Paradigm,2021.1.4,59.972314730904046,
N,left,Distractor,0,44,44,44,1178.402799382905,1180.4046176889615,left,1,2,0.5376642466435442,B10L08,2023-01-25_16h26.01.542,t1_Paradigm,2021.1.4,59.972314730904046,
S,left,Pretarget,0,45,45,45,1181.902796014484,1183.9045524057428,left,1,2,0.5578378839636571,B10L08,2023-01-25_16h26.01.542,t1_Paradigm,2021.1.4,59.972314730904046,
Z,left,Distractor,0,46,46,46,1185.402735222494,1187.4044544007147,left,1,2,0.7377427148257993,B10L08,2023-01-25_16h26.01.542,t1_Paradigm,2021.1.4,59.972314730904046,
S,right,Target,0,47,47,47,1188.9027668214958,1190.9047846664316,left,0,2,1.4615902093773911,B10L08,2023-01-25_16h26.01.542,t1_Paradigm,2021.1.4,59.972314730904046,
C,left,Distractor,0,48,48,48,1192.4023765657957,1194.4034320045603,left,1,2,1.2108564548743743,B10L08,2023-01-25_16h26.01.542,t1_Paradigm,2021.1.4,59.972314730904046,
T,left,Pretarget,0,49,49,49,1195.902723513219,1197.9047185812078,left,1,2,0.7016486338488903,B10L08,2023-01-25_16h26.01.542,t1_Paradigm,2021.1.4,59.972314730904046,
S,left,Lure,0,50,50,50,1199.4027775683653,1201.4045477541122,left,1,2,0.8176333341580175,B10L08,2023-01-25_16h26.01.542,t1_Paradigm,2021.1.4,59.972314730904046,
T,right,Target,0,51,51,51,1202.9022875432247,1204.9048658293514,right,1,2,0.8054351567607227,B10L08,2023-01-25_16h26.01.542,t1_Paradigm,2021.1.4,59.972314730904046,
N,left,Pretarget,0,52,52,52,1206.4024933377432,1208.4018225406426,None,0,2,,B10L08,2023-01-25_16h26.01.542,t1_Paradigm,2021.1.4,59.972314730904046,
B,left,Distractor,0,53,53,53,1209.9024934981453,1211.9035893579685,None,0,2,,B10L08,2023-01-25_16h26.01.542,t1_Paradigm,2021.1.4,59.972314730904046,
N,right,Target,0,54,54,54,1213.4027480545765,1215.402509057044,right,1,2,0.4516674809692631,B10L08,2023-01-25_16h26.01.542,t1_Paradigm,2021.1.4,59.972314730904046,
N,left,Lure,0,55,55,55,1216.9022990920976,1218.9027905608482,left,1,2,1.4636067711053329,B10L08,2023-01-25_16h26.01.542,t1_Paradigm,2021.1.4,59.972314730904046,
X,left,Distractor,0,56,56,56,1220.4022902700426,1222.40505109254,None,0,2,,B10L08,2023-01-25_16h26.01.542,t1_Paradigm,2021.1.4,59.972314730904046,
W,left,Distractor,0,57,57,57,1223.9025127462673,1225.9045748618873,left,1,2,0.6856143054628774,B10L08,2023-01-25_16h26.01.542,t1_Paradigm,2021.1.4,59.972314730904046,
S,left,Distractor,0,58,58,58,1227.4025045658154,1229.4034695384007,right,0,2,1.3629390857840917,B10L08,2023-01-25_16h26.01.542,t1_Paradigm,2021.1.4,59.972314730904046,
L,left,Distractor,0,59,59,59,1230.902351062031,1232.9043685861643,left,1,2,1.3658840486641566,B10L08,2023-01-25_16h26.01.542,t1_Paradigm,2021.1.4,59.972314730904046,
K,left,Pretarget,0,60,60,60,1234.402862901713,1236.4044136588536,left,1,2,0.5698394096980337,B10L08,2023-01-25_16h26.01.542,t1_Paradigm,2021.1.4,59.972314730904046,
V,left,Pretarget,0,61,61,61,1237.9027527062053,1239.9046579496198,left,1,2,0.8137163410465291,B10L08,2023-01-25_16h26.01.542,t1_Paradigm,2021.1.4,59.972314730904046,
K,right,Target,0,62,62,62,1241.4028741297852,1243.4051053080866,right,1,2,0.7691290256243519,B10L08,2023-01-25_16h26.01.542,t1_Paradigm,2021.1.4,59.972314730904046,
V,right,Target,0,63,63,63,1244.9027665006952,1246.9037702903288,left,0,2,0.838547061823192,B10L08,2023-01-25_16h26.01.542,t1_Paradigm,2021.1.4,59.972314730904046,
R,left,Distractor,0,0,0,0,1342.6095152456373,1344.6022224524868,left,1,3,0.8360018183066131,B10L08,2023-01-25_16h26.01.542,t1_Paradigm,2021.1.4,59.972314730904046,
P,left,Lure,0,1,1,1,1346.1025414901314,1348.1044682272832,left,1,3,0.6140433666641911,B10L08,2023-01-25_16h26.01.542,t1_Paradigm,2021.1.4,59.972314730904046,
V,left,Distractor,0,2,2,2,1349.602541971336,1351.603428026615,left,1,3,0.9388641104942508,B10L08,2023-01-25_16h26.01.542,t1_Paradigm,2021.1.4,59.972314730904046,
P,left,Pretarget,0,3,3,3,1353.1027365377822,1355.1048127686927,left,1,3,0.9256701635149511,B10L08,2023-01-25_16h26.01.542,t1_Paradigm,2021.1.4,59.972314730904046,
Z,left,Distractor,0,4,4,4,1356.602855715747,1358.6050333201065,left,1,3,1.1213401698387315,B10L08,2023-01-25_16h26.01.542,t1_Paradigm,2021.1.4,59.972314730904046,
L,left,Pretarget,0,5,5,5,1360.1027124776274,1362.1023830139156,None,0,3,,B10L08,2023-01-25_16h26.01.542,t1_Paradigm,2021.1.4,59.972314730904046,
P,right,Target,0,6,6,6,1363.6028566781524,1365.6022712143995,right,1,3,0.8601636667917774,B10L08,2023-01-25_16h26.01.542,t1_Paradigm,2021.1.4,59.972314730904046,
S,left,Distractor,0,7,7,7,1367.1027747132275,1369.1034650792526,left,1,3,1.0065690637093212,B10L08,2023-01-25_16h26.01.542,t1_Paradigm,2021.1.4,59.972314730904046,
L,right,Target,0,8,8,8,1370.6024989838597,1372.6029189137507,right,1,3,1.2193724662647583,B10L08,2023-01-25_16h26.01.542,t1_Paradigm,2021.1.4,59.972314730904046,
D,left,Distractor,0,9,9,9,1374.1025697207124,1376.104750853895,None,0,3,,B10L08,2023-01-25_16h26.01.542,t1_Paradigm,2021.1.4,59.972314730904046,
G,left,Distractor,0,10,10,10,1377.6027870641055,1379.604273019232,None,0,3,,B10L08,2023-01-25_16h26.01.542,t1_Paradigm,2021.1.4,59.972314730904046,
M,left,Pretarget,0,11,11,11,1381.1028821819154,1383.1049773401473,left,1,3,0.8454497596703732,B10L08,2023-01-25_16h26.01.542,t1_Paradigm,2021.1.4,59.972314730904046,
Y,left,Distractor,0,12,12,12,1384.602481981351,1386.604774432847,left,1,3,1.1375961724461376,B10L08,2023-01-25_16h26.01.542,t1_Paradigm,2021.1.4,59.972314730904046,
V,left,Distractor,0,13,13,13,1388.1024657808475,1390.1028581217624,None,0,3,,B10L08,2023-01-25_16h26.01.542,t1_Paradigm,2021.1.4,59.972314730904046,
M,right,Target,0,14,14,14,1391.6027318861534,1393.6044366282813,None,0,3,,B10L08,2023-01-25_16h26.01.542,t1_Paradigm,2021.1.4,59.972314730904046,
S,left,Pretarget,0,15,15,15,1395.1027593147292,1397.104873721083,right,0,3,0.15752567940398876,B10L08,2023-01-25_16h26.01.542,t1_Paradigm,2021.1.4,59.972314730904046,
Q,left,Distractor,0,16,16,16,1398.6022330389542,1400.6025718059273,None,0,3,,B10L08,2023-01-25_16h26.01.542,t1_Paradigm,2021.1.4,59.972314730904046,
R,left,Pretarget,0,17,17,17,1402.10278465809,1404.1046934303276,left,1,3,1.4296999185480672,B10L08,2023-01-25_16h26.01.542,t1_Paradigm,2021.1.4,59.972314730904046,
S,right,Target,0,18,18,18,1405.6019330890313,1407.6047725080343,None,0,3,,B10L08,2023-01-25_16h26.01.542,t1_Paradigm,2021.1.4,59.972314730904046,
F,left,Distractor,0,19,19,19,1409.102794282152,1411.1026765477973,None,0,3,,B10L08,2023-01-25_16h26.01.542,t1_Paradigm,2021.1.4,59.972314730904046,
R,right,Target,0,20,20,20,1412.6018265827488,1414.605052247428,right,1,3,1.1851813830871833,B10L08,2023-01-25_16h26.01.542,t1_Paradigm,2021.1.4,59.972314730904046,
P,left,Distractor,0,21,21,21,1416.1023717858434,1418.1045490694023,left,1,3,1.2377682185888261,B10L08,2023-01-25_16h26.01.542,t1_Paradigm,2021.1.4,59.972314730904046,
L,left,Distractor,0,22,22,22,1419.6025634650732,1421.6044462523432,left,1,3,1.2899793948836304,B10L08,2023-01-25_16h26.01.542,t1_Paradigm,2021.1.4,59.972314730904046,
R,right,Target,0,23,23,23,1423.1027859412998,1425.102970081679,None,0,3,,B10L08,2023-01-25_16h26.01.542,t1_Paradigm,2021.1.4,59.972314730904046,
H,left,Pretarget,0,24,24,24,1426.6027437558287,1428.6048228739573,None,0,3,,B10L08,2023-01-25_16h26.01.542,t1_Paradigm,2021.1.4,59.972314730904046,
G,left,Pretarget,0,25,25,25,1430.102779846061,1432.1051890695044,None,0,3,,B10L08,2023-01-25_16h26.01.542,t1_Paradigm,2021.1.4,59.972314730904046,
T,left,Distractor,0,26,26,26,1433.6027896305231,1435.6051186534523,left,1,3,1.2892976905150135,B10L08,2023-01-25_16h26.01.542,t1_Paradigm,2021.1.4,59.972314730904046,
H,right,Target,0,27,27,27,1437.1026977207339,1439.1047251897298,right,1,3,0.8297628599120799,B10L08,2023-01-25_16h26.01.542,t1_Paradigm,2021.1.4,59.972314730904046,
G,right,Target,0,28,28,28,1440.6025997157058,1442.602201921155,None,0,3,,B10L08,2023-01-25_16h26.01.542,t1_Paradigm,2021.1.4,59.972314730904046,
D,left,Distractor,0,29,29,29,1444.102632277115,1446.1049821521783,left,1,3,1.0773671903552895,B10L08,2023-01-25_16h26.01.542,t1_Paradigm,2021.1.4,59.972314730904046,
N,left,Pretarget,0,30,30,30,1447.6018153546765,1449.6024296906153,left,1,3,0.923967025399179,B10L08,2023-01-25_16h26.01.542,t1_Paradigm,2021.1.4,59.972314730904046,
V,left,Distractor,0,31,31,31,1451.1027891493204,1453.1156651814608,left,1,3,0.8347827704910742,B10L08,2023-01-25_16h26.01.542,t1_Paradigm,2021.1.4,59.972314730904046,
R,left,Distractor,0,32,32,32,1454.6020623722607,1456.6036298111094,left,1,3,1.2988203787590464,B10L08,2023-01-25_16h26.01.542,t1_Paradigm,2021.1.4,59.972314730904046,
N,right,Target,0,33,33,33,1458.1024417206927,1460.1045346333094,right,1,3,1.1420309400746191,B10L08,2023-01-25_16h26.01.542,t1_Paradigm,2021.1.4,59.972314730904046,
Z,left,Distractor,0,34,34,34,1461.6027793648564,1463.604674984209,left,1,3,0.6336103672965692,B10L08,2023-01-25_16h26.01.542,t1_Paradigm,2021.1.4,59.972314730904046,
N,left,Lure,0,35,35,35,1465.1027920365386,1467.104805390244,left,1,3,1.1653936706406967,B10L08,2023-01-25_16h26.01.542,t1_Paradigm,2021.1.4,59.972314730904046,
Y,left,Pretarget,0,36,36,36,1468.6024790941328,1470.604969480496,None,0,3,,B10L08,2023-01-25_16h26.01.542,t1_Paradigm,2021.1.4,59.972314730904046,
Y,left,Lure,0,37,37,37,1472.102872878656,1474.1025238460197,None,0,3,,B10L08,2023-01-25_16h26.01.542,t1_Paradigm,2021.1.4,59.972314730904046,
B,left,Distractor,0,38,38,38,1475.6028800967024,1477.6049993150873,None,0,3,,B10L08,2023-01-25_16h26.01.542,t1_Paradigm,2021.1.4,59.972314730904046,
Y,right,Target,0,39,39,39,1479.1027795252585,1481.1047877461324,None,0,3,,B10L08,2023-01-25_16h26.01.542,t1_Paradigm,2021.1.4,59.972314730904046,
J,left,Distractor,0,40,40,40,1482.6024004976289,1484.6022182820607,left,1,3,0.9482405130020197,B10L08,2023-01-25_16h26.01.542,t1_Paradigm,2021.1.4,59.972314730904046,
X,left,Distractor,0,41,41,41,1486.1026935503078,1488.1024420414951,left,1,3,0.6639861516159726,B10L08,2023-01-25_16h26.01.542,t1_Paradigm,2021.1.4,59.972314730904046,
W,left,Pretarget,0,42,42,42,1489.6027642871604,1491.6044683876835,left,1,3,0.5378685975520057,B10L08,2023-01-25_16h26.01.542,t1_Paradigm,2021.1.4,59.972314730904046,
S,left,Pretarget,0,43,43,43,1493.1028568385545,1495.1043196959317,left,1,3,0.6220855534174916,B10L08,2023-01-25_16h26.01.542,t1_Paradigm,2021.1.4,59.972314730904046,
R,left,Distractor,0,44,44,44,1496.6022224524868,1498.604578422789,left,1,3,0.7217706220380933,B10L08,2023-01-25_16h26.01.542,t1_Paradigm,2021.1.4,59.972314730904046,
W,right,Target,0,45,45,45,1500.1021828334333,1502.1030948736798,right,1,3,0.6473657178739813,B10L08,2023-01-25_16h26.01.542,t1_Paradigm,2021.1.4,59.972314730904046,
S,right,Target,0,46,46,46,1503.602436427459,1505.6046387335764,right,1,3,0.7778198741361848,B10L08,2023-01-25_16h26.01.542,t1_Paradigm,2021.1.4,59.972314730904046,
D,left,Distractor,0,47,47,47,1507.1024426830982,1509.1029383222767,left,1,3,0.8955952915239322,B10L08,2023-01-25_16h26.01.542,t1_Paradigm,2021.1.4,59.972314730904046,
T,left,Distractor,0,48,48,48,1510.6027168084556,1512.6051776810318,left,1,3,1.3932882435346983,B10L08,2023-01-25_16h26.01.542,t1_Paradigm,2021.1.4,59.972314730904046,
S,right,Target,0,49,49,49,1514.1023259111507,1516.1159792466742,None,0,3,,B10L08,2023-01-25_16h26.01.542,t1_Paradigm,2021.1.4,59.972314730904046,
K,left,Distractor,0,50,50,50,1517.6027395854026,1519.6025981116954,left,1,3,0.6998739568716701,B10L08,2023-01-25_16h26.01.542,t1_Paradigm,2021.1.4,59.972314730904046,
S,left,Lure,0,51,51,51,1521.102498502657,1523.1046020017411,left,1,3,0.9734975797091465,B10L08,2023-01-25_16h26.01.542,t1_Paradigm,2021.1.4,59.972314730904046,
T,left,Pretarget,0,52,52,52,1524.6023934399827,1526.602730282143,right,0,3,1.4597224998051388,B10L08,2023-01-25_16h26.01.542,t1_Paradigm,2021.1.4,59.972314730904046,
V,left,Distractor,0,53,53,53,1528.102720497679,1530.1026608284965,left,1,3,0.8397247261709708,B10L08,2023-01-25_16h26.01.542,t1_Paradigm,2021.1.4,59.972314730904046,
B,left,Distractor,0,54,54,54,1531.6025429337415,1533.6028759262763,left,1,3,0.6354431094441679,B10L08,2023-01-25_16h26.01.542,t1_Paradigm,2021.1.4,59.972314730904046,
T,right,Target,0,55,55,55,1535.102755785906,1537.1155920385909,right,1,3,1.378743719898921,B10L08,2023-01-25_16h26.01.542,t1_Paradigm,2021.1.4,59.972314730904046,
Y,left,Pretarget,0,56,56,56,1538.6027883473153,1540.6041982723536,None,0,3,,B10L08,2023-01-25_16h26.01.542,t1_Paradigm,2021.1.4,59.972314730904046,
T,left,Lure,0,57,57,57,1542.1022043271705,1544.1043200167323,None,0,3,,B10L08,2023-01-25_16h26.01.542,t1_Paradigm,2021.1.4,59.972314730904046,
P,left,Pretarget,0,58,58,58,1545.602005269494,1547.602854432539,left,1,3,1.387497445613917,B10L08,2023-01-25_16h26.01.542,t1_Paradigm,2021.1.4,59.972314730904046,
Y,right,Target,0,59,59,59,1549.1028815403124,1551.1019342118389,left,0,3,1.4244278575533826,B10L08,2023-01-25_16h26.01.542,t1_Paradigm,2021.1.4,59.972314730904046,
R,left,Distractor,0,60,60,60,1552.6023947231906,1554.6048337812272,None,0,3,,B10L08,2023-01-25_16h26.01.542,t1_Paradigm,2021.1.4,59.972314730904046,
P,right,Target,0,61,61,61,1556.102246673042,1558.1049664328775,None,0,3,,B10L08,2023-01-25_16h26.01.542,t1_Paradigm,2021.1.4,59.972314730904046,
L,left,Distractor,0,62,62,62,1559.6027328485588,1561.604651565659,left,1,3,1.3217500265454873,B10L08,2023-01-25_16h26.01.542,t1_Paradigm,2021.1.4,59.972314730904046,
V,left,Distractor,0,63,63,63,1563.1027179312632,1565.1049414103172,left,1,3,0.7653461277750466,B10L08,2023-01-25_16h26.01.542,t1_Paradigm,2021.1.4,59.972314730904046,
H,left,Lure,0,0,0,0,1573.8489551637422,1575.8362671216064,left,1,3,1.4103042262140661,B10L08,2023-01-25_16h26.01.542,t1_Paradigm,2021.1.4,59.972314730904046,
B,left,Distractor,0,1,1,1,1577.3360918032822,1579.3379306406705,None,0,3,,B10L08,2023-01-25_16h26.01.542,t1_Paradigm,2021.1.4,59.972314730904046,
T,left,Distractor,0,2,2,2,1580.8362052068105,1582.8375262696782,None,0,3,,B10L08,2023-01-25_16h26.01.542,t1_Paradigm,2021.1.4,59.972314730904046,
R,left,Distractor,0,3,3,3,1584.3361155426346,1586.3381167058642,left,1,3,0.6841681297901232,B10L08,2023-01-25_16h26.01.542,t1_Paradigm,2021.1.4,59.972314730904046,
H,left,Pretarget,0,4,4,4,1587.8357865601256,1589.838259302377,None,0,3,,B10L08,2023-01-25_16h26.01.542,t1_Paradigm,2021.1.4,59.972314730904046,
K,left,Distractor,0,5,5,5,1591.3360350213197,1593.3379088261308,None,0,3,,B10L08,2023-01-25_16h26.01.542,t1_Paradigm,2021.1.4,59.972314730904046,
G,left,Distractor,0,6,6,6,1594.836136555169,1596.8378804351496,None,0,3,,B10L08,2023-01-25_16h26.01.542,t1_Paradigm,2021.1.4,59.972314730904046,
H,right,Target,0,7,7,7,1598.3361139386243,1600.3384525856172,right,1,3,1.1642326879973552,B10L08,2023-01-25_16h26.01.542,t1_Paradigm,2021.1.4,59.972314730904046,
Y,left,Pretarget,0,8,8,8,1601.8362141892676,1603.8386128262437,left,1,3,0.7196895790966664,B10L08,2023-01-25_16h26.01.542,t1_Paradigm,2021.1.4,59.972314730904046,
S,left,Distractor,0,9,9,9,1605.336117146645,1607.3382934677966,left,1,3,0.6282526521517866,B10L08,2023-01-25_16h26.01.542,t1_Paradigm,2021.1.4,59.972314730904046,
P,left,Distractor,0,10,10,10,1608.8361872418945,1610.8382945906042,left,1,3,1.192213364163763,B10L08,2023-01-25_16h26.01.542,t1_Paradigm,2021.1.4,59.972314730904046,
Y,right,Target,0,11,11,11,1612.3361293371245,1614.3365319437044,right,1,3,0.3980088457956299,B10L08,2023-01-25_16h26.01.542,t1_Paradigm,2021.1.4,59.972314730904046,
H,left,Lure,0,12,12,12,1615.8361230814835,1617.8383651670565,left,1,3,0.815952652183114,B10L08,2023-01-25_16h26.01.542,t1_Paradigm,2021.1.4,59.972314730904046,
Q,left,Distractor,0,13,13,13,1619.3360533070363,1621.3381099690205,None,0,3,,B10L08,2023-01-25_16h26.01.542,t1_Paradigm,2021.1.4,59.972314730904046,
V,left,Pretarget,0,14,14,14,1622.836123402286,1624.8382471118994,left,1,3,1.3360661391179747,B10L08,2023-01-25_16h26.01.542,t1_Paradigm,2021.1.4,59.972314730904046,
G,left,Distractor,0,15,15,15,1626.3359121541316,1628.338109648218,left,1,3,1.4362105962845817,B10L08,2023-01-25_16h26.01.542,t1_Paradigm,2021.1.4,59.972314730904046,
Z,left,Pretarget,0,16,16,16,1629.836038710543,1631.8378156331337,left,1,3,1.2484627967460256,B10L08,2023-01-25_16h26.01.542,t1_Paradigm,2021.1.4,59.972314730904046,
V,right,Target,0,17,17,17,1633.3358787907173,1635.3357620187699,left,0,3,0.7108091365698783,B10L08,2023-01-25_16h26.01.542,t1_Paradigm,2021.1.4,59.972314730904046,
N,left,Distractor,0,18,18,18,1636.8361381591794,1638.8382609063874,None,0,3,,B10L08,2023-01-25_16h26.01.542,t1_Paradigm,2021.1.4,59.972314730904046,
Z,right,Target,0,19,19,19,1640.3358162343166,1642.338114460249,right,1,3,1.0683103066949116,B10L08,2023-01-25_16h26.01.542,t1_Paradigm,2021.1.4,59.972314730904046,
R,left,Distractor,0,20,20,20,1643.8361115326088,1645.8376664601774,left,1,3,0.656755914867972,B10L08,2023-01-25_16h26.01.542,t1_Paradigm,2021.1.4,59.972314730904046,
P,left,Distractor,0,21,21,21,1647.335905417288,1649.3380743599928,left,1,3,1.3322399329899781,B10L08,2023-01-25_16h26.01.542,t1_Paradigm,2021.1.4,59.972314730904046,
Z,right,Target,0,22,22,22,1650.836132384743,1652.8376321343576,right,1,3,1.1608084468462039,B10L08,2023-01-25_16h26.01.542,t1_Paradigm,2021.1.4,59.972314730904046,
D,left,Pretarget,0,23,23,23,1654.336111693011,1656.338327472814,left,1,3,0.7960712655349198,B10L08,2023-01-25_16h26.01.542,t1_Paradigm,2021.1.4,59.972314730904046,
K,left,Distractor,0,24,24,24,1657.8360053471288,1659.8385092071794,left,1,3,0.6079397867360967,B10L08,2023-01-25_16h26.01.542,t1_Paradigm,2021.1.4,59.972314730904046,
W,left,Distractor,0,25,25,25,1661.3360725551602,1663.3379155629746,left,1,3,1.0447271851189726,B10L08,2023-01-25_16h26.01.542,t1_Paradigm,2021.1.4,59.972314730904046,
D,right,Target,0,26,26,26,1664.8361028709542,1666.8355693771346,right,1,3,0.9548394113026006,B10L08,2023-01-25_16h26.01.542,t1_Paradigm,2021.1.4,59.972314730904046,
G,left,Pretarget,0,27,27,27,1668.3362181992934,1670.33577164283,left,1,3,0.7186293283011764,B10L08,2023-01-25_16h26.01.542,t1_Paradigm,2021.1.4,59.972314730904046,
V,left,Distractor,0,28,28,28,1671.835870289463,1673.835976474943,left,1,3,0.6106370904271898,B10L08,2023-01-25_16h26.01.542,t1_Paradigm,2021.1.4,59.972314730904046,
D,right,Target,0,29,29,29,1675.3362098584394,1677.3381802246704,right,1,3,0.40417466132203117,B10L08,2023-01-25_16h26.01.542,t1_Paradigm,2021.1.4,59.972314730904046,
G,right,Target,0,30,30,30,1678.8360778483939,1680.8383549013897,left,0,3,0.9039736788326991,B10L08,2023-01-25_16h26.01.542,t1_Paradigm,2021.1.4,59.972314730904046,
B,left,Pretarget,0,31,31,31,1682.336028284476,1684.3381170266648,left,1,3,0.6523641347139346,B10L08,2023-01-25_16h26.01.542,t1_Paradigm,2021.1.4,59.972314730904046,
N,left,Distractor,0,32,32,32,1685.835629046317,1687.836179221843,left,1,3,1.2021604735291476,B10L08,2023-01-25_16h26.01.542,t1_Paradigm,2021.1.4,59.972314730904046,
F,left,Distractor,0,33,33,33,1689.3356195826555,1691.3381272923316,left,1,3,1.284172236057202,B10L08,2023-01-25_16h26.01.542,t1_Paradigm,2021.1.4,59.972314730904046,
B,right,Target,0,34,34,34,1692.836044164177,1694.8356816578535,right,1,3,0.4747844771573,B10L08,2023-01-25_16h26.01.542,t1_Paradigm,2021.1.4,59.972314730904046,
Q,left,Pretarget,0,35,35,35,1696.3359038132776,1698.3378719338953,left,1,3,0.6525235733370209,B10L08,2023-01-25_16h26.01.542,t1_Paradigm,2021.1.4,59.972314730904046,
S,left,Pretarget,0,36,36,36,1699.8361259687017,1701.8355892668615,left,1,3,0.8670827255464246,B10L08,2023-01-25_16h26.01.542,t1_Paradigm,2021.1.4,59.972314730904046,
W,left,Distractor,0,37,37,37,1703.3361187506553,1705.3379463599713,None,0,3,,B10L08,2023-01-25_16h26.01.542,t1_Paradigm,2021.1.4,59.972314730904046,
Q,right,Target,0,38,38,38,1706.83613174314,1708.8380225504598,right,1,3,0.8564147739616601,B10L08,2023-01-25_16h26.01.542,t1_Paradigm,2021.1.4,59.972314730904046,
S,right,Target,0,39,39,39,1710.336019943622,1712.3381988311894,right,1,3,1.0201226297940593,B10L08,2023-01-25_16h26.01.542,t1_Paradigm,2021.1.4,59.972314730904046,
T,left,Distractor,0,40,40,40,1713.8361070413803,1715.8383266708088,None,0,3,,B10L08,2023-01-25_16h26.01.542,t1_Paradigm,2021.1.4,59.972314730904046,
G,left,Distractor,0,41,41,41,1717.3359153621523,1719.3383499289585,right,0,3,0.9642895982815389,B10L08,2023-01-25_16h26.01.542,t1_Paradigm,2021.1.4,59.972314730904046,
D,left,Distractor,0,42,42,42,1720.8361250062962,1722.8380004151177,left,1,3,0.808561052001096,B10L08,2023-01-25_16h26.01.542,t1_Paradigm,2021.1.4,59.972314730904046,
S,left,Lure,0,43,43,43,1724.3358649962292,1726.3380878336784,None,0,3,,B10L08,2023-01-25_16h26.01.542,t1_Paradigm,2021.1.4,59.972314730904046,
Z,left,Pretarget,0,44,44,44,1727.836113778224,1729.8377671920234,left,1,3,0.8325949004665745,B10L08,2023-01-25_16h26.01.542,t1_Paradigm,2021.1.4,59.972314730904046,
J,left,Distractor,0,45,45,45,1731.336117146645,1733.33804901663,left,1,3,1.140424363376951,B10L08,2023-01-25_16h26.01.542,t1_Paradigm,2021.1.4,59.972314730904046,
M,left,Pretarget,0,46,46,46,1734.83590269047,1736.83741719698,left,1,3,1.0489271256428765,B10L08,2023-01-25_16h26.01.542,t1_Paradigm,2021.1.4,59.972314730904046,
Z,right,Target,0,47,47,47,1738.3361521140696,1740.3373474225327,right,1,3,1.1008896803432435,B10L08,2023-01-25_16h26.01.542,t1_Paradigm,2021.1.4,59.972314730904046,
P,left,Distractor,0,48,48,48,1741.836104154162,1743.837510229575,left,1,3,1.3289908497627039,B10L08,2023-01-25_16h26.01.542,t1_Paradigm,2021.1.4,59.972314730904046,
M,right,Target,0,49,49,49,1745.3359650864704,1747.33501037955,left,0,3,0.9193330396938109,B10L08,2023-01-25_16h26.01.542,t1_Paradigm,2021.1.4,59.972314730904046,
K,left,Distractor,0,50,50,50,1748.8360845852376,1750.8359091065113,left,1,3,0.9544874914463435,B10L08,2023-01-25_16h26.01.542,t1_Paradigm,2021.1.4,59.972314730904046,
Y,left,Distractor,0,51,51,51,1752.3360837832324,1754.3380288061007,left,1,3,0.9404222460816527,B10L08,2023-01-25_16h26.01.542,t1_Paradigm,2021.1.4,59.972314730904046,
X,left,Distractor,0,52,52,52,1755.8360274824709,1757.8377598135748,left,1,3,1.3287694963437389,B10L08,2023-01-25_16h26.01.542,t1_Paradigm,2021.1.4,59.972314730904046,
F,left,Pretarget,0,53,53,53,1759.3359522543878,1761.3385850768655,left,1,3,1.2357750754126755,B10L08,2023-01-25_16h26.01.542,t1_Paradigm,2021.1.4,59.972314730904046,
M,left,Lure,0,54,54,54,1762.836035823325,1764.8381300191495,right,0,3,1.3842008836800233,B10L08,2023-01-25_16h26.01.542,t1_Paradigm,2021.1.4,59.972314730904046,
V,left,Distractor,0,55,55,55,1766.336102068949,1768.3362993622131,None,0,3,,B10L08,2023-01-25_16h26.01.542,t1_Paradigm,2021.1.4,59.972314730904046,
F,right,Target,0,56,56,56,1769.836219963704,1771.8381784602598,None,0,3,,B10L08,2023-01-25_16h26.01.542,t1_Paradigm,2021.1.4,59.972314730904046,
S,left,Distractor,0,57,57,57,1773.3360314924967,1775.3377416882586,None,0,3,,B10L08,2023-01-25_16h26.01.542,t1_Paradigm,2021.1.4,59.972314730904046,
D,left,Distractor,0,58,58,58,1776.8358449461002,1778.8385002247223,None,0,3,,B10L08,2023-01-25_16h26.01.542,t1_Paradigm,2021.1.4,59.972314730904046,
F,right,Target,0,59,59,59,1780.335886169164,1782.336562099098,right,1,3,1.1819332622653747,B10L08,2023-01-25_16h26.01.542,t1_Paradigm,2021.1.4,59.972314730904046,
V,left,Pretarget,0,60,60,60,1783.8361493872517,1785.8383638838486,right,0,3,1.4560910205254913,B10L08,2023-01-25_16h26.01.542,t1_Paradigm,2021.1.4,59.972314730904046,
J,left,Distractor,0,61,61,61,1787.3360375877355,1789.338077247211,left,1,3,1.428494665222388,B10L08,2023-01-25_16h26.01.542,t1_Paradigm,2021.1.4,59.972314730904046,
V,left,Lure,0,62,62,62,1790.8360162543986,1792.838360675828,right,0,3,1.240072539761968,B10L08,2023-01-25_16h26.01.542,t1_Paradigm,2021.1.4,59.972314730904046,
V,right,Target,0,63,63,63,1794.3357636227802,1796.3360542694418,left,0,3,1.102275545226803,B10L08,2023-01-25_16h26.01.542,t1_Paradigm,2021.1.4,59.972314730904046,
R,left,Distractor,0,0,0,0,1852.592007473405,1854.5714947483093,None,0,4,,B10L08,2023-01-25_16h26.01.542,t1_Paradigm,2021.1.4,59.972314730904046,
F,left,Distractor,0,1,1,1,1856.0694324722908,1858.0706675602078,left,1,4,0.8717359593774745,B10L08,2023-01-25_16h26.01.542,t1_Paradigm,2021.1.4,59.972314730904046,
P,left,Pretarget,0,2,2,2,1859.5694018356944,1861.5712875101808,left,1,4,0.9392099351098295,B10L08,2023-01-25_16h26.01.542,t1_Paradigm,2021.1.4,59.972314730904046,
H,left,Distractor,0,3,3,3,1863.0693805023575,1865.0684803317863,left,1,4,1.0416583926471503,B10L08,2023-01-25_16h26.01.542,t1_Paradigm,2021.1.4,59.972314730904046,
Z,left,Distractor,0,4,4,4,1866.5694499560022,1868.5690245724754,left,1,4,1.2053466795550776,B10L08,2023-01-25_16h26.01.542,t1_Paradigm,2021.1.4,59.972314730904046,
T,left,Distractor,0,5,5,5,1870.0694475499868,1872.0713406029217,None,0,4,,B10L08,2023-01-25_16h26.01.542,t1_Paradigm,2021.1.4,59.972314730904046,
P,right,Target,0,6,6,6,1873.5693896452149,1875.5714216054412,None,0,4,,B10L08,2023-01-25_16h26.01.542,t1_Paradigm,2021.1.4,59.972314730904046,
G,left,Distractor,0,7,7,7,1877.0858126252942,1879.070168392208,right,0,4,0.2562537954891013,B10L08,2023-01-25_16h26.01.542,t1_Paradigm,2021.1.4,59.972314730904046,
L,left,Distractor,0,8,8,8,1880.5858115024866,1882.571541585411,None,0,4,,B10L08,2023-01-25_16h26.01.542,t1_Paradigm,2021.1.4,59.972314730904046,
P,left,Lure,0,9,9,9,1884.085686870888,1886.0865148609946,None,0,4,,B10L08,2023-01-25_16h26.01.542,t1_Paradigm,2021.1.4,59.972314730904046,
Q,left,Pretarget,0,10,10,10,1887.5695282317038,1889.5685501062335,left,1,4,1.16602436748326,B10L08,2023-01-25_16h26.01.542,t1_Paradigm,2021.1.4,59.972314730904046,
D,left,Distractor,0,11,11,11,1891.069121615098,1893.0699354899143,right,0,4,1.2966857618739596,B10L08,2023-01-25_16h26.01.542,t1_Paradigm,2021.1.4,59.972314730904046,
M,left,Pretarget,0,12,12,12,1894.5694406527427,1896.571529074131,left,1,4,1.3789458251940232,B10L08,2023-01-25_16h26.01.542,t1_Paradigm,2021.1.4,59.972314730904046,
C,left,Distractor,0,13,13,13,1898.0694462667789,1900.0712587983971,None,0,4,,B10L08,2023-01-25_16h26.01.542,t1_Paradigm,2021.1.4,59.972314730904046,
Q,right,Target,0,14,14,14,1901.5856539886763,1903.571325685626,None,0,4,,B10L08,2023-01-25_16h26.01.542,t1_Paradigm,2021.1.4,59.972314730904046,
R,left,Distractor,0,15,15,15,1905.0694087329384,1907.0714301066955,left,1,4,1.3751475288463553,B10L08,2023-01-25_16h26.01.542,t1_Paradigm,2021.1.4,59.972314730904046,
M,right,Target,0,16,16,16,1908.5694358407118,1910.5706924223678,None,0,4,,B10L08,2023-01-25_16h26.01.542,t1_Paradigm,2021.1.4,59.972314730904046,
S,left,Distractor,0,17,17,17,1912.069523580075,1914.0701979059968,left,1,4,1.1601238552593713,B10L08,2023-01-25_16h26.01.542,t1_Paradigm,2021.1.4,59.972314730904046,
Z,left,Distractor,0,18,18,18,1915.585772364636,1917.570995901112,None,0,4,,B10L08,2023-01-25_16h26.01.542,t1_Paradigm,2021.1.4,59.972314730904046,
L,left,Pretarget,0,19,19,19,1919.0694613444748,1921.0713335452774,left,1,4,1.2791982001726865,B10L08,2023-01-25_16h26.01.542,t1_Paradigm,2021.1.4,59.972314730904046,
M,right,Target,0,20,20,20,1922.5694098557442,1924.5714472696063,None,0,4,,B10L08,2023-01-25_16h26.01.542,t1_Paradigm,2021.1.4,59.972314730904046,
P,left,Distractor,0,21,21,21,1926.0857151014688,1928.0851649259412,None,0,4,,B10L08,2023-01-25_16h26.01.542,t1_Paradigm,2021.1.4,59.972314730904046,
F,left,Distractor,0,22,22,22,1929.569425575045,1931.5689729233445,left,1,4,1.0533785749776143,B10L08,2023-01-25_16h26.01.542,t1_Paradigm,2021.1.4,59.972314730904046,
L,right,Target,0,23,23,23,1933.0693920512304,1935.0716399112398,right,1,4,0.7827348824448563,B10L08,2023-01-25_16h26.01.542,t1_Paradigm,2021.1.4,59.972314730904046,
L,left,Lure,0,24,24,24,1936.5859824899826,1938.5694473895865,left,1,4,1.25290109319576,B10L08,2023-01-25_16h26.01.542,t1_Paradigm,2021.1.4,59.972314730904046,
V,left,Pretarget,0,25,25,25,1940.069386276794,1942.070031088927,left,1,4,1.2724443544775568,B10L08,2023-01-25_16h26.01.542,t1_Paradigm,2021.1.4,59.972314730904046,
Z,left,Distractor,0,26,26,26,1943.5692000512,1945.5715149588405,right,0,4,1.2428904650259938,B10L08,2023-01-25_16h26.01.542,t1_Paradigm,2021.1.4,59.972314730904046,
H,left,Distractor,0,27,27,27,1947.0693734447113,1949.072071710808,left,1,4,1.3423346113013395,B10L08,2023-01-25_16h26.01.542,t1_Paradigm,2021.1.4,59.972314730904046,
X,left,Distractor,0,28,28,28,1950.5693723219038,1952.5711768334722,None,0,4,,B10L08,2023-01-25_16h26.01.542,t1_Paradigm,2021.1.4,59.972314730904046,
V,right,Target,0,29,29,29,1954.0694513996123,1956.07138230719,None,0,4,,B10L08,2023-01-25_16h26.01.542,t1_Paradigm,2021.1.4,59.972314730904046,
C,left,Distractor,0,30,30,30,1957.5857136578588,1959.5710052043714,None,0,4,,B10L08,2023-01-25_16h26.01.542,t1_Paradigm,2021.1.4,59.972314730904046,
S,left,Pretarget,0,31,31,31,1961.069446908382,1963.071341565329,None,0,4,,B10L08,2023-01-25_16h26.01.542,t1_Paradigm,2021.1.4,59.972314730904046,
D,left,Distractor,0,32,32,32,1964.569577956022,1966.5687028080129,None,0,4,,B10L08,2023-01-25_16h26.01.542,t1_Paradigm,2021.1.4,59.972314730904046,
V,left,Distractor,0,33,33,33,1968.0691607529488,1970.0711141166694,left,1,4,1.3992368760682439,B10L08,2023-01-25_16h26.01.542,t1_Paradigm,2021.1.4,59.972314730904046,
R,left,Distractor,0,34,34,34,1971.5858429410882,1973.571529715734,left,1,4,1.1309305473168934,B10L08,2023-01-25_16h26.01.542,t1_Paradigm,2021.1.4,59.972314730904046,
S,right,Target,0,35,35,35,1975.069449795602,1977.071213244505,right,1,4,1.1991564830732386,B10L08,2023-01-25_16h26.01.542,t1_Paradigm,2021.1.4,59.972314730904046,
Y,left,Distractor,0,36,36,36,1978.569549083838,1980.5710151492358,left,1,4,1.2193740702750802,B10L08,2023-01-25_16h26.01.542,t1_Paradigm,2021.1.4,59.972314730904046,
N,left,Pretarget,0,37,37,37,1982.069528392104,1984.0714098961662,None,0,4,,B10L08,2023-01-25_16h26.01.542,t1_Paradigm,2021.1.4,59.972314730904046,
Z,left,Pretarget,0,38,38,38,1985.5695356101505,1987.5709734449674,right,0,4,1.1318079409429629,B10L08,2023-01-25_16h26.01.542,t1_Paradigm,2021.1.4,59.972314730904046,
P,left,Pretarget,0,39,39,39,1989.0694607028718,1991.0687591087744,left,1,4,0.9617860590333294,B10L08,2023-01-25_16h26.01.542,t1_Paradigm,2021.1.4,59.972314730904046,
M,left,Distractor,0,40,40,40,1992.5694262166498,1994.5708550690097,None,0,4,,B10L08,2023-01-25_16h26.01.542,t1_Paradigm,2021.1.4,59.972314730904046,
N,right,Target,0,41,41,41,1996.069035960948,1998.071288312186,right,1,4,0.9671020699097426,B10L08,2023-01-25_16h26.01.542,t1_Paradigm,2021.1.4,59.972314730904046,
Z,right,Target,0,42,42,42,1999.5694499560022,2001.569324201596,left,0,4,1.325172984488745,B10L08,2023-01-25_16h26.01.542,t1_Paradigm,2021.1.4,59.972314730904046,
P,right,Target,0,43,43,43,2003.0689612140695,2005.070849775776,None,0,4,,B10L08,2023-01-25_16h26.01.542,t1_Paradigm,2021.1.4,59.972314730904046,
X,left,Pretarget,0,44,44,44,2006.569318106357,2008.5708464073532,None,0,4,,B10L08,2023-01-25_16h26.01.542,t1_Paradigm,2021.1.4,59.972314730904046,
Z,left,Lure,0,45,45,45,2010.0694292642702,2012.070293184207,None,0,4,,B10L08,2023-01-25_16h26.01.542,t1_Paradigm,2021.1.4,59.972314730904046,
R,left,Pretarget,0,46,46,46,2013.5693046326714,2015.5714302670976,left,1,4,0.8270661978240241,B10L08,2023-01-25_16h26.01.542,t1_Paradigm,2021.1.4,59.972314730904046,
K,left,Distractor,0,47,47,47,2017.0691248231187,2019.0718198811946,left,1,4,1.006413474713554,B10L08,2023-01-25_16h26.01.542,t1_Paradigm,2021.1.4,59.972314730904046,
X,right,Target,0,48,48,48,2020.569397344464,2022.5709728033644,right,1,4,0.6592966671560134,B10L08,2023-01-25_16h26.01.542,t1_Paradigm,2021.1.4,59.972314730904046,
B,left,Distractor,0,49,49,49,2024.0693266076114,2026.0711346480011,left,1,4,0.7113179286334343,B10L08,2023-01-25_16h26.01.542,t1_Paradigm,2021.1.4,59.972314730904046,
R,right,Target,0,50,50,50,2027.5693825875705,2029.570935911127,left,0,4,1.1315461664635222,B10L08,2023-01-25_16h26.01.542,t1_Paradigm,2021.1.4,59.972314730904046,
Y,left,Pretarget,0,51,51,51,2031.0858905801933,2033.0714827182337,left,1,4,1.2631157514770166,B10L08,2023-01-25_16h26.01.542,t1_Paradigm,2021.1.4,59.972314730904046,
W,left,Pretarget,0,52,52,52,2034.5694368031172,2036.570806307097,left,1,4,1.187627819568661,B10L08,2023-01-25_16h26.01.542,t1_Paradigm,2021.1.4,59.972314730904046,
Z,left,Distractor,0,53,53,53,2038.0857314623727,2040.0713871192193,None,0,4,,B10L08,2023-01-25_16h26.01.542,t1_Paradigm,2021.1.4,59.972314730904046,
Q,left,Distractor,0,54,54,54,2041.585772364636,2043.5710250941002,None,0,4,,B10L08,2023-01-25_16h26.01.542,t1_Paradigm,2021.1.4,59.972314730904046,
Y,right,Target,0,55,55,55,2045.0695530938638,2047.070218758131,right,1,4,1.3285141379074048,B10L08,2023-01-25_16h26.01.542,t1_Paradigm,2021.1.4,59.972314730904046,
W,right,Target,0,56,56,56,2048.585763382177,2050.571626277154,None,0,4,,B10L08,2023-01-25_16h26.01.542,t1_Paradigm,2021.1.4,59.972314730904046,
H,left,Pretarget,0,57,57,57,2052.0858039636378,2054.0712530239607,left,1,4,1.1912878502316744,B10L08,2023-01-25_16h26.01.542,t1_Paradigm,2021.1.4,59.972314730904046,
M,left,Distractor,0,58,58,58,2055.569386437194,2057.570876562747,left,1,4,1.0358063215335278,B10L08,2023-01-25_16h26.01.542,t1_Paradigm,2021.1.4,59.972314730904046,
R,left,Pretarget,0,59,59,59,2059.0694010336892,2061.0685598906957,left,1,4,1.4259856723383564,B10L08,2023-01-25_16h26.01.542,t1_Paradigm,2021.1.4,59.972314730904046,
J,left,Distractor,0,60,60,60,2062.5695121916006,2064.571627560362,left,1,4,0.9312341543827642,B10L08,2023-01-25_16h26.01.542,t1_Paradigm,2021.1.4,59.972314730904046,
H,right,Target,0,61,61,61,2066.069276562491,2068.071685465132,right,1,4,0.8547790042757697,B10L08,2023-01-25_16h26.01.542,t1_Paradigm,2021.1.4,59.972314730904046,
Z,left,Distractor,0,62,62,62,2069.5694454647737,2071.571279490131,left,1,4,0.5548938834908768,B10L08,2023-01-25_16h26.01.542,t1_Paradigm,2021.1.4,59.972314730904046,
R,right,Target,0,63,63,63,2073.069384993586,2075.085630409726,right,1,4,1.1366956810725242,B10L08,2023-01-25_16h26.01.542,t1_Paradigm,2021.1.4,59.972314730904046,
J,left,Pretarget,0,0,0,0,2092.2445913575293,2094.238260649746,None,0,4,,B10L08,2023-01-25_16h26.01.542,t1_Paradigm,2021.1.4,59.972314730904046,
G,left,Pretarget,0,1,1,1,2095.736098604287,2097.7370584440405,None,0,4,,B10L08,2023-01-25_16h26.01.542,t1_Paradigm,2021.1.4,59.972314730904046,
Z,left,Distractor,0,2,2,2,2099.236120258426,2101.2356361681223,None,0,4,,B10L08,2023-01-25_16h26.01.542,t1_Paradigm,2021.1.4,59.972314730904046,
F,left,Distractor,0,3,3,3,2102.735822072914,2104.7493105161802,None,0,4,,B10L08,2023-01-25_16h26.01.542,t1_Paradigm,2021.1.4,59.972314730904046,
J,right,Target,0,4,4,4,2106.2359640278237,2108.237723627103,right,1,4,0.5927462805411778,B10L08,2023-01-25_16h26.01.542,t1_Paradigm,2021.1.4,59.972314730904046,
G,right,Target,0,5,5,5,2109.7359494313305,2111.7383198377256,right,1,4,0.7242327778203617,B10L08,2023-01-25_16h26.01.542,t1_Paradigm,2021.1.4,59.972314730904046,
H,left,Distractor,0,6,6,6,2113.235998674446,2115.238311978076,None,0,4,,B10L08,2023-01-25_16h26.01.542,t1_Paradigm,2021.1.4,59.972314730904046,
P,left,Distractor,0,7,7,7,2116.7360665240803,2118.7376182436283,left,1,4,0.9569271910859243,B10L08,2023-01-25_16h26.01.542,t1_Paradigm,2021.1.4,59.972314730904046,
G,left,Lure,0,8,8,8,2120.2361205792267,2122.237893972996,None,0,4,,B10L08,2023-01-25_16h26.01.542,t1_Paradigm,2021.1.4,59.972314730904046,
S,left,Distractor,0,9,9,9,2123.7360681280907,2125.7384343640597,left,1,4,0.9480034402804449,B10L08,2023-01-25_16h26.01.542,t1_Paradigm,2021.1.4,59.972314730904046,
R,left,Pretarget,0,10,10,10,2127.236048398764,2129.238526915454,left,1,4,1.1120122084430477,B10L08,2023-01-25_16h26.01.542,t1_Paradigm,2021.1.4,59.972314730904046,
T,left,Pretarget,0,11,11,11,2130.7359301832066,2132.7359584137876,left,1,4,0.8943922838116123,B10L08,2023-01-25_16h26.01.542,t1_Paradigm,2021.1.4,59.972314730904046,
X,left,Distractor,0,12,12,12,2134.236080799773,2136.2367474264456,left,1,4,0.5776143683397095,B10L08,2023-01-25_16h26.01.542,t1_Paradigm,2021.1.4,59.972314730904046,
F,left,Pretarget,0,13,13,13,2137.7360700529034,2139.738096559494,right,0,4,1.236322363722138,B10L08,2023-01-25_16h26.01.542,t1_Paradigm,2021.1.4,59.972314730904046,
R,right,Target,0,14,14,14,2141.2359402884713,2143.238318714918,left,0,4,1.2082486549570604,B10L08,2023-01-25_16h26.01.542,t1_Paradigm,2021.1.4,59.972314730904046,
T,right,Target,0,15,15,15,2144.736186183248,2146.738098805109,right,1,4,0.6043589941837126,B10L08,2023-01-25_16h26.01.542,t1_Paradigm,2021.1.4,59.972314730904046,
C,left,Distractor,0,16,16,16,2148.235841481438,2150.236204308564,left,1,4,0.6262486017039919,B10L08,2023-01-25_16h26.01.542,t1_Paradigm,2021.1.4,59.972314730904046,
F,right,Target,0,17,17,17,2151.7358384338195,2153.736833240996,None,0,4,,B10L08,2023-01-25_16h26.01.542,t1_Paradigm,2021.1.4,59.972314730904046,
M,left,Distractor,0,18,18,18,2155.2360025240714,2157.237087155824,left,1,4,1.1932777853871812,B10L08,2023-01-25_16h26.01.542,t1_Paradigm,2021.1.4,59.972314730904046,
N,left,Distractor,0,19,19,19,2158.7361406293558,2160.7356687295314,left,1,4,1.1347378261234553,B10L08,2023-01-25_16h26.01.542,t1_Paradigm,2021.1.4,59.972314730904046,
R,left,Lure,0,20,20,20,2162.2360708549086,2164.236242163207,left,1,4,0.6263114789071551,B10L08,2023-01-25_16h26.01.542,t1_Paradigm,2021.1.4,59.972314730904046,
F,right,Target,0,21,21,21,2165.7360995666922,2167.7373397874426,right,1,4,1.1092436866947537,B10L08,2023-01-25_16h26.01.542,t1_Paradigm,2021.1.4,59.972314730904046,
P,left,Distractor,0,22,22,22,2169.2361375817372,2171.238045712368,right,0,4,1.416342362521391,B10L08,2023-01-25_16h26.01.542,t1_Paradigm,2021.1.4,59.972314730904046,
L,left,Pretarget,0,23,23,23,2172.736035406281,2174.738166494343,left,1,4,1.164726723163767,B10L08,2023-01-25_16h26.01.542,t1_Paradigm,2021.1.4,59.972314730904046,
T,left,Distractor,0,24,24,24,2176.235696158107,2178.2371554866613,left,1,4,1.329489055355225,B10L08,2023-01-25_16h26.01.542,t1_Paradigm,2021.1.4,59.972314730904046,
F,left,Distractor,0,25,25,25,2179.736075185737,2181.7374171007386,right,0,4,1.3329546799723175,B10L08,2023-01-25_16h26.01.542,t1_Paradigm,2021.1.4,59.972314730904046,
V,left,Distractor,0,26,26,26,2183.236083686991,2185.237748970466,left,1,4,1.2407924195758824,B10L08,2023-01-25_16h26.01.542,t1_Paradigm,2021.1.4,59.972314730904046,
L,right,Target,0,27,27,27,2186.736198052925,2188.7355410503123,right,1,4,0.894905887904315,B10L08,2023-01-25_16h26.01.542,t1_Paradigm,2021.1.4,59.972314730904046,
S,left,Pretarget,0,28,28,28,2190.2360965190737,2192.237903597058,left,1,4,1.3126617042853468,B10L08,2023-01-25_16h26.01.542,t1_Paradigm,2021.1.4,59.972314730904046,
W,left,Distractor,0,29,29,29,2193.73595873459,2195.7366134915874,None,0,4,,B10L08,2023-01-25_16h26.01.542,t1_Paradigm,2021.1.4,59.972314730904046,
Q,left,Distractor,0,30,30,30,2197.236084970199,2199.237919316359,left,1,4,0.7447147059192503,B10L08,2023-01-25_16h26.01.542,t1_Paradigm,2021.1.4,59.972314730904046,
L,right,Target,0,31,31,31,2200.736122985242,2202.7371453813967,left,0,4,1.4213253808629815,B10L08,2023-01-25_16h26.01.542,t1_Paradigm,2021.1.4,59.972314730904046,
S,right,Target,0,32,32,32,2204.236083686991,2206.2364481181276,None,0,4,,B10L08,2023-01-25_16h26.01.542,t1_Paradigm,2021.1.4,59.972314730904046,
Z,left,Pretarget,0,33,33,33,2207.7355882082147,2209.738228409139,right,0,4,1.2522588474803342,B10L08,2023-01-25_16h26.01.542,t1_Paradigm,2021.1.4,59.972314730904046,
F,left,Distractor,0,34,34,34,2211.236047757161,2213.2383029956172,None,0,4,,B10L08,2023-01-25_16h26.01.542,t1_Paradigm,2021.1.4,59.972314730904046,
V,left,Distractor,0,35,35,35,2214.736182975227,2216.737353902733,left,1,4,0.8132149274315452,B10L08,2023-01-25_16h26.01.542,t1_Paradigm,2021.1.4,59.972314730904046,
M,left,Distractor,0,36,36,36,2218.235246393623,2220.2385150457767,left,1,4,0.8798711787258071,B10L08,2023-01-25_16h26.01.542,t1_Paradigm,2021.1.4,59.972314730904046,
Z,right,Target,0,37,37,37,2221.73611464439,2223.7376294717005,right,1,4,1.1729203284885443,B10L08,2023-01-25_16h26.01.542,t1_Paradigm,2021.1.4,59.972314730904046,
H,left,Pretarget,0,38,38,38,2225.252744862596,2227.237771105808,left,1,4,1.1926782063437713,B10L08,2023-01-25_16h26.01.542,t1_Paradigm,2021.1.4,59.972314730904046,
L,left,Distractor,0,39,39,39,2228.7360357270836,2230.738255998117,right,0,4,0.6841947563607391,B10L08,2023-01-25_16h26.01.542,t1_Paradigm,2021.1.4,59.972314730904046,
G,left,Distractor,0,40,40,40,2232.2358854313197,2234.2380582236483,left,1,4,1.184368470676418,B10L08,2023-01-25_16h26.01.542,t1_Paradigm,2021.1.4,59.972314730904046,
K,left,Distractor,0,41,41,41,2235.736129080483,2237.7382563189176,left,1,4,1.1723124085910968,B10L08,2023-01-25_16h26.01.542,t1_Paradigm,2021.1.4,59.972314730904046,
H,right,Target,0,42,42,42,2239.2355707245033,2241.2381749955975,right,1,4,0.6322309184524784,B10L08,2023-01-25_16h26.01.542,t1_Paradigm,2021.1.4,59.972314730904046,
B,left,Distractor,0,43,43,43,2242.73560296511,2244.7380516472067,left,1,4,0.7323663931620104,B10L08,2023-01-25_16h26.01.542,t1_Paradigm,2021.1.4,59.972314730904046,
Z,left,Distractor,0,44,44,44,2246.236087215814,2248.2376633163176,None,0,4,,B10L08,2023-01-25_16h26.01.542,t1_Paradigm,2021.1.4,59.972314730904046,
T,left,Pretarget,0,45,45,45,2249.7361797672065,2251.7384613114327,left,1,4,0.8838834500456869,B10L08,2023-01-25_16h26.01.542,t1_Paradigm,2021.1.4,59.972314730904046,
H,right,Target,0,46,46,46,2253.2357105942,2255.2378073564405,None,0,4,,B10L08,2023-01-25_16h26.01.542,t1_Paradigm,2021.1.4,59.972314730904046,
F,left,Distractor,0,47,47,47,2256.7358127696543,2258.7380051309074,left,1,4,1.0844033418597974,B10L08,2023-01-25_16h26.01.542,t1_Paradigm,2021.1.4,59.972314730904046,
R,left,Distractor,0,48,48,48,2260.236033962673,2262.2378631759975,right,0,4,1.232557751587592,B10L08,2023-01-25_16h26.01.542,t1_Paradigm,2021.1.4,59.972314730904046,
T,right,Target,0,49,49,49,2263.736092509048,2265.736257401305,left,0,4,1.1263270378058223,B10L08,2023-01-25_16h26.01.542,t1_Paradigm,2021.1.4,59.972314730904046,
H,right,Target,0,50,50,50,2267.2360708549086,2269.2368058124202,right,1,4,1.0659142361364502,B10L08,2023-01-25_16h26.01.542,t1_Paradigm,2021.1.4,59.972314730904046,
Y,left,Pretarget,0,51,51,51,2270.73605529601,2272.738305722435,left,1,4,0.6201501546092913,B10L08,2023-01-25_16h26.01.542,t1_Paradigm,2021.1.4,59.972314730904046,
H,left,Distractor,0,52,52,52,2274.2360522483896,2276.237548469181,None,0,4,,B10L08,2023-01-25_16h26.01.542,t1_Paradigm,2021.1.4,59.972314730904046,
S,left,Distractor,0,53,53,53,2277.736111115567,2279.737902795053,left,1,4,1.2045312007267057,B10L08,2023-01-25_16h26.01.542,t1_Paradigm,2021.1.4,59.972314730904046,
Q,left,Distractor,0,54,54,54,2281.236063476462,2283.238353040738,left,1,4,1.1759750056698977,B10L08,2023-01-25_16h26.01.542,t1_Paradigm,2021.1.4,59.972314730904046,
Y,right,Target,0,55,55,55,2284.7355349550735,2286.7377542636996,right,1,4,0.7326964984767983,B10L08,2023-01-25_16h26.01.542,t1_Paradigm,2021.1.4,59.972314730904046,
R,left,Distractor,0,56,56,56,2288.23612571206,2290.2358908849556,left,1,4,1.1065999569491396,B10L08,2023-01-25_16h26.01.542,t1_Paradigm,2021.1.4,59.972314730904046,
H,left,Pretarget,0,57,57,57,2291.7358355465994,2293.7383426146725,None,0,4,,B10L08,2023-01-25_16h26.01.542,t1_Paradigm,2021.1.4,59.972314730904046,
J,left,Distractor,0,58,58,58,2295.236098764687,2297.237802865212,left,1,4,0.648650209306652,B10L08,2023-01-25_16h26.01.542,t1_Paradigm,2021.1.4,59.972314730904046,
V,left,Distractor,0,59,59,59,2298.7359722082756,2300.7380763489646,left,1,4,1.0204135972599033,B10L08,2023-01-25_16h26.01.542,t1_Paradigm,2021.1.4,59.972314730904046,
Y,left,Lure,0,60,60,60,2302.2360830453863,2304.2382776522545,left,1,4,0.831953296354186,B10L08,2023-01-25_16h26.01.542,t1_Paradigm,2021.1.4,59.972314730904046,
H,right,Target,0,61,61,61,2305.736258684513,2307.73610373712,None,0,4,,B10L08,2023-01-25_16h26.01.542,t1_Paradigm,2021.1.4,59.972314730904046,
L,left,Distractor,0,62,62,62,2309.2361231456443,2311.237452549366,right,0,4,0.9689498897569138,B10L08,2023-01-25_16h26.01.542,t1_Paradigm,2021.1.4,59.972314730904046,
P,left,Distractor,0,63,63,63,2312.7360562584154,2314.7361929200915,left,1,4,0.6862610424086597,B10L08,2023-01-25_16h26.01.542,t1_Paradigm,2021.1.4,59.972314730904046,
