Currentstep,EDround.thisRepN,EDround.thisTrialN,EDround.thisN,EDround.thisIndex,question.started,EDclick.clicked_name,EDleftbutton.wasclicked,EDrightbutton.wasclicked,EDleftbutton.value,EDrightbutton.value,EDleftbutton.nback,EDrightbutton.nback,Participant,date,expName,psychopyVersion,frameRate,
,,,,,,,,,,,,,B10L08,2023-01-25_16h26.01.542,t1_Paradigm,2021.1.4,59.972314730904046,
0,0,0,0,0,2541.06086513257,EDleftbutton,1,0,2.00,1.00,1,4,B10L08,2023-01-25_16h26.01.542,t1_Paradigm,2021.1.4,59.972314730904046,
1,0,1,1,1,2552.688081273277,EDleftbutton,1,0,2.00,1.50,1,4,B10L08,2023-01-25_16h26.01.542,t1_Paradigm,2021.1.4,59.972314730904046,
2,0,2,2,2,2555.618294956318,EDleftbutton,1,0,2.00,1.75,1,4,B10L08,2023-01-25_16h26.01.542,t1_Paradigm,2021.1.4,59.972314730904046,
3,0,3,3,3,2562.6719298521393,EDrightbutton,0,1,2.00,1.88,1,4,B10L08,2023-01-25_16h26.01.542,t1_Paradigm,2021.1.4,59.972314730904046,
4,0,4,4,4,2576.949287290111,EDleftbutton,1,0,2.00,1.82,1,4,B10L08,2023-01-25_16h26.01.542,t1_Paradigm,2021.1.4,59.972314730904046,
5,0,5,5,5,2580.709558329353,EDrightbutton,0,1,2.00,1.85,1,4,B10L08,2023-01-25_16h26.01.542,t1_Paradigm,2021.1.4,59.972314730904046,
0,0,0,0,0,2582.627453534228,EDleftbutton,1,0,2.00,1.00,1,3,B10L08,2023-01-25_16h26.01.542,t1_Paradigm,2021.1.4,59.972314730904046,
1,0,1,1,1,2586.465412565881,EDleftbutton,1,0,2.00,1.50,1,3,B10L08,2023-01-25_16h26.01.542,t1_Paradigm,2021.1.4,59.972314730904046,
2,0,2,2,2,2587.8541733299926,EDleftbutton,1,0,2.00,1.75,1,3,B10L08,2023-01-25_16h26.01.542,t1_Paradigm,2021.1.4,59.972314730904046,
3,0,3,3,3,2589.678152449628,EDrightbutton,0,1,2.00,1.88,1,3,B10L08,2023-01-25_16h26.01.542,t1_Paradigm,2021.1.4,59.972314730904046,
4,0,4,4,4,2592.6090738220073,EDleftbutton,1,0,2.00,1.82,1,3,B10L08,2023-01-25_16h26.01.542,t1_Paradigm,2021.1.4,59.972314730904046,
5,0,5,5,5,2594.9983376037444,EDrightbutton,0,1,2.00,1.85,1,3,B10L08,2023-01-25_16h26.01.542,t1_Paradigm,2021.1.4,59.972314730904046,
0,0,0,0,0,2596.316922918003,EDleftbutton,1,0,2.00,1.00,3,4,B10L08,2023-01-25_16h26.01.542,t1_Paradigm,2021.1.4,59.972314730904046,
1,0,1,1,1,2600.560792791707,EDleftbutton,1,0,2.00,1.50,3,4,B10L08,2023-01-25_16h26.01.542,t1_Paradigm,2021.1.4,59.972314730904046,
2,0,2,2,2,2603.274716916246,EDleftbutton,1,0,2.00,1.75,3,4,B10L08,2023-01-25_16h26.01.542,t1_Paradigm,2021.1.4,59.972314730904046,
3,0,3,3,3,2610.697672292358,EDleftbutton,1,0,2.00,1.88,3,4,B10L08,2023-01-25_16h26.01.542,t1_Paradigm,2021.1.4,59.972314730904046,
4,0,4,4,4,2611.646323752794,EDleftbutton,1,0,2.00,1.94,3,4,B10L08,2023-01-25_16h26.01.542,t1_Paradigm,2021.1.4,59.972314730904046,
5,0,5,5,5,2613.4632792322054,EDleftbutton,1,0,2.00,1.97,3,4,B10L08,2023-01-25_16h26.01.542,t1_Paradigm,2021.1.4,59.972314730904046,
0,0,0,0,0,2615.058925563336,EDleftbutton,1,0,2.00,1.00,2,3,B10L08,2023-01-25_16h26.01.542,t1_Paradigm,2021.1.4,59.972314730904046,
1,0,1,1,1,2625.631194086206,EDleftbutton,1,0,2.00,1.50,2,3,B10L08,2023-01-25_16h26.01.542,t1_Paradigm,2021.1.4,59.972314730904046,
2,0,2,2,2,2626.4299568809956,EDleftbutton,1,0,2.00,1.75,2,3,B10L08,2023-01-25_16h26.01.542,t1_Paradigm,2021.1.4,59.972314730904046,
3,0,3,3,3,2627.1873580250403,EDleftbutton,1,0,2.00,1.88,2,3,B10L08,2023-01-25_16h26.01.542,t1_Paradigm,2021.1.4,59.972314730904046,
4,0,4,4,4,2628.381114767898,EDrightbutton,0,1,2.00,1.94,2,3,B10L08,2023-01-25_16h26.01.542,t1_Paradigm,2021.1.4,59.972314730904046,
5,0,5,5,5,2631.7024904184445,EDrightbutton,0,1,2.00,1.91,2,3,B10L08,2023-01-25_16h26.01.542,t1_Paradigm,2021.1.4,59.972314730904046,
0,0,0,0,0,2635.7328886589103,EDleftbutton,1,0,2.00,1.00,1,2,B10L08,2023-01-25_16h26.01.542,t1_Paradigm,2021.1.4,59.972314730904046,
1,0,1,1,1,2641.252248902617,EDleftbutton,1,0,2.00,1.50,1,2,B10L08,2023-01-25_16h26.01.542,t1_Paradigm,2021.1.4,59.972314730904046,
2,0,2,2,2,2642.10472968096,EDleftbutton,1,0,2.00,1.75,1,2,B10L08,2023-01-25_16h26.01.542,t1_Paradigm,2021.1.4,59.972314730904046,
3,0,3,3,3,2643.494310415127,EDrightbutton,0,1,2.00,1.88,1,2,B10L08,2023-01-25_16h26.01.542,t1_Paradigm,2021.1.4,59.972314730904046,
4,0,4,4,4,2645.012579290239,EDleftbutton,1,0,2.00,1.82,1,2,B10L08,2023-01-25_16h26.01.542,t1_Paradigm,2021.1.4,59.972314730904046,
5,0,5,5,5,2647.495288219795,EDrightbutton,0,1,2.00,1.85,1,2,B10L08,2023-01-25_16h26.01.542,t1_Paradigm,2021.1.4,59.972314730904046,
0,0,0,0,0,2648.6961167231866,EDleftbutton,1,0,2.00,1.00,2,4,B10L08,2023-01-25_16h26.01.542,t1_Paradigm,2021.1.4,59.972314730904046,
1,0,1,1,1,2653.1553968369562,EDleftbutton,1,0,2.00,1.50,2,4,B10L08,2023-01-25_16h26.01.542,t1_Paradigm,2021.1.4,59.972314730904046,
2,0,2,2,2,2653.792223244868,EDleftbutton,1,0,2.00,1.75,2,4,B10L08,2023-01-25_16h26.01.542,t1_Paradigm,2021.1.4,59.972314730904046,
3,0,3,3,3,2655.2022464484808,EDleftbutton,1,0,2.00,1.88,2,4,B10L08,2023-01-25_16h26.01.542,t1_Paradigm,2021.1.4,59.972314730904046,
4,0,4,4,4,2656.396796855627,EDleftbutton,1,0,2.00,1.94,2,4,B10L08,2023-01-25_16h26.01.542,t1_Paradigm,2021.1.4,59.972314730904046,
5,0,5,5,5,2658.7096468707196,EDrightbutton,0,1,2.00,1.97,2,4,B10L08,2023-01-25_16h26.01.542,t1_Paradigm,2021.1.4,59.972314730904046,
