Letter,CorrAnswer,Stimulus,nback_run.thisRepN,nback_run.thisTrialN,nback_run.thisN,nback_run.thisIndex,fixcross.started,nback_trial.started,trial_resp.keys,trial_resp.corr,currentlevel,trial_resp.rt,Participant,date,expName,psychopyVersion,frameRate,
H,left,Distractor,0,0,0,0,1040.3494496646017,1042.2816215886742,None,0,1,,B15D10,2023-01-10_10h44.51.208,t1_Paradigm,2021.1.4,59.99268661172605,
Q,left,Pretarget,0,1,1,1,1043.7819298791542,1045.7851054956545,left,1,1,0.8672843169649695,B15D10,2023-01-10_10h44.51.208,t1_Paradigm,2021.1.4,59.99268661172605,
Q,right,Target,0,2,2,2,1047.280421469336,1049.2804346222078,right,1,1,0.7000734636003472,B15D10,2023-01-10_10h44.51.208,t1_Paradigm,2021.1.4,59.99268661172605,
T,left,Distractor,0,3,3,3,1050.7804002964208,1052.7803865019455,left,1,1,0.8640695626509114,B15D10,2023-01-10_10h44.51.208,t1_Paradigm,2021.1.4,59.99268661172605,
Q,left,Lure,0,4,4,4,1054.28049557454,1056.2823122748373,left,1,1,0.9940314834836954,B15D10,2023-01-10_10h44.51.208,t1_Paradigm,2021.1.4,59.99268661172605,
L,left,Distractor,0,5,5,5,1057.780658221026,1059.7834495170328,left,1,1,0.8849142978131113,B15D10,2023-01-10_10h44.51.208,t1_Paradigm,2021.1.4,59.99268661172605,
V,left,Pretarget,0,6,6,6,1061.2802604268586,1063.2820966960626,left,1,1,0.9542498211530983,B15D10,2023-01-10_10h44.51.208,t1_Paradigm,2021.1.4,59.99268661172605,
V,right,Target,0,7,7,7,1064.7806691282854,1066.7807451582994,right,1,1,0.5917037460021675,B15D10,2023-01-10_10h44.51.208,t1_Paradigm,2021.1.4,59.99268661172605,
K,left,Distractor,0,8,8,8,1068.2806858099761,1070.2832977778062,left,1,1,0.7370987973142746,B15D10,2023-01-10_10h44.51.208,t1_Paradigm,2021.1.4,59.99268661172605,
G,left,Pretarget,0,9,9,9,1071.780144296626,1073.7821364754795,left,1,1,0.630342391705426,B15D10,2023-01-10_10h44.51.208,t1_Paradigm,2021.1.4,59.99268661172605,
G,right,Target,0,10,10,10,1075.2802158354157,1077.2807214189702,right,1,1,0.6035317064406627,B15D10,2023-01-10_10h44.51.208,t1_Paradigm,2021.1.4,59.99268661172605,
G,right,Target,0,11,11,11,1078.7807101909093,1080.7803146423544,right,1,1,0.6879683304514401,B15D10,2023-01-10_10h44.51.208,t1_Paradigm,2021.1.4,59.99268661172605,
P,left,Pretarget,0,12,12,12,1082.280144296626,1084.2829885249216,left,1,1,0.4974704782191566,B15D10,2023-01-10_10h44.51.208,t1_Paradigm,2021.1.4,59.99268661172605,
P,right,Target,0,13,13,13,1085.7804057500507,1087.7804182613186,right,1,1,0.8080072116231349,B15D10,2023-01-10_10h44.51.208,t1_Paradigm,2021.1.4,59.99268661172605,
G,left,Lure,0,14,14,14,1089.2804564367266,1091.2827546604472,left,1,1,0.9855289539618752,B15D10,2023-01-10_10h44.51.208,t1_Paradigm,2021.1.4,59.99268661172605,
Y,left,Distractor,0,15,15,15,1092.780374632281,1094.7821136985553,left,1,1,0.7661105033701006,B15D10,2023-01-10_10h44.51.208,t1_Paradigm,2021.1.4,59.99268661172605,
B,left,Distractor,0,16,16,16,1096.280222893054,1098.2828143295724,left,1,1,0.7535212803841205,B15D10,2023-01-10_10h44.51.208,t1_Paradigm,2021.1.4,59.99268661172605,
T,left,Pretarget,0,17,17,17,1099.7806572586205,1101.7825634626056,left,1,1,0.6937892781638766,B15D10,2023-01-10_10h44.51.208,t1_Paradigm,2021.1.4,59.99268661172605,
T,right,Target,0,18,18,18,1103.2805549228633,1105.2806864515796,right,1,1,1.4354983173948312,B15D10,2023-01-10_10h44.51.208,t1_Paradigm,2021.1.4,59.99268661172605,
S,left,Distractor,0,19,19,19,1106.7802116649932,1108.7840125241,left,1,1,0.6043940215386101,B15D10,2023-01-10_10h44.51.208,t1_Paradigm,2021.1.4,59.99268661172605,
T,left,Lure,0,20,20,20,1110.2802758253429,1112.282654891104,left,1,1,0.7217346392103536,B15D10,2023-01-10_10h44.51.208,t1_Paradigm,2021.1.4,59.99268661172605,
J,left,Distractor,0,21,21,21,1113.7806691282854,1115.7843881829467,left,1,1,0.7239911587039387,B15D10,2023-01-10_10h44.51.208,t1_Paradigm,2021.1.4,59.99268661172605,
P,left,Distractor,0,22,22,22,1117.2805732085626,1119.2826462294565,left,1,1,0.4576878534833213,B15D10,2023-01-10_10h44.51.208,t1_Paradigm,2021.1.4,59.99268661172605,
F,left,Distractor,0,23,23,23,1120.7805260507057,1122.782379001601,left,1,1,0.4460523740933695,B15D10,2023-01-10_10h44.51.208,t1_Paradigm,2021.1.4,59.99268661172605,
L,left,Distractor,0,24,24,24,1124.2802431035643,1126.2822214879425,left,1,1,0.5142577128760877,B15D10,2023-01-10_10h44.51.208,t1_Paradigm,2021.1.4,59.99268661172605,
W,left,Pretarget,0,25,25,25,1127.7806774691308,1129.7833025898326,left,1,1,0.5170271943641183,B15D10,2023-01-10_10h44.51.208,t1_Paradigm,2021.1.4,59.99268661172605,
W,right,Target,0,26,26,26,1131.2802447075733,1133.2807095493058,right,1,1,0.6515002293731413,B15D10,2023-01-10_10h44.51.208,t1_Paradigm,2021.1.4,59.99268661172605,
V,left,Distractor,0,27,27,27,1134.7806277448599,1136.782836464893,left,1,1,0.4616179956949509,B15D10,2023-01-10_10h44.51.208,t1_Paradigm,2021.1.4,59.99268661172605,
W,left,Lure,0,28,28,28,1138.2806094591601,1140.2824534276065,left,1,1,0.6579451364850684,B15D10,2023-01-10_10h44.51.208,t1_Paradigm,2021.1.4,59.99268661172605,
R,left,Pretarget,0,29,29,29,1141.7806303112739,1143.783981406331,left,1,1,0.5322107410840999,B15D10,2023-01-10_10h44.51.208,t1_Paradigm,2021.1.4,59.99268661172605,
R,right,Target,0,30,30,30,1145.2806710530958,1147.28031207594,right,1,1,0.539960028102314,B15D10,2023-01-10_10h44.51.208,t1_Paradigm,2021.1.4,59.99268661172605,
G,left,Distractor,0,31,31,31,1148.7802860909987,1150.780509369015,left,1,1,0.7036715760027619,B15D10,2023-01-10_10h44.51.208,t1_Paradigm,2021.1.4,59.99268661172605,
R,left,Lure,0,32,32,32,1152.2805132186359,1154.2817688366767,left,1,1,0.9147543139815753,B15D10,2023-01-10_10h44.51.208,t1_Paradigm,2021.1.4,59.99268661172605,
S,left,Distractor,0,33,33,33,1155.7804923665226,1157.782379964006,left,1,1,0.5338141082193033,B15D10,2023-01-10_10h44.51.208,t1_Paradigm,2021.1.4,59.99268661172605,
R,left,Lure,0,34,34,34,1159.2806020807202,1161.2807509327313,left,1,1,0.507587282135546,B15D10,2023-01-10_10h44.51.208,t1_Paradigm,2021.1.4,59.99268661172605,
P,left,Pretarget,0,35,35,35,1162.7804869128927,1164.7804144116976,left,1,1,0.543890811916981,B15D10,2023-01-10_10h44.51.208,t1_Paradigm,2021.1.4,59.99268661172605,
P,right,Target,0,36,36,36,1166.280505519394,1168.2804907625136,right,1,1,0.46760640191951097,B15D10,2023-01-10_10h44.51.208,t1_Paradigm,2021.1.4,59.99268661172605,
Y,left,Pretarget,0,37,37,37,1169.780118953288,1171.7805513940439,left,1,1,0.5036334005947083,B15D10,2023-01-10_10h44.51.208,t1_Paradigm,2021.1.4,59.99268661172605,
Y,right,Target,0,38,38,38,1173.280499424161,1175.280259785255,right,1,1,0.5879891825650247,B15D10,2023-01-10_10h44.51.208,t1_Paradigm,2021.1.4,59.99268661172605,
J,left,Distractor,0,39,39,39,1176.7804496998901,1178.7934200353525,left,1,1,0.5309647470958225,B15D10,2023-01-10_10h44.51.208,t1_Paradigm,2021.1.4,59.99268661172605,
Y,left,Lure,0,40,40,40,1180.2799348130848,1182.2806091383586,left,1,1,0.46755058241569714,B15D10,2023-01-10_10h44.51.208,t1_Paradigm,2021.1.4,59.99268661172605,
T,left,Distractor,0,41,41,41,1183.7806287072654,1185.7817637038488,left,1,1,0.5826898584944047,B15D10,2023-01-10_10h44.51.208,t1_Paradigm,2021.1.4,59.99268661172605,
V,left,Distractor,0,42,42,42,1187.2806524465946,1189.2820761647508,left,1,1,0.4742758702550418,B15D10,2023-01-10_10h44.51.208,t1_Paradigm,2021.1.4,59.99268661172605,
N,left,Pretarget,0,43,43,43,1190.7802447075733,1192.7817906511955,left,1,1,0.478531626240283,B15D10,2023-01-10_10h44.51.208,t1_Paradigm,2021.1.4,59.99268661172605,
N,right,Target,0,44,44,44,1194.2797795450388,1196.2805671133297,right,1,1,0.6437827017282416,B15D10,2023-01-10_10h44.51.208,t1_Paradigm,2021.1.4,59.99268661172605,
N,right,Target,0,45,45,45,1197.7804355846129,1199.7806036847287,right,1,1,0.5835566648167969,B15D10,2023-01-10_10h44.51.208,t1_Paradigm,2021.1.4,59.99268661172605,
X,left,Distractor,0,46,46,46,1201.280263955678,1203.284957606049,left,1,1,0.5831428305621102,B15D10,2023-01-10_10h44.51.208,t1_Paradigm,2021.1.4,59.99268661172605,
Z,left,Distractor,0,47,47,47,1204.7802248178646,1206.7829044748637,left,1,1,0.47746720604141046,B15D10,2023-01-10_10h44.51.208,t1_Paradigm,2021.1.4,59.99268661172605,
H,left,Pretarget,0,48,48,48,1208.2805571684753,1210.2823074628109,left,1,1,0.5140883295532603,B15D10,2023-01-10_10h44.51.208,t1_Paradigm,2021.1.4,59.99268661172605,
H,right,Target,0,49,49,49,1211.7804747224263,1213.780235083521,right,1,1,0.5678701009562701,B15D10,2023-01-10_10h44.51.208,t1_Paradigm,2021.1.4,59.99268661172605,
K,left,Distractor,0,50,50,50,1215.2803970884033,1217.281587583689,left,1,1,0.45871249426568284,B15D10,2023-01-10_10h44.51.208,t1_Paradigm,2021.1.4,59.99268661172605,
V,left,Pretarget,0,51,51,51,1218.7801542414804,1220.780505519394,left,1,1,0.5917281269348678,B15D10,2023-01-10_10h44.51.208,t1_Paradigm,2021.1.4,59.99268661172605,
V,right,Target,0,52,52,52,1222.2802870534038,1224.280456115925,right,1,1,0.7078259586357944,B15D10,2023-01-10_10h44.51.208,t1_Paradigm,2021.1.4,59.99268661172605,
R,left,Distractor,0,53,53,53,1225.7805671133297,1227.7821560443863,left,1,1,0.7099621774739262,B15D10,2023-01-10_10h44.51.208,t1_Paradigm,2021.1.4,59.99268661172605,
V,left,Lure,0,54,54,54,1229.2801843968446,1231.2825060390928,left,1,1,0.5376871477194527,B15D10,2023-01-10_10h44.51.208,t1_Paradigm,2021.1.4,59.99268661172605,
Y,left,Distractor,0,55,55,55,1232.7804551535196,1234.7827302795145,left,1,1,0.525344942079073,B15D10,2023-01-10_10h44.51.208,t1_Paradigm,2021.1.4,59.99268661172605,
Q,left,Distractor,0,56,56,56,1236.2802187226316,1238.282228545581,left,1,1,0.4819266711365344,B15D10,2023-01-10_10h44.51.208,t1_Paradigm,2021.1.4,59.99268661172605,
Z,left,Pretarget,0,57,57,57,1239.7803560257794,1241.7812571578888,left,1,1,0.582789627837883,B15D10,2023-01-10_10h44.51.208,t1_Paradigm,2021.1.4,59.99268661172605,
Z,right,Target,0,58,58,58,1243.2804881960997,1245.2803175295699,right,1,1,0.7160728091648707,B15D10,2023-01-10_10h44.51.208,t1_Paradigm,2021.1.4,59.99268661172605,
B,left,Distractor,0,59,59,59,1246.7801949833024,1248.7803662914357,left,1,1,0.6238638004101631,B15D10,2023-01-10_10h44.51.208,t1_Paradigm,2021.1.4,59.99268661172605,
S,left,Pretarget,0,60,60,60,1250.2804987825575,1252.280353138564,left,1,1,0.5800146927201695,B15D10,2023-01-10_10h44.51.208,t1_Paradigm,2021.1.4,59.99268661172605,
S,right,Target,0,61,61,61,1253.780415374103,1255.7804073540592,right,1,1,0.6319188114935059,B15D10,2023-01-10_10h44.51.208,t1_Paradigm,2021.1.4,59.99268661172605,
T,left,Distractor,0,62,62,62,1257.2805125770324,1259.2815503706865,left,1,1,0.6345602930844052,B15D10,2023-01-10_10h44.51.208,t1_Paradigm,2021.1.4,59.99268661172605,
D,left,Distractor,0,63,63,63,1260.7802431035643,1262.7835595520323,left,1,1,0.7165222524131423,B15D10,2023-01-10_10h44.51.208,t1_Paradigm,2021.1.4,59.99268661172605,
R,left,Distractor,0,0,0,0,1280.0202669712144,1282.0149978025079,left,1,1,0.8771499331128325,B15D10,2023-01-10_10h44.51.208,t1_Paradigm,2021.1.4,59.99268661172605,
V,left,Distractor,0,1,1,1,1283.5138615227174,1285.5139202294372,left,1,1,0.6263468059373736,B15D10,2023-01-10_10h44.51.208,t1_Paradigm,2021.1.4,59.99268661172605,
N,left,Pretarget,0,2,2,2,1287.01374635489,1289.0146567902502,left,1,1,0.5333781386441387,B15D10,2023-01-10_10h44.51.208,t1_Paradigm,2021.1.4,59.99268661172605,
N,right,Target,0,3,3,3,1290.5138156480675,1292.5135323801242,right,1,1,0.5386155479775425,B15D10,2023-01-10_10h44.51.208,t1_Paradigm,2021.1.4,59.99268661172605,
S,left,Distractor,0,4,4,4,1294.013855748286,1296.0157946740492,left,1,1,0.4923440662905705,B15D10,2023-01-10_10h44.51.208,t1_Paradigm,2021.1.4,59.99268661172605,
N,left,Lure,0,5,5,5,1297.5134159290901,1299.5300129283105,left,1,1,0.5780555564467704,B15D10,2023-01-10_10h44.51.208,t1_Paradigm,2021.1.4,59.99268661172605,
Z,left,Distractor,0,6,6,6,1301.0135176232438,1303.0139054725569,left,1,1,0.4702790012800051,B15D10,2023-01-10_10h44.51.208,t1_Paradigm,2021.1.4,59.99268661172605,
L,left,Pretarget,0,7,7,7,1304.5137200491467,1306.5154867043716,left,1,1,0.5526580028808894,B15D10,2023-01-10_10h44.51.208,t1_Paradigm,2021.1.4,59.99268661172605,
L,right,Target,0,8,8,8,1308.0137598285637,1310.0137527709253,right,1,1,0.6060977996207839,B15D10,2023-01-10_10h44.51.208,t1_Paradigm,2021.1.4,59.99268661172605,
H,left,Distractor,0,9,9,9,1311.5134316483754,1313.5139404399474,left,1,1,0.5625249022355092,B15D10,2023-01-10_10h44.51.208,t1_Paradigm,2021.1.4,59.99268661172605,
L,left,Lure,0,10,10,10,1315.0133947561744,1317.0151184239653,left,1,1,0.46896307251086,B15D10,2023-01-10_10h44.51.208,t1_Paradigm,2021.1.4,59.99268661172605,
X,left,Pretarget,0,11,11,11,1318.5134909966991,1320.5263150465644,left,1,1,0.5897603290143252,B15D10,2023-01-10_10h44.51.208,t1_Paradigm,2021.1.4,59.99268661172605,
X,right,Target,0,12,12,12,1322.013784530298,1324.013465332559,right,1,1,0.4945569567462371,B15D10,2023-01-10_10h44.51.208,t1_Paradigm,2021.1.4,59.99268661172605,
X,right,Target,0,13,13,13,1325.5136841193512,1327.5134098338567,right,1,1,0.6588302285072132,B15D10,2023-01-10_10h44.51.208,t1_Paradigm,2021.1.4,59.99268661172605,
R,left,Distractor,0,14,14,14,1329.013503828769,1331.0139102845833,left,1,1,0.502148730106228,B15D10,2023-01-10_10h44.51.208,t1_Paradigm,2021.1.4,59.99268661172605,
T,left,Distractor,0,15,15,15,1332.513228901671,1334.5141322793925,left,1,1,0.42600836009364684,B15D10,2023-01-10_10h44.51.208,t1_Paradigm,2021.1.4,59.99268661172605,
V,left,Pretarget,0,16,16,16,1336.0133325206357,1338.0136315078644,left,1,1,0.6222325235225981,B15D10,2023-01-10_10h44.51.208,t1_Paradigm,2021.1.4,59.99268661172605,
V,right,Target,0,17,17,17,1339.5134688613784,1341.5137665654001,right,1,1,0.4502183055892601,B15D10,2023-01-10_10h44.51.208,t1_Paradigm,2021.1.4,59.99268661172605,
N,left,Distractor,0,18,18,18,1343.0137566205462,1345.0153352859465,left,1,1,0.7088092159926873,B15D10,2023-01-10_10h44.51.208,t1_Paradigm,2021.1.4,59.99268661172605,
B,left,Distractor,0,19,19,19,1346.5135028663635,1348.5145345647843,left,1,1,0.45765352769649326,B15D10,2023-01-10_10h44.51.208,t1_Paradigm,2021.1.4,59.99268661172605,
V,left,Lure,0,20,20,20,1350.0137963999628,1352.0154828547506,left,1,1,0.5407357267281441,B15D10,2023-01-10_10h44.51.208,t1_Paradigm,2021.1.4,59.99268661172605,
P,left,Distractor,0,21,21,21,1353.5134361396,1355.514369672686,left,1,1,0.43359756703944186,B15D10,2023-01-10_10h44.51.208,t1_Paradigm,2021.1.4,59.99268661172605,
K,left,Pretarget,0,22,22,22,1357.0133886609415,1359.0136764201093,left,1,1,0.550280861930105,B15D10,2023-01-10_10h44.51.208,t1_Paradigm,2021.1.4,59.99268661172605,
K,right,Target,0,23,23,23,1360.5137014426455,1362.51373352282,right,1,1,0.7144886901344307,B15D10,2023-01-10_10h44.51.208,t1_Paradigm,2021.1.4,59.99268661172605,
J,left,Pretarget,0,24,24,24,1364.0131230370944,1366.0151787346936,left,1,1,0.6369233187581358,B15D10,2023-01-10_10h44.51.208,t1_Paradigm,2021.1.4,59.99268661172605,
J,right,Target,0,25,25,25,1367.513582425197,1369.5136424151237,None,0,1,,B15D10,2023-01-10_10h44.51.208,t1_Paradigm,2021.1.4,59.99268661172605,
H,left,Distractor,0,26,26,26,1371.01331680135,1373.014749822757,left,1,1,1.221352564328754,B15D10,2023-01-10_10h44.51.208,t1_Paradigm,2021.1.4,59.99268661172605,
J,left,Lure,0,27,27,27,1374.513618034191,1376.514721913005,left,1,1,0.9053715044640285,B15D10,2023-01-10_10h44.51.208,t1_Paradigm,2021.1.4,59.99268661172605,
V,left,Distractor,0,28,28,28,1378.013695668214,1380.0145916674956,left,1,1,0.7013884299640267,B15D10,2023-01-10_10h44.51.208,t1_Paradigm,2021.1.4,59.99268661172605,
Z,left,Pretarget,0,29,29,29,1381.5136318286663,1383.5155733208435,left,1,1,0.5764884399090988,B15D10,2023-01-10_10h44.51.208,t1_Paradigm,2021.1.4,59.99268661172605,
Z,right,Target,0,30,30,30,1385.0135997484913,1387.013661021625,right,1,1,0.5343556215693752,B15D10,2023-01-10_10h44.51.208,t1_Paradigm,2021.1.4,59.99268661172605,
T,left,Distractor,0,31,31,31,1388.5137646405897,1390.5137630365812,left,1,1,0.4583852764828862,B15D10,2023-01-10_10h44.51.208,t1_Paradigm,2021.1.4,59.99268661172605,
Z,left,Lure,0,32,32,32,1392.0134072674427,1394.0136263750364,left,1,1,0.7666395054520763,B15D10,2023-01-10_10h44.51.208,t1_Paradigm,2021.1.4,59.99268661172605,
F,left,Distractor,0,33,33,33,1395.5136084101387,1397.5157821627813,left,1,1,0.592282793156528,B15D10,2023-01-10_10h44.51.208,t1_Paradigm,2021.1.4,59.99268661172605,
Y,left,Pretarget,0,34,34,34,1399.01350767839,1401.0152724088039,left,1,1,0.5007022350259831,B15D10,2023-01-10_10h44.51.208,t1_Paradigm,2021.1.4,59.99268661172605,
Y,right,Target,0,35,35,35,1402.5136719288848,1404.5134755982149,right,1,1,0.49063098495753366,B15D10,2023-01-10_10h44.51.208,t1_Paradigm,2021.1.4,59.99268661172605,
Y,right,Target,0,36,36,36,1406.0135766507656,1408.0137184451382,right,1,1,0.5584452664097626,B15D10,2023-01-10_10h44.51.208,t1_Paradigm,2021.1.4,59.99268661172605,
W,left,Distractor,0,37,37,37,1409.5133703752417,1411.5142978130943,left,1,1,0.513909963781316,B15D10,2023-01-10_10h44.51.208,t1_Paradigm,2021.1.4,59.99268661172605,
Q,left,Distractor,0,38,38,38,1413.0137101042928,1415.0156150250705,left,1,1,0.6286735810135724,B15D10,2023-01-10_10h44.51.208,t1_Paradigm,2021.1.4,59.99268661172605,
P,left,Pretarget,0,39,39,39,1416.5137633573827,1418.5136401695117,left,1,1,0.5543511945054433,B15D10,2023-01-10_10h44.51.208,t1_Paradigm,2021.1.4,59.99268661172605,
P,right,Target,0,40,40,40,1420.0134136834777,1422.0138015327907,right,1,1,0.6861474597312736,B15D10,2023-01-10_10h44.51.208,t1_Paradigm,2021.1.4,59.99268661172605,
J,left,Distractor,0,41,41,41,1423.5132943452277,1425.5147058729176,left,1,1,0.5932766369712681,B15D10,2023-01-10_10h44.51.208,t1_Paradigm,2021.1.4,59.99268661172605,
P,left,Lure,0,42,42,42,1427.0133697336382,1429.0152733712093,left,1,1,0.7088169152345927,B15D10,2023-01-10_10h44.51.208,t1_Paradigm,2021.1.4,59.99268661172605,
L,left,Distractor,0,43,43,43,1430.5135949364653,1432.5155059524764,left,1,1,0.6967092156719445,B15D10,2023-01-10_10h44.51.208,t1_Paradigm,2021.1.4,59.99268661172605,
Z,left,Distractor,0,44,44,44,1434.0137421844674,1436.0154745139052,left,1,1,0.44470981877907434,B15D10,2023-01-10_10h44.51.208,t1_Paradigm,2021.1.4,59.99268661172605,
F,left,Pretarget,0,45,45,45,1437.5135718387392,1439.513467898973,left,1,1,0.45047462618572354,B15D10,2023-01-10_10h44.51.208,t1_Paradigm,2021.1.4,59.99268661172605,
F,right,Target,0,46,46,46,1441.0133424654896,1443.013705613068,right,1,1,0.6786092602633289,B15D10,2023-01-10_10h44.51.208,t1_Paradigm,2021.1.4,59.99268661172605,
G,left,Pretarget,0,47,47,47,1444.5133315582302,1446.5151979827983,left,1,1,0.5048315951221412,B15D10,2023-01-10_10h44.51.208,t1_Paradigm,2021.1.4,59.99268661172605,
G,right,Target,0,48,48,48,1448.0132426961459,1450.01370593387,right,1,1,0.6062950926957456,B15D10,2023-01-10_10h44.51.208,t1_Paradigm,2021.1.4,59.99268661172605,
V,left,Distractor,0,49,49,49,1451.5136821945403,1453.5136908561876,left,1,1,0.8022417626129936,B15D10,2023-01-10_10h44.51.208,t1_Paradigm,2021.1.4,59.99268661172605,
G,left,Lure,0,50,50,50,1455.0134810518448,1457.0263885101645,left,1,1,0.6338481132042943,B15D10,2023-01-10_10h44.51.208,t1_Paradigm,2021.1.4,59.99268661172605,
Q,left,Pretarget,0,51,51,51,1458.5136417735202,1460.5137508461144,left,1,1,0.4583936173280563,B15D10,2023-01-10_10h44.51.208,t1_Paradigm,2021.1.4,59.99268661172605,
Q,right,Target,0,52,52,52,1462.0136109765526,1464.013653643185,right,1,1,0.6703470112502146,B15D10,2023-01-10_10h44.51.208,t1_Paradigm,2021.1.4,59.99268661172605,
Y,left,Distractor,0,53,53,53,1465.5133668464223,1467.514400148852,left,1,1,0.6257186761154117,B15D10,2023-01-10_10h44.51.208,t1_Paradigm,2021.1.4,59.99268661172605,
V,left,Distractor,0,54,54,54,1469.0135330217277,1471.013576971567,left,1,1,0.5343113509284194,B15D10,2023-01-10_10h44.51.208,t1_Paradigm,2021.1.4,59.99268661172605,
B,left,Distractor,0,55,55,55,1472.5137505253128,1474.5142759985756,left,1,1,0.5377185862907936,B15D10,2023-01-10_10h44.51.208,t1_Paradigm,2021.1.4,59.99268661172605,
J,left,Pretarget,0,56,56,56,1476.0135522698324,1478.0137357684325,left,1,1,0.7022080784295213,B15D10,2023-01-10_10h44.51.208,t1_Paradigm,2021.1.4,59.99268661172605,
J,right,Target,0,57,57,57,1479.5136616632285,1481.513307498099,right,1,1,0.5308248775340871,B15D10,2023-01-10_10h44.51.208,t1_Paradigm,2021.1.4,59.99268661172605,
H,left,Distractor,0,58,58,58,1483.0132077287558,1485.01358852043,left,1,1,0.5664556860506309,B15D10,2023-01-10_10h44.51.208,t1_Paradigm,2021.1.4,59.99268661172605,
J,left,Lure,0,59,59,59,1486.5132212024291,1488.5152894112966,left,1,1,0.47282905437259615,B15D10,2023-01-10_10h44.51.208,t1_Paradigm,2021.1.4,59.99268661172605,
D,left,Pretarget,0,60,60,60,1490.0132837587698,1492.015498894838,left,1,1,0.47646983340746374,B15D10,2023-01-10_10h44.51.208,t1_Paradigm,2021.1.4,59.99268661172605,
D,right,Target,0,61,61,61,1493.5135814627915,1495.5133463151105,right,1,1,0.5630965709501652,B15D10,2023-01-10_10h44.51.208,t1_Paradigm,2021.1.4,59.99268661172605,
R,left,Distractor,0,62,62,62,1497.0133020444696,1499.0152082484542,left,1,1,0.5811949223498232,B15D10,2023-01-10_10h44.51.208,t1_Paradigm,2021.1.4,59.99268661172605,
F,left,Distractor,0,63,63,63,1500.5135991068878,1502.5135532322379,left,1,1,0.4265120188374567,B15D10,2023-01-10_10h44.51.208,t1_Paradigm,2021.1.4,59.99268661172605,
F,left,Distractor,0,0,0,0,1631.707206169659,1633.6965302082963,left,1,2,0.7314982404022885,B15D10,2023-01-10_10h44.51.208,t1_Paradigm,2021.1.4,59.99268661172605,
N,left,Pretarget,0,1,1,1,1635.196666549039,1637.1968696165454,left,1,2,0.9590628097744229,B15D10,2023-01-10_10h44.51.208,t1_Paradigm,2021.1.4,59.99268661172605,
V,left,Distractor,0,2,2,2,1638.6964955617077,1640.6989580359232,left,1,2,0.8973184181909346,B15D10,2023-01-10_10h44.51.208,t1_Paradigm,2021.1.4,59.99268661172605,
N,right,Target,0,3,3,3,1642.1965805741706,1644.1975442626208,right,1,2,1.1423811188924446,B15D10,2023-01-10_10h44.51.208,t1_Paradigm,2021.1.4,59.99268661172605,
N,left,Lure,0,4,4,4,1645.6963165543325,1647.6964387797984,None,0,2,,B15D10,2023-01-10_10h44.51.208,t1_Paradigm,2021.1.4,59.99268661172605,
X,left,Distractor,0,5,5,5,1649.1967265389662,1651.1973328542695,None,0,2,,B15D10,2023-01-10_10h44.51.208,t1_Paradigm,2021.1.4,59.99268661172605,
G,left,Pretarget,0,6,6,6,1652.6966854763423,1654.695776965793,left,1,2,1.0441583605747837,B15D10,2023-01-10_10h44.51.208,t1_Paradigm,2021.1.4,59.99268661172605,
H,left,Pretarget,0,7,7,7,1656.1966421681063,1658.1982490640607,left,1,2,1.4616892136828028,B15D10,2023-01-10_10h44.51.208,t1_Paradigm,2021.1.4,59.99268661172605,
G,right,Target,0,8,8,8,1659.6964243437196,1661.6987883317988,None,0,2,,B15D10,2023-01-10_10h44.51.208,t1_Paradigm,2021.1.4,59.99268661172605,
H,right,Target,0,9,9,9,1663.1967339174062,1665.1988021262737,right,1,2,1.3252936137996585,B15D10,2023-01-10_10h44.51.208,t1_Paradigm,2021.1.4,59.99268661172605,
T,left,Pretarget,0,10,10,10,1666.696857746881,1668.6984845325437,None,0,2,,B15D10,2023-01-10_10h44.51.208,t1_Paradigm,2021.1.4,59.99268661172605,
K,left,Distractor,0,11,11,11,1670.1964862584568,1672.1980055755344,left,1,2,1.2218042531894753,B15D10,2023-01-10_10h44.51.208,t1_Paradigm,2021.1.4,59.99268661172605,
T,right,Target,0,12,12,12,1673.6967605439513,1675.6979250542954,left,0,2,1.4337720831904335,B15D10,2023-01-10_10h44.51.208,t1_Paradigm,2021.1.4,59.99268661172605,
T,left,Lure,0,13,13,13,1677.1962507899743,1679.196480163224,left,1,2,0.9277403687292463,B15D10,2023-01-10_10h44.51.208,t1_Paradigm,2021.1.4,59.99268661172605,
J,left,Distractor,0,14,14,14,1680.6966437721153,1682.6983626278793,left,1,2,0.9616834392513738,B15D10,2023-01-10_10h44.51.208,t1_Paradigm,2021.1.4,59.99268661172605,
Q,left,Pretarget,0,15,15,15,1684.1966569249867,1686.1976822073725,left,1,2,1.0462945794129155,B15D10,2023-01-10_10h44.51.208,t1_Paradigm,2021.1.4,59.99268661172605,
M,left,Distractor,0,16,16,16,1687.6964131156587,1689.6990491436195,left,1,2,0.7770726198914417,B15D10,2023-01-10_10h44.51.208,t1_Paradigm,2021.1.4,59.99268661172605,
Q,right,Target,0,17,17,17,1691.1964038124079,1693.1977017762792,right,1,2,0.6540643977427862,B15D10,2023-01-10_10h44.51.208,t1_Paradigm,2021.1.4,59.99268661172605,
R,left,Distractor,0,18,18,18,1694.6963441432827,1696.698426788229,left,1,2,0.5615195095583658,B15D10,2023-01-10_10h44.51.208,t1_Paradigm,2021.1.4,59.99268661172605,
W,left,Distractor,0,19,19,19,1698.1965901982235,1700.198271520183,left,1,2,0.709556363262891,B15D10,2023-01-10_10h44.51.208,t1_Paradigm,2021.1.4,59.99268661172605,
C,left,Pretarget,0,20,20,20,1701.6966405640978,1703.6990350283427,left,1,2,0.8409092804736247,B15D10,2023-01-10_10h44.51.208,t1_Paradigm,2021.1.4,59.99268661172605,
T,left,Distractor,0,21,21,21,1705.1964387797984,1707.1973427991234,left,1,2,0.6544692495485833,B15D10,2023-01-10_10h44.51.208,t1_Paradigm,2021.1.4,59.99268661172605,
C,right,Target,0,22,22,22,1708.6967451454675,1710.698431921057,right,1,2,0.4812885964602174,B15D10,2023-01-10_10h44.51.208,t1_Paradigm,2021.1.4,59.99268661172605,
F,left,Pretarget,0,23,23,23,1712.1963264991869,1714.1980443925459,left,1,2,0.8058257597385818,B15D10,2023-01-10_10h44.51.208,t1_Paradigm,2021.1.4,59.99268661172605,
C,right,Target,0,24,24,24,1715.696365316198,1717.6979837610156,right,1,2,0.9376290826035074,B15D10,2023-01-10_10h44.51.208,t1_Paradigm,2021.1.4,59.99268661172605,
F,right,Target,0,25,25,25,1719.1966004638793,1721.209475200421,None,0,2,,B15D10,2023-01-10_10h44.51.208,t1_Paradigm,2021.1.4,59.99268661172605,
H,left,Distractor,0,26,26,26,1722.6963582585595,1724.6977418764977,left,1,2,1.0581257478688713,B15D10,2023-01-10_10h44.51.208,t1_Paradigm,2021.1.4,59.99268661172605,
H,left,Lure,0,27,27,27,1726.196664303427,1728.196470859973,left,1,2,0.8872372232685848,B15D10,2023-01-10_10h44.51.208,t1_Paradigm,2021.1.4,59.99268661172605,
P,left,Distractor,0,28,28,28,1729.6966165039667,1731.6965616468678,None,0,2,,B15D10,2023-01-10_10h44.51.208,t1_Paradigm,2021.1.4,59.99268661172605,
G,left,Pretarget,0,29,29,29,1733.195773116172,1735.1983748183457,left,1,2,1.085744211934525,B15D10,2023-01-10_10h44.51.208,t1_Paradigm,2021.1.4,59.99268661172605,
K,left,Distractor,0,30,30,30,1736.6966915715757,1738.698535860823,left,1,2,1.233109948382662,B15D10,2023-01-10_10h44.51.208,t1_Paradigm,2021.1.4,59.99268661172605,
G,right,Target,0,31,31,31,1740.1962373163005,1742.1984351290744,left,0,2,1.1894661538112814,B15D10,2023-01-10_10h44.51.208,t1_Paradigm,2021.1.4,59.99268661172605,
M,left,Pretarget,0,32,32,32,1743.6964336469705,1745.6968708997524,left,1,2,1.2430333088454972,B15D10,2023-01-10_10h44.51.208,t1_Paradigm,2021.1.4,59.99268661172605,
B,left,Distractor,0,33,33,33,1747.1963797522767,1749.198588151508,left,1,2,0.7332485347383226,B15D10,2023-01-10_10h44.51.208,t1_Paradigm,2021.1.4,59.99268661172605,
M,right,Target,0,34,34,34,1750.6967377670271,1752.6982080014373,right,1,2,0.5935050478155972,B15D10,2023-01-10_10h44.51.208,t1_Paradigm,2021.1.4,59.99268661172605,
M,left,Lure,0,35,35,35,1754.1963669202069,1756.1964904288798,left,1,2,0.80732422470237,B15D10,2023-01-10_10h44.51.208,t1_Paradigm,2021.1.4,59.99268661172605,
T,left,Distractor,0,36,36,36,1757.6963204039535,1759.698506667864,left,1,2,0.8893554772084826,B15D10,2023-01-10_10h44.51.208,t1_Paradigm,2021.1.4,59.99268661172605,
F,left,Distractor,0,37,37,37,1761.1964679727575,1763.1968930350731,left,1,2,0.6388696229614652,B15D10,2023-01-10_10h44.51.208,t1_Paradigm,2021.1.4,59.99268661172605,
X,left,Distractor,0,38,38,38,1764.696275170907,1766.698543880867,left,1,2,0.7851683727972159,B15D10,2023-01-10_10h44.51.208,t1_Paradigm,2021.1.4,59.99268661172605,
C,left,Distractor,0,39,39,39,1768.1963823186907,1770.197013977332,left,1,2,0.5666279565889454,B15D10,2023-01-10_10h44.51.208,t1_Paradigm,2021.1.4,59.99268661172605,
R,left,Distractor,0,40,40,40,1771.6963688450173,1773.6983629486813,left,1,2,0.7455252968215973,B15D10,2023-01-10_10h44.51.208,t1_Paradigm,2021.1.4,59.99268661172605,
B,left,Pretarget,0,41,41,41,1775.1963781482682,1777.198502818243,left,1,2,0.5253423756653319,B15D10,2023-01-10_10h44.51.208,t1_Paradigm,2021.1.4,59.99268661172605,
H,left,Distractor,0,42,42,42,1778.6965314915033,1780.6983231692643,left,1,2,0.6734712994716574,B15D10,2023-01-10_10h44.51.208,t1_Paradigm,2021.1.4,59.99268661172605,
B,right,Target,0,43,43,43,1782.1963746194488,1784.1983879712175,left,0,2,1.0134200995125866,B15D10,2023-01-10_10h44.51.208,t1_Paradigm,2021.1.4,59.99268661172605,
W,left,Pretarget,0,44,44,44,1785.696125356491,1787.6960541385029,left,1,2,1.2116495946670511,B15D10,2023-01-10_10h44.51.208,t1_Paradigm,2021.1.4,59.99268661172605,
L,left,Pretarget,0,45,45,45,1789.1967961529454,1791.1982387984049,left,1,2,1.2457338179578983,B15D10,2023-01-10_10h44.51.208,t1_Paradigm,2021.1.4,59.99268661172605,
W,right,Target,0,46,46,46,1792.6966790603074,1794.6956871413036,None,0,2,,B15D10,2023-01-10_10h44.51.208,t1_Paradigm,2021.1.4,59.99268661172605,
L,right,Target,0,47,47,47,1796.196281907744,1798.1977790895003,right,1,2,0.9178628829167792,B15D10,2023-01-10_10h44.51.208,t1_Paradigm,2021.1.4,59.99268661172605,
W,right,Target,0,48,48,48,1799.6963402936617,1801.698347870999,left,0,2,0.8574825403647992,B15D10,2023-01-10_10h44.51.208,t1_Paradigm,2021.1.4,59.99268661172605,
X,left,Distractor,0,49,49,49,1803.195964634815,1805.1966059175088,left,1,2,0.8951234926330471,B15D10,2023-01-10_10h44.51.208,t1_Paradigm,2021.1.4,59.99268661172605,
R,left,Distractor,0,50,50,50,1806.696441987816,1808.6985146879078,left,1,2,1.025282385738592,B15D10,2023-01-10_10h44.51.208,t1_Paradigm,2021.1.4,59.99268661172605,
V,left,Pretarget,0,51,51,51,1810.196669436255,1812.1987225674402,left,1,2,0.7570610068682981,B15D10,2023-01-10_10h44.51.208,t1_Paradigm,2021.1.4,59.99268661172605,
Z,left,Distractor,0,52,52,52,1813.6964028500024,1815.6976754705356,left,1,2,0.6820492174042556,B15D10,2023-01-10_10h44.51.208,t1_Paradigm,2021.1.4,59.99268661172605,
V,right,Target,0,53,53,53,1817.1966142583542,1819.198184903711,right,1,2,0.9895938329073033,B15D10,2023-01-10_10h44.51.208,t1_Paradigm,2021.1.4,59.99268661172605,
V,left,Lure,0,54,54,54,1820.6962212762132,1822.696348955309,left,1,2,0.6594756816234622,B15D10,2023-01-10_10h44.51.208,t1_Paradigm,2021.1.4,59.99268661172605,
N,left,Distractor,0,55,55,55,1824.1959617475995,1826.198038938916,left,1,2,1.1260734828483692,B15D10,2023-01-10_10h44.51.208,t1_Paradigm,2021.1.4,59.99268661172605,
B,left,Distractor,0,56,56,56,1827.696515451416,1829.6969196616183,left,1,2,1.1628601400620937,B15D10,2023-01-10_10h44.51.208,t1_Paradigm,2021.1.4,59.99268661172605,
V,left,Lure,0,57,57,57,1831.1965212258474,1833.1969122831779,left,1,2,1.0547910137015606,B15D10,2023-01-10_10h44.51.208,t1_Paradigm,2021.1.4,59.99268661172605,
J,left,Distractor,0,58,58,58,1834.6964631607311,1836.6981749588572,left,1,2,0.7056278250606738,B15D10,2023-01-10_10h44.51.208,t1_Paradigm,2021.1.4,59.99268661172605,
H,left,Distractor,0,59,59,59,1838.1962883237788,1840.1965661380923,left,1,2,0.9350876911580599,B15D10,2023-01-10_10h44.51.208,t1_Paradigm,2021.1.4,59.99268661172605,
X,left,Pretarget,0,60,60,60,1841.6962180681958,1843.6982458560433,left,1,2,0.937190546614147,B15D10,2023-01-10_10h44.51.208,t1_Paradigm,2021.1.4,59.99268661172605,
P,left,Distractor,0,61,61,61,1845.1965241130633,1847.1983209236523,left,1,2,0.7013916379814873,B15D10,2023-01-10_10h44.51.208,t1_Paradigm,2021.1.4,59.99268661172605,
X,right,Target,0,62,62,62,1848.6962719628896,1850.6976517312064,right,1,2,0.7540647185446687,B15D10,2023-01-10_10h44.51.208,t1_Paradigm,2021.1.4,59.99268661172605,
Q,left,Distractor,0,63,63,63,1852.196364032991,1854.1983475501975,left,1,2,0.5651618926021911,B15D10,2023-01-10_10h44.51.208,t1_Paradigm,2021.1.4,59.99268661172605,
B,left,Pretarget,0,0,0,0,1917.5535777414916,1919.546636233274,left,1,2,0.6570494580050763,B15D10,2023-01-10_10h44.51.208,t1_Paradigm,2021.1.4,59.99268661172605,
F,left,Distractor,0,1,1,1,1921.0462718024887,1923.0479967534861,left,1,2,0.9318838441031403,B15D10,2023-01-10_10h44.51.208,t1_Paradigm,2021.1.4,59.99268661172605,
B,right,Target,0,2,2,2,1924.5464992509278,1926.5478344278017,right,1,2,0.5198816883153086,B15D10,2023-01-10_10h44.51.208,t1_Paradigm,2021.1.4,59.99268661172605,
V,left,Distractor,0,3,3,3,1928.0465717521229,1930.0465765641488,left,1,2,0.6849871198101027,B15D10,2023-01-10_10h44.51.208,t1_Paradigm,2021.1.4,59.99268661172605,
G,left,Pretarget,0,4,4,4,1931.5461822988009,1933.5480618762408,left,1,2,0.6076960339282778,B15D10,2023-01-10_10h44.51.208,t1_Paradigm,2021.1.4,59.99268661172605,
B,left,Lure,0,5,5,5,1935.0463696470215,1937.0480265880487,left,1,2,0.6440079045551101,B15D10,2023-01-10_10h44.51.208,t1_Paradigm,2021.1.4,59.99268661172605,
G,right,Target,0,6,6,6,1938.546216624588,1940.54871149978,right,1,2,0.7110679810984948,B15D10,2023-01-10_10h44.51.208,t1_Paradigm,2021.1.4,59.99268661172605,
Y,left,Pretarget,0,7,7,7,1942.0462326646752,1944.0477067487063,left,1,2,0.6036616311484977,B15D10,2023-01-10_10h44.51.208,t1_Paradigm,2021.1.4,59.99268661172605,
P,left,Distractor,0,8,8,8,1945.5462406847191,1947.5482113698554,left,1,2,0.9435007169918208,B15D10,2023-01-10_10h44.51.208,t1_Paradigm,2021.1.4,59.99268661172605,
Y,right,Target,0,9,9,9,1949.0463471908993,1951.0478652247698,right,1,2,0.9320070319740807,B15D10,2023-01-10_10h44.51.208,t1_Paradigm,2021.1.4,59.99268661172605,
X,left,Distractor,0,10,10,10,1952.5464174464823,1954.546642970111,left,1,2,0.7292093199325791,B15D10,2023-01-10_10h44.51.208,t1_Paradigm,2021.1.4,59.99268661172605,
Y,right,Target,0,11,11,11,1956.0465329351114,1958.0485629685709,right,1,2,1.1792277660329091,B15D10,2023-01-10_10h44.51.208,t1_Paradigm,2021.1.4,59.99268661172605,
N,left,Distractor,0,12,12,12,1959.5461704291365,1961.5478995505564,left,1,2,0.9118398301034176,B15D10,2023-01-10_10h44.51.208,t1_Paradigm,2021.1.4,59.99268661172605,
Y,right,Target,0,13,13,13,1963.0462095669495,1965.0481122421152,left,0,2,0.9956139985051777,B15D10,2023-01-10_10h44.51.208,t1_Paradigm,2021.1.4,59.99268661172605,
Y,left,Lure,0,14,14,14,1966.5463674014095,1968.546089266294,left,1,2,1.4498843509700237,B15D10,2023-01-10_10h44.51.208,t1_Paradigm,2021.1.4,59.99268661172605,
K,left,Distractor,0,15,15,15,1970.0461335369355,1972.0464816068315,left,1,2,1.181298220512872,B15D10,2023-01-10_10h44.51.208,t1_Paradigm,2021.1.4,59.99268661172605,
T,left,Pretarget,0,16,16,16,1973.5463840831003,1975.5485312091978,left,1,2,1.0070983802720548,B15D10,2023-01-10_10h44.51.208,t1_Paradigm,2021.1.4,59.99268661172605,
J,left,Distractor,0,17,17,17,1977.0460860582766,1979.0482286931497,left,1,2,0.6755417539516202,B15D10,2023-01-10_10h44.51.208,t1_Paradigm,2021.1.4,59.99268661172605,
T,right,Target,0,18,18,18,1980.5459869305369,1982.5460109906676,right,1,2,1.3215694263103615,B15D10,2023-01-10_10h44.51.208,t1_Paradigm,2021.1.4,59.99268661172605,
S,left,Pretarget,0,19,19,19,1984.0465371055338,1986.0493867874593,left,1,2,0.7623782958371521,B15D10,2023-01-10_10h44.51.208,t1_Paradigm,2021.1.4,59.99268661172605,
R,left,Distractor,0,20,20,20,1987.546337566847,1989.548325254476,left,1,2,1.1032821226808665,B15D10,2023-01-10_10h44.51.208,t1_Paradigm,2021.1.4,59.99268661172605,
S,right,Target,0,21,21,21,1991.0461704291365,1993.0469243132434,right,1,2,0.549092291454599,B15D10,2023-01-10_10h44.51.208,t1_Paradigm,2021.1.4,59.99268661172605,
Q,left,Distractor,0,22,22,22,1994.546529406292,1996.5466817871225,left,1,2,0.4889066755636122,B15D10,2023-01-10_10h44.51.208,t1_Paradigm,2021.1.4,59.99268661172605,
D,left,Distractor,0,23,23,23,1998.046142840186,2000.062608631492,left,1,2,1.2289696810266832,B15D10,2023-01-10_10h44.51.208,t1_Paradigm,2021.1.4,59.99268661172605,
F,left,Distractor,0,24,24,24,2001.5463000330424,2003.548903980829,left,1,2,1.1825718034510828,B15D10,2023-01-10_10h44.51.208,t1_Paradigm,2021.1.4,59.99268661172605,
Z,left,Distractor,0,25,25,25,2005.0460953615275,2007.0473506587664,left,1,2,0.9001825361942792,B15D10,2023-01-10_10h44.51.208,t1_Paradigm,2021.1.4,59.99268661172605,
P,left,Distractor,0,26,26,26,2008.5463404540628,2010.546846037617,left,1,2,0.9207250761101022,B15D10,2023-01-10_10h44.51.208,t1_Paradigm,2021.1.4,59.99268661172605,
H,left,Distractor,0,27,27,27,2012.0464976469189,2014.0464607547183,left,1,2,0.8449699889965814,B15D10,2023-01-10_10h44.51.208,t1_Paradigm,2021.1.4,59.99268661172605,
Z,left,Pretarget,0,28,28,28,2015.5464042936105,2017.5490890834371,left,1,2,1.1344374260152108,B15D10,2023-01-10_10h44.51.208,t1_Paradigm,2021.1.4,59.99268661172605,
J,left,Pretarget,0,29,29,29,2019.046331150812,2021.0473073505304,left,1,2,0.6923023620634012,B15D10,2023-01-10_10h44.51.208,t1_Paradigm,2021.1.4,59.99268661172605,
Z,right,Target,0,30,30,30,2022.5461492562208,2024.5478719616062,right,1,2,0.711692261299504,B15D10,2023-01-10_10h44.51.208,t1_Paradigm,2021.1.4,59.99268661172605,
J,right,Target,0,31,31,31,2026.0463426996748,2028.0473083129355,right,1,2,1.2283649697324108,B15D10,2023-01-10_10h44.51.208,t1_Paradigm,2021.1.4,59.99268661172605,
V,left,Pretarget,0,32,32,32,2029.5461248752881,2031.5481901969401,left,1,2,0.8795533798065662,B15D10,2023-01-10_10h44.51.208,t1_Paradigm,2021.1.4,59.99268661172605,
Z,left,Lure,0,33,33,33,2033.0462214366144,2035.047577465602,left,1,2,0.9481478511092973,B15D10,2023-01-10_10h44.51.208,t1_Paradigm,2021.1.4,59.99268661172605,
V,right,Target,0,34,34,34,2036.5463119027072,2038.5465566744406,right,1,2,0.5688921753248906,B15D10,2023-01-10_10h44.51.208,t1_Paradigm,2021.1.4,59.99268661172605,
X,left,Distractor,0,35,35,35,2040.0463635517885,2042.046443110622,left,1,2,1.0689675637354412,B15D10,2023-01-10_10h44.51.208,t1_Paradigm,2021.1.4,59.99268661172605,
S,left,Distractor,0,36,36,36,2043.5460295971693,2045.5467279825739,left,1,2,0.8650743137250174,B15D10,2023-01-10_10h44.51.208,t1_Paradigm,2021.1.4,59.99268661172605,
Q,left,Distractor,0,37,37,37,2047.0461232712796,2049.048229655555,left,1,2,0.7553546623721559,B15D10,2023-01-10_10h44.51.208,t1_Paradigm,2021.1.4,59.99268661172605,
P,left,Distractor,0,38,38,38,2050.545980514502,2052.559075321042,left,1,2,0.8924755950069994,B15D10,2023-01-10_10h44.51.208,t1_Paradigm,2021.1.4,59.99268661172605,
S,left,Lure,0,39,39,39,2054.0462820681446,2056.0479861670283,left,1,2,1.0356317709220093,B15D10,2023-01-10_10h44.51.208,t1_Paradigm,2021.1.4,59.99268661172605,
K,left,Pretarget,0,40,40,40,2057.546253516789,2059.5477407536914,left,1,2,0.991916437560576,B15D10,2023-01-10_10h44.51.208,t1_Paradigm,2021.1.4,59.99268661172605,
L,left,Distractor,0,41,41,41,2061.04609215351,2063.0457325347506,left,1,2,0.7257834780684789,B15D10,2023-01-10_10h44.51.208,t1_Paradigm,2021.1.4,59.99268661172605,
K,right,Target,0,42,42,42,2064.5460405044287,2066.5462846345586,right,1,2,1.2732605327232704,B15D10,2023-01-10_10h44.51.208,t1_Paradigm,2021.1.4,59.99268661172605,
B,left,Distractor,0,43,43,43,2068.046294579413,2070.0463250555786,left,1,2,0.7330307103511586,B15D10,2023-01-10_10h44.51.208,t1_Paradigm,2021.1.4,59.99268661172605,
N,left,Distractor,0,44,44,44,2071.546014519487,2073.546599341073,left,1,2,0.8651067147011418,B15D10,2023-01-10_10h44.51.208,t1_Paradigm,2021.1.4,59.99268661172605,
S,left,Pretarget,0,45,45,45,2075.0462987498354,2077.046327301191,left,1,2,0.6932249878896073,B15D10,2023-01-10_10h44.51.208,t1_Paradigm,2021.1.4,59.99268661172605,
Z,left,Distractor,0,46,46,46,2078.545935281455,2080.5462400431156,left,1,2,0.7133870569327883,B15D10,2023-01-10_10h44.51.208,t1_Paradigm,2021.1.4,59.99268661172605,
S,right,Target,0,47,47,47,2082.045993346572,2084.047560783911,right,1,2,0.5560299500511974,B15D10,2023-01-10_10h44.51.208,t1_Paradigm,2021.1.4,59.99268661172605,
C,left,Distractor,0,48,48,48,2085.54604627886,2087.5470170249487,left,1,2,0.5126537041373922,B15D10,2023-01-10_10h44.51.208,t1_Paradigm,2021.1.4,59.99268661172605,
T,left,Pretarget,0,49,49,49,2089.0463497573132,2091.0477882323503,left,1,2,1.0118401509048454,B15D10,2023-01-10_10h44.51.208,t1_Paradigm,2021.1.4,59.99268661172605,
S,left,Lure,0,50,50,50,2092.5460241435394,2094.5470702780385,left,1,2,0.8084967550903457,B15D10,2023-01-10_10h44.51.208,t1_Paradigm,2021.1.4,59.99268661172605,
T,right,Target,0,51,51,51,2096.0463767046604,2098.0483550890385,None,0,2,,B15D10,2023-01-10_10h44.51.208,t1_Paradigm,2021.1.4,59.99268661172605,
N,left,Pretarget,0,52,52,52,2099.5462124541655,2101.547553726273,left,1,2,0.655942691976179,B15D10,2023-01-10_10h44.51.208,t1_Paradigm,2021.1.4,59.99268661172605,
B,left,Distractor,0,53,53,53,2103.046120063262,2105.047899229755,left,1,2,0.6916306032035209,B15D10,2023-01-10_10h44.51.208,t1_Paradigm,2021.1.4,59.99268661172605,
N,right,Target,0,54,54,54,2106.546080604647,2108.547715731155,right,1,2,0.647998678296517,B15D10,2023-01-10_10h44.51.208,t1_Paradigm,2021.1.4,59.99268661172605,
N,left,Lure,0,55,55,55,2110.046263782445,2112.046057827723,left,1,2,1.0853630994579362,B15D10,2023-01-10_10h44.51.208,t1_Paradigm,2021.1.4,59.99268661172605,
X,left,Distractor,0,56,56,56,2113.546209246148,2115.5463978775756,left,1,2,0.8651641382139132,B15D10,2023-01-10_10h44.51.208,t1_Paradigm,2021.1.4,59.99268661172605,
W,left,Distractor,0,57,57,57,2117.0463953111616,2119.0464665291497,left,1,2,0.6451024801185667,B15D10,2023-01-10_10h44.51.208,t1_Paradigm,2021.1.4,59.99268661172605,
S,left,Distractor,0,58,58,58,2120.5460010458137,2122.5468659273256,left,1,2,0.9365819856989219,B15D10,2023-01-10_10h44.51.208,t1_Paradigm,2021.1.4,59.99268661172605,
L,left,Distractor,0,59,59,59,2124.046243251133,2126.0481170541416,left,1,2,0.7954734873396774,B15D10,2023-01-10_10h44.51.208,t1_Paradigm,2021.1.4,59.99268661172605,
K,left,Pretarget,0,60,60,60,2127.5460097074606,2129.547763851417,left,1,2,0.655931463914385,B15D10,2023-01-10_10h44.51.208,t1_Paradigm,2021.1.4,59.99268661172605,
V,left,Pretarget,0,61,61,61,2131.0463699678235,2133.0462730856957,left,1,2,0.9334265797078842,B15D10,2023-01-10_10h44.51.208,t1_Paradigm,2021.1.4,59.99268661172605,
K,right,Target,0,62,62,62,2134.546337887649,2136.5591558422807,None,0,2,,B15D10,2023-01-10_10h44.51.208,t1_Paradigm,2021.1.4,59.99268661172605,
V,right,Target,0,63,63,63,2138.04620411332,2140.04897584042,right,1,2,1.1468928746721758,B15D10,2023-01-10_10h44.51.208,t1_Paradigm,2021.1.4,59.99268661172605,
R,left,Distractor,0,0,0,0,2225.224590095567,2227.2143664646683,left,1,3,0.5249830777079296,B15D10,2023-01-10_10h44.51.208,t1_Paradigm,2021.1.4,59.99268661172605,
P,left,Lure,0,1,1,1,2228.71240636599,2230.712642476076,left,1,3,0.8506783352954699,B15D10,2023-01-10_10h44.51.208,t1_Paradigm,2021.1.4,59.99268661172605,
V,left,Distractor,0,2,2,2,2232.2128070473727,2234.2140174323667,left,1,3,0.7894837979079057,B15D10,2023-01-10_10h44.51.208,t1_Paradigm,2021.1.4,59.99268661172605,
P,left,Pretarget,0,3,3,3,2235.71277175918,2237.7147655420426,left,1,3,1.0325305804267373,B15D10,2023-01-10_10h44.51.208,t1_Paradigm,2021.1.4,59.99268661172605,
Z,left,Distractor,0,4,4,4,2239.212800310536,2241.212876982154,left,1,3,1.2306830831612388,B15D10,2023-01-10_10h44.51.208,t1_Paradigm,2021.1.4,59.99268661172605,
L,left,Pretarget,0,5,5,5,2242.7128683205065,2244.7146192564455,left,1,3,0.6090308900002128,B15D10,2023-01-10_10h44.51.208,t1_Paradigm,2021.1.4,59.99268661172605,
P,right,Target,0,6,6,6,2246.212860942066,2248.2136215630103,left,0,3,0.8058090780477869,B15D10,2023-01-10_10h44.51.208,t1_Paradigm,2021.1.4,59.99268661172605,
S,left,Distractor,0,7,7,7,2249.7125539347935,2251.713999467469,left,1,3,0.7135378337538896,B15D10,2023-01-10_10h44.51.208,t1_Paradigm,2021.1.4,59.99268661172605,
L,right,Target,0,8,8,8,2253.2125988470384,2255.2128776237573,left,0,3,1.0544743823761564,B15D10,2023-01-10_10h44.51.208,t1_Paradigm,2021.1.4,59.99268661172605,
D,left,Distractor,0,9,9,9,2256.7128144258127,2258.7142824146104,left,1,3,0.7050872741156127,B15D10,2023-01-10_10h44.51.208,t1_Paradigm,2021.1.4,59.99268661172605,
G,left,Distractor,0,10,10,10,2260.212234095451,2262.2127820248365,left,1,3,0.726609863370868,B15D10,2023-01-10_10h44.51.208,t1_Paradigm,2021.1.4,59.99268661172605,
M,left,Pretarget,0,11,11,11,2263.71278266644,2265.7133575431717,left,1,3,0.8740410433756551,B15D10,2023-01-10_10h44.51.208,t1_Paradigm,2021.1.4,59.99268661172605,
Y,left,Distractor,0,12,12,12,2267.2128949470516,2269.2144960685746,left,1,3,0.5889118083914582,B15D10,2023-01-10_10h44.51.208,t1_Paradigm,2021.1.4,59.99268661172605,
V,left,Distractor,0,13,13,13,2270.712486245625,2272.7124358797505,left,1,3,0.7869353488240449,B15D10,2023-01-10_10h44.51.208,t1_Paradigm,2021.1.4,59.99268661172605,
M,right,Target,0,14,14,14,2274.212597884633,2276.2126838595013,right,1,3,0.9346157917866549,B15D10,2023-01-10_10h44.51.208,t1_Paradigm,2021.1.4,59.99268661172605,
S,left,Pretarget,0,15,15,15,2277.7127120900554,2279.7136074477335,left,1,3,1.129877229171143,B15D10,2023-01-10_10h44.51.208,t1_Paradigm,2021.1.4,59.99268661172605,
Q,left,Distractor,0,16,16,16,2281.2127679095593,2283.2144007904553,left,1,3,0.589004199295232,B15D10,2023-01-10_10h44.51.208,t1_Paradigm,2021.1.4,59.99268661172605,
R,left,Pretarget,0,17,17,17,2284.712763739137,2286.714058815792,left,1,3,0.7372508573425876,B15D10,2023-01-10_10h44.51.208,t1_Paradigm,2021.1.4,59.99268661172605,
S,right,Target,0,18,18,18,2288.2127525110755,2290.2147222338067,right,1,3,0.948586066297139,B15D10,2023-01-10_10h44.51.208,t1_Paradigm,2021.1.4,59.99268661172605,
F,left,Distractor,0,19,19,19,2291.7127268469358,2293.714752709973,left,1,3,0.856709408153165,B15D10,2023-01-10_10h44.51.208,t1_Paradigm,2021.1.4,59.99268661172605,
R,right,Target,0,20,20,20,2295.212521854619,2297.2143305348727,right,1,3,1.165225411348274,B15D10,2023-01-10_10h44.51.208,t1_Paradigm,2021.1.4,59.99268661172605,
P,left,Distractor,0,21,21,21,2298.71271112765,2300.7146035371597,left,1,3,0.5766693720947842,B15D10,2023-01-10_10h44.51.208,t1_Paradigm,2021.1.4,59.99268661172605,
L,left,Distractor,0,22,22,22,2302.212854526031,2304.2142131214327,left,1,3,0.8691029420729137,B15D10,2023-01-10_10h44.51.208,t1_Paradigm,2021.1.4,59.99268661172605,
R,right,Target,0,23,23,23,2305.7128317491074,2307.7143103243625,left,0,3,0.9847789194759571,B15D10,2023-01-10_10h44.51.208,t1_Paradigm,2021.1.4,59.99268661172605,
H,left,Pretarget,0,24,24,24,2309.212546877155,2311.2149041283974,left,1,3,0.9086151309352317,B15D10,2023-01-10_10h44.51.208,t1_Paradigm,2021.1.4,59.99268661172605,
G,left,Pretarget,0,25,25,25,2312.7127310173582,2314.7144473067087,left,1,3,0.6249513183347517,B15D10,2023-01-10_10h44.51.208,t1_Paradigm,2021.1.4,59.99268661172605,
T,left,Distractor,0,26,26,26,2316.2126899547347,2318.214380900747,left,1,3,0.7730648436572665,B15D10,2023-01-10_10h44.51.208,t1_Paradigm,2021.1.4,59.99268661172605,
H,right,Target,0,27,27,27,2319.712859658859,2321.7134021346146,right,1,3,1.1939005963704403,B15D10,2023-01-10_10h44.51.208,t1_Paradigm,2021.1.4,59.99268661172605,
G,right,Target,0,28,28,28,2323.2129648818327,2325.212832069909,left,0,3,1.4384731120017022,B15D10,2023-01-10_10h44.51.208,t1_Paradigm,2021.1.4,59.99268661172605,
D,left,Distractor,0,29,29,29,2326.712369152987,2328.7150834565746,left,1,3,1.0882435783510118,B15D10,2023-01-10_10h44.51.208,t1_Paradigm,2021.1.4,59.99268661172605,
N,left,Pretarget,0,30,30,30,2330.2128144258127,2332.2146089907897,left,1,3,1.1408226640019166,B15D10,2023-01-10_10h44.51.208,t1_Paradigm,2021.1.4,59.99268661172605,
V,left,Distractor,0,31,31,31,2333.7127682303612,2335.715413561573,left,1,3,0.7120765817930987,B15D10,2023-01-10_10h44.51.208,t1_Paradigm,2021.1.4,59.99268661172605,
R,left,Distractor,0,32,32,32,2337.212748019851,2339.213546816203,left,1,3,0.9418864425974789,B15D10,2023-01-10_10h44.51.208,t1_Paradigm,2021.1.4,59.99268661172605,
N,right,Target,0,33,33,33,2340.712474696762,2342.7127473782475,right,1,3,0.5787539418515735,B15D10,2023-01-10_10h44.51.208,t1_Paradigm,2021.1.4,59.99268661172605,
Z,left,Distractor,0,34,34,34,2344.2124965112807,2346.2135163400367,left,1,3,0.6299243870280407,B15D10,2023-01-10_10h44.51.208,t1_Paradigm,2021.1.4,59.99268661172605,
N,left,Lure,0,35,35,35,2347.7124573734677,2349.7127855536555,left,1,3,1.3386408913156629,B15D10,2023-01-10_10h44.51.208,t1_Paradigm,2021.1.4,59.99268661172605,
Y,left,Pretarget,0,36,36,36,2351.212614245522,2353.2140764598885,left,1,3,0.8454011465451003,B15D10,2023-01-10_10h44.51.208,t1_Paradigm,2021.1.4,59.99268661172605,
Y,left,Lure,0,37,37,37,2354.7126569121547,2356.712465714313,left,1,3,1.0587683137700878,B15D10,2023-01-10_10h44.51.208,t1_Paradigm,2021.1.4,59.99268661172605,
B,left,Distractor,0,38,38,38,2358.212488812039,2360.2127043908135,left,1,3,0.6945694680143788,B15D10,2023-01-10_10h44.51.208,t1_Paradigm,2021.1.4,59.99268661172605,
Y,right,Target,0,39,39,39,2361.712662686586,2363.713493242311,right,1,3,0.6657492806020855,B15D10,2023-01-10_10h44.51.208,t1_Paradigm,2021.1.4,59.99268661172605,
J,left,Distractor,0,40,40,40,2365.2126504961197,2367.214526865542,left,1,3,0.5407392555475781,B15D10,2023-01-10_10h44.51.208,t1_Paradigm,2021.1.4,59.99268661172605,
X,left,Distractor,0,41,41,41,2368.7128157090197,2370.7133020444694,left,1,3,0.610053605972098,B15D10,2023-01-10_10h44.51.208,t1_Paradigm,2021.1.4,59.99268661172605,
W,left,Pretarget,0,42,42,42,2372.212526987447,2374.214107577658,left,1,3,0.6133463151109027,B15D10,2023-01-10_10h44.51.208,t1_Paradigm,2021.1.4,59.99268661172605,
S,left,Pretarget,0,43,43,43,2375.7124753383655,2377.714309682759,left,1,3,0.6648744542362692,B15D10,2023-01-10_10h44.51.208,t1_Paradigm,2021.1.4,59.99268661172605,
R,left,Distractor,0,44,44,44,2379.2125183258,2381.2141717380073,left,1,3,0.7971278619525037,B15D10,2023-01-10_10h44.51.208,t1_Paradigm,2021.1.4,59.99268661172605,
W,right,Target,0,45,45,45,2382.7126357392394,2384.7132888915976,left,0,3,1.0578986202317537,B15D10,2023-01-10_10h44.51.208,t1_Paradigm,2021.1.4,59.99268661172605,
S,right,Target,0,46,46,46,2386.212497152884,2388.213385452924,left,0,3,0.9980517709859669,B15D10,2023-01-10_10h44.51.208,t1_Paradigm,2021.1.4,59.99268661172605,
D,left,Distractor,0,47,47,47,2389.712705032417,2391.713522756072,left,1,3,0.8100590596013717,B15D10,2023-01-10_10h44.51.208,t1_Paradigm,2021.1.4,59.99268661172605,
T,left,Distractor,0,48,48,48,2393.212526987447,2395.214533281577,left,1,3,0.6526660229246772,B15D10,2023-01-10_10h44.51.208,t1_Paradigm,2021.1.4,59.99268661172605,
S,right,Target,0,49,49,49,2396.7123319399843,2398.7134457636525,right,1,3,1.441941941299774,B15D10,2023-01-10_10h44.51.208,t1_Paradigm,2021.1.4,59.99268661172605,
K,left,Distractor,0,50,50,50,2400.2125949974175,2402.212264571617,left,1,3,0.7270817627413635,B15D10,2023-01-10_10h44.51.208,t1_Paradigm,2021.1.4,59.99268661172605,
S,left,Lure,0,51,51,51,2403.7124528822433,2405.7133273878076,left,1,3,0.7300443668818843,B15D10,2023-01-10_10h44.51.208,t1_Paradigm,2021.1.4,59.99268661172605,
T,left,Pretarget,0,52,52,52,2407.2126854635103,2409.214534885586,left,1,3,0.5566757239694198,B15D10,2023-01-10_10h44.51.208,t1_Paradigm,2021.1.4,59.99268661172605,
V,left,Distractor,0,53,53,53,2410.7126100750997,2412.7139988258655,left,1,3,0.5772788954154748,B15D10,2023-01-10_10h44.51.208,t1_Paradigm,2021.1.4,59.99268661172605,
B,left,Distractor,0,54,54,54,2414.2126354184375,2416.2139083597726,left,1,3,0.7254235385075845,B15D10,2023-01-10_10h44.51.208,t1_Paradigm,2021.1.4,59.99268661172605,
T,right,Target,0,55,55,55,2417.7127473782475,2419.7141601891444,left,0,3,0.968893458531511,B15D10,2023-01-10_10h44.51.208,t1_Paradigm,2021.1.4,59.99268661172605,
Y,left,Pretarget,0,56,56,56,2421.2125648420533,2423.213484580664,left,1,3,0.6856665779114337,B15D10,2023-01-10_10h44.51.208,t1_Paradigm,2021.1.4,59.99268661172605,
T,left,Lure,0,57,57,57,2424.712393213118,2426.714560549726,left,1,3,1.2485758006409924,B15D10,2023-01-10_10h44.51.208,t1_Paradigm,2021.1.4,59.99268661172605,
P,left,Pretarget,0,58,58,58,2428.2124131028263,2430.21410982327,left,1,3,0.7251312881153353,B15D10,2023-01-10_10h44.51.208,t1_Paradigm,2021.1.4,59.99268661172605,
Y,right,Target,0,59,59,59,2431.712304030232,2433.7152435366465,left,0,3,0.6318639543947029,B15D10,2023-01-10_10h44.51.208,t1_Paradigm,2021.1.4,59.99268661172605,
R,left,Distractor,0,60,60,60,2435.212380381048,2437.2144020736623,left,1,3,0.9092086141686195,B15D10,2023-01-10_10h44.51.208,t1_Paradigm,2021.1.4,59.99268661172605,
P,right,Target,0,61,61,61,2438.7125648420533,2440.7131073178084,None,0,3,,B15D10,2023-01-10_10h44.51.208,t1_Paradigm,2021.1.4,59.99268661172605,
L,left,Distractor,0,62,62,62,2442.2123912883076,2444.2145165998863,left,1,3,0.6288307738700496,B15D10,2023-01-10_10h44.51.208,t1_Paradigm,2021.1.4,59.99268661172605,
V,left,Distractor,0,63,63,63,2445.712264892419,2447.7142394271764,left,1,3,0.8250494836693179,B15D10,2023-01-10_10h44.51.208,t1_Paradigm,2021.1.4,59.99268661172605,
H,left,Lure,0,0,0,0,2480.0212858375653,2482.013947818388,left,1,3,1.3093029298825059,B15D10,2023-01-10_10h44.51.208,t1_Paradigm,2021.1.4,59.99268661172605,
B,left,Distractor,0,1,1,1,2483.512348942477,2485.5140353972647,left,1,3,0.6095027893711631,B15D10,2023-01-10_10h44.51.208,t1_Paradigm,2021.1.4,59.99268661172605,
T,left,Distractor,0,2,2,2,2487.0124092532055,2489.0142965298874,left,1,3,0.420900554666332,B15D10,2023-01-10_10h44.51.208,t1_Paradigm,2021.1.4,59.99268661172605,
R,left,Distractor,0,3,3,3,2490.5123396392264,2492.513264510665,left,1,3,0.6498554788122419,B15D10,2023-01-10_10h44.51.208,t1_Paradigm,2021.1.4,59.99268661172605,
H,left,Pretarget,0,4,4,4,2494.0126341352307,2496.0121741055245,left,1,3,0.9911160371998449,B15D10,2023-01-10_10h44.51.208,t1_Paradigm,2021.1.4,59.99268661172605,
K,left,Distractor,0,5,5,5,2497.512264892419,2499.5126460048955,left,1,3,0.610488292340051,B15D10,2023-01-10_10h44.51.208,t1_Paradigm,2021.1.4,59.99268661172605,
G,left,Distractor,0,6,6,6,2501.0126995787873,2503.01460899079,left,1,3,0.5325055578900901,B15D10,2023-01-10_10h44.51.208,t1_Paradigm,2021.1.4,59.99268661172605,
H,right,Target,0,7,7,7,2504.512529233059,2506.513114054645,left,0,3,1.1141810412582345,B15D10,2023-01-10_10h44.51.208,t1_Paradigm,2021.1.4,59.99268661172605,
Y,left,Pretarget,0,8,8,8,2508.012293122973,2510.015250594285,left,1,3,0.7476951998432924,B15D10,2023-01-10_10h44.51.208,t1_Paradigm,2021.1.4,59.99268661172605,
S,left,Distractor,0,9,9,9,2511.512371719401,2513.514200289363,left,1,3,0.5131525508550112,B15D10,2023-01-10_10h44.51.208,t1_Paradigm,2021.1.4,59.99268661172605,
P,left,Distractor,0,10,10,10,2515.0125375739044,2517.014510504653,left,1,3,0.4366535244885199,B15D10,2023-01-10_10h44.51.208,t1_Paradigm,2021.1.4,59.99268661172605,
Y,right,Target,0,11,11,11,2518.5124968320824,2520.514140620238,right,1,3,0.6649851308388861,B15D10,2023-01-10_10h44.51.208,t1_Paradigm,2021.1.4,59.99268661172605,
H,left,Lure,0,12,12,12,2522.0122988974044,2524.0134961295266,left,1,3,0.5098585585092223,B15D10,2023-01-10_10h44.51.208,t1_Paradigm,2021.1.4,59.99268661172605,
Q,left,Distractor,0,13,13,13,2525.512495228074,2527.514337913313,left,1,3,0.7208729657158983,B15D10,2023-01-10_10h44.51.208,t1_Paradigm,2021.1.4,59.99268661172605,
V,left,Pretarget,0,14,14,14,2529.0125173633946,2531.0132192776186,left,1,3,0.5657698119139241,B15D10,2023-01-10_10h44.51.208,t1_Paradigm,2021.1.4,59.99268661172605,
G,left,Distractor,0,15,15,15,2532.5125260250416,2534.513165703727,left,1,3,0.6659321375982472,B15D10,2023-01-10_10h44.51.208,t1_Paradigm,2021.1.4,59.99268661172605,
Z,left,Pretarget,0,16,16,16,2536.0124714887447,2538.0139850313903,left,1,3,0.477143196275847,B15D10,2023-01-10_10h44.51.208,t1_Paradigm,2021.1.4,59.99268661172605,
V,right,Target,0,17,17,17,2539.512213884941,2541.51411720171,right,1,3,0.5452269511961276,B15D10,2023-01-10_10h44.51.208,t1_Paradigm,2021.1.4,59.99268661172605,
N,left,Distractor,0,18,18,18,2543.012501644109,2545.013196821496,left,1,3,0.5338279026946111,B15D10,2023-01-10_10h44.51.208,t1_Paradigm,2021.1.4,59.99268661172605,
Z,right,Target,0,19,19,19,2546.512416310844,2548.5144145849304,left,0,3,0.7766905450102968,B15D10,2023-01-10_10h44.51.208,t1_Paradigm,2021.1.4,59.99268661172605,
R,left,Distractor,0,20,20,20,2550.012341564037,2552.014594233909,left,1,3,0.6045104725731107,B15D10,2023-01-10_10h44.51.208,t1_Paradigm,2021.1.4,59.99268661172605,
P,left,Distractor,0,21,21,21,2553.5122385866757,2555.51435940703,left,1,3,0.48124625062928317,B15D10,2023-01-10_10h44.51.208,t1_Paradigm,2021.1.4,59.99268661172605,
Z,right,Target,0,22,22,22,2557.0122145265445,2559.013597823681,right,1,3,0.6296209085744522,B15D10,2023-01-10_10h44.51.208,t1_Paradigm,2021.1.4,59.99268661172605,
D,left,Pretarget,0,23,23,23,2560.5121814839645,2562.5133296334197,left,1,3,0.5377692729671253,B15D10,2023-01-10_10h44.51.208,t1_Paradigm,2021.1.4,59.99268661172605,
K,left,Distractor,0,24,24,24,2564.0125616340356,2566.014247126418,left,1,3,0.5569512926704192,B15D10,2023-01-10_10h44.51.208,t1_Paradigm,2021.1.4,59.99268661172605,
W,left,Distractor,0,25,25,25,2567.512440050173,2569.514113352089,left,1,3,0.5612936651282325,B15D10,2023-01-10_10h44.51.208,t1_Paradigm,2021.1.4,59.99268661172605,
D,right,Target,0,26,26,26,2571.0122620052034,2573.014131958591,right,1,3,1.1891119886822707,B15D10,2023-01-10_10h44.51.208,t1_Paradigm,2021.1.4,59.99268661172605,
G,left,Pretarget,0,27,27,27,2574.512286065334,2576.514215687847,left,1,3,0.6008061747920692,B15D10,2023-01-10_10h44.51.208,t1_Paradigm,2021.1.4,59.99268661172605,
V,left,Distractor,0,28,28,28,2578.0123037094304,2580.0132767011314,left,1,3,1.1337528350854882,B15D10,2023-01-10_10h44.51.208,t1_Paradigm,2021.1.4,59.99268661172605,
D,right,Target,0,29,29,29,2581.5124737343567,2583.513130094733,left,0,3,0.73796432042991,B15D10,2023-01-10_10h44.51.208,t1_Paradigm,2021.1.4,59.99268661172605,
G,right,Target,0,30,30,30,2585.012442616587,2587.0141191265207,right,1,3,0.48493226271102685,B15D10,2023-01-10_10h44.51.208,t1_Paradigm,2021.1.4,59.99268661172605,
B,left,Pretarget,0,31,31,31,2588.512123418848,2590.5141653219725,left,1,3,0.4890269762186108,B15D10,2023-01-10_10h44.51.208,t1_Paradigm,2021.1.4,59.99268661172605,
N,left,Distractor,0,32,32,32,2592.01232937357,2594.013793512747,left,1,3,0.6690371777144719,B15D10,2023-01-10_10h44.51.208,t1_Paradigm,2021.1.4,59.99268661172605,
F,left,Distractor,0,33,33,33,2595.5126065462805,2597.5122655340224,left,1,3,0.4990677501209575,B15D10,2023-01-10_10h44.51.208,t1_Paradigm,2021.1.4,59.99268661172605,
B,right,Target,0,34,34,34,2599.0126023758576,2601.0139901642183,left,0,3,1.0132654730705326,B15D10,2023-01-10_10h44.51.208,t1_Paradigm,2021.1.4,59.99268661172605,
Q,left,Pretarget,0,35,35,35,2602.5122350578563,2604.5137229363622,left,1,3,0.6332912013704117,B15D10,2023-01-10_10h44.51.208,t1_Paradigm,2021.1.4,59.99268661172605,
S,left,Pretarget,0,36,36,36,2606.012493944867,2608.0130951273422,left,1,3,0.6697374879295239,B15D10,2023-01-10_10h44.51.208,t1_Paradigm,2021.1.4,59.99268661172605,
W,left,Distractor,0,37,37,37,2609.512344130451,2611.512931197649,left,1,3,0.6742508477186675,B15D10,2023-01-10_10h44.51.208,t1_Paradigm,2021.1.4,59.99268661172605,
Q,right,Target,0,38,38,38,2613.0124381253627,2615.0146763591565,right,1,3,1.1724838716922932,B15D10,2023-01-10_10h44.51.208,t1_Paradigm,2021.1.4,59.99268661172605,
S,right,Target,0,39,39,39,2616.5121622358597,2618.5142115174244,right,1,3,0.8889515878086058,B15D10,2023-01-10_10h44.51.208,t1_Paradigm,2021.1.4,59.99268661172605,
T,left,Distractor,0,40,40,40,2620.012154536618,2622.014406244085,left,1,3,0.49256926911721166,B15D10,2023-01-10_10h44.51.208,t1_Paradigm,2021.1.4,59.99268661172605,
G,left,Distractor,0,41,41,41,2623.5121840503784,2625.512519288205,left,1,3,0.5785941825811278,B15D10,2023-01-10_10h44.51.208,t1_Paradigm,2021.1.4,59.99268661172605,
D,left,Distractor,0,42,42,42,2627.012094225889,2629.011898857625,left,1,3,0.9834302689282595,B15D10,2023-01-10_10h44.51.208,t1_Paradigm,2021.1.4,59.99268661172605,
S,left,Lure,0,43,43,43,2630.512420160465,2632.514371918298,right,0,3,0.7448718236619243,B15D10,2023-01-10_10h44.51.208,t1_Paradigm,2021.1.4,59.99268661172605,
Z,left,Pretarget,0,44,44,44,2634.0290906232854,2636.014407848094,left,1,3,0.7484988082214841,B15D10,2023-01-10_10h44.51.208,t1_Paradigm,2021.1.4,59.99268661172605,
J,left,Distractor,0,45,45,45,2637.512191108017,2639.514207667803,left,1,3,0.6729512798387987,B15D10,2023-01-10_10h44.51.208,t1_Paradigm,2021.1.4,59.99268661172605,
M,left,Pretarget,0,46,46,46,2641.012244040305,2643.0138374625863,left,1,3,0.6453251165312395,B15D10,2023-01-10_10h44.51.208,t1_Paradigm,2021.1.4,59.99268661172605,
Z,right,Target,0,47,47,47,2644.5125298746625,2646.5137370516395,right,1,3,0.8414235256755092,B15D10,2023-01-10_10h44.51.208,t1_Paradigm,2021.1.4,59.99268661172605,
P,left,Distractor,0,48,48,48,2648.0125542555957,2650.0132767011314,left,1,3,0.47833144594960686,B15D10,2023-01-10_10h44.51.208,t1_Paradigm,2021.1.4,59.99268661172605,
M,right,Target,0,49,49,49,2651.5122604011945,2653.5132613026476,right,1,3,0.9936632030771761,B15D10,2023-01-10_10h44.51.208,t1_Paradigm,2021.1.4,59.99268661172605,
K,left,Distractor,0,50,50,50,2655.011937674636,2657.013383848915,left,1,3,0.35768432466420563,B15D10,2023-01-10_10h44.51.208,t1_Paradigm,2021.1.4,59.99268661172605,
Y,left,Distractor,0,51,51,51,2658.512223188192,2660.5139811817694,left,1,3,0.5370365617750394,B15D10,2023-01-10_10h44.51.208,t1_Paradigm,2021.1.4,59.99268661172605,
X,left,Distractor,0,52,52,52,2662.012161594256,2664.0129430673137,left,1,3,0.8302503216041259,B15D10,2023-01-10_10h44.51.208,t1_Paradigm,2021.1.4,59.99268661172605,
F,left,Pretarget,0,53,53,53,2665.512371398599,2667.514180399655,left,1,3,0.7848247941255977,B15D10,2023-01-10_10h44.51.208,t1_Paradigm,2021.1.4,59.99268661172605,
M,left,Lure,0,54,54,54,2669.0123710777975,2671.0146513366203,left,1,3,0.6284567190323287,B15D10,2023-01-10_10h44.51.208,t1_Paradigm,2021.1.4,59.99268661172605,
V,left,Distractor,0,55,55,55,2672.51236241615,2674.5133492023265,left,1,3,0.5855324827807635,B15D10,2023-01-10_10h44.51.208,t1_Paradigm,2021.1.4,59.99268661172605,
F,right,Target,0,56,56,56,2676.012302105422,2678.0140392468857,right,1,3,0.9569512926705102,B15D10,2023-01-10_10h44.51.208,t1_Paradigm,2021.1.4,59.99268661172605,
S,left,Distractor,0,57,57,57,2679.5124615438904,2681.5147094017366,left,1,3,0.12838133062177803,B15D10,2023-01-10_10h44.51.208,t1_Paradigm,2021.1.4,59.99268661172605,
D,left,Distractor,0,58,58,58,2683.012164481472,2685.0249362406526,left,1,3,0.6181593037317725,B15D10,2023-01-10_10h44.51.208,t1_Paradigm,2021.1.4,59.99268661172605,
F,right,Target,0,59,59,59,2686.5124564110624,2688.513108921817,left,0,3,1.0018102842623193,B15D10,2023-01-10_10h44.51.208,t1_Paradigm,2021.1.4,59.99268661172605,
V,left,Pretarget,0,60,60,60,2690.0120592584985,2692.0138461242336,left,1,3,0.8453106804527124,B15D10,2023-01-10_10h44.51.208,t1_Paradigm,2021.1.4,59.99268661172605,
J,left,Distractor,0,61,61,61,2693.512225754606,2695.5139141342042,left,1,3,0.6892544246584293,B15D10,2023-01-10_10h44.51.208,t1_Paradigm,2021.1.4,59.99268661172605,
V,left,Lure,0,62,62,62,2697.012150366195,2699.0137880591174,left,1,3,0.7891816026617562,B15D10,2023-01-10_10h44.51.208,t1_Paradigm,2021.1.4,59.99268661172605,
V,right,Target,0,63,63,63,2700.512178275947,2702.511953714724,right,1,3,0.5390714072609626,B15D10,2023-01-10_10h44.51.208,t1_Paradigm,2021.1.4,59.99268661172605,
R,left,Distractor,0,0,0,0,2766.0203930463013,2768.0248954988306,left,1,4,1.0740182664517306,B15D10,2023-01-10_10h44.51.208,t1_Paradigm,2021.1.4,59.99268661172605,
F,left,Distractor,0,1,1,1,2769.5122437195037,2771.5125590676216,left,1,4,0.5305454592116803,B15D10,2023-01-10_10h44.51.208,t1_Paradigm,2021.1.4,59.99268661172605,
P,left,Pretarget,0,2,2,2,2773.0123130126813,2775.014606103574,left,1,4,0.5162344932455198,B15D10,2023-01-10_10h44.51.208,t1_Paradigm,2021.1.4,59.99268661172605,
H,left,Distractor,0,3,3,3,2776.51226874204,2778.5129799595147,left,1,4,0.6498888421942866,B15D10,2023-01-10_10h44.51.208,t1_Paradigm,2021.1.4,59.99268661172605,
Z,left,Distractor,0,4,4,4,2780.0120095342277,2782.0139365903265,left,1,4,0.6050718756314382,B15D10,2023-01-10_10h44.51.208,t1_Paradigm,2021.1.4,59.99268661172605,
T,left,Distractor,0,5,5,5,2783.5120175542716,2785.5140216027894,left,1,4,0.5450059187919578,B15D10,2023-01-10_10h44.51.208,t1_Paradigm,2021.1.4,59.99268661172605,
P,right,Target,0,6,6,6,2787.012034877566,2789.012464751908,None,0,4,,B15D10,2023-01-10_10h44.51.208,t1_Paradigm,2021.1.4,59.99268661172605,
G,left,Distractor,0,7,7,7,2790.512071769767,2792.513105392998,left,1,4,1.1778422232841876,B15D10,2023-01-10_10h44.51.208,t1_Paradigm,2021.1.4,59.99268661172605,
L,left,Distractor,0,8,8,8,2794.011985153295,2796.0121609526527,left,1,4,1.2309159852306948,B15D10,2023-01-10_10h44.51.208,t1_Paradigm,2021.1.4,59.99268661172605,
P,left,Lure,0,9,9,9,2797.5121660854807,2799.5134951671216,left,1,4,1.105511374026264,B15D10,2023-01-10_10h44.51.208,t1_Paradigm,2021.1.4,59.99268661172605,
Q,left,Pretarget,0,10,10,10,2801.012373002608,2803.0125147969807,left,1,4,1.1744551984320424,B15D10,2023-01-10_10h44.51.208,t1_Paradigm,2021.1.4,59.99268661172605,
D,left,Distractor,0,11,11,11,2804.511920672144,2806.5129510873576,left,1,4,0.9220018670662284,B15D10,2023-01-10_10h44.51.208,t1_Paradigm,2021.1.4,59.99268661172605,
M,left,Pretarget,0,12,12,12,2808.0122802909027,2810.014202534975,left,1,4,0.6524385744851315,B15D10,2023-01-10_10h44.51.208,t1_Paradigm,2021.1.4,59.99268661172605,
C,left,Distractor,0,13,13,13,2811.5122658548244,2813.5143128907766,left,1,4,0.9926068029217276,B15D10,2023-01-10_10h44.51.208,t1_Paradigm,2021.1.4,59.99268661172605,
Q,right,Target,0,14,14,14,2815.012233133046,2817.012279649299,right,1,4,0.5345570850668082,B15D10,2023-01-10_10h44.51.208,t1_Paradigm,2021.1.4,59.99268661172605,
R,left,Distractor,0,15,15,15,2818.5119540355254,2820.5135856332145,left,1,4,0.6332100385279773,B15D10,2023-01-10_10h44.51.208,t1_Paradigm,2021.1.4,59.99268661172605,
M,right,Target,0,16,16,16,2822.0120307071434,2824.0130640095726,right,1,4,1.0538160971900652,B15D10,2023-01-10_10h44.51.208,t1_Paradigm,2021.1.4,59.99268661172605,
S,left,Distractor,0,17,17,17,2825.512262326005,2827.5122988974044,left,1,4,0.9147539931796018,B15D10,2023-01-10_10h44.51.208,t1_Paradigm,2021.1.4,59.99268661172605,
Z,left,Distractor,0,18,18,18,2829.0123656241676,2831.012832069909,left,1,4,1.1901407998871036,B15D10,2023-01-10_10h44.51.208,t1_Paradigm,2021.1.4,59.99268661172605,
L,left,Pretarget,0,19,19,19,2832.5116954693167,2834.5140722894657,left,1,4,1.0007631873577338,B15D10,2023-01-10_10h44.51.208,t1_Paradigm,2021.1.4,59.99268661172605,
M,right,Target,0,20,20,20,2836.0120018349858,2838.0123540753048,right,1,4,1.2306904616016254,B15D10,2023-01-10_10h44.51.208,t1_Paradigm,2021.1.4,59.99268661172605,
P,left,Distractor,0,21,21,21,2839.5118792887183,2841.51427503617,left,1,4,0.5127900448801483,B15D10,2023-01-10_10h44.51.208,t1_Paradigm,2021.1.4,59.99268661172605,
F,left,Distractor,0,22,22,22,2843.012249493935,2845.0131082802136,left,1,4,0.6619869177047804,B15D10,2023-01-10_10h44.51.208,t1_Paradigm,2021.1.4,59.99268661172605,
L,right,Target,0,23,23,23,2846.512212601734,2848.5127855536557,left,0,4,0.8902216419273827,B15D10,2023-01-10_10h44.51.208,t1_Paradigm,2021.1.4,59.99268661172605,
L,left,Lure,0,24,24,24,2850.012304671836,2852.0121282308746,left,1,4,1.2946653877370409,B15D10,2023-01-10_10h44.51.208,t1_Paradigm,2021.1.4,59.99268661172605,
V,left,Pretarget,0,25,25,25,2853.5120239703065,2855.514259316885,left,1,4,1.2485219059472001,B15D10,2023-01-10_10h44.51.208,t1_Paradigm,2021.1.4,59.99268661172605,
Z,left,Distractor,0,26,26,26,2857.011979699665,2859.012613603919,left,1,4,0.6784584834417728,B15D10,2023-01-10_10h44.51.208,t1_Paradigm,2021.1.4,59.99268661172605,
H,left,Distractor,0,27,27,27,2860.512101925131,2862.5127114484517,left,1,4,0.6340668999964691,B15D10,2023-01-10_10h44.51.208,t1_Paradigm,2021.1.4,59.99268661172605,
X,left,Distractor,0,28,28,28,2864.011986757304,2866.013435177195,left,1,4,0.6692132978741938,B15D10,2023-01-10_10h44.51.208,t1_Paradigm,2021.1.4,59.99268661172605,
V,right,Target,0,29,29,29,2867.5288362274996,2869.5143254020445,left,0,4,0.6088749803511746,B15D10,2023-01-10_10h44.51.208,t1_Paradigm,2021.1.4,59.99268661172605,
C,left,Distractor,0,30,30,30,2871.0121818047664,2873.0140283396263,left,1,4,0.6290919064927039,B15D10,2023-01-10_10h44.51.208,t1_Paradigm,2021.1.4,59.99268661172605,
S,left,Pretarget,0,31,31,31,2874.512287348541,2876.513324500592,left,1,4,0.505570080745656,B15D10,2023-01-10_10h44.51.208,t1_Paradigm,2021.1.4,59.99268661172605,
D,left,Distractor,0,32,32,32,2878.0121702559036,2880.013747958899,left,1,4,0.6051402064035756,B15D10,2023-01-10_10h44.51.208,t1_Paradigm,2021.1.4,59.99268661172605,
V,left,Distractor,0,33,33,33,2881.511962376371,2883.513842916216,right,0,4,0.8815458794620099,B15D10,2023-01-10_10h44.51.208,t1_Paradigm,2021.1.4,59.99268661172605,
R,left,Distractor,0,34,34,34,2885.0118090331357,2887.011668201168,left,1,4,0.3752305762563992,B15D10,2023-01-10_10h44.51.208,t1_Paradigm,2021.1.4,59.99268661172605,
S,right,Target,0,35,35,35,2888.5119357498256,2890.513833292164,left,0,4,0.42514091216753513,B15D10,2023-01-10_10h44.51.208,t1_Paradigm,2021.1.4,59.99268661172605,
Y,left,Distractor,0,36,36,36,2892.0119148977124,2894.012892059836,left,1,4,0.8939445462096955,B15D10,2023-01-10_10h44.51.208,t1_Paradigm,2021.1.4,59.99268661172605,
N,left,Pretarget,0,37,37,37,2895.5119033488495,2897.512872811731,left,1,4,0.5620597397014535,B15D10,2023-01-10_10h44.51.208,t1_Paradigm,2021.1.4,59.99268661172605,
Z,left,Pretarget,0,38,38,38,2899.0121208524342,2901.013915417411,left,1,4,0.7568595433708651,B15D10,2023-01-10_10h44.51.208,t1_Paradigm,2021.1.4,59.99268661172605,
P,left,Pretarget,0,39,39,39,2902.51211090758,2904.5141534523077,left,1,4,1.3047655099621807,B15D10,2023-01-10_10h44.51.208,t1_Paradigm,2021.1.4,59.99268661172605,
M,left,Distractor,0,40,40,40,2906.0119489026974,2908.013984389787,left,1,4,0.8129921499812554,B15D10,2023-01-10_10h44.51.208,t1_Paradigm,2021.1.4,59.99268661172605,
N,right,Target,0,41,41,41,2909.511763800089,2911.5130069068614,right,1,4,1.1058543110943901,B15D10,2023-01-10_10h44.51.208,t1_Paradigm,2021.1.4,59.99268661172605,
Z,right,Target,0,42,42,42,2913.0118818551323,2915.0124689223308,right,1,4,1.0943696085259944,B15D10,2023-01-10_10h44.51.208,t1_Paradigm,2021.1.4,59.99268661172605,
P,right,Target,0,43,43,43,2916.512099679519,2918.5137367308375,left,0,4,0.8252390775028289,B15D10,2023-01-10_10h44.51.208,t1_Paradigm,2021.1.4,59.99268661172605,
X,left,Pretarget,0,44,44,44,2920.0120595793005,2922.0138891116676,left,1,4,1.036863008029286,B15D10,2023-01-10_10h44.51.208,t1_Paradigm,2021.1.4,59.99268661172605,
Z,left,Lure,0,45,45,45,2923.51213657172,2925.5129510873576,left,1,4,0.5938527969101415,B15D10,2023-01-10_10h44.51.208,t1_Paradigm,2021.1.4,59.99268661172605,
R,left,Pretarget,0,46,46,46,2927.011989002916,2929.0140459837226,left,1,4,0.5648981935655684,B15D10,2023-01-10_10h44.51.208,t1_Paradigm,2021.1.4,59.99268661172605,
K,left,Distractor,0,47,47,47,2930.5118751182954,2932.5139324199035,left,1,4,0.7450492270281757,B15D10,2023-01-10_10h44.51.208,t1_Paradigm,2021.1.4,59.99268661172605,
X,right,Target,0,48,48,48,2934.0122565515735,2936.012697653977,right,1,4,1.0221561727066728,B15D10,2023-01-10_10h44.51.208,t1_Paradigm,2021.1.4,59.99268661172605,
B,left,Distractor,0,49,49,49,2937.5118561909926,2939.512834636323,left,1,4,0.43393890009929237,B15D10,2023-01-10_10h44.51.208,t1_Paradigm,2021.1.4,59.99268661172605,
R,right,Target,0,50,50,50,2941.01188698796,2943.012124702055,right,1,4,1.0786188843158016,B15D10,2023-01-10_10h44.51.208,t1_Paradigm,2021.1.4,59.99268661172605,
Y,left,Pretarget,0,51,51,51,2944.511898857625,2946.5146227852647,left,1,4,0.9840917621318113,B15D10,2023-01-10_10h44.51.208,t1_Paradigm,2021.1.4,59.99268661172605,
W,left,Pretarget,0,52,52,52,2948.0118520205697,2950.0134088714512,left,1,4,0.8135596482729852,B15D10,2023-01-10_10h44.51.208,t1_Paradigm,2021.1.4,59.99268661172605,
Z,left,Distractor,0,53,53,53,2951.5118844215463,2953.512718826892,left,1,4,0.9622236693944615,B15D10,2023-01-10_10h44.51.208,t1_Paradigm,2021.1.4,59.99268661172605,
Q,left,Distractor,0,54,54,54,2955.012090376268,2957.012581844546,left,1,4,0.8222488844121472,B15D10,2023-01-10_10h44.51.208,t1_Paradigm,2021.1.4,59.99268661172605,
Y,right,Target,0,55,55,55,2958.512175709533,2960.514232048736,left,0,4,0.7286822426608524,B15D10,2023-01-10_10h44.51.208,t1_Paradigm,2021.1.4,59.99268661172605,
W,right,Target,0,56,56,56,2962.011871910278,2964.0131596084934,left,0,4,0.621852052649956,B15D10,2023-01-10_10h44.51.208,t1_Paradigm,2021.1.4,59.99268661172605,
H,left,Pretarget,0,57,57,57,2965.5122424362967,2967.5283162078667,left,1,4,0.5465544288285855,B15D10,2023-01-10_10h44.51.208,t1_Paradigm,2021.1.4,59.99268661172605,
M,left,Distractor,0,58,58,58,2969.012087809854,2971.0137101042924,left,1,4,0.5010220743679383,B15D10,2023-01-10_10h44.51.208,t1_Paradigm,2021.1.4,59.99268661172605,
R,left,Pretarget,0,59,59,59,2972.5118385468963,2974.5245208023894,left,1,4,0.7984761916982279,B15D10,2023-01-10_10h44.51.208,t1_Paradigm,2021.1.4,59.99268661172605,
J,left,Distractor,0,60,60,60,2976.011932541808,2978.0122998598094,left,1,4,0.5105960817272717,B15D10,2023-01-10_10h44.51.208,t1_Paradigm,2021.1.4,59.99268661172605,
H,right,Target,0,61,61,61,2979.5122122809325,2981.5126658946037,right,1,4,1.21802969982582,B15D10,2023-01-10_10h44.51.208,t1_Paradigm,2021.1.4,59.99268661172605,
Z,left,Distractor,0,62,62,62,2983.0119238801612,2985.01199156933,left,1,4,0.6468996115090704,B15D10,2023-01-10_10h44.51.208,t1_Paradigm,2021.1.4,59.99268661172605,
R,right,Target,0,63,63,63,2986.512188541603,2988.5126902755364,left,0,4,0.41033783632065024,B15D10,2023-01-10_10h44.51.208,t1_Paradigm,2021.1.4,59.99268661172605,
J,left,Pretarget,0,0,0,0,3009.153767656126,3011.1456462390806,left,1,4,0.4333171863122516,B15D10,2023-01-10_10h44.51.208,t1_Paradigm,2021.1.4,59.99268661172605,
G,left,Pretarget,0,1,1,1,3012.645337627799,3014.6455933067923,left,1,4,0.7252211126046859,B15D10,2023-01-10_10h44.51.208,t1_Paradigm,2021.1.4,59.99268661172605,
Z,left,Distractor,0,2,2,2,3016.145192946211,3018.145925657403,left,1,4,0.40895068956342584,B15D10,2023-01-10_10h44.51.208,t1_Paradigm,2021.1.4,59.99268661172605,
F,left,Distractor,0,3,3,3,3019.6451704900887,3021.647258267863,left,1,4,0.41162521373416894,B15D10,2023-01-10_10h44.51.208,t1_Paradigm,2021.1.4,59.99268661172605,
J,right,Target,0,4,4,4,3023.145165036459,3025.146085737475,right,1,4,0.46464476018445566,B15D10,2023-01-10_10h44.51.208,t1_Paradigm,2021.1.4,59.99268661172605,
G,right,Target,0,5,5,5,3026.6451111417655,3028.6470337066394,right,1,4,0.5637660841975958,B15D10,2023-01-10_10h44.51.208,t1_Paradigm,2021.1.4,59.99268661172605,
H,left,Distractor,0,6,6,6,3030.1451926254094,3032.1461194216586,left,1,4,0.7767117179255365,B15D10,2023-01-10_10h44.51.208,t1_Paradigm,2021.1.4,59.99268661172605,
P,left,Distractor,0,7,7,7,3033.645289186735,3035.647196032324,left,1,4,0.8756877187470309,B15D10,2023-01-10_10h44.51.208,t1_Paradigm,2021.1.4,59.99268661172605,
G,left,Lure,0,8,8,8,3037.144952665702,3039.1460116322714,left,1,4,0.5131034681880919,B15D10,2023-01-10_10h44.51.208,t1_Paradigm,2021.1.4,59.99268661172605,
S,left,Distractor,0,9,9,9,3040.6454758933523,3042.6452529361377,left,1,4,0.9173486377153495,B15D10,2023-01-10_10h44.51.208,t1_Paradigm,2021.1.4,59.99268661172605,
R,left,Pretarget,0,10,10,10,3044.1452282344035,3046.147302859306,left,1,4,0.8075410866836137,B15D10,2023-01-10_10h44.51.208,t1_Paradigm,2021.1.4,59.99268661172605,
T,left,Pretarget,0,11,11,11,3047.6450829112114,3049.645502199096,left,1,4,0.7813922154246029,B15D10,2023-01-10_10h44.51.208,t1_Paradigm,2021.1.4,59.99268661172605,
X,left,Distractor,0,12,12,12,3051.1453738783966,3053.147150157674,left,1,4,0.6075398034768114,B15D10,2023-01-10_10h44.51.208,t1_Paradigm,2021.1.4,59.99268661172605,
F,left,Pretarget,0,13,13,13,3054.645026129302,3056.6466978272097,left,1,4,0.6599251248721885,B15D10,2023-01-10_10h44.51.208,t1_Paradigm,2021.1.4,59.99268661172605,
R,right,Target,0,14,14,14,3058.145087402436,3060.147405836667,right,1,4,0.47132481497783374,B15D10,2023-01-10_10h44.51.208,t1_Paradigm,2021.1.4,59.99268661172605,
T,right,Target,0,15,15,15,3061.6450793823924,3063.646817807063,right,1,4,0.7640384448814075,B15D10,2023-01-10_10h44.51.208,t1_Paradigm,2021.1.4,59.99268661172605,
C,left,Distractor,0,16,16,16,3065.145385106458,3067.145409166589,left,1,4,0.4331397829450907,B15D10,2023-01-10_10h44.51.208,t1_Paradigm,2021.1.4,59.99268661172605,
F,right,Target,0,17,17,17,3068.6450768159784,3070.646187110827,left,0,4,0.660406327493547,B15D10,2023-01-10_10h44.51.208,t1_Paradigm,2021.1.4,59.99268661172605,
M,left,Distractor,0,18,18,18,3072.145332815773,3074.146055261309,left,1,4,0.6485876703059148,B15D10,2023-01-10_10h44.51.208,t1_Paradigm,2021.1.4,59.99268661172605,
N,left,Distractor,0,19,19,19,3075.645332815773,3077.647277195166,left,1,4,0.5714775166097752,B15D10,2023-01-10_10h44.51.208,t1_Paradigm,2021.1.4,59.99268661172605,
R,left,Lure,0,20,20,20,3079.1453097180474,3081.146332754821,left,1,4,0.5762850516011895,B15D10,2023-01-10_10h44.51.208,t1_Paradigm,2021.1.4,59.99268661172605,
F,right,Target,0,21,21,21,3082.645107933748,3084.6469656966688,right,1,4,0.531866841610281,B15D10,2023-01-10_10h44.51.208,t1_Paradigm,2021.1.4,59.99268661172605,
P,left,Distractor,0,22,22,22,3086.145114028981,3088.1464280329396,left,1,4,0.5520061337292645,B15D10,2023-01-10_10h44.51.208,t1_Paradigm,2021.1.4,59.99268661172605,
L,left,Pretarget,0,23,23,23,3089.6450944600747,3091.6580092968347,left,1,4,0.704604146683323,B15D10,2023-01-10_10h44.51.208,t1_Paradigm,2021.1.4,59.99268661172605,
T,left,Distractor,0,24,24,24,3093.1454001841403,3095.1457405547944,left,1,4,0.465056669628666,B15D10,2023-01-10_10h44.51.208,t1_Paradigm,2021.1.4,59.99268661172605,
F,left,Distractor,0,25,25,25,3096.645246520103,3098.645842890552,left,1,4,1.1249542055506936,B15D10,2023-01-10_10h44.51.208,t1_Paradigm,2021.1.4,59.99268661172605,
V,left,Distractor,0,26,26,26,3100.145268334622,3102.147008684103,left,1,4,0.8396389055528743,B15D10,2023-01-10_10h44.51.208,t1_Paradigm,2021.1.4,59.99268661172605,
L,right,Target,0,27,27,27,3103.6451072921445,3105.6466753710874,left,0,4,0.6359868984568493,B15D10,2023-01-10_10h44.51.208,t1_Paradigm,2021.1.4,59.99268661172605,
S,left,Pretarget,0,28,28,28,3107.1450190716637,3109.1473429595244,left,1,4,0.47948761544876106,B15D10,2023-01-10_10h44.51.208,t1_Paradigm,2021.1.4,59.99268661172605,
W,left,Distractor,0,29,29,29,3110.645294640365,3112.6462503087714,left,1,4,0.852363186074399,B15D10,2023-01-10_10h44.51.208,t1_Paradigm,2021.1.4,59.99268661172605,
Q,left,Distractor,0,30,30,30,3114.1454236026675,3116.1456449558736,left,1,4,0.45707929256786883,B15D10,2023-01-10_10h44.51.208,t1_Paradigm,2021.1.4,59.99268661172605,
L,right,Target,0,31,31,31,3117.644980254652,3119.6466176267727,right,1,4,0.604058462910416,B15D10,2023-01-10_10h44.51.208,t1_Paradigm,2021.1.4,59.99268661172605,
S,right,Target,0,32,32,32,3121.1452086654967,3123.1470593707795,right,1,4,0.4636708060784258,B15D10,2023-01-10_10h44.51.208,t1_Paradigm,2021.1.4,59.99268661172605,
Z,left,Pretarget,0,33,33,33,3124.6453013772016,3126.657961818176,left,1,4,0.4886003098945366,B15D10,2023-01-10_10h44.51.208,t1_Paradigm,2021.1.4,59.99268661172605,
F,left,Distractor,0,34,34,34,3128.1452818082953,3130.1466686342505,left,1,4,0.8720456565047243,B15D10,2023-01-10_10h44.51.208,t1_Paradigm,2021.1.4,59.99268661172605,
V,left,Distractor,0,35,35,35,3131.6454059585717,3133.6471835210555,right,0,4,1.1153253410925572,B15D10,2023-01-10_10h44.51.208,t1_Paradigm,2021.1.4,59.99268661172605,
M,left,Distractor,0,36,36,36,3135.1453267205397,3137.1458890860035,left,1,4,0.6087319027715239,B15D10,2023-01-10_10h44.51.208,t1_Paradigm,2021.1.4,59.99268661172605,
Z,right,Target,0,37,37,37,3138.645077457582,3140.6469676214797,left,0,4,1.123581494872269,B15D10,2023-01-10_10h44.51.208,t1_Paradigm,2021.1.4,59.99268661172605,
H,left,Pretarget,0,38,38,38,3142.145393768105,3144.1469236716403,left,1,4,0.9676699206661397,B15D10,2023-01-10_10h44.51.208,t1_Paradigm,2021.1.4,59.99268661172605,
L,left,Distractor,0,39,39,39,3145.644848405134,3147.6469252756488,left,1,4,0.9236681113438863,B15D10,2023-01-10_10h44.51.208,t1_Paradigm,2021.1.4,59.99268661172605,
G,left,Distractor,0,40,40,40,3149.1450030315764,3151.1469355413046,left,1,4,0.5438802254598158,B15D10,2023-01-10_10h44.51.208,t1_Paradigm,2021.1.4,59.99268661172605,
K,left,Distractor,0,41,41,41,3152.6452279136015,3154.645519843192,left,1,4,0.6292741218853735,B15D10,2023-01-10_10h44.51.208,t1_Paradigm,2021.1.4,59.99268661172605,
H,right,Target,0,42,42,42,3156.1448352522625,3158.146529727094,right,1,4,1.0320423201665108,B15D10,2023-01-10_10h44.51.208,t1_Paradigm,2021.1.4,59.99268661172605,
B,left,Distractor,0,43,43,43,3159.6449978987484,3161.6471633105457,left,1,4,0.5555333489455734,B15D10,2023-01-10_10h44.51.208,t1_Paradigm,2021.1.4,59.99268661172605,
Z,left,Distractor,0,44,44,44,3163.1448962045943,3165.146966979876,left,1,4,0.6236456552214804,B15D10,2023-01-10_10h44.51.208,t1_Paradigm,2021.1.4,59.99268661172605,
T,left,Pretarget,0,45,45,45,3166.644950099288,3168.6452304800155,left,1,4,0.5012883398189842,B15D10,2023-01-10_10h44.51.208,t1_Paradigm,2021.1.4,59.99268661172605,
H,right,Target,0,46,46,46,3170.145213156721,3172.145530108848,left,0,4,1.1772631761295997,B15D10,2023-01-10_10h44.51.208,t1_Paradigm,2021.1.4,59.99268661172605,
F,left,Distractor,0,47,47,47,3173.645080023996,3175.644400565894,left,1,4,1.0381446110118304,B15D10,2023-01-10_10h44.51.208,t1_Paradigm,2021.1.4,59.99268661172605,
R,left,Distractor,0,48,48,48,3177.144956515323,3179.1471562529073,left,1,4,0.5592732557206546,B15D10,2023-01-10_10h44.51.208,t1_Paradigm,2021.1.4,59.99268661172605,
T,right,Target,0,49,49,49,3180.6449401544337,3182.645891010814,left,0,4,0.6927181211281095,B15D10,2023-01-10_10h44.51.208,t1_Paradigm,2021.1.4,59.99268661172605,
H,right,Target,0,50,50,50,3184.1452077030913,3186.1459439431023,right,1,4,0.9366435796341648,B15D10,2023-01-10_10h44.51.208,t1_Paradigm,2021.1.4,59.99268661172605,
Y,left,Pretarget,0,51,51,51,3187.64489909181,3189.6453475726535,left,1,4,0.5253613029685766,B15D10,2023-01-10_10h44.51.208,t1_Paradigm,2021.1.4,59.99268661172605,
H,left,Distractor,0,52,52,52,3191.1451951918234,3193.1451515627855,left,1,4,0.625370606218894,B15D10,2023-01-10_10h44.51.208,t1_Paradigm,2021.1.4,59.99268661172605,
S,left,Distractor,0,53,53,53,3194.6449584401335,3196.6468123534337,left,1,4,0.7078750413029411,B15D10,2023-01-10_10h44.51.208,t1_Paradigm,2021.1.4,59.99268661172605,
Q,left,Distractor,0,54,54,54,3198.1453081140385,3200.147137004802,left,1,4,0.6314039246885841,B15D10,2023-01-10_10h44.51.208,t1_Paradigm,2021.1.4,59.99268661172605,
Y,right,Target,0,55,55,55,3201.64469345789,3203.6458178680155,left,0,4,0.7809289777010235,B15D10,2023-01-10_10h44.51.208,t1_Paradigm,2021.1.4,59.99268661172605,
R,left,Distractor,0,56,56,56,3205.144915773501,3207.1579034322576,left,1,4,0.7405955363642533,B15D10,2023-01-10_10h44.51.208,t1_Paradigm,2021.1.4,59.99268661172605,
H,left,Pretarget,0,57,57,57,3208.64528084589,3210.6467658371803,left,1,4,0.5638109964424984,B15D10,2023-01-10_10h44.51.208,t1_Paradigm,2021.1.4,59.99268661172605,
J,left,Distractor,0,58,58,58,3212.1451935878144,3214.147058408374,left,1,4,0.7276723587588094,B15D10,2023-01-10_10h44.51.208,t1_Paradigm,2021.1.4,59.99268661172605,
V,left,Distractor,0,59,59,59,3215.6447906608196,3217.646261216031,left,1,4,0.6363118706271962,B15D10,2023-01-10_10h44.51.208,t1_Paradigm,2021.1.4,59.99268661172605,
Y,left,Lure,0,60,60,60,3219.1451858885725,3221.146408784835,right,0,4,0.8485860662967752,B15D10,2023-01-10_10h44.51.208,t1_Paradigm,2021.1.4,59.99268661172605,
H,right,Target,0,61,61,61,3222.644923793545,3224.6470930549626,left,0,4,0.6116091736466842,B15D10,2023-01-10_10h44.51.208,t1_Paradigm,2021.1.4,59.99268661172605,
L,left,Distractor,0,62,62,62,3226.1449330967953,3228.157938399648,left,1,4,0.5886506757688039,B15D10,2023-01-10_10h44.51.208,t1_Paradigm,2021.1.4,59.99268661172605,
P,left,Distractor,0,63,63,63,3229.6449991819554,3231.647242869379,left,1,4,0.5554627725609862,B15D10,2023-01-10_10h44.51.208,t1_Paradigm,2021.1.4,59.99268661172605,
