Letter,CorrAnswer,Stimulus,nback_run.thisRepN,nback_run.thisTrialN,nback_run.thisN,nback_run.thisIndex,fixcross.started,nback_trial.started,trial_resp.keys,trial_resp.corr,currentlevel,trial_resp.rt,Participant,date,expName,psychopyVersion,frameRate,
H,left,Distractor,0,0,0,0,201.1232576037305,203.0613338243743,None,0,1,,B19S05,2022-09-29_09h03.28.866,t1_Paradigm,2021.1.4,60.00752696042224,
Q,left,Pretarget,0,1,1,1,204.56203654127899,206.56489232118565,left,1,1,0.6095899925155663,B19S05,2022-09-29_09h03.28.866,t1_Paradigm,2021.1.4,60.00752696042224,
Q,right,Target,0,2,2,2,208.06053502725376,210.0604894733617,right,1,1,0.6819770517456618,B19S05,2022-09-29_09h03.28.866,t1_Paradigm,2021.1.4,60.00752696042224,
T,left,Distractor,0,3,3,3,211.56046717761888,213.56213181948988,left,1,1,0.8445922557741596,B19S05,2022-09-29_09h03.28.866,t1_Paradigm,2021.1.4,60.00752696042224,
Q,left,Lure,0,4,4,4,215.06031014501218,217.0620270776185,left,1,1,0.6564007869915258,B19S05,2022-09-29_09h03.28.866,t1_Paradigm,2021.1.4,60.00752696042224,
L,left,Distractor,0,5,5,5,218.5605185059478,220.5619669272328,left,1,1,0.5965256495680933,B19S05,2022-09-29_09h03.28.866,t1_Paradigm,2021.1.4,60.00752696042224,
V,left,Pretarget,0,6,6,6,222.0601025860817,224.06257757394724,left,1,1,0.6639264824343627,B19S05,2022-09-29_09h03.28.866,t1_Paradigm,2021.1.4,60.00752696042224,
V,right,Target,0,7,7,7,225.56048097210714,227.56061410496068,right,1,1,0.6536280948175772,B19S05,2022-09-29_09h03.28.866,t1_Paradigm,2021.1.4,60.00752696042224,
K,left,Distractor,0,8,8,8,229.0604609219788,231.06195393474945,left,1,1,0.720349789730335,B19S05,2022-09-29_09h03.28.866,t1_Paradigm,2021.1.4,60.00752696042224,
G,left,Pretarget,0,9,9,9,232.5604841801278,234.56242118294472,left,1,1,0.6757499630275561,B19S05,2022-09-29_09h03.28.866,t1_Paradigm,2021.1.4,60.00752696042224,
G,right,Target,0,10,10,10,236.0602164708116,238.0605809019478,right,1,1,0.6978804928930913,B19S05,2022-09-29_09h03.28.866,t1_Paradigm,2021.1.4,60.00752696042224,
G,right,Target,0,11,11,11,239.56049027536687,241.5605977440557,right,1,1,0.685497854315372,B19S05,2022-09-29_09h03.28.866,t1_Paradigm,2021.1.4,60.00752696042224,
P,left,Pretarget,0,12,12,12,243.0604978142153,245.06391724333503,left,1,1,0.4785657709981024,B19S05,2022-09-29_09h03.28.866,t1_Paradigm,2021.1.4,60.00752696042224,
P,right,Target,0,13,13,13,246.56049091697105,248.56040462121769,right,1,1,0.6938043819636732,B19S05,2022-09-29_09h03.28.866,t1_Paradigm,2021.1.4,60.00752696042224,
G,left,Lure,0,14,14,14,250.06033580917665,252.06313833594209,left,1,1,0.5991087477268593,B19S05,2022-09-29_09h03.28.866,t1_Paradigm,2021.1.4,60.00752696042224,
Y,left,Distractor,0,15,15,15,253.56055796460078,255.56485831616783,left,1,1,0.6495186204740548,B19S05,2022-09-29_09h03.28.866,t1_Paradigm,2021.1.4,60.00752696042224,
B,left,Distractor,0,16,16,16,257.06049460619465,259.0634360402505,right,0,1,0.6069921374623846,B19S05,2022-09-29_09h03.28.866,t1_Paradigm,2021.1.4,60.00752696042224,
T,left,Pretarget,0,17,17,17,260.56049091697105,262.5622745764049,left,1,1,0.5482362784139241,B19S05,2022-09-29_09h03.28.866,t1_Paradigm,2021.1.4,60.00752696042224,
T,right,Target,0,18,18,18,264.0605347064518,266.0606296638605,left,0,1,0.5216616776599494,B19S05,2022-09-29_09h03.28.866,t1_Paradigm,2021.1.4,60.00752696042224,
S,left,Distractor,0,19,19,19,267.56058940320236,269.5619338846209,left,1,1,0.588488916449478,B19S05,2022-09-29_09h03.28.866,t1_Paradigm,2021.1.4,60.00752696042224,
T,left,Lure,0,20,20,20,271.0605921300198,273.0604737540609,left,1,1,0.9299519085636803,B19S05,2022-09-29_09h03.28.866,t1_Paradigm,2021.1.4,60.00752696042224,
J,left,Distractor,0,21,21,21,274.56046942323314,276.565064271088,left,1,1,0.5452832954840687,B19S05,2022-09-29_09h03.28.866,t1_Paradigm,2021.1.4,60.00752696042224,
P,left,Distractor,0,22,22,22,278.0603152778451,280.06045193952104,left,1,1,0.6339972545758883,B19S05,2022-09-29_09h03.28.866,t1_Paradigm,2021.1.4,60.00752696042224,
F,left,Distractor,0,23,23,23,281.5604739144619,283.5618219247033,left,1,1,0.5406095303233087,B19S05,2022-09-29_09h03.28.866,t1_Paradigm,2021.1.4,60.00752696042224,
L,left,Distractor,0,24,24,24,285.0602167916138,287.0624643308213,left,1,1,0.592203804263363,B19S05,2022-09-29_09h03.28.866,t1_Paradigm,2021.1.4,60.00752696042224,
W,left,Pretarget,0,25,25,25,288.5607164408166,290.5625180651657,left,1,1,0.4837271552844413,B19S05,2022-09-29_09h03.28.866,t1_Paradigm,2021.1.4,60.00752696042224,
W,right,Target,0,26,26,26,292.0605754483129,294.0604843405288,right,1,1,0.6820056031288004,B19S05,2022-09-29_09h03.28.866,t1_Paradigm,2021.1.4,60.00752696042224,
V,left,Distractor,0,27,27,27,295.56058330796327,297.56044055104803,left,1,1,0.7661891955790452,B19S05,2022-09-29_09h03.28.866,t1_Paradigm,2021.1.4,60.00752696042224,
W,left,Lure,0,28,28,28,299.0604894733617,301.061672270544,left,1,1,0.5930048469983831,B19S05,2022-09-29_09h03.28.866,t1_Paradigm,2021.1.4,60.00752696042224,
R,left,Pretarget,0,29,29,29,302.56058940320236,304.5627682907698,left,1,1,0.49942464151172317,B19S05,2022-09-29_09h03.28.866,t1_Paradigm,2021.1.4,60.00752696042224,
R,right,Target,0,30,30,30,306.0601609720559,308.06065885684757,right,1,1,0.7460790770651329,B19S05,2022-09-29_09h03.28.866,t1_Paradigm,2021.1.4,60.00752696042224,
G,left,Distractor,0,31,31,31,309.56049091697105,311.5624057844461,left,1,1,0.5558392871521391,B19S05,2022-09-29_09h03.28.866,t1_Paradigm,2021.1.4,60.00752696042224,
R,left,Lure,0,32,32,32,313.06047343325895,315.0626750977724,left,1,1,0.8318313915719955,B19S05,2022-09-29_09h03.28.866,t1_Paradigm,2021.1.4,60.00752696042224,
S,left,Distractor,0,33,33,33,316.56050663627184,318.5617455738138,left,1,1,0.5806761031660699,B19S05,2022-09-29_09h03.28.866,t1_Paradigm,2021.1.4,60.00752696042224,
R,left,Lure,0,34,34,34,320.0604897941637,322.0618647517779,left,1,1,0.5045699856955252,B19S05,2022-09-29_09h03.28.866,t1_Paradigm,2021.1.4,60.00752696042224,
P,left,Pretarget,0,35,35,35,323.5601354682924,325.5616092329399,left,1,1,0.7324796362875077,B19S05,2022-09-29_09h03.28.866,t1_Paradigm,2021.1.4,60.00752696042224,
P,right,Target,0,36,36,36,327.06044391946966,329.06049813501727,right,1,1,0.7697738377582937,B19S05,2022-09-29_09h03.28.866,t1_Paradigm,2021.1.4,60.00752696042224,
Y,left,Pretarget,0,37,37,37,330.56047583927443,332.5617250424823,left,1,1,0.5004855339125243,B19S05,2022-09-29_09h03.28.866,t1_Paradigm,2021.1.4,60.00752696042224,
Y,right,Target,0,38,38,38,334.060484661331,336.06048273651845,left,0,1,0.569789364577673,B19S05,2022-09-29_09h03.28.866,t1_Paradigm,2021.1.4,60.00752696042224,
J,left,Distractor,0,39,39,39,337.5604774432845,339.56169681190136,left,1,1,0.7165919144406416,B19S05,2022-09-29_09h03.28.866,t1_Paradigm,2021.1.4,60.00752696042224,
Y,left,Lure,0,40,40,40,341.0604798493,343.06179962896044,left,1,1,0.6246417042032135,B19S05,2022-09-29_09h03.28.866,t1_Paradigm,2021.1.4,60.00752696042224,
T,left,Distractor,0,41,41,41,344.56049091697105,346.56234515285746,left,1,1,0.6281018751842566,B19S05,2022-09-29_09h03.28.866,t1_Paradigm,2021.1.4,60.00752696042224,
V,left,Distractor,0,42,42,42,348.06016931290947,350.06188977433817,left,1,1,0.6484012669116055,B19S05,2022-09-29_09h03.28.866,t1_Paradigm,2021.1.4,60.00752696042224,
N,left,Pretarget,0,43,43,43,351.56044247586055,353.56283245118107,left,1,1,0.5875380591539852,B19S05,2022-09-29_09h03.28.866,t1_Paradigm,2021.1.4,60.00752696042224,
N,right,Target,0,44,44,44,355.0606216438091,357.0606370423077,right,1,1,0.6257725314521849,B19S05,2022-09-29_09h03.28.866,t1_Paradigm,2021.1.4,60.00752696042224,
N,right,Target,0,45,45,45,358.56058555357754,360.560337252786,right,1,1,0.5178877622677192,B19S05,2022-09-29_09h03.28.866,t1_Paradigm,2021.1.4,60.00752696042224,
X,left,Distractor,0,46,46,46,362.0604955686008,364.0635864964149,left,1,1,0.5987096699684571,B19S05,2022-09-29_09h03.28.866,t1_Paradigm,2021.1.4,60.00752696042224,
Z,left,Distractor,0,47,47,47,365.5604739144619,367.56203333325857,left,1,1,0.5723054151067117,B19S05,2022-09-29_09h03.28.866,t1_Paradigm,2021.1.4,60.00752696042224,
H,left,Pretarget,0,48,48,48,369.0605886011972,371.0731945180062,left,1,1,0.7091281337950477,B19S05,2022-09-29_09h03.28.866,t1_Paradigm,2021.1.4,60.00752696042224,
H,right,Target,0,49,49,49,372.56045177912006,374.5604742352641,right,1,1,0.5820087149086248,B19S05,2022-09-29_09h03.28.866,t1_Paradigm,2021.1.4,60.00752696042224,
K,left,Distractor,0,50,50,50,376.0604881901536,378.06109290202994,left,1,1,0.5691891439300889,B19S05,2022-09-29_09h03.28.866,t1_Paradigm,2021.1.4,60.00752696042224,
V,left,Pretarget,0,51,51,51,379.56047134804544,381.562195017495,left,1,1,0.5881398838118912,B19S05,2022-09-29_09h03.28.866,t1_Paradigm,2021.1.4,60.00752696042224,
V,right,Target,0,52,52,52,383.06060303728964,385.06058571397875,right,1,1,0.5616730725491834,B19S05,2022-09-29_09h03.28.866,t1_Paradigm,2021.1.4,60.00752696042224,
R,left,Distractor,0,53,53,53,386.560286566061,388.56146198479587,left,1,1,0.7409099935293852,B19S05,2022-09-29_09h03.28.866,t1_Paradigm,2021.1.4,60.00752696042224,
V,left,Lure,0,54,54,54,390.0604259545546,392.06223463654896,left,1,1,0.8401998340170849,B19S05,2022-09-29_09h03.28.866,t1_Paradigm,2021.1.4,60.00752696042224,
Y,left,Distractor,0,55,55,55,393.5603305159427,395.5610940248371,left,1,1,0.5573877986787465,B19S05,2022-09-29_09h03.28.866,t1_Paradigm,2021.1.4,60.00752696042224,
Q,left,Distractor,0,56,56,56,397.0604509771149,399.0765751300771,left,1,1,0.48191269885319343,B19S05,2022-09-29_09h03.28.866,t1_Paradigm,2021.1.4,60.00752696042224,
Z,left,Pretarget,0,57,57,57,400.5605268468014,402.5611135937627,left,1,1,0.6453263792002417,B19S05,2022-09-29_09h03.28.866,t1_Paradigm,2021.1.4,60.00752696042224,
Z,right,Target,0,58,58,58,404.06022160364455,406.06020588434376,right,1,1,0.602160537689997,B19S05,2022-09-29_09h03.28.866,t1_Paradigm,2021.1.4,60.00752696042224,
B,left,Distractor,0,59,59,59,407.5604700648373,409.5623496440862,left,1,1,0.5720131644332014,B19S05,2022-09-29_09h03.28.866,t1_Paradigm,2021.1.4,60.00752696042224,
S,left,Pretarget,0,60,60,60,411.0604785660919,413.06213390470316,left,1,1,0.560139959521166,B19S05,2022-09-29_09h03.28.866,t1_Paradigm,2021.1.4,60.00752696042224,
S,right,Target,0,61,61,61,414.56027597959314,416.5605861951817,right,1,1,0.4856808398085377,B19S05,2022-09-29_09h03.28.866,t1_Paradigm,2021.1.4,60.00752696042224,
T,left,Distractor,0,62,62,62,418.06045610994784,420.06188849113005,left,1,1,0.5203733366010965,B19S05,2022-09-29_09h03.28.866,t1_Paradigm,2021.1.4,60.00752696042224,
D,left,Distractor,0,63,63,63,421.5604902753669,423.56182288710943,left,1,1,0.5246133773816837,B19S05,2022-09-29_09h03.28.866,t1_Paradigm,2021.1.4,60.00752696042224,
R,left,Distractor,0,0,0,0,437.11652268535704,439.11229066462806,None,0,1,,B19S05,2022-09-29_09h03.28.866,t1_Paradigm,2021.1.4,60.00752696042224,
V,left,Distractor,0,1,1,1,440.6105309049474,442.6122744641243,left,1,1,0.5143522028031384,B19S05,2022-09-29_09h03.28.866,t1_Paradigm,2021.1.4,60.00752696042224,
N,left,Pretarget,0,2,2,2,444.1100488998575,446.10950289475727,left,1,1,0.5208086649918187,B19S05,2022-09-29_09h03.28.866,t1_Paradigm,2021.1.4,60.00752696042224,
N,right,Target,0,3,3,3,447.6104311355077,449.6105963485668,right,1,1,0.604098823715276,B19S05,2022-09-29_09h03.28.866,t1_Paradigm,2021.1.4,60.00752696042224,
S,left,Distractor,0,4,4,4,451.1103109951375,453.11114508048445,left,1,1,0.5752917614502167,B19S05,2022-09-29_09h03.28.866,t1_Paradigm,2021.1.4,60.00752696042224,
N,left,Lure,0,5,5,5,454.61064414807333,456.61102718572874,left,1,1,0.547471486311224,B19S05,2022-09-29_09h03.28.866,t1_Paradigm,2021.1.4,60.00752696042224,
Z,left,Distractor,0,6,6,6,458.11040017810933,460.11266856945053,left,1,1,0.5016173235676433,B19S05,2022-09-29_09h03.28.866,t1_Paradigm,2021.1.4,60.00752696042224,
L,left,Pretarget,0,7,7,7,461.6105283385309,463.61090496014526,left,1,1,0.5394687582104325,B19S05,2022-09-29_09h03.28.866,t1_Paradigm,2021.1.4,60.00752696042224,
L,right,Target,0,8,8,8,465.11053780219163,467.1104842282482,right,1,1,0.5918640748855069,B19S05,2022-09-29_09h03.28.866,t1_Paradigm,2021.1.4,60.00752696042224,
H,left,Distractor,0,9,9,9,468.61028581217624,470.6110137120422,left,1,1,0.6112786945409425,B19S05,2022-09-29_09h03.28.866,t1_Paradigm,2021.1.4,60.00752696042224,
L,left,Lure,0,10,10,10,472.11045567686506,474.11258580252,left,1,1,0.6139320483500796,B19S05,2022-09-29_09h03.28.866,t1_Paradigm,2021.1.4,60.00752696042224,
X,left,Pretarget,0,11,11,11,475.6104667445361,477.61200434879265,left,1,1,0.7304775106531451,B19S05,2022-09-29_09h03.28.866,t1_Paradigm,2021.1.4,60.00752696042224,
X,right,Target,0,12,12,12,479.11048519065434,481.11021411291654,right,1,1,0.7040931455187547,B19S05,2022-09-29_09h03.28.866,t1_Paradigm,2021.1.4,60.00752696042224,
X,right,Target,0,13,13,13,482.61045615806825,484.6103791655746,right,1,1,0.5000011228071344,B19S05,2022-09-29_09h03.28.866,t1_Paradigm,2021.1.4,60.00752696042224,
R,left,Distractor,0,14,14,14,486.1104819826337,488.11117202785726,left,1,1,0.4551953411842078,B19S05,2022-09-29_09h03.28.866,t1_Paradigm,2021.1.4,60.00752696042224,
T,left,Distractor,0,15,15,15,489.6104997871478,491.61235273982606,left,1,1,0.7461862249519982,B19S05,2022-09-29_09h03.28.866,t1_Paradigm,2021.1.4,60.00752696042224,
V,left,Pretarget,0,16,16,16,493.1105381229936,495.11098082983153,left,1,1,1.4074401054542705,B19S05,2022-09-29_09h03.28.866,t1_Paradigm,2021.1.4,60.00752696042224,
V,right,Target,0,17,17,17,496.61031275954883,498.6103425941401,right,1,1,0.6760325896393624,B19S05,2022-09-29_09h03.28.866,t1_Paradigm,2021.1.4,60.00752696042224,
N,left,Distractor,0,18,18,18,500.10980573189863,502.1109121781915,left,1,1,0.6636826728713459,B19S05,2022-09-29_09h03.28.866,t1_Paradigm,2021.1.4,60.00752696042224,
B,left,Distractor,0,19,19,19,503.61043434352837,505.6111943236001,left,1,1,0.5231768257726799,B19S05,2022-09-29_09h03.28.866,t1_Paradigm,2021.1.4,60.00752696042224,
V,left,Lure,0,20,20,20,507.110255817184,509.1121928200009,left,1,1,0.7820842958733465,B19S05,2022-09-29_09h03.28.866,t1_Paradigm,2021.1.4,60.00752696042224,
P,left,Distractor,0,21,21,21,510.61050042875195,512.6111866243507,left,1,1,0.6115950053685992,B19S05,2022-09-29_09h03.28.866,t1_Paradigm,2021.1.4,60.00752696042224,
K,left,Pretarget,0,22,22,22,514.1104316167109,516.1123288400729,left,1,1,0.5019621857784387,B19S05,2022-09-29_09h03.28.866,t1_Paradigm,2021.1.4,60.00752696042224,
K,right,Target,0,23,23,23,517.6104818222327,519.6101995164229,right,1,1,0.5721341068083348,B19S05,2022-09-29_09h03.28.866,t1_Paradigm,2021.1.4,60.00752696042224,
J,left,Pretarget,0,24,24,24,521.1105634663561,523.1120166996718,left,1,1,0.6863839095954063,B19S05,2022-09-29_09h03.28.866,t1_Paradigm,2021.1.4,60.00752696042224,
J,right,Target,0,25,25,25,524.6104231154563,526.6104317771119,right,1,1,0.6278551784027968,B19S05,2022-09-29_09h03.28.866,t1_Paradigm,2021.1.4,60.00752696042224,
H,left,Distractor,0,26,26,26,528.1105451806388,530.1231555886766,right,0,1,0.6193879289241977,B19S05,2022-09-29_09h03.28.866,t1_Paradigm,2021.1.4,60.00752696042224,
J,left,Lure,0,27,27,27,531.6104243986645,533.6111744338725,left,1,1,0.6031672145429638,B19S05,2022-09-29_09h03.28.866,t1_Paradigm,2021.1.4,60.00752696042224,
V,left,Distractor,0,28,28,28,535.1102984838574,537.1109792258212,left,1,1,0.5594277789557509,B19S05,2022-09-29_09h03.28.866,t1_Paradigm,2021.1.4,60.00752696042224,
Z,left,Pretarget,0,29,29,29,538.610636128022,540.6110467546541,left,1,1,0.5474862432058671,B19S05,2022-09-29_09h03.28.866,t1_Paradigm,2021.1.4,60.00752696042224,
Z,right,Target,0,30,30,30,542.1104104437752,544.1103392257187,right,1,1,0.5839129959158527,B19S05,2022-09-29_09h03.28.866,t1_Paradigm,2021.1.4,60.00752696042224,
T,left,Distractor,0,31,31,31,545.6102521279602,547.6109851606593,left,1,1,0.6673468739604687,B19S05,2022-09-29_09h03.28.866,t1_Paradigm,2021.1.4,60.00752696042224,
Z,left,Lure,0,32,32,32,549.1104912858934,551.1109301431065,left,1,1,0.6555211477527791,B19S05,2022-09-29_09h03.28.866,t1_Paradigm,2021.1.4,60.00752696042224,
F,left,Distractor,0,33,33,33,552.6104022633226,554.6106726994562,left,1,1,0.5159754612091092,B19S05,2022-09-29_09h03.28.866,t1_Paradigm,2021.1.4,60.00752696042224,
Y,left,Pretarget,0,34,34,34,556.1105034763716,558.1110273461297,left,1,1,0.47130345404343643,B19S05,2022-09-29_09h03.28.866,t1_Paradigm,2021.1.4,60.00752696042224,
Y,right,Target,0,35,35,35,559.6102367294616,561.6103066643097,right,1,1,0.7641533857288323,B19S05,2022-09-29_09h03.28.866,t1_Paradigm,2021.1.4,60.00752696042224,
Y,right,Target,0,36,36,36,563.1104566392712,565.1104450903972,right,1,1,0.4800254203548775,B19S05,2022-09-29_09h03.28.866,t1_Paradigm,2021.1.4,60.00752696042224,
W,left,Distractor,0,37,37,37,566.6099868246595,568.6128483790033,left,1,1,0.48136765615936383,B19S05,2022-09-29_09h03.28.866,t1_Paradigm,2021.1.4,60.00752696042224,
Q,left,Distractor,0,38,38,38,570.1104476568137,572.1231167716278,left,1,1,0.5231854874282362,B19S05,2022-09-29_09h03.28.866,t1_Paradigm,2021.1.4,60.00752696042224,
P,left,Pretarget,0,39,39,39,573.6104863134615,575.6116700730499,left,1,1,0.5547722995122513,B19S05,2022-09-29_09h03.28.866,t1_Paradigm,2021.1.4,60.00752696042224,
P,right,Target,0,40,40,40,577.1101958271993,579.1104550352609,right,1,1,0.5441806988160351,B19S05,2022-09-29_09h03.28.866,t1_Paradigm,2021.1.4,60.00752696042224,
J,left,Distractor,0,41,41,41,580.610545982644,582.6110586243303,left,1,1,0.45121322525733376,B19S05,2022-09-29_09h03.28.866,t1_Paradigm,2021.1.4,60.00752696042224,
P,left,Lure,0,42,42,42,584.1104309751067,586.1232171826714,left,1,1,0.5071120211910056,B19S05,2022-09-29_09h03.28.866,t1_Paradigm,2021.1.4,60.00752696042224,
L,left,Distractor,0,43,43,43,587.6105366793843,589.612585642119,left,1,1,0.44209506840638824,B19S05,2022-09-29_09h03.28.866,t1_Paradigm,2021.1.4,60.00752696042224,
Z,left,Distractor,0,44,44,44,591.110552559086,593.111381190798,left,1,1,0.46308803417946365,B19S05,2022-09-29_09h03.28.866,t1_Paradigm,2021.1.4,60.00752696042224,
F,left,Pretarget,0,45,45,45,594.6104898422841,596.6106986844229,left,1,1,0.4675535988055799,B19S05,2022-09-29_09h03.28.866,t1_Paradigm,2021.1.4,60.00752696042224,
F,right,Target,0,46,46,46,598.1105583335232,600.110557050315,right,1,1,0.5197445645706011,B19S05,2022-09-29_09h03.28.866,t1_Paradigm,2021.1.4,60.00752696042224,
G,left,Pretarget,0,47,47,47,601.6104879174718,603.6113537622223,left,1,1,0.47507865264401516,B19S05,2022-09-29_09h03.28.866,t1_Paradigm,2021.1.4,60.00752696042224,
G,right,Target,0,48,48,48,605.1106439876721,607.1102500427469,right,1,1,0.6720985940207811,B19S05,2022-09-29_09h03.28.866,t1_Paradigm,2021.1.4,60.00752696042224,
V,left,Distractor,0,49,49,49,608.6103012106748,610.6119414715897,left,1,1,0.48232749591238644,B19S05,2022-09-29_09h03.28.866,t1_Paradigm,2021.1.4,60.00752696042224,
G,left,Lure,0,50,50,50,612.110375797153,614.1123041383144,left,1,1,0.8061431669000285,B19S05,2022-09-29_09h03.28.866,t1_Paradigm,2021.1.4,60.00752696042224,
Q,left,Pretarget,0,51,51,51,615.6103955264796,617.6121702034559,left,1,1,0.586192294527109,B19S05,2022-09-29_09h03.28.866,t1_Paradigm,2021.1.4,60.00752696042224,
Q,right,Target,0,52,52,52,619.1104566392712,621.1105323485565,right,1,1,0.5918826814047407,B19S05,2022-09-29_09h03.28.866,t1_Paradigm,2021.1.4,60.00752696042224,
Y,left,Distractor,0,53,53,53,622.6104879174718,624.6113604990653,left,1,1,0.5153598420627077,B19S05,2022-09-29_09h03.28.866,t1_Paradigm,2021.1.4,60.00752696042224,
V,left,Distractor,0,54,54,54,626.11052978214,628.1114065341606,left,1,1,0.5991081061226851,B19S05,2022-09-29_09h03.28.866,t1_Paradigm,2021.1.4,60.00752696042224,
B,left,Distractor,0,55,55,55,629.6104436467879,631.6123524190239,left,1,1,0.5060893042348198,B19S05,2022-09-29_09h03.28.866,t1_Paradigm,2021.1.4,60.00752696042224,
J,left,Pretarget,0,56,56,56,633.1105365189833,635.1114293111066,left,1,1,0.5109000518737048,B19S05,2022-09-29_09h03.28.866,t1_Paradigm,2021.1.4,60.00752696042224,
J,right,Target,0,57,57,57,636.6104741229833,638.610631315991,right,1,1,0.5160261479340988,B19S05,2022-09-29_09h03.28.866,t1_Paradigm,2021.1.4,60.00752696042224,
H,left,Distractor,0,58,58,58,640.1103940828702,642.1113786243816,left,1,1,0.45500157674223374,B19S05,2022-09-29_09h03.28.866,t1_Paradigm,2021.1.4,60.00752696042224,
J,left,Lure,0,59,59,59,643.6104754061917,645.6125484290806,left,1,1,0.8098253329044383,B19S05,2022-09-29_09h03.28.866,t1_Paradigm,2021.1.4,60.00752696042224,
D,left,Pretarget,0,60,60,60,647.1105005891529,649.1122438275279,left,1,1,0.8463034139433603,B19S05,2022-09-29_09h03.28.866,t1_Paradigm,2021.1.4,60.00752696042224,
D,right,Target,0,61,61,61,650.6103733911375,652.6105360377803,right,1,1,0.5963299603135965,B19S05,2022-09-29_09h03.28.866,t1_Paradigm,2021.1.4,60.00752696042224,
R,left,Distractor,0,62,62,62,654.1104226342532,656.1105320277545,left,1,1,0.5040371334796419,B19S05,2022-09-29_09h03.28.866,t1_Paradigm,2021.1.4,60.00752696042224,
F,left,Distractor,0,63,63,63,657.6104930503047,659.6119459628185,left,1,1,0.6024171793351343,B19S05,2022-09-29_09h03.28.866,t1_Paradigm,2021.1.4,60.00752696042224,
F,left,Distractor,0,0,0,0,761.3882003229191,763.3769420955496,None,0,2,,B19S05,2022-09-29_09h03.28.866,t1_Paradigm,2021.1.4,60.00752696042224,
N,left,Pretarget,0,1,1,1,764.8769509176063,766.8787932838163,None,0,2,,B19S05,2022-09-29_09h03.28.866,t1_Paradigm,2021.1.4,60.00752696042224,
V,left,Distractor,0,2,2,2,768.3772167021098,770.379051048269,left,1,2,0.6832580143573068,B19S05,2022-09-29_09h03.28.866,t1_Paradigm,2021.1.4,60.00752696042224,
N,right,Target,0,3,3,3,771.8771681005983,773.8791740758575,right,1,2,0.8793874092248188,B19S05,2022-09-29_09h03.28.866,t1_Paradigm,2021.1.4,60.00752696042224,
N,left,Lure,0,4,4,4,775.3771451632515,777.3773424565161,left,1,2,0.7890501917272559,B19S05,2022-09-29_09h03.28.866,t1_Paradigm,2021.1.4,60.00752696042224,
X,left,Distractor,0,5,5,5,778.8771132434467,780.8780775744285,left,1,2,0.9043172578353733,B19S05,2022-09-29_09h03.28.866,t1_Paradigm,2021.1.4,60.00752696042224,
G,left,Pretarget,0,6,6,6,782.3770094639813,784.3792833089578,left,1,2,0.6350135554907865,B19S05,2022-09-29_09h03.28.866,t1_Paradigm,2021.1.4,60.00752696042224,
H,left,Pretarget,0,7,7,7,785.876898947673,787.8773698850919,left,1,2,0.5449904032061568,B19S05,2022-09-29_09h03.28.866,t1_Paradigm,2021.1.4,60.00752696042224,
G,right,Target,0,8,8,8,789.3772292133904,791.3785759404232,right,1,2,0.5959405066173531,B19S05,2022-09-29_09h03.28.866,t1_Paradigm,2021.1.4,60.00752696042224,
H,right,Target,0,9,9,9,792.8770872584801,794.8771421156316,right,1,2,0.6654137207679014,B19S05,2022-09-29_09h03.28.866,t1_Paradigm,2021.1.4,60.00752696042224,
T,left,Pretarget,0,10,10,10,796.3769626268813,798.3793330332765,left,1,2,0.49117425422355154,B19S05,2022-09-29_09h03.28.866,t1_Paradigm,2021.1.4,60.00752696042224,
K,left,Distractor,0,11,11,11,799.8771501356832,801.8783602010403,left,1,2,0.6720645890027299,B19S05,2022-09-29_09h03.28.866,t1_Paradigm,2021.1.4,60.00752696042224,
T,right,Target,0,12,12,12,803.3770774740174,805.3773010730506,right,1,2,0.949181746234899,B19S05,2022-09-29_09h03.28.866,t1_Paradigm,2021.1.4,60.00752696042224,
T,left,Lure,0,13,13,13,806.8771023361769,808.8770782760225,left,1,2,0.9692713334170548,B19S05,2022-09-29_09h03.28.866,t1_Paradigm,2021.1.4,60.00752696042224,
J,left,Distractor,0,14,14,14,810.3770036895444,812.3898162028777,left,1,2,0.8324851861630123,B19S05,2022-09-29_09h03.28.866,t1_Paradigm,2021.1.4,60.00752696042224,
Q,left,Pretarget,0,15,15,15,813.8771049025931,815.878842366531,left,1,2,0.6715975012084527,B19S05,2022-09-29_09h03.28.866,t1_Paradigm,2021.1.4,60.00752696042224,
M,left,Distractor,0,16,16,16,817.3771525416987,819.3812642616563,left,1,2,0.6093487493690191,B19S05,2022-09-29_09h03.28.866,t1_Paradigm,2021.1.4,60.00752696042224,
Q,right,Target,0,17,17,17,820.8770574238888,822.877354486593,right,1,2,0.6971689539318504,B19S05,2022-09-29_09h03.28.866,t1_Paradigm,2021.1.4,60.00752696042224,
R,left,Distractor,0,18,18,18,824.376790997781,826.3780706771845,left,1,2,0.7322954959067829,B19S05,2022-09-29_09h03.28.866,t1_Paradigm,2021.1.4,60.00752696042224,
W,left,Distractor,0,19,19,19,827.8770843712618,829.879030677338,left,1,2,0.863397351522508,B19S05,2022-09-29_09h03.28.866,t1_Paradigm,2021.1.4,60.00752696042224,
C,left,Pretarget,0,20,20,20,831.3768554789945,833.3792124117031,left,1,2,0.8351741490000677,B19S05,2022-09-29_09h03.28.866,t1_Paradigm,2021.1.4,60.00752696042224,
T,left,Distractor,0,21,21,21,834.8769852434261,836.8786986472096,left,1,2,0.7119049963957877,B19S05,2022-09-29_09h03.28.866,t1_Paradigm,2021.1.4,60.00752696042224,
C,right,Target,0,22,22,22,838.3769809125984,840.3789605820889,right,1,2,0.6833250619870341,B19S05,2022-09-29_09h03.28.866,t1_Paradigm,2021.1.4,60.00752696042224,
F,left,Pretarget,0,23,23,23,841.8768970228607,843.8788157399604,left,1,2,0.623674486002983,B19S05,2022-09-29_09h03.28.866,t1_Paradigm,2021.1.4,60.00752696042224,
C,right,Target,0,24,24,24,845.3769895742539,847.3778159603517,left,0,2,0.6925622364010451,B19S05,2022-09-29_09h03.28.866,t1_Paradigm,2021.1.4,60.00752696042224,
F,right,Target,0,25,25,25,848.8770622359198,850.877967860125,right,1,2,0.6326630388230114,B19S05,2022-09-29_09h03.28.866,t1_Paradigm,2021.1.4,60.00752696042224,
H,left,Distractor,0,26,26,26,852.3771371431999,854.3771057045983,left,1,2,0.6052431246503147,B19S05,2022-09-29_09h03.28.866,t1_Paradigm,2021.1.4,60.00752696042224,
H,left,Lure,0,27,27,27,855.8768290128246,857.8771106770305,left,1,2,0.9934075177397972,B19S05,2022-09-29_09h03.28.866,t1_Paradigm,2021.1.4,60.00752696042224,
P,left,Distractor,0,28,28,28,859.3770983261511,861.37742105302,left,1,2,0.5168150001909453,B19S05,2022-09-29_09h03.28.866,t1_Paradigm,2021.1.4,60.00752696042224,
G,left,Pretarget,0,29,29,29,862.8771873487217,864.8782585067884,left,1,2,0.5840073117205975,B19S05,2022-09-29_09h03.28.866,t1_Paradigm,2021.1.4,60.00752696042224,
K,left,Distractor,0,30,30,30,866.3771519000948,868.3792002212249,left,1,2,0.5552271968285822,B19S05,2022-09-29_09h03.28.866,t1_Paradigm,2021.1.4,60.00752696042224,
G,right,Target,0,31,31,31,869.8770933537194,871.8777590179866,right,1,2,0.41644790639747953,B19S05,2022-09-29_09h03.28.866,t1_Paradigm,2021.1.4,60.00752696042224,
M,left,Pretarget,0,32,32,32,873.3770373737602,875.3787764417084,left,1,2,0.6595712737157555,B19S05,2022-09-29_09h03.28.866,t1_Paradigm,2021.1.4,60.00752696042224,
B,left,Distractor,0,33,33,33,876.8770949577297,878.8780281709119,left,1,2,0.744371126916576,B19S05,2022-09-29_09h03.28.866,t1_Paradigm,2021.1.4,60.00752696042224,
M,right,Target,0,34,34,34,880.3772288925879,882.3765478298224,right,1,2,0.7018058268563436,B19S05,2022-09-29_09h03.28.866,t1_Paradigm,2021.1.4,60.00752696042224,
M,left,Lure,0,35,35,35,883.8769509176063,885.8771446820483,left,1,2,0.6093702431071506,B19S05,2022-09-29_09h03.28.866,t1_Paradigm,2021.1.4,60.00752696042224,
T,left,Distractor,0,36,36,36,887.3771243111178,889.3789586572766,left,1,2,0.7075456172506165,B19S05,2022-09-29_09h03.28.866,t1_Paradigm,2021.1.4,60.00752696042224,
F,left,Distractor,0,37,37,37,890.8771972935856,892.8779505368143,left,1,2,0.7125308812078401,B19S05,2022-09-29_09h03.28.866,t1_Paradigm,2021.1.4,60.00752696042224,
X,left,Distractor,0,38,38,38,894.376988611848,896.3778913488345,left,1,2,0.6844109769481292,B19S05,2022-09-29_09h03.28.866,t1_Paradigm,2021.1.4,60.00752696042224,
C,left,Distractor,0,39,39,39,897.8769207622126,899.8797598604128,left,1,2,0.9749976501248057,B19S05,2022-09-29_09h03.28.866,t1_Paradigm,2021.1.4,60.00752696042224,
R,left,Distractor,0,40,40,40,901.3770912685059,903.3776112886394,left,1,2,0.5649086820903904,B19S05,2022-09-29_09h03.28.866,t1_Paradigm,2021.1.4,60.00752696042224,
B,left,Pretarget,0,41,41,41,904.8771796494725,906.8784673489272,left,1,2,0.7280297909619549,B19S05,2022-09-29_09h03.28.866,t1_Paradigm,2021.1.4,60.00752696042224,
H,left,Distractor,0,42,42,42,908.3769947070869,910.377665824989,left,1,2,0.8446698898715113,B19S05,2022-09-29_09h03.28.866,t1_Paradigm,2021.1.4,60.00752696042224,
B,right,Target,0,43,43,43,911.8768976644647,913.877677534264,right,1,2,0.577049115115642,B19S05,2022-09-29_09h03.28.866,t1_Paradigm,2021.1.4,60.00752696042224,
W,left,Pretarget,0,44,44,44,915.3770864564749,917.3772045116316,left,1,2,0.6932657553106765,B19S05,2022-09-29_09h03.28.866,t1_Paradigm,2021.1.4,60.00752696042224,
L,left,Pretarget,0,45,45,45,918.8770721807837,920.8782373338527,left,1,2,0.5201471711516206,B19S05,2022-09-29_09h03.28.866,t1_Paradigm,2021.1.4,60.00752696042224,
W,right,Target,0,46,46,46,922.377085814871,924.3778467573488,right,1,2,0.7807394936521632,B19S05,2022-09-29_09h03.28.866,t1_Paradigm,2021.1.4,60.00752696042224,
L,right,Target,0,47,47,47,925.8772133336884,927.8784959003101,right,1,2,0.5920209470909867,B19S05,2022-09-29_09h03.28.866,t1_Paradigm,2021.1.4,60.00752696042224,
W,right,Target,0,48,48,48,929.377011709596,931.3776536345108,right,1,2,0.628820471790732,B19S05,2022-09-29_09h03.28.866,t1_Paradigm,2021.1.4,60.00752696042224,
X,left,Distractor,0,49,49,49,932.8938138777044,934.879454136053,left,1,2,0.5508851409940689,B19S05,2022-09-29_09h03.28.866,t1_Paradigm,2021.1.4,60.00752696042224,
R,left,Distractor,0,50,50,50,936.3772032284237,938.3786487624902,left,1,2,0.4442733143696387,B19S05,2022-09-29_09h03.28.866,t1_Paradigm,2021.1.4,60.00752696042224,
V,left,Pretarget,0,51,51,51,939.8771263963313,941.8775434390045,left,1,2,0.6728980327452518,B19S05,2022-09-29_09h03.28.866,t1_Paradigm,2021.1.4,60.00752696042224,
Z,left,Distractor,0,52,52,52,943.3771121206396,945.3772908073852,left,1,2,0.5170106894452147,B19S05,2022-09-29_09h03.28.866,t1_Paradigm,2021.1.4,60.00752696042224,
V,right,Target,0,53,53,53,946.8772588875804,948.8775694239712,right,1,2,0.6809966806608827,B19S05,2022-09-29_09h03.28.866,t1_Paradigm,2021.1.4,60.00752696042224,
V,left,Lure,0,54,54,54,950.3771807722796,952.3771929627578,left,1,2,0.5732286834249862,B19S05,2022-09-29_09h03.28.866,t1_Paradigm,2021.1.4,60.00752696042224,
N,left,Distractor,0,55,55,55,953.8769197998067,955.877211729678,left,1,2,1.0093116004909461,B19S05,2022-09-29_09h03.28.866,t1_Paradigm,2021.1.4,60.00752696042224,
B,left,Distractor,0,56,56,56,957.3772019452153,959.3772628976062,left,1,2,0.8051663246383214,B19S05,2022-09-29_09h03.28.866,t1_Paradigm,2021.1.4,60.00752696042224,
V,left,Lure,0,57,57,57,960.877074105596,962.877244451488,left,1,2,0.8896078419420519,B19S05,2022-09-29_09h03.28.866,t1_Paradigm,2021.1.4,60.00752696042224,
J,left,Distractor,0,58,58,58,964.3771005717654,966.3784104065621,left,1,2,0.6039358562702546,B19S05,2022-09-29_09h03.28.866,t1_Paradigm,2021.1.4,60.00752696042224,
H,left,Distractor,0,59,59,59,967.8768668674675,969.8775334941406,left,1,2,0.6090401377905437,B19S05,2022-09-29_09h03.28.866,t1_Paradigm,2021.1.4,60.00752696042224,
X,left,Pretarget,0,60,60,60,971.377103458984,973.3771794890713,left,1,2,0.6774049808368545,B19S05,2022-09-29_09h03.28.866,t1_Paradigm,2021.1.4,60.00752696042224,
P,left,Distractor,0,61,61,61,974.8769813938015,976.878399980495,left,1,2,0.6641606679354481,B19S05,2022-09-29_09h03.28.866,t1_Paradigm,2021.1.4,60.00752696042224,
X,right,Target,0,62,62,62,978.3771464464594,980.3789868878575,left,0,2,0.5555050114094229,B19S05,2022-09-29_09h03.28.866,t1_Paradigm,2021.1.4,60.00752696042224,
Q,left,Distractor,0,63,63,63,981.8772694740483,983.8786290331636,left,1,2,0.895978649981771,B19S05,2022-09-29_09h03.28.866,t1_Paradigm,2021.1.4,60.00752696042224,
B,left,Pretarget,0,0,0,0,994.8858063375728,996.8789694041457,None,0,2,,B19S05,2022-09-29_09h03.28.866,t1_Paradigm,2021.1.4,60.00752696042224,
F,left,Distractor,0,1,1,1,998.3768686318786,1000.3778246220068,None,0,2,,B19S05,2022-09-29_09h03.28.866,t1_Paradigm,2021.1.4,60.00752696042224,
B,right,Target,0,2,2,2,1001.8771591181408,1003.877239318655,right,1,2,0.8171444318227259,B19S05,2022-09-29_09h03.28.866,t1_Paradigm,2021.1.4,60.00752696042224,
V,left,Distractor,0,3,3,3,1005.3772728424697,1007.3771467672618,left,1,2,0.7732943195260304,B19S05,2022-09-29_09h03.28.866,t1_Paradigm,2021.1.4,60.00752696042224,
G,left,Pretarget,0,4,4,4,1008.8769197998067,1010.8771960103772,left,1,2,0.6495003347567945,B19S05,2022-09-29_09h03.28.866,t1_Paradigm,2021.1.4,60.00752696042224,
B,left,Lure,0,5,5,5,1012.37714965448,1014.3768885216064,left,1,2,0.9899325898641109,B19S05,2022-09-29_09h03.28.866,t1_Paradigm,2021.1.4,60.00752696042224,
G,right,Target,0,6,6,6,1015.8766650829739,1017.8777368826445,right,1,2,0.48082068865278416,B19S05,2022-09-29_09h03.28.866,t1_Paradigm,2021.1.4,60.00752696042224,
Y,left,Pretarget,0,7,7,7,1019.3771156494622,1021.3773591382233,left,1,2,0.5650950680856113,B19S05,2022-09-29_09h03.28.866,t1_Paradigm,2021.1.4,60.00752696042224,
P,left,Distractor,0,8,8,8,1022.8771437196419,1024.879694737595,left,1,2,0.7587318309742841,B19S05,2022-09-29_09h03.28.866,t1_Paradigm,2021.1.4,60.00752696042224,
Y,right,Target,0,9,9,9,1026.3771166118681,1028.376381975159,right,1,2,0.70192965644992,B19S05,2022-09-29_09h03.28.866,t1_Paradigm,2021.1.4,60.00752696042224,
X,left,Distractor,0,10,10,10,1029.8769525216167,1031.8795192588705,left,1,2,0.6070444281976961,B19S05,2022-09-29_09h03.28.866,t1_Paradigm,2021.1.4,60.00752696042224,
Y,right,Target,0,11,11,11,1033.3772484615138,1035.377767198439,right,1,2,0.6287749178986815,B19S05,2022-09-29_09h03.28.866,t1_Paradigm,2021.1.4,60.00752696042224,
N,left,Distractor,0,12,12,12,1036.8769143461718,1038.8790133540274,left,1,2,0.51938494546539,B19S05,2022-09-29_09h03.28.866,t1_Paradigm,2021.1.4,60.00752696042224,
Y,right,Target,0,13,13,13,1040.376994065483,1042.3900722029189,right,1,2,0.5923497691987905,B19S05,2022-09-29_09h03.28.866,t1_Paradigm,2021.1.4,60.00752696042224,
Y,left,Lure,0,14,14,14,1043.8771523812975,1045.876926215848,left,1,2,0.8656811413620744,B19S05,2022-09-29_09h03.28.866,t1_Paradigm,2021.1.4,60.00752696042224,
K,left,Distractor,0,15,15,15,1047.3772160605058,1049.3793128227471,left,1,2,0.5632802908521626,B19S05,2022-09-29_09h03.28.866,t1_Paradigm,2021.1.4,60.00752696042224,
T,left,Pretarget,0,16,16,16,1050.8770487622332,1052.877763830017,left,1,2,0.632958497517393,B19S05,2022-09-29_09h03.28.866,t1_Paradigm,2021.1.4,60.00752696042224,
J,left,Distractor,0,17,17,17,1054.3771130830455,1056.3765965917346,left,1,2,0.5258308211859912,B19S05,2022-09-29_09h03.28.866,t1_Paradigm,2021.1.4,60.00752696042224,
T,right,Target,0,18,18,18,1057.876875849925,1059.8771786870661,right,1,2,0.8011973615957686,B19S05,2022-09-29_09h03.28.866,t1_Paradigm,2021.1.4,60.00752696042224,
S,left,Pretarget,0,19,19,19,1061.3770915893078,1063.3788373940993,left,1,2,0.6276681508043112,B19S05,2022-09-29_09h03.28.866,t1_Paradigm,2021.1.4,60.00752696042224,
R,left,Distractor,0,20,20,20,1064.8769852434261,1066.8780929729273,left,1,2,1.0804914815826123,B19S05,2022-09-29_09h03.28.866,t1_Paradigm,2021.1.4,60.00752696042224,
S,right,Target,0,21,21,21,1068.3771307271586,1070.3777463463052,right,1,2,0.508812913694328,B19S05,2022-09-29_09h03.28.866,t1_Paradigm,2021.1.4,60.00752696042224,
Q,left,Distractor,0,22,22,22,1071.877171629421,1073.878795529431,left,1,2,0.5759866187045191,B19S05,2022-09-29_09h03.28.866,t1_Paradigm,2021.1.4,60.00752696042224,
D,left,Distractor,0,23,23,23,1075.3772430078784,1077.3771974539864,left,1,2,0.7092837227924065,B19S05,2022-09-29_09h03.28.866,t1_Paradigm,2021.1.4,60.00752696042224,
F,left,Distractor,0,24,24,24,1078.877143078038,1080.877268511642,left,1,2,0.6170925902101771,B19S05,2022-09-29_09h03.28.866,t1_Paradigm,2021.1.4,60.00752696042224,
Z,left,Distractor,0,25,25,25,1082.3767775240945,1084.3779497348091,left,1,2,0.6844773829739097,B19S05,2022-09-29_09h03.28.866,t1_Paradigm,2021.1.4,60.00752696042224,
P,left,Distractor,0,26,26,26,1085.8771562309225,1087.877046837421,left,1,2,0.7213731482902404,B19S05,2022-09-29_09h03.28.866,t1_Paradigm,2021.1.4,60.00752696042224,
H,left,Distractor,0,27,27,27,1089.3770922309122,1091.3766421456266,left,1,2,0.6299654143303997,B19S05,2022-09-29_09h03.28.866,t1_Paradigm,2021.1.4,60.00752696042224,
Z,left,Pretarget,0,28,28,28,1092.8771135642487,1094.877773454079,left,1,2,0.8087740645655686,B19S05,2022-09-29_09h03.28.866,t1_Paradigm,2021.1.4,60.00752696042224,
J,left,Pretarget,0,29,29,29,1096.377222797349,1098.379715108526,left,1,2,0.5388027731414695,B19S05,2022-09-29_09h03.28.866,t1_Paradigm,2021.1.4,60.00752696042224,
Z,right,Target,0,30,30,30,1099.8771774038582,1101.8786652837957,right,1,2,0.591729658823624,B19S05,2022-09-29_09h03.28.866,t1_Paradigm,2021.1.4,60.00752696042224,
J,right,Target,0,31,31,31,1103.376837193277,1105.3776828274981,right,1,2,0.7568554597460206,B19S05,2022-09-29_09h03.28.866,t1_Paradigm,2021.1.4,60.00752696042224,
V,left,Pretarget,0,32,32,32,1106.87691723339,1108.8782350882384,left,1,2,0.6325087330337738,B19S05,2022-09-29_09h03.28.866,t1_Paradigm,2021.1.4,60.00752696042224,
Z,left,Lure,0,33,33,33,1110.377132331169,1112.377954867642,left,1,2,1.1806654525380509,B19S05,2022-09-29_09h03.28.866,t1_Paradigm,2021.1.4,60.00752696042224,
V,right,Target,0,34,34,34,1113.8770048123515,1115.8788542362072,right,1,2,0.8797303466230915,B19S05,2022-09-29_09h03.28.866,t1_Paradigm,2021.1.4,60.00752696042224,
X,left,Distractor,0,35,35,35,1117.377154145709,1119.37733058684,left,1,2,0.5493398374883327,B19S05,2022-09-29_09h03.28.866,t1_Paradigm,2021.1.4,60.00752696042224,
S,left,Distractor,0,36,36,36,1120.8772229577498,1122.8774622760843,left,1,2,0.5529347453325499,B19S05,2022-09-29_09h03.28.866,t1_Paradigm,2021.1.4,60.00752696042224,
Q,left,Distractor,0,37,37,37,1124.3770996093594,1126.3780411633952,left,1,2,0.6683096009319343,B19S05,2022-09-29_09h03.28.866,t1_Paradigm,2021.1.4,60.00752696042224,
P,left,Distractor,0,38,38,38,1127.8772300153955,1129.878357955426,left,1,2,0.7680107096557549,B19S05,2022-09-29_09h03.28.866,t1_Paradigm,2021.1.4,60.00752696042224,
S,left,Lure,0,39,39,39,1131.376831739642,1133.379263098428,left,1,2,0.6431721933909103,B19S05,2022-09-29_09h03.28.866,t1_Paradigm,2021.1.4,60.00752696042224,
K,left,Pretarget,0,40,40,40,1134.8768678298734,1136.8790611535337,left,1,2,0.679549542584482,B19S05,2022-09-29_09h03.28.866,t1_Paradigm,2021.1.4,60.00752696042224,
L,left,Distractor,0,41,41,41,1138.3769735341511,1140.379006456783,left,1,2,0.8912561229080893,B19S05,2022-09-29_09h03.28.866,t1_Paradigm,2021.1.4,60.00752696042224,
K,right,Target,0,42,42,42,1141.877114847457,1143.8795574343148,right,1,2,0.6390085035000084,B19S05,2022-09-29_09h03.28.866,t1_Paradigm,2021.1.4,60.00752696042224,
B,left,Distractor,0,43,43,43,1145.377154145709,1147.378898667292,left,1,2,0.5956697496812922,B19S05,2022-09-29_09h03.28.866,t1_Paradigm,2021.1.4,60.00752696042224,
N,left,Distractor,0,44,44,44,1148.877124792321,1150.8778876596111,left,1,2,0.6004936502044984,B19S05,2022-09-29_09h03.28.866,t1_Paradigm,2021.1.4,60.00752696042224,
S,left,Pretarget,0,45,45,45,1152.377108912619,1154.3771849427062,left,1,2,0.6532293378613758,B19S05,2022-09-29_09h03.28.866,t1_Paradigm,2021.1.4,60.00752696042224,
Z,left,Distractor,0,46,46,46,1155.877323368794,1157.8791179354976,left,1,2,0.687223127775269,B19S05,2022-09-29_09h03.28.866,t1_Paradigm,2021.1.4,60.00752696042224,
S,right,Target,0,47,47,47,1159.3771416344289,1161.3792130533075,right,1,2,0.6591908024770419,B19S05,2022-09-29_09h03.28.866,t1_Paradigm,2021.1.4,60.00752696042224,
C,left,Distractor,0,48,48,48,1162.8772242409582,1164.877990637071,left,1,2,0.4725500908352842,B19S05,2022-09-29_09h03.28.866,t1_Paradigm,2021.1.4,60.00752696042224,
T,left,Pretarget,0,49,49,49,1166.37693279229,1168.3776311783668,left,1,2,0.5248568661422723,B19S05,2022-09-29_09h03.28.866,t1_Paradigm,2021.1.4,60.00752696042224,
S,left,Lure,0,50,50,50,1169.8771494940793,1171.8772790981097,left,1,2,0.6091302831687244,B19S05,2022-09-29_09h03.28.866,t1_Paradigm,2021.1.4,60.00752696042224,
T,right,Target,0,51,51,51,1173.3771198198888,1175.3789766221917,right,1,2,0.46741725793162914,B19S05,2022-09-29_09h03.28.866,t1_Paradigm,2021.1.4,60.00752696042224,
N,left,Pretarget,0,52,52,52,1176.8772511883312,1178.8785773840323,left,1,2,0.5997779408166934,B19S05,2022-09-29_09h03.28.866,t1_Paradigm,2021.1.4,60.00752696042224,
B,left,Distractor,0,53,53,53,1180.3772773336987,1182.3786753890608,left,1,2,0.5398299813259655,B19S05,2022-09-29_09h03.28.866,t1_Paradigm,2021.1.4,60.00752696042224,
N,right,Target,0,54,54,54,1183.8769522008142,1185.87947242177,right,1,2,0.6710296815685979,B19S05,2022-09-29_09h03.28.866,t1_Paradigm,2021.1.4,60.00752696042224,
N,left,Lure,0,55,55,55,1187.377126877534,1189.3769773837757,left,1,2,0.9494448039208692,B19S05,2022-09-29_09h03.28.866,t1_Paradigm,2021.1.4,60.00752696042224,
X,left,Distractor,0,56,56,56,1190.8772511883312,1192.879064040752,left,1,2,0.6153191964417601,B19S05,2022-09-29_09h03.28.866,t1_Paradigm,2021.1.4,60.00752696042224,
W,left,Distractor,0,57,57,57,1194.376978987786,1196.3773517597756,left,1,2,0.5571548963853274,B19S05,2022-09-29_09h03.28.866,t1_Paradigm,2021.1.4,60.00752696042224,
S,left,Distractor,0,58,58,58,1197.8771584765368,1199.8784756897808,left,1,2,0.6880219248955655,B19S05,2022-09-29_09h03.28.866,t1_Paradigm,2021.1.4,60.00752696042224,
L,left,Distractor,0,59,59,59,1201.3771429176368,1203.377926957863,left,1,2,0.7246626525775355,B19S05,2022-09-29_09h03.28.866,t1_Paradigm,2021.1.4,60.00752696042224,
K,left,Pretarget,0,60,60,60,1204.8771032985828,1206.8780442110146,left,1,2,0.7767365255917866,B19S05,2022-09-29_09h03.28.866,t1_Paradigm,2021.1.4,60.00752696042224,
V,left,Pretarget,0,61,61,61,1208.377149975282,1210.3774075793335,left,1,2,0.684948641194751,B19S05,2022-09-29_09h03.28.866,t1_Paradigm,2021.1.4,60.00752696042224,
K,right,Target,0,62,62,62,1211.8771440404444,1213.8777009528144,left,0,2,0.6728098121798212,B19S05,2022-09-29_09h03.28.866,t1_Paradigm,2021.1.4,60.00752696042224,
V,right,Target,0,63,63,63,1215.3767791281048,1217.3785005519399,right,1,2,0.692043499475858,B19S05,2022-09-29_09h03.28.866,t1_Paradigm,2021.1.4,60.00752696042224,
R,left,Distractor,0,0,0,0,1293.5002523108174,1295.4951095330503,None,0,3,,B19S05,2022-09-29_09h03.28.866,t1_Paradigm,2021.1.4,60.00752696042224,
P,left,Lure,0,1,1,1,1296.9938181443717,1298.9938332220686,None,0,3,,B19S05,2022-09-29_09h03.28.866,t1_Paradigm,2021.1.4,60.00752696042224,
V,left,Distractor,0,2,2,2,1300.4936287107575,1302.4937878285773,None,0,3,,B19S05,2022-09-29_09h03.28.866,t1_Paradigm,2021.1.4,60.00752696042224,
P,left,Pretarget,0,3,3,3,1303.9935496330504,1305.9948912272507,left,1,3,1.3396478940790075,B19S05,2022-09-29_09h03.28.866,t1_Paradigm,2021.1.4,60.00752696042224,
Z,left,Distractor,0,4,4,4,1307.4935953473437,1309.4955997185925,left,1,3,1.3428353833119218,B19S05,2022-09-29_09h03.28.866,t1_Paradigm,2021.1.4,60.00752696042224,
L,left,Pretarget,0,5,5,5,1310.9936153974722,1312.9946095630453,left,1,3,0.9479851545638667,B19S05,2022-09-29_09h03.28.866,t1_Paradigm,2021.1.4,60.00752696042224,
P,right,Target,0,6,6,6,1314.4938170215646,1316.5102045530152,right,1,3,0.9042967265036168,B19S05,2022-09-29_09h03.28.866,t1_Paradigm,2021.1.4,60.00752696042224,
S,left,Distractor,0,7,7,7,1317.9937664952408,1319.995726916608,left,1,3,0.5708278008346497,B19S05,2022-09-29_09h03.28.866,t1_Paradigm,2021.1.4,60.00752696042224,
L,right,Target,0,8,8,8,1321.4937919990043,1323.4957469667365,None,0,3,,B19S05,2022-09-29_09h03.28.866,t1_Paradigm,2021.1.4,60.00752696042224,
D,left,Distractor,0,9,9,9,1324.993791838603,1326.9944690517445,left,1,3,0.8838593898922227,B19S05,2022-09-29_09h03.28.866,t1_Paradigm,2021.1.4,60.00752696042224,
G,left,Distractor,0,10,10,10,1328.4932722996728,1330.493859367436,left,1,3,0.9524580976371908,B19S05,2022-09-29_09h03.28.866,t1_Paradigm,2021.1.4,60.00752696042224,
M,left,Pretarget,0,11,11,11,1331.9935361593643,1333.9958103251424,left,1,3,0.6186613122663402,B19S05,2022-09-29_09h03.28.866,t1_Paradigm,2021.1.4,60.00752696042224,
Y,left,Distractor,0,12,12,12,1335.4935382445774,1337.4946572021504,left,1,3,0.6079105937496934,B19S05,2022-09-29_09h03.28.866,t1_Paradigm,2021.1.4,60.00752696042224,
V,left,Distractor,0,13,13,13,1338.9937648912305,1340.9961968916205,left,1,3,0.5943971279230027,B19S05,2022-09-29_09h03.28.866,t1_Paradigm,2021.1.4,60.00752696042224,
M,right,Target,0,14,14,14,1342.4938150967523,1344.495346284968,left,0,3,1.031517839641765,B19S05,2022-09-29_09h03.28.866,t1_Paradigm,2021.1.4,60.00752696042224,
S,left,Pretarget,0,15,15,15,1345.9938158987575,1347.9932554575648,left,1,3,0.9732678854365986,B19S05,2022-09-29_09h03.28.866,t1_Paradigm,2021.1.4,60.00752696042224,
Q,left,Distractor,0,16,16,16,1349.493459648074,1351.4948204903972,left,1,3,0.7357117170063248,B19S05,2022-09-29_09h03.28.866,t1_Paradigm,2021.1.4,60.00752696042224,
R,left,Pretarget,0,17,17,17,1352.993966996526,1354.9952909466133,left,1,3,0.6594933188157484,B19S05,2022-09-29_09h03.28.866,t1_Paradigm,2021.1.4,60.00752696042224,
S,right,Target,0,18,18,18,1356.4939135829836,1358.4957229065822,right,1,3,0.7108508408382477,B19S05,2022-09-29_09h03.28.866,t1_Paradigm,2021.1.4,60.00752696042224,
F,left,Distractor,0,19,19,19,1359.993591016516,1361.995847217379,left,1,3,0.6506776783039641,B19S05,2022-09-29_09h03.28.866,t1_Paradigm,2021.1.4,60.00752696042224,
R,right,Target,0,20,20,20,1363.4936187658936,1365.4959134630035,right,1,3,0.5425372298805087,B19S05,2022-09-29_09h03.28.866,t1_Paradigm,2021.1.4,60.00752696042224,
P,left,Distractor,0,21,21,21,1366.993922084238,1368.9945723500068,left,1,3,0.4998606115068469,B19S05,2022-09-29_09h03.28.866,t1_Paradigm,2021.1.4,60.00752696042224,
L,left,Distractor,0,22,22,22,1370.4939761393848,1372.4953263952402,left,1,3,0.5829910108059266,B19S05,2022-09-29_09h03.28.866,t1_Paradigm,2021.1.4,60.00752696042224,
R,right,Target,0,23,23,23,1373.9941553073331,1375.994852410202,right,1,3,0.73179279908436,B19S05,2022-09-29_09h03.28.866,t1_Paradigm,2021.1.4,60.00752696042224,
H,left,Pretarget,0,24,24,24,1377.493826324824,1379.495291427816,left,1,3,0.5271769066148408,B19S05,2022-09-29_09h03.28.866,t1_Paradigm,2021.1.4,60.00752696042224,
G,left,Pretarget,0,25,25,25,1380.99381942758,1382.9944594276826,left,1,3,1.219973007714998,B19S05,2022-09-29_09h03.28.866,t1_Paradigm,2021.1.4,60.00752696042224,
T,left,Distractor,0,26,26,26,1384.4935998385722,1386.4962650620578,left,1,3,0.8702435882096324,B19S05,2022-09-29_09h03.28.866,t1_Paradigm,2021.1.4,60.00752696042224,
H,right,Target,0,27,27,27,1387.9935056831687,1389.9957137637234,left,0,3,0.9388644312962242,B19S05,2022-09-29_09h03.28.866,t1_Paradigm,2021.1.4,60.00752696042224,
G,right,Target,0,28,28,28,1391.493808039107,1393.4946318587881,right,1,3,0.7036915013436555,B19S05,2022-09-29_09h03.28.866,t1_Paradigm,2021.1.4,60.00752696042224,
D,left,Distractor,0,29,29,29,1394.9939336331122,1396.9955530418933,left,1,3,0.5472976115966048,B19S05,2022-09-29_09h03.28.866,t1_Paradigm,2021.1.4,60.00752696042224,
N,left,Pretarget,0,30,30,30,1398.493905562932,1400.495898706109,left,1,3,0.838540645780995,B19S05,2022-09-29_09h03.28.866,t1_Paradigm,2021.1.4,60.00752696042224,
V,left,Distractor,0,31,31,31,1401.9937950466237,1403.9946464552818,left,1,3,0.7480138342675673,B19S05,2022-09-29_09h03.28.866,t1_Paradigm,2021.1.4,60.00752696042224,
R,left,Distractor,0,32,32,32,1405.4939203198269,1407.4940175228498,left,1,3,0.7044877320481646,B19S05,2022-09-29_09h03.28.866,t1_Paradigm,2021.1.4,60.00752696042224,
N,right,Target,0,33,33,33,1408.99384284613,1410.9957346158571,right,1,3,0.5789014261899865,B19S05,2022-09-29_09h03.28.866,t1_Paradigm,2021.1.4,60.00752696042224,
Z,left,Distractor,0,34,34,34,1412.49378975339,1414.4947515179551,left,1,3,0.7276846079494135,B19S05,2022-09-29_09h03.28.866,t1_Paradigm,2021.1.4,60.00752696042224,
N,left,Lure,0,35,35,35,1415.9936423448448,1417.9957259542016,left,1,3,0.8109298543845398,B19S05,2022-09-29_09h03.28.866,t1_Paradigm,2021.1.4,60.00752696042224,
Y,left,Pretarget,0,36,36,36,1419.493578986439,1421.4962692324843,left,1,3,0.7181936791084809,B19S05,2022-09-29_09h03.28.866,t1_Paradigm,2021.1.4,60.00752696042224,
Y,left,Lure,0,37,37,37,1422.9938184651737,1424.9938284100376,left,1,3,0.9005378888077757,B19S05,2022-09-29_09h03.28.866,t1_Paradigm,2021.1.4,60.00752696042224,
B,left,Distractor,0,38,38,38,1426.4935311869322,1428.4950489014614,left,1,3,0.887403611011905,B19S05,2022-09-29_09h03.28.866,t1_Paradigm,2021.1.4,60.00752696042224,
Y,right,Target,0,39,39,39,1429.9936442696571,1431.9957853025821,right,1,3,0.8108008919580243,B19S05,2022-09-29_09h03.28.866,t1_Paradigm,2021.1.4,60.00752696042224,
J,left,Distractor,0,40,40,40,1433.4938118887317,1435.4956119090707,left,1,3,0.7507445013725373,B19S05,2022-09-29_09h03.28.866,t1_Paradigm,2021.1.4,60.00752696042224,
X,left,Distractor,0,41,41,41,1436.9938592070353,1438.993525252094,left,1,3,0.9170672147679397,B19S05,2022-09-29_09h03.28.866,t1_Paradigm,2021.1.4,60.00752696042224,
W,left,Pretarget,0,42,42,42,1440.4938099639194,1442.4947409314873,left,1,3,0.6477907805979157,B19S05,2022-09-29_09h03.28.866,t1_Paradigm,2021.1.4,60.00752696042224,
S,left,Pretarget,0,43,43,43,1443.9935451418219,1445.99527490651,left,1,3,0.7314434456447998,B19S05,2022-09-29_09h03.28.866,t1_Paradigm,2021.1.4,60.00752696042224,
R,left,Distractor,0,44,44,44,1447.4938952972666,1449.4932091016676,left,1,3,0.9133106226863674,B19S05,2022-09-29_09h03.28.866,t1_Paradigm,2021.1.4,60.00752696042224,
W,right,Target,0,45,45,45,1450.9936057734103,1452.9950240393023,right,1,3,0.5956639752444062,B19S05,2022-09-29_09h03.28.866,t1_Paradigm,2021.1.4,60.00752696042224,
S,right,Target,0,46,46,46,1454.4937692220583,1456.4958566810396,right,1,3,0.6787812216589373,B19S05,2022-09-29_09h03.28.866,t1_Paradigm,2021.1.4,60.00752696042224,
D,left,Distractor,0,47,47,47,1457.9938624150554,1459.9957785657389,left,1,3,0.6027033347695578,B19S05,2022-09-29_09h03.28.866,t1_Paradigm,2021.1.4,60.00752696042224,
T,left,Distractor,0,48,48,48,1461.4935735328036,1463.4951704854407,left,1,3,0.6234938744451028,B19S05,2022-09-29_09h03.28.866,t1_Paradigm,2021.1.4,60.00752696042224,
S,right,Target,0,49,49,49,1464.9938264852253,1466.9954911270966,right,1,3,0.4669553029702911,B19S05,2022-09-29_09h03.28.866,t1_Paradigm,2021.1.4,60.00752696042224,
K,left,Distractor,0,50,50,50,1468.4938070767007,1470.4945715480017,left,1,3,0.648087522500191,B19S05,2022-09-29_09h03.28.866,t1_Paradigm,2021.1.4,60.00752696042224,
S,left,Lure,0,51,51,51,1471.9935762596215,1473.9958456133686,left,1,3,0.9387576042117871,B19S05,2022-09-29_09h03.28.866,t1_Paradigm,2021.1.4,60.00752696042224,
T,left,Pretarget,0,52,52,52,1475.493791036598,1477.4956686910346,left,1,3,1.1827785756840967,B19S05,2022-09-29_09h03.28.866,t1_Paradigm,2021.1.4,60.00752696042224,
V,left,Distractor,0,53,53,53,1478.9939089313539,1480.9955950669628,left,1,3,0.6909194090699202,B19S05,2022-09-29_09h03.28.866,t1_Paradigm,2021.1.4,60.00752696042224,
B,left,Distractor,0,54,54,54,1482.4936072170199,1484.4957488915488,left,1,3,0.6471090762279346,B19S05,2022-09-29_09h03.28.866,t1_Paradigm,2021.1.4,60.00752696042224,
T,right,Target,0,55,55,55,1485.993443768372,1487.9946605705723,right,1,3,0.5398816304573302,B19S05,2022-09-29_09h03.28.866,t1_Paradigm,2021.1.4,60.00752696042224,
Y,left,Pretarget,0,56,56,56,1489.4935404901921,1491.4953263952402,left,1,3,0.6392776564257474,B19S05,2022-09-29_09h03.28.866,t1_Paradigm,2021.1.4,60.00752696042224,
T,left,Lure,0,57,57,57,1492.993609302233,1494.9937876681765,left,1,3,0.884624823599097,B19S05,2022-09-29_09h03.28.866,t1_Paradigm,2021.1.4,60.00752696042224,
P,left,Pretarget,0,58,58,58,1496.4935783448345,1498.4958996685154,left,1,3,0.6628473043165286,B19S05,2022-09-29_09h03.28.866,t1_Paradigm,2021.1.4,60.00752696042224,
Y,right,Target,0,59,59,59,1499.993581071652,1501.9956746258727,left,0,3,0.9868442284664525,B19S05,2022-09-29_09h03.28.866,t1_Paradigm,2021.1.4,60.00752696042224,
R,left,Distractor,0,60,60,60,1503.4935850816778,1505.4950877185101,left,1,3,0.8314512411348005,B19S05,2022-09-29_09h03.28.866,t1_Paradigm,2021.1.4,60.00752696042224,
P,right,Target,0,61,61,61,1506.9938181443717,1508.9952604704176,right,1,3,0.7393008504145655,B19S05,2022-09-29_09h03.28.866,t1_Paradigm,2021.1.4,60.00752696042224,
L,left,Distractor,0,62,62,62,1510.493698645606,1512.4945988161762,left,1,3,0.7756419489751352,B19S05,2022-09-29_09h03.28.866,t1_Paradigm,2021.1.4,60.00752696042224,
V,left,Distractor,0,63,63,63,1513.9936288711583,1515.9959864454713,left,1,3,0.650449588041738,B19S05,2022-09-29_09h03.28.866,t1_Paradigm,2021.1.4,60.00752696042224,
H,left,Lure,0,0,0,0,1529.7089779984326,1531.710439572602,None,0,3,,B19S05,2022-09-29_09h03.28.866,t1_Paradigm,2021.1.4,60.00752696042224,
B,left,Distractor,0,1,1,1,1533.2099437730235,1535.2111756529202,None,0,3,,B19S05,2022-09-29_09h03.28.866,t1_Paradigm,2021.1.4,60.00752696042224,
T,left,Distractor,0,2,2,2,1536.7102775675635,1538.7112890564472,None,0,3,,B19S05,2022-09-29_09h03.28.866,t1_Paradigm,2021.1.4,60.00752696042224,
R,left,Distractor,0,3,3,3,1540.2105818483137,1542.212117206956,left,1,3,0.77038400327001,B19S05,2022-09-29_09h03.28.866,t1_Paradigm,2021.1.4,60.00752696042224,
H,left,Pretarget,0,4,4,4,1543.710531001188,1545.711452023892,left,1,3,0.8870635608323028,B19S05,2022-09-29_09h03.28.866,t1_Paradigm,2021.1.4,60.00752696042224,
K,left,Distractor,0,5,5,5,1547.2104830412804,1549.2113065401595,left,1,3,0.5712525427575201,B19S05,2022-09-29_09h03.28.866,t1_Paradigm,2021.1.4,60.00752696042224,
G,left,Distractor,0,6,6,6,1550.710548645301,1552.7128401343903,left,1,3,0.5894375281304747,B19S05,2022-09-29_09h03.28.866,t1_Paradigm,2021.1.4,60.00752696042224,
H,right,Target,0,7,7,7,1554.210520254319,1556.2125121142876,right,1,3,0.5782347995159398,B19S05,2022-09-29_09h03.28.866,t1_Paradigm,2021.1.4,60.00752696042224,
Y,left,Pretarget,0,8,8,8,1557.7104386101955,1559.7122280440667,left,1,3,0.6784273769908395,B19S05,2022-09-29_09h03.28.866,t1_Paradigm,2021.1.4,60.00752696042224,
S,left,Distractor,0,9,9,9,1561.210462830751,1563.2109145200466,left,1,3,0.6355499365295145,B19S05,2022-09-29_09h03.28.866,t1_Paradigm,2021.1.4,60.00752696042224,
P,left,Distractor,0,10,10,10,1564.710480635265,1566.7265861817082,left,1,3,0.8640360684171355,B19S05,2022-09-29_09h03.28.866,t1_Paradigm,2021.1.4,60.00752696042224,
Y,right,Target,0,11,11,11,1568.2100627905866,1570.2128585805085,right,1,3,0.8495967678554734,B19S05,2022-09-29_09h03.28.866,t1_Paradigm,2021.1.4,60.00752696042224,
H,left,Lure,0,12,12,12,1571.7104694071932,1573.7124753824523,left,1,3,0.5985178303390057,B19S05,2022-09-29_09h03.28.866,t1_Paradigm,2021.1.4,60.00752696042224,
Q,left,Distractor,0,13,13,13,1575.210440053805,1577.2233414293078,left,1,3,0.7193354136275047,B19S05,2022-09-29_09h03.28.866,t1_Paradigm,2021.1.4,60.00752696042224,
V,left,Pretarget,0,14,14,14,1578.7104886553166,1580.7121600340306,left,1,3,0.9424189180822395,B19S05,2022-09-29_09h03.28.866,t1_Paradigm,2021.1.4,60.00752696042224,
G,left,Distractor,0,15,15,15,1582.210219983594,1584.2114261993265,left,1,3,1.0591299142465687,B19S05,2022-09-29_09h03.28.866,t1_Paradigm,2021.1.4,60.00752696042224,
Z,left,Pretarget,0,16,16,16,1585.7102063495067,1587.7106070312752,left,1,3,0.8559942024653537,B19S05,2022-09-29_09h03.28.866,t1_Paradigm,2021.1.4,60.00752696042224,
V,right,Target,0,17,17,17,1589.2105792818975,1591.2129115128478,right,1,3,0.841894310479347,B19S05,2022-09-29_09h03.28.866,t1_Paradigm,2021.1.4,60.00752696042224,
N,left,Distractor,0,18,18,18,1592.710458179121,1594.7122562746476,left,1,3,0.8304391106466937,B19S05,2022-09-29_09h03.28.866,t1_Paradigm,2021.1.4,60.00752696042224,
Z,right,Target,0,19,19,19,1596.2102639334757,1598.2107342292907,right,1,3,1.0919235836668122,B19S05,2022-09-29_09h03.28.866,t1_Paradigm,2021.1.4,60.00752696042224,
R,left,Distractor,0,20,20,20,1599.710452725486,1601.7112390113266,left,1,3,0.6633759861051658,B19S05,2022-09-29_09h03.28.866,t1_Paradigm,2021.1.4,60.00752696042224,
P,left,Distractor,0,21,21,21,1603.209884424643,1605.2123177082412,left,1,3,0.9223267644833868,B19S05,2022-09-29_09h03.28.866,t1_Paradigm,2021.1.4,60.00752696042224,
Z,right,Target,0,22,22,22,1606.7104892969205,1608.711479612869,right,1,3,0.5111647135699968,B19S05,2022-09-29_09h03.28.866,t1_Paradigm,2021.1.4,60.00752696042224,
D,left,Pretarget,0,23,23,23,1610.2104352417741,1612.2121300390386,left,1,3,0.562529614039704,B19S05,2022-09-29_09h03.28.866,t1_Paradigm,2021.1.4,60.00752696042224,
K,left,Distractor,0,24,24,24,1613.7103876026686,1615.711161377229,left,1,3,0.7273779211832334,B19S05,2022-09-29_09h03.28.866,t1_Paradigm,2021.1.4,60.00752696042224,
W,left,Distractor,0,25,25,25,1617.2104769460416,1619.2117745903597,left,1,3,0.5548329311009184,B19S05,2022-09-29_09h03.28.866,t1_Paradigm,2021.1.4,60.00752696042224,
D,right,Target,0,26,26,26,1620.7105913119744,1622.7111963446532,left,0,3,1.2158689870066155,B19S05,2022-09-29_09h03.28.866,t1_Paradigm,2021.1.4,60.00752696042224,
G,left,Pretarget,0,27,27,27,1624.210468284386,1626.212190991429,left,1,3,0.6263390678836913,B19S05,2022-09-29_09h03.28.866,t1_Paradigm,2021.1.4,60.00752696042224,
V,left,Distractor,0,28,28,28,1627.7101004848282,1629.7109894273267,left,1,3,0.6956849236189555,B19S05,2022-09-29_09h03.28.866,t1_Paradigm,2021.1.4,60.00752696042224,
D,right,Target,0,29,29,29,1631.2104621891467,1633.2119532771053,right,1,3,0.9067075539583129,B19S05,2022-09-29_09h03.28.866,t1_Paradigm,2021.1.4,60.00752696042224,
G,right,Target,0,30,30,30,1634.7102233520159,1636.7104815976713,right,1,3,0.6720796666991191,B19S05,2022-09-29_09h03.28.866,t1_Paradigm,2021.1.4,60.00752696042224,
B,left,Pretarget,0,31,31,31,1638.210326810679,1640.2124707308226,left,1,3,0.5144513306386216,B19S05,2022-09-29_09h03.28.866,t1_Paradigm,2021.1.4,60.00752696042224,
N,left,Distractor,0,32,32,32,1641.710526189157,1643.7124253373313,left,1,3,0.6467760836935668,B19S05,2022-09-29_09h03.28.866,t1_Paradigm,2021.1.4,60.00752696042224,
F,left,Distractor,0,33,33,33,1645.2103678733424,1647.212320916262,left,1,3,0.5383231740665906,B19S05,2022-09-29_09h03.28.866,t1_Paradigm,2021.1.4,60.00752696042224,
B,right,Target,0,34,34,34,1648.7102952116766,1650.7117956028947,right,1,3,0.542813119649054,B19S05,2022-09-29_09h03.28.866,t1_Paradigm,2021.1.4,60.00752696042224,
Q,left,Pretarget,0,35,35,35,1652.2102187003861,1654.212753036632,left,1,3,0.6257866467426538,B19S05,2022-09-29_09h03.28.866,t1_Paradigm,2021.1.4,60.00752696042224,
S,left,Pretarget,0,36,36,36,1655.7105178483034,1657.7114683847967,left,1,3,0.5991607176597427,B19S05,2022-09-29_09h03.28.866,t1_Paradigm,2021.1.4,60.00752696042224,
W,left,Distractor,0,37,37,37,1659.2104763044372,1661.2123568460925,left,1,3,0.5861852368816471,B19S05,2022-09-29_09h03.28.866,t1_Paradigm,2021.1.4,60.00752696042224,
Q,right,Target,0,38,38,38,1662.7102162943706,1664.7107350312958,right,1,3,0.7998442185212298,B19S05,2022-09-29_09h03.28.866,t1_Paradigm,2021.1.4,60.00752696042224,
S,right,Target,0,39,39,39,1666.210435562576,1668.212098921239,right,1,3,0.7863955547099977,B19S05,2022-09-29_09h03.28.866,t1_Paradigm,2021.1.4,60.00752696042224,
T,left,Distractor,0,40,40,40,1669.7102419585349,1671.7109393822057,left,1,3,0.6956085727292702,B19S05,2022-09-29_09h03.28.866,t1_Paradigm,2021.1.4,60.00752696042224,
G,left,Distractor,0,41,41,41,1673.2102828607972,1675.210605908468,left,1,3,0.5879198136008199,B19S05,2022-09-29_09h03.28.866,t1_Paradigm,2021.1.4,60.00752696042224,
D,left,Distractor,0,42,42,42,1676.7104222492908,1678.7125158035115,left,1,3,0.5098837509590339,B19S05,2022-09-29_09h03.28.866,t1_Paradigm,2021.1.4,60.00752696042224,
S,left,Lure,0,43,43,43,1680.2101112316968,1682.2121768761385,left,1,3,0.49834642579980937,B19S05,2022-09-29_09h03.28.866,t1_Paradigm,2021.1.4,60.00752696042224,
Z,left,Pretarget,0,44,44,44,1683.710457858319,1685.713068866257,left,1,3,0.5173767245919407,B19S05,2022-09-29_09h03.28.866,t1_Paradigm,2021.1.4,60.00752696042224,
J,left,Distractor,0,45,45,45,1687.2105298783808,1689.2120966756247,left,1,3,0.6983424478544293,B19S05,2022-09-29_09h03.28.866,t1_Paradigm,2021.1.4,60.00752696042224,
M,left,Pretarget,0,46,46,46,1690.7102881540313,1692.7124779488686,left,1,3,0.6220300546615363,B19S05,2022-09-29_09h03.28.866,t1_Paradigm,2021.1.4,60.00752696042224,
Z,right,Target,0,47,47,47,1694.2102777279642,1696.2105186503086,right,1,3,0.580249115629158,B19S05,2022-09-29_09h03.28.866,t1_Paradigm,2021.1.4,60.00752696042224,
P,left,Distractor,0,48,48,48,1697.7104783896507,1699.7108880538767,left,1,3,0.5999380210428171,B19S05,2022-09-29_09h03.28.866,t1_Paradigm,2021.1.4,60.00752696042224,
M,right,Target,0,49,49,49,1701.2105616377844,1703.2104516026789,right,1,3,0.684049112228422,B19S05,2022-09-29_09h03.28.866,t1_Paradigm,2021.1.4,60.00752696042224,
K,left,Distractor,0,50,50,50,1704.7104321941547,1706.7124997634087,left,1,3,0.6540637440102728,B19S05,2022-09-29_09h03.28.866,t1_Paradigm,2021.1.4,60.00752696042224,
Y,left,Distractor,0,51,51,51,1708.2104849660927,1710.2104593019285,left,1,3,0.7401538630824689,B19S05,2022-09-29_09h03.28.866,t1_Paradigm,2021.1.4,60.00752696042224,
X,left,Distractor,0,52,52,52,1711.710637507471,1713.7122832220202,left,1,3,0.6943385173876777,B19S05,2022-09-29_09h03.28.866,t1_Paradigm,2021.1.4,60.00752696042224,
F,left,Pretarget,0,53,53,53,1715.210509667851,1717.2232952338118,left,1,3,0.5752523027977077,B19S05,2022-09-29_09h03.28.866,t1_Paradigm,2021.1.4,60.00752696042224,
M,left,Lure,0,54,54,54,1718.710400755553,1720.7123807458456,left,1,3,0.7501163709457614,B19S05,2022-09-29_09h03.28.866,t1_Paradigm,2021.1.4,60.00752696042224,
V,left,Distractor,0,55,55,55,1722.2105135174756,1724.2110916027818,left,1,3,0.6273922610353111,B19S05,2022-09-29_09h03.28.866,t1_Paradigm,2021.1.4,60.00752696042224,
F,right,Target,0,56,56,56,1725.7102400337226,1727.7113384599643,right,1,3,0.7593185779360283,B19S05,2022-09-29_09h03.28.866,t1_Paradigm,2021.1.4,60.00752696042224,
S,left,Distractor,0,57,57,57,1729.2102552718202,1731.2231906523411,left,1,3,0.5593029869555721,B19S05,2022-09-29_09h03.28.866,t1_Paradigm,2021.1.4,60.00752696042224,
D,left,Distractor,0,58,58,58,1732.7101794021341,1734.7105069410336,left,1,3,0.8642327200773252,B19S05,2022-09-29_09h03.28.866,t1_Paradigm,2021.1.4,60.00752696042224,
F,right,Target,0,59,59,59,1736.2104878533114,1738.2120090966632,right,1,3,0.8348835023371066,B19S05,2022-09-29_09h03.28.866,t1_Paradigm,2021.1.4,60.00752696042224,
V,left,Pretarget,0,60,60,60,1739.7103920938976,1741.711478971265,left,1,3,0.6471668205981587,B19S05,2022-09-29_09h03.28.866,t1_Paradigm,2021.1.4,60.00752696042224,
J,left,Distractor,0,61,61,61,1743.2101340086429,1745.2125515729408,left,1,3,0.5221027804877849,B19S05,2022-09-29_09h03.28.866,t1_Paradigm,2021.1.4,60.00752696042224,
V,left,Lure,0,62,62,62,1746.7102679435015,1748.712530239604,left,1,3,1.1020849888054727,B19S05,2022-09-29_09h03.28.866,t1_Paradigm,2021.1.4,60.00752696042224,
V,right,Target,0,63,63,63,1750.2104583395221,1752.210316224211,right,1,3,0.996298906674383,B19S05,2022-09-29_09h03.28.866,t1_Paradigm,2021.1.4,60.00752696042224,
R,left,Distractor,0,0,0,0,1831.1672835155541,1833.162993108851,None,0,4,,B19S05,2022-09-29_09h03.28.866,t1_Paradigm,2021.1.4,60.00752696042224,
F,left,Distractor,0,1,1,1,1834.6604197951551,1836.6618149632986,None,0,4,,B19S05,2022-09-29_09h03.28.866,t1_Paradigm,2021.1.4,60.00752696042224,
P,left,Pretarget,0,2,2,2,1838.1601042863326,1840.1624442165325,None,0,4,,B19S05,2022-09-29_09h03.28.866,t1_Paradigm,2021.1.4,60.00752696042224,
H,left,Distractor,0,3,3,3,1841.660481709952,1843.6620080861367,None,0,4,,B19S05,2022-09-29_09h03.28.866,t1_Paradigm,2021.1.4,60.00752696042224,
Z,left,Distractor,0,4,4,4,1845.1602775194428,1847.160566562096,left,1,4,0.814101624317118,B19S05,2022-09-29_09h03.28.866,t1_Paradigm,2021.1.4,60.00752696042224,
T,left,Distractor,0,5,5,5,1848.6602686973865,1850.6625364471238,left,1,4,0.7360357270836175,B19S05,2022-09-29_09h03.28.866,t1_Paradigm,2021.1.4,60.00752696042224,
P,right,Target,0,6,6,6,1852.1604914944146,1854.1619453693347,None,0,4,,B19S05,2022-09-29_09h03.28.866,t1_Paradigm,2021.1.4,60.00752696042224,
G,left,Distractor,0,7,7,7,1855.660572176132,1857.6623391538587,left,1,4,0.9201892603809938,B19S05,2022-09-29_09h03.28.866,t1_Paradigm,2021.1.4,60.00752696042224,
L,left,Distractor,0,8,8,8,1859.1605348026924,1861.1609053290676,left,1,4,0.7335937818293132,B19S05,2022-09-29_09h03.28.866,t1_Paradigm,2021.1.4,60.00752696042224,
P,left,Lure,0,9,9,9,1862.6602212186822,1864.6625839258281,left,1,4,1.0720803724643702,B19S05,2022-09-29_09h03.28.866,t1_Paradigm,2021.1.4,60.00752696042224,
Q,left,Pretarget,0,10,10,10,1866.1602499304663,1868.1621317553295,left,1,4,0.7725551915877986,B19S05,2022-09-29_09h03.28.866,t1_Paradigm,2021.1.4,60.00752696042224,
D,left,Distractor,0,11,11,11,1869.66039252698,1871.6621081763783,left,1,4,0.6162678081232116,B19S05,2022-09-29_09h03.28.866,t1_Paradigm,2021.1.4,60.00752696042224,
M,left,Pretarget,0,12,12,12,1873.1604430533043,1875.162140416985,left,1,4,0.8926246644814455,B19S05,2022-09-29_09h03.28.866,t1_Paradigm,2021.1.4,60.00752696042224,
C,left,Distractor,0,13,13,13,1876.6605205270007,1878.6605792337773,left,1,4,0.6577192834438392,B19S05,2022-09-29_09h03.28.866,t1_Paradigm,2021.1.4,60.00752696042224,
Q,right,Target,0,14,14,14,1880.160474491906,1882.1622857403163,left,0,4,0.7243925372458762,B19S05,2022-09-29_09h03.28.866,t1_Paradigm,2021.1.4,60.00752696042224,
R,left,Distractor,0,15,15,15,1883.6771245998393,1885.6619237151958,left,1,4,1.0649495843526893,B19S05,2022-09-29_09h03.28.866,t1_Paradigm,2021.1.4,60.00752696042224,
M,right,Target,0,16,16,16,1887.1602810482655,1889.1613188429183,left,0,4,1.197414207103975,B19S05,2022-09-29_09h03.28.866,t1_Paradigm,2021.1.4,60.00752696042224,
S,left,Distractor,0,17,17,17,1890.6604845971706,1892.6604290984146,left,1,4,1.3620953763761463,B19S05,2022-09-29_09h03.28.866,t1_Paradigm,2021.1.4,60.00752696042224,
Z,left,Distractor,0,18,18,18,1894.1604430533043,1896.1608116548668,left,1,4,0.773950359731316,B19S05,2022-09-29_09h03.28.866,t1_Paradigm,2021.1.4,60.00752696042224,
L,left,Pretarget,0,19,19,19,1897.6605850082142,1899.662428978435,left,1,4,0.9680907818492415,B19S05,2022-09-29_09h03.28.866,t1_Paradigm,2021.1.4,60.00752696042224,
M,right,Target,0,20,20,20,1901.1604279756075,1903.1605142713606,left,0,4,0.990092990892208,B19S05,2022-09-29_09h03.28.866,t1_Paradigm,2021.1.4,60.00752696042224,
P,left,Distractor,0,21,21,21,1904.6602574693143,1906.6615567176432,None,0,4,,B19S05,2022-09-29_09h03.28.866,t1_Paradigm,2021.1.4,60.00752696042224,
F,left,Distractor,0,22,22,22,1908.1601068527489,1910.160713489438,left,1,4,0.7739708910630725,B19S05,2022-09-29_09h03.28.866,t1_Paradigm,2021.1.4,60.00752696042224,
L,right,Target,0,23,23,23,1911.660254582096,1913.660845178682,right,1,4,1.1138170408125916,B19S05,2022-09-29_09h03.28.866,t1_Paradigm,2021.1.4,60.00752696042224,
L,left,Lure,0,24,24,24,1915.1604770583222,1917.1604895696023,right,0,4,1.1821308763319394,B19S05,2022-09-29_09h03.28.866,t1_Paradigm,2021.1.4,60.00752696042224,
V,left,Pretarget,0,25,25,25,1918.6604194743531,1920.6610261110418,left,1,4,0.5774437016452794,B19S05,2022-09-29_09h03.28.866,t1_Paradigm,2021.1.4,60.00752696042224,
Z,left,Distractor,0,26,26,26,1922.1602422312167,1924.1610990935096,left,1,4,1.0136276713587904,B19S05,2022-09-29_09h03.28.866,t1_Paradigm,2021.1.4,60.00752696042224,
H,left,Distractor,0,27,27,27,1925.6604955044404,1927.662664126342,left,1,4,0.5678148279203015,B19S05,2022-09-29_09h03.28.866,t1_Paradigm,2021.1.4,60.00752696042224,
X,left,Distractor,0,28,28,28,1929.1601912236897,1931.1621747428048,left,1,4,0.7323493906524163,B19S05,2022-09-29_09h03.28.866,t1_Paradigm,2021.1.4,60.00752696042224,
V,right,Target,0,29,29,29,1932.6604518753606,1934.662373158877,left,0,4,0.9761769184842706,B19S05,2022-09-29_09h03.28.866,t1_Paradigm,2021.1.4,60.00752696042224,
C,left,Distractor,0,30,30,30,1936.1602335695611,1938.1605014392785,left,1,4,0.7741948108987344,B19S05,2022-09-29_09h03.28.866,t1_Paradigm,2021.1.4,60.00752696042224,
S,left,Pretarget,0,31,31,31,1939.660572496934,1941.6733311155217,left,1,4,0.669355094833918,B19S05,2022-09-29_09h03.28.866,t1_Paradigm,2021.1.4,60.00752696042224,
D,left,Distractor,0,32,32,32,1943.1603035044095,1945.162452878188,left,1,4,0.6201463049860649,B19S05,2022-09-29_09h03.28.866,t1_Paradigm,2021.1.4,60.00752696042224,
V,left,Distractor,0,33,33,33,1946.6602228226925,1948.6632114146505,left,1,4,0.7833338198829551,B19S05,2022-09-29_09h03.28.866,t1_Paradigm,2021.1.4,60.00752696042224,
R,left,Distractor,0,34,34,34,1950.160464867844,1952.1594674942503,left,1,4,0.8231209741347811,B19S05,2022-09-29_09h03.28.866,t1_Paradigm,2021.1.4,60.00752696042224,
S,right,Target,0,35,35,35,1953.6604775395253,1955.6600123765434,right,1,4,0.6509664001546298,B19S05,2022-09-29_09h03.28.866,t1_Paradigm,2021.1.4,60.00752696042224,
Y,left,Distractor,0,36,36,36,1957.160244156029,1959.1612466624556,left,1,4,0.6053547637661723,B19S05,2022-09-29_09h03.28.866,t1_Paradigm,2021.1.4,60.00752696042224,
N,left,Pretarget,0,37,37,37,1960.6599215895612,1962.6619686274835,left,1,4,0.46478347304810086,B19S05,2022-09-29_09h03.28.866,t1_Paradigm,2021.1.4,60.00752696042224,
Z,left,Pretarget,0,38,38,38,1964.1604231635765,1966.1631265625065,left,1,4,0.803468640155188,B19S05,2022-09-29_09h03.28.866,t1_Paradigm,2021.1.4,60.00752696042224,
P,left,Pretarget,0,39,39,39,1967.6606276748876,1969.660931153633,left,1,4,0.6817823248975401,B19S05,2022-09-29_09h03.28.866,t1_Paradigm,2021.1.4,60.00752696042224,
M,left,Distractor,0,40,40,40,1971.160487323988,1973.1608597751756,left,1,4,0.7978908547997889,B19S05,2022-09-29_09h03.28.866,t1_Paradigm,2021.1.4,60.00752696042224,
N,right,Target,0,41,41,41,1974.6602173690576,1976.661783524697,left,0,4,0.9129330386658694,B19S05,2022-09-29_09h03.28.866,t1_Paradigm,2021.1.4,60.00752696042224,
Z,right,Target,0,42,42,42,1978.160538010713,1980.1606332889237,right,1,4,1.4141150338427906,B19S05,2022-09-29_09h03.28.866,t1_Paradigm,2021.1.4,60.00752696042224,
P,right,Target,0,43,43,43,1981.6604906924094,1983.6766405095364,left,0,4,0.7140639942358575,B19S05,2022-09-29_09h03.28.866,t1_Paradigm,2021.1.4,60.00752696042224,
X,left,Pretarget,0,44,44,44,1985.1604205971603,1987.1622575097354,left,1,4,0.6682852199755871,B19S05,2022-09-29_09h03.28.866,t1_Paradigm,2021.1.4,60.00752696042224,
Z,left,Lure,0,45,45,45,1988.660471123484,1990.662498913283,None,0,4,,B19S05,2022-09-29_09h03.28.866,t1_Paradigm,2021.1.4,60.00752696042224,
R,left,Pretarget,0,46,46,46,1992.1600571284303,1994.1623486175195,left,1,4,0.6923062363598547,B19S05,2022-09-29_09h03.28.866,t1_Paradigm,2021.1.4,60.00752696042224,
K,left,Distractor,0,47,47,47,1995.6604441761115,1997.6619859507946,left,1,4,0.6004788933100826,B19S05,2022-09-29_09h03.28.866,t1_Paradigm,2021.1.4,60.00752696042224,
X,right,Target,0,48,48,48,1999.160238381592,2001.1619030234633,left,0,4,0.7326182227757272,B19S05,2022-09-29_09h03.28.866,t1_Paradigm,2021.1.4,60.00752696042224,
B,left,Distractor,0,49,49,49,2002.660231484348,2004.6606735495816,left,1,4,0.6736746945239247,B19S05,2022-09-29_09h03.28.866,t1_Paradigm,2021.1.4,60.00752696042224,
R,right,Target,0,50,50,50,2006.160215283844,2008.1619582014168,right,1,4,0.6927643416966021,B19S05,2022-09-29_09h03.28.866,t1_Paradigm,2021.1.4,60.00752696042224,
Y,left,Pretarget,0,51,51,51,2009.6602943615508,2011.6616064419618,left,1,4,0.8570666437399268,B19S05,2022-09-29_09h03.28.866,t1_Paradigm,2021.1.4,60.00752696042224,
W,left,Pretarget,0,52,52,52,2013.1604860407797,2015.1623489383214,left,1,4,0.924382464061182,B19S05,2022-09-29_09h03.28.866,t1_Paradigm,2021.1.4,60.00752696042224,
Z,left,Distractor,0,53,53,53,2016.6603046272166,2018.66113037171,left,1,4,0.8013744443310316,B19S05,2022-09-29_09h03.28.866,t1_Paradigm,2021.1.4,60.00752696042224,
Q,left,Distractor,0,54,54,54,2020.160249288862,2022.160686542065,left,1,4,0.8218916606542734,B19S05,2022-09-29_09h03.28.866,t1_Paradigm,2021.1.4,60.00752696042224,
Y,right,Target,0,55,55,55,2023.6602706221988,2025.661032527083,left,0,4,0.6174961591973442,B19S05,2022-09-29_09h03.28.866,t1_Paradigm,2021.1.4,60.00752696042224,
W,right,Target,0,56,56,56,2027.1602393439985,2029.160782782682,left,0,4,0.6058853703675595,B19S05,2022-09-29_09h03.28.866,t1_Paradigm,2021.1.4,60.00752696042224,
H,left,Pretarget,0,57,57,57,2030.6604794643376,2032.6626416701984,left,1,4,0.7359981932427218,B19S05,2022-09-29_09h03.28.866,t1_Paradigm,2021.1.4,60.00752696042224,
M,left,Distractor,0,58,58,58,2034.1601119855818,2036.1622815698897,left,1,4,0.5483764689124655,B19S05,2022-09-29_09h03.28.866,t1_Paradigm,2021.1.4,60.00752696042224,
R,left,Pretarget,0,59,59,59,2037.6606161260138,2039.6628017504245,left,1,4,0.6156310160408793,B19S05,2022-09-29_09h03.28.866,t1_Paradigm,2021.1.4,60.00752696042224,
J,left,Distractor,0,60,60,60,2041.160482511957,2043.1614160459412,left,1,4,0.605208478028544,B19S05,2022-09-29_09h03.28.866,t1_Paradigm,2021.1.4,60.00752696042224,
H,right,Target,0,61,61,61,2044.6604685570678,2046.6619849883887,right,1,4,0.6724367193883154,B19S05,2022-09-29_09h03.28.866,t1_Paradigm,2021.1.4,60.00752696042224,
Z,left,Distractor,0,62,62,62,2048.1602072637925,2050.161022421818,left,1,4,0.5815891058186935,B19S05,2022-09-29_09h03.28.866,t1_Paradigm,2021.1.4,60.00752696042224,
R,right,Target,0,63,63,63,2051.66008199059,2053.659738411587,left,0,4,0.6187597984976492,B19S05,2022-09-29_09h03.28.866,t1_Paradigm,2021.1.4,60.00752696042224,
J,left,Pretarget,0,0,0,0,2070.384221415013,2072.3780867172873,None,0,4,,B19S05,2022-09-29_09h03.28.866,t1_Paradigm,2021.1.4,60.00752696042224,
G,left,Pretarget,0,1,1,1,2073.8772146168967,2075.877063519128,None,0,4,,B19S05,2022-09-29_09h03.28.866,t1_Paradigm,2021.1.4,60.00752696042224,
Z,left,Distractor,0,2,2,2,2077.376920922614,2079.377017163231,None,0,4,,B19S05,2022-09-29_09h03.28.866,t1_Paradigm,2021.1.4,60.00752696042224,
F,left,Distractor,0,3,3,3,2080.8772207121356,2082.879245935518,None,0,4,,B19S05,2022-09-29_09h03.28.866,t1_Paradigm,2021.1.4,60.00752696042224,
J,right,Target,0,4,4,4,2084.377250386326,2086.377194245966,right,1,4,0.6054131497403432,B19S05,2022-09-29_09h03.28.866,t1_Paradigm,2021.1.4,60.00752696042224,
G,right,Target,0,5,5,5,2087.8771510980896,2089.878397414079,right,1,4,0.5123359618787617,B19S05,2022-09-29_09h03.28.866,t1_Paradigm,2021.1.4,60.00752696042224,
H,left,Distractor,0,6,6,6,2091.377304601873,2093.3775654139454,left,1,4,0.7890732894757093,B19S05,2022-09-29_09h03.28.866,t1_Paradigm,2021.1.4,60.00752696042224,
P,left,Distractor,0,7,7,7,2094.8771350579864,2096.879243689904,left,1,4,0.7593342972368191,B19S05,2022-09-29_09h03.28.866,t1_Paradigm,2021.1.4,60.00752696042224,
G,left,Lure,0,8,8,8,2098.376955248434,2100.377836170881,right,0,4,1.244667708418092,B19S05,2022-09-29_09h03.28.866,t1_Paradigm,2021.1.4,60.00752696042224,
S,left,Distractor,0,9,9,9,2101.877080521637,2103.8783794491637,left,1,4,0.6882253133994709,B19S05,2022-09-29_09h03.28.866,t1_Paradigm,2021.1.4,60.00752696042224,
R,left,Pretarget,0,10,10,10,2105.376925413843,2107.377118536681,left,1,4,0.8374309914674996,B19S05,2022-09-29_09h03.28.866,t1_Paradigm,2021.1.4,60.00752696042224,
T,left,Pretarget,0,11,11,11,2108.877240281061,2110.8790216948805,left,1,4,0.8076849415838296,B19S05,2022-09-29_09h03.28.866,t1_Paradigm,2021.1.4,60.00752696042224,
X,left,Distractor,0,12,12,12,2112.377002406336,2114.37716056175,left,1,4,0.62142181396257,B19S05,2022-09-29_09h03.28.866,t1_Paradigm,2021.1.4,60.00752696042224,
F,left,Pretarget,0,13,13,13,2115.876779288506,2117.879114406675,left,1,4,0.6076090398169072,B19S05,2022-09-29_09h03.28.866,t1_Paradigm,2021.1.4,60.00752696042224,
R,right,Target,0,14,14,14,2119.3769863662333,2121.3786718602382,right,1,4,0.5481692307839694,B19S05,2022-09-29_09h03.28.866,t1_Paradigm,2021.1.4,60.00752696042224,
T,right,Target,0,15,15,15,2122.877154626912,2124.8798214544076,right,1,4,0.7587578159409532,B19S05,2022-09-29_09h03.28.866,t1_Paradigm,2021.1.4,60.00752696042224,
C,left,Distractor,0,16,16,16,2126.3769469075805,2128.378780291333,left,1,4,0.7479384457847118,B19S05,2022-09-29_09h03.28.866,t1_Paradigm,2021.1.4,60.00752696042224,
F,right,Target,0,17,17,17,2129.8771565517245,2131.8793084919193,left,0,4,1.2634275710761358,B19S05,2022-09-29_09h03.28.866,t1_Paradigm,2021.1.4,60.00752696042224,
M,left,Distractor,0,18,18,18,2133.376871519097,2135.3776911683512,left,1,4,0.8208589988348649,B19S05,2022-09-29_09h03.28.866,t1_Paradigm,2021.1.4,60.00752696042224,
N,left,Distractor,0,19,19,19,2136.8770830880535,2138.8790884217083,left,1,4,0.567458416835052,B19S05,2022-09-29_09h03.28.866,t1_Paradigm,2021.1.4,60.00752696042224,
R,left,Lure,0,20,20,20,2140.376858687015,2142.3766979651846,left,1,4,0.973696476983605,B19S05,2022-09-29_09h03.28.866,t1_Paradigm,2021.1.4,60.00752696042224,
F,right,Target,0,21,21,21,2143.8772486219145,2145.878234446634,left,0,4,0.6404575663896139,B19S05,2022-09-29_09h03.28.866,t1_Paradigm,2021.1.4,60.00752696042224,
P,left,Distractor,0,22,22,22,2147.3769648724956,2149.37765042649,left,1,4,0.6608971486152768,B19S05,2022-09-29_09h03.28.866,t1_Paradigm,2021.1.4,60.00752696042224,
L,left,Pretarget,0,23,23,23,2150.8771626469634,2152.879557434315,left,1,4,0.6149554069102123,B19S05,2022-09-29_09h03.28.866,t1_Paradigm,2021.1.4,60.00752696042224,
T,left,Distractor,0,24,24,24,2154.3770097847837,2156.3779009728964,left,1,4,0.7491578144013147,B19S05,2022-09-29_09h03.28.866,t1_Paradigm,2021.1.4,60.00752696042224,
F,left,Distractor,0,25,25,25,2157.8769364815134,2159.877910757359,right,0,4,1.4088086470269445,B19S05,2022-09-29_09h03.28.866,t1_Paradigm,2021.1.4,60.00752696042224,
V,left,Distractor,0,26,26,26,2161.3769927822746,2163.376686737113,left,1,4,0.6779676676437703,B19S05,2022-09-29_09h03.28.866,t1_Paradigm,2021.1.4,60.00752696042224,
L,right,Target,0,27,27,27,2164.8770988073543,2166.8776400004235,right,1,4,0.5528946450758667,B19S05,2022-09-29_09h03.28.866,t1_Paradigm,2021.1.4,60.00752696042224,
S,left,Pretarget,0,28,28,28,2168.3771069878067,2170.3773896144185,left,1,4,0.5093560315758623,B19S05,2022-09-29_09h03.28.866,t1_Paradigm,2021.1.4,60.00752696042224,
W,left,Distractor,0,29,29,29,2171.877147890069,2173.8901002730986,left,1,4,0.5966382510896437,B19S05,2022-09-29_09h03.28.866,t1_Paradigm,2021.1.4,60.00752696042224,
Q,left,Distractor,0,30,30,30,2175.3771612033543,2177.3793426573384,left,1,4,0.8831651742420945,B19S05,2022-09-29_09h03.28.866,t1_Paradigm,2021.1.4,60.00752696042224,
L,right,Target,0,31,31,31,2178.8770506870455,2180.8793386473126,right,1,4,0.5992409181740186,B19S05,2022-09-29_09h03.28.866,t1_Paradigm,2021.1.4,60.00752696042224,
S,right,Target,0,32,32,32,2182.377126877534,2184.378448902809,right,1,4,0.47622648240212584,B19S05,2022-09-29_09h03.28.866,t1_Paradigm,2021.1.4,60.00752696042224,
Z,left,Pretarget,0,33,33,33,2185.8770609527114,2187.8778209327834,left,1,4,0.5768691451621635,B19S05,2022-09-29_09h03.28.866,t1_Paradigm,2021.1.4,60.00752696042224,
F,left,Distractor,0,34,34,34,2189.376756030357,2191.3790038903667,left,1,4,0.675712429187115,B19S05,2022-09-29_09h03.28.866,t1_Paradigm,2021.1.4,60.00752696042224,
V,left,Distractor,0,35,35,35,2192.8769563712412,2194.8779248726496,left,1,4,0.5686251739148247,B19S05,2022-09-29_09h03.28.866,t1_Paradigm,2021.1.4,60.00752696042224,
M,left,Distractor,0,36,36,36,2196.377143238439,2198.379031479343,left,1,4,0.6195553875977566,B19S05,2022-09-29_09h03.28.866,t1_Paradigm,2021.1.4,60.00752696042224,
Z,right,Target,0,37,37,37,2199.8770715391793,2201.8789472688036,right,1,4,0.4958390369265544,B19S05,2022-09-29_09h03.28.866,t1_Paradigm,2021.1.4,60.00752696042224,
H,left,Pretarget,0,38,38,38,2203.376790035375,2205.3786631985827,left,1,4,0.5961211181747785,B19S05,2022-09-29_09h03.28.866,t1_Paradigm,2021.1.4,60.00752696042224,
L,left,Distractor,0,39,39,39,2206.877193764763,2208.8781635493797,left,1,4,0.9044295385551777,B19S05,2022-09-29_09h03.28.866,t1_Paradigm,2021.1.4,60.00752696042224,
G,left,Distractor,0,40,40,40,2210.377143238439,2212.378506967981,left,1,4,0.9080295792327888,B19S05,2022-09-29_09h03.28.866,t1_Paradigm,2021.1.4,60.00752696042224,
K,left,Distractor,0,41,41,41,2213.8771186970816,2215.879215459323,left,1,4,0.6235041401109811,B19S05,2022-09-29_09h03.28.866,t1_Paradigm,2021.1.4,60.00752696042224,
H,right,Target,0,42,42,42,2217.3771679401975,2219.3776622961664,left,0,4,0.6290472788446095,B19S05,2022-09-29_09h03.28.866,t1_Paradigm,2021.1.4,60.00752696042224,
B,left,Distractor,0,43,43,43,2220.876932631889,2222.878518356454,left,1,4,0.5360441962575351,B19S05,2022-09-29_09h03.28.866,t1_Paradigm,2021.1.4,60.00752696042224,
Z,left,Distractor,0,44,44,44,2224.376894616845,2226.3780129328143,left,1,4,0.79671736087721,B19S05,2022-09-29_09h03.28.866,t1_Paradigm,2021.1.4,60.00752696042224,
T,left,Pretarget,0,45,45,45,2227.877137303601,2229.877519699652,left,1,4,0.64108473440956,B19S05,2022-09-29_09h03.28.866,t1_Paradigm,2021.1.4,60.00752696042224,
H,right,Target,0,46,46,46,2231.376918035395,2233.37828529376,left,0,4,0.5321936091741009,B19S05,2022-09-29_09h03.28.866,t1_Paradigm,2021.1.4,60.00752696042224,
F,left,Distractor,0,47,47,47,2234.8768283712207,2236.878977744999,left,1,4,0.631502376982553,B19S05,2022-09-29_09h03.28.866,t1_Paradigm,2021.1.4,60.00752696042224,
R,left,Distractor,0,48,48,48,2238.376973213349,2240.3788216747985,left,1,4,0.5238537181121501,B19S05,2022-09-29_09h03.28.866,t1_Paradigm,2021.1.4,60.00752696042224,
T,right,Target,0,49,49,49,2241.877063519128,2243.8785812336573,right,1,4,0.5441576010680365,B19S05,2022-09-29_09h03.28.866,t1_Paradigm,2021.1.4,60.00752696042224,
H,right,Target,0,50,50,50,2245.377014596814,2247.378942937976,left,0,4,0.899878319779873,B19S05,2022-09-29_09h03.28.866,t1_Paradigm,2021.1.4,60.00752696042224,
Y,left,Pretarget,0,51,51,51,2248.8771527020995,2250.879663298994,left,1,4,0.807103648256998,B19S05,2022-09-29_09h03.28.866,t1_Paradigm,2021.1.4,60.00752696042224,
H,left,Distractor,0,52,52,52,2252.377046035416,2254.3789416547675,left,1,4,1.0034393188470858,B19S05,2022-09-29_09h03.28.866,t1_Paradigm,2021.1.4,60.00752696042224,
S,left,Distractor,0,53,53,53,2255.8772094840638,2257.8780721207936,left,1,4,0.8489282163695862,B19S05,2022-09-29_09h03.28.866,t1_Paradigm,2021.1.4,60.00752696042224,
Q,left,Distractor,0,54,54,54,2259.377070416372,2261.3788062762997,left,1,4,0.49974576437034557,B19S05,2022-09-29_09h03.28.866,t1_Paradigm,2021.1.4,60.00752696042224,
Y,right,Target,0,55,55,55,2262.876949634398,2264.87851931886,right,1,4,0.5680252740694414,B19S05,2022-09-29_09h03.28.866,t1_Paradigm,2021.1.4,60.00752696042224,
R,left,Distractor,0,56,56,56,2266.376841363704,2268.3779744365675,left,1,4,0.5087840415094433,B19S05,2022-09-29_09h03.28.866,t1_Paradigm,2021.1.4,60.00752696042224,
H,left,Pretarget,0,57,57,57,2269.876863659447,2271.8772412434673,left,1,4,0.5295553330615803,B19S05,2022-09-29_09h03.28.866,t1_Paradigm,2021.1.4,60.00752696042224,
J,left,Distractor,0,58,58,58,2273.3772651432205,2275.3775326921354,left,1,4,0.6771310158810593,B19S05,2022-09-29_09h03.28.866,t1_Paradigm,2021.1.4,60.00752696042224,
V,left,Distractor,0,59,59,59,2276.876927178254,2278.8770660855444,left,1,4,0.681725542933691,B19S05,2022-09-29_09h03.28.866,t1_Paradigm,2021.1.4,60.00752696042224,
Y,left,Lure,0,60,60,60,2280.376893333637,2282.378357474223,left,1,4,0.8922894263323542,B19S05,2022-09-29_09h03.28.866,t1_Paradigm,2021.1.4,60.00752696042224,
H,right,Target,0,61,61,61,2283.876949634398,2285.879132050788,left,0,4,0.6403375864201735,B19S05,2022-09-29_09h03.28.866,t1_Paradigm,2021.1.4,60.00752696042224,
L,left,Distractor,0,62,62,62,2287.3771512584904,2289.377324812403,left,1,4,0.5172625190593862,B19S05,2022-09-29_09h03.28.866,t1_Paradigm,2021.1.4,60.00752696042224,
P,left,Distractor,0,63,63,63,2290.8768338248556,2292.877905303724,left,1,4,0.4885311660800653,B19S05,2022-09-29_09h03.28.866,t1_Paradigm,2021.1.4,60.00752696042224,
