Letter,CorrAnswer,Stimulus,finaln_nback_run.thisRepN,finaln_nback_run.thisTrialN,finaln_nback_run.thisN,finaln_nback_run.thisIndex,finaln_fixcross.started,finaln_nback_trial.started,finaln_trial_resp.keys,finaln_trial_resp.corr,finaln_level,finaln_money,finaln_trial_resp.rt,Participant,date,expName,psychopyVersion,frameRate,
F,left,Distractor,0,0,0,0,2591.0507062938477,2593.0449668242554,None,0,3,3.0,,B19S05,2022-09-29_09h03.28.866,t1_Paradigm,2021.1.4,60.00752696042224,
P,left,Pretarget,0,1,1,1,2594.543584327793,2596.5456040975405,None,0,3,3.0,,B19S05,2022-09-29_09h03.28.866,t1_Paradigm,2021.1.4,60.00752696042224,
B,left,Distractor,0,2,2,2,2598.0438128992582,2600.045454122579,None,0,3,3.0,,B19S05,2022-09-29_09h03.28.866,t1_Paradigm,2021.1.4,60.00752696042224,
K,left,Pretarget,0,3,3,3,2601.543804718806,2603.545533200286,None,0,3,3.0,,B19S05,2022-09-29_09h03.28.866,t1_Paradigm,2021.1.4,60.00752696042224,
H,left,Distractor,0,4,4,4,2605.0435536911964,2607.056656209589,left,1,3,3.0,0.7100270211572024,B19S05,2022-09-29_09h03.28.866,t1_Paradigm,2021.1.4,60.00752696042224,
P,right,Target,0,5,5,5,2608.543783866672,2610.5439173203276,left,0,3,3.0,0.6468623794467021,B19S05,2022-09-29_09h03.28.866,t1_Paradigm,2021.1.4,60.00752696042224,
L,left,Distractor,0,6,6,6,2612.0435479167595,2614.0451625135097,left,1,3,3.0,0.7934823929394952,B19S05,2022-09-29_09h03.28.866,t1_Paradigm,2021.1.4,60.00752696042224,
K,right,Target,0,7,7,7,2615.543630202487,2617.5453667040188,right,1,3,3.0,0.5893486659606424,B19S05,2022-09-29_09h03.28.866,t1_Paradigm,2021.1.4,60.00752696042224,
Z,left,Pretarget,0,8,8,8,2619.043793009531,2621.045204859381,left,1,3,3.0,0.5934642355427968,B19S05,2022-09-29_09h03.28.866,t1_Paradigm,2021.1.4,60.00752696042224,
S,left,Pretarget,0,9,9,9,2622.5435663628778,2624.5448652904047,left,1,3,3.0,0.6299727927771528,B19S05,2022-09-29_09h03.28.866,t1_Paradigm,2021.1.4,60.00752696042224,
N,left,Distractor,0,10,10,10,2626.0435649192686,2628.0453030248104,left,1,3,3.0,0.5213800134547455,B19S05,2022-09-29_09h03.28.866,t1_Paradigm,2021.1.4,60.00752696042224,
M,left,Distractor,0,11,11,11,2629.543561871649,2631.5456063431548,left,1,3,3.0,0.6370692550685817,B19S05,2022-09-29_09h03.28.866,t1_Paradigm,2021.1.4,60.00752696042224,
Z,right,Target,0,12,12,12,2633.043794613541,2635.045328688975,right,1,3,3.0,0.7213705818739982,B19S05,2022-09-29_09h03.28.866,t1_Paradigm,2021.1.4,60.00752696042224,
S,right,Target,0,13,13,13,2636.543821721315,2638.5444504933453,right,1,3,3.0,0.6941068983028345,B19S05,2022-09-29_09h03.28.866,t1_Paradigm,2021.1.4,60.00752696042224,
Q,left,Distractor,0,14,14,14,2640.043952768955,2642.045777491052,left,1,3,3.0,0.5049324920191793,B19S05,2022-09-29_09h03.28.866,t1_Paradigm,2021.1.4,60.00752696042224,
V,left,Lure,0,15,15,15,2643.5437354255614,2645.54528425789,left,1,3,3.0,0.7974760577408233,B19S05,2022-09-29_09h03.28.866,t1_Paradigm,2021.1.4,60.00752696042224,
Z,right,Target,0,16,16,16,2647.043299295166,2649.045454443381,left,0,3,3.0,0.5619810425232572,B19S05,2022-09-29_09h03.28.866,t1_Paradigm,2021.1.4,60.00752696042224,
X,left,Distractor,0,17,17,17,2650.5431733803584,2652.544053661202,left,1,3,3.0,0.5345880757236046,B19S05,2022-09-29_09h03.28.866,t1_Paradigm,2021.1.4,60.00752696042224,
V,left,Pretarget,0,18,18,18,2654.043810332842,2656.044243415618,left,1,3,3.0,1.066550707416809,B19S05,2022-09-29_09h03.28.866,t1_Paradigm,2021.1.4,60.00752696042224,
E,left,Distractor,0,19,19,19,2657.5438547639264,2659.545094343073,left,1,3,3.0,0.8296820177934023,B19S05,2022-09-29_09h03.28.866,t1_Paradigm,2021.1.4,60.00752696042224,
R,left,Distractor,0,20,20,20,2661.0434840771504,2663.0453075160394,left,1,3,3.0,1.073579480474109,B19S05,2022-09-29_09h03.28.866,t1_Paradigm,2021.1.4,60.00752696042224,
G,left,Distractor,0,21,21,21,2664.54379445314,2666.5565979840158,left,1,3,3.0,0.8418955936876955,B19S05,2022-09-29_09h03.28.866,t1_Paradigm,2021.1.4,60.00752696042224,
V,right,Target,0,22,22,22,2668.0436521774277,2670.045083275402,left,0,3,3.0,0.7137598738863744,B19S05,2022-09-29_09h03.28.866,t1_Paradigm,2021.1.4,60.00752696042224,
T,left,Pretarget,0,23,23,23,2671.5437678265694,2673.544283676276,left,1,3,3.0,0.8305709602918796,B19S05,2022-09-29_09h03.28.866,t1_Paradigm,2021.1.4,60.00752696042224,
B,left,Distractor,0,24,24,24,2675.0436444781785,2677.0461191452423,left,1,3,3.0,0.6566885464362713,B19S05,2022-09-29_09h03.28.866,t1_Paradigm,2021.1.4,60.00752696042224,
S,left,Pretarget,0,25,25,25,2678.5438214005126,2680.545061942065,left,1,3,3.0,0.6297799907420085,B19S05,2022-09-29_09h03.28.866,t1_Paradigm,2021.1.4,60.00752696042224,
G,left,Lure,0,26,26,26,2682.043816107279,2684.045623506065,right,0,3,3.0,0.8411891875593938,B19S05,2022-09-29_09h03.28.866,t1_Paradigm,2021.1.4,60.00752696042224,
T,right,Target,0,27,27,27,2685.543726443104,2687.545896989818,right,1,3,3.0,0.7328469546419001,B19S05,2022-09-29_09h03.28.866,t1_Paradigm,2021.1.4,60.00752696042224,
H,left,Distractor,0,28,28,28,2689.043691636081,2691.04423122514,left,1,3,3.0,0.6585729377156895,B19S05,2022-09-29_09h03.28.866,t1_Paradigm,2021.1.4,60.00752696042224,
S,right,Target,0,29,29,29,2692.5437752050166,2694.545312809273,right,1,3,3.0,0.6932519608226357,B19S05,2022-09-29_09h03.28.866,t1_Paradigm,2021.1.4,60.00752696042224,
D,left,Distractor,0,30,30,30,2696.043750342857,2698.045045099957,left,1,3,3.0,0.5696004121664373,B19S05,2022-09-29_09h03.28.866,t1_Paradigm,2021.1.4,60.00752696042224,
Z,left,Distractor,0,31,31,31,2699.5434322676183,2701.54497692952,left,1,3,3.0,0.66972690441753,B19S05,2022-09-29_09h03.28.866,t1_Paradigm,2021.1.4,60.00752696042224,
J,left,Pretarget,0,32,32,32,2703.043754513284,2705.045568007309,left,1,3,3.0,0.5612014935263687,B19S05,2022-09-29_09h03.28.866,t1_Paradigm,2021.1.4,60.00752696042224,
C,left,Pretarget,0,33,33,33,2706.543639505747,2708.5437521072686,left,1,3,3.0,0.8067010416766607,B19S05,2022-09-29_09h03.28.866,t1_Paradigm,2021.1.4,60.00752696042224,
H,left,Distractor,0,34,34,34,2710.0438039168007,2712.0452542628977,left,1,3,3.0,0.8894753506924644,B19S05,2022-09-29_09h03.28.866,t1_Paradigm,2021.1.4,60.00752696042224,
B,left,Pretarget,0,35,35,35,2713.5433196660965,2715.545249611268,left,1,3,3.0,0.6215180545796102,B19S05,2022-09-29_09h03.28.866,t1_Paradigm,2021.1.4,60.00752696042224,
J,right,Target,0,36,36,36,2717.0436239468468,2719.044281911865,right,1,3,3.0,0.7543795094743473,B19S05,2022-09-29_09h03.28.866,t1_Paradigm,2021.1.4,60.00752696042224,
C,right,Target,0,37,37,37,2720.5434900119885,2722.5460525788153,left,0,3,3.0,0.7404672866914552,B19S05,2022-09-29_09h03.28.866,t1_Paradigm,2021.1.4,60.00752696042224,
H,left,Distractor,0,38,38,38,2724.043760929325,2726.0456514158436,left,1,3,3.0,0.5849620186404536,B19S05,2022-09-29_09h03.28.866,t1_Paradigm,2021.1.4,60.00752696042224,
B,right,Target,0,39,39,39,2727.5435801573663,2729.544203796564,right,1,3,3.0,1.0225385900816946,B19S05,2022-09-29_09h03.28.866,t1_Paradigm,2021.1.4,60.00752696042224,
F,left,Pretarget,0,40,40,40,2731.04360726514,2733.0454913356175,left,1,3,3.0,0.9293577831549555,B19S05,2022-09-29_09h03.28.866,t1_Paradigm,2021.1.4,60.00752696042224,
M,left,Distractor,0,41,41,41,2734.5439227739625,2736.5457972203785,left,1,3,3.0,0.6769603491866292,B19S05,2022-09-29_09h03.28.866,t1_Paradigm,2021.1.4,60.00752696042224,
W,left,Pretarget,0,42,42,42,2738.0438096912376,2740.044329711371,left,1,3,3.0,0.6663937710504797,B19S05,2022-09-29_09h03.28.866,t1_Paradigm,2021.1.4,60.00752696042224,
Z,left,Distractor,0,43,43,43,2741.5436549042456,2743.5444036562453,left,1,3,3.0,0.6063781223265323,B19S05,2022-09-29_09h03.28.866,t1_Paradigm,2021.1.4,60.00752696042224,
F,right,Target,0,44,44,44,2745.0438141824666,2747.0452234659006,right,1,3,3.0,0.8976349509989632,B19S05,2022-09-29_09h03.28.866,t1_Paradigm,2021.1.4,60.00752696042224,
B,left,Lure,0,45,45,45,2748.543824929335,2750.5457535912988,left,1,3,3.0,1.189065654386468,B19S05,2022-09-29_09h03.28.866,t1_Paradigm,2021.1.4,60.00752696042224,
W,right,Target,0,46,46,46,2752.0438074456233,2754.044431084821,left,0,3,3.0,0.6663363474826838,B19S05,2022-09-29_09h03.28.866,t1_Paradigm,2021.1.4,60.00752696042224,
X,left,Distractor,0,47,47,47,2755.5438307037725,2757.5445515459933,left,1,3,3.0,0.6221756987947629,B19S05,2022-09-29_09h03.28.866,t1_Paradigm,2021.1.4,60.00752696042224,
T,left,Distractor,0,48,48,48,2759.043795255145,2761.0462561277204,left,1,3,3.0,0.6885499650807105,B19S05,2022-09-29_09h03.28.866,t1_Paradigm,2021.1.4,60.00752696042224,
L,left,Pretarget,0,49,49,49,2762.5438201173047,2764.54464778661,left,1,3,3.0,0.5019801506932708,B19S05,2022-09-29_09h03.28.866,t1_Paradigm,2021.1.4,60.00752696042224,
J,left,Distractor,0,50,50,50,2766.043586413007,2768.0454220423735,left,1,3,3.0,0.6172327807089459,B19S05,2022-09-29_09h03.28.866,t1_Paradigm,2021.1.4,60.00752696042224,
Z,left,Distractor,0,51,51,51,2769.5437620521325,2771.5448283981677,left,1,3,3.0,0.7656512105313595,B19S05,2022-09-29_09h03.28.866,t1_Paradigm,2021.1.4,60.00752696042224,
P,left,Pretarget,0,52,52,52,2773.043504608482,2775.0455856514227,left,1,3,3.0,0.7051460178681737,B19S05,2022-09-29_09h03.28.866,t1_Paradigm,2021.1.4,60.00752696042224,
L,right,Target,0,53,53,53,2776.54377424261,2778.54441680913,left,0,3,3.0,0.5984225521278859,B19S05,2022-09-29_09h03.28.866,t1_Paradigm,2021.1.4,60.00752696042224,
V,left,Distractor,0,54,54,54,2780.043855565932,2782.0456517366456,left,1,3,3.0,0.5850412567488092,B19S05,2022-09-29_09h03.28.866,t1_Paradigm,2021.1.4,60.00752696042224,
F,left,Distractor,0,55,55,55,2783.5437726386,2785.5437771298293,left,1,3,3.0,0.6069963078889486,B19S05,2022-09-29_09h03.28.866,t1_Paradigm,2021.1.4,60.00752696042224,
P,right,Target,0,56,56,56,2787.043739756389,2789.044407345469,right,1,3,3.0,0.6742081883448918,B19S05,2022-09-29_09h03.28.866,t1_Paradigm,2021.1.4,60.00752696042224,
T,left,Pretarget,0,57,57,57,2790.543972819083,2792.5451876964717,left,1,3,3.0,0.853376457684135,B19S05,2022-09-29_09h03.28.866,t1_Paradigm,2021.1.4,60.00752696042224,
D,left,Distractor,0,58,58,58,2794.0439255007805,2796.044978373129,left,1,3,3.0,0.5857492668865234,B19S05,2022-09-29_09h03.28.866,t1_Paradigm,2021.1.4,60.00752696042224,
V,left,Distractor,0,59,59,59,2797.5436427137674,2799.5432516560604,right,0,3,3.0,1.1033996356327407,B19S05,2022-09-29_09h03.28.866,t1_Paradigm,2021.1.4,60.00752696042224,
Z,left,Distractor,0,60,60,60,2801.043884438117,2803.056462445147,left,1,3,3.0,0.6303766825667481,B19S05,2022-09-29_09h03.28.866,t1_Paradigm,2021.1.4,60.00752696042224,
T,right,Target,0,61,61,61,2804.5433979417985,2806.544384408122,right,1,3,3.0,1.0464421929127639,B19S05,2022-09-29_09h03.28.866,t1_Paradigm,2021.1.4,60.00752696042224,
B,left,Distractor,0,62,62,62,2808.0435780721527,2810.0445019820754,left,1,3,3.0,0.666198402597729,B19S05,2022-09-29_09h03.28.866,t1_Paradigm,2021.1.4,60.00752696042224,
J,left,Distractor,0,63,63,63,2811.543811455649,2813.5446750547853,left,1,3,3.0,0.6859870774515002,B19S05,2022-09-29_09h03.28.866,t1_Paradigm,2021.1.4,60.00752696042224,
