Letter,CorrAnswer,Stimulus,nback_run.thisRepN,nback_run.thisTrialN,nback_run.thisN,nback_run.thisIndex,fixcross.started,nback_trial.started,trial_resp.keys,trial_resp.corr,currentlevel,trial_resp.rt,Participant,date,expName,psychopyVersion,frameRate,
H,left,Distractor,0,0,0,0,209.05649044550955,210.99046863481635,None,0,1,,B20S10,2022-11-02_12h55.25.283,t1_Paradigm,2021.1.4,60.05159088234339,
Q,left,Pretarget,0,1,1,1,212.49446070200065,214.47549453319516,left,1,1,0.812369633873459,B20S10,2022-11-02_12h55.25.283,t1_Paradigm,2021.1.4,60.05159088234339,
Q,right,Target,0,2,2,2,215.9900368345552,217.98980649828445,right,1,1,0.8339727998245507,B20S10,2022-11-02_12h55.25.283,t1_Paradigm,2021.1.4,60.05159088234339,
T,left,Distractor,0,3,3,3,219.490188894968,221.49120295187458,left,1,1,0.9163728649728,B20S10,2022-11-02_12h55.25.283,t1_Paradigm,2021.1.4,60.05159088234339,
Q,left,Lure,0,4,4,4,222.98980746068992,224.99121546314564,left,1,1,1.049124818528071,B20S10,2022-11-02_12h55.25.283,t1_Paradigm,2021.1.4,60.05159088234339,
L,left,Distractor,0,5,5,5,226.4897869293345,228.4903188199969,left,1,1,0.9414673252613284,B20S10,2022-11-02_12h55.25.283,t1_Paradigm,2021.1.4,60.05159088234339,
V,left,Pretarget,0,6,6,6,229.9898103479063,231.99168800533516,left,1,1,0.9921021615155041,B20S10,2022-11-02_12h55.25.283,t1_Paradigm,2021.1.4,60.05159088234339,
V,right,Target,0,7,7,7,233.48987996205688,235.490314328752,right,1,1,0.9495477004675195,B20S10,2022-11-02_12h55.25.283,t1_Paradigm,2021.1.4,60.05159088234339,
K,left,Distractor,0,8,8,8,236.98994668899104,238.99201843200717,left,1,1,1.0157530102296732,B20S10,2022-11-02_12h55.25.283,t1_Paradigm,2021.1.4,60.05159088234339,
G,left,Pretarget,0,9,9,9,240.49014109536074,242.49215381068643,left,1,1,1.0036616405122913,B20S10,2022-11-02_12h55.25.283,t1_Paradigm,2021.1.4,60.05159088234339,
G,right,Target,0,10,10,10,243.9901683635544,245.99014109536074,right,1,1,1.0737207516795024,B20S10,2022-11-02_12h55.25.283,t1_Paradigm,2021.1.4,60.05159088234339,
G,right,Target,0,11,11,11,247.47360917646438,249.473498499603,right,1,1,0.7263092113425955,B20S10,2022-11-02_12h55.25.283,t1_Paradigm,2021.1.4,60.05159088234339,
P,left,Pretarget,0,12,12,12,250.97353025904158,252.97493794071488,left,1,1,1.2409740592702292,B20S10,2022-11-02_12h55.25.283,t1_Paradigm,2021.1.4,60.05159088234339,
P,right,Target,0,13,13,13,254.47350363241276,256.47322421340505,right,1,1,0.9586183931678534,B20S10,2022-11-02_12h55.25.283,t1_Paradigm,2021.1.4,60.05159088234339,
G,left,Lure,0,14,14,14,257.9732354414882,259.9734490959672,left,1,1,1.0105191163020208,B20S10,2022-11-02_12h55.25.283,t1_Paradigm,2021.1.4,60.05159088234339,
Y,left,Distractor,0,15,15,15,261.4733056972618,263.49286021792796,left,1,1,0.9469662021729164,B20S10,2022-11-02_12h55.25.283,t1_Paradigm,2021.1.4,60.05159088234339,
B,left,Distractor,0,16,16,16,264.9899011350353,266.9901741380454,left,1,1,0.8736932909232564,B20S10,2022-11-02_12h55.25.283,t1_Paradigm,2021.1.4,60.05159088234339,
T,left,Pretarget,0,17,17,17,268.4735408455017,270.47350331163034,left,1,1,0.8624584641074762,B20S10,2022-11-02_12h55.25.283,t1_Paradigm,2021.1.4,60.05159088234339,
T,right,Target,0,18,18,18,271.9735572064528,273.97339231392834,right,1,1,1.0744704672251828,B20S10,2022-11-02_12h55.25.283,t1_Paradigm,2021.1.4,60.05159088234339,
S,left,Distractor,0,19,19,19,275.47314850398107,277.47511566535104,left,1,1,0.6607766245142557,B20S10,2022-11-02_12h55.25.283,t1_Paradigm,2021.1.4,60.05159088234339,
T,left,Lure,0,20,20,20,278.98990434309235,280.9752805578755,None,0,1,,B20S10,2022-11-02_12h55.25.283,t1_Paradigm,2021.1.4,60.05159088234339,
J,left,Distractor,0,21,21,21,282.490168042772,284.4910585907055,left,1,1,0.9728851250838488,B20S10,2022-11-02_12h55.25.283,t1_Paradigm,2021.1.4,60.05159088234339,
P,left,Distractor,0,22,22,22,285.973697076377,287.97324923600536,left,1,1,1.170539929997176,B20S10,2022-11-02_12h55.25.283,t1_Paradigm,2021.1.4,60.05159088234339,
F,left,Distractor,0,23,23,23,289.4732864490943,291.4751878459356,left,1,1,0.6128131112782285,B20S10,2022-11-02_12h55.25.283,t1_Paradigm,2021.1.4,60.05159088234339,
L,left,Distractor,0,24,24,24,292.9899640123476,294.990311762318,left,1,1,1.0334911468089558,B20S10,2022-11-02_12h55.25.283,t1_Paradigm,2021.1.4,60.05159088234339,
W,left,Pretarget,0,25,25,25,296.48989985184744,298.4922439561924,left,1,1,0.6196484516840428,B20S10,2022-11-02_12h55.25.283,t1_Paradigm,2021.1.4,60.05159088234339,
W,right,Target,0,26,26,26,299.9899957717862,301.99005479947664,right,1,1,1.0738917394191958,B20S10,2022-11-02_12h55.25.283,t1_Paradigm,2021.1.4,60.05159088234339,
V,left,Distractor,0,27,27,27,303.47371087089414,305.4735042740358,left,1,1,0.646500589326024,B20S10,2022-11-02_12h55.25.283,t1_Paradigm,2021.1.4,60.05159088234339,
W,left,Lure,0,28,28,28,306.9732716921717,308.9749658505316,None,0,1,,B20S10,2022-11-02_12h55.25.283,t1_Paradigm,2021.1.4,60.05159088234339,
R,left,Pretarget,0,29,29,29,310.4900631403434,312.49209863267606,left,1,1,0.7798123433603905,B20S10,2022-11-02_12h55.25.283,t1_Paradigm,2021.1.4,60.05159088234339,
R,right,Target,0,30,30,30,313.9737233821652,315.97360757243587,right,1,1,0.46665128954919055,B20S10,2022-11-02_12h55.25.283,t1_Paradigm,2021.1.4,60.05159088234339,
G,left,Distractor,0,31,31,31,317.47334868478356,319.4749568681,left,1,1,0.5328184238169342,B20S10,2022-11-02_12h55.25.283,t1_Paradigm,2021.1.4,60.05159088234339,
R,left,Lure,0,32,32,32,320.9737115125172,322.9738144901348,left,1,1,0.9380895950016566,B20S10,2022-11-02_12h55.25.283,t1_Paradigm,2021.1.4,60.05159088234339,
S,left,Distractor,0,33,33,33,324.47374327195575,326.4736605048529,left,1,1,0.8144080133643001,B20S10,2022-11-02_12h55.25.283,t1_Paradigm,2021.1.4,60.05159088234339,
R,left,Lure,0,34,34,34,327.973296714772,329.9747557248338,left,1,1,0.9133204285171814,B20S10,2022-11-02_12h55.25.283,t1_Paradigm,2021.1.4,60.05159088234339,
P,left,Pretarget,0,35,35,35,331.4902485642233,333.4734426799114,left,1,1,1.0783711057156324,B20S10,2022-11-02_12h55.25.283,t1_Paradigm,2021.1.4,60.05159088234339,
P,right,Target,0,36,36,36,334.97339969238965,336.9736515224213,right,1,1,0.8263806861359626,B20S10,2022-11-02_12h55.25.283,t1_Paradigm,2021.1.4,60.05159088234339,
Y,left,Pretarget,0,37,37,37,338.4736653169384,340.4754537912668,left,1,1,0.556565513368696,B20S10,2022-11-02_12h55.25.283,t1_Paradigm,2021.1.4,60.05159088234339,
Y,right,Target,0,38,38,38,341.9737516128225,343.97311032848665,right,1,1,0.7548093117657118,B20S10,2022-11-02_12h55.25.283,t1_Paradigm,2021.1.4,60.05159088234339,
J,left,Distractor,0,39,39,39,345.4735469407751,347.4748490783968,left,1,1,0.5652804359560832,B20S10,2022-11-02_12h55.25.283,t1_Paradigm,2021.1.4,60.05159088234339,
Y,left,Lure,0,40,40,40,348.9736653169384,350.9750389935216,left,1,1,0.9527679166640155,B20S10,2022-11-02_12h55.25.283,t1_Paradigm,2021.1.4,60.05159088234339,
T,left,Distractor,0,41,41,41,352.4898960022256,354.490442970593,left,1,1,0.6695666150189936,B20S10,2022-11-02_12h55.25.283,t1_Paradigm,2021.1.4,60.05159088234339,
V,left,Distractor,0,42,42,42,355.97363804868655,357.97333200305,left,1,1,1.0427138999220915,B20S10,2022-11-02_12h55.25.283,t1_Paradigm,2021.1.4,60.05159088234339,
N,left,Pretarget,0,43,43,43,359.4735581688583,361.47520645248005,left,1,1,0.756790267652832,B20S10,2022-11-02_12h55.25.283,t1_Paradigm,2021.1.4,60.05159088234339,
N,right,Target,0,44,44,44,362.9898995310068,364.99026717076777,right,1,1,0.7457665288238786,B20S10,2022-11-02_12h55.25.283,t1_Paradigm,2021.1.4,60.05159088234339,
N,right,Target,0,45,45,45,366.4732922235271,368.4738183397567,right,1,1,0.5103401084779762,B20S10,2022-11-02_12h55.25.283,t1_Paradigm,2021.1.4,60.05159088234339,
X,left,Distractor,0,46,46,46,369.9736489559873,371.9752686881693,left,1,1,0.640742503979709,B20S10,2022-11-02_12h55.25.283,t1_Paradigm,2021.1.4,60.05159088234339,
Z,left,Distractor,0,47,47,47,373.4898966437904,375.49196261237375,left,1,1,0.708095324516762,B20S10,2022-11-02_12h55.25.283,t1_Paradigm,2021.1.4,60.05159088234339,
H,left,Pretarget,0,48,48,48,376.9900878421613,378.9906261488795,left,1,1,0.8415135850664228,B20S10,2022-11-02_12h55.25.283,t1_Paradigm,2021.1.4,60.05159088234339,
H,right,Target,0,49,49,49,380.4738517032238,382.4739197133458,right,1,1,0.7340405532740988,B20S10,2022-11-02_12h55.25.283,t1_Paradigm,2021.1.4,60.05159088234339,
K,left,Distractor,0,50,50,50,383.9734532664297,385.9746235542116,left,1,1,0.5772848681663163,B20S10,2022-11-02_12h55.25.283,t1_Paradigm,2021.1.4,60.05159088234339,
V,left,Pretarget,0,51,51,51,387.49003715533763,389.4904477826203,left,1,1,0.6614756532944739,B20S10,2022-11-02_12h55.25.283,t1_Paradigm,2021.1.4,60.05159088234339,
V,right,Target,0,52,52,52,390.99013371689944,392.973714720516,right,1,1,0.8744811820215546,B20S10,2022-11-02_12h55.25.283,t1_Paradigm,2021.1.4,60.05159088234339,
R,left,Distractor,0,53,53,53,394.47381609410513,396.4736983595649,left,1,1,0.8304507083375938,B20S10,2022-11-02_12h55.25.283,t1_Paradigm,2021.1.4,60.05159088234339,
V,left,Lure,0,54,54,54,397.97338974749437,399.9752147933468,left,1,1,0.6409577624872327,B20S10,2022-11-02_12h55.25.283,t1_Paradigm,2021.1.4,60.05159088234339,
Y,left,Distractor,0,55,55,55,401.47373172303196,403.4750328983064,left,1,1,0.8371477828477509,B20S10,2022-11-02_12h55.25.283,t1_Paradigm,2021.1.4,60.05159088234339,
Q,left,Distractor,0,56,56,56,404.97371985338395,406.97428542829584,left,1,1,0.697977211442776,B20S10,2022-11-02_12h55.25.283,t1_Paradigm,2021.1.4,60.05159088234339,
Z,left,Pretarget,0,57,57,57,408.4736858482938,410.47502487822203,left,1,1,0.589047736080829,B20S10,2022-11-02_12h55.25.283,t1_Paradigm,2021.1.4,60.05159088234339,
Z,right,Target,0,58,58,58,411.9899229496368,413.9737820890732,right,1,1,0.5782421430922113,B20S10,2022-11-02_12h55.25.283,t1_Paradigm,2021.1.4,60.05159088234339,
B,left,Distractor,0,59,59,59,415.4734295270173,417.4733416271047,left,1,1,0.710740341746714,B20S10,2022-11-02_12h55.25.283,t1_Paradigm,2021.1.4,60.05159088234339,
S,left,Pretarget,0,60,60,60,418.97379748756066,420.97436883696355,left,1,1,0.8096129773766734,B20S10,2022-11-02_12h55.25.283,t1_Paradigm,2021.1.4,60.05159088234339,
S,right,Target,0,61,61,61,422.4737891466939,424.4734542288352,right,1,1,0.6386470215511508,B20S10,2022-11-02_12h55.25.283,t1_Paradigm,2021.1.4,60.05159088234339,
T,left,Distractor,0,62,62,62,425.9734940083581,427.9752949939575,left,1,1,1.0408570946310647,B20S10,2022-11-02_12h55.25.283,t1_Paradigm,2021.1.4,60.05159088234339,
D,left,Distractor,0,63,63,63,429.49022322084056,431.5031249378226,left,1,1,0.5851410023751669,B20S10,2022-11-02_12h55.25.283,t1_Paradigm,2021.1.4,60.05159088234339,
R,left,Distractor,0,0,0,0,454.19674757518806,456.1903809273499,None,0,1,,B20S10,2022-11-02_12h55.25.283,t1_Paradigm,2021.1.4,60.05159088234339,
V,left,Distractor,0,1,1,1,457.6904595239903,459.69064783508657,left,1,1,0.5415140983532183,B20S10,2022-11-02_12h55.25.283,t1_Paradigm,2021.1.4,60.05159088234339,
N,left,Pretarget,0,2,2,2,461.19023688702146,463.1928042700165,left,1,1,0.7036435473128222,B20S10,2022-11-02_12h55.25.283,t1_Paradigm,2021.1.4,60.05159088234339,
N,right,Target,0,3,3,3,464.6902218093164,466.6904993035132,right,1,1,0.5176001914660446,B20S10,2022-11-02_12h55.25.283,t1_Paradigm,2021.1.4,60.05159088234339,
S,left,Distractor,0,4,4,4,468.1901310221874,470.189653988753,left,1,1,0.45863347087288275,B20S10,2022-11-02_12h55.25.283,t1_Paradigm,2021.1.4,60.05159088234339,
N,left,Lure,0,5,5,5,471.6905310629518,473.6905576895806,left,1,1,0.8774717036285438,B20S10,2022-11-02_12h55.25.283,t1_Paradigm,2021.1.4,60.05159088234339,
Z,left,Distractor,0,6,6,6,475.19014898710884,477.1929245709325,left,1,1,0.54352264321642,B20S10,2022-11-02_12h55.25.283,t1_Paradigm,2021.1.4,60.05159088234339,
L,left,Pretarget,0,7,7,7,478.69023528299294,480.6915852202219,left,1,1,0.6446928668301553,B20S10,2022-11-02_12h55.25.283,t1_Paradigm,2021.1.4,60.05159088234339,
L,right,Target,0,8,8,8,482.1900360645959,484.1902962354943,right,1,1,0.6980558080831543,B20S10,2022-11-02_12h55.25.283,t1_Paradigm,2021.1.4,60.05159088234339,
H,left,Distractor,0,9,9,9,485.6903414686676,487.69027217529947,left,1,1,0.7179259985568933,B20S10,2022-11-02_12h55.25.283,t1_Paradigm,2021.1.4,60.05159088234339,
L,left,Lure,0,10,10,10,489.1906658000662,491.1914402174298,left,1,1,0.7207480987417512,B20S10,2022-11-02_12h55.25.283,t1_Paradigm,2021.1.4,60.05159088234339,
X,left,Pretarget,0,11,11,11,492.6903600752121,494.6917914962978,left,1,1,0.5966016741585918,B20S10,2022-11-02_12h55.25.283,t1_Paradigm,2021.1.4,60.05159088234339,
X,right,Target,0,12,12,12,496.19034916791134,498.1903854185948,right,1,1,0.777885603136383,B20S10,2022-11-02_12h55.25.283,t1_Paradigm,2021.1.4,60.05159088234339,
X,right,Target,0,13,13,13,499.6902766665444,501.6905339501682,right,1,1,0.7499940652051009,B20S10,2022-11-02_12h55.25.283,t1_Paradigm,2021.1.4,60.05159088234339,
R,left,Distractor,0,14,14,14,503.19072707335,505.19279175868724,left,1,1,1.0554654813022353,B20S10,2022-11-02_12h55.25.283,t1_Paradigm,2021.1.4,60.05159088234339,
T,left,Distractor,0,15,15,15,506.69059907313203,508.6902285461547,left,1,1,0.5665835360414349,B20S10,2022-11-02_12h55.25.283,t1_Paradigm,2021.1.4,60.05159088234339,
V,left,Pretarget,0,16,16,16,510.1901993530919,512.1898666808265,left,1,1,0.6984831171575934,B20S10,2022-11-02_12h55.25.283,t1_Paradigm,2021.1.4,60.05159088234339,
V,right,Target,0,17,17,17,513.6905798249645,515.6903802857851,right,1,1,1.069751461443957,B20S10,2022-11-02_12h55.25.283,t1_Paradigm,2021.1.4,60.05159088234339,
N,left,Distractor,0,18,18,18,517.1905066819745,519.1912602472003,None,0,1,,B20S10,2022-11-02_12h55.25.283,t1_Paradigm,2021.1.4,60.05159088234339,
B,left,Distractor,0,19,19,19,520.6906289077597,522.689996285073,left,1,1,1.078177661751397,B20S10,2022-11-02_12h55.25.283,t1_Paradigm,2021.1.4,60.05159088234339,
V,left,Lure,0,20,20,20,524.1902647968382,526.1897919338662,left,1,1,0.9863848180393688,B20S10,2022-11-02_12h55.25.283,t1_Paradigm,2021.1.4,60.05159088234339,
P,left,Distractor,0,21,21,21,527.6907883466338,529.6907761561451,left,1,1,0.9255863148136996,B20S10,2022-11-02_12h55.25.283,t1_Paradigm,2021.1.4,60.05159088234339,
K,left,Pretarget,0,22,22,22,531.1906991635333,533.1898108611931,left,1,1,0.7064666099031456,B20S10,2022-11-02_12h55.25.283,t1_Paradigm,2021.1.4,60.05159088234339,
K,right,Target,0,23,23,23,534.6899908314226,536.6903895890573,right,1,1,0.59801128070103,B20S10,2022-11-02_12h55.25.283,t1_Paradigm,2021.1.4,60.05159088234339,
J,left,Pretarget,0,24,24,24,538.190250360698,540.1919814113644,left,1,1,0.6485270991688594,B20S10,2022-11-02_12h55.25.283,t1_Paradigm,2021.1.4,60.05159088234339,
J,right,Target,0,25,25,25,541.690525288519,543.6906568175764,right,1,1,0.7495860042399727,B20S10,2022-11-02_12h55.25.283,t1_Paradigm,2021.1.4,60.05159088234339,
H,left,Distractor,0,26,26,26,545.1906593840104,547.1898082947591,left,1,1,0.6105838542571291,B20S10,2022-11-02_12h55.25.283,t1_Paradigm,2021.1.4,60.05159088234339,
J,left,Lure,0,27,27,27,548.6906407774659,550.6912974602892,left,1,1,0.8689598490018398,B20S10,2022-11-02_12h55.25.283,t1_Paradigm,2021.1.4,60.05159088234339,
V,left,Distractor,0,28,28,28,552.1904409174458,554.1899985307246,left,1,1,0.7782519595930353,B20S10,2022-11-02_12h55.25.283,t1_Paradigm,2021.1.4,60.05159088234339,
Z,left,Pretarget,0,29,29,29,555.690399213112,557.6918450702797,left,1,1,0.8286307954112999,B20S10,2022-11-02_12h55.25.283,t1_Paradigm,2021.1.4,60.05159088234339,
Z,right,Target,0,30,30,30,559.1904136492522,561.1904572783969,right,1,1,0.6899282749509439,B20S10,2022-11-02_12h55.25.283,t1_Paradigm,2021.1.4,60.05159088234339,
T,left,Distractor,0,31,31,31,562.690853148757,564.6902872530045,left,1,1,1.1900565960095264,B20S10,2022-11-02_12h55.25.283,t1_Paradigm,2021.1.4,60.05159088234339,
Z,left,Lure,0,32,32,32,566.1903321653954,568.190691785072,left,1,1,0.9377068775938824,B20S10,2022-11-02_12h55.25.283,t1_Paradigm,2021.1.4,60.05159088234339,
F,left,Distractor,0,33,33,33,569.6906523263315,571.6916461727233,left,1,1,0.6530334128765389,B20S10,2022-11-02_12h55.25.283,t1_Paradigm,2021.1.4,60.05159088234339,
Y,left,Pretarget,0,34,34,34,573.1907020507497,575.1901537991362,left,1,1,0.7222221865667962,B20S10,2022-11-02_12h55.25.283,t1_Paradigm,2021.1.4,60.05159088234339,
Y,right,Target,0,35,35,35,576.6904460503138,578.6903921554331,right,1,1,0.5338546161656268,B20S10,2022-11-02_12h55.25.283,t1_Paradigm,2021.1.4,60.05159088234339,
Y,right,Target,0,36,36,36,580.190420065308,582.1904620904243,right,1,1,0.585874357027933,B20S10,2022-11-02_12h55.25.283,t1_Paradigm,2021.1.4,60.05159088234339,
W,left,Distractor,0,37,37,37,583.690631153353,585.690233358182,left,1,1,0.8942971568903886,B20S10,2022-11-02_12h55.25.283,t1_Paradigm,2021.1.4,60.05159088234339,
Q,left,Distractor,0,38,38,38,587.1904040251393,589.1900453678682,left,1,1,0.8667703714454547,B20S10,2022-11-02_12h55.25.283,t1_Paradigm,2021.1.4,60.05159088234339,
P,left,Pretarget,0,39,39,39,590.6904466918786,592.6906619504443,left,1,1,0.7097670267685317,B20S10,2022-11-02_12h55.25.283,t1_Paradigm,2021.1.4,60.05159088234339,
P,right,Target,0,40,40,40,594.1904165364685,596.1906455894932,right,1,1,0.6658093752339482,B20S10,2022-11-02_12h55.25.283,t1_Paradigm,2021.1.4,60.05159088234339,
J,left,Distractor,0,41,41,41,597.6900434430572,599.6904470127192,left,1,1,0.7338548086117953,B20S10,2022-11-02_12h55.25.283,t1_Paradigm,2021.1.4,60.05159088234339,
P,left,Lure,0,42,42,42,601.1904405966634,603.1909984723316,left,1,1,0.8174514673883095,B20S10,2022-11-02_12h55.25.283,t1_Paradigm,2021.1.4,60.05159088234339,
L,left,Distractor,0,43,43,43,604.6907488878933,606.691327294975,None,0,1,,B20S10,2022-11-02_12h55.25.283,t1_Paradigm,2021.1.4,60.05159088234339,
Z,left,Distractor,0,44,44,44,608.1907665320323,610.1899221796775,left,1,1,1.0503470762632787,B20S10,2022-11-02_12h55.25.283,t1_Paradigm,2021.1.4,60.05159088234339,
F,left,Pretarget,0,45,45,45,611.6903440350434,613.7070074829971,left,1,1,0.7975825601024553,B20S10,2022-11-02_12h55.25.283,t1_Paradigm,2021.1.4,60.05159088234339,
F,right,Target,0,46,46,46,615.1904380302294,617.1907354142168,right,1,1,0.5457612035679631,B20S10,2022-11-02_12h55.25.283,t1_Paradigm,2021.1.4,60.05159088234339,
G,left,Pretarget,0,47,47,47,618.6907495295163,620.6907190532656,left,1,1,0.533554665686097,B20S10,2022-11-02_12h55.25.283,t1_Paradigm,2021.1.4,60.05159088234339,
G,right,Target,0,48,48,48,622.1905564063927,624.1899529767106,right,1,1,0.5864620673237368,B20S10,2022-11-02_12h55.25.283,t1_Paradigm,2021.1.4,60.05159088234339,
V,left,Distractor,0,49,49,49,625.6903684160789,627.6911948035122,left,1,1,1.037172677111812,B20S10,2022-11-02_12h55.25.283,t1_Paradigm,2021.1.4,60.05159088234339,
G,left,Lure,0,50,50,50,629.19041493244,631.1899516935227,left,1,1,1.3307442427612841,B20S10,2022-11-02_12h55.25.283,t1_Paradigm,2021.1.4,60.05159088234339,
Q,left,Pretarget,0,51,51,51,632.6904733185074,634.6908669432742,None,0,1,,B20S10,2022-11-02_12h55.25.283,t1_Paradigm,2021.1.4,60.05159088234339,
Q,right,Target,0,52,52,52,636.190492566675,638.1909105724189,right,1,1,0.7297023401479237,B20S10,2022-11-02_12h55.25.283,t1_Paradigm,2021.1.4,60.05159088234339,
Y,left,Distractor,0,53,53,53,639.6902824409772,641.690797008283,left,1,1,0.7658757172175683,B20S10,2022-11-02_12h55.25.283,t1_Paradigm,2021.1.4,60.05159088234339,
V,left,Distractor,0,54,54,54,643.1905843162094,645.1899802449625,left,1,1,0.7383800496463664,B20S10,2022-11-02_12h55.25.283,t1_Paradigm,2021.1.4,60.05159088234339,
B,left,Distractor,0,55,55,55,646.6904393134173,648.6910761065665,left,1,1,0.6935725921648555,B20S10,2022-11-02_12h55.25.283,t1_Paradigm,2021.1.4,60.05159088234339,
J,left,Pretarget,0,56,56,56,650.1905711633153,652.1900049467804,left,1,1,0.8105567785096355,B20S10,2022-11-02_12h55.25.283,t1_Paradigm,2021.1.4,60.05159088234339,
J,right,Target,0,57,57,57,653.6904993035132,655.6909083267674,right,1,1,0.5254268117714673,B20S10,2022-11-02_12h55.25.283,t1_Paradigm,2021.1.4,60.05159088234339,
H,left,Distractor,0,58,58,58,657.190490641864,659.1901348718093,left,1,1,0.7063921837252565,B20S10,2022-11-02_12h55.25.283,t1_Paradigm,2021.1.4,60.05159088234339,
J,left,Lure,0,59,59,59,660.690870792896,662.6911261517671,left,1,1,1.237399677047506,B20S10,2022-11-02_12h55.25.283,t1_Paradigm,2021.1.4,60.05159088234339,
D,left,Pretarget,0,60,60,60,664.1904585615848,666.1901185108582,left,1,1,0.6505564962280914,B20S10,2022-11-02_12h55.25.283,t1_Paradigm,2021.1.4,60.05159088234339,
D,right,Target,0,61,61,61,667.6905426118756,669.6906632336322,right,1,1,0.44609265675535426,B20S10,2022-11-02_12h55.25.283,t1_Paradigm,2021.1.4,60.05159088234339,
R,left,Distractor,0,62,62,62,671.1906471935217,673.1901034331531,left,1,1,0.5783037371584214,B20S10,2022-11-02_12h55.25.283,t1_Paradigm,2021.1.4,60.05159088234339,
F,left,Distractor,0,63,63,63,674.6905769377481,676.6908717553015,left,1,1,0.9016239667544141,B20S10,2022-11-02_12h55.25.283,t1_Paradigm,2021.1.4,60.05159088234339,
F,left,Distractor,0,0,0,0,884.688415049226,886.6913285781629,None,0,2,,B20S10,2022-11-02_12h55.25.283,t1_Paradigm,2021.1.4,60.05159088234339,
N,left,Pretarget,0,1,1,1,888.1908451286727,890.1907844970119,None,0,2,,B20S10,2022-11-02_12h55.25.283,t1_Paradigm,2021.1.4,60.05159088234339,
V,left,Distractor,0,2,2,2,891.6913080468075,893.6925498735509,left,1,2,0.8925866375211626,B20S10,2022-11-02_12h55.25.283,t1_Paradigm,2021.1.4,60.05159088234339,
N,right,Target,0,3,3,3,895.1912894402631,897.1926958386903,None,0,2,,B20S10,2022-11-02_12h55.25.283,t1_Paradigm,2021.1.4,60.05159088234339,
N,left,Lure,0,4,4,4,898.6909368782071,900.6909907730296,left,1,2,0.23005137330619618,B20S10,2022-11-02_12h55.25.283,t1_Paradigm,2021.1.4,60.05159088234339,
X,left,Distractor,0,5,5,5,902.1908871538471,904.1912830242072,None,0,2,,B20S10,2022-11-02_12h55.25.283,t1_Paradigm,2021.1.4,60.05159088234339,
G,left,Pretarget,0,6,6,6,905.6909339909907,907.6932947771274,None,0,2,,B20S10,2022-11-02_12h55.25.283,t1_Paradigm,2021.1.4,60.05159088234339,
H,left,Pretarget,0,7,7,7,909.190960938402,911.1924863546155,None,0,2,,B20S10,2022-11-02_12h55.25.283,t1_Paradigm,2021.1.4,60.05159088234339,
G,right,Target,0,8,8,8,912.690925650124,914.6923756777542,None,0,2,,B20S10,2022-11-02_12h55.25.283,t1_Paradigm,2021.1.4,60.05159088234339,
H,right,Target,0,9,9,9,916.1909352742368,918.1921745345462,left,0,2,0.7606168006896041,B20S10,2022-11-02_12h55.25.283,t1_Paradigm,2021.1.4,60.05159088234339,
T,left,Pretarget,0,10,10,10,919.6911261517671,921.6910305525525,left,1,2,0.9419603988644667,B20S10,2022-11-02_12h55.25.283,t1_Paradigm,2021.1.4,60.05159088234339,
K,left,Distractor,0,11,11,11,923.1912403574679,925.1926737033646,left,1,2,0.5284221454057842,B20S10,2022-11-02_12h55.25.283,t1_Paradigm,2021.1.4,60.05159088234339,
T,right,Target,0,12,12,12,926.6913811897975,928.6913282573805,left,0,2,1.366193889232818,B20S10,2022-11-02_12h55.25.283,t1_Paradigm,2021.1.4,60.05159088234339,
T,left,Lure,0,13,13,13,930.1912262421683,932.1912817409611,None,0,2,,B20S10,2022-11-02_12h55.25.283,t1_Paradigm,2021.1.4,60.05159088234339,
J,left,Distractor,0,14,14,14,933.6912807785557,935.690888437035,None,0,2,,B20S10,2022-11-02_12h55.25.283,t1_Paradigm,2021.1.4,60.05159088234339,
Q,left,Pretarget,0,15,15,15,937.1910651992657,939.1913279365399,left,1,2,0.5138519341708161,B20S10,2022-11-02_12h55.25.283,t1_Paradigm,2021.1.4,60.05159088234339,
M,left,Distractor,0,16,16,16,940.6912442070898,942.6912926482619,left,1,2,1.0617176025989465,B20S10,2022-11-02_12h55.25.283,t1_Paradigm,2021.1.4,60.05159088234339,
Q,right,Target,0,17,17,17,944.1912708337186,946.1918553359574,right,1,2,1.0491309137432836,B20S10,2022-11-02_12h55.25.283,t1_Paradigm,2021.1.4,60.05159088234339,
R,left,Distractor,0,18,18,18,947.691431876563,949.693112882087,None,0,2,,B20S10,2022-11-02_12h55.25.283,t1_Paradigm,2021.1.4,60.05159088234339,
W,left,Distractor,0,19,19,19,951.1909028731752,953.1913106132415,None,0,2,,B20S10,2022-11-02_12h55.25.283,t1_Paradigm,2021.1.4,60.05159088234339,
C,left,Pretarget,0,20,20,20,954.6908906826284,956.6926268661628,left,1,2,0.6445664706407115,B20S10,2022-11-02_12h55.25.283,t1_Paradigm,2021.1.4,60.05159088234339,
T,left,Distractor,0,21,21,21,958.1910562167759,960.1926624752232,left,1,2,0.5044004488736391,B20S10,2022-11-02_12h55.25.283,t1_Paradigm,2021.1.4,60.05159088234339,
C,right,Target,0,22,22,22,961.6910802769708,963.6925697632832,right,1,2,0.8446545629994944,B20S10,2022-11-02_12h55.25.283,t1_Paradigm,2021.1.4,60.05159088234339,
F,left,Pretarget,0,23,23,23,965.191326011729,967.1908387126168,None,0,2,,B20S10,2022-11-02_12h55.25.283,t1_Paradigm,2021.1.4,60.05159088234339,
C,right,Target,0,24,24,24,968.6907588327886,970.6908185020438,right,1,2,1.1263054258888587,B20S10,2022-11-02_12h55.25.283,t1_Paradigm,2021.1.4,60.05159088234339,
F,right,Target,0,25,25,25,972.1910045675468,974.191034081392,right,1,2,1.1619879750651307,B20S10,2022-11-02_12h55.25.283,t1_Paradigm,2021.1.4,60.05159088234339,
H,left,Distractor,0,26,26,26,975.6913439767086,977.6932521103881,left,1,2,1.0038217210094444,B20S10,2022-11-02_12h55.25.283,t1_Paradigm,2021.1.4,60.05159088234339,
H,left,Lure,0,27,27,27,979.1914613904082,981.1914706936805,None,0,2,,B20S10,2022-11-02_12h55.25.283,t1_Paradigm,2021.1.4,60.05159088234339,
P,left,Distractor,0,28,28,28,982.6911421918776,984.6931786466157,left,1,2,0.755943990428932,B20S10,2022-11-02_12h55.25.283,t1_Paradigm,2021.1.4,60.05159088234339,
G,left,Pretarget,0,29,29,29,986.1911306429538,988.1914267437533,left,1,2,1.0175706776208244,B20S10,2022-11-02_12h55.25.283,t1_Paradigm,2021.1.4,60.05159088234339,
K,left,Distractor,0,30,30,30,989.6911521367729,991.6910565375583,left,1,2,0.49418930301908404,B20S10,2022-11-02_12h55.25.283,t1_Paradigm,2021.1.4,60.05159088234339,
G,right,Target,0,31,31,31,993.1913664328749,995.2042983053252,left,0,2,1.316943957703188,B20S10,2022-11-02_12h55.25.283,t1_Paradigm,2021.1.4,60.05159088234339,
M,left,Pretarget,0,32,32,32,996.691220788518,998.6922104644473,None,0,2,,B20S10,2022-11-02_12h55.25.283,t1_Paradigm,2021.1.4,60.05159088234339,
B,left,Distractor,0,33,33,33,1000.1913054803736,1002.1909744121367,None,0,2,,B20S10,2022-11-02_12h55.25.283,t1_Paradigm,2021.1.4,60.05159088234339,
M,right,Target,0,34,34,34,1003.6913799065514,1005.6924927706714,right,1,2,1.2128502602572553,B20S10,2022-11-02_12h55.25.283,t1_Paradigm,2021.1.4,60.05159088234339,
M,left,Lure,0,35,35,35,1007.1914909042534,1009.1910799561883,None,0,2,,B20S10,2022-11-02_12h55.25.283,t1_Paradigm,2021.1.4,60.05159088234339,
T,left,Distractor,0,36,36,36,1010.6913353150012,1012.6909108932014,left,1,2,0.8866399202961475,B20S10,2022-11-02_12h55.25.283,t1_Paradigm,2021.1.4,60.05159088234339,
F,left,Distractor,0,37,37,37,1014.1914241773193,1016.1913032347802,right,0,2,1.0017766046803445,B20S10,2022-11-02_12h55.25.283,t1_Paradigm,2021.1.4,60.05159088234339,
X,left,Distractor,0,38,38,38,1017.6911970491055,1019.6932078396203,left,1,2,0.8442038354114629,B20S10,2022-11-02_12h55.25.283,t1_Paradigm,2021.1.4,60.05159088234339,
C,left,Distractor,0,39,39,39,1021.1912336205714,1023.1925341542228,left,1,2,1.0247390110744163,B20S10,2022-11-02_12h55.25.283,t1_Paradigm,2021.1.4,60.05159088234339,
R,left,Distractor,0,40,40,40,1024.691377019335,1026.6933185164817,None,0,2,,B20S10,2022-11-02_12h55.25.283,t1_Paradigm,2021.1.4,60.05159088234339,
B,left,Pretarget,0,41,41,41,1028.1914212901029,1030.1917177116848,left,1,2,1.3854324194253422,B20S10,2022-11-02_12h55.25.283,t1_Paradigm,2021.1.4,60.05159088234339,
H,left,Distractor,0,42,42,42,1031.691437009431,1033.6933137044543,None,0,2,,B20S10,2022-11-02_12h55.25.283,t1_Paradigm,2021.1.4,60.05159088234339,
B,right,Target,0,43,43,43,1035.1914434254868,1037.1921491911635,None,0,2,,B20S10,2022-11-02_12h55.25.283,t1_Paradigm,2021.1.4,60.05159088234339,
W,left,Pretarget,0,44,44,44,1038.6911014499492,1040.6928119692602,left,1,2,0.6444160141982138,B20S10,2022-11-02_12h55.25.283,t1_Paradigm,2021.1.4,60.05159088234339,
L,left,Pretarget,0,45,45,45,1042.1909866026253,1044.1923926802701,left,1,2,0.9048335964907892,B20S10,2022-11-02_12h55.25.283,t1_Paradigm,2021.1.4,60.05159088234339,
W,right,Target,0,46,46,46,1045.6914408590528,1047.6922117476352,right,1,2,0.5567640901426785,B20S10,2022-11-02_12h55.25.283,t1_Paradigm,2021.1.4,60.05159088234339,
L,right,Target,0,47,47,47,1049.1911521367729,1051.1913253701641,right,1,2,0.8338412707089446,B20S10,2022-11-02_12h55.25.283,t1_Paradigm,2021.1.4,60.05159088234339,
W,right,Target,0,48,48,48,1052.6914591448149,1054.6935424366966,right,1,2,0.4836153294891119,B20S10,2022-11-02_12h55.25.283,t1_Paradigm,2021.1.4,60.05159088234339,
X,left,Distractor,0,49,49,49,1056.1911912746727,1058.1909638256184,left,1,2,1.1782279635663144,B20S10,2022-11-02_12h55.25.283,t1_Paradigm,2021.1.4,60.05159088234339,
R,left,Distractor,0,50,50,50,1059.6914232149138,1061.6932639800943,left,1,2,1.1643641596892849,B20S10,2022-11-02_12h55.25.283,t1_Paradigm,2021.1.4,60.05159088234339,
V,left,Pretarget,0,51,51,51,1063.1910818809993,1065.1932437695214,left,1,2,0.5921633706311695,B20S10,2022-11-02_12h55.25.283,t1_Paradigm,2021.1.4,60.05159088234339,
Z,left,Distractor,0,52,52,52,1066.691147645528,1068.6919733913383,left,1,2,0.4531939424923621,B20S10,2022-11-02_12h55.25.283,t1_Paradigm,2021.1.4,60.05159088234339,
V,right,Target,0,53,53,53,1070.1910767481313,1072.192258584837,left,0,2,1.065334330778569,B20S10,2022-11-02_12h55.25.283,t1_Paradigm,2021.1.4,60.05159088234339,
V,left,Lure,0,54,54,54,1073.6911883874564,1075.6912727585295,right,0,2,0.9580415901145898,B20S10,2022-11-02_12h55.25.283,t1_Paradigm,2021.1.4,60.05159088234339,
N,left,Distractor,0,55,55,55,1077.1912990643177,1079.1924221941154,left,1,2,1.0568693133536726,B20S10,2022-11-02_12h55.25.283,t1_Paradigm,2021.1.4,60.05159088234339,
B,left,Distractor,0,56,56,56,1080.6910703320755,1082.6936515095877,left,1,2,1.3957276155124418,B20S10,2022-11-02_12h55.25.283,t1_Paradigm,2021.1.4,60.05159088234339,
V,left,Lure,0,57,57,57,1084.191529721371,1086.193353804818,left,1,2,1.2559484816738404,B20S10,2022-11-02_12h55.25.283,t1_Paradigm,2021.1.4,60.05159088234339,
J,left,Distractor,0,58,58,58,1087.6912246381398,1089.6935029780143,left,1,2,1.0037569188862108,B20S10,2022-11-02_12h55.25.283,t1_Paradigm,2021.1.4,60.05159088234339,
H,left,Distractor,0,59,59,59,1091.1913622624124,1093.190947785508,right,0,2,1.058288223168347,B20S10,2022-11-02_12h55.25.283,t1_Paradigm,2021.1.4,60.05159088234339,
X,left,Pretarget,0,60,60,60,1094.6909776201355,1096.6920972210937,None,0,2,,B20S10,2022-11-02_12h55.25.283,t1_Paradigm,2021.1.4,60.05159088234339,
P,left,Distractor,0,61,61,61,1098.1915486486978,1100.1926432271139,left,1,2,0.616639002750162,B20S10,2022-11-02_12h55.25.283,t1_Paradigm,2021.1.4,60.05159088234339,
X,right,Target,0,62,62,62,1101.6916057515773,1103.692527738167,left,0,2,0.9887677395599894,B20S10,2022-11-02_12h55.25.283,t1_Paradigm,2021.1.4,60.05159088234339,
Q,left,Distractor,0,63,63,63,1105.1911919162376,1107.1927750769537,left,1,2,1.072588318551425,B20S10,2022-11-02_12h55.25.283,t1_Paradigm,2021.1.4,60.05159088234339,
B,left,Pretarget,0,0,0,0,1122.3639213237911,1124.3584320709924,None,0,2,,B20S10,2022-11-02_12h55.25.283,t1_Paradigm,2021.1.4,60.05159088234339,
F,left,Distractor,0,1,1,1,1125.8580172732472,1127.8587724425015,None,0,2,,B20S10,2022-11-02_12h55.25.283,t1_Paradigm,2021.1.4,60.05159088234339,
B,right,Target,0,2,2,2,1129.3579790977528,1131.3587689137203,None,0,2,,B20S10,2022-11-02_12h55.25.283,t1_Paradigm,2021.1.4,60.05159088234339,
V,left,Distractor,0,3,3,3,1132.8578193380963,1134.8597906698706,left,1,2,0.8776831125142053,B20S10,2022-11-02_12h55.25.283,t1_Paradigm,2021.1.4,60.05159088234339,
G,left,Pretarget,0,4,4,4,1136.358013744466,1138.3599311814178,left,1,2,1.0735022850567475,B20S10,2022-11-02_12h55.25.283,t1_Paradigm,2021.1.4,60.05159088234339,
B,left,Lure,0,5,5,5,1139.8581879402627,1141.8602061092388,None,0,2,,B20S10,2022-11-02_12h55.25.283,t1_Paradigm,2021.1.4,60.05159088234339,
G,right,Target,0,6,6,6,1143.3582777649863,1145.3578004107112,right,1,2,0.5075869808206335,B20S10,2022-11-02_12h55.25.283,t1_Paradigm,2021.1.4,60.05159088234339,
Y,left,Pretarget,0,7,7,7,1146.8582549879793,1148.858917766076,None,0,2,,B20S10,2022-11-02_12h55.25.283,t1_Paradigm,2021.1.4,60.05159088234339,
P,left,Distractor,0,8,8,8,1150.3581956395064,1152.3600492367405,left,1,2,0.7693002846790478,B20S10,2022-11-02_12h55.25.283,t1_Paradigm,2021.1.4,60.05159088234339,
Y,right,Target,0,9,9,9,1153.8580246517085,1155.8596870506299,left,0,2,0.8536367141641676,B20S10,2022-11-02_12h55.25.283,t1_Paradigm,2021.1.4,60.05159088234339,
X,left,Distractor,0,10,10,10,1157.3579835889977,1159.3596030003973,None,0,2,,B20S10,2022-11-02_12h55.25.283,t1_Paradigm,2021.1.4,60.05159088234339,
Y,right,Target,0,11,11,11,1160.857887027436,1162.8578867065953,right,1,2,0.9435663365293294,B20S10,2022-11-02_12h55.25.283,t1_Paradigm,2021.1.4,60.05159088234339,
N,left,Distractor,0,12,12,12,1164.3584211636917,1166.3582540255738,left,1,2,0.866957399295643,B20S10,2022-11-02_12h55.25.283,t1_Paradigm,2021.1.4,60.05159088234339,
Y,right,Target,0,13,13,13,1167.858441695047,1169.8585533343721,right,1,2,0.9027987457811832,B20S10,2022-11-02_12h55.25.283,t1_Paradigm,2021.1.4,60.05159088234339,
Y,left,Lure,0,14,14,14,1171.3582610832527,1173.358393253875,left,1,2,0.6510046574403532,B20S10,2022-11-02_12h55.25.283,t1_Paradigm,2021.1.4,60.05159088234339,
K,left,Distractor,0,15,15,15,1174.858249534329,1176.857445603062,left,1,2,0.6561435937765054,B20S10,2022-11-02_12h55.25.283,t1_Paradigm,2021.1.4,60.05159088234339,
T,left,Pretarget,0,16,16,16,1178.3581115892157,1180.3602757233893,left,1,2,0.8972908864961937,B20S10,2022-11-02_12h55.25.283,t1_Paradigm,2021.1.4,60.05159088234339,
J,left,Distractor,0,17,17,17,1181.8579284109874,1183.8595240829745,left,1,2,0.8059863043017685,B20S10,2022-11-02_12h55.25.283,t1_Paradigm,2021.1.4,60.05159088234339,
T,right,Target,0,18,18,18,1185.3583525119466,1187.3579944962985,right,1,2,0.9393949406803586,B20S10,2022-11-02_12h55.25.283,t1_Paradigm,2021.1.4,60.05159088234339,
S,left,Pretarget,0,19,19,19,1188.8584262965596,1190.8596793513861,left,1,2,1.198026615078561,B20S10,2022-11-02_12h55.25.283,t1_Paradigm,2021.1.4,60.05159088234339,
R,left,Distractor,0,20,20,20,1192.357917182846,1194.3580054035992,left,1,2,0.9635221812641248,B20S10,2022-11-02_12h55.25.283,t1_Paradigm,2021.1.4,60.05159088234339,
S,right,Target,0,21,21,21,1195.8582845018245,1197.858978397795,right,1,2,0.934458109899424,B20S10,2022-11-02_12h55.25.283,t1_Paradigm,2021.1.4,60.05159088234339,
Q,left,Distractor,0,22,22,22,1199.3583810633863,1201.3587560816086,left,1,2,0.682778227259405,B20S10,2022-11-02_12h55.25.283,t1_Paradigm,2021.1.4,60.05159088234339,
D,left,Distractor,0,23,23,23,1202.858013102843,1204.8603517535958,left,1,2,1.1171246978919953,B20S10,2022-11-02_12h55.25.283,t1_Paradigm,2021.1.4,60.05159088234339,
F,left,Distractor,0,24,24,24,1206.3580698848818,1208.3605894682696,left,1,2,0.9291404865216464,B20S10,2022-11-02_12h55.25.283,t1_Paradigm,2021.1.4,60.05159088234339,
Z,left,Distractor,0,25,25,25,1209.8580252933316,1211.8588709289324,left,1,2,0.9990308554260992,B20S10,2022-11-02_12h55.25.283,t1_Paradigm,2021.1.4,60.05159088234339,
P,left,Distractor,0,26,26,26,1213.3582819353906,1215.3584737753263,None,0,2,,B20S10,2022-11-02_12h55.25.283,t1_Paradigm,2021.1.4,60.05159088234339,
H,left,Distractor,0,27,27,27,1216.8579999499489,1218.8584262965596,left,1,2,0.783332509920001,B20S10,2022-11-02_12h55.25.283,t1_Paradigm,2021.1.4,60.05159088234339,
Z,left,Pretarget,0,28,28,28,1220.3584773041657,1222.3592889346764,right,0,2,0.7541952956235036,B20S10,2022-11-02_12h55.25.283,t1_Paradigm,2021.1.4,60.05159088234339,
J,left,Pretarget,0,29,29,29,1223.8581141556497,1225.8591080019833,left,1,2,1.0784513063845225,B20S10,2022-11-02_12h55.25.283,t1_Paradigm,2021.1.4,60.05159088234339,
Z,right,Target,0,30,30,30,1227.358391329064,1229.359954920772,right,1,2,1.049548919487279,B20S10,2022-11-02_12h55.25.283,t1_Paradigm,2021.1.4,60.05159088234339,
J,right,Target,0,31,31,31,1230.8583306974033,1232.8583820257918,left,0,2,0.6870619039982557,B20S10,2022-11-02_12h55.25.283,t1_Paradigm,2021.1.4,60.05159088234339,
V,left,Pretarget,0,32,32,32,1234.35808560421,1236.3580721305334,left,1,2,0.6113290786161087,B20S10,2022-11-02_12h55.25.283,t1_Paradigm,2021.1.4,60.05159088234339,
Z,left,Lure,0,33,33,33,1237.8582870682585,1239.8606013379758,left,1,2,0.8209344208589755,B20S10,2022-11-02_12h55.25.283,t1_Paradigm,2021.1.4,60.05159088234339,
V,right,Target,0,34,34,34,1241.358444261481,1243.359008553205,left,0,2,0.9062704712268896,B20S10,2022-11-02_12h55.25.283,t1_Paradigm,2021.1.4,60.05159088234339,
X,left,Distractor,0,35,35,35,1244.8584586976212,1246.8606064708438,left,1,2,1.100908127904404,B20S10,2022-11-02_12h55.25.283,t1_Paradigm,2021.1.4,60.05159088234339,
S,left,Distractor,0,36,36,36,1248.3585770737845,1250.3588212045142,left,1,2,0.7227601725026034,B20S10,2022-11-02_12h55.25.283,t1_Paradigm,2021.1.4,60.05159088234339,
Q,left,Distractor,0,37,37,37,1251.85855461756,1253.8585915098665,left,1,2,1.0151268035988323,B20S10,2022-11-02_12h55.25.283,t1_Paradigm,2021.1.4,60.05159088234339,
P,left,Distractor,0,38,38,38,1255.3581808825838,1257.3593810049933,None,0,2,,B20S10,2022-11-02_12h55.25.283,t1_Paradigm,2021.1.4,60.05159088234339,
S,left,Lure,0,39,39,39,1258.858318827697,1260.8594634512556,left,1,2,1.294068167975638,B20S10,2022-11-02_12h55.25.283,t1_Paradigm,2021.1.4,60.05159088234339,
K,left,Pretarget,0,40,40,40,1262.358482116193,1264.3601486855769,None,0,2,,B20S10,2022-11-02_12h55.25.283,t1_Paradigm,2021.1.4,60.05159088234339,
L,left,Distractor,0,41,41,41,1265.858174466528,1267.8601534976042,left,1,2,0.64561068295734,B20S10,2022-11-02_12h55.25.283,t1_Paradigm,2021.1.4,60.05159088234339,
K,right,Target,0,42,42,42,1269.3581969226943,1271.35918948584,None,0,2,,B20S10,2022-11-02_12h55.25.283,t1_Paradigm,2021.1.4,60.05159088234339,
B,left,Distractor,0,43,43,43,1272.8585045723594,1274.8598002939834,left,1,2,0.7657021630438976,B20S10,2022-11-02_12h55.25.283,t1_Paradigm,2021.1.4,60.05159088234339,
N,left,Distractor,0,44,44,44,1276.3583974243375,1278.358448111103,left,1,2,1.1392161253024824,B20S10,2022-11-02_12h55.25.283,t1_Paradigm,2021.1.4,60.05159088234339,
S,left,Pretarget,0,45,45,45,1279.8584182764753,1281.8602622496546,left,1,2,1.1093025687732734,B20S10,2022-11-02_12h55.25.283,t1_Paradigm,2021.1.4,60.05159088234339,
Z,left,Distractor,0,46,46,46,1283.3582145668333,1285.3586575951776,left,1,2,0.9067041962407529,B20S10,2022-11-02_12h55.25.283,t1_Paradigm,2021.1.4,60.05159088234339,
S,right,Target,0,47,47,47,1286.8584975147387,1288.8580721305334,right,1,2,0.8800490314606577,B20S10,2022-11-02_12h55.25.283,t1_Paradigm,2021.1.4,60.05159088234339,
C,left,Distractor,0,48,48,48,1290.3584561311873,1292.359978339402,left,1,2,1.3617911947076209,B20S10,2022-11-02_12h55.25.283,t1_Paradigm,2021.1.4,60.05159088234339,
T,left,Pretarget,0,49,49,49,1293.8586248733336,1295.8588750993367,left,1,2,0.6309663664433174,B20S10,2022-11-02_12h55.25.283,t1_Paradigm,2021.1.4,60.05159088234339,
S,left,Lure,0,50,50,50,1297.3582514591399,1299.3588715704973,right,0,2,0.9065582311013713,B20S10,2022-11-02_12h55.25.283,t1_Paradigm,2021.1.4,60.05159088234339,
T,right,Target,0,51,51,51,1300.8580926618888,1302.8607338294387,right,1,2,0.8774652875727043,B20S10,2022-11-02_12h55.25.283,t1_Paradigm,2021.1.4,60.05159088234339,
N,left,Pretarget,0,52,52,52,1304.3583361510537,1306.358053523989,left,1,2,0.9955992303439416,B20S10,2022-11-02_12h55.25.283,t1_Paradigm,2021.1.4,60.05159088234339,
B,left,Distractor,0,53,53,53,1307.8585158004425,1309.859982830647,left,1,2,0.5335989364539273,B20S10,2022-11-02_12h55.25.283,t1_Paradigm,2021.1.4,60.05159088234339,
N,right,Target,0,54,54,54,1311.3580621856381,1313.3599921339191,right,1,2,0.7618072990444489,B20S10,2022-11-02_12h55.25.283,t1_Paradigm,2021.1.4,60.05159088234339,
N,left,Lure,0,55,55,55,1314.858152331144,1316.8583438502974,right,0,2,1.391267818165943,B20S10,2022-11-02_12h55.25.283,t1_Paradigm,2021.1.4,60.05159088234339,
X,left,Distractor,0,56,56,56,1318.3583393590525,1320.3587358710356,None,0,2,,B20S10,2022-11-02_12h55.25.283,t1_Paradigm,2021.1.4,60.05159088234339,
W,left,Distractor,0,57,57,57,1321.8582270781626,1323.860079071368,left,1,2,0.8536075211595744,B20S10,2022-11-02_12h55.25.283,t1_Paradigm,2021.1.4,60.05159088234339,
S,left,Distractor,0,58,58,58,1325.3586521415855,1327.3582328525954,left,1,2,0.6194476293167099,B20S10,2022-11-02_12h55.25.283,t1_Paradigm,2021.1.4,60.05159088234339,
L,left,Distractor,0,59,59,59,1328.8584933442762,1330.858575469756,left,1,2,0.8312713213381357,B20S10,2022-11-02_12h55.25.283,t1_Paradigm,2021.1.4,60.05159088234339,
K,left,Pretarget,0,60,60,60,1332.3582889930694,1334.3599857178633,left,1,2,0.833643977122847,B20S10,2022-11-02_12h55.25.283,t1_Paradigm,2021.1.4,60.05159088234339,
V,left,Pretarget,0,61,61,61,1335.8582793689566,1337.858683259401,left,1,2,1.0631522317416966,B20S10,2022-11-02_12h55.25.283,t1_Paradigm,2021.1.4,60.05159088234339,
K,right,Target,0,62,62,62,1339.3582681408734,1341.359012402827,right,1,2,1.1788868920411915,B20S10,2022-11-02_12h55.25.283,t1_Paradigm,2021.1.4,60.05159088234339,
V,right,Target,0,63,63,63,1342.8581696545007,1344.8594509399845,right,1,2,0.8464212227263488,B20S10,2022-11-02_12h55.25.283,t1_Paradigm,2021.1.4,60.05159088234339,
R,left,Distractor,0,0,0,0,1639.8888367762556,1641.8779137695092,None,0,3,,B20S10,2022-11-02_12h55.25.283,t1_Paradigm,2021.1.4,60.05159088234339,
P,left,Lure,0,1,1,1,1643.3920342155034,1645.3925535948365,None,0,3,,B20S10,2022-11-02_12h55.25.283,t1_Paradigm,2021.1.4,60.05159088234339,
V,left,Distractor,0,2,2,2,1646.8921211530105,1648.876048944192,left,1,3,0.5423289368045516,B20S10,2022-11-02_12h55.25.283,t1_Paradigm,2021.1.4,60.05159088234339,
P,left,Pretarget,0,3,3,3,1650.37574193615,1652.375723008765,None,0,3,,B20S10,2022-11-02_12h55.25.283,t1_Paradigm,2021.1.4,60.05159088234339,
Z,left,Distractor,0,4,4,4,1653.8759154903237,1655.877172394772,left,1,3,1.2371253907913342,B20S10,2022-11-02_12h55.25.283,t1_Paradigm,2021.1.4,60.05159088234339,
L,left,Pretarget,0,5,5,5,1657.3757682419382,1659.3770707004005,left,1,3,1.3212796044535935,B20S10,2022-11-02_12h55.25.283,t1_Paradigm,2021.1.4,60.05159088234339,
P,right,Target,0,6,6,6,1660.8758000013768,1662.8781935093575,right,1,3,0.8122130821575411,B20S10,2022-11-02_12h55.25.283,t1_Paradigm,2021.1.4,60.05159088234339,
S,left,Distractor,0,7,7,7,1664.3922241306282,1666.3928808135097,left,1,3,0.6413959788042121,B20S10,2022-11-02_12h55.25.283,t1_Paradigm,2021.1.4,60.05159088234339,
L,right,Target,0,8,8,8,1667.8754516097833,1669.8753088526428,right,1,3,0.9833497049403377,B20S10,2022-11-02_12h55.25.283,t1_Paradigm,2021.1.4,60.05159088234339,
D,left,Distractor,0,9,9,9,1671.3756585274823,1673.3772355928668,left,1,3,0.8727879860671237,B20S10,2022-11-02_12h55.25.283,t1_Paradigm,2021.1.4,60.05159088234339,
G,left,Distractor,0,10,10,10,1674.8922401707387,1676.8766517321928,left,1,3,0.6695711062056944,B20S10,2022-11-02_12h55.25.283,t1_Paradigm,2021.1.4,60.05159088234339,
M,left,Pretarget,0,11,11,11,1678.3757554098265,1680.3777315536863,left,1,3,0.9127025627531111,B20S10,2022-11-02_12h55.25.283,t1_Paradigm,2021.1.4,60.05159088234339,
Y,left,Distractor,0,12,12,12,1681.8759100366733,1683.8775272024213,left,1,3,0.692777001822833,B20S10,2022-11-02_12h55.25.283,t1_Paradigm,2021.1.4,60.05159088234339,
V,left,Distractor,0,13,13,13,1685.375804813404,1687.3761323528597,left,1,3,0.6825347380945459,B20S10,2022-11-02_12h55.25.283,t1_Paradigm,2021.1.4,60.05159088234339,
M,right,Target,0,14,14,14,1688.875499730173,1690.8773838036577,right,1,3,0.8928140865755267,B20S10,2022-11-02_12h55.25.283,t1_Paradigm,2021.1.4,60.05159088234339,
S,left,Pretarget,0,15,15,15,1692.3919376539416,1694.377555112238,None,0,3,,B20S10,2022-11-02_12h55.25.283,t1_Paradigm,2021.1.4,60.05159088234339,
Q,left,Distractor,0,16,16,16,1695.8920406315592,1697.8762212151778,left,1,3,1.366342741646804,B20S10,2022-11-02_12h55.25.283,t1_Paradigm,2021.1.4,60.05159088234339,
R,left,Pretarget,0,17,17,17,1699.3758442721446,1701.3753759004176,None,0,3,,B20S10,2022-11-02_12h55.25.283,t1_Paradigm,2021.1.4,60.05159088234339,
S,right,Target,0,18,18,18,1702.8758307984099,1704.8769584194524,left,0,3,0.6853260413045064,B20S10,2022-11-02_12h55.25.283,t1_Paradigm,2021.1.4,60.05159088234339,
F,left,Distractor,0,19,19,19,1706.3921679901541,1708.3778056590818,None,0,3,,B20S10,2022-11-02_12h55.25.283,t1_Paradigm,2021.1.4,60.05159088234339,
R,right,Target,0,20,20,20,1709.8758060966502,1711.8763588394504,right,1,3,0.7740879422635771,B20S10,2022-11-02_12h55.25.283,t1_Paradigm,2021.1.4,60.05159088234339,
P,left,Distractor,0,21,21,21,1713.3755828180583,1715.3779464914114,left,1,3,0.920185282768216,B20S10,2022-11-02_12h55.25.283,t1_Paradigm,2021.1.4,60.05159088234339,
L,left,Distractor,0,22,22,22,1716.8924528628704,1718.8778688571765,left,1,3,0.5566126712947153,B20S10,2022-11-02_12h55.25.283,t1_Paradigm,2021.1.4,60.05159088234339,
R,right,Target,0,23,23,23,1720.3755363016971,1722.3754804820055,right,1,3,0.6429316607536748,B20S10,2022-11-02_12h55.25.283,t1_Paradigm,2021.1.4,60.05159088234339,
H,left,Pretarget,0,24,24,24,1723.8755167327472,1725.876502879837,left,1,3,0.6620386618305929,B20S10,2022-11-02_12h55.25.283,t1_Paradigm,2021.1.4,60.05159088234339,
G,left,Pretarget,0,25,25,25,1727.3919950776035,1729.376809246256,left,1,3,1.1137562709045596,B20S10,2022-11-02_12h55.25.283,t1_Paradigm,2021.1.4,60.05159088234339,
T,left,Distractor,0,26,26,26,1730.892250757257,1732.877448605781,None,0,3,,B20S10,2022-11-02_12h55.25.283,t1_Paradigm,2021.1.4,60.05159088234339,
H,right,Target,0,27,27,27,1734.3755340560456,1736.3771489762003,left,0,3,0.5134085850440897,B20S10,2022-11-02_12h55.25.283,t1_Paradigm,2021.1.4,60.05159088234339,
G,right,Target,0,28,28,28,1737.8760540770018,1739.8772894877475,left,0,3,0.805211886879988,B20S10,2022-11-02_12h55.25.283,t1_Paradigm,2021.1.4,60.05159088234339,
D,left,Distractor,0,29,29,29,1741.3759677811177,1743.3774967261706,left,1,3,0.6812354876892641,B20S10,2022-11-02_12h55.25.283,t1_Paradigm,2021.1.4,60.05159088234339,
N,left,Pretarget,0,30,30,30,1744.8921445715823,1746.8925491036498,left,1,3,0.6218757839524187,B20S10,2022-11-02_12h55.25.283,t1_Paradigm,2021.1.4,60.05159088234339,
V,left,Distractor,0,31,31,31,1748.3756559610483,1750.375442306511,left,1,3,0.6750115970498882,B20S10,2022-11-02_12h55.25.283,t1_Paradigm,2021.1.4,60.05159088234339,
R,left,Distractor,0,32,32,32,1751.875935380056,1753.8885599236237,left,1,3,0.7300045361625962,B20S10,2022-11-02_12h55.25.283,t1_Paradigm,2021.1.4,60.05159088234339,
N,right,Target,0,33,33,33,1755.392392551992,1757.3766286344035,left,0,3,0.34592077077832073,B20S10,2022-11-02_12h55.25.283,t1_Paradigm,2021.1.4,60.05159088234339,
Z,left,Distractor,0,34,34,34,1758.8922475492,1760.8928221066017,left,1,3,0.7978128963732161,B20S10,2022-11-02_12h55.25.283,t1_Paradigm,2021.1.4,60.05159088234339,
N,left,Lure,0,35,35,35,1762.3923733038246,1764.3944075129111,right,0,3,0.8480833008652553,B20S10,2022-11-02_12h55.25.283,t1_Paradigm,2021.1.4,60.05159088234339,
Y,left,Pretarget,0,36,36,36,1765.8758638410945,1767.8773129063193,left,1,3,0.5490872845984995,B20S10,2022-11-02_12h55.25.283,t1_Paradigm,2021.1.4,60.05159088234339,
Y,left,Lure,0,37,37,37,1769.3923469979782,1771.3924211033736,right,0,3,0.7141556059359573,B20S10,2022-11-02_12h55.25.283,t1_Paradigm,2021.1.4,60.05159088234339,
B,left,Distractor,0,38,38,38,1772.875539509696,1774.8773241344024,left,1,3,0.4453727757791057,B20S10,2022-11-02_12h55.25.283,t1_Paradigm,2021.1.4,60.05159088234339,
Y,right,Target,0,39,39,39,1776.3757255751989,1778.376026167185,left,0,3,0.8986055353889242,B20S10,2022-11-02_12h55.25.283,t1_Paradigm,2021.1.4,60.05159088234339,
J,left,Distractor,0,40,40,40,1779.8756299760425,1781.8778111127322,left,1,3,0.8206562850973569,B20S10,2022-11-02_12h55.25.283,t1_Paradigm,2021.1.4,60.05159088234339,
X,left,Distractor,0,41,41,41,1783.3758757108008,1785.3769680435653,left,1,3,0.6978078277315944,B20S10,2022-11-02_12h55.25.283,t1_Paradigm,2021.1.4,60.05159088234339,
W,left,Pretarget,0,42,42,42,1786.875941154547,1788.8762767140288,left,1,3,0.638180895417463,B20S10,2022-11-02_12h55.25.283,t1_Paradigm,2021.1.4,60.05159088234339,
S,left,Pretarget,0,43,43,43,1790.3756992693525,1792.3766424289206,None,0,3,,B20S10,2022-11-02_12h55.25.283,t1_Paradigm,2021.1.4,60.05159088234339,
R,left,Distractor,0,44,44,44,1793.8759318512166,1795.8766927949619,left,1,3,0.693809665273875,B20S10,2022-11-02_12h55.25.283,t1_Paradigm,2021.1.4,60.05159088234339,
W,right,Target,0,45,45,45,1797.3759414753295,1799.3758019261877,left,0,3,0.9707630160846747,B20S10,2022-11-02_12h55.25.283,t1_Paradigm,2021.1.4,60.05159088234339,
S,right,Target,0,46,46,46,1800.8755869884626,1802.8755841012462,right,1,3,0.6709008328616619,B20S10,2022-11-02_12h55.25.283,t1_Paradigm,2021.1.4,60.05159088234339,
D,left,Distractor,0,47,47,47,1804.3757050438435,1806.3759097158909,left,1,3,0.4986430051503703,B20S10,2022-11-02_12h55.25.283,t1_Paradigm,2021.1.4,60.05159088234339,
T,left,Distractor,0,48,48,48,1807.8758259863826,1809.8778342104633,right,0,3,0.7407058683456853,B20S10,2022-11-02_12h55.25.283,t1_Paradigm,2021.1.4,60.05159088234339,
S,right,Target,0,49,49,49,1811.3922093737056,1813.392555840488,right,1,3,1.0499204088700935,B20S10,2022-11-02_12h55.25.283,t1_Paradigm,2021.1.4,60.05159088234339,
K,left,Distractor,0,50,50,50,1814.8757018357865,1816.877690811758,left,1,3,0.5568705965415575,B20S10,2022-11-02_12h55.25.283,t1_Paradigm,2021.1.4,60.05159088234339,
S,left,Lure,0,51,51,51,1818.3921628573444,1820.3922536444734,right,0,3,0.7542562481248751,B20S10,2022-11-02_12h55.25.283,t1_Paradigm,2021.1.4,60.05159088234339,
T,left,Pretarget,0,52,52,52,1821.875831440033,1823.8774861397105,right,0,3,1.0771494894870557,B20S10,2022-11-02_12h55.25.283,t1_Paradigm,2021.1.4,60.05159088234339,
V,left,Distractor,0,53,53,53,1825.3759235103498,1827.3771614874713,left,1,3,0.5054283002973534,B20S10,2022-11-02_12h55.25.283,t1_Paradigm,2021.1.4,60.05159088234339,
B,left,Distractor,0,54,54,54,1828.8924191785627,1830.8921477795811,left,1,3,0.41463732306146994,B20S10,2022-11-02_12h55.25.283,t1_Paradigm,2021.1.4,60.05159088234339,
T,right,Target,0,55,55,55,1832.3756922117318,1834.3761224079644,right,1,3,0.8023519319831394,B20S10,2022-11-02_12h55.25.283,t1_Paradigm,2021.1.4,60.05159088234339,
Y,left,Pretarget,0,56,56,56,1835.8758057758096,1837.8776651475346,left,1,3,0.6769771543913521,B20S10,2022-11-02_12h55.25.283,t1_Paradigm,2021.1.4,60.05159088234339,
T,left,Lure,0,57,57,57,1839.3760088438867,1841.3777148719528,right,0,3,0.681173893623054,B20S10,2022-11-02_12h55.25.283,t1_Paradigm,2021.1.4,60.05159088234339,
P,left,Pretarget,0,58,58,58,1842.876228593639,1844.8766533362214,left,1,3,0.8624873363296501,B20S10,2022-11-02_12h55.25.283,t1_Paradigm,2021.1.4,60.05159088234339,
Y,right,Target,0,59,59,59,1846.3760893652798,1848.3769179983647,left,0,3,1.0736979746143334,B20S10,2022-11-02_12h55.25.283,t1_Paradigm,2021.1.4,60.05159088234339,
R,left,Distractor,0,60,60,60,1849.8923906271812,1851.8767861484666,left,1,3,0.982138033665251,B20S10,2022-11-02_12h55.25.283,t1_Paradigm,2021.1.4,60.05159088234339,
P,right,Target,0,61,61,61,1853.3924698653864,1855.392300481617,right,1,3,0.7781858743401244,B20S10,2022-11-02_12h55.25.283,t1_Paradigm,2021.1.4,60.05159088234339,
L,left,Distractor,0,62,62,62,1856.876048302569,1858.877754330635,left,1,3,0.8927990088122897,B20S10,2022-11-02_12h55.25.283,t1_Paradigm,2021.1.4,60.05159088234339,
V,left,Distractor,0,63,63,63,1860.3758683323395,1862.3766007245868,left,1,3,0.8339163385680877,B20S10,2022-11-02_12h55.25.283,t1_Paradigm,2021.1.4,60.05159088234339,
H,left,Lure,0,0,0,0,1938.891041331517,1940.8925834295223,None,0,3,,B20S10,2022-11-02_12h55.25.283,t1_Paradigm,2021.1.4,60.05159088234339,
B,left,Distractor,0,1,1,1,1942.3927072592778,1944.3952156145824,None,0,3,,B20S10,2022-11-02_12h55.25.283,t1_Paradigm,2021.1.4,60.05159088234339,
T,left,Distractor,0,2,2,2,1945.8926164721488,1947.8920008520363,left,1,3,0.822762353986036,B20S10,2022-11-02_12h55.25.283,t1_Paradigm,2021.1.4,60.05159088234339,
R,left,Distractor,0,3,3,3,1949.3927653245628,1951.3933876815718,None,0,3,,B20S10,2022-11-02_12h55.25.283,t1_Paradigm,2021.1.4,60.05159088234339,
H,left,Pretarget,0,4,4,4,1952.8929151393822,1954.8928577157203,left,1,3,0.6539117703214288,B20S10,2022-11-02_12h55.25.283,t1_Paradigm,2021.1.4,60.05159088234339,
K,left,Distractor,0,5,5,5,1956.3927258658223,1958.3943712622277,None,0,3,,B20S10,2022-11-02_12h55.25.283,t1_Paradigm,2021.1.4,60.05159088234339,
G,left,Distractor,0,6,6,6,1959.8930123425089,1961.8925295346417,left,1,3,1.0622084305505268,B20S10,2022-11-02_12h55.25.283,t1_Paradigm,2021.1.4,60.05159088234339,
H,right,Target,0,7,7,7,1963.3923813238507,1965.3938233314548,left,0,3,0.6652922414941713,B20S10,2022-11-02_12h55.25.283,t1_Paradigm,2021.1.4,60.05159088234339,
Y,left,Pretarget,0,8,8,8,1966.8929161017877,1968.894281437504,left,1,3,0.5725440477835946,B20S10,2022-11-02_12h55.25.283,t1_Paradigm,2021.1.4,60.05159088234339,
S,left,Distractor,0,9,9,9,1970.3926771038678,1972.3943019688595,left,1,3,0.7845313491416164,B20S10,2022-11-02_12h55.25.283,t1_Paradigm,2021.1.4,60.05159088234339,
P,left,Distractor,0,10,10,10,1973.8927505676402,1975.8929298962466,left,1,3,1.0941356648690999,B20S10,2022-11-02_12h55.25.283,t1_Paradigm,2021.1.4,60.05159088234339,
Y,right,Target,0,11,11,11,1977.3927476804238,1979.393898078415,None,0,3,,B20S10,2022-11-02_12h55.25.283,t1_Paradigm,2021.1.4,60.05159088234339,
H,left,Lure,0,12,12,12,1980.8923412235454,1982.894375432632,right,0,3,1.0843919283361174,B20S10,2022-11-02_12h55.25.283,t1_Paradigm,2021.1.4,60.05159088234339,
Q,left,Distractor,0,13,13,13,1984.3927996504353,1986.3947061800864,None,0,3,,B20S10,2022-11-02_12h55.25.283,t1_Paradigm,2021.1.4,60.05159088234339,
V,left,Pretarget,0,14,14,14,1987.8925176649936,1989.892976412666,left,1,3,0.7099591874866746,B20S10,2022-11-02_12h55.25.283,t1_Paradigm,2021.1.4,60.05159088234339,
G,left,Distractor,0,15,15,15,1991.3929035904584,1993.394744355639,left,1,3,1.000109072891064,B20S10,2022-11-02_12h55.25.283,t1_Paradigm,2021.1.4,60.05159088234339,
Z,left,Pretarget,0,16,16,16,1994.8929680717993,1996.893793496769,left,1,3,0.8931021672906354,B20S10,2022-11-02_12h55.25.283,t1_Paradigm,2021.1.4,60.05159088234339,
V,right,Target,0,17,17,17,1998.3930832399055,2000.3924182161572,left,0,3,1.0425560650764965,B20S10,2022-11-02_12h55.25.283,t1_Paradigm,2021.1.4,60.05159088234339,
N,left,Distractor,0,18,18,18,2001.8929417659529,2003.8926395699382,left,1,3,0.8701955805299804,B20S10,2022-11-02_12h55.25.283,t1_Paradigm,2021.1.4,60.05159088234339,
Z,right,Target,0,19,19,19,2005.3929930943996,2007.393244924373,right,1,3,0.6496367552317679,B20S10,2022-11-02_12h55.25.283,t1_Paradigm,2021.1.4,60.05159088234339,
R,left,Distractor,0,20,20,20,2008.892664271756,2010.8933889647597,left,1,3,0.861606091610156,B20S10,2022-11-02_12h55.25.283,t1_Paradigm,2021.1.4,60.05159088234339,
P,left,Distractor,0,21,21,21,2012.3926902567619,2014.393114999344,left,1,3,1.0098358068498783,B20S10,2022-11-02_12h55.25.283,t1_Paradigm,2021.1.4,60.05159088234339,
Z,right,Target,0,22,22,22,2015.8927688534022,2017.893071049417,right,1,3,0.9337074318900704,B20S10,2022-11-02_12h55.25.283,t1_Paradigm,2021.1.4,60.05159088234339,
D,left,Pretarget,0,23,23,23,2019.3925183065585,2021.3936751206638,left,1,3,0.7771002783556469,B20S10,2022-11-02_12h55.25.283,t1_Paradigm,2021.1.4,60.05159088234339,
K,left,Distractor,0,24,24,24,2022.892533063481,2024.893700784829,left,1,3,1.2453103475854732,B20S10,2022-11-02_12h55.25.283,t1_Paradigm,2021.1.4,60.05159088234339,
W,left,Distractor,0,25,25,25,2026.392974487855,2028.3927091840887,left,1,3,0.9464939807658084,B20S10,2022-11-02_12h55.25.283,t1_Paradigm,2021.1.4,60.05159088234339,
D,right,Target,0,26,26,26,2029.892738697934,2031.8942557732807,right,1,3,0.9326487833750434,B20S10,2022-11-02_12h55.25.283,t1_Paradigm,2021.1.4,60.05159088234339,
G,left,Pretarget,0,27,27,27,2033.392991490371,2035.3944251570501,left,1,3,1.3045847178436816,B20S10,2022-11-02_12h55.25.283,t1_Paradigm,2021.1.4,60.05159088234339,
V,left,Distractor,0,28,28,28,2036.893123981834,2038.892594336765,left,1,3,1.0063515700749122,B20S10,2022-11-02_12h55.25.283,t1_Paradigm,2021.1.4,60.05159088234339,
D,right,Target,0,29,29,29,2040.392726186663,2042.394865298178,right,1,3,1.2645273840171285,B20S10,2022-11-02_12h55.25.283,t1_Paradigm,2021.1.4,60.05159088234339,
G,right,Target,0,30,30,30,2043.8928407131461,2045.8953724870225,right,1,3,1.0918056757654995,B20S10,2022-11-02_12h55.25.283,t1_Paradigm,2021.1.4,60.05159088234339,
B,left,Pretarget,0,31,31,31,2047.3928410339868,2049.3925295346417,left,1,3,0.7304770783521235,B20S10,2022-11-02_12h55.25.283,t1_Paradigm,2021.1.4,60.05159088234339,
N,left,Distractor,0,32,32,32,2050.8927874599467,2052.8931810847134,left,1,3,0.7819553044973873,B20S10,2022-11-02_12h55.25.283,t1_Paradigm,2021.1.4,60.05159088234339,
F,left,Distractor,0,33,33,33,2054.3930742574157,2056.392849695636,left,1,3,1.2341268491582014,B20S10,2022-11-02_12h55.25.283,t1_Paradigm,2021.1.4,60.05159088234339,
B,right,Target,0,34,34,34,2057.8930094552925,2059.8947389019886,left,0,3,0.6602181072812527,B20S10,2022-11-02_12h55.25.283,t1_Paradigm,2021.1.4,60.05159088234339,
Q,left,Pretarget,0,35,35,35,2061.3931490044342,2063.3942939488334,right,0,3,0.9365019430988468,B20S10,2022-11-02_12h55.25.283,t1_Paradigm,2021.1.4,60.05159088234339,
S,left,Pretarget,0,36,36,36,2064.892484622309,2066.89316440298,right,0,3,0.8617340918863192,B20S10,2022-11-02_12h55.25.283,t1_Paradigm,2021.1.4,60.05159088234339,
W,left,Distractor,0,37,37,37,2068.3928570740973,2070.3925365923205,left,1,3,1.2986431334284134,B20S10,2022-11-02_12h55.25.283,t1_Paradigm,2021.1.4,60.05159088234339,
Q,right,Target,0,38,38,38,2071.893029345083,2073.8925888831145,left,0,3,1.2863810967537574,B20S10,2022-11-02_12h55.25.283,t1_Paradigm,2021.1.4,60.05159088234339,
S,right,Target,0,39,39,39,2075.3932112401235,2077.3934836015105,left,0,3,1.2096354977111332,B20S10,2022-11-02_12h55.25.283,t1_Paradigm,2021.1.4,60.05159088234339,
T,left,Distractor,0,40,40,40,2078.8932532652398,2080.8943340491387,left,1,3,0.6846398445777595,B20S10,2022-11-02_12h55.25.283,t1_Paradigm,2021.1.4,60.05159088234339,
G,left,Distractor,0,41,41,41,2082.3931204529945,2084.3945878039813,left,1,3,0.32041279593249783,B20S10,2022-11-02_12h55.25.283,t1_Paradigm,2021.1.4,60.05159088234339,
D,left,Distractor,0,42,42,42,2085.892865414964,2087.8948845463456,left,1,3,0.6442046053125523,B20S10,2022-11-02_12h55.25.283,t1_Paradigm,2021.1.4,60.05159088234339,
S,left,Lure,0,43,43,43,2089.3931961624185,2091.3926729334053,left,1,3,1.4342518338817172,B20S10,2022-11-02_12h55.25.283,t1_Paradigm,2021.1.4,60.05159088234339,
Z,left,Pretarget,0,44,44,44,2092.8928403923637,2094.8931095456937,left,1,3,1.0698759328224696,B20S10,2022-11-02_12h55.25.283,t1_Paradigm,2021.1.4,60.05159088234339,
J,left,Distractor,0,45,45,45,2096.3928015752463,2098.394841558824,left,1,3,1.440238330687862,B20S10,2022-11-02_12h55.25.283,t1_Paradigm,2021.1.4,60.05159088234339,
M,left,Pretarget,0,46,46,46,2099.892741264368,2101.893402759277,left,1,3,1.029768553795293,B20S10,2022-11-02_12h55.25.283,t1_Paradigm,2021.1.4,60.05159088234339,
Z,right,Target,0,47,47,47,2103.392901344865,2105.3931406635675,right,1,3,0.7623866684734821,B20S10,2022-11-02_12h55.25.283,t1_Paradigm,2021.1.4,60.05159088234339,
P,left,Distractor,0,48,48,48,2106.8929459364153,2108.892846487579,None,0,3,,B20S10,2022-11-02_12h55.25.283,t1_Paradigm,2021.1.4,60.05159088234339,
M,right,Target,0,49,49,49,2110.392961334903,2112.3948056289228,right,1,3,0.9123551336233504,B20S10,2022-11-02_12h55.25.283,t1_Paradigm,2021.1.4,60.05159088234339,
K,left,Distractor,0,50,50,50,2113.8925442915643,2115.8939705798402,left,1,3,1.0610865839989856,B20S10,2022-11-02_12h55.25.283,t1_Paradigm,2021.1.4,60.05159088234339,
Y,left,Distractor,0,51,51,51,2117.392806066491,2119.3932138065575,left,1,3,0.6338166972273029,B20S10,2022-11-02_12h55.25.283,t1_Paradigm,2021.1.4,60.05159088234339,
X,left,Distractor,0,52,52,52,2120.893180763873,2122.894060404564,left,1,3,1.1654494347749278,B20S10,2022-11-02_12h55.25.283,t1_Paradigm,2021.1.4,60.05159088234339,
F,left,Pretarget,0,53,53,53,2124.3929975856445,2126.394519152236,left,1,3,0.6246353276656009,B20S10,2022-11-02_12h55.25.283,t1_Paradigm,2021.1.4,60.05159088234339,
M,left,Lure,0,54,54,54,2127.892970638175,2129.895091143204,left,1,3,0.7560078301467001,B20S10,2022-11-02_12h55.25.283,t1_Paradigm,2021.1.4,60.05159088234339,
V,left,Distractor,0,55,55,55,2131.3926071688766,2133.3939388203435,left,1,3,0.7934047482558526,B20S10,2022-11-02_12h55.25.283,t1_Paradigm,2021.1.4,60.05159088234339,
F,right,Target,0,56,56,56,2134.8928227482247,2136.894436064351,right,1,3,0.8606821802677587,B20S10,2022-11-02_12h55.25.283,t1_Paradigm,2021.1.4,60.05159088234339,
S,left,Distractor,0,57,57,57,2138.3931961624185,2140.393732865108,left,1,3,0.721379759022966,B20S10,2022-11-02_12h55.25.283,t1_Paradigm,2021.1.4,60.05159088234339,
D,left,Distractor,0,58,58,58,2141.8932911199518,2143.8931496460573,left,1,3,0.7419987026951276,B20S10,2022-11-02_12h55.25.283,t1_Paradigm,2021.1.4,60.05159088234339,
F,right,Target,0,59,59,59,2145.3929526732536,2147.3932227890473,right,1,3,0.7777941743843257,B20S10,2022-11-02_12h55.25.283,t1_Paradigm,2021.1.4,60.05159088234339,
V,left,Pretarget,0,60,60,60,2148.892862206907,2150.894173647859,left,1,3,0.90890137309907,B20S10,2022-11-02_12h55.25.283,t1_Paradigm,2021.1.4,60.05159088234339,
J,left,Distractor,0,61,61,61,2152.392783289484,2154.393245565996,right,0,3,0.8979857448139228,B20S10,2022-11-02_12h55.25.283,t1_Paradigm,2021.1.4,60.05159088234339,
V,left,Lure,0,62,62,62,2155.893327049853,2157.8928240314126,right,0,3,0.9824585153837688,B20S10,2022-11-02_12h55.25.283,t1_Paradigm,2021.1.4,60.05159088234339,
V,right,Target,0,63,63,63,2159.3931538164616,2161.3927188082016,right,1,3,1.0343990180990659,B20S10,2022-11-02_12h55.25.283,t1_Paradigm,2021.1.4,60.05159088234339,
R,left,Distractor,0,0,0,0,2220.1008802180877,2222.0950910148676,None,0,4,,B20S10,2022-11-02_12h55.25.283,t1_Paradigm,2021.1.4,60.05159088234339,
F,left,Distractor,0,1,1,1,2223.593056164158,2225.592944524891,None,0,4,,B20S10,2022-11-02_12h55.25.283,t1_Paradigm,2021.1.4,60.05159088234339,
P,left,Pretarget,0,2,2,2,2227.0934138590237,2229.0951163582504,None,0,4,,B20S10,2022-11-02_12h55.25.283,t1_Paradigm,2021.1.4,60.05159088234339,
H,left,Distractor,0,3,3,3,2230.5935396136483,2232.594349319348,left,1,4,0.5848663953365758,B20S10,2022-11-02_12h55.25.283,t1_Paradigm,2021.1.4,60.05159088234339,
Z,left,Distractor,0,4,4,4,2234.0929374672123,2236.0929554321337,None,0,4,,B20S10,2022-11-02_12h55.25.283,t1_Paradigm,2021.1.4,60.05159088234339,
T,left,Distractor,0,5,5,5,2237.5934366360307,2239.5929596025962,left,1,4,0.6581274368800223,B20S10,2022-11-02_12h55.25.283,t1_Paradigm,2021.1.4,60.05159088234339,
P,right,Target,0,6,6,6,2241.0926359128207,2243.09299072047,left,0,4,0.5504837381886318,B20S10,2022-11-02_12h55.25.283,t1_Paradigm,2021.1.4,60.05159088234339,
G,left,Distractor,0,7,7,7,2244.593231001578,2246.5932354928227,left,1,4,0.9700543631915934,B20S10,2022-11-02_12h55.25.283,t1_Paradigm,2021.1.4,60.05159088234339,
L,left,Distractor,0,8,8,8,2248.0932046957314,2250.093429578352,left,1,4,0.9899059471208602,B20S10,2022-11-02_12h55.25.283,t1_Paradigm,2021.1.4,60.05159088234339,
P,left,Lure,0,9,9,9,2251.593327242357,2253.5929544697283,right,0,4,0.4342774981050752,B20S10,2022-11-02_12h55.25.283,t1_Paradigm,2021.1.4,60.05159088234339,
Q,left,Pretarget,0,10,10,10,2255.093189938867,2257.0945430840948,None,0,4,,B20S10,2022-11-02_12h55.25.283,t1_Paradigm,2021.1.4,60.05159088234339,
D,left,Distractor,0,11,11,11,2258.593311523029,2260.5934071221855,left,1,4,1.049916238465812,B20S10,2022-11-02_12h55.25.283,t1_Paradigm,2021.1.4,60.05159088234339,
M,left,Pretarget,0,12,12,12,2262.0930311415577,2264.0948924380937,left,1,4,0.5405609938898124,B20S10,2022-11-02_12h55.25.283,t1_Paradigm,2021.1.4,60.05159088234339,
C,left,Distractor,0,13,13,13,2265.5935174782644,2267.5942347928067,left,1,4,0.7850263474974781,B20S10,2022-11-02_12h55.25.283,t1_Paradigm,2021.1.4,60.05159088234339,
Q,right,Target,0,14,14,14,2269.093274951505,2271.0941642162506,None,0,4,,B20S10,2022-11-02_12h55.25.283,t1_Paradigm,2021.1.4,60.05159088234339,
R,left,Distractor,0,15,15,15,2272.593430861598,2274.5953351456556,right,0,4,1.015964739897754,B20S10,2022-11-02_12h55.25.283,t1_Paradigm,2021.1.4,60.05159088234339,
M,right,Target,0,16,16,16,2276.0931466305046,2278.0927789907437,right,1,4,0.5584867999423295,B20S10,2022-11-02_12h55.25.283,t1_Paradigm,2021.1.4,60.05159088234339,
S,left,Distractor,0,17,17,17,2279.5932172070607,2281.593315372651,left,1,4,1.0581316714524291,B20S10,2022-11-02_12h55.25.283,t1_Paradigm,2021.1.4,60.05159088234339,
Z,left,Distractor,0,18,18,18,2283.093133798393,2285.093769949861,left,1,4,1.029789726715535,B20S10,2022-11-02_12h55.25.283,t1_Paradigm,2021.1.4,60.05159088234339,
L,left,Pretarget,0,19,19,19,2286.5932451168774,2288.593097868492,left,1,4,1.0984466098016128,B20S10,2022-11-02_12h55.25.283,t1_Paradigm,2021.1.4,60.05159088234339,
M,right,Target,0,20,20,20,2290.093230680737,2292.094813520671,right,1,4,1.2127113527967595,B20S10,2022-11-02_12h55.25.283,t1_Paradigm,2021.1.4,60.05159088234339,
P,left,Distractor,0,21,21,21,2293.5930609761854,2295.5954580130056,left,1,4,0.8481349500943907,B20S10,2022-11-02_12h55.25.283,t1_Paradigm,2021.1.4,60.05159088234339,
F,left,Distractor,0,22,22,22,2297.093460375385,2299.0954397272435,left,1,4,0.3239810829400085,B20S10,2022-11-02_12h55.25.283,t1_Paradigm,2021.1.4,60.05159088234339,
L,right,Target,0,23,23,23,2300.5934145006468,2302.595090052462,right,1,4,1.208344588172622,B20S10,2022-11-02_12h55.25.283,t1_Paradigm,2021.1.4,60.05159088234339,
L,left,Lure,0,24,24,24,2304.0930760539486,2306.0932034125435,left,1,4,1.2781711173593067,B20S10,2022-11-02_12h55.25.283,t1_Paradigm,2021.1.4,60.05159088234339,
V,left,Pretarget,0,25,25,25,2307.593383382773,2309.593170369859,left,1,4,1.2822190042352304,B20S10,2022-11-02_12h55.25.283,t1_Paradigm,2021.1.4,60.05159088234339,
Z,left,Distractor,0,26,26,26,2311.0929602442193,2313.0929419584572,right,0,4,1.0627246018848382,B20S10,2022-11-02_12h55.25.283,t1_Paradigm,2021.1.4,60.05159088234339,
H,left,Distractor,0,27,27,27,2314.592972434708,2316.592602228513,left,1,4,0.8108259318978526,B20S10,2022-11-02_12h55.25.283,t1_Paradigm,2021.1.4,60.05159088234339,
X,left,Distractor,0,28,28,28,2318.0930016277125,2320.0945976205403,left,1,4,1.2449815250001848,B20S10,2022-11-02_12h55.25.283,t1_Paradigm,2021.1.4,60.05159088234339,
V,right,Target,0,29,29,29,2321.5930975477095,2323.5951237367117,left,0,4,0.8972180642304011,B20S10,2022-11-02_12h55.25.283,t1_Paradigm,2021.1.4,60.05159088234339,
C,left,Distractor,0,30,30,30,2325.0934667914407,2327.095294403727,left,1,4,0.9320431081578135,B20S10,2022-11-02_12h55.25.283,t1_Paradigm,2021.1.4,60.05159088234339,
S,left,Pretarget,0,31,31,31,2328.5929596025962,2330.5933407160337,left,1,4,1.0820734881563112,B20S10,2022-11-02_12h55.25.283,t1_Paradigm,2021.1.4,60.05159088234339,
D,left,Distractor,0,32,32,32,2332.093035953585,2334.093077657919,left,1,4,0.7985186620499007,B20S10,2022-11-02_12h55.25.283,t1_Paradigm,2021.1.4,60.05159088234339,
V,left,Distractor,0,33,33,33,2335.5935287063476,2337.593619814259,left,1,4,0.38581898651318625,B20S10,2022-11-02_12h55.25.283,t1_Paradigm,2021.1.4,60.05159088234339,
R,left,Distractor,0,34,34,34,2339.0933294879505,2341.093043011264,left,1,4,0.8383610581513494,B20S10,2022-11-02_12h55.25.283,t1_Paradigm,2021.1.4,60.05159088234339,
S,right,Target,0,35,35,35,2342.593262440234,2344.594317239069,left,0,4,0.6011256320634857,B20S10,2022-11-02_12h55.25.283,t1_Paradigm,2021.1.4,60.05159088234339,
Y,left,Distractor,0,36,36,36,2346.0935463504866,2348.0951641578577,left,1,4,0.3804372025770135,B20S10,2022-11-02_12h55.25.283,t1_Paradigm,2021.1.4,60.05159088234339,
N,left,Pretarget,0,37,37,37,2349.59367531311,2351.593892817269,left,1,4,0.8977595790056512,B20S10,2022-11-02_12h55.25.283,t1_Paradigm,2021.1.4,60.05159088234339,
Z,left,Pretarget,0,38,38,38,2353.0930128557957,2355.093534801621,right,0,4,0.9662223764462397,B20S10,2022-11-02_12h55.25.283,t1_Paradigm,2021.1.4,60.05159088234339,
P,left,Pretarget,0,39,39,39,2356.5933496985235,2358.5945931292954,right,0,4,1.1769113898626529,B20S10,2022-11-02_12h55.25.283,t1_Paradigm,2021.1.4,60.05159088234339,
M,left,Distractor,0,40,40,40,2360.093549237703,2362.0936201350996,left,1,4,0.8299986975616775,B20S10,2022-11-02_12h55.25.283,t1_Paradigm,2021.1.4,60.05159088234339,
N,right,Target,0,41,41,41,2363.5931398936664,2365.594151384139,left,0,4,0.5936586314346641,B20S10,2022-11-02_12h55.25.283,t1_Paradigm,2021.1.4,60.05159088234339,
Z,right,Target,0,42,42,42,2367.076136394986,2369.077590272238,None,0,4,,B20S10,2022-11-02_12h55.25.283,t1_Paradigm,2021.1.4,60.05159088234339,
P,right,Target,0,43,43,43,2370.576605408336,2372.5776422422496,left,0,4,0.7938096011057496,B20S10,2022-11-02_12h55.25.283,t1_Paradigm,2021.1.4,60.05159088234339,
X,left,Pretarget,0,44,44,44,2374.0767632431816,2376.0769002258894,None,0,4,,B20S10,2022-11-02_12h55.25.283,t1_Paradigm,2021.1.4,60.05159088234339,
Z,left,Lure,0,45,45,45,2377.5769226820557,2379.5770635143854,right,0,4,1.026477440202143,B20S10,2022-11-02_12h55.25.283,t1_Paradigm,2021.1.4,60.05159088234339,
R,left,Pretarget,0,46,46,46,2381.0767385413637,2383.077022130892,left,1,4,0.7586002357420512,B20S10,2022-11-02_12h55.25.283,t1_Paradigm,2021.1.4,60.05159088234339,
K,left,Distractor,0,47,47,47,2384.5769002258894,2386.578334213351,left,1,4,0.537203474144917,B20S10,2022-11-02_12h55.25.283,t1_Paradigm,2021.1.4,60.05159088234339,
X,right,Target,0,48,48,48,2388.0933031821623,2390.0940840155818,right,1,4,1.0694322628551163,B20S10,2022-11-02_12h55.25.283,t1_Paradigm,2021.1.4,60.05159088234339,
B,left,Distractor,0,49,49,49,2391.593359643419,2393.5942469832953,left,1,4,0.8657434824272059,B20S10,2022-11-02_12h55.25.283,t1_Paradigm,2021.1.4,60.05159088234339,
R,right,Target,0,50,50,50,2395.093464225065,2397.0951221327414,left,0,4,1.0604683973942883,B20S10,2022-11-02_12h55.25.283,t1_Paradigm,2021.1.4,60.05159088234339,
Y,left,Pretarget,0,51,51,51,2398.593587734038,2400.5936220599106,left,1,4,0.5219072867766954,B20S10,2022-11-02_12h55.25.283,t1_Paradigm,2021.1.4,60.05159088234339,
W,left,Pretarget,0,52,52,52,2402.0932091869763,2404.0952273559524,left,1,4,0.7645953941973858,B20S10,2022-11-02_12h55.25.283,t1_Paradigm,2021.1.4,60.05159088234339,
Z,left,Distractor,0,53,53,53,2405.5936146814493,2407.5953098022146,right,0,4,0.8162118862383068,B20S10,2022-11-02_12h55.25.283,t1_Paradigm,2021.1.4,60.05159088234339,
Q,left,Distractor,0,54,54,54,2409.0934337488143,2411.0937179798493,left,1,4,0.7578242142917588,B20S10,2022-11-02_12h55.25.283,t1_Paradigm,2021.1.4,60.05159088234339,
Y,right,Target,0,55,55,55,2412.593407442968,2414.594774382713,right,1,4,0.9526973401079886,B20S10,2022-11-02_12h55.25.283,t1_Paradigm,2021.1.4,60.05159088234339,
W,right,Target,0,56,56,56,2416.093297086889,2418.09433873283,left,0,4,1.165829265024513,B20S10,2022-11-02_12h55.25.283,t1_Paradigm,2021.1.4,60.05159088234339,
H,left,Pretarget,0,57,57,57,2419.5936534985667,2421.5936727467342,left,1,4,0.7217012032051571,B20S10,2022-11-02_12h55.25.283,t1_Paradigm,2021.1.4,60.05159088234339,
M,left,Distractor,0,58,58,58,2423.0938251279294,2425.0931543297484,left,1,4,0.870455430529546,B20S10,2022-11-02_12h55.25.283,t1_Paradigm,2021.1.4,60.05159088234339,
R,left,Pretarget,0,59,59,59,2426.5935999245266,2428.5932367760106,right,0,4,1.066728538775351,B20S10,2022-11-02_12h55.25.283,t1_Paradigm,2021.1.4,60.05159088234339,
J,left,Distractor,0,60,60,60,2430.0934289367287,2432.0944539009943,left,1,4,0.34931325796060264,B20S10,2022-11-02_12h55.25.283,t1_Paradigm,2021.1.4,60.05159088234339,
H,right,Target,0,61,61,61,2433.593605378177,2435.5937811780022,left,0,4,0.7056633202591911,B20S10,2022-11-02_12h55.25.283,t1_Paradigm,2021.1.4,60.05159088234339,
Z,left,Distractor,0,62,62,62,2437.093567523465,2439.0952065038146,right,0,4,0.9005342004820704,B20S10,2022-11-02_12h55.25.283,t1_Paradigm,2021.1.4,60.05159088234339,
R,right,Target,0,63,63,63,2440.5934770571184,2442.59339172364,left,0,4,0.3303682620753534,B20S10,2022-11-02_12h55.25.283,t1_Paradigm,2021.1.4,60.05159088234339,
J,left,Pretarget,0,0,0,0,2464.275784346217,2466.2796298066387,None,0,4,,B20S10,2022-11-02_12h55.25.283,t1_Paradigm,2021.1.4,60.05159088234339,
G,left,Pretarget,0,1,1,1,2467.7771236969857,2469.777726805769,left,1,4,0.2980518942931667,B20S10,2022-11-02_12h55.25.283,t1_Paradigm,2021.1.4,60.05159088234339,
Z,left,Distractor,0,2,2,2,2471.2771182433353,2473.2778852822375,left,1,4,0.510004228213802,B20S10,2022-11-02_12h55.25.283,t1_Paradigm,2021.1.4,60.05159088234339,
F,left,Distractor,0,3,3,3,2474.7768590348423,2476.777169892506,left,1,4,0.5305824298993684,B20S10,2022-11-02_12h55.25.283,t1_Paradigm,2021.1.4,60.05159088234339,
J,right,Target,0,4,4,4,2478.2770884086494,2480.2778955479153,left,0,4,1.109699722379446,B20S10,2022-11-02_12h55.25.283,t1_Paradigm,2021.1.4,60.05159088234339,
G,right,Target,0,5,5,5,2481.777020077745,2483.778767168522,left,0,4,0.7130745012545958,B20S10,2022-11-02_12h55.25.283,t1_Paradigm,2021.1.4,60.05159088234339,
H,left,Distractor,0,6,6,6,2485.277212880086,2487.27678172139,left,1,4,0.9907300889026374,B20S10,2022-11-02_12h55.25.283,t1_Paradigm,2021.1.4,60.05159088234339,
P,left,Distractor,0,7,7,7,2488.7767903830973,2490.7767480371404,left,1,4,0.46679629234131426,B20S10,2022-11-02_12h55.25.283,t1_Paradigm,2021.1.4,60.05159088234339,
G,left,Lure,0,8,8,8,2492.2771188849,2494.2767005583737,right,0,4,1.1749884992022999,B20S10,2022-11-02_12h55.25.283,t1_Paradigm,2021.1.4,60.05159088234339,
S,left,Distractor,0,9,9,9,2495.7768943231204,2497.7787832086324,right,0,4,0.9369462546310388,B20S10,2022-11-02_12h55.25.283,t1_Paradigm,2021.1.4,60.05159088234339,
R,left,Pretarget,0,10,10,10,2499.2773014215636,2501.2767390546505,left,1,4,0.7832189458422363,B20S10,2022-11-02_12h55.25.283,t1_Paradigm,2021.1.4,60.05159088234339,
T,left,Pretarget,0,11,11,11,2502.7768266337807,2504.7785095640575,left,1,4,0.7053377056727186,B20S10,2022-11-02_12h55.25.283,t1_Paradigm,2021.1.4,60.05159088234339,
X,left,Distractor,0,12,12,12,2506.2768741125474,2508.2766979919397,left,1,4,0.6633006991469301,B20S10,2022-11-02_12h55.25.283,t1_Paradigm,2021.1.4,60.05159088234339,
F,left,Pretarget,0,13,13,13,2509.776894002338,2511.7784989775973,right,0,4,1.0653192531317472,B20S10,2022-11-02_12h55.25.283,t1_Paradigm,2021.1.4,60.05159088234339,
R,right,Target,0,14,14,14,2513.27679615753,2515.279371881392,right,1,4,1.2763576204306446,B20S10,2022-11-02_12h55.25.283,t1_Paradigm,2021.1.4,60.05159088234339,
T,right,Target,0,15,15,15,2516.776839786675,2518.777257150854,right,1,4,0.9943795389262959,B20S10,2022-11-02_12h55.25.283,t1_Paradigm,2021.1.4,60.05159088234339,
C,left,Distractor,0,16,16,16,2520.27684973157,2522.2780431171414,left,1,4,1.0618773623136804,B20S10,2022-11-02_12h55.25.283,t1_Paradigm,2021.1.4,60.05159088234339,
F,right,Target,0,17,17,17,2523.7769819021923,2525.7779956383165,right,1,4,0.8898716854164377,B20S10,2022-11-02_12h55.25.283,t1_Paradigm,2021.1.4,60.05159088234339,
M,left,Distractor,0,18,18,18,2527.277004358417,2529.2767246185686,left,1,4,0.7990601767669432,B20S10,2022-11-02_12h55.25.283,t1_Paradigm,2021.1.4,60.05159088234339,
N,left,Distractor,0,19,19,19,2530.776821500913,2532.7787373338942,left,1,4,0.8330553044215776,B20S10,2022-11-02_12h55.25.283,t1_Paradigm,2021.1.4,60.05159088234339,
R,left,Lure,0,20,20,20,2534.276841069921,2536.278852822841,None,0,4,,B20S10,2022-11-02_12h55.25.283,t1_Paradigm,2021.1.4,60.05159088234339,
F,right,Target,0,21,21,21,2537.7773261233815,2539.7767188441358,right,1,4,0.7950822248822078,B20S10,2022-11-02_12h55.25.283,t1_Paradigm,2021.1.4,60.05159088234339,
P,left,Distractor,0,22,22,22,2541.2771137520904,2543.27770402882,left,1,4,1.0058671581791714,B20S10,2022-11-02_12h55.25.283,t1_Paradigm,2021.1.4,60.05159088234339,
L,left,Pretarget,0,23,23,23,2544.7767332802177,2546.777886244643,left,1,4,0.9141096028033644,B20S10,2022-11-02_12h55.25.283,t1_Paradigm,2021.1.4,60.05159088234339,
T,left,Distractor,0,24,24,24,2548.2766598164453,2550.277567366895,left,1,4,1.0143796544289216,B20S10,2022-11-02_12h55.25.283,t1_Paradigm,2021.1.4,60.05159088234339,
F,left,Distractor,0,25,25,25,2551.776980298222,2553.777056649211,right,0,4,0.7309207483194768,B20S10,2022-11-02_12h55.25.283,t1_Paradigm,2021.1.4,60.05159088234339,
V,left,Distractor,0,26,26,26,2555.276912288042,2557.289897734532,left,1,4,0.6898769465624355,B20S10,2022-11-02_12h55.25.283,t1_Paradigm,2021.1.4,60.05159088234339,
L,right,Target,0,27,27,27,2558.7766671949066,2560.7789882015204,left,0,4,1.1528082094737329,B20S10,2022-11-02_12h55.25.283,t1_Paradigm,2021.1.4,60.05159088234339,
S,left,Pretarget,0,28,28,28,2562.2769138920703,2564.278017452918,left,1,4,1.013993408123497,B20S10,2022-11-02_12h55.25.283,t1_Paradigm,2021.1.4,60.05159088234339,
W,left,Distractor,0,29,29,29,2565.7772446395247,2567.7787251434056,left,1,4,0.9851000037742779,B20S10,2022-11-02_12h55.25.283,t1_Paradigm,2021.1.4,60.05159088234339,
Q,left,Distractor,0,30,30,30,2569.276991205523,2571.2767611900344,left,1,4,0.9908211968722753,B20S10,2022-11-02_12h55.25.283,t1_Paradigm,2021.1.4,60.05159088234339,
L,right,Target,0,31,31,31,2572.777308800025,2574.778740541893,left,0,4,0.8652228198479861,B20S10,2022-11-02_12h55.25.283,t1_Paradigm,2021.1.4,60.05159088234339,
S,right,Target,0,32,32,32,2576.277145511529,2578.2786956295604,left,0,4,1.2850664478028193,B20S10,2022-11-02_12h55.25.283,t1_Paradigm,2021.1.4,60.05159088234339,
Z,left,Pretarget,0,33,33,33,2579.7766755357734,2581.778600030404,left,1,4,1.2094596978859045,B20S10,2022-11-02_12h55.25.283,t1_Paradigm,2021.1.4,60.05159088234339,
F,left,Distractor,0,34,34,34,2583.2769068343914,2585.2790058456594,right,0,4,0.7327714583370835,B20S10,2022-11-02_12h55.25.283,t1_Paradigm,2021.1.4,60.05159088234339,
V,left,Distractor,0,35,35,35,2586.7770021127653,2588.777295647131,None,0,4,,B20S10,2022-11-02_12h55.25.283,t1_Paradigm,2021.1.4,60.05159088234339,
M,left,Distractor,0,36,36,36,2590.2769434059155,2592.2774515571655,left,1,4,1.0465648139943369,B20S10,2022-11-02_12h55.25.283,t1_Paradigm,2021.1.4,60.05159088234339,
Z,right,Target,0,37,37,37,2593.7772295618197,2595.777344088303,right,1,4,0.5223535231780261,B20S10,2022-11-02_12h55.25.283,t1_Paradigm,2021.1.4,60.05159088234339,
H,left,Pretarget,0,38,38,38,2597.277165722102,2599.279180041456,left,1,4,0.796772854460869,B20S10,2022-11-02_12h55.25.283,t1_Paradigm,2021.1.4,60.05159088234339,
L,left,Distractor,0,39,39,39,2600.776912929665,2602.778088029474,left,1,4,1.1378100476576947,B20S10,2022-11-02_12h55.25.283,t1_Paradigm,2021.1.4,60.05159088234339,
G,left,Distractor,0,40,40,40,2604.2770707645104,2606.278141603514,left,1,4,0.7738069191691466,B20S10,2022-11-02_12h55.25.283,t1_Paradigm,2021.1.4,60.05159088234339,
K,left,Distractor,0,41,41,41,2607.777103807195,2609.779196402349,left,1,4,0.8090121141285636,B20S10,2022-11-02_12h55.25.283,t1_Paradigm,2021.1.4,60.05159088234339,
H,right,Target,0,42,42,42,2611.2772959679132,2613.2790674397256,right,1,4,0.797224544454366,B20S10,2022-11-02_12h55.25.283,t1_Paradigm,2021.1.4,60.05159088234339,
B,left,Distractor,0,43,43,43,2614.7769896014943,2616.776482733432,left,1,4,1.0116534741828218,B20S10,2022-11-02_12h55.25.283,t1_Paradigm,2021.1.4,60.05159088234339,
Z,left,Distractor,0,44,44,44,2618.2769661829225,2620.279564683733,right,0,4,1.2523757034214213,B20S10,2022-11-02_12h55.25.283,t1_Paradigm,2021.1.4,60.05159088234339,
T,left,Pretarget,0,45,45,45,2621.7774384042714,2623.776800007152,left,1,4,1.1632747141411528,B20S10,2022-11-02_12h55.25.283,t1_Paradigm,2021.1.4,60.05159088234339,
H,right,Target,0,46,46,46,2625.277159306046,2627.2768420323264,right,1,4,1.1190353980055079,B20S10,2022-11-02_12h55.25.283,t1_Paradigm,2021.1.4,60.05159088234339,
F,left,Distractor,0,47,47,47,2628.777133000258,2630.7795133552863,right,0,4,0.8643489536480047,B20S10,2022-11-02_12h55.25.283,t1_Paradigm,2021.1.4,60.05159088234339,
R,left,Distractor,0,48,48,48,2632.2773203489487,2634.277389642317,left,1,4,0.886526356160175,B20S10,2022-11-02_12h55.25.283,t1_Paradigm,2021.1.4,60.05159088234339,
T,right,Target,0,49,49,49,2635.7769944135216,2637.7794302674592,right,1,4,0.9685546112013981,B20S10,2022-11-02_12h55.25.283,t1_Paradigm,2021.1.4,60.05159088234339,
H,right,Target,0,50,50,50,2639.2773370306822,2641.278505393653,right,1,4,0.6534212631522678,B20S10,2022-11-02_12h55.25.283,t1_Paradigm,2021.1.4,60.05159088234339,
Y,left,Pretarget,0,51,51,51,2642.7772593964473,2644.779203460028,left,1,4,0.7847385875647888,B20S10,2022-11-02_12h55.25.283,t1_Paradigm,2021.1.4,60.05159088234339,
H,left,Distractor,0,52,52,52,2646.2771551355836,2648.2774566900334,right,0,4,0.8066391375032254,B20S10,2022-11-02_12h55.25.283,t1_Paradigm,2021.1.4,60.05159088234339,
S,left,Distractor,0,53,53,53,2649.7769870350603,2651.7798582180985,right,0,4,1.0805718113551848,B20S10,2022-11-02_12h55.25.283,t1_Paradigm,2021.1.4,60.05159088234339,
Q,left,Distractor,0,54,54,54,2653.277125300956,2655.278113372915,left,1,4,0.8140188799006864,B20S10,2022-11-02_12h55.25.283,t1_Paradigm,2021.1.4,60.05159088234339,
Y,right,Target,0,55,55,55,2656.7773123288644,2658.7773745645536,left,0,4,0.8186406824970618,B20S10,2022-11-02_12h55.25.283,t1_Paradigm,2021.1.4,60.05159088234339,
R,left,Distractor,0,56,56,56,2660.277455086005,2662.277255225985,left,1,4,0.7748405450838618,B20S10,2022-11-02_12h55.25.283,t1_Paradigm,2021.1.4,60.05159088234339,
H,left,Pretarget,0,57,57,57,2663.776975165354,2665.778736692271,left,1,4,0.8414282515295781,B20S10,2022-11-02_12h55.25.283,t1_Paradigm,2021.1.4,60.05159088234339,
J,left,Distractor,0,58,58,58,2667.277236940281,2669.2770643484546,left,1,4,0.4151320006349124,B20S10,2022-11-02_12h55.25.283,t1_Paradigm,2021.1.4,60.05159088234339,
V,left,Distractor,0,59,59,59,2670.777072368539,2672.7794350794866,left,1,4,0.6405975011875853,B20S10,2022-11-02_12h55.25.283,t1_Paradigm,2021.1.4,60.05159088234339,
Y,left,Lure,0,60,60,60,2674.2772529803915,2676.278993655171,right,0,4,0.9010247075930238,B20S10,2022-11-02_12h55.25.283,t1_Paradigm,2021.1.4,60.05159088234339,
H,right,Target,0,61,61,61,2677.777323877788,2679.7784835790517,right,1,4,0.8897061512689106,B20S10,2022-11-02_12h55.25.283,t1_Paradigm,2021.1.4,60.05159088234339,
L,left,Distractor,0,62,62,62,2681.2773450507084,2683.2776103544747,None,0,4,,B20S10,2022-11-02_12h55.25.283,t1_Paradigm,2021.1.4,60.05159088234339,
P,left,Distractor,0,63,63,63,2684.777417231293,2686.777849031554,left,1,4,0.5303017276455648,B20S10,2022-11-02_12h55.25.283,t1_Paradigm,2021.1.4,60.05159088234339,
