Letter,CorrAnswer,Stimulus,nback_run.thisRepN,nback_run.thisTrialN,nback_run.thisN,nback_run.thisIndex,fixcross.started,nback_trial.started,trial_resp.keys,trial_resp.corr,currentlevel,trial_resp.rt,Participant,date,expName,psychopyVersion,frameRate,
H,left,Distractor,0,0,0,0,258.31263914785814,260.3065323618939,None,0,1,,B21L11,2022-11-17_12h08.54.174,t1_Paradigm,2021.1.4,59.95929859226403,
Q,left,Pretarget,0,1,1,1,261.80483403627295,263.8072294645244,None,0,1,,B21L11,2022-11-17_12h08.54.174,t1_Paradigm,2021.1.4,59.95929859226403,
Q,right,Target,0,2,2,2,265.3045299160294,267.3038767633261,right,1,1,1.0587215144187212,B21L11,2022-11-17_12h08.54.174,t1_Paradigm,2021.1.4,59.95929859226403,
T,left,Distractor,0,3,3,3,268.80381901888177,270.8064511989942,None,0,1,,B21L11,2022-11-17_12h08.54.174,t1_Paradigm,2021.1.4,59.95929859226403,
Q,left,Lure,0,4,4,4,272.3031353899278,274.30478527443483,None,0,1,,B21L11,2022-11-17_12h08.54.174,t1_Paradigm,2021.1.4,59.95929859226403,
L,left,Distractor,0,5,5,5,275.8024713299237,277.8044022368267,left,1,1,0.9581077561015263,B21L11,2022-11-17_12h08.54.174,t1_Paradigm,2021.1.4,59.95929859226403,
V,left,Pretarget,0,6,6,6,279.302067440236,281.30422066291794,left,1,1,0.8966401770012453,B21L11,2022-11-17_12h08.54.174,t1_Paradigm,2021.1.4,59.95929859226403,
V,right,Target,0,7,7,7,282.8013722624164,284.80102964595426,right,1,1,0.6214062160579488,B21L11,2022-11-17_12h08.54.174,t1_Paradigm,2021.1.4,59.95929859226403,
K,left,Distractor,0,8,8,8,286.30068767105695,288.30340486357454,left,1,1,1.0668641095981002,B21L11,2022-11-17_12h08.54.174,t1_Paradigm,2021.1.4,59.95929859226403,
G,left,Pretarget,0,9,9,9,289.80010092433076,291.80160035262816,left,1,1,0.6804430788615718,B21L11,2022-11-17_12h08.54.174,t1_Paradigm,2021.1.4,59.95929859226403,
G,right,Target,0,10,10,10,293.2996155509027,295.29942884424236,left,0,1,0.7920099782058969,B21L11,2022-11-17_12h08.54.174,t1_Paradigm,2021.1.4,59.95929859226403,
G,right,Target,0,11,11,11,296.7994035008596,298.79867335560266,right,1,1,0.7673887490527704,B21L11,2022-11-17_12h08.54.174,t1_Paradigm,2021.1.4,59.95929859226403,
P,left,Pretarget,0,12,12,12,300.29846355109476,302.300209996989,left,1,1,1.2056132000871003,B21L11,2022-11-17_12h08.54.174,t1_Paradigm,2021.1.4,59.95929859226403,
P,right,Target,0,13,13,13,303.79775489959866,305.7973946389975,right,1,1,1.0565670084906742,B21L11,2022-11-17_12h08.54.174,t1_Paradigm,2021.1.4,59.95929859226403,
G,left,Lure,0,14,14,14,307.29717232321855,309.29861176165286,left,1,1,0.8935126787982881,B21L11,2022-11-17_12h08.54.174,t1_Paradigm,2021.1.4,59.95929859226403,
Y,left,Distractor,0,15,15,15,310.7963834712282,312.7996598215541,left,1,1,0.9156165749300271,B21L11,2022-11-17_12h08.54.174,t1_Paradigm,2021.1.4,59.95929859226403,
B,left,Distractor,0,16,16,16,314.29621729580685,316.29796277929563,left,1,1,0.667938218684867,B21L11,2022-11-17_12h08.54.174,t1_Paradigm,2021.1.4,59.95929859226403,
T,left,Pretarget,0,17,17,17,317.79551570198964,319.79779147100635,left,1,1,0.6021215274231508,B21L11,2022-11-17_12h08.54.174,t1_Paradigm,2021.1.4,59.95929859226403,
T,right,Target,0,18,18,18,321.29476630862337,323.2940005543642,right,1,1,1.094783503562212,B21L11,2022-11-17_12h08.54.174,t1_Paradigm,2021.1.4,59.95929859226403,
S,left,Distractor,0,19,19,19,324.7943592108786,326.79586954647675,left,1,1,0.6926665956852958,B21L11,2022-11-17_12h08.54.174,t1_Paradigm,2021.1.4,59.95929859226403,
T,left,Lure,0,20,20,20,328.29384592780843,330.29467520082835,left,1,1,0.6523543014191091,B21L11,2022-11-17_12h08.54.174,t1_Paradigm,2021.1.4,59.95929859226403,
J,left,Distractor,0,21,21,21,331.7931013464695,333.79463413823396,left,1,1,1.1000837935134768,B21L11,2022-11-17_12h08.54.174,t1_Paradigm,2021.1.4,59.95929859226403,
P,left,Distractor,0,22,22,22,335.29269007837866,337.2944044439355,left,1,1,0.5126906044315547,B21L11,2022-11-17_12h08.54.174,t1_Paradigm,2021.1.4,59.95929859226403,
F,left,Distractor,0,23,23,23,338.79207221383695,340.793657937902,left,1,1,0.5207164278253913,B21L11,2022-11-17_12h08.54.174,t1_Paradigm,2021.1.4,59.95929859226403,
L,left,Distractor,0,24,24,24,342.2915274921106,344.29361174232326,left,1,1,0.48314153647515923,B21L11,2022-11-17_12h08.54.174,t1_Paradigm,2021.1.4,59.95929859226403,
W,left,Pretarget,0,25,25,25,345.79081370774657,347.7942251156783,left,1,1,0.4331705369986594,B21L11,2022-11-17_12h08.54.174,t1_Paradigm,2021.1.4,59.95929859226403,
W,right,Target,0,26,26,26,349.29037773783784,351.2900088155875,right,1,1,0.40386335377115756,B21L11,2022-11-17_12h08.54.174,t1_Paradigm,2021.1.4,59.95929859226403,
V,left,Distractor,0,27,27,27,352.78974672046024,354.7888690063264,left,1,1,0.6816095147514716,B21L11,2022-11-17_12h08.54.174,t1_Paradigm,2021.1.4,59.95929859226403,
W,left,Lure,0,28,28,28,356.2890108007705,358.3010713502299,left,1,1,0.9051032533170655,B21L11,2022-11-17_12h08.54.174,t1_Paradigm,2021.1.4,59.95929859226403,
R,left,Pretarget,0,29,29,29,359.8048375651706,361.8072349181166,left,1,1,0.6049519631778821,B21L11,2022-11-17_12h08.54.174,t1_Paradigm,2021.1.4,59.95929859226403,
R,right,Target,0,30,30,30,363.30464765033685,365.3041244223714,right,1,1,0.8518405049107969,B21L11,2022-11-17_12h08.54.174,t1_Paradigm,2021.1.4,59.95929859226403,
G,left,Distractor,0,31,31,31,366.8038440414239,368.80634373030625,left,1,1,0.596631643595174,B21L11,2022-11-17_12h08.54.174,t1_Paradigm,2021.1.4,59.95929859226403,
R,left,Lure,0,32,32,32,370.303364442545,372.3152925007744,left,1,1,0.9541747240582481,B21L11,2022-11-17_12h08.54.174,t1_Paradigm,2021.1.4,59.95929859226403,
S,left,Distractor,0,33,33,33,373.80272412183695,375.8039707582211,left,1,1,0.6216423263540491,B21L11,2022-11-17_12h08.54.174,t1_Paradigm,2021.1.4,59.95929859226403,
R,left,Lure,0,34,34,34,377.3021425078623,379.303872272023,left,1,1,0.5645395786268637,B21L11,2022-11-17_12h08.54.174,t1_Paradigm,2021.1.4,59.95929859226403,
P,left,Pretarget,0,35,35,35,380.80159457819536,382.80370994622353,left,1,1,0.5641180449165404,B21L11,2022-11-17_12h08.54.174,t1_Paradigm,2021.1.4,59.95929859226403,
P,right,Target,0,36,36,36,384.3011460970156,386.30083010706585,right,1,1,1.0595020254841074,B21L11,2022-11-17_12h08.54.174,t1_Paradigm,2021.1.4,59.95929859226403,
Y,left,Pretarget,0,37,37,37,387.800385796465,389.8022066683043,left,1,1,1.0246808982919902,B21L11,2022-11-17_12h08.54.174,t1_Paradigm,2021.1.4,59.95929859226403,
Y,right,Target,0,38,38,38,391.2997409844538,393.30007012723945,right,1,1,0.6873284511966631,B21L11,2022-11-17_12h08.54.174,t1_Paradigm,2021.1.4,59.95929859226403,
J,left,Distractor,0,39,39,39,394.79917765629943,396.8009170443984,left,1,1,0.5800959069747478,B21L11,2022-11-17_12h08.54.174,t1_Paradigm,2021.1.4,59.95929859226403,
Y,left,Lure,0,40,40,40,398.29855273407884,400.3006241522962,left,1,1,0.6119784882757813,B21L11,2022-11-17_12h08.54.174,t1_Paradigm,2021.1.4,59.95929859226403,
T,left,Distractor,0,41,41,41,401.7981029697694,403.8000605031848,left,1,1,0.5834713850636035,B21L11,2022-11-17_12h08.54.174,t1_Paradigm,2021.1.4,59.95929859226403,
V,left,Distractor,0,42,42,42,405.2974520626012,407.2996954305563,left,1,1,0.5016572627937421,B21L11,2022-11-17_12h08.54.174,t1_Paradigm,2021.1.4,59.95929859226403,
N,left,Pretarget,0,43,43,43,408.79704175679944,410.8005824480206,left,1,1,0.634573532268405,B21L11,2022-11-17_12h08.54.174,t1_Paradigm,2021.1.4,59.95929859226403,
N,right,Target,0,44,44,44,412.2963501078775,414.2960267395247,right,1,1,0.6016611766535789,B21L11,2022-11-17_12h08.54.174,t1_Paradigm,2021.1.4,59.95929859226403,
N,right,Target,0,45,45,45,415.7957482833881,417.7954021380283,right,1,1,0.6790876906597987,B21L11,2022-11-17_12h08.54.174,t1_Paradigm,2021.1.4,59.95929859226403,
X,left,Distractor,0,46,46,46,419.295215431368,421.29700935585424,left,1,1,0.6030743092997,B21L11,2022-11-17_12h08.54.174,t1_Paradigm,2021.1.4,59.95929859226403,
Z,left,Distractor,0,47,47,47,422.7946184189059,424.79382122599054,left,1,1,0.6870098948711529,B21L11,2022-11-17_12h08.54.174,t1_Paradigm,2021.1.4,59.95929859226403,
H,left,Pretarget,0,48,48,48,426.29399574233685,428.2957145991968,left,1,1,0.6151358211645856,B21L11,2022-11-17_12h08.54.174,t1_Paradigm,2021.1.4,59.95929859226403,
H,right,Target,0,49,49,49,429.7934856672073,431.79307183262426,right,1,1,0.7967960225651041,B21L11,2022-11-17_12h08.54.174,t1_Paradigm,2021.1.4,59.95929859226403,
K,left,Distractor,0,50,50,50,433.2932861284353,435.2950325742131,left,1,1,0.6433461825363338,B21L11,2022-11-17_12h08.54.174,t1_Paradigm,2021.1.4,59.95929859226403,
V,left,Pretarget,0,51,51,51,436.792301908019,438.7941846946487,left,1,1,0.6108261677436531,B21L11,2022-11-17_12h08.54.174,t1_Paradigm,2021.1.4,59.95929859226403,
V,right,Target,0,52,52,52,440.2914861086756,442.2913234620355,None,0,1,,B21L11,2022-11-17_12h08.54.174,t1_Paradigm,2021.1.4,59.95929859226403,
R,left,Distractor,0,53,53,53,443.7909333668649,445.79335766716395,None,0,1,,B21L11,2022-11-17_12h08.54.174,t1_Paradigm,2021.1.4,59.95929859226403,
V,left,Lure,0,54,54,54,447.2904771864414,449.29233334655873,left,1,1,1.1987733816495165,B21L11,2022-11-17_12h08.54.174,t1_Paradigm,2021.1.4,59.95929859226403,
Y,left,Distractor,0,55,55,55,450.78902812406886,452.79178926651366,left,1,1,0.6524559955578297,B21L11,2022-11-17_12h08.54.174,t1_Paradigm,2021.1.4,59.95929859226403,
Q,left,Distractor,0,56,56,56,454.28929503122345,456.2885000840761,left,1,1,0.5495048742741346,B21L11,2022-11-17_12h08.54.174,t1_Paradigm,2021.1.4,59.95929859226403,
Z,left,Pretarget,0,57,57,57,457.7886691467138,459.79057278542314,left,1,1,0.5507742876652628,B21L11,2022-11-17_12h08.54.174,t1_Paradigm,2021.1.4,59.95929859226403,
Z,right,Target,0,58,58,58,461.30489402625244,463.3044753797585,right,1,1,0.5768080077832565,B21L11,2022-11-17_12h08.54.174,t1_Paradigm,2021.1.4,59.95929859226403,
B,left,Distractor,0,59,59,59,464.8043605326675,466.805477565038,left,1,1,0.7908698479877785,B21L11,2022-11-17_12h08.54.174,t1_Paradigm,2021.1.4,59.95929859226403,
S,left,Pretarget,0,60,60,60,468.30362493370194,470.30332113429904,left,1,1,0.6786270189331844,B21L11,2022-11-17_12h08.54.174,t1_Paradigm,2021.1.4,59.95929859226403,
S,right,Target,0,61,61,61,471.8031049137935,473.8026589991059,right,1,1,0.5487131350673735,B21L11,2022-11-17_12h08.54.174,t1_Paradigm,2021.1.4,59.95929859226403,
T,left,Distractor,0,62,62,62,475.30245528987143,477.3042963722255,left,1,1,0.5255464219953865,B21L11,2022-11-17_12h08.54.174,t1_Paradigm,2021.1.4,59.95929859226403,
D,left,Distractor,0,63,63,63,478.8014030593913,480.804832111462,left,1,1,1.0221927583916113,B21L11,2022-11-17_12h08.54.174,t1_Paradigm,2021.1.4,59.95929859226403,
R,left,Distractor,0,0,0,0,519.5463619774673,521.5465204536449,None,0,1,,B21L11,2022-11-17_12h08.54.174,t1_Paradigm,2021.1.4,59.95929859226403,
V,left,Distractor,0,1,1,1,523.0444317121292,525.0468139874283,left,1,1,0.7386618965538219,B21L11,2022-11-17_12h08.54.174,t1_Paradigm,2021.1.4,59.95929859226403,
N,left,Pretarget,0,2,2,2,526.5438218676718,528.5460783885792,left,1,1,0.6816938855918124,B21L11,2022-11-17_12h08.54.174,t1_Paradigm,2021.1.4,59.95929859226403,
N,right,Target,0,3,3,3,530.0432341584237,532.0430365444627,right,1,1,1.250902095111087,B21L11,2022-11-17_12h08.54.174,t1_Paradigm,2021.1.4,59.95929859226403,
S,left,Distractor,0,4,4,4,533.5419092463562,535.5436210456537,left,1,1,0.8171339039690793,B21L11,2022-11-17_12h08.54.174,t1_Paradigm,2021.1.4,59.95929859226403,
N,left,Lure,0,5,5,5,537.041222088621,539.0438382285647,left,1,1,0.7960293059004471,B21L11,2022-11-17_12h08.54.174,t1_Paradigm,2021.1.4,59.95929859226403,
Z,left,Distractor,0,6,6,6,540.5406385498354,542.5533888235223,left,1,1,0.5737132312497124,B21L11,2022-11-17_12h08.54.174,t1_Paradigm,2021.1.4,59.95929859226403,
L,left,Pretarget,0,7,7,7,544.0408563744277,546.0422393516637,left,1,1,1.0495491449255496,B21L11,2022-11-17_12h08.54.174,t1_Paradigm,2021.1.4,59.95929859226403,
L,right,Target,0,8,8,8,547.5403251263779,549.5398705500411,right,1,1,0.7414403622969985,B21L11,2022-11-17_12h08.54.174,t1_Paradigm,2021.1.4,59.95929859226403,
H,left,Distractor,0,9,9,9,551.0396568959113,553.0416766649578,left,1,1,0.5024130722740665,B21L11,2022-11-17_12h08.54.174,t1_Paradigm,2021.1.4,59.95929859226403,
L,left,Lure,0,10,10,10,554.5391920538386,556.541116544744,left,1,1,1.0365162447560579,B21L11,2022-11-17_12h08.54.174,t1_Paradigm,2021.1.4,59.95929859226403,
X,left,Pretarget,0,11,11,11,558.0385122745065,560.0403203143505,left,1,1,0.7184090275550261,B21L11,2022-11-17_12h08.54.174,t1_Paradigm,2021.1.4,59.95929859226403,
X,right,Target,0,12,12,12,561.5376955127576,563.5375851568533,right,1,1,0.46775042125955224,B21L11,2022-11-17_12h08.54.174,t1_Paradigm,2021.1.4,59.95929859226403,
X,right,Target,0,13,13,13,565.0371957032476,567.0369980892865,right,1,1,0.5903535493416712,B21L11,2022-11-17_12h08.54.174,t1_Paradigm,2021.1.4,59.95929859226403,
R,left,Distractor,0,14,14,14,568.536781868781,570.5382877131924,left,1,1,0.7394096858333796,B21L11,2022-11-17_12h08.54.174,t1_Paradigm,2021.1.4,59.95929859226403,
T,left,Distractor,0,15,15,15,572.0362008964876,574.0370269614505,left,1,1,0.5521922322222963,B21L11,2022-11-17_12h08.54.174,t1_Paradigm,2021.1.4,59.95929859226403,
V,left,Pretarget,0,16,16,16,575.5358239541529,577.5372983599082,left,1,1,0.6128754506353289,B21L11,2022-11-17_12h08.54.174,t1_Paradigm,2021.1.4,59.95929859226403,
V,right,Target,0,17,17,17,579.0349532975815,581.0347313026432,right,1,1,0.7129810586338863,B21L11,2022-11-17_12h08.54.174,t1_Paradigm,2021.1.4,59.95929859226403,
N,left,Distractor,0,18,18,18,582.5343521147734,584.5357168063056,left,1,1,0.7154826722107828,B21L11,2022-11-17_12h08.54.174,t1_Paradigm,2021.1.4,59.95929859226403,
B,left,Distractor,0,19,19,19,586.0340155935846,588.0356770268409,left,1,1,0.5764746945351362,B21L11,2022-11-17_12h08.54.174,t1_Paradigm,2021.1.4,59.95929859226403,
V,left,Lure,0,20,20,20,589.5332187215099,591.5350094379392,left,1,1,0.6582297892309725,B21L11,2022-11-17_12h08.54.174,t1_Paradigm,2021.1.4,59.95929859226403,
P,left,Distractor,0,21,21,21,593.032705759164,595.0340146311792,left,1,1,0.5527029489167035,B21L11,2022-11-17_12h08.54.174,t1_Paradigm,2021.1.4,59.95929859226403,
K,left,Pretarget,0,22,22,22,596.531392395962,598.5318925261963,left,1,1,0.8072862465633079,B21L11,2022-11-17_12h08.54.174,t1_Paradigm,2021.1.4,59.95929859226403,
K,right,Target,0,23,23,23,600.0312727368437,602.0311428119894,right,1,1,0.5265332087874413,B21L11,2022-11-17_12h08.54.174,t1_Paradigm,2021.1.4,59.95929859226403,
J,left,Pretarget,0,24,24,24,603.530852486263,605.5320801953785,left,1,1,0.6919816834852099,B21L11,2022-11-17_12h08.54.174,t1_Paradigm,2021.1.4,59.95929859226403,
J,right,Target,0,25,25,25,607.0303748121951,609.0298307320336,right,1,1,0.7342954612104222,B21L11,2022-11-17_12h08.54.174,t1_Paradigm,2021.1.4,59.95929859226403,
H,left,Distractor,0,26,26,26,610.529689899995,612.5311755338917,left,1,1,0.8144516788888723,B21L11,2022-11-17_12h08.54.174,t1_Paradigm,2021.1.4,59.95929859226403,
J,left,Lure,0,27,27,27,614.0457848547958,616.0479525135597,left,1,1,0.7028113157721236,B21L11,2022-11-17_12h08.54.174,t1_Paradigm,2021.1.4,59.95929859226403,
V,left,Distractor,0,28,28,28,617.5452657972928,619.5477590700611,left,1,1,0.5559680712176487,B21L11,2022-11-17_12h08.54.174,t1_Paradigm,2021.1.4,59.95929859226403,
Z,left,Pretarget,0,29,29,29,621.0448519627098,623.0469647643622,left,1,1,0.572809852892533,B21L11,2022-11-17_12h08.54.174,t1_Paradigm,2021.1.4,59.95929859226403,
Z,right,Target,0,30,30,30,624.5440733763389,626.5438353413483,right,1,1,0.7630252009257674,B21L11,2022-11-17_12h08.54.174,t1_Paradigm,2021.1.4,59.95929859226403,
T,left,Distractor,0,31,31,31,628.0434141283622,630.0454945290694,left,1,1,0.7365888743661344,B21L11,2022-11-17_12h08.54.174,t1_Paradigm,2021.1.4,59.95929859226403,
Z,left,Lure,0,32,32,32,631.5429868201027,633.5441776369698,left,1,1,0.6558086968725547,B21L11,2022-11-17_12h08.54.174,t1_Paradigm,2021.1.4,59.95929859226403,
F,left,Distractor,0,33,33,33,635.042750709923,637.0437041333644,left,1,1,0.9249897663248703,B21L11,2022-11-17_12h08.54.174,t1_Paradigm,2021.1.4,59.95929859226403,
Y,left,Pretarget,0,34,34,34,638.5414594820468,640.5424696874106,left,1,1,0.5705324799055234,B21L11,2022-11-17_12h08.54.174,t1_Paradigm,2021.1.4,59.95929859226403,
Y,right,Target,0,35,35,35,642.0411268104799,644.0407476224937,right,1,1,0.6740504583576694,B21L11,2022-11-17_12h08.54.174,t1_Paradigm,2021.1.4,59.95929859226403,
Y,right,Target,0,36,36,36,645.5405067002866,647.5398237128975,right,1,1,0.6131741171702743,B21L11,2022-11-17_12h08.54.174,t1_Paradigm,2021.1.4,59.95929859226403,
W,left,Distractor,0,37,37,37,649.0399619785603,651.041618279065,left,1,1,0.6842086521210149,B21L11,2022-11-17_12h08.54.174,t1_Paradigm,2021.1.4,59.95929859226403,
Q,left,Distractor,0,38,38,38,652.5393688157201,654.5413385396823,left,1,1,0.5455413662130013,B21L11,2022-11-17_12h08.54.174,t1_Paradigm,2021.1.4,59.95929859226403,
P,left,Pretarget,0,39,39,39,656.0387920137728,658.0403774171136,left,1,1,0.4644307625712827,B21L11,2022-11-17_12h08.54.174,t1_Paradigm,2021.1.4,59.95929859226403,
P,right,Target,0,40,40,40,659.5379021092085,661.5380285051651,right,1,1,0.5600727321580052,B21L11,2022-11-17_12h08.54.174,t1_Paradigm,2021.1.4,59.95929859226403,
J,left,Distractor,0,41,41,41,663.037513297284,665.0390460889321,left,1,1,0.5136392158456147,B21L11,2022-11-17_12h08.54.174,t1_Paradigm,2021.1.4,59.95929859226403,
P,left,Lure,0,42,42,42,666.5370654576691,668.5390765651828,left,1,1,0.4808006447274238,B21L11,2022-11-17_12h08.54.174,t1_Paradigm,2021.1.4,59.95929859226403,
L,left,Distractor,0,43,43,43,670.0362101997016,672.0377346505411,left,1,1,0.522104216972366,B21L11,2022-11-17_12h08.54.174,t1_Paradigm,2021.1.4,59.95929859226403,
Z,left,Distractor,0,44,44,44,673.5358553926926,675.5377420290606,left,1,1,0.5299750929698348,B21L11,2022-11-17_12h08.54.174,t1_Paradigm,2021.1.4,59.95929859226403,
F,left,Pretarget,0,45,45,45,677.0352125056088,679.036580405198,left,1,1,0.5668127812677994,B21L11,2022-11-17_12h08.54.174,t1_Paradigm,2021.1.4,59.95929859226403,
F,right,Target,0,46,46,46,680.53437617491,682.5342144907918,right,1,1,0.7241491370368749,B21L11,2022-11-17_12h08.54.174,t1_Paradigm,2021.1.4,59.95929859226403,
G,left,Pretarget,0,47,47,47,684.0339228818193,686.0356247361051,left,1,1,0.6447131196036935,B21L11,2022-11-17_12h08.54.174,t1_Paradigm,2021.1.4,59.95929859226403,
G,right,Target,0,48,48,48,687.533448415692,689.5328648769064,right,1,1,0.5002543958835304,B21L11,2022-11-17_12h08.54.174,t1_Paradigm,2021.1.4,59.95929859226403,
V,left,Distractor,0,49,49,49,691.0327474634396,693.0343636636389,left,1,1,0.6284365908941254,B21L11,2022-11-17_12h08.54.174,t1_Paradigm,2021.1.4,59.95929859226403,
G,left,Lure,0,50,50,50,694.5322024208726,696.5340383704752,left,1,1,0.8199101241771132,B21L11,2022-11-17_12h08.54.174,t1_Paradigm,2021.1.4,59.95929859226403,
Q,left,Pretarget,0,51,51,51,698.0315280951327,700.0306654587621,left,1,1,0.7003693713340908,B21L11,2022-11-17_12h08.54.174,t1_Paradigm,2021.1.4,59.95929859226403,
Q,right,Target,0,52,52,52,701.530916646705,703.5306295289192,right,1,1,0.4548689395887777,B21L11,2022-11-17_12h08.54.174,t1_Paradigm,2021.1.4,59.95929859226403,
Y,left,Distractor,0,53,53,53,705.029702411266,707.0318023808068,left,1,1,0.5271478653885424,B21L11,2022-11-17_12h08.54.174,t1_Paradigm,2021.1.4,59.95929859226403,
V,left,Distractor,0,54,54,54,708.5300517645665,710.5314668220235,left,1,1,0.5832121771527454,B21L11,2022-11-17_12h08.54.174,t1_Paradigm,2021.1.4,59.95929859226403,
B,left,Distractor,0,55,55,55,712.0460039625177,714.0480099371634,left,1,1,0.5826251095859334,B21L11,2022-11-17_12h08.54.174,t1_Paradigm,2021.1.4,59.95929859226403,
J,left,Pretarget,0,56,56,56,715.545470789657,717.5469868996879,left,1,1,0.501668490935117,B21L11,2022-11-17_12h08.54.174,t1_Paradigm,2021.1.4,59.95929859226403,
J,right,Target,0,57,57,57,719.0448808348738,721.0444285041885,right,1,1,0.80531299370341,B21L11,2022-11-17_12h08.54.174,t1_Paradigm,2021.1.4,59.95929859226403,
H,left,Distractor,0,58,58,58,722.544399311184,724.545920874807,left,1,1,0.5707676277961582,B21L11,2022-11-17_12h08.54.174,t1_Paradigm,2021.1.4,59.95929859226403,
J,left,Lure,0,59,59,59,726.0426297675585,728.0462095965631,left,1,1,0.5618371429154649,B21L11,2022-11-17_12h08.54.174,t1_Paradigm,2021.1.4,59.95929859226403,
D,left,Pretarget,0,60,60,60,729.5432627098635,731.555016251863,left,1,1,0.5077229862799868,B21L11,2022-11-17_12h08.54.174,t1_Paradigm,2021.1.4,59.95929859226403,
D,right,Target,0,61,61,61,733.0425376974745,735.0422040633857,left,0,1,0.3321907437639311,B21L11,2022-11-17_12h08.54.174,t1_Paradigm,2021.1.4,59.95929859226403,
R,left,Distractor,0,62,62,62,736.5418457275955,738.5436303488677,left,1,1,0.6361505946842954,B21L11,2022-11-17_12h08.54.174,t1_Paradigm,2021.1.4,59.95929859226403,
F,left,Distractor,0,63,63,63,740.041321216384,742.0426316923695,left,1,1,0.5716841589892283,B21L11,2022-11-17_12h08.54.174,t1_Paradigm,2021.1.4,59.95929859226403,
F,left,Distractor,0,0,0,0,850.134896579897,852.1389284188626,None,0,2,,B21L11,2022-11-17_12h08.54.174,t1_Paradigm,2021.1.4,59.95929859226403,
N,left,Pretarget,0,1,1,1,853.638881581719,855.6402738621691,None,0,2,,B21L11,2022-11-17_12h08.54.174,t1_Paradigm,2021.1.4,59.95929859226403,
V,left,Distractor,0,2,2,2,857.1385004690383,859.15018728422,left,1,2,0.7056709444150329,B21L11,2022-11-17_12h08.54.174,t1_Paradigm,2021.1.4,59.95929859226403,
N,right,Target,0,3,3,3,860.6370578226633,862.6396717169555,None,0,2,,B21L11,2022-11-17_12h08.54.174,t1_Paradigm,2021.1.4,59.95929859226403,
N,left,Lure,0,4,4,4,864.1370812411187,866.1367585144471,right,0,2,0.9634683567564934,B21L11,2022-11-17_12h08.54.174,t1_Paradigm,2021.1.4,59.95929859226403,
X,left,Distractor,0,5,5,5,867.6364319380373,869.6386092208559,None,0,2,,B21L11,2022-11-17_12h08.54.174,t1_Paradigm,2021.1.4,59.95929859226403,
G,left,Pretarget,0,6,6,6,871.1359343741788,873.1372945744079,left,1,2,0.5543400013120845,B21L11,2022-11-17_12h08.54.174,t1_Paradigm,2021.1.4,59.95929859226403,
H,left,Pretarget,0,7,7,7,874.6359735119622,876.6375852209749,None,0,2,,B21L11,2022-11-17_12h08.54.174,t1_Paradigm,2021.1.4,59.95929859226403,
G,right,Target,0,8,8,8,878.1347162891179,880.1357348354068,right,1,2,0.8328005882212892,B21L11,2022-11-17_12h08.54.174,t1_Paradigm,2021.1.4,59.95929859226403,
H,right,Target,0,9,9,9,881.6341102942824,883.6351654118625,None,0,2,,B21L11,2022-11-17_12h08.54.174,t1_Paradigm,2021.1.4,59.95929859226403,
T,left,Pretarget,0,10,10,10,885.1337044797838,887.132516550133,left,1,2,0.7256893072044477,B21L11,2022-11-17_12h08.54.174,t1_Paradigm,2021.1.4,59.95929859226403,
K,left,Distractor,0,11,11,11,888.6332219936885,890.6348096425645,None,0,2,,B21L11,2022-11-17_12h08.54.174,t1_Paradigm,2021.1.4,59.95929859226403,
T,right,Target,0,12,12,12,892.1325678784633,894.1341131814988,right,1,2,0.6582092578755692,B21L11,2022-11-17_12h08.54.174,t1_Paradigm,2021.1.4,59.95929859226403,
T,left,Lure,0,13,13,13,895.6317831969354,897.6315987358103,None,0,2,,B21L11,2022-11-17_12h08.54.174,t1_Paradigm,2021.1.4,59.95929859226403,
J,left,Distractor,0,14,14,14,899.131227888749,901.1333519184263,left,1,2,0.7521147264633328,B21L11,2022-11-17_12h08.54.174,t1_Paradigm,2021.1.4,59.95929859226403,
Q,left,Pretarget,0,15,15,15,902.6306157986401,904.6316744450014,None,0,2,,B21L11,2022-11-17_12h08.54.174,t1_Paradigm,2021.1.4,59.95929859226403,
M,left,Distractor,0,16,16,16,906.1303026959067,908.1325412519509,left,1,2,0.6631088660797104,B21L11,2022-11-17_12h08.54.174,t1_Paradigm,2021.1.4,59.95929859226403,
Q,right,Target,0,17,17,17,909.6292738839984,911.63152783853,None,0,2,,B21L11,2022-11-17_12h08.54.174,t1_Paradigm,2021.1.4,59.95929859226403,
R,left,Distractor,0,18,18,18,913.1281343954615,915.1312208310701,left,1,2,0.6637809461681172,B21L11,2022-11-17_12h08.54.174,t1_Paradigm,2021.1.4,59.95929859226403,
W,left,Distractor,0,19,19,19,916.6284131723223,918.6301464653807,None,0,2,,B21L11,2022-11-17_12h08.54.174,t1_Paradigm,2021.1.4,59.95929859226403,
C,left,Pretarget,0,20,20,20,920.1278440697351,922.129406696069,left,1,2,0.6571413081837818,B21L11,2022-11-17_12h08.54.174,t1_Paradigm,2021.1.4,59.95929859226403,
T,left,Distractor,0,21,21,21,923.6270568217151,925.6394064137712,None,0,2,,B21L11,2022-11-17_12h08.54.174,t1_Paradigm,2021.1.4,59.95929859226403,
C,right,Target,0,22,22,22,927.1265582954511,929.1274863755098,right,1,2,0.813622085028328,B21L11,2022-11-17_12h08.54.174,t1_Paradigm,2021.1.4,59.95929859226403,
F,left,Pretarget,0,23,23,23,930.6259247115813,932.6279871474253,None,0,2,,B21L11,2022-11-17_12h08.54.174,t1_Paradigm,2021.1.4,59.95929859226403,
C,right,Target,0,24,24,24,934.1252083608415,936.1274558993755,right,1,2,0.8048876102548093,B21L11,2022-11-17_12h08.54.174,t1_Paradigm,2021.1.4,59.95929859226403,
F,right,Target,0,25,25,25,937.6246216141153,939.6265454634558,None,0,2,,B21L11,2022-11-17_12h08.54.174,t1_Paradigm,2021.1.4,59.95929859226403,
H,left,Distractor,0,26,26,26,941.1243547068443,943.1258448319277,left,1,2,1.2874837834388018,B21L11,2022-11-17_12h08.54.174,t1_Paradigm,2021.1.4,59.95929859226403,
H,left,Lure,0,27,27,27,944.6235995390452,946.6233582959976,None,0,2,,B21L11,2022-11-17_12h08.54.174,t1_Paradigm,2021.1.4,59.95929859226403,
P,left,Distractor,0,28,28,28,948.123100692057,950.1250938345911,left,1,2,0.6717435714090243,B21L11,2022-11-17_12h08.54.174,t1_Paradigm,2021.1.4,59.95929859226403,
G,left,Pretarget,0,29,29,29,951.6390724588418,953.6411031353055,None,0,2,,B21L11,2022-11-17_12h08.54.174,t1_Paradigm,2021.1.4,59.95929859226403,
K,left,Distractor,0,30,30,30,955.1386480379151,957.1396101230057,left,1,2,0.5589762311428785,B21L11,2022-11-17_12h08.54.174,t1_Paradigm,2021.1.4,59.95929859226403,
G,right,Target,0,31,31,31,958.6380375517765,960.6397727695294,None,0,2,,B21L11,2022-11-17_12h08.54.174,t1_Paradigm,2021.1.4,59.95929859226403,
M,left,Pretarget,0,32,32,32,962.1371771609411,964.13906860922,left,1,2,0.7714308536378667,B21L11,2022-11-17_12h08.54.174,t1_Paradigm,2021.1.4,59.95929859226403,
B,left,Distractor,0,33,33,33,965.6367642888799,967.6383371808333,None,0,2,,B21L11,2022-11-17_12h08.54.174,t1_Paradigm,2021.1.4,59.95929859226403,
M,right,Target,0,34,34,34,969.136161501985,971.1372124491027,right,1,2,0.8706026071449742,B21L11,2022-11-17_12h08.54.174,t1_Paradigm,2021.1.4,59.95929859226403,
M,left,Lure,0,35,35,35,972.6355385045754,974.635303998366,None,0,2,,B21L11,2022-11-17_12h08.54.174,t1_Paradigm,2021.1.4,59.95929859226403,
T,left,Distractor,0,36,36,36,976.1354538128944,978.1366965996567,left,1,2,0.5767374313436449,B21L11,2022-11-17_12h08.54.174,t1_Paradigm,2021.1.4,59.95929859226403,
F,left,Distractor,0,37,37,37,979.6345837980043,981.6354624745436,None,0,2,,B21L11,2022-11-17_12h08.54.174,t1_Paradigm,2021.1.4,59.95929859226403,
X,left,Distractor,0,38,38,38,983.1340191864874,985.1357460634317,left,1,2,0.544774970272556,B21L11,2022-11-17_12h08.54.174,t1_Paradigm,2021.1.4,59.95929859226403,
C,left,Distractor,0,39,39,39,986.6332527906634,988.6349613819038,None,0,2,,B21L11,2022-11-17_12h08.54.174,t1_Paradigm,2021.1.4,59.95929859226403,
R,left,Distractor,0,40,40,40,990.1326063746819,992.1340368306264,left,1,2,0.6153821969637647,B21L11,2022-11-17_12h08.54.174,t1_Paradigm,2021.1.4,59.95929859226403,
B,left,Pretarget,0,41,41,41,993.6320510664955,995.6339482893236,None,0,2,,B21L11,2022-11-17_12h08.54.174,t1_Paradigm,2021.1.4,59.95929859226403,
H,left,Distractor,0,42,42,42,997.1316417232156,999.1338459535036,left,1,2,0.6193338355515152,B21L11,2022-11-17_12h08.54.174,t1_Paradigm,2021.1.4,59.95929859226403,
B,right,Target,0,43,43,43,1000.6310273874551,1002.6323452419601,None,0,2,,B21L11,2022-11-17_12h08.54.174,t1_Paradigm,2021.1.4,59.95929859226403,
W,left,Pretarget,0,44,44,44,1004.1302892222302,1006.1311810516054,left,1,2,0.6380022634984925,B21L11,2022-11-17_12h08.54.174,t1_Paradigm,2021.1.4,59.95929859226403,
L,left,Pretarget,0,45,45,45,1007.6290637587663,1009.6319936430082,None,0,2,,B21L11,2022-11-17_12h08.54.174,t1_Paradigm,2021.1.4,59.95929859226403,
W,right,Target,0,46,46,46,1011.1291648113402,1013.1309596982319,right,1,2,0.8054531840607524,B21L11,2022-11-17_12h08.54.174,t1_Paradigm,2021.1.4,59.95929859226403,
L,right,Target,0,47,47,47,1014.6283887914615,1016.6295446408913,None,0,2,,B21L11,2022-11-17_12h08.54.174,t1_Paradigm,2021.1.4,59.95929859226403,
W,right,Target,0,48,48,48,1018.1277850421611,1020.1300511871232,right,1,2,1.0423169856658205,B21L11,2022-11-17_12h08.54.174,t1_Paradigm,2021.1.4,59.95929859226403,
X,left,Distractor,0,49,49,49,1021.6275017739972,1023.6291455632308,None,0,2,,B21L11,2022-11-17_12h08.54.174,t1_Paradigm,2021.1.4,59.95929859226403,
R,left,Distractor,0,50,50,50,1025.1267498142552,1027.128402265138,None,0,2,,B21L11,2022-11-17_12h08.54.174,t1_Paradigm,2021.1.4,59.95929859226403,
V,left,Pretarget,0,51,51,51,1028.626141573768,1030.6271524206968,left,1,2,1.1836870282422751,B21L11,2022-11-17_12h08.54.174,t1_Paradigm,2021.1.4,59.95929859226403,
Z,left,Distractor,0,52,52,52,1032.1254396591103,1034.1274045710452,None,0,2,,B21L11,2022-11-17_12h08.54.174,t1_Paradigm,2021.1.4,59.95929859226403,
V,right,Target,0,53,53,53,1035.6250133132562,1037.6271129620727,right,1,2,0.8977559261256829,B21L11,2022-11-17_12h08.54.174,t1_Paradigm,2021.1.4,59.95929859226403,
V,left,Lure,0,54,54,54,1039.124410205637,1041.1241891731042,None,0,2,,B21L11,2022-11-17_12h08.54.174,t1_Paradigm,2021.1.4,59.95929859226403,
N,left,Distractor,0,55,55,55,1042.6238372533116,1044.625923107611,left,1,2,0.9881495758891106,B21L11,2022-11-17_12h08.54.174,t1_Paradigm,2021.1.4,59.95929859226403,
B,left,Distractor,0,56,56,56,1046.140017220634,1048.1415682981024,None,0,2,,B21L11,2022-11-17_12h08.54.174,t1_Paradigm,2021.1.4,59.95929859226403,
V,left,Lure,0,57,57,57,1049.6393114563543,1051.6409892505035,left,1,2,0.7688904231181368,B21L11,2022-11-17_12h08.54.174,t1_Paradigm,2021.1.4,59.95929859226403,
J,left,Distractor,0,58,58,58,1053.1386547747534,1055.1402886190917,None,0,2,,B21L11,2022-11-17_12h08.54.174,t1_Paradigm,2021.1.4,59.95929859226403,
H,left,Distractor,0,59,59,59,1056.6379964891821,1058.639887937461,left,1,2,0.7265750413062051,B21L11,2022-11-17_12h08.54.174,t1_Paradigm,2021.1.4,59.95929859226403,
X,left,Pretarget,0,60,60,60,1060.1376301333075,1062.1391533010174,None,0,2,,B21L11,2022-11-17_12h08.54.174,t1_Paradigm,2021.1.4,59.95929859226403,
P,left,Distractor,0,61,61,61,1063.6371296822326,1065.638167797355,left,1,2,0.63459438434802,B21L11,2022-11-17_12h08.54.174,t1_Paradigm,2021.1.4,59.95929859226403,
X,right,Target,0,62,62,62,1067.136228549527,1069.137976278551,None,0,2,,B21L11,2022-11-17_12h08.54.174,t1_Paradigm,2021.1.4,59.95929859226403,
Q,left,Distractor,0,63,63,63,1070.635637953179,1072.6375611608382,left,1,2,0.6390737420879304,B21L11,2022-11-17_12h08.54.174,t1_Paradigm,2021.1.4,59.95929859226403,
B,left,Pretarget,0,0,0,0,1219.58941809088,1221.5963150120806,left,1,2,0.5503771346993744,B21L11,2022-11-17_12h08.54.174,t1_Paradigm,2021.1.4,59.95929859226403,
F,left,Distractor,0,1,1,1,1223.093529488775,1225.0949201652547,left,1,2,1.3430017695063725,B21L11,2022-11-17_12h08.54.174,t1_Paradigm,2021.1.4,59.95929859226403,
B,right,Target,0,2,2,2,1226.592806721921,1228.5943106415216,None,0,2,,B21L11,2022-11-17_12h08.54.174,t1_Paradigm,2021.1.4,59.95929859226403,
V,left,Distractor,0,3,3,3,1230.0922206167597,1232.0943789723096,None,0,2,,B21L11,2022-11-17_12h08.54.174,t1_Paradigm,2021.1.4,59.95929859226403,
G,left,Pretarget,0,4,4,4,1233.5919934889534,1235.592941137962,None,0,2,,B21L11,2022-11-17_12h08.54.174,t1_Paradigm,2021.1.4,59.95929859226403,
B,left,Lure,0,5,5,5,1237.091052256059,1239.0927444864064,left,1,2,1.1152882020687684,B21L11,2022-11-17_12h08.54.174,t1_Paradigm,2021.1.4,59.95929859226403,
G,right,Target,0,6,6,6,1240.5907449277584,1242.5927682257025,None,0,2,,B21L11,2022-11-17_12h08.54.174,t1_Paradigm,2021.1.4,59.95929859226403,
Y,left,Pretarget,0,7,7,7,1244.090221699793,1246.0910737498198,left,1,2,1.3608418869553134,B21L11,2022-11-17_12h08.54.174,t1_Paradigm,2021.1.4,59.95929859226403,
P,left,Distractor,0,8,8,8,1247.5896343113855,1249.5903724767268,None,0,2,,B21L11,2022-11-17_12h08.54.174,t1_Paradigm,2021.1.4,59.95929859226403,
Y,right,Target,0,9,9,9,1251.088905128534,1253.090456526843,left,0,2,1.0103054420324042,B21L11,2022-11-17_12h08.54.174,t1_Paradigm,2021.1.4,59.95929859226403,
X,left,Distractor,0,10,10,10,1254.5884868028807,1256.5898938402534,None,0,2,,B21L11,2022-11-17_12h08.54.174,t1_Paradigm,2021.1.4,59.95929859226403,
Y,right,Target,0,11,11,11,1258.087542361929,1260.0897668026155,right,1,2,0.8228932615602389,B21L11,2022-11-17_12h08.54.174,t1_Paradigm,2021.1.4,59.95929859226403,
N,left,Distractor,0,12,12,12,1261.5872388832504,1263.5888371185865,None,0,2,,B21L11,2022-11-17_12h08.54.174,t1_Paradigm,2021.1.4,59.95929859226403,
Y,right,Target,0,13,13,13,1265.0864564472577,1267.0885217702016,right,1,2,1.1172543972497806,B21L11,2022-11-17_12h08.54.174,t1_Paradigm,2021.1.4,59.95929859226403,
Y,left,Lure,0,14,14,14,1268.5860705225496,1270.5855764874723,left,1,2,0.9974416043842211,B21L11,2022-11-17_12h08.54.174,t1_Paradigm,2021.1.4,59.95929859226403,
K,left,Distractor,0,15,15,15,1272.085309901042,1274.087382923346,None,0,2,,B21L11,2022-11-17_12h08.54.174,t1_Paradigm,2021.1.4,59.95929859226403,
T,left,Pretarget,0,16,16,16,1275.5839599664323,1277.586179915932,None,0,2,,B21L11,2022-11-17_12h08.54.174,t1_Paradigm,2021.1.4,59.95929859226403,
J,left,Distractor,0,17,17,17,1279.0840202772524,1281.0962624006206,None,0,2,,B21L11,2022-11-17_12h08.54.174,t1_Paradigm,2021.1.4,59.95929859226403,
T,right,Target,0,18,18,18,1282.5836362773553,1284.5850433146115,right,1,2,0.9072539096232504,B21L11,2022-11-17_12h08.54.174,t1_Paradigm,2021.1.4,59.95929859226403,
S,left,Pretarget,0,19,19,19,1286.0829982021824,1288.083958362462,None,0,2,,B21L11,2022-11-17_12h08.54.174,t1_Paradigm,2021.1.4,59.95929859226403,
R,left,Distractor,0,20,20,20,1289.5823710344266,1291.5841556556989,None,0,2,,B21L11,2022-11-17_12h08.54.174,t1_Paradigm,2021.1.4,59.95929859226403,
S,right,Target,0,21,21,21,1293.081849731272,1295.0832057610387,right,1,2,1.1938853223109618,B21L11,2022-11-17_12h08.54.174,t1_Paradigm,2021.1.4,59.95929859226403,
Q,left,Distractor,0,22,22,22,1296.581096488284,1298.5828522372758,left,1,2,0.9531427042093128,B21L11,2022-11-17_12h08.54.174,t1_Paradigm,2021.1.4,59.95929859226403,
D,left,Distractor,0,23,23,23,1300.0806534606963,1302.0821663627867,None,0,2,,B21L11,2022-11-17_12h08.54.174,t1_Paradigm,2021.1.4,59.95929859226403,
F,left,Distractor,0,24,24,24,1303.5800089696422,1305.5819841471966,left,1,2,1.1207999004982412,B21L11,2022-11-17_12h08.54.174,t1_Paradigm,2021.1.4,59.95929859226403,
Z,left,Distractor,0,25,25,25,1307.0795447691344,1309.0816610996844,left,1,2,1.1208361510653049,B21L11,2022-11-17_12h08.54.174,t1_Paradigm,2021.1.4,59.95929859226403,
P,left,Distractor,0,26,26,26,1310.5956047566142,1312.5969655985245,left,1,2,1.4562650696607307,B21L11,2022-11-17_12h08.54.174,t1_Paradigm,2021.1.4,59.95929859226403,
H,left,Distractor,0,27,27,27,1314.0952611777466,1316.096185408067,left,1,2,1.3752558395499364,B21L11,2022-11-17_12h08.54.174,t1_Paradigm,2021.1.4,59.95929859226403,
Z,left,Pretarget,0,28,28,28,1317.5943677442847,1319.596416064771,None,0,2,,B21L11,2022-11-17_12h08.54.174,t1_Paradigm,2021.1.4,59.95929859226403,
J,left,Pretarget,0,29,29,29,1321.0936408069683,1323.0950244258856,None,0,2,,B21L11,2022-11-17_12h08.54.174,t1_Paradigm,2021.1.4,59.95929859226403,
Z,right,Target,0,30,30,30,1324.5931227118708,1326.5953532478306,None,0,2,,B21L11,2022-11-17_12h08.54.174,t1_Paradigm,2021.1.4,59.95929859226403,
J,right,Target,0,31,31,31,1328.0925070928643,1330.0942901101662,right,1,2,1.1481181115377694,B21L11,2022-11-17_12h08.54.174,t1_Paradigm,2021.1.4,59.95929859226403,
V,left,Pretarget,0,32,32,32,1331.5922090678941,1333.5937530876836,left,1,2,1.083142563002184,B21L11,2022-11-17_12h08.54.174,t1_Paradigm,2021.1.4,59.95929859226403,
Z,left,Lure,0,33,33,33,1335.0912922159769,1337.0923749224748,right,0,2,1.23973947041668,B21L11,2022-11-17_12h08.54.174,t1_Paradigm,2021.1.4,59.95929859226403,
V,right,Target,0,34,34,34,1338.5910820906283,1340.5927762457868,None,0,2,,B21L11,2022-11-17_12h08.54.174,t1_Paradigm,2021.1.4,59.95929859226403,
X,left,Distractor,0,35,35,35,1342.0900981910527,1344.092654341017,None,0,2,,B21L11,2022-11-17_12h08.54.174,t1_Paradigm,2021.1.4,59.95929859226403,
S,left,Distractor,0,36,36,36,1345.5890308829257,1347.591620396357,left,1,2,1.4352227072231472,B21L11,2022-11-17_12h08.54.174,t1_Paradigm,2021.1.4,59.95929859226403,
Q,left,Distractor,0,37,37,37,1349.0891883966979,1351.090698732296,None,0,2,,B21L11,2022-11-17_12h08.54.174,t1_Paradigm,2021.1.4,59.95929859226403,
P,left,Distractor,0,38,38,38,1352.5887367075775,1354.5896218001144,left,1,2,1.1386198073159903,B21L11,2022-11-17_12h08.54.174,t1_Paradigm,2021.1.4,59.95929859226403,
S,left,Lure,0,39,39,39,1356.087888828013,1358.088951644837,left,1,2,0.8209299535956234,B21L11,2022-11-17_12h08.54.174,t1_Paradigm,2021.1.4,59.95929859226403,
K,left,Pretarget,0,40,40,40,1359.5877078956692,1361.5890228629578,left,1,2,1.212590321782045,B21L11,2022-11-17_12h08.54.174,t1_Paradigm,2021.1.4,59.95929859226403,
L,left,Distractor,0,41,41,41,1363.0867894396652,1365.0883581612725,left,1,2,1.1434793153312057,B21L11,2022-11-17_12h08.54.174,t1_Paradigm,2021.1.4,59.95929859226403,
K,right,Target,0,42,42,42,1366.5862200162373,1368.5858469235245,right,1,2,0.8801936232484877,B21L11,2022-11-17_12h08.54.174,t1_Paradigm,2021.1.4,59.95929859226403,
B,left,Distractor,0,43,43,43,1370.0857115451945,1372.0872645473573,left,1,2,0.8091295744525269,B21L11,2022-11-17_12h08.54.174,t1_Paradigm,2021.1.4,59.95929859226403,
N,left,Distractor,0,44,44,44,1373.585004818393,1375.5872687178198,left,1,2,1.241114106727764,B21L11,2022-11-17_12h08.54.174,t1_Paradigm,2021.1.4,59.95929859226403,
S,left,Pretarget,0,45,45,45,1377.0842390641337,1379.0860544823809,right,0,2,0.9158571764128283,B21L11,2022-11-17_12h08.54.174,t1_Paradigm,2021.1.4,59.95929859226403,
Z,left,Distractor,0,46,46,46,1380.5838200967992,1382.5956849571085,left,1,2,1.2000495317624882,B21L11,2022-11-17_12h08.54.174,t1_Paradigm,2021.1.4,59.95929859226403,
S,right,Target,0,47,47,47,1384.0831342221936,1386.0848553247051,right,1,2,1.2839905709261075,B21L11,2022-11-17_12h08.54.174,t1_Paradigm,2021.1.4,59.95929859226403,
C,left,Distractor,0,48,48,48,1387.58279705944,1389.5847539512906,left,1,2,1.0476368445670232,B21L11,2022-11-17_12h08.54.174,t1_Paradigm,2021.1.4,59.95929859226403,
T,left,Pretarget,0,49,49,49,1391.0820187937934,1393.083668999141,left,1,2,1.2565793272806332,B21L11,2022-11-17_12h08.54.174,t1_Paradigm,2021.1.4,59.95929859226403,
S,left,Lure,0,50,50,50,1394.581545290188,1396.5832134602824,None,0,2,,B21L11,2022-11-17_12h08.54.174,t1_Paradigm,2021.1.4,59.95929859226403,
T,right,Target,0,51,51,51,1398.0808648691745,1400.0825955957407,None,0,2,,B21L11,2022-11-17_12h08.54.174,t1_Paradigm,2021.1.4,59.95929859226403,
N,left,Pretarget,0,52,52,52,1401.58033297956,1403.58276690403,left,1,2,0.954627696541138,B21L11,2022-11-17_12h08.54.174,t1_Paradigm,2021.1.4,59.95929859226403,
B,left,Distractor,0,53,53,53,1405.0797173606697,1407.081939555821,None,0,2,,B21L11,2022-11-17_12h08.54.174,t1_Paradigm,2021.1.4,59.95929859226403,
N,right,Target,0,54,54,54,1408.579098212882,1410.5811266435776,right,1,2,0.8535927252378315,B21L11,2022-11-17_12h08.54.174,t1_Paradigm,2021.1.4,59.95929859226403,
N,left,Lure,0,55,55,55,1412.0951219496783,1414.0948868017877,None,0,2,,B21L11,2022-11-17_12h08.54.174,t1_Paradigm,2021.1.4,59.95929859226403,
X,left,Distractor,0,56,56,56,1415.5948005061364,1417.5959201048827,left,1,2,1.27094708441291,B21L11,2022-11-17_12h08.54.174,t1_Paradigm,2021.1.4,59.95929859226403,
W,left,Distractor,0,57,57,57,1419.0938178896904,1421.0959075936116,left,1,2,1.2467477096943185,B21L11,2022-11-17_12h08.54.174,t1_Paradigm,2021.1.4,59.95929859226403,
S,left,Distractor,0,58,58,58,1422.593734160415,1424.595987794106,left,1,2,1.1603422700427473,B21L11,2022-11-17_12h08.54.174,t1_Paradigm,2021.1.4,59.95929859226403,
L,left,Distractor,0,59,59,59,1426.09266171942,1428.0944078444736,left,1,2,0.7699099316960201,B21L11,2022-11-17_12h08.54.174,t1_Paradigm,2021.1.4,59.95929859226403,
K,left,Pretarget,0,60,60,60,1429.5925693284953,1431.594241989893,left,1,2,0.8476954229408875,B21L11,2022-11-17_12h08.54.174,t1_Paradigm,2021.1.4,59.95929859226403,
V,left,Pretarget,0,61,61,61,1433.091521910159,1435.093610330834,left,1,2,0.7464528927812353,B21L11,2022-11-17_12h08.54.174,t1_Paradigm,2021.1.4,59.95929859226403,
K,right,Target,0,62,62,62,1436.5915754840244,1438.5929802757455,right,1,2,0.6938400892540812,B21L11,2022-11-17_12h08.54.174,t1_Paradigm,2021.1.4,59.95929859226403,
V,right,Target,0,63,63,63,1440.0901819203282,1442.0927675841376,right,1,2,1.1469426931580529,B21L11,2022-11-17_12h08.54.174,t1_Paradigm,2021.1.4,59.95929859226403,
R,left,Distractor,0,0,0,0,1529.6916605606675,1531.6940280791605,left,1,3,0.4543357667280361,B21L11,2022-11-17_12h08.54.174,t1_Paradigm,2021.1.4,59.95929859226403,
P,left,Lure,0,1,1,1,1533.1916413125582,1535.1931782747852,left,1,3,0.61824631690979,B21L11,2022-11-17_12h08.54.174,t1_Paradigm,2021.1.4,59.95929859226403,
V,left,Distractor,0,2,2,2,1536.6907222149894,1538.6922020744532,left,1,3,0.7130301411962137,B21L11,2022-11-17_12h08.54.174,t1_Paradigm,2021.1.4,59.95929859226403,
P,left,Pretarget,0,3,3,3,1540.190321212518,1542.192511648289,right,0,3,0.7900710512185469,B21L11,2022-11-17_12h08.54.174,t1_Paradigm,2021.1.4,59.95929859226403,
Z,left,Distractor,0,4,4,4,1543.6896796086803,1545.6913041498046,left,1,3,0.852309838286601,B21L11,2022-11-17_12h08.54.174,t1_Paradigm,2021.1.4,59.95929859226403,
L,left,Pretarget,0,5,5,5,1547.1890261351364,1549.1904145659646,left,1,3,0.8575257571646944,B21L11,2022-11-17_12h08.54.174,t1_Paradigm,2021.1.4,59.95929859226403,
P,right,Target,0,6,6,6,1550.688706616289,1552.6907623152947,right,1,3,0.7386266082758084,B21L11,2022-11-17_12h08.54.174,t1_Paradigm,2021.1.4,59.95929859226403,
S,left,Distractor,0,7,7,7,1554.1880544259911,1556.1903330822242,left,1,3,0.7716085779247805,B21L11,2022-11-17_12h08.54.174,t1_Paradigm,2021.1.4,59.95929859226403,
L,right,Target,0,8,8,8,1557.6872286817525,1559.6867250226205,right,1,3,1.0195583326276392,B21L11,2022-11-17_12h08.54.174,t1_Paradigm,2021.1.4,59.95929859226403,
D,left,Distractor,0,9,9,9,1561.1868350576842,1563.188343789312,left,1,3,0.895624197088182,B21L11,2022-11-17_12h08.54.174,t1_Paradigm,2021.1.4,59.95929859226403,
G,left,Distractor,0,10,10,10,1564.686106516514,1566.687628080137,left,1,3,0.8798468363238499,B21L11,2022-11-17_12h08.54.174,t1_Paradigm,2021.1.4,59.95929859226403,
M,left,Pretarget,0,11,11,11,1568.185446626856,1570.1872893132968,left,1,3,0.7981687341816723,B21L11,2022-11-17_12h08.54.174,t1_Paradigm,2021.1.4,59.95929859226403,
Y,left,Distractor,0,12,12,12,1571.6851181256352,1573.6861742057372,left,1,3,0.6848602009704337,B21L11,2022-11-17_12h08.54.174,t1_Paradigm,2021.1.4,59.95929859226403,
V,left,Distractor,0,13,13,13,1575.1845275292872,1577.1858681606827,None,0,3,,B21L11,2022-11-17_12h08.54.174,t1_Paradigm,2021.1.4,59.95929859226403,
M,right,Target,0,14,14,14,1578.683867318905,1580.6854289828334,right,1,3,0.8155683905351907,B21L11,2022-11-17_12h08.54.174,t1_Paradigm,2021.1.4,59.95929859226403,
S,left,Pretarget,0,15,15,15,1582.183361734962,1584.1849089628085,right,0,3,1.0690420340979472,B21L11,2022-11-17_12h08.54.174,t1_Paradigm,2021.1.4,59.95929859226403,
Q,left,Distractor,0,16,16,16,1585.6826473090332,1587.6845060355263,left,1,3,1.1345501138130203,B21L11,2022-11-17_12h08.54.174,t1_Paradigm,2021.1.4,59.95929859226403,
R,left,Pretarget,0,17,17,17,1589.181386236567,1591.184312912752,None,0,3,,B21L11,2022-11-17_12h08.54.174,t1_Paradigm,2021.1.4,59.95929859226403,
S,right,Target,0,18,18,18,1592.6816005322617,1594.682570316596,left,0,3,1.3364461816381663,B21L11,2022-11-17_12h08.54.174,t1_Paradigm,2021.1.4,59.95929859226403,
F,left,Distractor,0,19,19,19,1596.1808363819728,1598.1821090033045,left,1,3,1.0067179136676714,B21L11,2022-11-17_12h08.54.174,t1_Paradigm,2021.1.4,59.95929859226403,
R,right,Target,0,20,20,20,1599.680227820645,1601.682533103507,right,1,3,0.9047946417704225,B21L11,2022-11-17_12h08.54.174,t1_Paradigm,2021.1.4,59.95929859226403,
P,left,Distractor,0,21,21,21,1603.179771640338,1605.1816579558654,left,1,3,1.3372029535239562,B21L11,2022-11-17_12h08.54.174,t1_Paradigm,2021.1.4,59.95929859226403,
L,left,Distractor,0,22,22,22,1606.6792022169102,1608.6808116802713,left,1,3,1.052209876361303,B21L11,2022-11-17_12h08.54.174,t1_Paradigm,2021.1.4,59.95929859226403,
R,right,Target,0,23,23,23,1610.1784518611385,1612.18013382575,left,0,3,1.3426052583381534,B21L11,2022-11-17_12h08.54.174,t1_Paradigm,2021.1.4,59.95929859226403,
H,left,Pretarget,0,24,24,24,1613.6781936155166,1615.679425174254,left,1,3,0.9516015716362745,B21L11,2022-11-17_12h08.54.174,t1_Paradigm,2021.1.4,59.95929859226403,
G,left,Pretarget,0,25,25,25,1617.177267460269,1619.179257394746,left,1,3,0.7844993628095835,B21L11,2022-11-17_12h08.54.174,t1_Paradigm,2021.1.4,59.95929859226403,
T,left,Distractor,0,26,26,26,1620.6769023876404,1622.6762665582355,left,1,3,0.6852493337355554,B21L11,2022-11-17_12h08.54.174,t1_Paradigm,2021.1.4,59.95929859226403,
H,right,Target,0,27,27,27,1624.1763695356203,1626.1779677709565,right,1,3,0.8102677798597142,B21L11,2022-11-17_12h08.54.174,t1_Paradigm,2021.1.4,59.95929859226403,
G,right,Target,0,28,28,28,1627.6916942449752,1629.6943017231533,left,0,3,0.9894760919269174,B21L11,2022-11-17_12h08.54.174,t1_Paradigm,2021.1.4,59.95929859226403,
D,left,Distractor,0,29,29,29,1631.1918552875286,1633.1935202496825,None,0,3,,B21L11,2022-11-17_12h08.54.174,t1_Paradigm,2021.1.4,59.95929859226403,
N,left,Pretarget,0,30,30,30,1634.6910519994562,1636.692785933963,left,1,3,1.056389604927972,B21L11,2022-11-17_12h08.54.174,t1_Paradigm,2021.1.4,59.95929859226403,
V,left,Distractor,0,31,31,31,1638.1906227663858,1640.1921350267949,left,1,3,0.6000087258871645,B21L11,2022-11-17_12h08.54.174,t1_Paradigm,2021.1.4,59.95929859226403,
R,left,Distractor,0,32,32,32,1641.689983087359,1643.6909118089825,left,1,3,0.9682909724069759,B21L11,2022-11-17_12h08.54.174,t1_Paradigm,2021.1.4,59.95929859226403,
N,right,Target,0,33,33,33,1645.1893142152112,1647.1915206910344,left,0,3,0.7675661524990574,B21L11,2022-11-17_12h08.54.174,t1_Paradigm,2021.1.4,59.95929859226403,
Z,left,Distractor,0,34,34,34,1648.6890537240542,1650.6898015134502,left,1,3,0.5735425646416843,B21L11,2022-11-17_12h08.54.174,t1_Paradigm,2021.1.4,59.95929859226403,
N,left,Lure,0,35,35,35,1652.1883713783463,1654.1891884608194,right,0,3,0.7331655967282131,B21L11,2022-11-17_12h08.54.174,t1_Paradigm,2021.1.4,59.95929859226403,
Y,left,Pretarget,0,36,36,36,1655.6877422856633,1657.6893867164617,left,1,3,0.9286863672314212,B21L11,2022-11-17_12h08.54.174,t1_Paradigm,2021.1.4,59.95929859226403,
Y,left,Lure,0,37,37,37,1659.1865938146366,1661.1867170026526,left,1,3,1.1510755848139524,B21L11,2022-11-17_12h08.54.174,t1_Paradigm,2021.1.4,59.95929859226403,
B,left,Distractor,0,38,38,38,1662.6865360703086,1664.6878696440253,left,1,3,0.9991072082193568,B21L11,2022-11-17_12h08.54.174,t1_Paradigm,2021.1.4,59.95929859226403,
Y,right,Target,0,39,39,39,1666.185833514086,1668.1868212632835,right,1,3,0.7150945018511266,B21L11,2022-11-17_12h08.54.174,t1_Paradigm,2021.1.4,59.95929859226403,
J,left,Distractor,0,40,40,40,1669.6853321006056,1671.687417954905,left,1,3,0.7916442640125751,B21L11,2022-11-17_12h08.54.174,t1_Paradigm,2021.1.4,59.95929859226403,
X,left,Distractor,0,41,41,41,1673.1847315593623,1675.1861049125437,left,1,3,1.3316428139805794,B21L11,2022-11-17_12h08.54.174,t1_Paradigm,2021.1.4,59.95929859226403,
W,left,Pretarget,0,42,42,42,1676.6841810632031,1678.6855079000816,left,1,3,1.0794459622120485,B21L11,2022-11-17_12h08.54.174,t1_Paradigm,2021.1.4,59.95929859226403,
S,left,Pretarget,0,43,43,43,1680.183558386634,1682.1850863662548,left,1,3,1.0225491693709046,B21L11,2022-11-17_12h08.54.174,t1_Paradigm,2021.1.4,59.95929859226403,
R,left,Distractor,0,44,44,44,1683.682868341566,1685.6846921007382,None,0,3,,B21L11,2022-11-17_12h08.54.174,t1_Paradigm,2021.1.4,59.95929859226403,
W,right,Target,0,45,45,45,1687.1825879606185,1689.1841390380869,right,1,3,0.9987828773446381,B21L11,2022-11-17_12h08.54.174,t1_Paradigm,2021.1.4,59.95929859226403,
S,right,Target,0,46,46,46,1690.6817140961066,1692.6831548176706,left,0,3,1.2524024858139455,B21L11,2022-11-17_12h08.54.174,t1_Paradigm,2021.1.4,59.95929859226403,
D,left,Distractor,0,47,47,47,1694.1811915098224,1696.1822815948399,right,0,3,1.1311005303869024,B21L11,2022-11-17_12h08.54.174,t1_Paradigm,2021.1.4,59.95929859226403,
T,left,Distractor,0,48,48,48,1697.681025334401,1699.6819162013708,left,1,3,0.9352323312778026,B21L11,2022-11-17_12h08.54.174,t1_Paradigm,2021.1.4,59.95929859226403,
S,right,Target,0,49,49,49,1701.1798338758526,1703.1819187677465,right,1,3,0.9070213282248005,B21L11,2022-11-17_12h08.54.174,t1_Paradigm,2021.1.4,59.95929859226403,
K,left,Distractor,0,50,50,50,1704.6794171541696,1706.6814208831638,left,1,3,1.4297001014929265,B21L11,2022-11-17_12h08.54.174,t1_Paradigm,2021.1.4,59.95929859226403,
S,left,Lure,0,51,51,51,1708.1789513496915,1710.1804681014037,left,1,3,1.3160662751179188,B21L11,2022-11-17_12h08.54.174,t1_Paradigm,2021.1.4,59.95929859226403,
T,left,Pretarget,0,52,52,52,1711.6784605227876,1713.6798239310738,left,1,3,0.9411482400028035,B21L11,2022-11-17_12h08.54.174,t1_Paradigm,2021.1.4,59.95929859226403,
V,left,Distractor,0,53,53,53,1715.1777120918268,1717.1797029887093,left,1,3,0.8436764160869643,B21L11,2022-11-17_12h08.54.174,t1_Paradigm,2021.1.4,59.95929859226403,
B,left,Distractor,0,54,54,54,1718.6770631094696,1720.6890704057878,left,1,3,0.8504424500279129,B21L11,2022-11-17_12h08.54.174,t1_Paradigm,2021.1.4,59.95929859226403,
T,right,Target,0,55,55,55,1722.1764147686772,1724.1767541771987,right,1,3,0.9357064764481038,B21L11,2022-11-17_12h08.54.174,t1_Paradigm,2021.1.4,59.95929859226403,
Y,left,Pretarget,0,56,56,56,1725.6757446133997,1727.6770762623055,left,1,3,0.9600755552528426,B21L11,2022-11-17_12h08.54.174,t1_Paradigm,2021.1.4,59.95929859226403,
T,left,Lure,0,57,57,57,1729.1918039591983,1731.194094164297,right,0,3,1.2649663735646755,B21L11,2022-11-17_12h08.54.174,t1_Paradigm,2021.1.4,59.95929859226403,
P,left,Pretarget,0,58,58,58,1732.6913891623262,1734.6929883600678,left,1,3,1.2864899390842766,B21L11,2022-11-17_12h08.54.174,t1_Paradigm,2021.1.4,59.95929859226403,
Y,right,Target,0,59,59,59,1736.1908149267547,1738.1920323701343,right,1,3,1.4259377361740917,B21L11,2022-11-17_12h08.54.174,t1_Paradigm,2021.1.4,59.95929859226403,
R,left,Distractor,0,60,60,60,1739.6900222251425,1741.6921969415853,left,1,3,0.9852652454283088,B21L11,2022-11-17_12h08.54.174,t1_Paradigm,2021.1.4,59.95929859226403,
P,right,Target,0,61,61,61,1743.189493864309,1745.1904851424042,left,0,3,1.1136357511859387,B21L11,2022-11-17_12h08.54.174,t1_Paradigm,2021.1.4,59.95929859226403,
L,left,Distractor,0,62,62,62,1746.6890254934551,1748.690712270094,left,1,3,0.9211459173820913,B21L11,2022-11-17_12h08.54.174,t1_Paradigm,2021.1.4,59.95929859226403,
V,left,Distractor,0,63,63,63,1750.1883181252051,1752.1902525610058,left,1,3,0.7914492164272815,B21L11,2022-11-17_12h08.54.174,t1_Paradigm,2021.1.4,59.95929859226403,
H,left,Lure,0,0,0,0,1821.5288785918383,1823.5276986822719,left,1,3,0.39161160634830594,B21L11,2022-11-17_12h08.54.174,t1_Paradigm,2021.1.4,59.95929859226403,
B,left,Distractor,0,1,1,1,1825.026064517093,1827.0277942812536,left,1,3,0.6853138149017468,B21L11,2022-11-17_12h08.54.174,t1_Paradigm,2021.1.4,59.95929859226403,
T,left,Distractor,0,2,2,2,1828.5246895599412,1830.5272906221217,left,1,3,0.5635117291240022,B21L11,2022-11-17_12h08.54.174,t1_Paradigm,2021.1.4,59.95929859226403,
R,left,Distractor,0,3,3,3,1832.024675765424,1834.026476426865,left,1,3,0.9146233721403405,B21L11,2022-11-17_12h08.54.174,t1_Paradigm,2021.1.4,59.95929859226403,
H,left,Pretarget,0,4,4,4,1835.5242118858732,1837.5258842264302,left,1,3,1.445367748150602,B21L11,2022-11-17_12h08.54.174,t1_Paradigm,2021.1.4,59.95929859226403,
K,left,Distractor,0,5,5,5,1839.0236039661104,1841.0252025222871,None,0,3,,B21L11,2022-11-17_12h08.54.174,t1_Paradigm,2021.1.4,59.95929859226403,
G,left,Distractor,0,6,6,6,1842.5230152945733,1844.5241685775109,left,1,3,0.8061117904726416,B21L11,2022-11-17_12h08.54.174,t1_Paradigm,2021.1.4,59.95929859226403,
H,right,Target,0,7,7,7,1846.0222322170157,1848.023616798222,right,1,3,0.6310392571613193,B21L11,2022-11-17_12h08.54.174,t1_Paradigm,2021.1.4,59.95929859226403,
Y,left,Pretarget,0,8,8,8,1849.5217028937768,1851.5233989736298,left,1,3,0.8272288999287412,B21L11,2022-11-17_12h08.54.174,t1_Paradigm,2021.1.4,59.95929859226403,
S,left,Distractor,0,9,9,9,1853.0207725680666,1855.0225042570382,left,1,3,0.6812566326698288,B21L11,2022-11-17_12h08.54.174,t1_Paradigm,2021.1.4,59.95929859226403,
P,left,Distractor,0,10,10,10,1856.520567575586,1858.5219553648494,left,1,3,0.8119632181478664,B21L11,2022-11-17_12h08.54.174,t1_Paradigm,2021.1.4,59.95929859226403,
Y,right,Target,0,11,11,11,1860.0200469141128,1862.0221398259746,right,1,3,0.9056652983417735,B21L11,2022-11-17_12h08.54.174,t1_Paradigm,2021.1.4,59.95929859226403,
H,left,Lure,0,12,12,12,1863.519205450546,1865.5210612898227,None,0,3,,B21L11,2022-11-17_12h08.54.174,t1_Paradigm,2021.1.4,59.95929859226403,
Q,left,Distractor,0,13,13,13,1867.0186029844917,1869.021162342513,left,1,3,0.9636143216630444,B21L11,2022-11-17_12h08.54.174,t1_Paradigm,2021.1.4,59.95929859226403,
V,left,Pretarget,0,14,14,14,1870.5181654106127,1872.5205829740735,left,1,3,0.568019638187252,B21L11,2022-11-17_12h08.54.174,t1_Paradigm,2021.1.4,59.95929859226403,
G,left,Distractor,0,15,15,15,1874.0177166087087,1876.0196622725343,left,1,3,0.8912272856105119,B21L11,2022-11-17_12h08.54.174,t1_Paradigm,2021.1.4,59.95929859226403,
Z,left,Pretarget,0,16,16,16,1877.5170256012352,1879.5184121072525,left,1,3,0.8517323946580291,B21L11,2022-11-17_12h08.54.174,t1_Paradigm,2021.1.4,59.95929859226403,
V,right,Target,0,17,17,17,1881.0165520976298,1883.0173983731074,right,1,3,0.5428209655219689,B21L11,2022-11-17_12h08.54.174,t1_Paradigm,2021.1.4,59.95929859226403,
N,left,Distractor,0,18,18,18,1884.515942253056,1886.5168196464656,left,1,3,1.204308498534374,B21L11,2022-11-17_12h08.54.174,t1_Paradigm,2021.1.4,59.95929859226403,
Z,right,Target,0,19,19,19,1888.0154732406372,1890.0169691401534,left,0,3,0.6735792001709342,B21L11,2022-11-17_12h08.54.174,t1_Paradigm,2021.1.4,59.95929859226403,
R,left,Distractor,0,20,20,20,1891.5150712757604,1893.5162004986778,right,0,3,0.7354420073097572,B21L11,2022-11-17_12h08.54.174,t1_Paradigm,2021.1.4,59.95929859226403,
P,left,Distractor,0,21,21,21,1895.0139930604491,1897.0134496218525,left,1,3,0.8767924809362739,B21L11,2022-11-17_12h08.54.174,t1_Paradigm,2021.1.4,59.95929859226403,
Z,right,Target,0,22,22,22,1898.5134290906135,1900.5145018523326,right,1,3,0.5161886289715767,B21L11,2022-11-17_12h08.54.174,t1_Paradigm,2021.1.4,59.95929859226403,
D,left,Pretarget,0,23,23,23,1902.0128413813654,1904.0146077169338,left,1,3,0.3411975792841986,B21L11,2022-11-17_12h08.54.174,t1_Paradigm,2021.1.4,59.95929859226403,
K,left,Distractor,0,24,24,24,1905.5124660431175,1907.5138031456154,left,1,3,0.8272988348035142,B21L11,2022-11-17_12h08.54.174,t1_Paradigm,2021.1.4,59.95929859226403,
W,left,Distractor,0,25,25,25,1909.0115597775439,1911.013581150677,left,1,3,0.6394571004202589,B21L11,2022-11-17_12h08.54.174,t1_Paradigm,2021.1.4,59.95929859226403,
D,right,Target,0,26,26,26,1912.511254694895,1914.5132160780486,right,1,3,0.5581363716628402,B21L11,2022-11-17_12h08.54.174,t1_Paradigm,2021.1.4,59.95929859226403,
G,left,Pretarget,0,27,27,27,1916.0272206873633,1918.029164426378,left,1,3,0.8644383975770324,B21L11,2022-11-17_12h08.54.174,t1_Paradigm,2021.1.4,59.95929859226403,
V,left,Distractor,0,28,28,28,1919.5265040157828,1921.5282735594083,left,1,3,1.244981374242343,B21L11,2022-11-17_12h08.54.174,t1_Paradigm,2021.1.4,59.95929859226403,
D,right,Target,0,29,29,29,1923.0261283566942,1925.0265672138194,left,0,3,0.8672569637419656,B21L11,2022-11-17_12h08.54.174,t1_Paradigm,2021.1.4,59.95929859226403,
G,right,Target,0,30,30,30,1926.5253982114373,1928.5269338904181,right,1,3,0.6712565941270441,B21L11,2022-11-17_12h08.54.174,t1_Paradigm,2021.1.4,59.95929859226403,
B,left,Pretarget,0,31,31,31,1930.024847394554,1932.026137980749,left,1,3,0.7697508139535785,B21L11,2022-11-17_12h08.54.174,t1_Paradigm,2021.1.4,59.95929859226403,
N,left,Distractor,0,32,32,32,1933.5236177606275,1935.5260138304438,left,1,3,0.8434573083650321,B21L11,2022-11-17_12h08.54.174,t1_Paradigm,2021.1.4,59.95929859226403,
F,left,Distractor,0,33,33,33,1937.0236286679283,1939.026055534603,left,1,3,1.4229844334768131,B21L11,2022-11-17_12h08.54.174,t1_Paradigm,2021.1.4,59.95929859226403,
B,right,Target,0,34,34,34,1940.5232587832725,1942.525000417023,left,0,3,0.7872104601701722,B21L11,2022-11-17_12h08.54.174,t1_Paradigm,2021.1.4,59.95929859226403,
Q,left,Pretarget,0,35,35,35,1944.022623595316,1946.0242304923013,left,1,3,0.5596495944773778,B21L11,2022-11-17_12h08.54.174,t1_Paradigm,2021.1.4,59.95929859226403,
S,left,Pretarget,0,36,36,36,1947.5219422120135,1949.5233854999533,left,1,3,0.8137147969100624,B21L11,2022-11-17_12h08.54.174,t1_Paradigm,2021.1.4,59.95929859226403,
W,left,Distractor,0,37,37,37,1951.0212797559798,1953.0233867831994,left,1,3,0.8746261053020135,B21L11,2022-11-17_12h08.54.174,t1_Paradigm,2021.1.4,59.95929859226403,
Q,right,Target,0,38,38,38,1954.520862071775,1956.5204883374972,right,1,3,1.2282634220318869,B21L11,2022-11-17_12h08.54.174,t1_Paradigm,2021.1.4,59.95929859226403,
S,right,Target,0,39,39,39,1958.0202031446388,1960.0218655403005,right,1,3,1.3692411237861961,B21L11,2022-11-17_12h08.54.174,t1_Paradigm,2021.1.4,59.95929859226403,
T,left,Distractor,0,40,40,40,1961.5201107535977,1963.5206602873513,left,1,3,0.8811053424142301,B21L11,2022-11-17_12h08.54.174,t1_Paradigm,2021.1.4,59.95929859226403,
G,left,Distractor,0,41,41,41,1965.0189350144938,1967.0210183024174,left,1,3,1.1134291547350585,B21L11,2022-11-17_12h08.54.174,t1_Paradigm,2021.1.4,59.95929859226403,
D,left,Distractor,0,42,42,42,1968.518494874239,1970.5202904026955,left,1,3,1.0484847240149975,B21L11,2022-11-17_12h08.54.174,t1_Paradigm,2021.1.4,59.95929859226403,
S,left,Lure,0,43,43,43,1972.018001480843,1974.019620247418,right,0,3,1.314367307932116,B21L11,2022-11-17_12h08.54.174,t1_Paradigm,2021.1.4,59.95929859226403,
Z,left,Pretarget,0,44,44,44,1975.5172398969298,1977.5189763979288,left,1,3,0.727477778098546,B21L11,2022-11-17_12h08.54.174,t1_Paradigm,2021.1.4,59.95929859226403,
J,left,Distractor,0,45,45,45,1979.0166884383652,1981.0181403880706,left,1,3,1.0339854381745681,B21L11,2022-11-17_12h08.54.174,t1_Paradigm,2021.1.4,59.95929859226403,
M,left,Pretarget,0,46,46,46,1982.5160102631198,1984.5176136312075,left,1,3,1.1736552303191274,B21L11,2022-11-17_12h08.54.174,t1_Paradigm,2021.1.4,59.95929859226403,
Z,right,Target,0,47,47,47,1986.0157350150403,1988.0172151952283,left,0,3,1.33263665845152,B21L11,2022-11-17_12h08.54.174,t1_Paradigm,2021.1.4,59.95929859226403,
P,left,Distractor,0,48,48,48,1989.5149044587743,1991.51726106985,left,1,3,1.0305913534248248,B21L11,2022-11-17_12h08.54.174,t1_Paradigm,2021.1.4,59.95929859226403,
M,right,Target,0,49,49,49,1993.0143844387494,1995.0136972810142,right,1,3,0.9362197595182806,B21L11,2022-11-17_12h08.54.174,t1_Paradigm,2021.1.4,59.95929859226403,
K,left,Distractor,0,50,50,50,1996.5137636869913,1998.5153564687353,left,1,3,0.9018252989044413,B21L11,2022-11-17_12h08.54.174,t1_Paradigm,2021.1.4,59.95929859226403,
Y,left,Distractor,0,51,51,51,2000.012440378894,2002.014469451271,left,1,3,0.9227938770782202,B21L11,2022-11-17_12h08.54.174,t1_Paradigm,2021.1.4,59.95929859226403,
X,left,Distractor,0,52,52,52,2003.5124625143362,2005.5144081781618,left,1,3,1.000290967291221,B21L11,2022-11-17_12h08.54.174,t1_Paradigm,2021.1.4,59.95929859226403,
F,left,Pretarget,0,53,53,53,2007.0118953364436,2009.011588008143,None,0,3,,B21L11,2022-11-17_12h08.54.174,t1_Paradigm,2021.1.4,59.95929859226403,
M,left,Lure,0,54,54,54,2010.5114673866192,2012.5131795066409,right,0,3,1.3279744436731562,B21L11,2022-11-17_12h08.54.174,t1_Paradigm,2021.1.4,59.95929859226403,
V,left,Distractor,0,55,55,55,2014.0270227525616,2016.0289969677106,left,1,3,0.9123344501713291,B21L11,2022-11-17_12h08.54.174,t1_Paradigm,2021.1.4,59.95929859226403,
F,right,Target,0,56,56,56,2017.5271337500308,2019.5288041657768,left,0,3,0.9125388009706512,B21L11,2022-11-17_12h08.54.174,t1_Paradigm,2021.1.4,59.95929859226403,
S,left,Distractor,0,57,57,57,2021.026220106054,2023.0277509730076,left,1,3,1.117401324561797,B21L11,2022-11-17_12h08.54.174,t1_Paradigm,2021.1.4,59.95929859226403,
D,left,Distractor,0,58,58,58,2024.5257071437081,2026.5269499304704,left,1,3,0.7591611413517967,B21L11,2022-11-17_12h08.54.174,t1_Paradigm,2021.1.4,59.95929859226403,
F,right,Target,0,59,59,59,2028.024650101317,2030.0266981009627,right,1,3,0.5964949820190668,B21L11,2022-11-17_12h08.54.174,t1_Paradigm,2021.1.4,59.95929859226403,
V,left,Pretarget,0,60,60,60,2031.5245888280915,2033.5266695496393,left,1,3,0.5227172694867477,B21L11,2022-11-17_12h08.54.174,t1_Paradigm,2021.1.4,59.95929859226403,
J,left,Distractor,0,61,61,61,2035.0239998357138,2037.0254655798199,left,1,3,0.8267383936326951,B21L11,2022-11-17_12h08.54.174,t1_Paradigm,2021.1.4,59.95929859226403,
V,left,Lure,0,62,62,62,2038.5234727581264,2040.524825900793,None,0,3,,B21L11,2022-11-17_12h08.54.174,t1_Paradigm,2021.1.4,59.95929859226403,
V,right,Target,0,63,63,63,2042.0226107633207,2044.0222848284757,right,1,3,0.9187687749508768,B21L11,2022-11-17_12h08.54.174,t1_Paradigm,2021.1.4,59.95929859226403,
R,left,Distractor,0,0,0,0,2145.205708799069,2147.2076810895232,left,1,4,0.3565556521061808,B21L11,2022-11-17_12h08.54.174,t1_Paradigm,2021.1.4,59.95929859226403,
F,left,Distractor,0,1,1,1,2148.7049828242743,2150.7063311549136,left,1,4,0.26801046333275735,B21L11,2022-11-17_12h08.54.174,t1_Paradigm,2021.1.4,59.95929859226403,
P,left,Pretarget,0,2,2,2,2152.204233430908,2154.2055333204335,left,1,4,0.6036735672969371,B21L11,2022-11-17_12h08.54.174,t1_Paradigm,2021.1.4,59.95929859226403,
H,left,Distractor,0,3,3,3,2155.703553651576,2157.7053793354426,left,1,4,0.6812668982893229,B21L11,2022-11-17_12h08.54.174,t1_Paradigm,2021.1.4,59.95929859226403,
Z,left,Distractor,0,4,4,4,2159.203033310827,2161.2048554659123,left,1,4,0.8082653341116384,B21L11,2022-11-17_12h08.54.174,t1_Paradigm,2021.1.4,59.95929859226403,
T,left,Distractor,0,5,5,5,2162.7026586141437,2164.703988017398,left,1,4,0.7315975168021396,B21L11,2022-11-17_12h08.54.174,t1_Paradigm,2021.1.4,59.95929859226403,
P,right,Target,0,6,6,6,2166.201969852322,2168.203967806883,right,1,4,0.878686495590955,B21L11,2022-11-17_12h08.54.174,t1_Paradigm,2021.1.4,59.95929859226403,
G,left,Distractor,0,7,7,7,2169.701274674502,2171.703066353337,left,1,4,0.5205306834541261,B21L11,2022-11-17_12h08.54.174,t1_Paradigm,2021.1.4,59.95929859226403,
L,left,Distractor,0,8,8,8,2173.200678303605,2175.2023968397407,left,1,4,0.6030290761264041,B21L11,2022-11-17_12h08.54.174,t1_Paradigm,2021.1.4,59.95929859226403,
P,left,Lure,0,9,9,9,2176.700090915314,2178.702726624091,left,1,4,0.9004076750716195,B21L11,2022-11-17_12h08.54.174,t1_Paradigm,2021.1.4,59.95929859226403,
Q,left,Pretarget,0,10,10,10,2180.1996690606466,2182.200855386327,left,1,4,1.2694130094023421,B21L11,2022-11-17_12h08.54.174,t1_Paradigm,2021.1.4,59.95929859226403,
D,left,Distractor,0,11,11,11,2183.699027135968,2185.6999982035486,left,1,4,0.919323441456072,B21L11,2022-11-17_12h08.54.174,t1_Paradigm,2021.1.4,59.95929859226403,
M,left,Pretarget,0,12,12,12,2187.19856133149,2189.2006378825754,left,1,4,0.7024828146677464,B21L11,2022-11-17_12h08.54.174,t1_Paradigm,2021.1.4,59.95929859226403,
C,left,Distractor,0,13,13,13,2190.697715697577,2192.6994169104146,left,1,4,0.5935214686905965,B21L11,2022-11-17_12h08.54.174,t1_Paradigm,2021.1.4,59.95929859226403,
Q,right,Target,0,14,14,14,2194.197273311671,2196.198523797677,right,1,4,0.7045571201015264,B21L11,2022-11-17_12h08.54.174,t1_Paradigm,2021.1.4,59.95929859226403,
R,left,Distractor,0,15,15,15,2197.696760991006,2199.698096489534,left,1,4,0.8645333551103249,B21L11,2022-11-17_12h08.54.174,t1_Paradigm,2021.1.4,59.95929859226403,
M,right,Target,0,16,16,16,2201.196136389626,2203.1984330107225,left,0,4,0.7945494464365765,B21L11,2022-11-17_12h08.54.174,t1_Paradigm,2021.1.4,59.95929859226403,
S,left,Distractor,0,17,17,17,2204.6955778733827,2206.6974205598235,left,1,4,0.8984937706263736,B21L11,2022-11-17_12h08.54.174,t1_Paradigm,2021.1.4,59.95929859226403,
Z,left,Distractor,0,18,18,18,2208.194305252051,2210.1964587955736,left,1,4,0.7276096276473254,B21L11,2022-11-17_12h08.54.174,t1_Paradigm,2021.1.4,59.95929859226403,
L,left,Pretarget,0,19,19,19,2211.694362996379,2213.695514354622,left,1,4,0.6508288880577311,B21L11,2022-11-17_12h08.54.174,t1_Paradigm,2021.1.4,59.95929859226403,
M,right,Target,0,20,20,20,2215.1936443999875,2217.1949766905745,right,1,4,0.891951335594058,B21L11,2022-11-17_12h08.54.174,t1_Paradigm,2021.1.4,59.95929859226403,
P,left,Distractor,0,21,21,21,2218.693194635678,2220.6947588659823,left,1,4,0.8068063267273828,B21L11,2022-11-17_12h08.54.174,t1_Paradigm,2021.1.4,59.95929859226403,
F,left,Distractor,0,22,22,22,2222.1926396483323,2224.1944682194153,left,1,4,0.6033485949737951,B21L11,2022-11-17_12h08.54.174,t1_Paradigm,2021.1.4,59.95929859226403,
L,right,Target,0,23,23,23,2225.6920881897677,2227.6937271668576,right,1,4,0.5962970472173765,B21L11,2022-11-17_12h08.54.174,t1_Paradigm,2021.1.4,59.95929859226403,
L,left,Lure,0,24,24,24,2229.191289392882,2231.1911395783536,left,1,4,1.0802672152640298,B21L11,2022-11-17_12h08.54.174,t1_Paradigm,2021.1.4,59.95929859226403,
V,left,Pretarget,0,25,25,25,2232.6906737738755,2234.6921857135603,left,1,4,0.6548780504381284,B21L11,2022-11-17_12h08.54.174,t1_Paradigm,2021.1.4,59.95929859226403,
Z,left,Distractor,0,26,26,26,2236.1901444506366,2238.1921834679088,right,0,4,0.8832402793923393,B21L11,2022-11-17_12h08.54.174,t1_Paradigm,2021.1.4,59.95929859226403,
H,left,Distractor,0,27,27,27,2239.706354573369,2241.707966924063,left,1,4,0.6513906123582274,B21L11,2022-11-17_12h08.54.174,t1_Paradigm,2021.1.4,59.95929859226403,
X,left,Distractor,0,28,28,28,2243.2056141624926,2245.2069814204006,left,1,4,1.1663637226447463,B21L11,2022-11-17_12h08.54.174,t1_Paradigm,2021.1.4,59.95929859226403,
V,right,Target,0,29,29,29,2246.70513745083,2248.704547496047,None,0,4,,B21L11,2022-11-17_12h08.54.174,t1_Paradigm,2021.1.4,59.95929859226403,
C,left,Distractor,0,30,30,30,2250.204561932129,2252.2060982526746,left,1,4,1.0899868727428839,B21L11,2022-11-17_12h08.54.174,t1_Paradigm,2021.1.4,59.95929859226403,
S,left,Pretarget,0,31,31,31,2253.703970373259,2255.705006242846,left,1,4,0.5892211184836924,B21L11,2022-11-17_12h08.54.174,t1_Paradigm,2021.1.4,59.95929859226403,
D,left,Distractor,0,32,32,32,2257.203229641542,2259.205200328026,left,1,4,0.4868204933591187,B21L11,2022-11-17_12h08.54.174,t1_Paradigm,2021.1.4,59.95929859226403,
V,left,Distractor,0,33,33,33,2260.7026467444375,2262.704386453377,right,0,4,0.45131894515361637,B21L11,2022-11-17_12h08.54.174,t1_Paradigm,2021.1.4,59.95929859226403,
R,left,Distractor,0,34,34,34,2264.202296107891,2266.204075275571,left,1,4,0.5783109648618847,B21L11,2022-11-17_12h08.54.174,t1_Paradigm,2021.1.4,59.95929859226403,
S,right,Target,0,35,35,35,2267.7012518974952,2269.7033059924142,right,1,4,0.5420391712104902,B21L11,2022-11-17_12h08.54.174,t1_Paradigm,2021.1.4,59.95929859226403,
Y,left,Distractor,0,36,36,36,2271.2010327897733,2273.2019396969117,left,1,4,0.7105105627560988,B21L11,2022-11-17_12h08.54.174,t1_Paradigm,2021.1.4,59.95929859226403,
N,left,Pretarget,0,37,37,37,2274.700306814979,2276.701855967636,left,1,4,1.4371532932855189,B21L11,2022-11-17_12h08.54.174,t1_Paradigm,2021.1.4,59.95929859226403,
Z,left,Pretarget,0,38,38,38,2278.1997877573594,2280.2009881982813,left,1,4,0.8791186158778146,B21L11,2022-11-17_12h08.54.174,t1_Paradigm,2021.1.4,59.95929859226403,
P,left,Pretarget,0,39,39,39,2281.6993546747835,2283.7008852208965,left,1,4,1.0423317425884306,B21L11,2022-11-17_12h08.54.174,t1_Paradigm,2021.1.4,59.95929859226403,
M,left,Distractor,0,40,40,40,2285.1986979931826,2287.2002821132774,left,1,4,0.5944931778358296,B21L11,2022-11-17_12h08.54.174,t1_Paradigm,2021.1.4,59.95929859226403,
N,right,Target,0,41,41,41,2288.6980932814768,2290.7001175418263,left,0,4,1.0352291873423383,B21L11,2022-11-17_12h08.54.174,t1_Paradigm,2021.1.4,59.95929859226403,
Z,right,Target,0,42,42,42,2292.197308920673,2294.198795516975,None,0,4,,B21L11,2022-11-17_12h08.54.174,t1_Paradigm,2021.1.4,59.95929859226403,
P,right,Target,0,43,43,43,2295.6968578731176,2297.6983496022876,right,1,4,0.9271753900684416,B21L11,2022-11-17_12h08.54.174,t1_Paradigm,2021.1.4,59.95929859226403,
X,left,Pretarget,0,44,44,44,2299.1961899634916,2301.197459056042,left,1,4,1.0957042052177712,B21L11,2022-11-17_12h08.54.174,t1_Paradigm,2021.1.4,59.95929859226403,
Z,left,Lure,0,45,45,45,2302.6957039484987,2304.697549522156,right,0,4,1.2870202247286215,B21L11,2022-11-17_12h08.54.174,t1_Paradigm,2021.1.4,59.95929859226403,
R,left,Pretarget,0,46,46,46,2306.1950347556267,2308.196352930856,left,1,4,0.831599184894003,B21L11,2022-11-17_12h08.54.174,t1_Paradigm,2021.1.4,59.95929859226403,
K,left,Distractor,0,47,47,47,2309.694441592903,2311.6961537129246,None,0,4,,B21L11,2022-11-17_12h08.54.174,t1_Paradigm,2021.1.4,59.95929859226403,
X,right,Target,0,48,48,48,2313.1940017733723,2315.1955602292437,right,1,4,1.325490794959478,B21L11,2022-11-17_12h08.54.174,t1_Paradigm,2021.1.4,59.95929859226403,
B,left,Distractor,0,49,49,49,2316.693430104293,2318.6955352067016,left,1,4,1.3014271195279434,B21L11,2022-11-17_12h08.54.174,t1_Paradigm,2021.1.4,59.95929859226403,
R,right,Target,0,50,50,50,2320.1927493625553,2322.194158324739,left,0,4,0.5358454479137436,B21L11,2022-11-17_12h08.54.174,t1_Paradigm,2021.1.4,59.95929859226403,
Y,left,Pretarget,0,51,51,51,2323.6921064754715,2325.6938003097894,left,1,4,0.6502155147027224,B21L11,2022-11-17_12h08.54.174,t1_Paradigm,2021.1.4,59.95929859226403,
W,left,Pretarget,0,52,52,52,2327.191415467998,2329.193266816088,left,1,4,0.6717458170605823,B21L11,2022-11-17_12h08.54.174,t1_Paradigm,2021.1.4,59.95929859226403,
Z,left,Distractor,0,53,53,53,2330.6910016335314,2332.6921597286128,left,1,4,0.9172369457082823,B21L11,2022-11-17_12h08.54.174,t1_Paradigm,2021.1.4,59.95929859226403,
Q,left,Distractor,0,54,54,54,2334.190463969484,2336.1918376433896,left,1,4,0.9666311431210488,B21L11,2022-11-17_12h08.54.174,t1_Paradigm,2021.1.4,59.95929859226403,
Y,right,Target,0,55,55,55,2337.689854445751,2339.691689432948,right,1,4,0.7343057268299162,B21L11,2022-11-17_12h08.54.174,t1_Paradigm,2021.1.4,59.95929859226403,
W,right,Target,0,56,56,56,2341.205967365415,2343.207334623323,left,0,4,0.7149860707577318,B21L11,2022-11-17_12h08.54.174,t1_Paradigm,2021.1.4,59.95929859226403,
H,left,Pretarget,0,57,57,57,2344.705438683857,2346.7069368289085,left,1,4,0.687118967412971,B21L11,2022-11-17_12h08.54.174,t1_Paradigm,2021.1.4,59.95929859226403,
M,left,Distractor,0,58,58,58,2348.204629621352,2350.2064033353236,left,1,4,0.7489278798457235,B21L11,2022-11-17_12h08.54.174,t1_Paradigm,2021.1.4,59.95929859226403,
R,left,Pretarget,0,59,59,59,2351.704135586275,2353.705544869299,left,1,4,0.7824972377857193,B21L11,2022-11-17_12h08.54.174,t1_Paradigm,2021.1.4,59.95929859226403,
J,left,Distractor,0,60,60,60,2355.2035129097058,2357.2049921274884,left,1,4,0.9142923045437783,B21L11,2022-11-17_12h08.54.174,t1_Paradigm,2021.1.4,59.95929859226403,
H,right,Target,0,61,61,61,2358.7030961879063,2360.704625130049,right,1,4,0.681686507188715,B21L11,2022-11-17_12h08.54.174,t1_Paradigm,2021.1.4,59.95929859226403,
Z,left,Distractor,0,62,62,62,2362.2024459224194,2364.2039203281747,left,1,4,0.678550026495941,B21L11,2022-11-17_12h08.54.174,t1_Paradigm,2021.1.4,59.95929859226403,
R,right,Target,0,63,63,63,2365.7019053711556,2367.7034490701044,right,1,4,0.6872046216158196,B21L11,2022-11-17_12h08.54.174,t1_Paradigm,2021.1.4,59.95929859226403,
J,left,Pretarget,0,0,0,0,2399.212000366999,2401.2146460206714,left,1,4,0.47849632427096367,B21L11,2022-11-17_12h08.54.174,t1_Paradigm,2021.1.4,59.95929859226403,
G,left,Pretarget,0,1,1,1,2402.712177449721,2404.7141356248176,left,1,4,0.3405511634191498,B21L11,2022-11-17_12h08.54.174,t1_Paradigm,2021.1.4,59.95929859226403,
Z,left,Distractor,0,2,2,2,2406.2114373595687,2408.212979454547,left,1,4,0.2890441642375663,B21L11,2022-11-17_12h08.54.174,t1_Paradigm,2021.1.4,59.95929859226403,
F,left,Distractor,0,3,3,3,2409.711125219241,2411.713157178834,left,1,4,0.25610871077515185,B21L11,2022-11-17_12h08.54.174,t1_Paradigm,2021.1.4,59.95929859226403,
J,right,Target,0,4,4,4,2413.210623485036,2415.2120712641627,left,0,4,0.48972599662374705,B21L11,2022-11-17_12h08.54.174,t1_Paradigm,2021.1.4,59.95929859226403,
G,right,Target,0,5,5,5,2416.710150622879,2418.7117494998965,right,1,4,0.5327686363598332,B21L11,2022-11-17_12h08.54.174,t1_Paradigm,2021.1.4,59.95929859226403,
H,left,Distractor,0,6,6,6,2420.2094920164673,2422.2105968584074,left,1,4,1.1378996069543064,B21L11,2022-11-17_12h08.54.174,t1_Paradigm,2021.1.4,59.95929859226403,
P,left,Distractor,0,7,7,7,2423.7086588938255,2425.7105047883233,left,1,4,0.7629514165455475,B21L11,2022-11-17_12h08.54.174,t1_Paradigm,2021.1.4,59.95929859226403,
G,left,Lure,0,8,8,8,2427.2081754453247,2429.20948720444,None,0,4,,B21L11,2022-11-17_12h08.54.174,t1_Paradigm,2021.1.4,59.95929859226403,
S,left,Distractor,0,9,9,9,2430.7076701822225,2432.7085260818712,left,1,4,1.242320322082378,B21L11,2022-11-17_12h08.54.174,t1_Paradigm,2021.1.4,59.95929859226403,
R,left,Pretarget,0,10,10,10,2434.206937791314,2436.2089357458754,left,1,4,0.7360460774507374,B21L11,2022-11-17_12h08.54.174,t1_Paradigm,2021.1.4,59.95929859226403,
T,left,Pretarget,0,11,11,11,2437.7064950846834,2439.707430863986,left,1,4,0.6648161740740761,B21L11,2022-11-17_12h08.54.174,t1_Paradigm,2021.1.4,59.95929859226403,
X,left,Distractor,0,12,12,12,2441.2056953253923,2443.2074295807397,left,1,4,1.0810907137347385,B21L11,2022-11-17_12h08.54.174,t1_Paradigm,2021.1.4,59.95929859226403,
F,left,Pretarget,0,13,13,13,2444.705125581124,2446.7074584529037,left,1,4,1.138027286157012,B21L11,2022-11-17_12h08.54.174,t1_Paradigm,2021.1.4,59.95929859226403,
R,right,Target,0,14,14,14,2448.2047370899236,2450.206295225071,right,1,4,0.8981755351414904,B21L11,2022-11-17_12h08.54.174,t1_Paradigm,2021.1.4,59.95929859226403,
T,right,Target,0,15,15,15,2451.703943425906,2453.7054621023126,right,1,4,0.9482873666565865,B21L11,2022-11-17_12h08.54.174,t1_Paradigm,2021.1.4,59.95929859226403,
C,left,Distractor,0,16,16,16,2455.203530233004,2457.2055086186156,left,1,4,0.6301153475651518,B21L11,2022-11-17_12h08.54.174,t1_Paradigm,2021.1.4,59.95929859226403,
F,right,Target,0,17,17,17,2458.702896969975,2460.7042376013706,left,0,4,0.8559948903275654,B21L11,2022-11-17_12h08.54.174,t1_Paradigm,2021.1.4,59.95929859226403,
M,left,Distractor,0,18,18,18,2462.2021764487727,2464.2036300024483,left,1,4,0.6691473211394623,B21L11,2022-11-17_12h08.54.174,t1_Paradigm,2021.1.4,59.95929859226403,
N,left,Distractor,0,19,19,19,2465.7018155466067,2467.7037195061566,left,1,4,0.8651688637910411,B21L11,2022-11-17_12h08.54.174,t1_Paradigm,2021.1.4,59.95929859226403,
R,left,Lure,0,20,20,20,2469.201175546623,2471.203220338328,left,1,4,1.37581018533092,B21L11,2022-11-17_12h08.54.174,t1_Paradigm,2021.1.4,59.95929859226403,
F,right,Target,0,21,21,21,2472.700599065516,2474.7026021529455,right,1,4,0.9846486640162766,B21L11,2022-11-17_12h08.54.174,t1_Paradigm,2021.1.4,59.95929859226403,
P,left,Distractor,0,22,22,22,2476.1998554465827,2478.2019852508092,left,1,4,0.8182926406152546,B21L11,2022-11-17_12h08.54.174,t1_Paradigm,2021.1.4,59.95929859226403,
L,left,Pretarget,0,23,23,23,2479.699359486811,2481.701320549124,left,1,4,0.6764853451168165,B21L11,2022-11-17_12h08.54.174,t1_Paradigm,2021.1.4,59.95929859226403,
T,left,Distractor,0,24,24,24,2483.1988054618705,2485.199585331371,left,1,4,1.3514680538792163,B21L11,2022-11-17_12h08.54.174,t1_Paradigm,2021.1.4,59.95929859226403,
F,left,Distractor,0,25,25,25,2486.6974908154225,2488.699857692234,right,0,4,1.049457074725069,B21L11,2022-11-17_12h08.54.174,t1_Paradigm,2021.1.4,59.95929859226403,
V,left,Distractor,0,26,26,26,2490.1968065449037,2492.199592709774,left,1,4,0.75626109179575,B21L11,2022-11-17_12h08.54.174,t1_Paradigm,2021.1.4,59.95929859226403,
L,right,Target,0,27,27,27,2493.7136409481755,2495.7153697499307,right,1,4,1.087272567441687,B21L11,2022-11-17_12h08.54.174,t1_Paradigm,2021.1.4,59.95929859226403,
S,left,Pretarget,0,28,28,28,2497.212888667593,2499.2145186623093,left,1,4,1.3654001619433984,B21L11,2022-11-17_12h08.54.174,t1_Paradigm,2021.1.4,59.95929859226403,
W,left,Distractor,0,29,29,29,2500.712373138871,2502.7141808578745,left,1,4,1.0521623976528645,B21L11,2022-11-17_12h08.54.174,t1_Paradigm,2021.1.4,59.95929859226403,
Q,left,Distractor,0,30,30,30,2504.2118967479328,2506.2127603468252,left,1,4,0.9803027601446956,B21L11,2022-11-17_12h08.54.174,t1_Paradigm,2021.1.4,59.95929859226403,
L,right,Target,0,31,31,31,2507.7111537706805,2509.7127455899026,right,1,4,0.7603525999002159,B21L11,2022-11-17_12h08.54.174,t1_Paradigm,2021.1.4,59.95929859226403,
S,right,Target,0,32,32,32,2511.2107813195325,2513.212434091256,right,1,4,0.6220936946338043,B21L11,2022-11-17_12h08.54.174,t1_Paradigm,2021.1.4,59.95929859226403,
Z,left,Pretarget,0,33,33,33,2514.710127525148,2516.712127083796,left,1,4,0.7043915862450376,B21L11,2022-11-17_12h08.54.174,t1_Paradigm,2021.1.4,59.95929859226403,
F,left,Distractor,0,34,34,34,2518.209449670627,2520.211750783026,left,1,4,1.088660356705077,B21L11,2022-11-17_12h08.54.174,t1_Paradigm,2021.1.4,59.95929859226403,
V,left,Distractor,0,35,35,35,2521.7090316656977,2523.710761750699,right,0,4,0.9671919050160795,B21L11,2022-11-17_12h08.54.174,t1_Paradigm,2021.1.4,59.95929859226403,
M,left,Distractor,0,36,36,36,2525.2083011997165,2527.2103844875237,right,0,4,0.927229605615139,B21L11,2022-11-17_12h08.54.174,t1_Paradigm,2021.1.4,59.95929859226403,
Z,right,Target,0,37,37,37,2528.707787274965,2530.7092645679368,right,1,4,1.0996061193291098,B21L11,2022-11-17_12h08.54.174,t1_Paradigm,2021.1.4,59.95929859226403,
H,left,Pretarget,0,38,38,38,2532.2070718866307,2534.2090242872946,left,1,4,0.6025770662818104,B21L11,2022-11-17_12h08.54.174,t1_Paradigm,2021.1.4,59.95929859226403,
L,left,Distractor,0,39,39,39,2535.7066205182346,2537.707832508022,left,1,4,1.0200199666433036,B21L11,2022-11-17_12h08.54.174,t1_Paradigm,2021.1.4,59.95929859226403,
G,left,Distractor,0,40,40,40,2539.2059032050893,2541.2072929191636,left,1,4,0.7150175092974678,B21L11,2022-11-17_12h08.54.174,t1_Paradigm,2021.1.4,59.95929859226403,
K,left,Distractor,0,41,41,41,2542.705362332985,2544.7071533702547,left,1,4,0.8620830697473139,B21L11,2022-11-17_12h08.54.174,t1_Paradigm,2021.1.4,59.95929859226403,
H,right,Target,0,42,42,42,2546.2049254006706,2548.2064408691367,right,1,4,0.814602134982124,B21L11,2022-11-17_12h08.54.174,t1_Paradigm,2021.1.4,59.95929859226403,
B,left,Distractor,0,43,43,43,2549.704304328072,2551.706414884189,left,1,4,0.6553345514694229,B21L11,2022-11-17_12h08.54.174,t1_Paradigm,2021.1.4,59.95929859226403,
Z,left,Distractor,0,44,44,44,2553.203562313225,2555.2057126486907,right,0,4,0.6808296452509239,B21L11,2022-11-17_12h08.54.174,t1_Paradigm,2021.1.4,59.95929859226403,
T,left,Pretarget,0,45,45,45,2556.7031407793984,2558.704787776689,left,1,4,1.3183292121393606,B21L11,2022-11-17_12h08.54.174,t1_Paradigm,2021.1.4,59.95929859226403,
H,right,Target,0,46,46,46,2560.202434694278,2562.2042526790174,right,1,4,0.8622008040547371,B21L11,2022-11-17_12h08.54.174,t1_Paradigm,2021.1.4,59.95929859226403,
F,left,Distractor,0,47,47,47,2563.70198557165,2565.7031343634007,left,1,4,0.5984733676305041,B21L11,2022-11-17_12h08.54.174,t1_Paradigm,2021.1.4,59.95929859226403,
R,left,Distractor,0,48,48,48,2567.201391446404,2569.2022261730162,left,1,4,0.7748339207610115,B21L11,2022-11-17_12h08.54.174,t1_Paradigm,2021.1.4,59.95929859226403,
T,right,Target,0,49,49,49,2570.700358143309,2572.7024735113373,right,1,4,0.8896373911993578,B21L11,2022-11-17_12h08.54.174,t1_Paradigm,2021.1.4,59.95929859226403,
H,right,Target,0,50,50,50,2574.2000421533594,2576.2018107345793,right,1,4,0.8574157221009955,B21L11,2022-11-17_12h08.54.174,t1_Paradigm,2021.1.4,59.95929859226403,
Y,left,Pretarget,0,51,51,51,2577.699439687305,2579.7012403486297,left,1,4,0.5809941523475572,B21L11,2022-11-17_12h08.54.174,t1_Paradigm,2021.1.4,59.95929859226403,
H,left,Distractor,0,52,52,52,2581.19903098559,2583.199936288758,left,1,4,1.1901345058577135,B21L11,2022-11-17_12h08.54.174,t1_Paradigm,2021.1.4,59.95929859226403,
S,left,Distractor,0,53,53,53,2584.6982976323925,2586.69986025861,left,1,4,1.0517443927237764,B21L11,2022-11-17_12h08.54.174,t1_Paradigm,2021.1.4,59.95929859226403,
Q,left,Distractor,0,54,54,54,2588.197705111117,2590.1992154467152,left,1,4,0.9876388590782881,B21L11,2022-11-17_12h08.54.174,t1_Paradigm,2021.1.4,59.95929859226403,
Y,right,Target,0,55,55,55,2591.7139158754144,2593.7158243262675,left,0,4,0.8408668326446787,B21L11,2022-11-17_12h08.54.174,t1_Paradigm,2021.1.4,59.95929859226403,
R,left,Distractor,0,56,56,56,2595.213207544759,2597.215404717368,left,1,4,0.9679634337080643,B21L11,2022-11-17_12h08.54.174,t1_Paradigm,2021.1.4,59.95929859226403,
H,left,Pretarget,0,57,57,57,2598.7130314244423,2600.714544005692,right,0,4,1.4260124830761924,B21L11,2022-11-17_12h08.54.174,t1_Paradigm,2021.1.4,59.95929859226403,
J,left,Distractor,0,58,58,58,2602.212039825623,2604.21367014118,left,1,4,0.6562000751728192,B21L11,2022-11-17_12h08.54.174,t1_Paradigm,2021.1.4,59.95929859226403,
V,left,Distractor,0,59,59,59,2605.7115797955776,2607.71328325395,left,1,4,0.815649553318508,B21L11,2022-11-17_12h08.54.174,t1_Paradigm,2021.1.4,59.95929859226403,
Y,left,Lure,0,60,60,60,2609.2110232042614,2611.2124186927686,left,1,4,1.3393054894404486,B21L11,2022-11-17_12h08.54.174,t1_Paradigm,2021.1.4,59.95929859226403,
H,right,Target,0,61,61,61,2612.7102532795398,2614.7121190637117,left,0,4,1.1112226789118722,B21L11,2022-11-17_12h08.54.174,t1_Paradigm,2021.1.4,59.95929859226403,
L,left,Distractor,0,62,62,62,2616.2098461819114,2618.2114505124046,left,1,4,0.7283275823574513,B21L11,2022-11-17_12h08.54.174,t1_Paradigm,2021.1.4,59.95929859226403,
P,left,Distractor,0,63,63,63,2619.709263926372,2621.711419073865,left,1,4,0.7690800169948488,B21L11,2022-11-17_12h08.54.174,t1_Paradigm,2021.1.4,59.95929859226403,
