Letter,CorrAnswer,Stimulus,nback_run.thisRepN,nback_run.thisTrialN,nback_run.thisN,nback_run.thisIndex,fixcross.started,nback_trial.started,trial_resp.keys,trial_resp.corr,currentlevel,trial_resp.rt,Participant,date,expName,psychopyVersion,frameRate,
H,left,Distractor,0,0,0,0,2524.3075363484677,2526.2559949903516,None,0,1,,B25R08,2022-12-02_10h50.12.291,t1_Paradigm,2021.1.4,60.2672714366191,
Q,left,Pretarget,0,1,1,1,2527.754746749153,2529.758274289692,None,0,1,,B25R08,2022-12-02_10h50.12.291,t1_Paradigm,2021.1.4,60.2672714366191,
Q,right,Target,0,2,2,2,2531.254883731657,2533.2547929446446,right,1,1,0.8294051108823624,B25R08,2022-12-02_10h50.12.291,t1_Paradigm,2021.1.4,60.2672714366191,
T,left,Distractor,0,3,3,3,2534.754506147525,2536.756158278644,left,1,1,0.8320414630288724,B25R08,2022-12-02_10h50.12.291,t1_Paradigm,2021.1.4,60.2672714366191,
Q,left,Lure,0,4,4,4,2538.2548019271053,2540.2553954111063,left,1,1,1.1728324841533322,B25R08,2022-12-02_10h50.12.291,t1_Paradigm,2021.1.4,60.2672714366191,
L,left,Distractor,0,5,5,5,2541.7547823581845,2543.7673048704746,left,1,1,0.7328343576518819,B25R08,2022-12-02_10h50.12.291,t1_Paradigm,2021.1.4,60.2672714366191,
V,left,Pretarget,0,6,6,6,2545.254778829345,2547.2561213863955,left,1,1,0.8599820479284972,B25R08,2022-12-02_10h50.12.291,t1_Paradigm,2021.1.4,60.2672714366191,
V,right,Target,0,7,7,7,2548.754565175128,2550.7547890950227,right,1,1,0.8974831787345465,B25R08,2022-12-02_10h50.12.291,t1_Paradigm,2021.1.4,60.2672714366191,
K,left,Distractor,0,8,8,8,2552.2547582980187,2554.257255101227,left,1,1,0.7549373056390323,B25R08,2022-12-02_10h50.12.291,t1_Paradigm,2021.1.4,60.2672714366191,
G,left,Pretarget,0,9,9,9,2555.7546466588683,2557.7559032409335,left,1,1,0.7763514913676772,B25R08,2022-12-02_10h50.12.291,t1_Paradigm,2021.1.4,60.2672714366191,
G,right,Target,0,10,10,10,2559.254670077411,2561.2548144384054,right,1,1,0.8293922787997872,B25R08,2022-12-02_10h50.12.291,t1_Paradigm,2021.1.4,60.2672714366191,
G,right,Target,0,11,11,11,2562.754605916998,2564.754808343161,right,1,1,0.48146469282801263,B25R08,2022-12-02_10h50.12.291,t1_Paradigm,2021.1.4,60.2672714366191,
P,left,Pretarget,0,12,12,12,2566.2547400122858,2568.257255101227,left,1,1,0.8188949905452318,B25R08,2022-12-02_10h50.12.291,t1_Paradigm,2021.1.4,60.2672714366191,
P,right,Target,0,13,13,13,2569.7547772253456,2571.754932814394,right,1,1,0.7452224538428709,B25R08,2022-12-02_10h50.12.291,t1_Paradigm,2021.1.4,60.2672714366191,
G,left,Lure,0,14,14,14,2573.2548067391326,2575.2565640933753,left,1,1,0.8436487267608754,B25R08,2022-12-02_10h50.12.291,t1_Paradigm,2021.1.4,60.2672714366191,
Y,left,Distractor,0,15,15,15,2576.7548949597403,2578.757252534793,left,1,1,0.8632006559637375,B25R08,2022-12-02_10h50.12.291,t1_Paradigm,2021.1.4,60.2672714366191,
B,left,Distractor,0,16,16,16,2580.2548025687283,2582.256486459257,left,1,1,0.69175916997483,B25R08,2022-12-02_10h50.12.291,t1_Paradigm,2021.1.4,60.2672714366191,
T,left,Pretarget,0,17,17,17,2583.7548182880273,2585.7568852163386,left,1,1,0.6636453519167844,B25R08,2022-12-02_10h50.12.291,t1_Paradigm,2021.1.4,60.2672714366191,
T,right,Target,0,18,18,18,2587.2547515611805,2589.2545571550727,right,1,1,0.7337143179902341,B25R08,2022-12-02_10h50.12.291,t1_Paradigm,2021.1.4,60.2672714366191,
S,left,Distractor,0,19,19,19,2590.754619711486,2592.757455923391,left,1,1,0.6547870418871753,B25R08,2022-12-02_10h50.12.291,t1_Paradigm,2021.1.4,60.2672714366191,
T,left,Lure,0,20,20,20,2594.254932814394,2596.256644293928,left,1,1,0.9152953978336882,B25R08,2022-12-02_10h50.12.291,t1_Paradigm,2021.1.4,60.2672714366191,
J,left,Distractor,0,21,21,21,2597.754631901975,2599.756557356537,left,1,1,1.1596167184179649,B25R08,2022-12-02_10h50.12.291,t1_Paradigm,2021.1.4,60.2672714366191,
P,left,Distractor,0,22,22,22,2601.2548099471605,2603.256990439433,left,1,1,0.8751810126123019,B25R08,2022-12-02_10h50.12.291,t1_Paradigm,2021.1.4,60.2672714366191,
F,left,Distractor,0,23,23,23,2604.7543075709837,2606.7561621282657,left,1,1,0.5599370714335237,B25R08,2022-12-02_10h50.12.291,t1_Paradigm,2021.1.4,60.2672714366191,
L,left,Distractor,0,24,24,24,2608.2548654459533,2610.2568467200617,left,1,1,0.8673720464576036,B25R08,2022-12-02_10h50.12.291,t1_Paradigm,2021.1.4,60.2672714366191,
W,left,Pretarget,0,25,25,25,2611.7548099471605,2613.7572515723878,left,1,1,0.6472671184747014,B25R08,2022-12-02_10h50.12.291,t1_Paradigm,2021.1.4,60.2672714366191,
W,right,Target,0,26,26,26,2615.2548798820353,2617.2548452354094,right,1,1,0.7012754452007357,B25R08,2022-12-02_10h50.12.291,t1_Paradigm,2021.1.4,60.2672714366191,
V,left,Distractor,0,27,27,27,2618.75457961121,2620.7572544596333,left,1,1,0.6548322750022635,B25R08,2022-12-02_10h50.12.291,t1_Paradigm,2021.1.4,60.2672714366191,
W,left,Lure,0,28,28,28,2622.2547207641765,2624.2560533763317,left,1,1,0.788217963243369,B25R08,2022-12-02_10h50.12.291,t1_Paradigm,2021.1.4,60.2672714366191,
R,left,Pretarget,0,29,29,29,2625.754890789307,2627.7579692068393,left,1,1,0.6943380985467229,B25R08,2022-12-02_10h50.12.291,t1_Paradigm,2021.1.4,60.2672714366191,
R,right,Target,0,30,30,30,2629.2547849245893,2631.2547249345807,right,1,1,0.6054595394816715,B25R08,2022-12-02_10h50.12.291,t1_Paradigm,2021.1.4,60.2672714366191,
G,left,Distractor,0,31,31,31,2632.754822779243,2634.7553607644804,left,1,1,0.6568712935550138,B25R08,2022-12-02_10h50.12.291,t1_Paradigm,2021.1.4,60.2672714366191,
R,left,Lure,0,32,32,32,2636.254972593859,2638.2569381486974,left,1,1,1.20322078949539,B25R08,2022-12-02_10h50.12.291,t1_Paradigm,2021.1.4,60.2672714366191,
S,left,Distractor,0,33,33,33,2639.7547249345807,2641.7558705191186,left,1,1,0.7124906887183897,B25R08,2022-12-02_10h50.12.291,t1_Paradigm,2021.1.4,60.2672714366191,
R,left,Lure,0,34,34,34,2643.2546899671725,2645.2561338976666,left,1,1,0.6839258228428662,B25R08,2022-12-02_10h50.12.291,t1_Paradigm,2021.1.4,60.2672714366191,
P,left,Pretarget,0,35,35,35,2646.7545420773677,2648.7570311813033,left,1,1,0.6712332853931002,B25R08,2022-12-02_10h50.12.291,t1_Paradigm,2021.1.4,60.2672714366191,
P,right,Target,0,36,36,36,2650.2548917517124,2652.254732313042,right,1,1,0.7575149509648327,B25R08,2022-12-02_10h50.12.291,t1_Paradigm,2021.1.4,60.2672714366191,
Y,left,Pretarget,0,37,37,37,2653.7544188893226,2655.754792623862,left,1,1,0.6172875150805339,B25R08,2022-12-02_10h50.12.291,t1_Paradigm,2021.1.4,60.2672714366191,
Y,right,Target,0,38,38,38,2657.2547817165905,2659.254559400666,right,1,1,0.8137547775404528,B25R08,2022-12-02_10h50.12.291,t1_Paradigm,2021.1.4,60.2672714366191,
J,left,Distractor,0,39,39,39,2660.754926077556,2662.7554531554924,left,1,1,0.7367032316979021,B25R08,2022-12-02_10h50.12.291,t1_Paradigm,2021.1.4,60.2672714366191,
Y,left,Lure,0,40,40,40,2664.2549129246618,2666.2564162035706,left,1,1,0.9156036887143273,B25R08,2022-12-02_10h50.12.291,t1_Paradigm,2021.1.4,60.2672714366191,
T,left,Distractor,0,41,41,41,2667.7549437216658,2669.7566985094745,left,1,1,1.063794075831538,B25R08,2022-12-02_10h50.12.291,t1_Paradigm,2021.1.4,60.2672714366191,
V,left,Distractor,0,42,42,42,2671.2549443632597,2673.254892072524,left,1,1,0.6691464673785958,B25R08,2022-12-02_10h50.12.291,t1_Paradigm,2021.1.4,60.2672714366191,
N,left,Pretarget,0,43,43,43,2674.754837215354,2676.756273767416,left,1,1,0.7039076269429643,B25R08,2022-12-02_10h50.12.291,t1_Paradigm,2021.1.4,60.2672714366191,
N,right,Target,0,44,44,44,2678.2548269496765,2680.254904583795,right,1,1,0.7733353094954509,B25R08,2022-12-02_10h50.12.291,t1_Paradigm,2021.1.4,60.2672714366191,
N,right,Target,0,45,45,45,2681.754763751669,2683.7546630197903,left,0,1,0.6976523056509905,B25R08,2022-12-02_10h50.12.291,t1_Paradigm,2021.1.4,60.2672714366191,
X,left,Distractor,0,46,46,46,2685.254577686399,2687.2566131761123,left,1,1,0.8435990024299826,B25R08,2022-12-02_10h50.12.291,t1_Paradigm,2021.1.4,60.2672714366191,
Z,left,Distractor,0,47,47,47,2688.754700232821,2690.7571216475335,left,1,1,0.766977331484668,B25R08,2022-12-02_10h50.12.291,t1_Paradigm,2021.1.4,60.2672714366191,
H,left,Pretarget,0,48,48,48,2692.254751881963,2694.2566526347655,left,1,1,0.6594608085579239,B25R08,2022-12-02_10h50.12.291,t1_Paradigm,2021.1.4,60.2672714366191,
H,right,Target,0,49,49,49,2695.7546809847117,2697.755127862096,right,1,1,0.6812092701729853,B25R08,2022-12-02_10h50.12.291,t1_Paradigm,2021.1.4,60.2672714366191,
K,left,Distractor,0,50,50,50,2699.254801606323,2701.2549036213895,left,1,1,0.925179312354885,B25R08,2022-12-02_10h50.12.291,t1_Paradigm,2021.1.4,60.2672714366191,
V,left,Pretarget,0,51,51,51,2702.7548243832716,2704.7564370557084,left,1,1,0.9119542433472816,B25R08,2022-12-02_10h50.12.291,t1_Paradigm,2021.1.4,60.2672714366191,
V,right,Target,0,52,52,52,2706.254774338129,2708.254848122626,right,1,1,0.7094414641906042,B25R08,2022-12-02_10h50.12.291,t1_Paradigm,2021.1.4,60.2672714366191,
R,left,Distractor,0,53,53,53,2709.7547993607004,2711.7674874069053,left,1,1,0.6848542242660187,B25R08,2022-12-02_10h50.12.291,t1_Paradigm,2021.1.4,60.2672714366191,
V,left,Lure,0,54,54,54,2713.254830478516,2715.2556312007073,left,1,1,1.2127858267049305,B25R08,2022-12-02_10h50.12.291,t1_Paradigm,2021.1.4,60.2672714366191,
Y,left,Distractor,0,55,55,55,2716.7548760324134,2718.755501917418,left,1,1,0.8006638038204983,B25R08,2022-12-02_10h50.12.291,t1_Paradigm,2021.1.4,60.2672714366191,
Q,left,Distractor,0,56,56,56,2720.2548747491965,2722.256315471692,left,1,1,0.8358407230116427,B25R08,2022-12-02_10h50.12.291,t1_Paradigm,2021.1.4,60.2672714366191,
Z,left,Pretarget,0,57,57,57,2723.754594047321,2725.755882067984,left,1,1,1.0162595366418827,B25R08,2022-12-02_10h50.12.291,t1_Paradigm,2021.1.4,60.2672714366191,
Z,right,Target,0,58,58,58,2727.254874428414,2729.2548648043303,right,1,1,0.6692635601502843,B25R08,2022-12-02_10h50.12.291,t1_Paradigm,2021.1.4,60.2672714366191,
B,left,Distractor,0,59,59,59,2730.7548478018143,2732.755326438637,left,1,1,0.6889521510747727,B25R08,2022-12-02_10h50.12.291,t1_Paradigm,2021.1.4,60.2672714366191,
S,left,Pretarget,0,60,60,60,2734.2548670499527,2736.255121446069,left,1,1,0.6452694834442809,B25R08,2022-12-02_10h50.12.291,t1_Paradigm,2021.1.4,60.2672714366191,
S,right,Target,0,61,61,61,2737.7547634308576,2739.7545558718557,right,1,1,0.7936699959391262,B25R08,2022-12-02_10h50.12.291,t1_Paradigm,2021.1.4,60.2672714366191,
T,left,Distractor,0,62,62,62,2741.2544974858756,2743.256030599383,left,1,1,0.6361263010767289,B25R08,2022-12-02_10h50.12.291,t1_Paradigm,2021.1.4,60.2672714366191,
D,left,Distractor,0,63,63,63,2744.7547615060466,2746.7568929155823,left,1,1,0.7512836898386013,B25R08,2022-12-02_10h50.12.291,t1_Paradigm,2021.1.4,60.2672714366191,
R,left,Distractor,0,0,0,0,2757.816557626007,2759.8232245364925,None,0,1,,B25R08,2022-12-02_10h50.12.291,t1_Paradigm,2021.1.4,60.2672714366191,
V,left,Distractor,0,1,1,1,2761.3213404653943,2763.3228937894455,left,1,1,0.7294643309724052,B25R08,2022-12-02_10h50.12.291,t1_Paradigm,2021.1.4,60.2672714366191,
N,left,Pretarget,0,2,2,2,2764.821206049295,2766.821679553279,left,1,1,0.6706256861216389,B25R08,2022-12-02_10h50.12.291,t1_Paradigm,2021.1.4,60.2672714366191,
N,right,Target,0,3,3,3,2768.321514660958,2770.3214925256325,right,1,1,0.6588487180415541,B25R08,2022-12-02_10h50.12.291,t1_Paradigm,2021.1.4,60.2672714366191,
S,left,Distractor,0,4,4,4,2771.8215364755015,2773.821807874134,left,1,1,0.5663630595081486,B25R08,2022-12-02_10h50.12.291,t1_Paradigm,2021.1.4,60.2672714366191,
N,left,Lure,0,5,5,5,2775.3215608564788,2777.321724786394,left,1,1,0.9703790534113068,B25R08,2022-12-02_10h50.12.291,t1_Paradigm,2021.1.4,60.2672714366191,
Z,left,Distractor,0,6,6,6,2778.82127598417,2780.8236406168726,left,1,1,0.7485636083292775,B25R08,2022-12-02_10h50.12.291,t1_Paradigm,2021.1.4,60.2672714366191,
L,left,Pretarget,0,7,7,7,2782.321661909169,2784.3234144513553,left,1,1,0.8167151398665737,B25R08,2022-12-02_10h50.12.291,t1_Paradigm,2021.1.4,60.2672714366191,
L,right,Target,0,8,8,8,2785.821507282526,2787.8212612272764,right,1,1,0.679532116453629,B25R08,2022-12-02_10h50.12.291,t1_Paradigm,2021.1.4,60.2672714366191,
H,left,Distractor,0,9,9,9,2789.321473919088,2791.3229069423396,left,1,1,0.66532282641856,B25R08,2022-12-02_10h50.12.291,t1_Paradigm,2021.1.4,60.2672714366191,
L,left,Lure,0,10,10,10,2792.8215258890414,2794.8221023705264,right,0,1,0.6864142852136865,B25R08,2022-12-02_10h50.12.291,t1_Paradigm,2021.1.4,60.2672714366191,
X,left,Pretarget,0,11,11,11,2796.3212390919216,2798.3228235337883,left,1,1,0.6095385389344301,B25R08,2022-12-02_10h50.12.291,t1_Paradigm,2021.1.4,60.2672714366191,
X,right,Target,0,12,12,12,2799.821881979442,2801.8214710318716,right,1,1,0.7748863879241981,B25R08,2022-12-02_10h50.12.291,t1_Paradigm,2021.1.4,60.2672714366191,
X,right,Target,0,13,13,13,2803.321691422956,2805.3212018788618,right,1,1,0.5390852518903557,B25R08,2022-12-02_10h50.12.291,t1_Paradigm,2021.1.4,60.2672714366191,
R,left,Distractor,0,14,14,14,2806.821372224804,2808.823492727097,left,1,1,0.57277717787656,B25R08,2022-12-02_10h50.12.291,t1_Paradigm,2021.1.4,60.2672714366191,
T,left,Distractor,0,15,15,15,2810.3216295081365,2812.3217100294714,left,1,1,0.7065965906367637,B25R08,2022-12-02_10h50.12.291,t1_Paradigm,2021.1.4,60.2672714366191,
V,left,Pretarget,0,16,16,16,2813.8215031120926,2815.8228918646346,left,1,1,0.6773958948906511,B25R08,2022-12-02_10h50.12.291,t1_Paradigm,2021.1.4,60.2672714366191,
V,right,Target,0,17,17,17,2817.321233317489,2819.3215258890414,right,1,1,0.778740505076712,B25R08,2022-12-02_10h50.12.291,t1_Paradigm,2021.1.4,60.2672714366191,
N,left,Distractor,0,18,18,18,2820.8212166357553,2822.822819363355,left,1,1,0.5894444540608674,B25R08,2022-12-02_10h50.12.291,t1_Paradigm,2021.1.4,60.2672714366191,
B,left,Distractor,0,19,19,19,2824.321454991761,2826.3231728873216,left,1,1,0.6253662758681457,B25R08,2022-12-02_10h50.12.291,t1_Paradigm,2021.1.4,60.2672714366191,
V,left,Lure,0,20,20,20,2827.821565026912,2829.8216962349834,left,1,1,0.5506816083507147,B25R08,2022-12-02_10h50.12.291,t1_Paradigm,2021.1.4,60.2672714366191,
P,left,Distractor,0,21,21,21,2831.321627904137,2833.3231218797737,left,1,1,0.6011200486682355,B25R08,2022-12-02_10h50.12.291,t1_Paradigm,2021.1.4,60.2672714366191,
K,left,Pretarget,0,22,22,22,2834.82136452556,2836.82289988469,left,1,1,0.557434173009824,B25R08,2022-12-02_10h50.12.291,t1_Paradigm,2021.1.4,60.2672714366191,
K,right,Target,0,23,23,23,2838.321479693521,2840.321574650967,right,1,1,0.7546755310613662,B25R08,2022-12-02_10h50.12.291,t1_Paradigm,2021.1.4,60.2672714366191,
J,left,Pretarget,0,24,24,24,2841.8214963752544,2843.822254109953,left,1,1,0.6784638452809304,B25R08,2022-12-02_10h50.12.291,t1_Paradigm,2021.1.4,60.2672714366191,
J,right,Target,0,25,25,25,2845.3216352825693,2847.3213786408596,left,0,1,0.6834404491528403,B25R08,2022-12-02_10h50.12.291,t1_Paradigm,2021.1.4,60.2672714366191,
H,left,Distractor,0,26,26,26,2848.821827763866,2850.8216811572784,left,1,1,0.6865461348788813,B25R08,2022-12-02_10h50.12.291,t1_Paradigm,2021.1.4,60.2672714366191,
J,left,Lure,0,27,27,27,2852.32147071106,2854.322761618969,right,0,1,0.7695139141287655,B25R08,2022-12-02_10h50.12.291,t1_Paradigm,2021.1.4,60.2672714366191,
V,left,Distractor,0,28,28,28,2855.8216426610306,2857.8217931172403,left,1,1,0.8545332232315559,B25R08,2022-12-02_10h50.12.291,t1_Paradigm,2021.1.4,60.2672714366191,
Z,left,Pretarget,0,29,29,29,2859.3215560444514,2861.3230753634707,left,1,1,0.8249979308166075,B25R08,2022-12-02_10h50.12.291,t1_Paradigm,2021.1.4,60.2672714366191,
Z,right,Target,0,30,30,30,2862.821194821212,2864.8216426610306,right,1,1,0.606781885959208,B25R08,2022-12-02_10h50.12.291,t1_Paradigm,2021.1.4,60.2672714366191,
T,left,Distractor,0,31,31,31,2866.3215509116126,2868.3235559251043,left,1,1,0.6086723731132224,B25R08,2022-12-02_10h50.12.291,t1_Paradigm,2021.1.4,60.2672714366191,
Z,left,Lure,0,32,32,32,2869.8215396835294,2871.823532827344,left,1,1,0.6772120752430055,B25R08,2022-12-02_10h50.12.291,t1_Paradigm,2021.1.4,60.2672714366191,
F,left,Distractor,0,33,33,33,2873.321686290117,2875.3218438039767,left,1,1,0.6663355988275725,B25R08,2022-12-02_10h50.12.291,t1_Paradigm,2021.1.4,60.2672714366191,
Y,left,Pretarget,0,34,34,34,2876.82174178891,2878.8231334286684,left,1,1,0.7651503631786909,B25R08,2022-12-02_10h50.12.291,t1_Paradigm,2021.1.4,60.2672714366191,
Y,right,Target,0,35,35,35,2880.3215788214,2882.321270209737,right,1,1,0.5631938549631741,B25R08,2022-12-02_10h50.12.291,t1_Paradigm,2021.1.4,60.2672714366191,
Y,right,Target,0,36,36,36,2883.821471352683,2885.8213151220116,right,1,1,0.5667448140738998,B25R08,2022-12-02_10h50.12.291,t1_Paradigm,2021.1.4,60.2672714366191,
W,left,Distractor,0,37,37,37,2887.320504454983,2889.3229069423396,left,1,1,0.5214472283842042,B25R08,2022-12-02_10h50.12.291,t1_Paradigm,2021.1.4,60.2672714366191,
Q,left,Distractor,0,38,38,38,2890.8215220394195,2892.8236784715264,left,1,1,0.7812219097686466,B25R08,2022-12-02_10h50.12.291,t1_Paradigm,2021.1.4,60.2672714366191,
P,left,Pretarget,0,39,39,39,2894.321346239827,2896.323190210649,left,1,1,0.7210869033879135,B25R08,2022-12-02_10h50.12.291,t1_Paradigm,2021.1.4,60.2672714366191,
P,right,Target,0,40,40,40,2897.821604806377,2899.821456916572,right,1,1,0.8548392684897408,B25R08,2022-12-02_10h50.12.291,t1_Paradigm,2021.1.4,60.2672714366191,
J,left,Distractor,0,41,41,41,2901.321574650967,2903.323623935168,left,1,1,0.9364340145257302,B25R08,2022-12-02_10h50.12.291,t1_Paradigm,2021.1.4,60.2672714366191,
P,left,Lure,0,42,42,42,2904.821272134548,2906.822888977418,left,1,1,1.0534376197028905,B25R08,2022-12-02_10h50.12.291,t1_Paradigm,2021.1.4,60.2672714366191,
L,left,Distractor,0,43,43,43,2908.3215181897976,2910.323009919841,left,1,1,0.7053711264161393,B25R08,2022-12-02_10h50.12.291,t1_Paradigm,2021.1.4,60.2672714366191,
Z,left,Distractor,0,44,44,44,2911.8215403251525,2913.8232434638194,left,1,1,0.5815677986538503,B25R08,2022-12-02_10h50.12.291,t1_Paradigm,2021.1.4,60.2672714366191,
F,left,Pretarget,0,45,45,45,2915.3215358339075,2917.3222287665703,left,1,1,0.6981771379651036,B25R08,2022-12-02_10h50.12.291,t1_Paradigm,2021.1.4,60.2672714366191,
F,right,Target,0,46,46,46,2918.821305497957,2920.8215416083403,right,1,1,0.75075115825166,B25R08,2022-12-02_10h50.12.291,t1_Paradigm,2021.1.4,60.2672714366191,
G,left,Pretarget,0,47,47,47,2922.321552515612,2924.322962120321,left,1,1,0.54554043294047,B25R08,2022-12-02_10h50.12.291,t1_Paradigm,2021.1.4,60.2672714366191,
G,right,Target,0,48,48,48,2925.821757508209,2927.821650681086,right,1,1,0.6632106650213245,B25R08,2022-12-02_10h50.12.291,t1_Paradigm,2021.1.4,60.2672714366191,
V,left,Distractor,0,49,49,49,2929.3216635131685,2931.322502410825,left,1,1,0.6177562070370186,B25R08,2022-12-02_10h50.12.291,t1_Paradigm,2021.1.4,60.2672714366191,
G,left,Lure,0,50,50,50,2932.8215932575113,2934.8233842959453,left,1,1,0.925161347433459,B25R08,2022-12-02_10h50.12.291,t1_Paradigm,2021.1.4,60.2672714366191,
Q,left,Pretarget,0,51,51,51,2936.3216785908735,2938.3232521254686,left,1,1,0.689201735163806,B25R08,2022-12-02_10h50.12.291,t1_Paradigm,2021.1.4,60.2672714366191,
Q,right,Target,0,52,52,52,2939.8206703096803,2941.8213962849695,right,1,1,0.631171190936584,B25R08,2022-12-02_10h50.12.291,t1_Paradigm,2021.1.4,60.2672714366191,
Y,left,Distractor,0,53,53,53,2943.3215881246724,2945.3235180704505,left,1,1,0.6326763946563005,B25R08,2022-12-02_10h50.12.291,t1_Paradigm,2021.1.4,60.2672714366191,
V,left,Distractor,0,54,54,54,2946.8215409667464,2948.82362072714,left,1,1,0.7007637657807209,B25R08,2022-12-02_10h50.12.291,t1_Paradigm,2021.1.4,60.2672714366191,
B,left,Distractor,0,55,55,55,2950.3216025607544,2952.323240576574,left,1,1,0.6253528021625243,B25R08,2022-12-02_10h50.12.291,t1_Paradigm,2021.1.4,60.2672714366191,
J,left,Pretarget,0,56,56,56,2953.821155362559,2955.8208643950056,left,1,1,0.7436601473018527,B25R08,2022-12-02_10h50.12.291,t1_Paradigm,2021.1.4,60.2672714366191,
J,right,Target,0,57,57,57,2957.3212737385475,2959.3215717637504,right,1,1,0.5868459565681405,B25R08,2022-12-02_10h50.12.291,t1_Paradigm,2021.1.4,60.2672714366191,
H,left,Distractor,0,58,58,58,2960.821589087078,2962.834110957745,left,1,1,0.690310106612742,B25R08,2022-12-02_10h50.12.291,t1_Paradigm,2021.1.4,60.2672714366191,
J,left,Lure,0,59,59,59,2964.321608335187,2966.323333609209,left,1,1,0.6411211907106917,B25R08,2022-12-02_10h50.12.291,t1_Paradigm,2021.1.4,60.2672714366191,
D,left,Pretarget,0,60,60,60,2967.8215948615107,2969.820690520224,left,1,1,0.7598564859654289,B25R08,2022-12-02_10h50.12.291,t1_Paradigm,2021.1.4,60.2672714366191,
D,right,Target,0,61,61,61,2971.321523643419,2973.321274700953,right,1,1,0.7312127027544193,B25R08,2022-12-02_10h50.12.291,t1_Paradigm,2021.1.4,60.2672714366191,
R,left,Distractor,0,62,62,62,2974.8215672725346,2976.8207928561023,left,1,1,0.6236817437456921,B25R08,2022-12-02_10h50.12.291,t1_Paradigm,2021.1.4,60.2672714366191,
F,left,Distractor,0,63,63,63,2978.3215566860454,2980.322929398506,left,1,1,1.1695840414904524,B25R08,2022-12-02_10h50.12.291,t1_Paradigm,2021.1.4,60.2672714366191,
F,left,Distractor,0,0,0,0,3100.472206021688,3102.4546966398484,None,0,2,,B25R08,2022-12-02_10h50.12.291,t1_Paradigm,2021.1.4,60.2672714366191,
N,left,Pretarget,0,1,1,1,3103.9549253717705,3105.9563077082857,None,0,2,,B25R08,2022-12-02_10h50.12.291,t1_Paradigm,2021.1.4,60.2672714366191,
V,left,Distractor,0,2,2,2,3107.4550642791146,3109.4567379039945,left,1,2,0.7075095935724676,B25R08,2022-12-02_10h50.12.291,t1_Paradigm,2021.1.4,60.2672714366191,
N,right,Target,0,3,3,3,3110.9549914570234,3112.956626906438,right,1,2,0.7118737861746922,B25R08,2022-12-02_10h50.12.291,t1_Paradigm,2021.1.4,60.2672714366191,
N,left,Lure,0,4,4,4,3114.4546876573877,3116.454615156108,left,1,2,1.0218135844334029,B25R08,2022-12-02_10h50.12.291,t1_Paradigm,2021.1.4,60.2672714366191,
X,left,Distractor,0,5,5,5,3117.954884309118,3119.9569528414286,left,1,2,0.8315515981230419,B25R08,2022-12-02_10h50.12.291,t1_Paradigm,2021.1.4,60.2672714366191,
G,left,Pretarget,0,6,6,6,3121.4549398078816,3123.456144099182,left,1,2,1.172305727028288,B25R08,2022-12-02_10h50.12.291,t1_Paradigm,2021.1.4,60.2672714366191,
H,left,Pretarget,0,7,7,7,3124.9547255120415,3126.9564713173895,left,1,2,0.7760906792245805,B25R08,2022-12-02_10h50.12.291,t1_Paradigm,2021.1.4,60.2672714366191,
G,right,Target,0,8,8,8,3128.4550780736026,3130.456438916357,right,1,2,0.9240218581689987,B25R08,2022-12-02_10h50.12.291,t1_Paradigm,2021.1.4,60.2672714366191,
H,right,Target,0,9,9,9,3131.95499434424,3133.955720319529,right,1,2,1.0887017970671877,B25R08,2022-12-02_10h50.12.291,t1_Paradigm,2021.1.4,60.2672714366191,
T,left,Pretarget,0,10,10,10,3135.455079677631,3137.4569974329206,left,1,2,0.6752635229495354,B25R08,2022-12-02_10h50.12.291,t1_Paradigm,2021.1.4,60.2672714366191,
K,left,Distractor,0,11,11,11,3138.954858965735,3140.956155327265,left,1,2,0.8243534392677248,B25R08,2022-12-02_10h50.12.291,t1_Paradigm,2021.1.4,60.2672714366191,
T,right,Target,0,12,12,12,3142.4550110259734,3144.45616495132,right,1,2,0.7964471802406479,B25R08,2022-12-02_10h50.12.291,t1_Paradigm,2021.1.4,60.2672714366191,
T,left,Lure,0,13,13,13,3145.9549776625354,3147.9549359582597,left,1,2,1.0095846061303746,B25R08,2022-12-02_10h50.12.291,t1_Paradigm,2021.1.4,60.2672714366191,
J,left,Distractor,0,14,14,14,3149.454727757664,3151.4542080581596,left,1,2,0.8862618400307838,B25R08,2022-12-02_10h50.12.291,t1_Paradigm,2021.1.4,60.2672714366191,
Q,left,Pretarget,0,15,15,15,3152.954911898094,3154.9561976731347,left,1,2,0.712372954323655,B25R08,2022-12-02_10h50.12.291,t1_Paradigm,2021.1.4,60.2672714366191,
M,left,Distractor,0,16,16,16,3156.4548217526753,3158.4577086513164,left,1,2,0.6505983281240333,B25R08,2022-12-02_10h50.12.291,t1_Paradigm,2021.1.4,60.2672714366191,
Q,right,Target,0,17,17,17,3159.9546889406047,3161.956681122014,right,1,2,0.6717619673872832,B25R08,2022-12-02_10h50.12.291,t1_Paradigm,2021.1.4,60.2672714366191,
R,left,Distractor,0,18,18,18,3163.4549536023696,3165.456107527745,left,1,2,1.3964235692110378,B25R08,2022-12-02_10h50.12.291,t1_Paradigm,2021.1.4,60.2672714366191,
W,left,Distractor,0,19,19,19,3166.9547701035335,3168.956674705958,left,1,2,0.8078731907589827,B25R08,2022-12-02_10h50.12.291,t1_Paradigm,2021.1.4,60.2672714366191,
C,left,Pretarget,0,20,20,20,3170.455088660092,3172.4564203098416,left,1,2,0.7640012498595752,B25R08,2022-12-02_10h50.12.291,t1_Paradigm,2021.1.4,60.2672714366191,
T,left,Distractor,0,21,21,21,3173.954746043368,3175.954044449056,left,1,2,1.0584745344240218,B25R08,2022-12-02_10h50.12.291,t1_Paradigm,2021.1.4,60.2672714366191,
C,right,Target,0,22,22,22,3177.454907406849,3179.4566535330086,right,1,2,0.6280369538580999,B25R08,2022-12-02_10h50.12.291,t1_Paradigm,2021.1.4,60.2672714366191,
F,left,Pretarget,0,23,23,23,3180.9549901738064,3182.9555422743433,left,1,2,0.6652249817561824,B25R08,2022-12-02_10h50.12.291,t1_Paradigm,2021.1.4,60.2672714366191,
C,right,Target,0,24,24,24,3184.4549234469596,3186.456285572931,left,0,2,0.8123977844079491,B25R08,2022-12-02_10h50.12.291,t1_Paradigm,2021.1.4,60.2672714366191,
F,right,Target,0,25,25,25,3187.9549305046094,3189.9563417133177,right,1,2,0.592300234886352,B25R08,2022-12-02_10h50.12.291,t1_Paradigm,2021.1.4,60.2672714366191,
H,left,Distractor,0,26,26,26,3191.4546696924663,3193.4560468961427,left,1,2,0.7081688420148566,B25R08,2022-12-02_10h50.12.291,t1_Paradigm,2021.1.4,60.2672714366191,
H,left,Lure,0,27,27,27,3194.9548737226287,3196.954889762739,left,1,2,1.2416159959684592,B25R08,2022-12-02_10h50.12.291,t1_Paradigm,2021.1.4,60.2672714366191,
P,left,Distractor,0,28,28,28,3198.4546783541155,3200.456171688158,left,1,2,1.1804624427168164,B25R08,2022-12-02_10h50.12.291,t1_Paradigm,2021.1.4,60.2672714366191,
G,left,Pretarget,0,29,29,29,3201.954688619793,3203.9563298436406,left,1,2,0.8642705311940517,B25R08,2022-12-02_10h50.12.291,t1_Paradigm,2021.1.4,60.2672714366191,
K,left,Distractor,0,30,30,30,3205.454653652356,3207.456506926421,left,1,2,0.6280719212663826,B25R08,2022-12-02_10h50.12.291,t1_Paradigm,2021.1.4,60.2672714366191,
G,right,Target,0,31,31,31,3208.95493948707,3210.956764530565,right,1,2,0.9196496455697343,B25R08,2022-12-02_10h50.12.291,t1_Paradigm,2021.1.4,60.2672714366191,
M,left,Pretarget,0,32,32,32,3212.454757271451,3214.4562140340568,left,1,2,1.1322686551138759,B25R08,2022-12-02_10h50.12.291,t1_Paradigm,2021.1.4,60.2672714366191,
B,left,Distractor,0,33,33,33,3215.954744118557,3217.957353523321,left,1,2,1.407183915231144,B25R08,2022-12-02_10h50.12.291,t1_Paradigm,2021.1.4,60.2672714366191,
M,right,Target,0,34,34,34,3219.454947186343,3221.456216921273,right,1,2,0.8201483645825647,B25R08,2022-12-02_10h50.12.291,t1_Paradigm,2021.1.4,60.2672714366191,
M,left,Lure,0,35,35,35,3222.9545997575915,3224.955099888146,left,1,2,0.9053813279024325,B25R08,2022-12-02_10h50.12.291,t1_Paradigm,2021.1.4,60.2672714366191,
T,left,Distractor,0,36,36,36,3226.454927617393,3228.4568165005185,left,1,2,0.8437889173219446,B25R08,2022-12-02_10h50.12.291,t1_Paradigm,2021.1.4,60.2672714366191,
F,left,Distractor,0,37,37,37,3229.9550819232245,3231.9559682995896,left,1,2,0.9927052796992939,B25R08,2022-12-02_10h50.12.291,t1_Paradigm,2021.1.4,60.2672714366191,
X,left,Distractor,0,38,38,38,3233.4549667552637,3235.45542999357,left,1,2,0.7729352691676468,B25R08,2022-12-02_10h50.12.291,t1_Paradigm,2021.1.4,60.2672714366191,
C,left,Distractor,0,39,39,39,3236.954683807766,3238.9554344848148,left,1,2,0.7451095314754639,B25R08,2022-12-02_10h50.12.291,t1_Paradigm,2021.1.4,60.2672714366191,
R,left,Distractor,0,40,40,40,3240.455026424461,3242.456351658184,left,1,2,0.6521118726814166,B25R08,2022-12-02_10h50.12.291,t1_Paradigm,2021.1.4,60.2672714366191,
B,left,Pretarget,0,41,41,41,3243.954099627037,3245.955823617842,left,1,2,0.7525964122905862,B25R08,2022-12-02_10h50.12.291,t1_Paradigm,2021.1.4,60.2672714366191,
H,left,Distractor,0,42,42,42,3247.4549953066453,3249.4561684801592,left,1,2,0.7241733409755398,B25R08,2022-12-02_10h50.12.291,t1_Paradigm,2021.1.4,60.2672714366191,
B,right,Target,0,43,43,43,3250.9551435172616,3252.9566448713595,right,1,2,0.5997367497475352,B25R08,2022-12-02_10h50.12.291,t1_Paradigm,2021.1.4,60.2672714366191,
W,left,Pretarget,0,44,44,44,3254.4548259231087,3256.4561386455607,left,1,2,0.7001426928036381,B25R08,2022-12-02_10h50.12.291,t1_Paradigm,2021.1.4,60.2672714366191,
L,left,Pretarget,0,45,45,45,3257.9548506248684,3259.956355186994,left,1,2,1.3923041486705188,B25R08,2022-12-02_10h50.12.291,t1_Paradigm,2021.1.4,60.2672714366191,
W,right,Target,0,46,46,46,3261.4547707451566,3263.4562839689315,right,1,2,0.6759952726424672,B25R08,2022-12-02_10h50.12.291,t1_Paradigm,2021.1.4,60.2672714366191,
L,right,Target,0,47,47,47,3264.9547104343364,3266.955946164264,right,1,2,0.8885430641530547,B25R08,2022-12-02_10h50.12.291,t1_Paradigm,2021.1.4,60.2672714366191,
W,right,Target,0,48,48,48,3268.454754705046,3270.456624340033,right,1,2,1.2596871023997664,B25R08,2022-12-02_10h50.12.291,t1_Paradigm,2021.1.4,60.2672714366191,
X,left,Distractor,0,49,49,49,3271.954791918077,3273.9559169712593,left,1,2,0.62468072163756,B25R08,2022-12-02_10h50.12.291,t1_Paradigm,2021.1.4,60.2672714366191,
R,left,Distractor,0,50,50,50,3275.4551428756386,3277.45673180875,left,1,2,0.8836226006387733,B25R08,2022-12-02_10h50.12.291,t1_Paradigm,2021.1.4,60.2672714366191,
V,left,Pretarget,0,51,51,51,3278.95494654472,3280.9559978134057,left,1,2,0.8085882587765809,B25R08,2022-12-02_10h50.12.291,t1_Paradigm,2021.1.4,60.2672714366191,
Z,left,Distractor,0,52,52,52,3282.455090905685,3284.4567372623715,left,1,2,0.6995511336135678,B25R08,2022-12-02_10h50.12.291,t1_Paradigm,2021.1.4,60.2672714366191,
V,right,Target,0,53,53,53,3285.954903557227,3287.957039458008,right,1,2,0.7673712765390519,B25R08,2022-12-02_10h50.12.291,t1_Paradigm,2021.1.4,60.2672714366191,
V,left,Lure,0,54,54,54,3289.4549706048856,3291.454957772803,left,1,2,1.3174308494781144,B25R08,2022-12-02_10h50.12.291,t1_Paradigm,2021.1.4,60.2672714366191,
N,left,Distractor,0,55,55,55,3292.9548021837545,3294.957122224965,left,1,2,0.7596309620130342,B25R08,2022-12-02_10h50.12.291,t1_Paradigm,2021.1.4,60.2672714366191,
B,left,Distractor,0,56,56,56,3296.454995627457,3298.4558319586795,left,1,2,0.7325857359683141,B25R08,2022-12-02_10h50.12.291,t1_Paradigm,2021.1.4,60.2672714366191,
V,left,Lure,0,57,57,57,3299.954992419429,3301.9567083901784,left,1,2,1.2317962418601383,B25R08,2022-12-02_10h50.12.291,t1_Paradigm,2021.1.4,60.2672714366191,
J,left,Distractor,0,58,58,58,3303.4551354972064,3305.456184199458,left,1,2,0.7562185894639697,B25R08,2022-12-02_10h50.12.291,t1_Paradigm,2021.1.4,60.2672714366191,
H,left,Distractor,0,59,59,59,3306.9549895322125,3308.956191898702,left,1,2,0.8883111242030282,B25R08,2022-12-02_10h50.12.291,t1_Paradigm,2021.1.4,60.2672714366191,
X,left,Pretarget,0,60,60,60,3310.4550745447923,3312.4563901544316,left,1,2,0.780405789060751,B25R08,2022-12-02_10h50.12.291,t1_Paradigm,2021.1.4,60.2672714366191,
P,left,Distractor,0,61,61,61,3313.9549208805547,3315.9559904349444,left,1,2,0.656649298442062,B25R08,2022-12-02_10h50.12.291,t1_Paradigm,2021.1.4,60.2672714366191,
X,right,Target,0,62,62,62,3317.4546135520795,3319.456592901406,right,1,2,0.46783958352170885,B25R08,2022-12-02_10h50.12.291,t1_Paradigm,2021.1.4,60.2672714366191,
Q,left,Distractor,0,63,63,63,3320.9548211110814,3322.9548211110814,left,1,2,0.7138082231977023,B25R08,2022-12-02_10h50.12.291,t1_Paradigm,2021.1.4,60.2672714366191,
B,left,Pretarget,0,0,0,0,3332.4875913724536,3334.4901558649144,None,0,2,,B25R08,2022-12-02_10h50.12.291,t1_Paradigm,2021.1.4,60.2672714366191,
F,left,Distractor,0,1,1,1,3335.988194801321,3337.9905658500793,None,0,2,,B25R08,2022-12-02_10h50.12.291,t1_Paradigm,2021.1.4,60.2672714366191,
B,right,Target,0,2,2,2,3339.4883301798254,3341.490444586874,right,1,2,0.7059832169325091,B25R08,2022-12-02_10h50.12.291,t1_Paradigm,2021.1.4,60.2672714366191,
V,left,Distractor,0,3,3,3,3342.988158229884,3344.9903929377324,left,1,2,0.5981179820373654,B25R08,2022-12-02_10h50.12.291,t1_Paradigm,2021.1.4,60.2672714366191,
G,left,Pretarget,0,4,4,4,3346.488489618525,3348.490610762383,left,1,2,0.7461033765575849,B25R08,2022-12-02_10h50.12.291,t1_Paradigm,2021.1.4,60.2672714366191,
B,left,Lure,0,5,5,5,3349.988447272626,3351.990612687194,left,1,2,1.0538960459816735,B25R08,2022-12-02_10h50.12.291,t1_Paradigm,2021.1.4,60.2672714366191,
G,right,Target,0,6,6,6,3353.4885149618785,3355.4886804957932,right,1,2,0.8196947503311094,B25R08,2022-12-02_10h50.12.291,t1_Paradigm,2021.1.4,60.2672714366191,
Y,left,Pretarget,0,7,7,7,3356.9884617087373,3358.9890494182764,left,1,2,0.6636270662129391,B25R08,2022-12-02_10h50.12.291,t1_Paradigm,2021.1.4,60.2672714366191,
P,left,Distractor,0,8,8,8,3360.488378300157,3362.489063533576,left,1,2,0.6353589423233643,B25R08,2022-12-02_10h50.12.291,t1_Paradigm,2021.1.4,60.2672714366191,
Y,right,Target,0,9,9,9,3363.9880190017575,3365.9898170978413,right,1,2,0.9267085762694478,B25R08,2022-12-02_10h50.12.291,t1_Paradigm,2021.1.4,60.2672714366191,
X,left,Distractor,0,10,10,10,3367.488573027076,3369.490204626869,left,1,2,0.6902680815255735,B25R08,2022-12-02_10h50.12.291,t1_Paradigm,2021.1.4,60.2672714366191,
Y,right,Target,0,11,11,11,3370.988221748703,3372.99001342876,right,1,2,0.614925448782742,B25R08,2022-12-02_10h50.12.291,t1_Paradigm,2021.1.4,60.2672714366191,
N,left,Distractor,0,12,12,12,3374.4882746810617,3376.4901532985095,left,1,2,0.8422734479245264,B25R08,2022-12-02_10h50.12.291,t1_Paradigm,2021.1.4,60.2672714366191,
Y,right,Target,0,13,13,13,3377.9884684455756,3379.9901715842425,left,0,2,0.6863886210194323,B25R08,2022-12-02_10h50.12.291,t1_Paradigm,2021.1.4,60.2672714366191,
Y,left,Lure,0,14,14,14,3381.488392094645,3383.488292645983,right,0,2,0.9965032564650755,B25R08,2022-12-02_10h50.12.291,t1_Paradigm,2021.1.4,60.2672714366191,
K,left,Distractor,0,15,15,15,3384.9882259191363,3386.989742350939,left,1,2,0.8229005263128784,B25R08,2022-12-02_10h50.12.291,t1_Paradigm,2021.1.4,60.2672714366191,
T,left,Pretarget,0,16,16,16,3388.488329859043,3390.4890381901932,left,1,2,0.8914543437422253,B25R08,2022-12-02_10h50.12.291,t1_Paradigm,2021.1.4,60.2672714366191,
J,left,Distractor,0,17,17,17,3391.98849218493,3393.9904375292244,left,1,2,0.7180437740753405,B25R08,2022-12-02_10h50.12.291,t1_Paradigm,2021.1.4,60.2672714366191,
T,right,Target,0,18,18,18,3395.4884100595664,3397.488979162619,right,1,2,0.6753565555554815,B25R08,2022-12-02_10h50.12.291,t1_Paradigm,2021.1.4,60.2672714366191,
S,left,Pretarget,0,19,19,19,3398.988480636064,3400.989092405769,left,1,2,0.6795497605635319,B25R08,2022-12-02_10h50.12.291,t1_Paradigm,2021.1.4,60.2672714366191,
R,left,Distractor,0,20,20,20,3402.4882025005645,3404.4891600950214,left,1,2,0.5873281222302467,B25R08,2022-12-02_10h50.12.291,t1_Paradigm,2021.1.4,60.2672714366191,
S,right,Target,0,21,21,21,3405.988082841359,3407.989326912153,right,1,2,0.8153703372227028,B25R08,2022-12-02_10h50.12.291,t1_Paradigm,2021.1.4,60.2672714366191,
Q,left,Distractor,0,22,22,22,3409.488519132312,3411.488561157399,left,1,2,0.6758316635678057,B25R08,2022-12-02_10h50.12.291,t1_Paradigm,2021.1.4,60.2672714366191,
D,left,Distractor,0,23,23,23,3412.9883106109046,3414.9904121858417,left,1,2,0.6942476323165465,B25R08,2022-12-02_10h50.12.291,t1_Paradigm,2021.1.4,60.2672714366191,
F,left,Distractor,0,24,24,24,3416.48806006441,3418.4879679942096,left,1,2,0.9085383419587743,B25R08,2022-12-02_10h50.12.291,t1_Paradigm,2021.1.4,60.2672714366191,
Z,left,Distractor,0,25,25,25,3419.9883516735863,3421.9903990329767,left,1,2,0.7660989751748275,B25R08,2022-12-02_10h50.12.291,t1_Paradigm,2021.1.4,60.2672714366191,
P,left,Distractor,0,26,26,26,3423.488326009421,3425.490035564115,left,1,2,0.8824622592073865,B25R08,2022-12-02_10h50.12.291,t1_Paradigm,2021.1.4,60.2672714366191,
H,left,Distractor,0,27,27,27,3426.9883754129405,3428.9888392928697,left,1,2,0.7276559691817965,B25R08,2022-12-02_10h50.12.291,t1_Paradigm,2021.1.4,60.2672714366191,
Z,left,Pretarget,0,28,28,28,3430.4882711522514,3432.490706361423,right,0,2,1.289906986610731,B25R08,2022-12-02_10h50.12.291,t1_Paradigm,2021.1.4,60.2672714366191,
J,left,Pretarget,0,29,29,29,3433.988487052091,3435.9889682553185,left,1,2,0.6716047743102536,B25R08,2022-12-02_10h50.12.291,t1_Paradigm,2021.1.4,60.2672714366191,
Z,right,Target,0,30,30,30,3437.488417758839,3439.4895976691623,right,1,2,0.7711461555445567,B25R08,2022-12-02_10h50.12.291,t1_Paradigm,2021.1.4,60.2672714366191,
J,right,Target,0,31,31,31,3440.98847806963,3442.988645528356,right,1,2,1.064038847835036,B25R08,2022-12-02_10h50.12.291,t1_Paradigm,2021.1.4,60.2672714366191,
V,left,Pretarget,0,32,32,32,3444.4883484655584,3446.490843343956,left,1,2,0.6336035129206721,B25R08,2022-12-02_10h50.12.291,t1_Paradigm,2021.1.4,60.2672714366191,
Z,left,Lure,0,33,33,33,3447.9882679442235,3449.9899887270003,left,1,2,0.9106636562792119,B25R08,2022-12-02_10h50.12.291,t1_Paradigm,2021.1.4,60.2672714366191,
V,right,Target,0,34,34,34,3451.488279493089,3453.4896724160644,right,1,2,0.8827833821997046,B25R08,2022-12-02_10h50.12.291,t1_Paradigm,2021.1.4,60.2672714366191,
X,left,Distractor,0,35,35,35,3454.988411663595,3456.988745297829,left,1,2,0.8078083887230605,B25R08,2022-12-02_10h50.12.291,t1_Paradigm,2021.1.4,60.2672714366191,
S,left,Distractor,0,36,36,36,3458.4883359542873,3460.489066099981,left,1,2,0.7157362441648729,B25R08,2022-12-02_10h50.12.291,t1_Paradigm,2021.1.4,60.2672714366191,
Q,left,Distractor,0,37,37,37,3461.988433478138,3463.9908661209047,left,1,2,0.8777798309165519,B25R08,2022-12-02_10h50.12.291,t1_Paradigm,2021.1.4,60.2672714366191,
P,left,Distractor,0,38,38,38,3465.4881973677548,3467.490388767299,left,1,2,1.042182275938103,B25R08,2022-12-02_10h50.12.291,t1_Paradigm,2021.1.4,60.2672714366191,
S,left,Lure,0,39,39,39,3468.9882496584905,3470.989268526144,left,1,2,0.8393737171718385,B25R08,2022-12-02_10h50.12.291,t1_Paradigm,2021.1.4,60.2672714366191,
K,left,Pretarget,0,40,40,40,3472.488036325056,3474.488886771578,left,1,2,0.6356046767905354,B25R08,2022-12-02_10h50.12.291,t1_Paradigm,2021.1.4,60.2672714366191,
L,left,Distractor,0,41,41,41,3475.9884068515676,3477.9891883256205,left,1,2,1.0234605827427004,B25R08,2022-12-02_10h50.12.291,t1_Paradigm,2021.1.4,60.2672714366191,
K,right,Target,0,42,42,42,3479.488395302673,3481.4903499502398,right,1,2,0.642144228797406,B25R08,2022-12-02_10h50.12.291,t1_Paradigm,2021.1.4,60.2672714366191,
B,left,Distractor,0,43,43,43,3482.988531643583,3484.990190190758,left,1,2,0.5823415734339505,B25R08,2022-12-02_10h50.12.291,t1_Paradigm,2021.1.4,60.2672714366191,
N,left,Distractor,0,44,44,44,3486.488461387926,3488.4895675137523,left,1,2,0.6827930704166647,B25R08,2022-12-02_10h50.12.291,t1_Paradigm,2021.1.4,60.2672714366191,
S,left,Pretarget,0,45,45,45,3489.9885390220443,3491.9905934390845,left,1,2,0.6542044651869219,B25R08,2022-12-02_10h50.12.291,t1_Paradigm,2021.1.4,60.2672714366191,
Z,left,Distractor,0,46,46,46,3493.488106580742,3495.4901167270727,left,1,2,0.7223685079952702,B25R08,2022-12-02_10h50.12.291,t1_Paradigm,2021.1.4,60.2672714366191,
S,right,Target,0,47,47,47,3496.9882477336796,3498.9903060003417,right,1,2,0.6464651130954735,B25R08,2022-12-02_10h50.12.291,t1_Paradigm,2021.1.4,60.2672714366191,
C,left,Distractor,0,48,48,48,3500.488526510773,3502.489225538651,left,1,2,0.955374815617688,B25R08,2022-12-02_10h50.12.291,t1_Paradigm,2021.1.4,60.2672714366191,
T,left,Pretarget,0,49,49,49,3503.9885233027453,3505.989936115453,left,1,2,0.7506302158290055,B25R08,2022-12-02_10h50.12.291,t1_Paradigm,2021.1.4,60.2672714366191,
S,left,Lure,0,50,50,50,3507.4884148715937,3509.4901741506474,left,1,2,1.154515964066377,B25R08,2022-12-02_10h50.12.291,t1_Paradigm,2021.1.4,60.2672714366191,
T,right,Target,0,51,51,51,3510.98858072632,3512.9893070224207,right,1,2,0.5991856116452254,B25R08,2022-12-02_10h50.12.291,t1_Paradigm,2021.1.4,60.2672714366191,
N,left,Pretarget,0,52,52,52,3514.488324726204,3516.489779563999,left,1,2,0.9226818675524555,B25R08,2022-12-02_10h50.12.291,t1_Paradigm,2021.1.4,60.2672714366191,
B,left,Distractor,0,53,53,53,3517.9883497487754,3520.0046423280437,left,1,2,0.7038983236707281,B25R08,2022-12-02_10h50.12.291,t1_Paradigm,2021.1.4,60.2672714366191,
N,right,Target,0,54,54,54,3521.488248696085,3523.4904275843583,right,1,2,0.46611142228357494,B25R08,2022-12-02_10h50.12.291,t1_Paradigm,2021.1.4,60.2672714366191,
N,left,Lure,0,55,55,55,3524.988390169834,3526.9881271120685,left,1,2,0.696558691066457,B25R08,2022-12-02_10h50.12.291,t1_Paradigm,2021.1.4,60.2672714366191,
X,left,Distractor,0,56,56,56,3528.4881848564546,3530.5009437999397,left,1,2,0.9756155070499517,B25R08,2022-12-02_10h50.12.291,t1_Paradigm,2021.1.4,60.2672714366191,
W,left,Distractor,0,57,57,57,3531.988568856643,3533.990340326156,left,1,2,0.7184149422100745,B25R08,2022-12-02_10h50.12.291,t1_Paradigm,2021.1.4,60.2672714366191,
S,left,Distractor,0,58,58,58,3535.488529077178,3537.4903355141287,left,1,2,0.6901298158045392,B25R08,2022-12-02_10h50.12.291,t1_Paradigm,2021.1.4,60.2672714366191,
L,left,Distractor,0,59,59,59,3538.988356806425,3540.9897070627194,left,1,2,0.9029551011626609,B25R08,2022-12-02_10h50.12.291,t1_Paradigm,2021.1.4,60.2672714366191,
K,left,Pretarget,0,60,60,60,3542.488449197437,3544.4903942209203,left,1,2,0.6660975636332296,B25R08,2022-12-02_10h50.12.291,t1_Paradigm,2021.1.4,60.2672714366191,
V,left,Pretarget,0,61,61,61,3545.9882089166204,3547.990394541732,left,1,2,0.6702182673616335,B25R08,2022-12-02_10h50.12.291,t1_Paradigm,2021.1.4,60.2672714366191,
K,right,Target,0,62,62,62,3549.4881559842615,3551.4903659903503,right,1,2,0.6901574047806207,B25R08,2022-12-02_10h50.12.291,t1_Paradigm,2021.1.4,60.2672714366191,
V,right,Target,0,63,63,63,3552.987991091941,3554.9897981705144,right,1,2,0.9667549514269922,B25R08,2022-12-02_10h50.12.291,t1_Paradigm,2021.1.4,60.2672714366191,
R,left,Distractor,0,0,0,0,3725.0485604644637,3727.0509462701157,None,0,3,,B25R08,2022-12-02_10h50.12.291,t1_Paradigm,2021.1.4,60.2672714366191,
P,left,Lure,0,1,1,1,3728.5385286601377,3730.540622535831,None,0,3,,B25R08,2022-12-02_10h50.12.291,t1_Paradigm,2021.1.4,60.2672714366191,
V,left,Distractor,0,2,2,2,3732.0386030862282,3734.040570245066,None,0,3,,B25R08,2022-12-02_10h50.12.291,t1_Paradigm,2021.1.4,60.2672714366191,
P,left,Pretarget,0,3,3,3,3735.538408359338,3737.5399790066876,None,0,3,,B25R08,2022-12-02_10h50.12.291,t1_Paradigm,2021.1.4,60.2672714366191,
Z,left,Distractor,0,4,4,4,3739.0383162891085,3741.03945706159,None,0,3,,B25R08,2022-12-02_10h50.12.291,t1_Paradigm,2021.1.4,60.2672714366191,
L,left,Pretarget,0,5,5,5,3742.53829704097,3744.5390284699097,None,0,3,,B25R08,2022-12-02_10h50.12.291,t1_Paradigm,2021.1.4,60.2672714366191,
P,right,Target,0,6,6,6,3746.0382761888322,3748.0397457835206,right,1,3,1.4530271854018793,B25R08,2022-12-02_10h50.12.291,t1_Paradigm,2021.1.4,60.2672714366191,
S,left,Distractor,0,7,7,7,3749.5384420435585,3751.540458605916,None,0,3,,B25R08,2022-12-02_10h50.12.291,t1_Paradigm,2021.1.4,60.2672714366191,
L,right,Target,0,8,8,8,3753.0381950258743,3755.039994405204,right,1,3,1.0448093248123769,B25R08,2022-12-02_10h50.12.291,t1_Paradigm,2021.1.4,60.2672714366191,
D,left,Distractor,0,9,9,9,3756.5383903944166,3758.5402394980483,left,1,3,0.8402562439150643,B25R08,2022-12-02_10h50.12.291,t1_Paradigm,2021.1.4,60.2672714366191,
G,left,Distractor,0,10,10,10,3760.0384773317783,3762.0399697034445,left,1,3,0.7969036817376036,B25R08,2022-12-02_10h50.12.291,t1_Paradigm,2021.1.4,60.2672714366191,
M,left,Pretarget,0,11,11,11,3763.5384798982122,3765.5512847164064,left,1,3,0.7732034598011523,B25R08,2022-12-02_10h50.12.291,t1_Paradigm,2021.1.4,60.2672714366191,
Y,left,Distractor,0,12,12,12,3767.038428569853,3769.0405952676374,left,1,3,0.9802350581448991,B25R08,2022-12-02_10h50.12.291,t1_Paradigm,2021.1.4,60.2672714366191,
V,left,Distractor,0,13,13,13,3770.5383714670897,3772.5399462848727,left,1,3,1.0652870890626218,B25R08,2022-12-02_10h50.12.291,t1_Paradigm,2021.1.4,60.2672714366191,
M,right,Target,0,14,14,14,3774.0384362691257,3776.0401779040403,right,1,3,0.956637492927257,B25R08,2022-12-02_10h50.12.291,t1_Paradigm,2021.1.4,60.2672714366191,
S,left,Pretarget,0,15,15,15,3777.5382835672935,3779.5403934830974,left,1,3,0.9922956153459381,B25R08,2022-12-02_10h50.12.291,t1_Paradigm,2021.1.4,60.2672714366191,
Q,left,Distractor,0,16,16,16,3781.0383079482417,3783.0399879891484,left,1,3,0.9650992914976086,B25R08,2022-12-02_10h50.12.291,t1_Paradigm,2021.1.4,60.2672714366191,
R,left,Pretarget,0,17,17,17,3784.5383554269793,3786.540474966838,left,1,3,0.952208498318214,B25R08,2022-12-02_10h50.12.291,t1_Paradigm,2021.1.4,60.2672714366191,
S,right,Target,0,18,18,18,3788.038294474565,3790.0398972021358,right,1,3,0.9249595628934912,B25R08,2022-12-02_10h50.12.291,t1_Paradigm,2021.1.4,60.2672714366191,
F,left,Distractor,0,19,19,19,3791.538243146206,3793.5400406007248,left,1,3,0.768478043959476,B25R08,2022-12-02_10h50.12.291,t1_Paradigm,2021.1.4,60.2672714366191,
R,right,Target,0,20,20,20,3795.0386576226156,3797.040530786413,right,1,3,0.5160930403217208,B25R08,2022-12-02_10h50.12.291,t1_Paradigm,2021.1.4,60.2672714366191,
P,left,Distractor,0,21,21,21,3798.5383288003795,3800.5398955981364,left,1,3,0.6326324447873048,B25R08,2022-12-02_10h50.12.291,t1_Paradigm,2021.1.4,60.2672714366191,
L,left,Distractor,0,22,22,22,3802.0383653718454,3804.040610024531,left,1,3,0.6520903789496515,B25R08,2022-12-02_10h50.12.291,t1_Paradigm,2021.1.4,60.2672714366191,
R,right,Target,0,23,23,23,3805.5381793065753,3807.5396107258275,right,1,3,0.7369011666451115,B25R08,2022-12-02_10h50.12.291,t1_Paradigm,2021.1.4,60.2672714366191,
H,left,Pretarget,0,24,24,24,3809.038450384396,3811.0394599488063,left,1,3,0.9171929426083807,B25R08,2022-12-02_10h50.12.291,t1_Paradigm,2021.1.4,60.2672714366191,
G,left,Pretarget,0,25,25,25,3812.5381799481984,3814.539750595548,left,1,3,1.129113245086046,B25R08,2022-12-02_10h50.12.291,t1_Paradigm,2021.1.4,60.2672714366191,
T,left,Distractor,0,26,26,26,3816.0381959882798,3818.039410545258,left,1,3,0.8773778658069205,B25R08,2022-12-02_10h50.12.291,t1_Paradigm,2021.1.4,60.2672714366191,
H,right,Target,0,27,27,27,3819.5381517175992,3821.5397339138435,None,0,3,,B25R08,2022-12-02_10h50.12.291,t1_Paradigm,2021.1.4,60.2672714366191,
G,right,Target,0,28,28,28,3823.0382258229074,3825.040037392697,left,0,3,1.4448271614382975,B25R08,2022-12-02_10h50.12.291,t1_Paradigm,2021.1.4,60.2672714366191,
D,left,Distractor,0,29,29,29,3826.5382749056153,3828.540062415268,None,0,3,,B25R08,2022-12-02_10h50.12.291,t1_Paradigm,2021.1.4,60.2672714366191,
N,left,Pretarget,0,30,30,30,3830.0386595474265,3832.0402237787494,left,1,3,1.0684832409897354,B25R08,2022-12-02_10h50.12.291,t1_Paradigm,2021.1.4,60.2672714366191,
V,left,Distractor,0,31,31,31,3833.5383175723255,3835.539975798689,left,1,3,1.2007044173951726,B25R08,2022-12-02_10h50.12.291,t1_Paradigm,2021.1.4,60.2672714366191,
R,left,Distractor,0,32,32,32,3837.0384815022117,3839.040270615864,left,1,3,1.0125934095703997,B25R08,2022-12-02_10h50.12.291,t1_Paradigm,2021.1.4,60.2672714366191,
N,right,Target,0,33,33,33,3840.5382370509615,3842.5400614528626,None,0,3,,B25R08,2022-12-02_10h50.12.291,t1_Paradigm,2021.1.4,60.2672714366191,
Z,left,Distractor,0,34,34,34,3844.0385697228194,3846.040129783709,None,0,3,,B25R08,2022-12-02_10h50.12.291,t1_Paradigm,2021.1.4,60.2672714366191,
N,left,Lure,0,35,35,35,3847.53828645451,3849.5404663051886,right,0,3,0.8964947872736957,B25R08,2022-12-02_10h50.12.291,t1_Paradigm,2021.1.4,60.2672714366191,
Y,left,Pretarget,0,36,36,36,3851.0382514870726,3853.038612710312,left,1,3,0.7582576079876162,B25R08,2022-12-02_10h50.12.291,t1_Paradigm,2021.1.4,60.2672714366191,
Y,left,Lure,0,37,37,37,3854.5385116576217,3856.538314043486,left,1,3,1.1784474843589123,B25R08,2022-12-02_10h50.12.291,t1_Paradigm,2021.1.4,60.2672714366191,
B,left,Distractor,0,38,38,38,3858.0384564796404,3860.040053111996,None,0,3,,B25R08,2022-12-02_10h50.12.291,t1_Paradigm,2021.1.4,60.2672714366191,
Y,right,Target,0,39,39,39,3861.53784374753,3863.5404958189756,right,1,3,1.0563729594578035,B25R08,2022-12-02_10h50.12.291,t1_Paradigm,2021.1.4,60.2672714366191,
J,left,Distractor,0,40,40,40,3865.038553041086,3867.0393191166513,left,1,3,0.8054921971342992,B25R08,2022-12-02_10h50.12.291,t1_Paradigm,2021.1.4,60.2672714366191,
X,left,Distractor,0,41,41,41,3868.5383249507577,3870.539863197104,left,1,3,0.7770518024917692,B25R08,2022-12-02_10h50.12.291,t1_Paradigm,2021.1.4,60.2672714366191,
W,left,Pretarget,0,42,42,42,3872.0386470361263,3874.0390278282866,left,1,3,0.8459742216218729,B25R08,2022-12-02_10h50.12.291,t1_Paradigm,2021.1.4,60.2672714366191,
S,left,Pretarget,0,43,43,43,3875.5385318681656,3877.540481703676,left,1,3,0.7840318158851005,B25R08,2022-12-02_10h50.12.291,t1_Paradigm,2021.1.4,60.2672714366191,
R,left,Distractor,0,44,44,44,3879.0381642288703,3881.0396540341026,left,1,3,0.7732082718284801,B25R08,2022-12-02_10h50.12.291,t1_Paradigm,2021.1.4,60.2672714366191,
W,right,Target,0,45,45,45,3882.5382534118835,3884.540151598252,right,1,3,1.0967407783609815,B25R08,2022-12-02_10h50.12.291,t1_Paradigm,2021.1.4,60.2672714366191,
S,right,Target,0,46,46,46,3886.038542133814,3888.0400922498666,right,1,3,0.7165754626039416,B25R08,2022-12-02_10h50.12.291,t1_Paradigm,2021.1.4,60.2672714366191,
D,left,Distractor,0,47,47,47,3889.5382277477183,3891.5404380745895,left,1,3,0.7840956555155572,B25R08,2022-12-02_10h50.12.291,t1_Paradigm,2021.1.4,60.2672714366191,
T,left,Distractor,0,48,48,48,3893.0387054221355,3895.0392719587253,left,1,3,0.6773917244572658,B25R08,2022-12-02_10h50.12.291,t1_Paradigm,2021.1.4,60.2672714366191,
S,right,Target,0,49,49,49,3896.5386457529094,3898.537841181096,right,1,3,0.9389179856516421,B25R08,2022-12-02_10h50.12.291,t1_Paradigm,2021.1.4,60.2672714366191,
K,left,Distractor,0,50,50,50,3900.0386361288547,3902.0407056236,left,1,3,0.7320233698119409,B25R08,2022-12-02_10h50.12.291,t1_Paradigm,2021.1.4,60.2672714366191,
S,left,Lure,0,51,51,51,3903.5385299433547,3905.5399308863853,right,0,3,0.8166070295264944,B25R08,2022-12-02_10h50.12.291,t1_Paradigm,2021.1.4,60.2672714366191,
T,left,Pretarget,0,52,52,52,3907.0386438280984,3909.0387291614898,None,0,3,,B25R08,2022-12-02_10h50.12.291,t1_Paradigm,2021.1.4,60.2672714366191,
V,left,Distractor,0,53,53,53,3910.5382036875526,3912.539460911212,left,1,3,0.9696116946579423,B25R08,2022-12-02_10h50.12.291,t1_Paradigm,2021.1.4,60.2672714366191,
B,left,Distractor,0,54,54,54,3914.038670454698,3916.0393842394988,left,1,3,1.1333298686658964,B25R08,2022-12-02_10h50.12.291,t1_Paradigm,2021.1.4,60.2672714366191,
T,right,Target,0,55,55,55,3917.5386518481537,3919.5407531023084,right,1,3,0.719945168500999,B25R08,2022-12-02_10h50.12.291,t1_Paradigm,2021.1.4,60.2672714366191,
Y,left,Pretarget,0,56,56,56,3921.038144339138,3923.039483367349,left,1,3,0.7093923814536538,B25R08,2022-12-02_10h50.12.291,t1_Paradigm,2021.1.4,60.2672714366191,
T,left,Lure,0,57,57,57,3924.538318534731,3926.5412307767256,right,0,3,1.2716639302379917,B25R08,2022-12-02_10h50.12.291,t1_Paradigm,2021.1.4,60.2672714366191,
P,left,Pretarget,0,58,58,58,3928.038618484745,3930.0393736530095,left,1,3,0.7013412096712273,B25R08,2022-12-02_10h50.12.291,t1_Paradigm,2021.1.4,60.2672714366191,
Y,right,Target,0,59,59,59,3931.538226785313,3933.5400062748813,right,1,3,1.3129380152677186,B25R08,2022-12-02_10h50.12.291,t1_Paradigm,2021.1.4,60.2672714366191,
R,left,Distractor,0,60,60,60,3935.038420229015,3937.040727438143,left,1,3,0.6282461168593727,B25R08,2022-12-02_10h50.12.291,t1_Paradigm,2021.1.4,60.2672714366191,
P,right,Target,0,61,61,61,3938.5382296725293,3940.5390316779085,left,0,3,1.2898553374689072,B25R08,2022-12-02_10h50.12.291,t1_Paradigm,2021.1.4,60.2672714366191,
L,left,Distractor,0,62,62,62,3942.0384847102396,3944.0398131519905,left,1,3,0.748969102249248,B25R08,2022-12-02_10h50.12.291,t1_Paradigm,2021.1.4,60.2672714366191,
V,left,Distractor,0,63,63,63,3945.538185722631,3947.537923627271,left,1,3,0.9309864730457775,B25R08,2022-12-02_10h50.12.291,t1_Paradigm,2021.1.4,60.2672714366191,
H,left,Lure,0,0,0,0,4038.799467211764,4040.79055500697,None,0,3,,B25R08,2022-12-02_10h50.12.291,t1_Paradigm,2021.1.4,60.2672714366191,
B,left,Distractor,0,1,1,1,4042.288669652684,4044.289259287063,None,0,3,,B25R08,2022-12-02_10h50.12.291,t1_Paradigm,2021.1.4,60.2672714366191,
T,left,Distractor,0,2,2,2,4045.7886994872824,4047.7903541848355,right,0,3,1.4149688212492038,B25R08,2022-12-02_10h50.12.291,t1_Paradigm,2021.1.4,60.2672714366191,
R,left,Distractor,0,3,3,3,4049.288618003542,4051.2902659642277,left,1,3,1.1946143091772683,B25R08,2022-12-02_10h50.12.291,t1_Paradigm,2021.1.4,60.2672714366191,
H,left,Pretarget,0,4,4,4,4052.788255176303,4054.787810865295,right,0,3,1.2332376059493981,B25R08,2022-12-02_10h50.12.291,t1_Paradigm,2021.1.4,60.2672714366191,
K,left,Distractor,0,5,5,5,4056.2885795072652,4058.2905145859113,left,1,3,0.8182867496507242,B25R08,2022-12-02_10h50.12.291,t1_Paradigm,2021.1.4,60.2672714366191,
G,left,Distractor,0,6,6,6,4059.788424880622,4061.78986784874,left,1,3,0.5990890501998365,B25R08,2022-12-02_10h50.12.291,t1_Paradigm,2021.1.4,60.2672714366191,
H,right,Target,0,7,7,7,4063.288623136381,4065.289243567735,right,1,3,1.003557054355042,B25R08,2022-12-02_10h50.12.291,t1_Paradigm,2021.1.4,60.2672714366191,
Y,left,Pretarget,0,8,8,8,4066.7877835971303,4068.789882284851,left,1,3,0.5747744921245612,B25R08,2022-12-02_10h50.12.291,t1_Paradigm,2021.1.4,60.2672714366191,
S,left,Distractor,0,9,9,9,4070.288574053644,4072.2888756076572,left,1,3,0.8518756981357001,B25R08,2022-12-02_10h50.12.291,t1_Paradigm,2021.1.4,60.2672714366191,
P,left,Distractor,0,10,10,10,4073.788252289087,4075.7911587566487,left,1,3,0.6458126014913432,B25R08,2022-12-02_10h50.12.291,t1_Paradigm,2021.1.4,60.2672714366191,
Y,right,Target,0,11,11,11,4077.2883825347526,4079.289146685507,right,1,3,1.1798019110865425,B25R08,2022-12-02_10h50.12.291,t1_Paradigm,2021.1.4,60.2672714366191,
H,left,Lure,0,12,12,12,4080.7886411013023,4082.7904125708155,left,1,3,1.166397513647098,B25R08,2022-12-02_10h50.12.291,t1_Paradigm,2021.1.4,60.2672714366191,
Q,left,Distractor,0,13,13,13,4084.2886587454122,4086.2896009413525,left,1,3,0.5956259908853099,B25R08,2022-12-02_10h50.12.291,t1_Paradigm,2021.1.4,60.2672714366191,
V,left,Pretarget,0,14,14,14,4087.788644309301,4089.7910702152294,left,1,3,0.645900180505123,B25R08,2022-12-02_10h50.12.291,t1_Paradigm,2021.1.4,60.2672714366191,
G,left,Distractor,0,15,15,15,4091.287984419265,4093.289913723449,left,1,3,1.16323440434644,B25R08,2022-12-02_10h50.12.291,t1_Paradigm,2021.1.4,60.2672714366191,
Z,left,Pretarget,0,16,16,16,4094.7886722190888,4096.791125714022,left,1,3,0.7977961533470079,B25R08,2022-12-02_10h50.12.291,t1_Paradigm,2021.1.4,60.2672714366191,
V,right,Target,0,17,17,17,4098.288609021081,4100.2899284803425,right,1,3,0.9315279870934319,B25R08,2022-12-02_10h50.12.291,t1_Paradigm,2021.1.4,60.2672714366191,
N,left,Distractor,0,18,18,18,4101.788625061192,4103.804668377183,left,1,3,0.6001926096214447,B25R08,2022-12-02_10h50.12.291,t1_Paradigm,2021.1.4,60.2672714366191,
Z,right,Target,0,19,19,19,4105.288632118842,4107.289208600298,right,1,3,0.6995456799922977,B25R08,2022-12-02_10h50.12.291,t1_Paradigm,2021.1.4,60.2672714366191,
R,left,Distractor,0,20,20,20,4108.788455356844,4110.789822615654,left,1,3,1.0230076100851875,B25R08,2022-12-02_10h50.12.291,t1_Paradigm,2021.1.4,60.2672714366191,
P,left,Distractor,0,21,21,21,4112.28860164262,4114.2897424151015,left,1,3,0.6593170892156195,B25R08,2022-12-02_10h50.12.291,t1_Paradigm,2021.1.4,60.2672714366191,
Z,right,Target,0,22,22,22,4115.788257421897,4117.790804591059,right,1,3,0.822190591134131,B25R08,2022-12-02_10h50.12.291,t1_Paradigm,2021.1.4,60.2672714366191,
D,left,Pretarget,0,23,23,23,4119.288284048496,4121.2906791574205,left,1,3,0.6982088973745704,B25R08,2022-12-02_10h50.12.291,t1_Paradigm,2021.1.4,60.2672714366191,
K,left,Distractor,0,24,24,24,4122.788595547376,4124.789813312382,left,1,3,0.7350084338977467,B25R08,2022-12-02_10h50.12.291,t1_Paradigm,2021.1.4,60.2672714366191,
W,left,Distractor,0,25,25,25,4126.288505081175,4128.289390815946,left,1,3,0.9797564213513397,B25R08,2022-12-02_10h50.12.291,t1_Paradigm,2021.1.4,60.2672714366191,
D,right,Target,0,26,26,26,4129.788397291646,4131.788893251796,left,0,3,0.6480671990721021,B25R08,2022-12-02_10h50.12.291,t1_Paradigm,2021.1.4,60.2672714366191,
G,left,Pretarget,0,27,27,27,4133.28863179803,4135.290297082043,left,1,3,0.7627173996006604,B25R08,2022-12-02_10h50.12.291,t1_Paradigm,2021.1.4,60.2672714366191,
V,left,Distractor,0,28,28,28,4136.788450544816,4138.790785663732,left,1,3,0.7500226165575441,B25R08,2022-12-02_10h50.12.291,t1_Paradigm,2021.1.4,60.2672714366191,
D,right,Target,0,29,29,29,4140.288642705302,4142.289972751052,right,1,3,0.4508046680712141,B25R08,2022-12-02_10h50.12.291,t1_Paradigm,2021.1.4,60.2672714366191,
G,right,Target,0,30,30,30,4143.7886202491645,4145.790495016961,right,1,3,0.902464594662888,B25R08,2022-12-02_10h50.12.291,t1_Paradigm,2021.1.4,60.2672714366191,
B,left,Pretarget,0,31,31,31,4147.2885573719395,4149.2905553277815,left,1,3,0.6502496161556337,B25R08,2022-12-02_10h50.12.291,t1_Paradigm,2021.1.4,60.2672714366191,
N,left,Distractor,0,32,32,32,4150.788670935901,4152.788613833109,left,1,3,0.7042682085593697,B25R08,2022-12-02_10h50.12.291,t1_Paradigm,2021.1.4,60.2672714366191,
F,left,Distractor,0,33,33,33,4154.288627948408,4156.290573613485,left,1,3,0.5147206487017684,B25R08,2022-12-02_10h50.12.291,t1_Paradigm,2021.1.4,60.2672714366191,
B,right,Target,0,34,34,34,4157.788375156291,4159.789662856172,right,1,3,0.5031451443792321,B25R08,2022-12-02_10h50.12.291,t1_Paradigm,2021.1.4,60.2672714366191,
Q,left,Pretarget,0,35,35,35,4161.288360078586,4163.289172670455,left,1,3,0.5717031322710682,B25R08,2022-12-02_10h50.12.291,t1_Paradigm,2021.1.4,60.2672714366191,
S,left,Pretarget,0,36,36,36,4164.788406594918,4166.790258906578,left,1,3,0.5425178349833004,B25R08,2022-12-02_10h50.12.291,t1_Paradigm,2021.1.4,60.2672714366191,
W,left,Distractor,0,37,37,37,4168.288719697826,4170.288982113998,left,1,3,0.69204917512252,B25R08,2022-12-02_10h50.12.291,t1_Paradigm,2021.1.4,60.2672714366191,
Q,right,Target,0,38,38,38,4171.788606775459,4173.790513623506,right,1,3,0.5022183469263837,B25R08,2022-12-02_10h50.12.291,t1_Paradigm,2021.1.4,60.2672714366191,
S,right,Target,0,39,39,39,4175.288612549892,4177.288952920993,right,1,3,0.4920081766031217,B25R08,2022-12-02_10h50.12.291,t1_Paradigm,2021.1.4,60.2672714366191,
T,left,Distractor,0,40,40,40,4178.788595868187,4180.789655477711,left,1,3,0.4794619249587413,B25R08,2022-12-02_10h50.12.291,t1_Paradigm,2021.1.4,60.2672714366191,
G,left,Distractor,0,41,41,41,4182.288360720209,4184.30120210984,left,1,3,0.7437621623976156,B25R08,2022-12-02_10h50.12.291,t1_Paradigm,2021.1.4,60.2672714366191,
D,left,Distractor,0,42,42,42,4185.7886346852465,4187.788724189042,left,1,3,0.5360687492066063,B25R08,2022-12-02_10h50.12.291,t1_Paradigm,2021.1.4,60.2672714366191,
S,left,Lure,0,43,43,43,4189.288633722841,4191.290779568488,left,1,3,0.8580161722784396,B25R08,2022-12-02_10h50.12.291,t1_Paradigm,2021.1.4,60.2672714366191,
Z,left,Pretarget,0,44,44,44,4192.788330243988,4194.78784198311,left,1,3,0.7209781514538918,B25R08,2022-12-02_10h50.12.291,t1_Paradigm,2021.1.4,60.2672714366191,
J,left,Distractor,0,45,45,45,4196.288651366951,4198.289878435229,left,1,3,0.739047333074268,B25R08,2022-12-02_10h50.12.291,t1_Paradigm,2021.1.4,60.2672714366191,
M,left,Pretarget,0,46,46,46,4199.78857694086,4201.790575217514,left,1,3,0.614268125151284,B25R08,2022-12-02_10h50.12.291,t1_Paradigm,2021.1.4,60.2672714366191,
Z,right,Target,0,47,47,47,4203.2884152565675,4205.29018319727,right,1,3,0.7309082614956424,B25R08,2022-12-02_10h50.12.291,t1_Paradigm,2021.1.4,60.2672714366191,
P,left,Distractor,0,48,48,48,4206.788231757731,4208.790031137061,left,1,3,0.6386317659635097,B25R08,2022-12-02_10h50.12.291,t1_Paradigm,2021.1.4,60.2672714366191,
M,right,Target,0,49,49,49,4210.288549351884,4212.290116791235,right,1,3,0.9153213828103617,B25R08,2022-12-02_10h50.12.291,t1_Paradigm,2021.1.4,60.2672714366191,
K,left,Distractor,0,50,50,50,4213.788623777975,4215.789427708194,left,1,3,0.7274663751304615,B25R08,2022-12-02_10h50.12.291,t1_Paradigm,2021.1.4,60.2672714366191,
Y,left,Distractor,0,51,51,51,4217.288632760436,4219.289937142021,left,1,3,0.5710220692853909,B25R08,2022-12-02_10h50.12.291,t1_Paradigm,2021.1.4,60.2672714366191,
X,left,Distractor,0,52,52,52,4220.7883373016375,4222.789601903758,left,1,3,0.65511105209589,B25R08,2022-12-02_10h50.12.291,t1_Paradigm,2021.1.4,60.2672714366191,
F,left,Pretarget,0,53,53,53,4224.28838028913,4226.288811768027,left,1,3,0.6761746010743082,B25R08,2022-12-02_10h50.12.291,t1_Paradigm,2021.1.4,60.2672714366191,
M,left,Lure,0,54,54,54,4227.788347888127,4229.789464921225,left,1,3,0.7914978445332963,B25R08,2022-12-02_10h50.12.291,t1_Paradigm,2021.1.4,60.2672714366191,
V,left,Distractor,0,55,55,55,4231.2883228655555,4233.28955795386,left,1,3,0.6512630301876925,B25R08,2022-12-02_10h50.12.291,t1_Paradigm,2021.1.4,60.2672714366191,
F,right,Target,0,56,56,56,4234.788387025968,4236.789699106826,left,0,3,0.7031678571656812,B25R08,2022-12-02_10h50.12.291,t1_Paradigm,2021.1.4,60.2672714366191,
S,left,Distractor,0,57,57,57,4238.288566995994,4240.288779687835,left,1,3,0.5643705572874751,B25R08,2022-12-02_10h50.12.291,t1_Paradigm,2021.1.4,60.2672714366191,
D,left,Distractor,0,58,58,58,4241.788645271707,4243.790331728669,left,1,3,0.7106669284694362,B25R08,2022-12-02_10h50.12.291,t1_Paradigm,2021.1.4,60.2672714366191,
F,right,Target,0,59,59,59,4245.288670935901,4247.289321201883,right,1,3,0.5076947605994064,B25R08,2022-12-02_10h50.12.291,t1_Paradigm,2021.1.4,60.2672714366191,
V,left,Pretarget,0,60,60,60,4248.7886334020295,4250.789940670831,left,1,3,0.6227905553241726,B25R08,2022-12-02_10h50.12.291,t1_Paradigm,2021.1.4,60.2672714366191,
J,left,Distractor,0,61,61,61,4252.288673502306,4254.290502074611,left,1,3,0.6585824522480834,B25R08,2022-12-02_10h50.12.291,t1_Paradigm,2021.1.4,60.2672714366191,
V,left,Lure,0,62,62,62,4255.788432900677,4257.789454976359,left,1,3,0.6635256927402224,B25R08,2022-12-02_10h50.12.291,t1_Paradigm,2021.1.4,60.2672714366191,
V,right,Target,0,63,63,63,4259.288605492242,4261.288627948408,right,1,3,0.8126662957947701,B25R08,2022-12-02_10h50.12.291,t1_Paradigm,2021.1.4,60.2672714366191,
R,left,Distractor,0,0,0,0,4369.979689373664,4371.9744773010025,None,0,4,,B25R08,2022-12-02_10h50.12.291,t1_Paradigm,2021.1.4,60.2672714366191,
F,left,Distractor,0,1,1,1,4373.472057490289,4375.47379848361,None,0,4,,B25R08,2022-12-02_10h50.12.291,t1_Paradigm,2021.1.4,60.2672714366191,
P,left,Pretarget,0,2,2,2,4376.971808868635,4378.974081110326,None,0,4,,B25R08,2022-12-02_10h50.12.291,t1_Paradigm,2021.1.4,60.2672714366191,
H,left,Distractor,0,3,3,3,4380.472153410141,4382.472433470422,left,1,4,1.1647601394506637,B25R08,2022-12-02_10h50.12.291,t1_Paradigm,2021.1.4,60.2672714366191,
Z,left,Distractor,0,4,4,4,4383.972226232232,4385.97423413294,left,1,4,0.8629674328258261,B25R08,2022-12-02_10h50.12.291,t1_Paradigm,2021.1.4,60.2672714366191,
T,left,Distractor,0,5,5,5,4387.471981780982,4389.473355455848,left,1,4,0.8195568053924944,B25R08,2022-12-02_10h50.12.291,t1_Paradigm,2021.1.4,60.2672714366191,
P,right,Target,0,6,6,6,4390.972081871267,4392.973655405862,right,1,4,0.8074702632438857,B25R08,2022-12-02_10h50.12.291,t1_Paradigm,2021.1.4,60.2672714366191,
G,left,Distractor,0,7,7,7,4394.471989801037,4396.473203716421,None,0,4,,B25R08,2022-12-02_10h50.12.291,t1_Paradigm,2021.1.4,60.2672714366191,
L,left,Distractor,0,8,8,8,4397.9717463122215,4399.9740207995055,left,1,4,0.7029805086785927,B25R08,2022-12-02_10h50.12.291,t1_Paradigm,2021.1.4,60.2672714366191,
P,left,Lure,0,9,9,9,4401.472248688398,4403.473380157608,left,1,4,1.3155878410907462,B25R08,2022-12-02_10h50.12.291,t1_Paradigm,2021.1.4,60.2672714366191,
Q,left,Pretarget,0,10,10,10,4404.972056207102,4406.9733978017175,left,1,4,0.6798654299345799,B25R08,2022-12-02_10h50.12.291,t1_Paradigm,2021.1.4,60.2672714366191,
D,left,Distractor,0,11,11,11,4408.471708457568,4410.472700698621,left,1,4,0.6202703335729893,B25R08,2022-12-02_10h50.12.291,t1_Paradigm,2021.1.4,60.2672714366191,
M,left,Pretarget,0,12,12,12,4411.972033430153,4413.973902102705,left,1,4,0.6230975630169269,B25R08,2022-12-02_10h50.12.291,t1_Paradigm,2021.1.4,60.2672714366191,
C,left,Distractor,0,13,13,13,4415.4719172997575,4417.474050954916,left,1,4,0.6907502471585758,B25R08,2022-12-02_10h50.12.291,t1_Paradigm,2021.1.4,60.2672714366191,
Q,right,Target,0,14,14,14,4418.971981780982,4420.973391706473,right,1,4,0.8396621183201205,B25R08,2022-12-02_10h50.12.291,t1_Paradigm,2021.1.4,60.2672714366191,
R,left,Distractor,0,15,15,15,4422.472215004149,4424.472239385126,left,1,4,0.7810242956329603,B25R08,2022-12-02_10h50.12.291,t1_Paradigm,2021.1.4,60.2672714366191,
M,right,Target,0,16,16,16,4425.971665470075,4427.973899215489,right,1,4,1.0711587309779134,B25R08,2022-12-02_10h50.12.291,t1_Paradigm,2021.1.4,60.2672714366191,
S,left,Distractor,0,17,17,17,4429.471957720845,4431.473857832025,left,1,4,0.4991575735330116,B25R08,2022-12-02_10h50.12.291,t1_Paradigm,2021.1.4,60.2672714366191,
Z,left,Distractor,0,18,18,18,4432.971789620497,4434.973377911985,left,1,4,1.0798332213889807,B25R08,2022-12-02_10h50.12.291,t1_Paradigm,2021.1.4,60.2672714366191,
L,left,Pretarget,0,19,19,19,4436.472139294841,4438.47372245352,left,1,4,0.8115784556721337,B25R08,2022-12-02_10h50.12.291,t1_Paradigm,2021.1.4,60.2672714366191,
M,right,Target,0,20,20,20,4439.955605793162,4441.9567215430725,right,1,4,0.5762800166558009,B25R08,2022-12-02_10h50.12.291,t1_Paradigm,2021.1.4,60.2672714366191,
P,left,Distractor,0,21,21,21,4443.471968948899,4445.472537089518,left,1,4,0.7404117046389729,B25R08,2022-12-02_10h50.12.291,t1_Paradigm,2021.1.4,60.2672714366191,
F,left,Distractor,0,22,22,22,4446.971748878626,4448.972485440376,left,1,4,0.8246633341768757,B25R08,2022-12-02_10h50.12.291,t1_Paradigm,2021.1.4,60.2672714366191,
L,right,Target,0,23,23,23,4450.472027976502,4452.473668879538,right,1,4,0.6992251986230258,B25R08,2022-12-02_10h50.12.291,t1_Paradigm,2021.1.4,60.2672714366191,
L,left,Lure,0,24,24,24,4453.971783525252,4455.971727705677,left,1,4,0.9934245181502774,B25R08,2022-12-02_10h50.12.291,t1_Paradigm,2021.1.4,60.2672714366191,
V,left,Pretarget,0,25,25,25,4457.471749199438,4459.472128066787,left,1,4,0.7728387077513617,B25R08,2022-12-02_10h50.12.291,t1_Paradigm,2021.1.4,60.2672714366191,
Z,left,Distractor,0,26,26,26,4460.971775505197,4462.974393892422,left,1,4,0.7108398407872301,B25R08,2022-12-02_10h50.12.291,t1_Paradigm,2021.1.4,60.2672714366191,
H,left,Distractor,0,27,27,27,4464.472157580574,4466.473681070027,left,1,4,0.6991709830472246,B25R08,2022-12-02_10h50.12.291,t1_Paradigm,2021.1.4,60.2672714366191,
X,left,Distractor,0,28,28,28,4467.9720430542075,4469.97446960173,left,1,4,0.7186677342979237,B25R08,2022-12-02_10h50.12.291,t1_Paradigm,2021.1.4,60.2672714366191,
V,right,Target,0,29,29,29,4471.472156618169,4473.4735549947945,left,0,4,0.6277251341380179,B25R08,2022-12-02_10h50.12.291,t1_Paradigm,2021.1.4,60.2672714366191,
C,left,Distractor,0,30,30,30,4474.972071284807,4476.973568789283,left,1,4,0.8555549781012814,B25R08,2022-12-02_10h50.12.291,t1_Paradigm,2021.1.4,60.2672714366191,
S,left,Pretarget,0,31,31,31,4478.4721027234045,4480.473654764268,left,1,4,0.6033858743030578,B25R08,2022-12-02_10h50.12.291,t1_Paradigm,2021.1.4,60.2672714366191,
D,left,Distractor,0,32,32,32,4481.971725780866,4483.973579054931,left,1,4,0.559387858142145,B25R08,2022-12-02_10h50.12.291,t1_Paradigm,2021.1.4,60.2672714366191,
V,left,Distractor,0,33,33,33,4485.472111064271,4487.474380097934,right,0,4,0.6586247981176712,B25R08,2022-12-02_10h50.12.291,t1_Paradigm,2021.1.4,60.2672714366191,
R,left,Distractor,0,34,34,34,4488.972008407582,4490.973613701586,left,1,4,0.6635741338250227,B25R08,2022-12-02_10h50.12.291,t1_Paradigm,2021.1.4,60.2672714366191,
S,right,Target,0,35,35,35,4492.471905750892,4494.472537089518,right,1,4,0.7646175108093303,B25R08,2022-12-02_10h50.12.291,t1_Paradigm,2021.1.4,60.2672714366191,
Y,left,Distractor,0,36,36,36,4495.972288467863,4497.973595415853,left,1,4,0.5757539010955952,B25R08,2022-12-02_10h50.12.291,t1_Paradigm,2021.1.4,60.2672714366191,
N,left,Pretarget,0,37,37,37,4499.472076417616,4501.473866493674,left,1,4,0.6431178633647505,B25R08,2022-12-02_10h50.12.291,t1_Paradigm,2021.1.4,60.2672714366191,
Z,left,Pretarget,0,38,38,38,4502.972145390086,4504.973809711693,left,1,4,0.6474512589338701,B25R08,2022-12-02_10h50.12.291,t1_Paradigm,2021.1.4,60.2672714366191,
P,left,Pretarget,0,39,39,39,4506.472096307378,4508.472346533061,left,1,4,0.7649485786096193,B25R08,2022-12-02_10h50.12.291,t1_Paradigm,2021.1.4,60.2672714366191,
M,left,Distractor,0,40,40,40,4509.971945530357,4511.973933541332,left,1,4,0.7670193565718364,B25R08,2022-12-02_10h50.12.291,t1_Paradigm,2021.1.4,60.2672714366191,
N,right,Target,0,41,41,41,4513.471902542864,4515.473457791726,left,0,4,0.5155573007068597,B25R08,2022-12-02_10h50.12.291,t1_Paradigm,2021.1.4,60.2672714366191,
Z,right,Target,0,42,42,42,4516.972177791118,4518.97287938543,right,1,4,0.8243133390205912,B25R08,2022-12-02_10h50.12.291,t1_Paradigm,2021.1.4,60.2672714366191,
P,right,Target,0,43,43,43,4520.472036638152,4522.472129991598,right,1,4,0.46087272305157967,B25R08,2022-12-02_10h50.12.291,t1_Paradigm,2021.1.4,60.2672714366191,
X,left,Pretarget,0,44,44,44,4523.971921149379,4525.974448749592,left,1,4,0.510640045220498,B25R08,2022-12-02_10h50.12.291,t1_Paradigm,2021.1.4,60.2672714366191,
Z,left,Lure,0,45,45,45,4527.4721046482155,4529.473170994606,left,1,4,1.0120608779834583,B25R08,2022-12-02_10h50.12.291,t1_Paradigm,2021.1.4,60.2672714366191,
R,left,Pretarget,0,46,46,46,4530.972070322401,4532.972863666131,left,1,4,0.7601147316745482,B25R08,2022-12-02_10h50.12.291,t1_Paradigm,2021.1.4,60.2672714366191,
K,left,Distractor,0,47,47,47,4534.471783525252,4536.474041651672,left,1,4,0.6190528893785086,B25R08,2022-12-02_10h50.12.291,t1_Paradigm,2021.1.4,60.2672714366191,
X,right,Target,0,48,48,48,4537.9721184427035,4539.974113190547,right,1,4,0.7029564485128503,B25R08,2022-12-02_10h50.12.291,t1_Paradigm,2021.1.4,60.2672714366191,
B,left,Distractor,0,49,49,49,4541.472065189562,4543.473393631284,left,1,4,0.5958277754543815,B25R08,2022-12-02_10h50.12.291,t1_Paradigm,2021.1.4,60.2672714366191,
R,right,Target,0,50,50,50,4544.971919224568,4546.974106774491,right,1,4,0.5669709795911331,B25R08,2022-12-02_10h50.12.291,t1_Paradigm,2021.1.4,60.2672714366191,
Y,left,Pretarget,0,51,51,51,4548.472056207102,4550.4734462428605,left,1,4,0.6036110774439294,B25R08,2022-12-02_10h50.12.291,t1_Paradigm,2021.1.4,60.2672714366191,
W,left,Pretarget,0,52,52,52,4551.9720109739865,4553.973490834353,left,1,4,0.8320796384941787,B25R08,2022-12-02_10h50.12.291,t1_Paradigm,2021.1.4,60.2672714366191,
Z,left,Distractor,0,53,53,53,4555.472172658279,4557.4740082882345,left,1,4,0.690906798641663,B25R08,2022-12-02_10h50.12.291,t1_Paradigm,2021.1.4,60.2672714366191,
Q,left,Distractor,0,54,54,54,4558.972139615653,4560.972694282595,left,1,4,0.6645711869641673,B25R08,2022-12-02_10h50.12.291,t1_Paradigm,2021.1.4,60.2672714366191,
Y,right,Target,0,55,55,55,4562.47205235748,4564.473873551324,right,1,4,0.6830391256662551,B25R08,2022-12-02_10h50.12.291,t1_Paradigm,2021.1.4,60.2672714366191,
W,right,Target,0,56,56,56,4565.971821379906,4567.973767045012,right,1,4,0.8474964278575499,B25R08,2022-12-02_10h50.12.291,t1_Paradigm,2021.1.4,60.2672714366191,
H,left,Pretarget,0,57,57,57,4569.472196718445,4571.47387290973,left,1,4,0.6113879633776378,B25R08,2022-12-02_10h50.12.291,t1_Paradigm,2021.1.4,60.2672714366191,
M,left,Distractor,0,58,58,58,4572.971896126808,4574.972953169927,left,1,4,0.7123325332358945,B25R08,2022-12-02_10h50.12.291,t1_Paradigm,2021.1.4,60.2672714366191,
R,left,Pretarget,0,59,59,59,4576.471847364883,4578.472588097065,left,1,4,0.572595924633788,B25R08,2022-12-02_10h50.12.291,t1_Paradigm,2021.1.4,60.2672714366191,
J,left,Distractor,0,60,60,60,4579.972098232189,4581.973936107737,left,1,4,0.6392778615118004,B25R08,2022-12-02_10h50.12.291,t1_Paradigm,2021.1.4,60.2672714366191,
H,right,Target,0,61,61,61,4583.472065189562,4585.474004438613,right,1,4,0.9632418469700497,B25R08,2022-12-02_10h50.12.291,t1_Paradigm,2021.1.4,60.2672714366191,
Z,left,Distractor,0,62,62,62,4586.9718682170205,4588.973154312873,left,1,4,0.6158740607788786,B25R08,2022-12-02_10h50.12.291,t1_Paradigm,2021.1.4,60.2672714366191,
R,right,Target,0,63,63,63,4590.47197440255,4592.473059676238,right,1,4,0.7802139493869618,B25R08,2022-12-02_10h50.12.291,t1_Paradigm,2021.1.4,60.2672714366191,
J,left,Pretarget,0,0,0,0,4602.031286230573,4604.023515119072,right,0,4,0.9576865159615409,B25R08,2022-12-02_10h50.12.291,t1_Paradigm,2021.1.4,60.2672714366191,
G,left,Pretarget,0,1,1,1,4605.522038466734,4607.522290938039,None,0,4,,B25R08,2022-12-02_10h50.12.291,t1_Paradigm,2021.1.4,60.2672714366191,
Z,left,Distractor,0,2,2,2,4609.021929073206,4611.024009154411,None,0,4,,B25R08,2022-12-02_10h50.12.291,t1_Paradigm,2021.1.4,60.2672714366191,
F,left,Distractor,0,3,3,3,4612.52213695299,4614.5235876203515,None,0,4,,B25R08,2022-12-02_10h50.12.291,t1_Paradigm,2021.1.4,60.2672714366191,
J,right,Target,0,4,4,4,4616.022031088272,4618.0227615548065,right,1,4,0.9424589998670854,B25R08,2022-12-02_10h50.12.291,t1_Paradigm,2021.1.4,60.2672714366191,
G,right,Target,0,5,5,5,4619.52181647165,4621.524142928887,right,1,4,0.624865182879148,B25R08,2022-12-02_10h50.12.291,t1_Paradigm,2021.1.4,60.2672714366191,
H,left,Distractor,0,6,6,6,4623.021941263694,4625.024041555414,left,1,4,1.0132600364740938,B25R08,2022-12-02_10h50.12.291,t1_Paradigm,2021.1.4,60.2672714366191,
P,left,Distractor,0,7,7,7,4626.522200471838,4628.534789069352,right,0,4,0.7346099975984544,B25R08,2022-12-02_10h50.12.291,t1_Paradigm,2021.1.4,60.2672714366191,
G,left,Lure,0,8,8,8,4630.022067659738,4632.024653966742,left,1,4,1.2286308869661298,B25R08,2022-12-02_10h50.12.291,t1_Paradigm,2021.1.4,60.2672714366191,
S,left,Distractor,0,9,9,9,4633.522048732411,4635.522176090861,left,1,4,0.8507981236907654,B25R08,2022-12-02_10h50.12.291,t1_Paradigm,2021.1.4,60.2672714366191,
R,left,Pretarget,0,10,10,10,4637.0218248124875,4639.023611359735,left,1,4,0.9174406018573791,B25R08,2022-12-02_10h50.12.291,t1_Paradigm,2021.1.4,60.2672714366191,
T,left,Pretarget,0,11,11,11,4640.5221510682895,4642.523973224568,left,1,4,0.8570197607623413,B25R08,2022-12-02_10h50.12.291,t1_Paradigm,2021.1.4,60.2672714366191,
X,left,Distractor,0,12,12,12,4644.022112892824,4646.024561896513,left,1,4,0.5566363380348776,B25R08,2022-12-02_10h50.12.291,t1_Paradigm,2021.1.4,60.2672714366191,
F,left,Pretarget,0,13,13,13,4647.522150105884,4649.524418818764,left,1,4,0.5448321017611306,B25R08,2022-12-02_10h50.12.291,t1_Paradigm,2021.1.4,60.2672714366191,
R,right,Target,0,14,14,14,4651.0220410331385,4653.022903990961,right,1,4,0.5181776127719786,B25R08,2022-12-02_10h50.12.291,t1_Paradigm,2021.1.4,60.2672714366191,
T,right,Target,0,15,15,15,4654.522106797609,4656.522316923016,right,1,4,0.8268082174181473,B25R08,2022-12-02_10h50.12.291,t1_Paradigm,2021.1.4,60.2672714366191,
C,left,Distractor,0,16,16,16,4658.0221039103635,4660.027789487038,left,1,4,0.6493144778651185,B25R08,2022-12-02_10h50.12.291,t1_Paradigm,2021.1.4,60.2672714366191,
F,right,Target,0,17,17,17,4661.521828982921,4663.522593775269,right,1,4,0.946681397879729,B25R08,2022-12-02_10h50.12.291,t1_Paradigm,2021.1.4,60.2672714366191,
M,left,Distractor,0,18,18,18,4665.022077283793,4667.023711770802,left,1,4,0.757513988588471,B25R08,2022-12-02_10h50.12.291,t1_Paradigm,2021.1.4,60.2672714366191,
N,left,Distractor,0,19,19,19,4668.522047128383,4670.523553294537,left,1,4,0.6980847469531,B25R08,2022-12-02_10h50.12.291,t1_Paradigm,2021.1.4,60.2672714366191,
R,left,Lure,0,20,20,20,4672.021922015556,4674.024092242151,left,1,4,0.5891656769963447,B25R08,2022-12-02_10h50.12.291,t1_Paradigm,2021.1.4,60.2672714366191,
F,right,Target,0,21,21,21,4675.5220342963,4677.523393855867,right,1,4,0.7376284251513425,B25R08,2022-12-02_10h50.12.291,t1_Paradigm,2021.1.4,60.2672714366191,
P,left,Distractor,0,22,22,22,4679.022019539407,4681.02282411122,left,1,4,0.5342671242833603,B25R08,2022-12-02_10h50.12.291,t1_Paradigm,2021.1.4,60.2672714366191,
L,left,Pretarget,0,23,23,23,4682.522153313912,4684.523975149379,left,1,4,0.6490802922926378,B25R08,2022-12-02_10h50.12.291,t1_Paradigm,2021.1.4,60.2672714366191,
T,left,Distractor,0,24,24,24,4686.022274577117,4688.021791769861,left,1,4,0.6554414783022366,B25R08,2022-12-02_10h50.12.291,t1_Paradigm,2021.1.4,60.2672714366191,
F,left,Distractor,0,25,25,25,4689.52184470222,4691.52224506333,right,0,4,0.7227752851613332,B25R08,2022-12-02_10h50.12.291,t1_Paradigm,2021.1.4,60.2672714366191,
V,left,Distractor,0,26,26,26,4693.022059960465,4695.022560091049,left,1,4,0.5505074127577245,B25R08,2022-12-02_10h50.12.291,t1_Paradigm,2021.1.4,60.2672714366191,
L,right,Target,0,27,27,27,4696.521978797537,4698.522657935711,right,1,4,0.6985441356373485,B25R08,2022-12-02_10h50.12.291,t1_Paradigm,2021.1.4,60.2672714366191,
S,left,Pretarget,0,28,28,28,4700.02226976509,4702.022457434359,left,1,4,0.5266920228605159,B25R08,2022-12-02_10h50.12.291,t1_Paradigm,2021.1.4,60.2672714366191,
W,left,Distractor,0,29,29,29,4703.521882236091,4705.523617134168,left,1,4,0.7214840564702172,B25R08,2022-12-02_10h50.12.291,t1_Paradigm,2021.1.4,60.2672714366191,
Q,left,Distractor,0,30,30,30,4707.022186998132,4709.023905856098,left,1,4,0.7413956048840191,B25R08,2022-12-02_10h50.12.291,t1_Paradigm,2021.1.4,60.2672714366191,
L,right,Target,0,31,31,31,4710.521986175969,4712.523724923696,right,1,4,0.6652259441907518,B25R08,2022-12-02_10h50.12.291,t1_Paradigm,2021.1.4,60.2672714366191,
S,right,Target,0,32,32,32,4714.022143689857,4716.023227680329,right,1,4,0.7178824106231332,B25R08,2022-12-02_10h50.12.291,t1_Paradigm,2021.1.4,60.2672714366191,
Z,left,Pretarget,0,33,33,33,4717.522022747435,4719.523891420016,left,1,4,0.5134499513369519,B25R08,2022-12-02_10h50.12.291,t1_Paradigm,2021.1.4,60.2672714366191,
F,left,Distractor,0,34,34,34,4721.022343870398,4723.023656272038,left,1,4,1.013838442740962,B25R08,2022-12-02_10h50.12.291,t1_Paradigm,2021.1.4,60.2672714366191,
V,left,Distractor,0,35,35,35,4724.522104231175,4726.53474993151,left,1,4,0.6224934925267007,B25R08,2022-12-02_10h50.12.291,t1_Paradigm,2021.1.4,60.2672714366191,
M,left,Distractor,0,36,36,36,4728.021142145502,4730.024087750935,left,1,4,0.5728923458373174,B25R08,2022-12-02_10h50.12.291,t1_Paradigm,2021.1.4,60.2672714366191,
Z,right,Target,0,37,37,37,4731.522054506844,4733.523594357219,right,1,4,0.8175174660573248,B25R08,2022-12-02_10h50.12.291,t1_Paradigm,2021.1.4,60.2672714366191,
H,left,Pretarget,0,38,38,38,4735.022077604604,4737.022337775154,left,1,4,0.822865558846388,B25R08,2022-12-02_10h50.12.291,t1_Paradigm,2021.1.4,60.2672714366191,
L,left,Distractor,0,39,39,39,4738.522299278877,4740.522343870398,left,1,4,0.8426706009777263,B25R08,2022-12-02_10h50.12.291,t1_Paradigm,2021.1.4,60.2672714366191,
G,left,Distractor,0,40,40,40,4742.022236722463,4744.023578317108,left,1,4,0.6855513273912948,B25R08,2022-12-02_10h50.12.291,t1_Paradigm,2021.1.4,60.2672714366191,
K,left,Distractor,0,41,41,41,4745.52214946429,4747.523183730431,left,1,4,0.625877313723322,B25R08,2022-12-02_10h50.12.291,t1_Paradigm,2021.1.4,60.2672714366191,
H,right,Target,0,42,42,42,4749.022164221184,4751.022726266558,right,1,4,0.6625860632047988,B25R08,2022-12-02_10h50.12.291,t1_Paradigm,2021.1.4,60.2672714366191,
B,left,Distractor,0,43,43,43,4752.521925544366,4754.521386596753,left,1,4,0.571824395476142,B25R08,2022-12-02_10h50.12.291,t1_Paradigm,2021.1.4,60.2672714366191,
Z,left,Distractor,0,44,44,44,4756.022107118391,4758.034711756045,left,1,4,0.6904490139568225,B25R08,2022-12-02_10h50.12.291,t1_Paradigm,2021.1.4,60.2672714366191,
T,left,Pretarget,0,45,45,45,4759.5220573940605,4761.52359275319,left,1,4,0.6414538625394925,B25R08,2022-12-02_10h50.12.291,t1_Paradigm,2021.1.4,60.2672714366191,
H,right,Target,0,46,46,46,4763.021999970486,4765.023578637891,right,1,4,0.6297888544213492,B25R08,2022-12-02_10h50.12.291,t1_Paradigm,2021.1.4,60.2672714366191,
F,left,Distractor,0,47,47,47,4766.521834436571,4768.523767269566,left,1,4,0.6174036454758607,B25R08,2022-12-02_10h50.12.291,t1_Paradigm,2021.1.4,60.2672714366191,
R,left,Distractor,0,48,48,48,4770.0218706871965,4772.021251218248,left,1,4,0.8004029916774016,B25R08,2022-12-02_10h50.12.291,t1_Paradigm,2021.1.4,60.2672714366191,
T,right,Target,0,49,49,49,4773.521838286193,4775.524266116932,right,1,4,0.8008809869061224,B25R08,2022-12-02_10h50.12.291,t1_Paradigm,2021.1.4,60.2672714366191,
H,right,Target,0,50,50,50,4777.021968531859,4779.023508703045,right,1,4,0.5174522790475748,B25R08,2022-12-02_10h50.12.291,t1_Paradigm,2021.1.4,60.2672714366191,
Y,left,Pretarget,0,51,51,51,4780.521909183473,4782.524326748535,left,1,4,0.584821374155581,B25R08,2022-12-02_10h50.12.291,t1_Paradigm,2021.1.4,60.2672714366191,
H,left,Distractor,0,52,52,52,4784.022319810232,4786.026115862187,left,1,4,0.9232500081707258,B25R08,2022-12-02_10h50.12.291,t1_Paradigm,2021.1.4,60.2672714366191,
S,left,Distractor,0,53,53,53,4787.521988100809,4789.5240271193325,left,1,4,0.625253674283158,B25R08,2022-12-02_10h50.12.291,t1_Paradigm,2021.1.4,60.2672714366191,
Q,left,Distractor,0,54,54,54,4791.021803639567,4793.022849454603,left,1,4,0.5986716866027564,B25R08,2022-12-02_10h50.12.291,t1_Paradigm,2021.1.4,60.2672714366191,
Y,right,Target,0,55,55,55,4794.521826416516,4796.523754437483,left,0,4,0.6333173573948443,B25R08,2022-12-02_10h50.12.291,t1_Paradigm,2021.1.4,60.2672714366191,
R,left,Distractor,0,56,56,56,4798.022133744962,4800.024195219652,left,1,4,1.4052440245868638,B25R08,2022-12-02_10h50.12.291,t1_Paradigm,2021.1.4,60.2672714366191,
H,left,Pretarget,0,57,57,57,4801.522046486789,4803.523982848623,right,0,4,0.609230248053791,B25R08,2022-12-02_10h50.12.291,t1_Paradigm,2021.1.4,60.2672714366191,
J,left,Distractor,0,58,58,58,4805.021859779925,4807.023671028932,left,1,4,0.6781247573962901,B25R08,2022-12-02_10h50.12.291,t1_Paradigm,2021.1.4,60.2672714366191,
V,left,Distractor,0,59,59,59,4808.522194055782,4810.523423690465,left,1,4,0.8736360294278711,B25R08,2022-12-02_10h50.12.291,t1_Paradigm,2021.1.4,60.2672714366191,
Y,left,Lure,0,60,60,60,4812.021811338811,4814.03479933503,left,1,4,0.594304285972612,B25R08,2022-12-02_10h50.12.291,t1_Paradigm,2021.1.4,60.2672714366191,
H,right,Target,0,61,61,61,4815.522202717431,4817.523840091657,right,1,4,0.881637797690928,B25R08,2022-12-02_10h50.12.291,t1_Paradigm,2021.1.4,60.2672714366191,
L,left,Distractor,0,62,62,62,4819.021291318495,4821.023693164287,left,1,4,0.6297795511782169,B25R08,2022-12-02_10h50.12.291,t1_Paradigm,2021.1.4,60.2672714366191,
P,left,Distractor,0,63,63,63,4822.52188736893,4824.521656070574,left,1,4,0.6995055797160603,B25R08,2022-12-02_10h50.12.291,t1_Paradigm,2021.1.4,60.2672714366191,
