Letter,CorrAnswer,Stimulus,nback_run.thisRepN,nback_run.thisTrialN,nback_run.thisN,nback_run.thisIndex,fixcross.started,nback_trial.started,trial_resp.keys,trial_resp.corr,currentlevel,trial_resp.rt,Participant,date,expName,psychopyVersion,frameRate,
H,left,Distractor,0,0,0,0,32.96570307412185,34.92166756646475,None,0,1,,B27T02,2022-10-12_09h19.12.749,t1_Paradigm,2021.1.4,59.9856251001476,
Q,left,Pretarget,0,1,1,1,36.42173092486337,38.42255891440436,None,0,1,,B27T02,2022-10-12_09h19.12.749,t1_Paradigm,2021.1.4,59.9856251001476,
Q,right,Target,0,2,2,2,39.91845633997582,41.91957208880922,right,1,1,0.5717754040961154,B27T02,2022-10-12_09h19.12.749,t1_Paradigm,2021.1.4,59.9856251001476,
T,left,Distractor,0,3,3,3,43.4192107054987,45.41841832495993,None,0,1,,B27T02,2022-10-12_09h19.12.749,t1_Paradigm,2021.1.4,59.9856251001476,
Q,left,Lure,0,4,4,4,46.91842875099974,48.921132789808325,None,0,1,,B27T02,2022-10-12_09h19.12.749,t1_Paradigm,2021.1.4,59.9856251001476,
L,left,Distractor,0,5,5,5,50.4192107054987,52.421760117809754,None,0,1,,B27T02,2022-10-12_09h19.12.749,t1_Paradigm,2021.1.4,59.9856251001476,
V,left,Pretarget,0,6,6,6,53.91838897159323,55.92190495983232,None,0,1,,B27T02,2022-10-12_09h19.12.749,t1_Paradigm,2021.1.4,59.9856251001476,
V,right,Target,0,7,7,7,57.4193457631045,59.41927326185396,None,0,1,,B27T02,2022-10-12_09h19.12.749,t1_Paradigm,2021.1.4,59.9856251001476,
K,left,Distractor,0,8,8,8,60.91918359778356,62.921551757026464,left,1,1,0.8337822955218144,B27T02,2022-10-12_09h19.12.749,t1_Paradigm,2021.1.4,59.9856251001476,
G,left,Pretarget,0,9,9,9,64.41908751759911,66.4215772607713,left,1,1,0.6779508717590943,B27T02,2022-10-12_09h19.12.749,t1_Paradigm,2021.1.4,59.9856251001476,
G,right,Target,0,10,10,10,67.9192150363233,69.91922177316155,right,1,1,0.9081634126487188,B27T02,2022-10-12_09h19.12.749,t1_Paradigm,2021.1.4,59.9856251001476,
G,right,Target,0,11,11,11,71.41930341726402,73.4191799085238,right,1,1,0.4803058139514178,B27T02,2022-10-12_09h19.12.749,t1_Paradigm,2021.1.4,59.9856251001476,
P,left,Pretarget,0,12,12,12,74.91917140729493,76.92157645878615,left,1,1,0.5619386569596827,B27T02,2022-10-12_09h19.12.749,t1_Paradigm,2021.1.4,59.9856251001476,
P,right,Target,0,13,13,13,78.41826947289519,80.41941505629802,left,0,1,0.4559065875946544,B27T02,2022-10-12_09h19.12.749,t1_Paradigm,2021.1.4,59.9856251001476,
G,left,Lure,0,14,14,14,81.91920027945889,83.9185134426807,left,1,1,0.4768430788535625,B27T02,2022-10-12_09h19.12.749,t1_Paradigm,2021.1.4,59.9856251001476,
Y,left,Distractor,0,15,15,15,85.41924406890757,87.42152817809256,left,1,1,0.47797647170955315,B27T02,2022-10-12_09h19.12.749,t1_Paradigm,2021.1.4,59.9856251001476,
B,left,Distractor,0,16,16,16,88.91846949286992,90.9215228848625,right,0,1,0.46569746010936797,B27T02,2022-10-12_09h19.12.749,t1_Paradigm,2021.1.4,59.9856251001476,
T,left,Pretarget,0,17,17,17,92.41923444485292,94.42110054922523,left,1,1,1.0943709220155142,B27T02,2022-10-12_09h19.12.749,t1_Paradigm,2021.1.4,59.9856251001476,
T,right,Target,0,18,18,18,95.91914510156494,97.91909633966861,right,1,1,0.5243092413875274,B27T02,2022-10-12_09h19.12.749,t1_Paradigm,2021.1.4,59.9856251001476,
S,left,Distractor,0,19,19,19,99.41930951247923,101.42225030303234,left,1,1,0.6850438006804325,B27T02,2022-10-12_09h19.12.749,t1_Paradigm,2021.1.4,59.9856251001476,
T,left,Lure,0,20,20,20,102.91949349234346,104.91838544275379,left,1,1,0.9971766229136847,B27T02,2022-10-12_09h19.12.749,t1_Paradigm,2021.1.4,59.9856251001476,
J,left,Distractor,0,21,21,21,106.41924984334037,108.42172226321418,left,1,1,0.6457439699443057,B27T02,2022-10-12_09h19.12.749,t1_Paradigm,2021.1.4,59.9856251001476,
P,left,Distractor,0,22,22,22,109.9194059134461,111.92125597770792,left,1,1,0.9381253430619836,B27T02,2022-10-12_09h19.12.749,t1_Paradigm,2021.1.4,59.9856251001476,
F,left,Distractor,0,23,23,23,113.4192796779098,115.4214672257076,left,1,1,0.5739597438368946,B27T02,2022-10-12_09h19.12.749,t1_Paradigm,2021.1.4,59.9856251001476,
L,left,Distractor,0,24,24,24,116.91918808897026,118.92088737641461,left,1,1,0.530653098016046,B27T02,2022-10-12_09h19.12.749,t1_Paradigm,2021.1.4,59.9856251001476,
W,left,Pretarget,0,25,25,25,120.41905575821875,122.42120352661004,left,1,1,0.5340699585503899,B27T02,2022-10-12_09h19.12.749,t1_Paradigm,2021.1.4,59.9856251001476,
W,right,Target,0,26,26,26,123.9192355676787,125.91913996869698,right,1,1,0.46025249030208215,B27T02,2022-10-12_09h19.12.749,t1_Paradigm,2021.1.4,59.9856251001476,
V,left,Distractor,0,27,27,27,127.41919979825616,129.43597003578907,left,1,1,0.4475221104803495,B27T02,2022-10-12_09h19.12.749,t1_Paradigm,2021.1.4,59.9856251001476,
W,left,Lure,0,28,28,28,130.91906265547732,132.92093934630975,left,1,1,0.41833138768561184,B27T02,2022-10-12_09h19.12.749,t1_Paradigm,2021.1.4,59.9856251001476,
R,left,Pretarget,0,29,29,29,134.41923604888143,136.42231221782276,left,1,1,0.7089801099500619,B27T02,2022-10-12_09h19.12.749,t1_Paradigm,2021.1.4,59.9856251001476,
R,right,Target,0,30,30,30,137.91915857524145,139.91920541226864,right,1,1,0.7642116021597758,B27T02,2022-10-12_09h19.12.749,t1_Paradigm,2021.1.4,59.9856251001476,
G,left,Distractor,0,31,31,31,141.4192033270956,143.42107328108978,left,1,1,0.6063302545808256,B27T02,2022-10-12_09h19.12.749,t1_Paradigm,2021.1.4,59.9856251001476,
R,left,Lure,0,32,32,32,144.9191242494271,146.91836908186087,left,1,1,0.5175021469476633,B27T02,2022-10-12_09h19.12.749,t1_Paradigm,2021.1.4,59.9856251001476,
S,left,Distractor,0,33,33,33,148.4191269762232,150.42156025825534,left,1,1,0.45374438317958266,B27T02,2022-10-12_09h19.12.749,t1_Paradigm,2021.1.4,59.9856251001476,
R,left,Lure,0,34,34,34,151.91918905137572,153.9215139024309,left,1,1,0.6497398777864873,B27T02,2022-10-12_09h19.12.749,t1_Paradigm,2021.1.4,59.9856251001476,
P,left,Pretarget,0,35,35,35,155.41922321676975,157.4209593964042,left,1,1,0.734288488747552,B27T02,2022-10-12_09h19.12.749,t1_Paradigm,2021.1.4,59.9856251001476,
P,right,Target,0,36,36,36,158.91913515666965,160.91910692612873,right,1,1,0.5163094056770205,B27T02,2022-10-12_09h19.12.749,t1_Paradigm,2021.1.4,59.9856251001476,
Y,left,Pretarget,0,37,37,37,162.4189845402143,164.4206129303784,left,1,1,0.6468472075066529,B27T02,2022-10-12_09h19.12.749,t1_Paradigm,2021.1.4,59.9856251001476,
Y,right,Target,0,38,38,38,165.91908960283035,167.9192297932459,right,1,1,0.45998109196079895,B27T02,2022-10-12_09h19.12.749,t1_Paradigm,2021.1.4,59.9856251001476,
J,left,Distractor,0,39,39,39,169.41896368807647,171.42119486496085,left,1,1,0.6700953968102112,B27T02,2022-10-12_09h19.12.749,t1_Paradigm,2021.1.4,59.9856251001476,
Y,left,Lure,0,40,40,40,172.91902030963684,174.92101537634153,left,1,1,0.8502545081428252,B27T02,2022-10-12_09h19.12.749,t1_Paradigm,2021.1.4,59.9856251001476,
T,left,Distractor,0,41,41,41,176.4192459937185,178.4208461533417,left,1,1,0.5504247576463968,B27T02,2022-10-12_09h19.12.749,t1_Paradigm,2021.1.4,59.9856251001476,
V,left,Distractor,0,42,42,42,179.91928882076172,181.92094095028006,left,1,1,0.5863349960418418,B27T02,2022-10-12_09h19.12.749,t1_Paradigm,2021.1.4,59.9856251001476,
N,left,Pretarget,0,43,43,43,183.41907532711048,185.4185986155644,left,1,1,0.5448139333166182,B27T02,2022-10-12_09h19.12.749,t1_Paradigm,2021.1.4,59.9856251001476,
N,right,Target,0,44,44,44,186.91912521183258,188.91924390848726,right,1,1,0.8039794827927835,B27T02,2022-10-12_09h19.12.749,t1_Paradigm,2021.1.4,59.9856251001476,
N,right,Target,0,45,45,45,190.41907949757297,192.41918760776753,right,1,1,0.5840367715572938,B27T02,2022-10-12_09h19.12.749,t1_Paradigm,2021.1.4,59.9856251001476,
X,left,Distractor,0,46,46,46,193.91919546743156,195.92196879943367,left,1,1,0.4092161238659173,B27T02,2022-10-12_09h19.12.749,t1_Paradigm,2021.1.4,59.9856251001476,
Z,left,Distractor,0,47,47,47,197.41901918681106,199.42134884983534,left,1,1,0.5259270452079363,B27T02,2022-10-12_09h19.12.749,t1_Paradigm,2021.1.4,59.9856251001476,
H,left,Pretarget,0,48,48,48,200.9190668258816,202.92137884482509,left,1,1,0.513893446943257,B27T02,2022-10-12_09h19.12.749,t1_Paradigm,2021.1.4,59.9856251001476,
H,right,Target,0,49,49,49,204.41912505141227,206.419229953608,right,1,1,0.7761191253084689,B27T02,2022-10-12_09h19.12.749,t1_Paradigm,2021.1.4,59.9856251001476,
K,left,Distractor,0,50,50,50,207.91915440477896,209.9209223437938,left,1,1,0.4583251127623953,B27T02,2022-10-12_09h19.12.749,t1_Paradigm,2021.1.4,59.9856251001476,
V,left,Pretarget,0,51,51,51,211.41901084594429,213.4209709452698,left,1,1,0.5584184981998987,B27T02,2022-10-12_09h19.12.749,t1_Paradigm,2021.1.4,59.9856251001476,
V,right,Target,0,52,52,52,214.91916306642815,216.91911462537246,right,1,1,0.8681225296459161,B27T02,2022-10-12_09h19.12.749,t1_Paradigm,2021.1.4,59.9856251001476,
R,left,Distractor,0,53,53,53,218.41828455060022,220.42174279451137,left,1,1,0.533465567859821,B27T02,2022-10-12_09h19.12.749,t1_Paradigm,2021.1.4,59.9856251001476,
V,left,Lure,0,54,54,54,221.91832449042704,223.9214288899093,left,1,1,0.4578551380545832,B27T02,2022-10-12_09h19.12.749,t1_Paradigm,2021.1.4,59.9856251001476,
Y,left,Distractor,0,55,55,55,225.41915424441686,227.43196129589342,left,1,1,0.48368578229565173,B27T02,2022-10-12_09h19.12.749,t1_Paradigm,2021.1.4,59.9856251001476,
Q,left,Distractor,0,56,56,56,228.9189096330083,230.92143690993544,left,1,1,0.4816814123769291,B27T02,2022-10-12_09h19.12.749,t1_Paradigm,2021.1.4,59.9856251001476,
Z,left,Pretarget,0,57,57,57,232.41910612414358,234.4182669064612,left,1,1,0.4410945245763287,B27T02,2022-10-12_09h19.12.749,t1_Paradigm,2021.1.4,59.9856251001476,
Z,right,Target,0,58,58,58,235.91918359778356,237.91914863034617,right,1,1,0.6520775608951226,B27T02,2022-10-12_09h19.12.749,t1_Paradigm,2021.1.4,59.9856251001476,
B,left,Distractor,0,59,59,59,239.41908366797725,241.42140370694688,left,1,1,0.5899712850805372,B27T02,2022-10-12_09h19.12.749,t1_Paradigm,2021.1.4,59.9856251001476,
S,left,Pretarget,0,60,60,60,242.91906810906949,244.92156041867565,left,1,1,0.6098731902311556,B27T02,2022-10-12_09h19.12.749,t1_Paradigm,2021.1.4,59.9856251001476,
S,right,Target,0,61,61,61,246.41932106134482,248.41904164291918,right,1,1,0.6483732619672082,B27T02,2022-10-12_09h19.12.749,t1_Paradigm,2021.1.4,59.9856251001476,
T,left,Distractor,0,62,62,62,249.918870174326,251.92088352679275,left,1,1,0.5224611019366421,B27T02,2022-10-12_09h19.12.749,t1_Paradigm,2021.1.4,59.9856251001476,
D,left,Distractor,0,63,63,63,253.4191532820114,255.42191121546784,left,1,1,0.5733896789606661,B27T02,2022-10-12_09h19.12.749,t1_Paradigm,2021.1.4,59.9856251001476,
R,left,Distractor,0,0,0,0,282.2172126874211,284.2188009773963,left,1,1,1.1524296409334056,B27T02,2022-10-12_09h19.12.749,t1_Paradigm,2021.1.4,59.9856251001476,
V,left,Distractor,0,1,1,1,285.7190314735053,287.7181345115532,left,1,1,0.5492804574896581,B27T02,2022-10-12_09h19.12.749,t1_Paradigm,2021.1.4,59.9856251001476,
N,left,Pretarget,0,2,2,2,289.2190579396556,291.2212631315924,left,1,1,0.4379654233925976,B27T02,2022-10-12_09h19.12.749,t1_Paradigm,2021.1.4,59.9856251001476,
N,right,Target,0,3,3,3,292.71813322836533,294.7191107115941,right,1,1,0.6198664886760525,B27T02,2022-10-12_09h19.12.749,t1_Paradigm,2021.1.4,59.9856251001476,
S,left,Distractor,0,4,4,4,296.21899506251793,298.220810480183,left,1,1,0.5424829871044494,B27T02,2022-10-12_09h19.12.749,t1_Paradigm,2021.1.4,59.9856251001476,
N,left,Lure,0,5,5,5,299.71899682690855,301.7209222796373,left,1,1,0.4343105278094299,B27T02,2022-10-12_09h19.12.749,t1_Paradigm,2021.1.4,59.9856251001476,
Z,left,Distractor,0,6,6,6,303.2182799951988,305.2205037936219,left,1,1,0.5347054669982754,B27T02,2022-10-12_09h19.12.749,t1_Paradigm,2021.1.4,59.9856251001476,
L,left,Pretarget,0,7,7,7,306.7190035637468,308.71828785486287,left,1,1,0.46103877562563866,B27T02,2022-10-12_09h19.12.749,t1_Paradigm,2021.1.4,59.9856251001476,
L,right,Target,0,8,8,8,310.21824823581846,312.21897934324807,right,1,1,0.5602242918103002,B27T02,2022-10-12_09h19.12.749,t1_Paradigm,2021.1.4,59.9856251001476,
H,left,Distractor,0,9,9,9,313.71919764886843,315.7209514725837,left,1,1,0.4502187708276324,B27T02,2022-10-12_09h19.12.749,t1_Paradigm,2021.1.4,59.9856251001476,
L,left,Lure,0,10,10,10,317.21903644595295,319.22066868579714,left,1,1,0.5185418657492846,B27T02,2022-10-12_09h19.12.749,t1_Paradigm,2021.1.4,59.9856251001476,
X,left,Pretarget,0,11,11,11,320.719111994782,322.7212289661984,left,1,1,0.5060873755137436,B27T02,2022-10-12_09h19.12.749,t1_Paradigm,2021.1.4,59.9856251001476,
X,right,Target,0,12,12,12,324.2183778397739,326.2190945110633,right,1,1,0.5442509260610677,B27T02,2022-10-12_09h19.12.749,t1_Paradigm,2021.1.4,59.9856251001476,
X,right,Target,0,13,13,13,327.7190632328857,329.71901607501786,right,1,1,0.4521750204730779,B27T02,2022-10-12_09h19.12.749,t1_Paradigm,2021.1.4,59.9856251001476,
R,left,Distractor,0,14,14,14,331.2190566564677,333.2212615275639,left,1,1,0.5019230466568843,B27T02,2022-10-12_09h19.12.749,t1_Paradigm,2021.1.4,59.9856251001476,
T,left,Distractor,0,15,15,15,334.7192085561692,336.7185669524479,left,1,1,0.46074395871255547,B27T02,2022-10-12_09h19.12.749,t1_Paradigm,2021.1.4,59.9856251001476,
V,left,Pretarget,0,16,16,16,338.21899506251793,340.2209179488127,left,1,1,0.5263007793691941,B27T02,2022-10-12_09h19.12.749,t1_Paradigm,2021.1.4,59.9856251001476,
V,right,Target,0,17,17,17,341.7190167166409,343.7190860098344,right,1,1,0.4520791007671505,B27T02,2022-10-12_09h19.12.749,t1_Paradigm,2021.1.4,59.9856251001476,
N,left,Distractor,0,18,18,18,345.2189754936262,347.2204980191891,left,1,1,0.4707237834809348,B27T02,2022-10-12_09h19.12.749,t1_Paradigm,2021.1.4,59.9856251001476,
B,left,Distractor,0,19,19,19,348.7183090277831,350.7207692571683,left,1,1,0.47453266388038173,B27T02,2022-10-12_09h19.12.749,t1_Paradigm,2021.1.4,59.9856251001476,
V,left,Lure,0,20,20,20,352.219051523658,354.2209548410028,left,1,1,0.4624355469131842,B27T02,2022-10-12_09h19.12.749,t1_Paradigm,2021.1.4,59.9856251001476,
P,left,Distractor,0,21,21,21,355.71914632059634,357.7208901994745,left,1,1,0.4343121318379417,B27T02,2022-10-12_09h19.12.749,t1_Paradigm,2021.1.4,59.9856251001476,
K,left,Pretarget,0,22,22,22,359.21903355873656,361.2212689060252,left,1,1,0.43796831055078655,B27T02,2022-10-12_09h19.12.749,t1_Paradigm,2021.1.4,59.9856251001476,
K,right,Target,0,23,23,23,362.7188505412778,364.718974050018,right,1,1,0.412171671341639,B27T02,2022-10-12_09h19.12.749,t1_Paradigm,2021.1.4,59.9856251001476,
J,left,Pretarget,0,24,24,24,366.21898960886756,368.2209750515176,left,1,1,0.47841147903818637,B27T02,2022-10-12_09h19.12.749,t1_Paradigm,2021.1.4,59.9856251001476,
J,right,Target,0,25,25,25,369.719026661478,371.718932666583,right,1,1,0.6282034871983342,B27T02,2022-10-12_09h19.12.749,t1_Paradigm,2021.1.4,59.9856251001476,
H,left,Distractor,0,26,26,26,373.21898030565353,375.22102702141274,left,1,1,0.5501665121992119,B27T02,2022-10-12_09h19.12.749,t1_Paradigm,2021.1.4,59.9856251001476,
J,left,Lure,0,27,27,27,376.7180488574668,378.72074070578674,left,1,1,0.4745281726354733,B27T02,2022-10-12_09h19.12.749,t1_Paradigm,2021.1.4,59.9856251001476,
V,left,Distractor,0,28,28,28,380.21916444587987,382.2211906304001,left,1,1,0.5741207863902673,B27T02,2022-10-12_09h19.12.749,t1_Paradigm,2021.1.4,59.9856251001476,
Z,left,Pretarget,0,29,29,29,383.7190985211055,385.7208237934392,left,1,1,0.6743797055678442,B27T02,2022-10-12_09h19.12.749,t1_Paradigm,2021.1.4,59.9856251001476,
Z,right,Target,0,30,30,30,387.21911728801206,389.2190550524392,right,1,1,0.5520714336307719,B27T02,2022-10-12_09h19.12.749,t1_Paradigm,2021.1.4,59.9856251001476,
T,left,Distractor,0,31,31,31,390.719153378217,392.71827598515665,left,1,1,0.5252033161814325,B27T02,2022-10-12_09h19.12.749,t1_Paradigm,2021.1.4,59.9856251001476,
Z,left,Lure,0,32,32,32,394.2189713231637,396.2356571898563,left,1,1,0.7034918318968266,B27T02,2022-10-12_09h19.12.749,t1_Paradigm,2021.1.4,59.9856251001476,
F,left,Distractor,0,33,33,33,397.7190016389359,399.7183003661339,left,1,1,0.46889777935575694,B27T02,2022-10-12_09h19.12.749,t1_Paradigm,2021.1.4,59.9856251001476,
Y,left,Pretarget,0,34,34,34,401.2189036339987,403.22056763316505,left,1,1,0.6950018109055236,B27T02,2022-10-12_09h19.12.749,t1_Paradigm,2021.1.4,59.9856251001476,
Y,right,Target,0,35,35,35,404.71903628553264,406.7189227216877,right,1,1,0.6207105183857493,B27T02,2022-10-12_09h19.12.749,t1_Paradigm,2021.1.4,59.9856251001476,
Y,right,Target,0,36,36,36,408.219037087576,410.2190418996033,right,1,1,0.4642811199882999,B27T02,2022-10-12_09h19.12.749,t1_Paradigm,2021.1.4,59.9856251001476,
W,left,Distractor,0,37,37,37,411.7189961853437,413.7209238836658,left,1,1,0.6102462827693671,B27T02,2022-10-12_09h19.12.749,t1_Paradigm,2021.1.4,59.9856251001476,
Q,left,Distractor,0,38,38,38,415.2189665111364,417.22099654527847,left,1,1,0.5661260834312998,B27T02,2022-10-12_09h19.12.749,t1_Paradigm,2021.1.4,59.9856251001476,
P,left,Pretarget,0,39,39,39,418.718970841961,420.72076316189487,left,1,1,0.49052303208736703,B27T02,2022-10-12_09h19.12.749,t1_Paradigm,2021.1.4,59.9856251001476,
P,right,Target,0,40,40,40,422.2189414885943,424.21915802988224,right,1,1,0.48018936294829473,B27T02,2022-10-12_09h19.12.749,t1_Paradigm,2021.1.4,59.9856251001476,
J,left,Distractor,0,41,41,41,425.7181633837172,427.71806040633237,left,1,1,0.5334280340466648,B27T02,2022-10-12_09h19.12.749,t1_Paradigm,2021.1.4,59.9856251001476,
P,left,Lure,0,42,42,42,429.2187644059886,431.2210908610141,right,0,1,0.6622315810527653,B27T02,2022-10-12_09h19.12.749,t1_Paradigm,2021.1.4,59.9856251001476,
L,left,Distractor,0,43,43,43,432.7190359647502,434.72092003404396,left,1,1,0.49036455602617934,B27T02,2022-10-12_09h19.12.749,t1_Paradigm,2021.1.4,59.9856251001476,
Z,left,Distractor,0,44,44,44,436.2190094985999,438.22084384359187,left,1,1,0.5102834636927582,B27T02,2022-10-12_09h19.12.749,t1_Paradigm,2021.1.4,59.9856251001476,
F,left,Pretarget,0,45,45,45,439.71911424037535,441.72081256541423,left,1,1,0.5947220396483317,B27T02,2022-10-12_09h19.12.749,t1_Paradigm,2021.1.4,59.9856251001476,
F,right,Target,0,46,46,46,443.21898223046446,445.21883530321065,right,1,1,0.48832297301851213,B27T02,2022-10-12_09h19.12.749,t1_Paradigm,2021.1.4,59.9856251001476,
G,left,Pretarget,0,47,47,47,446.71899265650427,448.72065569326514,left,1,1,0.4905887964996509,B27T02,2022-10-12_09h19.12.749,t1_Paradigm,2021.1.4,59.9856251001476,
G,right,Target,0,48,48,48,450.218050301075,452.2190104610054,right,1,1,0.4165371429407969,B27T02,2022-10-12_09h19.12.749,t1_Paradigm,2021.1.4,59.9856251001476,
V,left,Distractor,0,49,49,49,453.718956405879,455.7181136594154,left,1,1,0.5492041066172533,B27T02,2022-10-12_09h19.12.749,t1_Paradigm,2021.1.4,59.9856251001476,
G,left,Lure,0,50,50,50,457.21893731819,459.22097569314064,left,1,1,0.7261827883776277,B27T02,2022-10-12_09h19.12.749,t1_Paradigm,2021.1.4,59.9856251001476,
Q,left,Pretarget,0,51,51,51,460.7189050776069,462.7209370365017,left,1,1,0.5382945981109515,B27T02,2022-10-12_09h19.12.749,t1_Paradigm,2021.1.4,59.9856251001476,
Q,right,Target,0,52,52,52,464.21894662146224,466.2189155036467,right,1,1,0.5923346322379075,B27T02,2022-10-12_09h19.12.749,t1_Paradigm,2021.1.4,59.9856251001476,
Y,left,Distractor,0,53,53,53,467.71883225557394,469.72055014950456,left,1,1,0.5150281231035478,B27T02,2022-10-12_09h19.12.749,t1_Paradigm,2021.1.4,59.9856251001476,
V,left,Distractor,0,54,54,54,471.21894982946105,473.21815552405315,left,1,1,0.520982526242733,B27T02,2022-10-12_09h19.12.749,t1_Paradigm,2021.1.4,59.9856251001476,
B,left,Distractor,0,55,55,55,474.7188993031741,476.720805828576,left,1,1,0.4744210248463787,B27T02,2022-10-12_09h19.12.749,t1_Paradigm,2021.1.4,59.9856251001476,
J,left,Pretarget,0,56,56,56,478.21897324797465,480.21798517828574,left,1,1,0.5772768349852413,B27T02,2022-10-12_09h19.12.749,t1_Paradigm,2021.1.4,59.9856251001476,
J,right,Target,0,57,57,57,481.7189082856057,483.71894068660913,left,0,1,0.6122160061495379,B27T02,2022-10-12_09h19.12.749,t1_Paradigm,2021.1.4,59.9856251001476,
H,left,Distractor,0,58,58,58,485.2189799848129,487.2208444851567,left,1,1,0.4702948714257218,B27T02,2022-10-12_09h19.12.749,t1_Paradigm,2021.1.4,59.9856251001476,
J,left,Lure,0,59,59,59,488.71889096230734,490.72092997888103,left,1,1,0.6820292256888933,B27T02,2022-10-12_09h19.12.749,t1_Paradigm,2021.1.4,59.9856251001476,
D,left,Pretarget,0,60,60,60,492.2189017091878,494.2210571768228,left,1,1,0.5260531202657148,B27T02,2022-10-12_09h19.12.749,t1_Paradigm,2021.1.4,59.9856251001476,
D,right,Target,0,61,61,61,495.71881044103066,497.71899105247576,right,1,1,0.38810575811658055,B27T02,2022-10-12_09h19.12.749,t1_Paradigm,2021.1.4,59.9856251001476,
R,left,Distractor,0,62,62,62,499.2188991427538,501.22096991870785,left,1,1,0.630344839533791,B27T02,2022-10-12_09h19.12.749,t1_Paradigm,2021.1.4,59.9856251001476,
F,left,Distractor,0,63,63,63,502.7181486268528,504.72077438997803,left,1,1,0.5064373703789897,B27T02,2022-10-12_09h19.12.749,t1_Paradigm,2021.1.4,59.9856251001476,
F,left,Distractor,0,0,0,0,604.0434567810735,606.0356263287249,None,0,2,,B27T02,2022-10-12_09h19.12.749,t1_Paradigm,2021.1.4,59.9856251001476,
N,left,Pretarget,0,1,1,1,607.5355918424902,609.5374698165106,left,1,2,0.6015644223080017,B27T02,2022-10-12_09h19.12.749,t1_Paradigm,2021.1.4,59.9856251001476,
V,left,Distractor,0,2,2,2,611.0355820580153,613.0374876210117,left,1,2,0.5095902109169401,B27T02,2022-10-12_09h19.12.749,t1_Paradigm,2021.1.4,59.9856251001476,
N,right,Target,0,3,3,3,614.53541572229,616.5374062977498,right,1,2,0.6096271352143958,B27T02,2022-10-12_09h19.12.749,t1_Paradigm,2021.1.4,59.9856251001476,
N,left,Lure,0,4,4,4,618.0354056170327,620.0354691357934,left,1,2,1.3999706145841628,B27T02,2022-10-12_09h19.12.749,t1_Paradigm,2021.1.4,59.9856251001476,
X,left,Distractor,0,5,5,5,621.5355161332409,623.5366642830777,left,1,2,0.7465280417818576,B27T02,2022-10-12_09h19.12.749,t1_Paradigm,2021.1.4,59.9856251001476,
G,left,Pretarget,0,6,6,6,625.0352651058347,627.0373175960267,left,1,2,0.8299124627956189,B27T02,2022-10-12_09h19.12.749,t1_Paradigm,2021.1.4,59.9856251001476,
H,left,Pretarget,0,7,7,7,628.5356495868182,630.5372414056328,left,1,2,0.48173306143144146,B27T02,2022-10-12_09h19.12.749,t1_Paradigm,2021.1.4,59.9856251001476,
G,right,Target,0,8,8,8,632.0355041031726,634.0374465584173,right,1,2,0.5655999684240669,B27T02,2022-10-12_09h19.12.749,t1_Paradigm,2021.1.4,59.9856251001476,
H,right,Target,0,9,9,9,635.5354879027,637.5373729343992,None,0,2,,B27T02,2022-10-12_09h19.12.749,t1_Paradigm,2021.1.4,59.9856251001476,
T,left,Pretarget,0,10,10,10,639.0355445242021,641.0376323026721,left,1,2,1.3255683245370165,B27T02,2022-10-12_09h19.12.749,t1_Paradigm,2021.1.4,59.9856251001476,
K,left,Distractor,0,11,11,11,642.5355055467808,644.5377755406662,left,1,2,0.6574327062116936,B27T02,2022-10-12_09h19.12.749,t1_Paradigm,2021.1.4,59.9856251001476,
T,right,Target,0,12,12,12,646.0352618977777,648.037535741285,right,1,2,0.40552465699147433,B27T02,2022-10-12_09h19.12.749,t1_Paradigm,2021.1.4,59.9856251001476,
T,left,Lure,0,13,13,13,649.535459672159,651.5354510105099,left,1,2,0.6195761630078778,B27T02,2022-10-12_09h19.12.749,t1_Paradigm,2021.1.4,59.9856251001476,
J,left,Distractor,0,14,14,14,653.0355474114185,655.0369762628688,left,1,2,0.4940784790669568,B27T02,2022-10-12_09h19.12.749,t1_Paradigm,2021.1.4,59.9856251001476,
Q,left,Pretarget,0,15,15,15,656.5355421181885,658.5376173853874,left,1,2,0.3855287568294443,B27T02,2022-10-12_09h19.12.749,t1_Paradigm,2021.1.4,59.9856251001476,
M,left,Distractor,0,16,16,16,660.0354566245223,662.038087841298,left,1,2,0.6611046041944064,B27T02,2022-10-12_09h19.12.749,t1_Paradigm,2021.1.4,59.9856251001476,
Q,right,Target,0,17,17,17,663.5354818074848,665.5374249042943,right,1,2,0.4577043611789122,B27T02,2022-10-12_09h19.12.749,t1_Paradigm,2021.1.4,59.9856251001476,
R,left,Distractor,0,18,18,18,667.0356295367237,669.0368874007836,left,1,2,0.4301397829549387,B27T02,2022-10-12_09h19.12.749,t1_Paradigm,2021.1.4,59.9856251001476,
W,left,Distractor,0,19,19,19,670.5356203938718,672.5370399420499,left,1,2,0.43392813205718994,B27T02,2022-10-12_09h19.12.749,t1_Paradigm,2021.1.4,59.9856251001476,
C,left,Pretarget,0,20,20,20,674.0354351308197,676.0374632400926,left,1,2,0.46959039056673646,B27T02,2022-10-12_09h19.12.749,t1_Paradigm,2021.1.4,59.9856251001476,
T,left,Distractor,0,21,21,21,677.535415080667,679.5370518116979,left,1,2,0.5060706938384101,B27T02,2022-10-12_09h19.12.749,t1_Paradigm,2021.1.4,59.9856251001476,
C,right,Target,0,22,22,22,681.0352166647208,683.0373856060323,right,1,2,1.069666613067966,B27T02,2022-10-12_09h19.12.749,t1_Paradigm,2021.1.4,59.9856251001476,
F,left,Pretarget,0,23,23,23,684.5354388200212,686.5370707390248,left,1,2,0.578084934852086,B27T02,2022-10-12_09h19.12.749,t1_Paradigm,2021.1.4,59.9856251001476,
C,right,Target,0,24,24,24,688.035589757259,690.0483788438723,right,1,2,0.6347914739744738,B27T02,2022-10-12_09h19.12.749,t1_Paradigm,2021.1.4,59.9856251001476,
F,right,Target,0,25,25,25,691.5353955117753,693.5369164333679,right,1,2,0.5542631518328562,B27T02,2022-10-12_09h19.12.749,t1_Paradigm,2021.1.4,59.9856251001476,
H,left,Distractor,0,26,26,26,695.0353866897058,697.0372136562364,left,1,2,0.5420608118292876,B27T02,2022-10-12_09h19.12.749,t1_Paradigm,2021.1.4,59.9856251001476,
H,left,Lure,0,27,27,27,698.5353573363391,700.5354882234824,left,1,2,0.4998824261710979,B27T02,2022-10-12_09h19.12.749,t1_Paradigm,2021.1.4,59.9856251001476,
P,left,Distractor,0,28,28,28,702.0356811858364,704.0374853754183,left,1,2,0.42153459414839745,B27T02,2022-10-12_09h19.12.749,t1_Paradigm,2021.1.4,59.9856251001476,
G,left,Pretarget,0,29,29,29,705.5354272711556,707.5378538163495,left,1,2,0.4253300008713268,B27T02,2022-10-12_09h19.12.749,t1_Paradigm,2021.1.4,59.9856251001476,
K,left,Distractor,0,30,30,30,709.0354011257878,711.0374494456337,left,1,2,0.6375834125210531,B27T02,2022-10-12_09h19.12.749,t1_Paradigm,2021.1.4,59.9856251001476,
G,right,Target,0,31,31,31,712.5353230105247,714.5373915408854,right,1,2,0.5940287868143059,B27T02,2022-10-12_09h19.12.749,t1_Paradigm,2021.1.4,59.9856251001476,
M,left,Pretarget,0,32,32,32,716.0355140480679,718.0371684231795,left,1,2,0.4378695035702549,B27T02,2022-10-12_09h19.12.749,t1_Paradigm,2021.1.4,59.9856251001476,
B,left,Distractor,0,33,33,33,719.5355074715917,721.5375814556028,left,1,2,0.4255298604257405,B27T02,2022-10-12_09h19.12.749,t1_Paradigm,2021.1.4,59.9856251001476,
M,right,Target,0,34,34,34,723.0355008951738,725.0372694757534,right,1,2,0.6378150314558297,B27T02,2022-10-12_09h19.12.749,t1_Paradigm,2021.1.4,59.9856251001476,
M,left,Lure,0,35,35,35,726.5354545392911,728.5354154015076,left,1,2,0.5961890665348619,B27T02,2022-10-12_09h19.12.749,t1_Paradigm,2021.1.4,59.9856251001476,
T,left,Distractor,0,36,36,36,730.0354242235189,732.0376265282393,left,1,2,0.35743228916544467,B27T02,2022-10-12_09h19.12.749,t1_Paradigm,2021.1.4,59.9856251001476,
F,left,Distractor,0,37,37,37,733.5353454666911,735.537317114824,left,1,2,0.5536863501183689,B27T02,2022-10-12_09h19.12.749,t1_Paradigm,2021.1.4,59.9856251001476,
X,left,Distractor,0,38,38,38,737.0354001633823,739.0374892250402,left,1,2,0.4935581384343095,B27T02,2022-10-12_09h19.12.749,t1_Paradigm,2021.1.4,59.9856251001476,
C,left,Distractor,0,39,39,39,740.5354003238026,742.5367111201631,left,1,2,0.4502794023719616,B27T02,2022-10-12_09h19.12.749,t1_Paradigm,2021.1.4,59.9856251001476,
R,left,Distractor,0,40,40,40,744.0354226195486,746.0374606736586,left,1,2,0.5175339063280262,B27T02,2022-10-12_09h19.12.749,t1_Paradigm,2021.1.4,59.9856251001476,
B,left,Pretarget,0,41,41,41,747.5355879928684,749.5365266590961,left,1,2,0.618466509389691,B27T02,2022-10-12_09h19.12.749,t1_Paradigm,2021.1.4,59.9856251001476,
H,left,Distractor,0,42,42,42,751.0354556621169,753.0371097164461,left,1,2,0.6858647326007485,B27T02,2022-10-12_09h19.12.749,t1_Paradigm,2021.1.4,59.9856251001476,
B,right,Target,0,43,43,43,754.5354769954574,756.537293375528,right,1,2,0.44966282119276,B27T02,2022-10-12_09h19.12.749,t1_Paradigm,2021.1.4,59.9856251001476,
W,left,Pretarget,0,44,44,44,758.0354858174687,760.0370060974383,left,1,2,0.5020128712058067,B27T02,2022-10-12_09h19.12.749,t1_Paradigm,2021.1.4,59.9856251001476,
L,left,Pretarget,0,45,45,45,761.535553667054,763.5375423177611,left,1,2,0.45754909311654046,B27T02,2022-10-12_09h19.12.749,t1_Paradigm,2021.1.4,59.9856251001476,
W,right,Target,0,46,46,46,765.0353777072742,767.0367356615025,right,1,2,0.44639545440441,B27T02,2022-10-12_09h19.12.749,t1_Paradigm,2021.1.4,59.9856251001476,
L,right,Target,0,47,47,47,768.5354699377785,770.537223119929,right,1,2,0.5299508628086187,B27T02,2022-10-12_09h19.12.749,t1_Paradigm,2021.1.4,59.9856251001476,
W,right,Target,0,48,48,48,772.035367120814,774.0372210346977,right,1,2,0.6938950445619412,B27T02,2022-10-12_09h19.12.749,t1_Paradigm,2021.1.4,59.9856251001476,
X,left,Distractor,0,49,49,49,775.5353698476101,777.5369902177481,left,1,2,0.6021511689177714,B27T02,2022-10-12_09h19.12.749,t1_Paradigm,2021.1.4,59.9856251001476,
R,left,Distractor,0,50,50,50,779.0345391312148,781.0370898267138,left,1,2,0.526030664157588,B27T02,2022-10-12_09h19.12.749,t1_Paradigm,2021.1.4,59.9856251001476,
V,left,Pretarget,0,51,51,51,782.5353778676363,784.5373575359117,left,1,2,0.5298103516106494,B27T02,2022-10-12_09h19.12.749,t1_Paradigm,2021.1.4,59.9856251001476,
Z,left,Distractor,0,52,52,52,786.0354585493333,788.0372213554801,left,1,2,0.4697729268227704,B27T02,2022-10-12_09h19.12.749,t1_Paradigm,2021.1.4,59.9856251001476,
V,right,Target,0,53,53,53,789.535402569396,791.5371843028697,right,1,2,0.47390710026957095,B27T02,2022-10-12_09h19.12.749,t1_Paradigm,2021.1.4,59.9856251001476,
V,left,Lure,0,54,54,54,793.0354389804415,795.0353151509189,left,1,2,0.5436914476449601,B27T02,2022-10-12_09h19.12.749,t1_Paradigm,2021.1.4,59.9856251001476,
N,left,Distractor,0,55,55,55,796.5353659979883,798.5372452552547,left,1,2,0.6097342830034904,B27T02,2022-10-12_09h19.12.749,t1_Paradigm,2021.1.4,59.9856251001476,
B,left,Distractor,0,56,56,56,800.0351047049044,802.0372973855119,left,1,2,0.8376906244666316,B27T02,2022-10-12_09h19.12.749,t1_Paradigm,2021.1.4,59.9856251001476,
V,left,Lure,0,57,57,57,803.5353865292855,805.5482323978213,left,1,2,0.4628628549980931,B27T02,2022-10-12_09h19.12.749,t1_Paradigm,2021.1.4,59.9856251001476,
J,left,Distractor,0,58,58,58,807.0346591111156,809.0366945988499,left,1,2,0.39811798388836905,B27T02,2022-10-12_09h19.12.749,t1_Paradigm,2021.1.4,59.9856251001476,
H,left,Distractor,0,59,59,59,810.5354269503732,812.5365295463125,left,1,2,0.4504186303820461,B27T02,2022-10-12_09h19.12.749,t1_Paradigm,2021.1.4,59.9856251001476,
X,left,Pretarget,0,60,60,60,814.0354319227627,816.0371504583163,left,1,2,0.34160745464032516,B27T02,2022-10-12_09h19.12.749,t1_Paradigm,2021.1.4,59.9856251001476,
P,left,Distractor,0,61,61,61,817.5353740180144,819.5371031400282,left,1,2,0.3781750160269439,B27T02,2022-10-12_09h19.12.749,t1_Paradigm,2021.1.4,59.9856251001476,
X,right,Target,0,62,62,62,821.0355230304995,823.0373740571667,right,1,2,0.49418755166698247,B27T02,2022-10-12_09h19.12.749,t1_Paradigm,2021.1.4,59.9856251001476,
Q,left,Distractor,0,63,63,63,824.5354490856989,826.5347510208376,left,1,2,0.5805166129139252,B27T02,2022-10-12_09h19.12.749,t1_Paradigm,2021.1.4,59.9856251001476,
B,left,Pretarget,0,0,0,0,876.9006775013986,878.9026860417798,left,1,2,0.3723264774889685,B27T02,2022-10-12_09h19.12.749,t1_Paradigm,2021.1.4,59.9856251001476,
F,left,Distractor,0,1,1,1,880.4020247087465,882.4037288082181,left,1,2,0.39129420765675604,B27T02,2022-10-12_09h19.12.749,t1_Paradigm,2021.1.4,59.9856251001476,
B,right,Target,0,2,2,2,883.902049250144,885.904345228977,right,1,2,0.6025669280788861,B27T02,2022-10-12_09h19.12.749,t1_Paradigm,2021.1.4,59.9856251001476,
V,left,Distractor,0,3,3,3,887.402055826562,889.4148968830123,left,1,2,0.43622603570111096,B27T02,2022-10-12_09h19.12.749,t1_Paradigm,2021.1.4,59.9856251001476,
G,left,Pretarget,0,4,4,4,890.9021262425813,892.9038309836178,left,1,2,0.4351404422777705,B27T02,2022-10-12_09h19.12.749,t1_Paradigm,2021.1.4,59.9856251001476,
B,left,Lure,0,5,5,5,894.4020481273183,896.403859374579,left,1,2,0.6153271425282583,B27T02,2022-10-12_09h19.12.749,t1_Paradigm,2021.1.4,59.9856251001476,
G,right,Target,0,6,6,6,897.9019745033002,899.904060356901,right,1,2,0.49062408471945673,B27T02,2022-10-12_09h19.12.749,t1_Paradigm,2021.1.4,59.9856251001476,
Y,left,Pretarget,0,7,7,7,901.4021758064628,903.4035892594256,left,1,2,0.4794871276244521,B27T02,2022-10-12_09h19.12.749,t1_Paradigm,2021.1.4,59.9856251001476,
P,left,Distractor,0,8,8,8,904.9022263327497,906.903924336948,left,1,2,0.5631660447688773,B27T02,2022-10-12_09h19.12.749,t1_Paradigm,2021.1.4,59.9856251001476,
Y,right,Target,0,9,9,9,908.4020465232898,910.403975504858,left,0,2,0.47099678590893745,B27T02,2022-10-12_09h19.12.749,t1_Paradigm,2021.1.4,59.9856251001476,
X,left,Distractor,0,10,10,10,911.9020563077647,913.9041665423429,left,1,2,0.5708178105414845,B27T02,2022-10-12_09h19.12.749,t1_Paradigm,2021.1.4,59.9856251001476,
Y,right,Target,0,11,11,11,915.402058392996,917.4038484672783,right,1,2,0.5753006956074387,B27T02,2022-10-12_09h19.12.749,t1_Paradigm,2021.1.4,59.9856251001476,
N,left,Distractor,0,12,12,12,918.9020389844663,920.9026494703721,left,1,2,0.5323770871618763,B27T02,2022-10-12_09h19.12.749,t1_Paradigm,2021.1.4,59.9856251001476,
Y,right,Target,0,13,13,13,922.4019852501224,924.4038837554981,right,1,2,0.40716331283329055,B27T02,2022-10-12_09h19.12.749,t1_Paradigm,2021.1.4,59.9856251001476,
Y,left,Lure,0,14,14,14,925.9020505333319,927.9020210195449,left,1,2,1.133363745349925,B27T02,2022-10-12_09h19.12.749,t1_Paradigm,2021.1.4,59.9856251001476,
K,left,Distractor,0,15,15,15,929.4018652702798,931.4035164373927,left,1,2,0.5433222047286108,B27T02,2022-10-12_09h19.12.749,t1_Paradigm,2021.1.4,59.9856251001476,
T,left,Pretarget,0,16,16,16,932.9019741824595,934.9041748831514,left,1,2,0.7068647425621748,B27T02,2022-10-12_09h19.12.749,t1_Paradigm,2021.1.4,59.9856251001476,
J,left,Distractor,0,17,17,17,936.4019791549072,938.40388760512,left,1,2,0.5990108395926654,B27T02,2022-10-12_09h19.12.749,t1_Paradigm,2021.1.4,59.9856251001476,
T,right,Target,0,18,18,18,939.9019472351065,941.904036617605,right,1,2,0.7470483823562972,B27T02,2022-10-12_09h19.12.749,t1_Paradigm,2021.1.4,59.9856251001476,
S,left,Pretarget,0,19,19,19,943.4018514757627,945.4042019909248,left,1,2,0.5108326764893718,B27T02,2022-10-12_09h19.12.749,t1_Paradigm,2021.1.4,59.9856251001476,
R,left,Distractor,0,20,20,20,946.9011840475141,948.9040314847371,left,1,2,0.6112205580575392,B27T02,2022-10-12_09h19.12.749,t1_Paradigm,2021.1.4,59.9856251001476,
S,right,Target,0,21,21,21,950.4018947840086,952.4038670738228,left,0,2,1.1111620116862468,B27T02,2022-10-12_09h19.12.749,t1_Paradigm,2021.1.4,59.9856251001476,
Q,left,Distractor,0,22,22,22,953.9017165785772,955.9038691589958,left,1,2,0.5870574418222532,B27T02,2022-10-12_09h19.12.749,t1_Paradigm,2021.1.4,59.9856251001476,
D,left,Distractor,0,23,23,23,957.4020105935051,959.4041609282722,left,1,2,0.6228281313669868,B27T02,2022-10-12_09h19.12.749,t1_Paradigm,2021.1.4,59.9856251001476,
F,left,Distractor,0,24,24,24,960.9019712952431,962.9038787830505,left,1,2,0.5952205657376908,B27T02,2022-10-12_09h19.12.749,t1_Paradigm,2021.1.4,59.9856251001476,
Z,left,Distractor,0,25,25,25,964.4021145332954,966.4037278458127,left,1,2,0.5671478373697028,B27T02,2022-10-12_09h19.12.749,t1_Paradigm,2021.1.4,59.9856251001476,
P,left,Distractor,0,26,26,26,967.9019882977591,969.901147155324,left,1,2,0.6378307506674901,B27T02,2022-10-12_09h19.12.749,t1_Paradigm,2021.1.4,59.9856251001476,
H,left,Distractor,0,27,27,27,971.4020003278274,973.4037371490267,left,1,2,0.4633196767535992,B27T02,2022-10-12_09h19.12.749,t1_Paradigm,2021.1.4,59.9856251001476,
Z,left,Pretarget,0,28,28,28,974.9017817013664,976.9039121464593,left,1,2,0.5474996864213608,B27T02,2022-10-12_09h19.12.749,t1_Paradigm,2021.1.4,59.9856251001476,
J,left,Pretarget,0,29,29,29,978.4020038566669,980.4035629536374,left,1,2,0.7278718101442792,B27T02,2022-10-12_09h19.12.749,t1_Paradigm,2021.1.4,59.9856251001476,
Z,right,Target,0,30,30,30,981.9018532402115,983.9009995864471,right,1,2,0.621862197003793,B27T02,2022-10-12_09h19.12.749,t1_Paradigm,2021.1.4,59.9856251001476,
J,right,Target,0,31,31,31,985.4020234255586,987.4039338005823,right,1,2,0.6709676571190357,B27T02,2022-10-12_09h19.12.749,t1_Paradigm,2021.1.4,59.9856251001476,
V,left,Pretarget,0,32,32,32,988.901866713888,990.9030976305366,left,1,2,0.5799202422495,B27T02,2022-10-12_09h19.12.749,t1_Paradigm,2021.1.4,59.9856251001476,
Z,left,Lure,0,33,33,33,992.401967926824,994.4040374195902,left,1,2,1.3028603655402549,B27T02,2022-10-12_09h19.12.749,t1_Paradigm,2021.1.4,59.9856251001476,
V,right,Target,0,34,34,34,995.9020069042454,997.9040048582247,right,1,2,0.6508508146507666,B27T02,2022-10-12_09h19.12.749,t1_Paradigm,2021.1.4,59.9856251001476,
X,left,Distractor,0,35,35,35,999.4019737012568,1001.4039803168853,left,1,2,0.558998828753829,B27T02,2022-10-12_09h19.12.749,t1_Paradigm,2021.1.4,59.9856251001476,
S,left,Distractor,0,36,36,36,1002.9018064031261,1004.9037344222306,left,1,2,0.5952744604437612,B27T02,2022-10-12_09h19.12.749,t1_Paradigm,2021.1.4,59.9856251001476,
Q,left,Distractor,0,37,37,37,1006.4019445083104,1008.4038231239538,left,1,2,0.5510313939885236,B27T02,2022-10-12_09h19.12.749,t1_Paradigm,2021.1.4,59.9856251001476,
P,left,Distractor,0,38,38,38,1009.9011561377556,1011.9043930284097,left,1,2,0.6984205962507986,B27T02,2022-10-12_09h19.12.749,t1_Paradigm,2021.1.4,59.9856251001476,
S,left,Lure,0,39,39,39,1013.4019791549072,1015.4029280868126,left,1,2,0.7359463926986791,B27T02,2022-10-12_09h19.12.749,t1_Paradigm,2021.1.4,59.9856251001476,
K,left,Pretarget,0,40,40,40,1016.9020062626805,1018.9041302917176,left,1,2,0.7228255970403552,B27T02,2022-10-12_09h19.12.749,t1_Paradigm,2021.1.4,59.9856251001476,
L,left,Distractor,0,41,41,41,1020.4018838767661,1022.4038949835813,left,1,2,0.6314580219914205,B27T02,2022-10-12_09h19.12.749,t1_Paradigm,2021.1.4,59.9856251001476,
K,right,Target,0,42,42,42,1023.9019664832158,1025.903882953513,right,1,2,0.6668995688087307,B27T02,2022-10-12_09h19.12.749,t1_Paradigm,2021.1.4,59.9856251001476,
B,left,Distractor,0,43,43,43,1027.4019451499335,1029.4040508932667,left,1,2,0.5427944856928661,B27T02,2022-10-12_09h19.12.749,t1_Paradigm,2021.1.4,59.9856251001476,
N,left,Distractor,0,44,44,44,1030.9019664832158,1032.9036176503869,left,1,2,0.9151905771577731,B27T02,2022-10-12_09h19.12.749,t1_Paradigm,2021.1.4,59.9856251001476,
S,left,Pretarget,0,45,45,45,1034.4019233353902,1036.4037166177295,left,1,2,0.5992068494670093,B27T02,2022-10-12_09h19.12.749,t1_Paradigm,2021.1.4,59.9856251001476,
Z,left,Distractor,0,46,46,46,1037.9020566285471,1039.9010730501032,left,1,2,0.5417663156986237,B27T02,2022-10-12_09h19.12.749,t1_Paradigm,2021.1.4,59.9856251001476,
S,right,Target,0,47,47,47,1041.4021427638363,1043.404293419444,right,1,2,1.1025754293659702,B27T02,2022-10-12_09h19.12.749,t1_Paradigm,2021.1.4,59.9856251001476,
C,left,Distractor,0,48,48,48,1044.9019254206214,1046.9036471641157,left,1,2,0.6112847183831036,B27T02,2022-10-12_09h19.12.749,t1_Paradigm,2021.1.4,59.9856251001476,
T,left,Pretarget,0,49,49,49,1048.4018710447126,1050.404295344255,left,1,2,0.5985783986980096,B27T02,2022-10-12_09h19.12.749,t1_Paradigm,2021.1.4,59.9856251001476,
S,left,Lure,0,50,50,50,1051.9019042477012,1053.9037042668788,left,1,2,1.1952637456124648,B27T02,2022-10-12_09h19.12.749,t1_Paradigm,2021.1.4,59.9856251001476,
T,right,Target,0,51,51,51,1055.4017311750795,1057.4035157957696,right,1,2,0.7194748217007145,B27T02,2022-10-12_09h19.12.749,t1_Paradigm,2021.1.4,59.9856251001476,
N,left,Pretarget,0,52,52,52,1058.901985731325,1060.9039410186233,left,1,2,0.7550020226626657,B27T02,2022-10-12_09h19.12.749,t1_Paradigm,2021.1.4,59.9856251001476,
B,left,Distractor,0,53,53,53,1062.4019063328742,1064.4011441076873,left,1,2,0.5217335234046914,B27T02,2022-10-12_09h19.12.749,t1_Paradigm,2021.1.4,59.9856251001476,
N,right,Target,0,54,54,54,1065.9019109845394,1067.9033715953701,right,1,2,0.44345145573606715,B27T02,2022-10-12_09h19.12.749,t1_Paradigm,2021.1.4,59.9856251001476,
N,left,Lure,0,55,55,55,1069.4019971198286,1071.4019063328742,left,1,2,0.9609734924742952,B27T02,2022-10-12_09h19.12.749,t1_Paradigm,2021.1.4,59.9856251001476,
X,left,Distractor,0,56,56,56,1072.9018888492137,1074.9040561864967,left,1,2,0.5307862307527103,B27T02,2022-10-12_09h19.12.749,t1_Paradigm,2021.1.4,59.9856251001476,
W,left,Distractor,0,57,57,57,1076.401902804093,1078.404013680236,left,1,2,0.5827487521455623,B27T02,2022-10-12_09h19.12.749,t1_Paradigm,2021.1.4,59.9856251001476,
S,left,Distractor,0,58,58,58,1079.9020097914618,1081.903735384636,left,1,2,0.4908415883546695,B27T02,2022-10-12_09h19.12.749,t1_Paradigm,2021.1.4,59.9856251001476,
L,left,Distractor,0,59,59,59,1083.401929109823,1085.404253319255,left,1,2,0.6226917905732989,B27T02,2022-10-12_09h19.12.749,t1_Paradigm,2021.1.4,59.9856251001476,
K,left,Pretarget,0,60,60,60,1086.9019196461886,1088.9044170886045,left,1,2,0.546572569059208,B27T02,2022-10-12_09h19.12.749,t1_Paradigm,2021.1.4,59.9856251001476,
V,left,Pretarget,0,61,61,61,1090.4016339721275,1092.403955294285,left,1,2,0.5189107878832147,B27T02,2022-10-12_09h19.12.749,t1_Paradigm,2021.1.4,59.9856251001476,
K,right,Target,0,62,62,62,1093.9017621324747,1095.9042525172117,right,1,2,0.7787131289951503,B27T02,2022-10-12_09h19.12.749,t1_Paradigm,2021.1.4,59.9856251001476,
V,right,Target,0,63,63,63,1097.40113929566,1099.404013680236,right,1,2,1.1348548323730938,B27T02,2022-10-12_09h19.12.749,t1_Paradigm,2021.1.4,59.9856251001476,
R,left,Distractor,0,0,0,0,1228.1757397449692,1230.1699617828708,left,1,3,0.3688441733829677,B27T02,2022-10-12_09h19.12.749,t1_Paradigm,2021.1.4,59.9856251001476,
P,left,Lure,0,1,1,1,1231.668492670753,1233.6702516273363,left,1,3,0.29258411983028054,B27T02,2022-10-12_09h19.12.749,t1_Paradigm,2021.1.4,59.9856251001476,
V,left,Distractor,0,2,2,2,1235.1684074978693,1237.1701613215846,left,1,3,0.40881095110671595,B27T02,2022-10-12_09h19.12.749,t1_Paradigm,2021.1.4,59.9856251001476,
P,left,Pretarget,0,3,3,3,1238.6684198487783,1240.6676787964534,left,1,3,0.5432227561250329,B27T02,2022-10-12_09h19.12.749,t1_Paradigm,2021.1.4,59.9856251001476,
Z,left,Distractor,0,4,4,4,1242.168405252276,1244.1702925295685,left,1,3,0.6245588573510759,B27T02,2022-10-12_09h19.12.749,t1_Paradigm,2021.1.4,59.9856251001476,
L,left,Pretarget,0,5,5,5,1245.6684041294502,1247.670101171243,left,1,3,0.580824582662899,B27T02,2022-10-12_09h19.12.749,t1_Paradigm,2021.1.4,59.9856251001476,
P,right,Target,0,6,6,6,1249.1684876983636,1251.1676115884911,right,1,3,0.6351729073794559,B27T02,2022-10-12_09h19.12.749,t1_Paradigm,2021.1.4,59.9856251001476,
S,left,Distractor,0,7,7,7,1252.6684913875652,1254.6705028151628,left,1,3,0.49229000869672745,B27T02,2022-10-12_09h19.12.749,t1_Paradigm,2021.1.4,59.9856251001476,
L,right,Target,0,8,8,8,1256.1684257835732,1258.1704683289863,right,1,3,0.4804190570139326,B27T02,2022-10-12_09h19.12.749,t1_Paradigm,2021.1.4,59.9856251001476,
D,left,Distractor,0,9,9,9,1259.668606876221,1261.6699715672876,left,1,3,0.6449182259966619,B27T02,2022-10-12_09h19.12.749,t1_Paradigm,2021.1.4,59.9856251001476,
G,left,Distractor,0,10,10,10,1263.168210846372,1265.1700862539583,left,1,3,0.34502752317348495,B27T02,2022-10-12_09h19.12.749,t1_Paradigm,2021.1.4,59.9856251001476,
M,left,Pretarget,0,11,11,11,1266.6684172823443,1268.6675363604445,left,1,3,0.4474258698755875,B27T02,2022-10-12_09h19.12.749,t1_Paradigm,2021.1.4,59.9856251001476,
Y,left,Distractor,0,12,12,12,1270.168465563038,1272.1702302939957,left,1,3,0.6246287921676412,B27T02,2022-10-12_09h19.12.749,t1_Paradigm,2021.1.4,59.9856251001476,
V,left,Distractor,0,13,13,13,1273.6684862547554,1275.6708893813775,left,1,3,1.0758590511977673,B27T02,2022-10-12_09h19.12.749,t1_Paradigm,2021.1.4,59.9856251001476,
M,right,Target,0,14,14,14,1277.1685598787735,1279.1703695220058,right,1,3,1.016350628749933,B27T02,2022-10-12_09h19.12.749,t1_Paradigm,2021.1.4,59.9856251001476,
S,left,Pretarget,0,15,15,15,1280.6684528913465,1282.6702031862224,left,1,3,1.0045691807172261,B27T02,2022-10-12_09h19.12.749,t1_Paradigm,2021.1.4,59.9856251001476,
Q,left,Distractor,0,16,16,16,1284.1683699640562,1286.1703502738965,left,1,3,0.7843807353638113,B27T02,2022-10-12_09h19.12.749,t1_Paradigm,2021.1.4,59.9856251001476,
R,left,Pretarget,0,17,17,17,1287.668563567975,1289.6702246799832,left,1,3,0.7403112227329984,B27T02,2022-10-12_09h19.12.749,t1_Paradigm,2021.1.4,59.9856251001476,
S,right,Target,0,18,18,18,1291.1683997986256,1293.1705761183985,right,1,3,0.536148433748167,B27T02,2022-10-12_09h19.12.749,t1_Paradigm,2021.1.4,59.9856251001476,
F,left,Distractor,0,19,19,19,1294.6684609113727,1296.6673486913787,left,1,3,1.1996051570749842,B27T02,2022-10-12_09h19.12.749,t1_Paradigm,2021.1.4,59.9856251001476,
R,right,Target,0,20,20,20,1298.1675958692213,1300.1698883192148,right,1,3,0.7208645353093743,B27T02,2022-10-12_09h19.12.749,t1_Paradigm,2021.1.4,59.9856251001476,
P,left,Distractor,0,21,21,21,1301.668366595637,1303.6675626662327,left,1,3,0.45519889873685315,B27T02,2022-10-12_09h19.12.749,t1_Paradigm,2021.1.4,59.9856251001476,
L,left,Distractor,0,22,22,22,1305.1683260141872,1307.1703422538703,left,1,3,0.47247151198098436,B27T02,2022-10-12_09h19.12.749,t1_Paradigm,2021.1.4,59.9856251001476,
R,right,Target,0,23,23,23,1308.668593081762,1310.670637551928,right,1,3,0.5401924618636258,B27T02,2022-10-12_09h19.12.749,t1_Paradigm,2021.1.4,59.9856251001476,
H,left,Pretarget,0,24,24,24,1312.1684245003853,1314.1704795570113,left,1,3,0.6403429500060156,B27T02,2022-10-12_09h19.12.749,t1_Paradigm,2021.1.4,59.9856251001476,
G,left,Pretarget,0,25,25,25,1315.6674917690107,1317.6676980445627,left,1,3,0.45506993640447035,B27T02,2022-10-12_09h19.12.749,t1_Paradigm,2021.1.4,59.9856251001476,
T,left,Distractor,0,26,26,26,1319.1683725304902,1321.1706813413766,left,1,3,0.3921347085852176,B27T02,2022-10-12_09h19.12.749,t1_Paradigm,2021.1.4,59.9856251001476,
H,right,Target,0,27,27,27,1322.668427548022,1324.6702615721733,right,1,3,0.41258293931605294,B27T02,2022-10-12_09h19.12.749,t1_Paradigm,2021.1.4,59.9856251001476,
G,right,Target,0,28,28,28,1326.1680979240919,1328.1703929405194,right,1,3,0.5763295071665198,B27T02,2022-10-12_09h19.12.749,t1_Paradigm,2021.1.4,59.9856251001476,
D,left,Distractor,0,29,29,29,1329.6683941846131,1331.6702006198466,left,1,3,0.5648050214513205,B27T02,2022-10-12_09h19.12.749,t1_Paradigm,2021.1.4,59.9856251001476,
N,left,Pretarget,0,30,30,30,1333.1683795881108,1335.170448439254,left,1,3,0.5523530976497568,B27T02,2022-10-12_09h19.12.749,t1_Paradigm,2021.1.4,59.9856251001476,
V,left,Distractor,0,31,31,31,1336.6683871269925,1338.6698945748503,left,1,3,0.6688606304815039,B27T02,2022-10-12_09h19.12.749,t1_Paradigm,2021.1.4,59.9856251001476,
R,left,Distractor,0,32,32,32,1340.1683256934048,1342.169661191525,left,1,3,0.7211664099013433,B27T02,2022-10-12_09h19.12.749,t1_Paradigm,2021.1.4,59.9856251001476,
N,right,Target,0,33,33,33,1343.6683534428012,1345.6695131414453,left,0,3,0.5814501462737098,B27T02,2022-10-12_09h19.12.749,t1_Paradigm,2021.1.4,59.9856251001476,
Z,left,Distractor,0,34,34,34,1347.1676112677087,1349.1705235068803,left,1,3,0.5201484414283186,B27T02,2022-10-12_09h19.12.749,t1_Paradigm,2021.1.4,59.9856251001476,
N,left,Lure,0,35,35,35,1350.6682584854425,1352.6677288415958,left,1,3,0.7188556741457433,B27T02,2022-10-12_09h19.12.749,t1_Paradigm,2021.1.4,59.9856251001476,
Y,left,Pretarget,0,36,36,36,1354.168320560595,1356.1675438993261,left,1,3,0.5313732981448993,B27T02,2022-10-12_09h19.12.749,t1_Paradigm,2021.1.4,59.9856251001476,
Y,left,Lure,0,37,37,37,1357.6683588963933,1359.668342214718,left,1,3,0.614504927303642,B27T02,2022-10-12_09h19.12.749,t1_Paradigm,2021.1.4,59.9856251001476,
B,left,Distractor,0,38,38,38,1361.1682794979424,1363.1706072361558,left,1,3,0.6644913093186915,B27T02,2022-10-12_09h19.12.749,t1_Paradigm,2021.1.4,59.9856251001476,
Y,right,Target,0,39,39,39,1364.6683749365038,1366.6701999782235,right,1,3,1.276513230346609,B27T02,2022-10-12_09h19.12.749,t1_Paradigm,2021.1.4,59.9856251001476,
J,left,Distractor,0,40,40,40,1368.1683122197283,1370.1700018830597,None,0,3,,B27T02,2022-10-12_09h19.12.749,t1_Paradigm,2021.1.4,59.9856251001476,
X,left,Distractor,0,41,41,41,1371.668327778636,1373.6704466748633,left,1,3,0.5483642473700456,B27T02,2022-10-12_09h19.12.749,t1_Paradigm,2021.1.4,59.9856251001476,
W,left,Pretarget,0,42,42,42,1375.1683587360312,1377.1703573315172,left,1,3,0.5204435791820288,B27T02,2022-10-12_09h19.12.749,t1_Paradigm,2021.1.4,59.9856251001476,
S,left,Pretarget,0,43,43,43,1378.6683438186883,1380.670145762735,left,1,3,0.5726293785846792,B27T02,2022-10-12_09h19.12.749,t1_Paradigm,2021.1.4,59.9856251001476,
R,left,Distractor,0,44,44,44,1382.168318635784,1384.1701934018056,left,1,3,0.9764954900601879,B27T02,2022-10-12_09h19.12.749,t1_Paradigm,2021.1.4,59.9856251001476,
W,right,Target,0,45,45,45,1385.6684795179171,1387.6703039180138,right,1,3,0.8843583113048226,B27T02,2022-10-12_09h19.12.749,t1_Paradigm,2021.1.4,59.9856251001476,
S,right,Target,0,46,46,46,1389.168319918972,1391.1702851511072,left,0,3,0.5523941602441482,B27T02,2022-10-12_09h19.12.749,t1_Paradigm,2021.1.4,59.9856251001476,
D,left,Distractor,0,47,47,47,1392.668314625742,1394.6702702338225,left,1,3,0.5725148523342796,B27T02,2022-10-12_09h19.12.749,t1_Paradigm,2021.1.4,59.9856251001476,
T,left,Distractor,0,48,48,48,1396.1683526407578,1398.1703435370582,left,1,3,0.5285617907647975,B27T02,2022-10-12_09h19.12.749,t1_Paradigm,2021.1.4,59.9856251001476,
S,right,Target,0,49,49,49,1399.6682953776326,1401.669736740354,right,1,3,0.5971408855984919,B27T02,2022-10-12_09h19.12.749,t1_Paradigm,2021.1.4,59.9856251001476,
K,left,Distractor,0,50,50,50,1403.1683574527851,1405.1698408405646,left,1,3,0.4569488728302531,B27T02,2022-10-12_09h19.12.749,t1_Paradigm,2021.1.4,59.9856251001476,
S,left,Lure,0,51,51,51,1406.6683075681212,1408.6701120785438,right,0,3,0.5726746116415597,B27T02,2022-10-12_09h19.12.749,t1_Paradigm,2021.1.4,59.9856251001476,
T,left,Pretarget,0,52,52,52,1410.1683032372966,1412.1706620932673,right,0,3,0.992118219321128,B27T02,2022-10-12_09h19.12.749,t1_Paradigm,2021.1.4,59.9856251001476,
V,left,Distractor,0,53,53,53,1413.6682267260621,1415.6703356773942,left,1,3,0.8683349004713818,B27T02,2022-10-12_09h19.12.749,t1_Paradigm,2021.1.4,59.9856251001476,
B,left,Distractor,0,54,54,54,1417.168364510464,1419.1703833164647,left,1,3,0.48841760953655466,B27T02,2022-10-12_09h19.12.749,t1_Paradigm,2021.1.4,59.9856251001476,
T,right,Target,0,55,55,55,1420.6682934528217,1422.6697316075442,right,1,3,0.4609951465972699,B27T02,2022-10-12_09h19.12.749,t1_Paradigm,2021.1.4,59.9856251001476,
Y,left,Pretarget,0,56,56,56,1424.1682268864242,1426.1702716774307,left,1,3,0.6244869977235794,B27T02,2022-10-12_09h19.12.749,t1_Paradigm,2021.1.4,59.9856251001476,
T,left,Lure,0,57,57,57,1427.6683919390198,1429.66973417392,left,1,3,0.9653636658331379,B27T02,2022-10-12_09h19.12.749,t1_Paradigm,2021.1.4,59.9856251001476,
P,left,Pretarget,0,58,58,58,1431.1682871971861,1433.1705440382357,left,1,3,0.5841118391836062,B27T02,2022-10-12_09h19.12.749,t1_Paradigm,2021.1.4,59.9856251001476,
Y,right,Target,0,59,59,59,1434.6683839189354,1436.670680218609,right,1,3,0.41211168142035604,B27T02,2022-10-12_09h19.12.749,t1_Paradigm,2021.1.4,59.9856251001476,
R,left,Distractor,0,60,60,60,1438.1683289014036,1440.170021131169,left,1,3,0.5128274224116467,B27T02,2022-10-12_09h19.12.749,t1_Paradigm,2021.1.4,59.9856251001476,
P,right,Target,0,61,61,61,1441.6682940944447,1443.6703805896686,right,1,3,1.0284682770143263,B27T02,2022-10-12_09h19.12.749,t1_Paradigm,2021.1.4,59.9856251001476,
L,left,Distractor,0,62,62,62,1445.1682673074538,1447.1842284827726,left,1,3,0.5384819463943131,B27T02,2022-10-12_09h19.12.749,t1_Paradigm,2021.1.4,59.9856251001476,
V,left,Distractor,0,63,63,63,1448.6683746157214,1450.6701579531655,left,1,3,0.6206017665099353,B27T02,2022-10-12_09h19.12.749,t1_Paradigm,2021.1.4,59.9856251001476,
H,left,Lure,0,0,0,0,1482.5488910040003,1484.5540584802511,left,1,3,0.9286847861949354,B27T02,2022-10-12_09h19.12.749,t1_Paradigm,2021.1.4,59.9856251001476,
B,left,Distractor,0,1,1,1,1486.0514691281132,1488.0535915531218,left,1,3,0.27714424760779366,B27T02,2022-10-12_09h19.12.749,t1_Paradigm,2021.1.4,59.9856251001476,
T,left,Distractor,0,2,2,2,1489.5515822107554,1491.553421046934,left,1,3,0.6813844139687717,B27T02,2022-10-12_09h19.12.749,t1_Paradigm,2021.1.4,59.9856251001476,
R,left,Distractor,0,3,3,3,1493.0516606468009,1495.0537609364837,left,1,3,0.5250474064960144,B27T02,2022-10-12_09h19.12.749,t1_Paradigm,2021.1.4,59.9856251001476,
H,left,Pretarget,0,4,4,4,1496.5514032033389,1498.5534220093396,left,1,3,0.4171935035265051,B27T02,2022-10-12_09h19.12.749,t1_Paradigm,2021.1.4,59.9856251001476,
K,left,Distractor,0,5,5,5,1500.051617980178,1502.0539280742523,left,1,3,0.7248591600218788,B27T02,2022-10-12_09h19.12.749,t1_Paradigm,2021.1.4,59.9856251001476,
G,left,Distractor,0,6,6,6,1503.5516543911654,1505.5534149517189,left,1,3,0.8729374445974827,B27T02,2022-10-12_09h19.12.749,t1_Paradigm,2021.1.4,59.9856251001476,
H,right,Target,0,7,7,7,1507.05175207532,1509.0531584706623,right,1,3,0.7818537791608833,B27T02,2022-10-12_09h19.12.749,t1_Paradigm,2021.1.4,59.9856251001476,
Y,left,Pretarget,0,8,8,8,1510.5516300102463,1512.5538566958858,left,1,3,0.6087529502110556,B27T02,2022-10-12_09h19.12.749,t1_Paradigm,2021.1.4,59.9856251001476,
S,left,Distractor,0,9,9,9,1514.0515791631187,1516.0531395433354,left,1,3,0.5334925152128562,B27T02,2022-10-12_09h19.12.749,t1_Paradigm,2021.1.4,59.9856251001476,
P,left,Distractor,0,10,10,10,1517.5516290478408,1519.5533687562565,left,1,3,0.889231612207368,B27T02,2022-10-12_09h19.12.749,t1_Paradigm,2021.1.4,59.9856251001476,
Y,right,Target,0,11,11,11,1521.051614772121,1523.0533746911096,left,0,3,0.6053402600809932,B27T02,2022-10-12_09h19.12.749,t1_Paradigm,2021.1.4,59.9856251001476,
H,left,Lure,0,12,12,12,1524.551652145572,1526.5531387413503,left,1,3,0.6575947111123241,B27T02,2022-10-12_09h19.12.749,t1_Paradigm,2021.1.4,59.9856251001476,
Q,left,Distractor,0,13,13,13,1528.051544516522,1530.0533070018864,left,1,3,0.5012747061555274,B27T02,2022-10-12_09h19.12.749,t1_Paradigm,2021.1.4,59.9856251001476,
V,left,Pretarget,0,14,14,14,1531.5516800553305,1533.5531178892124,left,1,3,0.5215875584981404,B27T02,2022-10-12_09h19.12.749,t1_Paradigm,2021.1.4,59.9856251001476,
G,left,Distractor,0,15,15,15,1535.0517655489966,1537.0530070521636,left,1,3,0.4776973741245456,B27T02,2022-10-12_09h19.12.749,t1_Paradigm,2021.1.4,59.9856251001476,
Z,left,Pretarget,0,16,16,16,1538.5516672232188,1540.5532000144594,left,1,3,0.6575376084074378,B27T02,2022-10-12_09h19.12.749,t1_Paradigm,2021.1.4,59.9856251001476,
V,right,Target,0,17,17,17,1542.0516378698521,1544.0537779389997,right,1,3,0.3726305976160802,B27T02,2022-10-12_09h19.12.749,t1_Paradigm,2021.1.4,59.9856251001476,
N,left,Distractor,0,18,18,18,1545.551621348597,1547.5536154528963,left,1,3,0.5529866812285036,B27T02,2022-10-12_09h19.12.749,t1_Paradigm,2021.1.4,59.9856251001476,
Z,right,Target,0,19,19,19,1549.051614772121,1551.0535097486572,right,1,3,0.4292149113025516,B27T02,2022-10-12_09h19.12.749,t1_Paradigm,2021.1.4,59.9856251001476,
R,left,Distractor,0,20,20,20,1552.5515960052144,1554.5507818101323,left,1,3,0.5319661399698816,B27T02,2022-10-12_09h19.12.749,t1_Paradigm,2021.1.4,59.9856251001476,
P,left,Distractor,0,21,21,21,1556.051557027793,1558.0534096584888,left,1,3,0.5171736459014937,B27T02,2022-10-12_09h19.12.749,t1_Paradigm,2021.1.4,59.9856251001476,
Z,right,Target,0,22,22,22,1559.551551734563,1561.5535455180798,right,1,3,0.8408251793589443,B27T02,2022-10-12_09h19.12.749,t1_Paradigm,2021.1.4,59.9856251001476,
D,left,Pretarget,0,23,23,23,1563.0512310931226,1565.0531796435826,left,1,3,0.5895282576675527,B27T02,2022-10-12_09h19.12.749,t1_Paradigm,2021.1.4,59.9856251001476,
K,left,Distractor,0,24,24,24,1566.5515713034547,1568.5535134378588,left,1,3,0.6090836969087832,B27T02,2022-10-12_09h19.12.749,t1_Paradigm,2021.1.4,59.9856251001476,
W,left,Distractor,0,25,25,25,1570.0515239852248,1572.0535498489044,left,1,3,0.4689436540356837,B27T02,2022-10-12_09h19.12.749,t1_Paradigm,2021.1.4,59.9856251001476,
D,right,Target,0,26,26,26,1573.5516168573522,1575.553421046934,right,1,3,0.409192705352325,B27T02,2022-10-12_09h19.12.749,t1_Paradigm,2021.1.4,59.9856251001476,
G,left,Pretarget,0,27,27,27,1577.051361338643,1579.0534382098704,left,1,3,0.5573053157422692,B27T02,2022-10-12_09h19.12.749,t1_Paradigm,2021.1.4,59.9856251001476,
V,left,Distractor,0,28,28,28,1580.5673829850857,1582.5536234729225,left,1,3,0.577673987718299,B27T02,2022-10-12_09h19.12.749,t1_Paradigm,2021.1.4,59.9856251001476,
D,right,Target,0,29,29,29,1584.0515191731974,1586.053556264902,right,1,3,0.516950688615907,B27T02,2022-10-12_09h19.12.749,t1_Paradigm,2021.1.4,59.9856251001476,
G,right,Target,0,30,30,30,1587.5515514137805,1589.5536722348188,right,1,3,0.6970565468072891,B27T02,2022-10-12_09h19.12.749,t1_Paradigm,2021.1.4,59.9856251001476,
B,left,Pretarget,0,31,31,31,1591.0515108323307,1593.053289036965,left,1,3,0.5893069044104777,B27T02,2022-10-12_09h19.12.749,t1_Paradigm,2021.1.4,59.9856251001476,
N,left,Distractor,0,32,32,32,1594.5516004964593,1596.5535217787256,left,1,3,0.46507863339502364,B27T02,2022-10-12_09h19.12.749,t1_Paradigm,2021.1.4,59.9856251001476,
F,left,Distractor,0,33,33,33,1598.0516070728772,1600.0535453576595,left,1,3,0.949050570896361,B27T02,2022-10-12_09h19.12.749,t1_Paradigm,2021.1.4,59.9856251001476,
B,right,Target,0,34,34,34,1601.550704176072,1603.5538005555281,left,0,3,1.0487358963000588,B27T02,2022-10-12_09h19.12.749,t1_Paradigm,2021.1.4,59.9856251001476,
Q,left,Pretarget,0,35,35,35,1605.051599052851,1607.0508153339033,left,1,3,0.5919175898307003,B27T02,2022-10-12_09h19.12.749,t1_Paradigm,2021.1.4,59.9856251001476,
S,left,Pretarget,0,36,36,36,1608.5516008172417,1610.5531178892124,left,1,3,0.449439222284127,B27T02,2022-10-12_09h19.12.749,t1_Paradigm,2021.1.4,59.9856251001476,
W,left,Distractor,0,37,37,37,1612.0514941506553,1614.0533839943237,left,1,3,0.7412470016861334,B27T02,2022-10-12_09h19.12.749,t1_Paradigm,2021.1.4,59.9856251001476,
Q,right,Target,0,38,38,38,1615.5515061807237,1617.5527175284806,right,1,3,0.6338143115863204,B27T02,2022-10-12_09h19.12.749,t1_Paradigm,2021.1.4,59.9856251001476,
S,right,Target,0,39,39,39,1619.0515477245208,1621.0532158941496,left,0,3,1.1817493261187337,B27T02,2022-10-12_09h19.12.749,t1_Paradigm,2021.1.4,59.9856251001476,
T,left,Distractor,0,40,40,40,1622.551522862399,1624.553466279991,left,1,3,0.6091247595031746,B27T02,2022-10-12_09h19.12.749,t1_Paradigm,2021.1.4,59.9856251001476,
G,left,Distractor,0,41,41,41,1626.0514312734595,1628.0532386710984,left,1,3,0.7254847235744819,B27T02,2022-10-12_09h19.12.749,t1_Paradigm,2021.1.4,59.9856251001476,
D,left,Distractor,0,42,42,42,1629.5513845967944,1631.5537357535795,left,1,3,0.8725733344908804,B27T02,2022-10-12_09h19.12.749,t1_Paradigm,2021.1.4,59.9856251001476,
S,left,Lure,0,43,43,43,1633.0514928674093,1635.0507524567656,left,1,3,0.9439642575453036,B27T02,2022-10-12_09h19.12.749,t1_Paradigm,2021.1.4,59.9856251001476,
Z,left,Pretarget,0,44,44,44,1636.55163770949,1638.5534277837723,left,1,3,0.9293385803466663,B27T02,2022-10-12_09h19.12.749,t1_Paradigm,2021.1.4,59.9856251001476,
J,left,Distractor,0,45,45,45,1640.0515810879297,1642.053519372712,left,1,3,0.7571475454024039,B27T02,2022-10-12_09h19.12.749,t1_Paradigm,2021.1.4,59.9856251001476,
M,left,Pretarget,0,46,46,46,1643.5515850979718,1645.5535891471081,left,1,3,0.3451641847495921,B27T02,2022-10-12_09h19.12.749,t1_Paradigm,2021.1.4,59.9856251001476,
Z,right,Target,0,47,47,47,1647.0514566168422,1649.0532370670699,right,1,3,0.381182212557178,B27T02,2022-10-12_09h19.12.749,t1_Paradigm,2021.1.4,59.9856251001476,
P,left,Distractor,0,48,48,48,1650.551568737079,1652.551859062747,left,1,3,0.5148308299831115,B27T02,2022-10-12_09h19.12.749,t1_Paradigm,2021.1.4,59.9856251001476,
M,right,Target,0,49,49,49,1654.0514688072726,1656.0535116734682,right,1,3,0.43707423575688154,B27T02,2022-10-12_09h19.12.749,t1_Paradigm,2021.1.4,59.9856251001476,
K,left,Distractor,0,50,50,50,1657.5514731380972,1659.5535615581903,left,1,3,0.5690264530130662,B27T02,2022-10-12_09h19.12.749,t1_Paradigm,2021.1.4,59.9856251001476,
Y,left,Distractor,0,51,51,51,1661.051502491464,1663.0533256083727,left,1,3,0.5413351580500603,B27T02,2022-10-12_09h19.12.749,t1_Paradigm,2021.1.4,59.9856251001476,
X,left,Distractor,0,52,52,52,1664.5505922162556,1666.5537049566046,left,1,3,0.8327980754547752,B27T02,2022-10-12_09h19.12.749,t1_Paradigm,2021.1.4,59.9856251001476,
F,left,Pretarget,0,53,53,53,1668.0514739401406,1670.052908886806,left,1,3,0.5656962090288289,B27T02,2022-10-12_09h19.12.749,t1_Paradigm,2021.1.4,59.9856251001476,
M,left,Lure,0,54,54,54,1671.5514638348832,1673.5537659089314,left,1,3,0.648739296826534,B27T02,2022-10-12_09h19.12.749,t1_Paradigm,2021.1.4,59.9856251001476,
V,left,Distractor,0,55,55,55,1675.0512513036374,1677.0533557637827,left,1,3,0.94129614852136,B27T02,2022-10-12_09h19.12.749,t1_Paradigm,2021.1.4,59.9856251001476,
F,right,Target,0,56,56,56,1678.5514760253136,1680.5540097183548,left,0,3,0.49672156549058855,B27T02,2022-10-12_09h19.12.749,t1_Paradigm,2021.1.4,59.9856251001476,
S,left,Distractor,0,57,57,57,1682.0513664715108,1684.0537615781068,left,1,3,0.5647713372600265,B27T02,2022-10-12_09h19.12.749,t1_Paradigm,2021.1.4,59.9856251001476,
D,left,Distractor,0,58,58,58,1685.55142630107,1687.5527707816218,left,1,3,0.5218538240878843,B27T02,2022-10-12_09h19.12.749,t1_Paradigm,2021.1.4,59.9856251001476,
F,right,Target,0,59,59,59,1689.051444747136,1691.053724365076,right,1,3,0.5250374616589397,B27T02,2022-10-12_09h19.12.749,t1_Paradigm,2021.1.4,59.9856251001476,
V,left,Pretarget,0,60,60,60,1692.551527353644,1694.5536048664362,left,1,3,0.6569550322019495,B27T02,2022-10-12_09h19.12.749,t1_Paradigm,2021.1.4,59.9856251001476,
J,left,Distractor,0,61,61,61,1696.0514068925404,1698.0532284054207,left,1,3,0.8054153919219971,B27T02,2022-10-12_09h19.12.749,t1_Paradigm,2021.1.4,59.9856251001476,
V,left,Lure,0,62,62,62,1699.5516386718955,1701.5533944204217,right,0,3,0.761259583523497,B27T02,2022-10-12_09h19.12.749,t1_Paradigm,2021.1.4,59.9856251001476,
V,right,Target,0,63,63,63,1703.051727052778,1705.051472336112,left,0,3,0.8950070078717545,B27T02,2022-10-12_09h19.12.749,t1_Paradigm,2021.1.4,59.9856251001476,
R,left,Distractor,0,0,0,0,1779.5951888062991,1781.586676649982,left,1,4,0.359821300546173,B27T02,2022-10-12_09h19.12.749,t1_Paradigm,2021.1.4,59.9856251001476,
F,left,Distractor,0,1,1,1,1783.0847215231042,1785.0871997174108,left,1,4,0.3792529102647677,B27T02,2022-10-12_09h19.12.749,t1_Paradigm,2021.1.4,59.9856251001476,
P,left,Pretarget,0,2,2,2,1786.5848041296122,1788.5869932814385,left,1,4,0.3517223370145075,B27T02,2022-10-12_09h19.12.749,t1_Paradigm,2021.1.4,59.9856251001476,
H,left,Distractor,0,3,3,3,1790.0847375632147,1792.0867608604603,left,1,4,0.3394670647685416,B27T02,2022-10-12_09h19.12.749,t1_Paradigm,2021.1.4,59.9856251001476,
Z,left,Distractor,0,4,4,4,1793.584735798824,1795.5868469957495,left,1,4,0.8074826389783993,B27T02,2022-10-12_09h19.12.749,t1_Paradigm,2021.1.4,59.9856251001476,
T,left,Distractor,0,5,5,5,1797.0846191873425,1799.0864297929802,left,1,4,0.5561748100444674,B27T02,2022-10-12_09h19.12.749,t1_Paradigm,2021.1.4,59.9856251001476,
P,right,Target,0,6,6,6,1800.5846918489551,1802.5870144543587,right,1,4,0.5915878055384383,B27T02,2022-10-12_09h19.12.749,t1_Paradigm,2021.1.4,59.9856251001476,
G,left,Distractor,0,7,7,7,1804.0847510368912,1806.0864859332796,left,1,4,0.659967040817719,B27T02,2022-10-12_09h19.12.749,t1_Paradigm,2021.1.4,59.9856251001476,
L,left,Distractor,0,8,8,8,1807.584736440389,1809.5839799896348,left,1,4,0.6507632356951945,B27T02,2022-10-12_09h19.12.749,t1_Paradigm,2021.1.4,59.9856251001476,
P,left,Lure,0,9,9,9,1811.0847529617022,1813.0863242491614,left,1,4,1.0042778927017935,B27T02,2022-10-12_09h19.12.749,t1_Paradigm,2021.1.4,59.9856251001476,
Q,left,Pretarget,0,10,10,10,1814.5847752574482,1816.5867693617474,left,1,4,0.5757296077208593,B27T02,2022-10-12_09h19.12.749,t1_Paradigm,2021.1.4,59.9856251001476,
D,left,Distractor,0,11,11,11,1818.0847086910508,1820.0868455521413,left,1,4,0.6437360711861402,B27T02,2022-10-12_09h19.12.749,t1_Paradigm,2021.1.4,59.9856251001476,
M,left,Pretarget,0,12,12,12,1821.5846966609824,1823.5863773418823,left,1,4,0.6161313927732408,B27T02,2022-10-12_09h19.12.749,t1_Paradigm,2021.1.4,59.9856251001476,
C,left,Distractor,0,13,13,13,1825.0846676283982,1827.0838335435838,left,1,4,0.44673678756225854,B27T02,2022-10-12_09h19.12.749,t1_Paradigm,2021.1.4,59.9856251001476,
Q,right,Target,0,14,14,14,1828.5847213627421,1830.5839254533057,right,1,4,0.6426806331146508,B27T02,2022-10-12_09h19.12.749,t1_Paradigm,2021.1.4,59.9856251001476,
R,left,Distractor,0,15,15,15,1832.084739808808,1834.0840000397293,left,1,4,0.5184898958541453,B27T02,2022-10-12_09h19.12.749,t1_Paradigm,2021.1.4,59.9856251001476,
M,right,Target,0,16,16,16,1835.5844287914224,1837.5839090924128,right,1,4,0.4906394832069054,B27T02,2022-10-12_09h19.12.749,t1_Paradigm,2021.1.4,59.9856251001476,
S,left,Distractor,0,17,17,17,1839.0847013125895,1841.0838037090143,left,1,4,1.214909330185037,B27T02,2022-10-12_09h19.12.749,t1_Paradigm,2021.1.4,59.9856251001476,
Z,left,Distractor,0,18,18,18,1842.5849257134832,1844.5869573515956,left,1,4,0.543583016609773,B27T02,2022-10-12_09h19.12.749,t1_Paradigm,2021.1.4,59.9856251001476,
L,left,Pretarget,0,19,19,19,1846.0846965005621,1848.0861741139088,left,1,4,0.5646542445756495,B27T02,2022-10-12_09h19.12.749,t1_Paradigm,2021.1.4,59.9856251001476,
M,right,Target,0,20,20,20,1849.584698265011,1851.5867841186118,right,1,4,0.6316630143555813,B27T02,2022-10-12_09h19.12.749,t1_Paradigm,2021.1.4,59.9856251001476,
P,left,Distractor,0,21,21,21,1853.0847237687558,1855.0869106749306,left,1,4,0.4755502473562956,B27T02,2022-10-12_09h19.12.749,t1_Paradigm,2021.1.4,59.9856251001476,
F,left,Distractor,0,22,22,22,1856.584708209848,1858.58675396326,left,1,4,0.49588491424219683,B27T02,2022-10-12_09h19.12.749,t1_Paradigm,2021.1.4,59.9856251001476,
L,right,Target,0,23,23,23,1860.08469104697,1862.0869408303406,right,1,4,1.0440717582241632,B27T02,2022-10-12_09h19.12.749,t1_Paradigm,2021.1.4,59.9856251001476,
L,left,Lure,0,24,24,24,1863.584584059543,1865.5847630669596,left,1,4,1.0660646499600261,B27T02,2022-10-12_09h19.12.749,t1_Paradigm,2021.1.4,59.9856251001476,
V,left,Pretarget,0,25,25,25,1867.0847651521908,1869.0869729105034,left,1,4,0.6674920898512937,B27T02,2022-10-12_09h19.12.749,t1_Paradigm,2021.1.4,59.9856251001476,
Z,left,Distractor,0,26,26,26,1870.5846283301944,1872.5865457628388,left,1,4,0.7359467135393061,B27T02,2022-10-12_09h19.12.749,t1_Paradigm,2021.1.4,59.9856251001476,
H,left,Distractor,0,27,27,27,1874.0847491120803,1876.0866354269674,left,1,4,0.5959523147321306,B27T02,2022-10-12_09h19.12.749,t1_Paradigm,2021.1.4,59.9856251001476,
X,left,Distractor,0,28,28,28,1877.5847338740132,1879.586720599851,left,1,4,0.5997230196953751,B27T02,2022-10-12_09h19.12.749,t1_Paradigm,2021.1.4,59.9856251001476,
V,right,Target,0,29,29,29,1881.084700350184,1883.0861773219076,right,1,4,0.46014277602080256,B27T02,2022-10-12_09h19.12.749,t1_Paradigm,2021.1.4,59.9856251001476,
C,left,Distractor,0,30,30,30,1884.5847136634984,1886.5866695923614,left,1,4,0.4318085942068137,B27T02,2022-10-12_09h19.12.749,t1_Paradigm,2021.1.4,59.9856251001476,
S,left,Pretarget,0,31,31,31,1888.084674044454,1890.0873498526635,left,1,4,0.8670924348989502,B27T02,2022-10-12_09h19.12.749,t1_Paradigm,2021.1.4,59.9856251001476,
D,left,Distractor,0,32,32,32,1891.5847380444175,1893.58654255484,left,1,4,0.6800742592313327,B27T02,2022-10-12_09h19.12.749,t1_Paradigm,2021.1.4,59.9856251001476,
V,left,Distractor,0,33,33,33,1895.0845681798528,1897.087050223723,right,0,4,1.0833901954465546,B27T02,2022-10-12_09h19.12.749,t1_Paradigm,2021.1.4,59.9856251001476,
R,left,Distractor,0,34,34,34,1898.5836960800225,1900.5863690010156,left,1,4,0.7202094579697587,B27T02,2022-10-12_09h19.12.749,t1_Paradigm,2021.1.4,59.9856251001476,
S,right,Target,0,35,35,35,1902.0839201600756,1904.0838223155006,right,1,4,1.1267699841409922,B27T02,2022-10-12_09h19.12.749,t1_Paradigm,2021.1.4,59.9856251001476,
Y,left,Distractor,0,36,36,36,1905.584665543167,1907.5861960888142,left,1,4,0.8560533224372193,B27T02,2022-10-12_09h19.12.749,t1_Paradigm,2021.1.4,59.9856251001476,
N,left,Pretarget,0,37,37,37,1909.0846499843174,1911.0862687504268,left,1,4,0.636196265288163,B27T02,2022-10-12_09h19.12.749,t1_Paradigm,2021.1.4,59.9856251001476,
Z,left,Pretarget,0,38,38,38,1912.5846754880622,1914.5837442002958,left,1,4,1.2828654277836904,B27T02,2022-10-12_09h19.12.749,t1_Paradigm,2021.1.4,59.9856251001476,
P,left,Pretarget,0,39,39,39,1916.0847083702683,1918.0861372216605,left,1,4,0.7723920493735932,B27T02,2022-10-12_09h19.12.749,t1_Paradigm,2021.1.4,59.9856251001476,
M,left,Distractor,0,40,40,40,1919.5846671471954,1921.5868739431608,left,1,4,0.9355432089651003,B27T02,2022-10-12_09h19.12.749,t1_Paradigm,2021.1.4,59.9856251001476,
N,right,Target,0,41,41,41,1923.0848366909777,1925.0861709058518,right,1,4,1.0842605308862403,B27T02,2022-10-12_09h19.12.749,t1_Paradigm,2021.1.4,59.9856251001476,
Z,right,Target,0,42,42,42,1926.584623518167,1928.5865791262477,right,1,4,1.0399584369151853,B27T02,2022-10-12_09h19.12.749,t1_Paradigm,2021.1.4,59.9856251001476,
P,right,Target,0,43,43,43,1930.084557272552,1932.0868003190844,left,0,4,0.48362033866578713,B27T02,2022-10-12_09h19.12.749,t1_Paradigm,2021.1.4,59.9856251001476,
X,left,Pretarget,0,44,44,44,1933.584661693545,1935.5870343440329,left,1,4,0.5517422908451408,B27T02,2022-10-12_09h19.12.749,t1_Paradigm,2021.1.4,59.9856251001476,
Z,left,Lure,0,45,45,45,1937.083842846856,1939.0858594072633,left,1,4,1.2287230578949675,B27T02,2022-10-12_09h19.12.749,t1_Paradigm,2021.1.4,59.9856251001476,
R,left,Pretarget,0,46,46,46,1940.5846934529836,1942.5869021737017,left,1,4,0.6876573733752593,B27T02,2022-10-12_09h19.12.749,t1_Paradigm,2021.1.4,59.9856251001476,
K,left,Distractor,0,47,47,47,1944.0845547061763,1946.0866408806178,left,1,4,0.5959545603836887,B27T02,2022-10-12_09h19.12.749,t1_Paradigm,2021.1.4,59.9856251001476,
X,right,Target,0,48,48,48,1947.5847078890656,1949.5863532817457,right,1,4,1.272155137208756,B27T02,2022-10-12_09h19.12.749,t1_Paradigm,2021.1.4,59.9856251001476,
B,left,Distractor,0,49,49,49,1951.0846993877785,1953.0838271275861,left,1,4,1.1508317269035615,B27T02,2022-10-12_09h19.12.749,t1_Paradigm,2021.1.4,59.9856251001476,
R,right,Target,0,50,50,50,1954.5846507863025,1956.5865765598137,right,1,4,0.8798058122047223,B27T02,2022-10-12_09h19.12.749,t1_Paradigm,2021.1.4,59.9856251001476,
Y,left,Pretarget,0,51,51,51,1958.0846217537182,1960.086701512162,left,1,4,0.7877523627830669,B27T02,2022-10-12_09h19.12.749,t1_Paradigm,2021.1.4,59.9856251001476,
W,left,Pretarget,0,52,52,52,1961.584705643414,1963.5850136132212,left,1,4,0.5054265237413347,B27T02,2022-10-12_09h19.12.749,t1_Paradigm,2021.1.4,59.9856251001476,
Z,left,Distractor,0,53,53,53,1965.084630094585,1967.0866626951029,right,0,4,0.8757547264685854,B27T02,2022-10-12_09h19.12.749,t1_Paradigm,2021.1.4,59.9856251001476,
Q,left,Distractor,0,54,54,54,1968.5846376334084,1970.5869124393794,left,1,4,1.055576995771844,B27T02,2022-10-12_09h19.12.749,t1_Paradigm,2021.1.4,59.9856251001476,
Y,right,Target,0,55,55,55,1972.08461501688,1974.086685792834,right,1,4,1.2038544983952306,B27T02,2022-10-12_09h19.12.749,t1_Paradigm,2021.1.4,59.9856251001476,
W,right,Target,0,56,56,56,1975.5846966609824,1977.586667988333,right,1,4,1.25583305984037,B27T02,2022-10-12_09h19.12.749,t1_Paradigm,2021.1.4,59.9856251001476,
H,left,Pretarget,0,57,57,57,1979.08466089156,1981.086575436988,left,1,4,0.4757125730975531,B27T02,2022-10-12_09h19.12.749,t1_Paradigm,2021.1.4,59.9856251001476,
M,left,Distractor,0,58,58,58,1982.5843697639066,1984.5870442889282,left,1,4,0.431273496709764,B27T02,2022-10-12_09h19.12.749,t1_Paradigm,2021.1.4,59.9856251001476,
R,left,Pretarget,0,59,59,59,1986.08461501688,1988.0865269959322,left,1,4,0.7080494638066739,B27T02,2022-10-12_09h19.12.749,t1_Paradigm,2021.1.4,59.9856251001476,
J,left,Distractor,0,60,60,60,1989.584579568298,1991.5859461841756,left,1,4,0.8562143649323843,B27T02,2022-10-12_09h19.12.749,t1_Paradigm,2021.1.4,59.9856251001476,
H,right,Target,0,61,61,61,1993.0847407712135,1995.0863855223288,right,1,4,0.9880581510951743,B27T02,2022-10-12_09h19.12.749,t1_Paradigm,2021.1.4,59.9856251001476,
Z,left,Distractor,0,62,62,62,1996.5845490921056,1998.5838218342979,left,1,4,0.5466370502253994,B27T02,2022-10-12_09h19.12.749,t1_Paradigm,2021.1.4,59.9856251001476,
R,right,Target,0,63,63,63,2000.0845954479882,2002.0866142540472,right,1,4,1.0119787410949357,B27T02,2022-10-12_09h19.12.749,t1_Paradigm,2021.1.4,59.9856251001476,
J,left,Pretarget,0,0,0,0,2028.2315140339197,2030.2337096018018,left,1,4,0.9447755654109642,B27T02,2022-10-12_09h19.12.749,t1_Paradigm,2021.1.4,59.9856251001476,
G,left,Pretarget,0,1,1,1,2031.7346509948256,2033.7365645778482,left,1,4,0.4658392544952221,B27T02,2022-10-12_09h19.12.749,t1_Paradigm,2021.1.4,59.9856251001476,
Z,left,Distractor,0,2,2,2,2035.2345257216948,2037.2367992444197,left,1,4,0.5656009308877401,B27T02,2022-10-12_09h19.12.749,t1_Paradigm,2021.1.4,59.9856251001476,
F,left,Distractor,0,3,3,3,2038.7337995867128,2040.7363336005365,left,1,4,0.45816310786176473,B27T02,2022-10-12_09h19.12.749,t1_Paradigm,2021.1.4,59.9856251001476,
J,right,Target,0,4,4,4,2042.2337217922905,2044.2364274350693,right,1,4,0.46213880518916994,B27T02,2022-10-12_09h19.12.749,t1_Paradigm,2021.1.4,59.9856251001476,
G,right,Target,0,5,5,5,2045.7345249197097,2047.7366428535315,right,1,4,0.43370934517588466,B27T02,2022-10-12_09h19.12.749,t1_Paradigm,2021.1.4,59.9856251001476,
H,left,Distractor,0,6,6,6,2049.2343547343044,2051.236496728263,left,1,4,0.5981405041529797,B27T02,2022-10-12_09h19.12.749,t1_Paradigm,2021.1.4,59.9856251001476,
P,left,Distractor,0,7,7,7,2052.7345826640376,2054.735962432809,left,1,4,0.634340105811134,B27T02,2022-10-12_09h19.12.749,t1_Paradigm,2021.1.4,59.9856251001476,
G,left,Lure,0,8,8,8,2056.2336797672324,2058.2369285275927,left,1,4,1.245591139944736,B27T02,2022-10-12_09h19.12.749,t1_Paradigm,2021.1.4,59.9856251001476,
S,left,Distractor,0,9,9,9,2059.7345781727927,2061.736693219398,left,1,4,0.7214856077334844,B27T02,2022-10-12_09h19.12.749,t1_Paradigm,2021.1.4,59.9856251001476,
R,left,Pretarget,0,10,10,10,2063.2345741628087,2065.236740216904,left,1,4,0.46963273640722036,B27T02,2022-10-12_09h19.12.749,t1_Paradigm,2021.1.4,59.9856251001476,
T,left,Pretarget,0,11,11,11,2066.7338047195226,2068.736645099125,left,1,4,0.44190326606621966,B27T02,2022-10-12_09h19.12.749,t1_Paradigm,2021.1.4,59.9856251001476,
X,left,Distractor,0,12,12,12,2070.23469574668,2072.236455986451,left,1,4,0.6699349959380925,B27T02,2022-10-12_09h19.12.749,t1_Paradigm,2021.1.4,59.9856251001476,
F,left,Pretarget,0,13,13,13,2073.7345399974147,2075.736897249415,left,1,4,0.5616499352618121,B27T02,2022-10-12_09h19.12.749,t1_Paradigm,2021.1.4,59.9856251001476,
R,right,Target,0,14,14,14,2077.234537591401,2079.2361175405094,left,0,4,0.9021589643671177,B27T02,2022-10-12_09h19.12.749,t1_Paradigm,2021.1.4,59.9856251001476,
T,right,Target,0,15,15,15,2080.7345371101983,2082.7360865831142,left,0,4,0.778487284493167,B27T02,2022-10-12_09h19.12.749,t1_Paradigm,2021.1.4,59.9856251001476,
C,left,Distractor,0,16,16,16,2084.234588919673,2086.2367065327126,left,1,4,0.909617286582943,B27T02,2022-10-12_09h19.12.749,t1_Paradigm,2021.1.4,59.9856251001476,
F,right,Target,0,17,17,17,2087.7344828946516,2089.736798121594,left,0,4,0.9296856879373081,B27T02,2022-10-12_09h19.12.749,t1_Paradigm,2021.1.4,59.9856251001476,
M,left,Distractor,0,18,18,18,2091.234672328166,2093.236152187106,left,1,4,0.5182050238363445,B27T02,2022-10-12_09h19.12.749,t1_Paradigm,2021.1.4,59.9856251001476,
N,left,Distractor,0,19,19,19,2094.7346259722835,2096.736687124183,left,1,4,0.37786127178696916,B27T02,2022-10-12_09h19.12.749,t1_Paradigm,2021.1.4,59.9856251001476,
R,left,Lure,0,20,20,20,2098.234622283082,2100.2364838962094,left,1,4,0.542059849423822,B27T02,2022-10-12_09h19.12.749,t1_Paradigm,2021.1.4,59.9856251001476,
F,right,Target,0,21,21,21,2101.7346083282027,2103.7365543122287,right,1,4,1.265814488637261,B27T02,2022-10-12_09h19.12.749,t1_Paradigm,2021.1.4,59.9856251001476,
P,left,Distractor,0,22,22,22,2105.2346200374304,2107.2364072245546,left,1,4,0.678116726281587,B27T02,2022-10-12_09h19.12.749,t1_Paradigm,2021.1.4,59.9856251001476,
L,left,Pretarget,0,23,23,23,2108.7345432054135,2110.736785610323,left,1,4,0.5535949215991423,B27T02,2022-10-12_09h19.12.749,t1_Paradigm,2021.1.4,59.9856251001476,
T,left,Distractor,0,24,24,24,2112.2345407994,2114.236739575281,left,1,4,0.49415611306903884,B27T02,2022-10-12_09h19.12.749,t1_Paradigm,2021.1.4,59.9856251001476,
F,left,Distractor,0,25,25,25,2115.734426754352,2117.7366245678277,right,0,4,0.9458573092124425,B27T02,2022-10-12_09h19.12.749,t1_Paradigm,2021.1.4,59.9856251001476,
V,left,Distractor,0,26,26,26,2119.2344439172302,2121.236249069276,left,1,4,0.5021174526191317,B27T02,2022-10-12_09h19.12.749,t1_Paradigm,2021.1.4,59.9856251001476,
L,right,Target,0,27,27,27,2122.734577531228,2124.7367772695143,right,1,4,0.6813699778867885,B27T02,2022-10-12_09h19.12.749,t1_Paradigm,2021.1.4,59.9856251001476,
S,left,Pretarget,0,28,28,28,2126.2345298921573,2128.2357643376454,left,1,4,0.7665656461613253,B27T02,2022-10-12_09h19.12.749,t1_Paradigm,2021.1.4,59.9856251001476,
W,left,Distractor,0,29,29,29,2129.7345268445206,2131.736594091635,left,1,4,0.6894990967703052,B27T02,2022-10-12_09h19.12.749,t1_Paradigm,2021.1.4,59.9856251001476,
Q,left,Distractor,0,30,30,30,2133.23369516572,2135.2367116655223,left,1,4,1.1897687307791784,B27T02,2022-10-12_09h19.12.749,t1_Paradigm,2021.1.4,59.9856251001476,
L,right,Target,0,31,31,31,2136.7340433961363,2138.736467374896,left,0,4,0.4420315867755562,B27T02,2022-10-12_09h19.12.749,t1_Paradigm,2021.1.4,59.9856251001476,
S,right,Target,0,32,32,32,2140.2346017517266,2142.2363770692027,left,0,4,0.9421478774747811,B27T02,2022-10-12_09h19.12.749,t1_Paradigm,2021.1.4,59.9856251001476,
Z,left,Pretarget,0,33,33,33,2143.7345374309807,2145.736473149329,left,1,4,1.1219579563476145,B27T02,2022-10-12_09h19.12.749,t1_Paradigm,2021.1.4,59.9856251001476,
F,left,Distractor,0,34,34,34,2147.2343402982224,2149.2366317858687,left,1,4,0.5816894644522108,B27T02,2022-10-12_09h19.12.749,t1_Paradigm,2021.1.4,59.9856251001476,
V,left,Distractor,0,35,35,35,2150.734467496164,2152.736752888537,left,1,4,0.7457526637008414,B27T02,2022-10-12_09h19.12.749,t1_Paradigm,2021.1.4,59.9856251001476,
M,left,Distractor,0,36,36,36,2154.23364415823,2156.2364964074804,left,1,4,0.8942884117714129,B27T02,2022-10-12_09h19.12.749,t1_Paradigm,2021.1.4,59.9856251001476,
Z,right,Target,0,37,37,37,2157.7345175412484,2159.7364830942242,right,1,4,0.4658402169588953,B27T02,2022-10-12_09h19.12.749,t1_Paradigm,2021.1.4,59.9856251001476,
H,left,Pretarget,0,38,38,38,2161.2345173808862,2163.247331810766,left,1,4,0.6193663586163893,B27T02,2022-10-12_09h19.12.749,t1_Paradigm,2021.1.4,59.9856251001476,
L,left,Distractor,0,39,39,39,2164.7342451805016,2166.7364644876798,left,1,4,0.7139435562421568,B27T02,2022-10-12_09h19.12.749,t1_Paradigm,2021.1.4,59.9856251001476,
G,left,Distractor,0,40,40,40,2168.234489150287,2170.2359119065222,left,1,4,0.6384399534435943,B27T02,2022-10-12_09h19.12.749,t1_Paradigm,2021.1.4,59.9856251001476,
K,left,Distractor,0,41,41,41,2171.7345807392267,2173.7364372195443,left,1,4,0.6577092373627238,B27T02,2022-10-12_09h19.12.749,t1_Paradigm,2021.1.4,59.9856251001476,
H,right,Target,0,42,42,42,2175.2345706339693,2177.233697411313,left,0,4,0.584607798838988,B27T02,2022-10-12_09h19.12.749,t1_Paradigm,2021.1.4,59.9856251001476,
B,left,Distractor,0,43,43,43,2178.7344402280287,2180.7361911645276,left,1,4,0.82614272023784,B27T02,2022-10-12_09h19.12.749,t1_Paradigm,2021.1.4,59.9856251001476,
Z,left,Distractor,0,44,44,44,2182.234393872146,2184.23671134474,left,1,4,0.5896588240284473,B27T02,2022-10-12_09h19.12.749,t1_Paradigm,2021.1.4,59.9856251001476,
T,left,Pretarget,0,45,45,45,2185.7337277270854,2187.7364032145124,left,1,4,0.514166449313052,B27T02,2022-10-12_09h19.12.749,t1_Paradigm,2021.1.4,59.9856251001476,
H,right,Target,0,46,46,46,2189.2345542730764,2191.236169189564,right,1,4,0.5181334849912673,B27T02,2022-10-12_09h19.12.749,t1_Paradigm,2021.1.4,59.9856251001476,
F,left,Distractor,0,47,47,47,2192.734658373287,2194.7361215504934,left,1,4,0.5062028641696088,B27T02,2022-10-12_09h19.12.749,t1_Paradigm,2021.1.4,59.9856251001476,
R,left,Distractor,0,48,48,48,2196.234461561311,2198.2360960467486,left,1,4,0.44637524388963357,B27T02,2022-10-12_09h19.12.749,t1_Paradigm,2021.1.4,59.9856251001476,
T,right,Target,0,49,49,49,2199.734419375891,2201.73633071332,right,1,4,0.38595702731981874,B27T02,2022-10-12_09h19.12.749,t1_Paradigm,2021.1.4,59.9856251001476,
H,right,Target,0,50,50,50,2203.234504227992,2205.2362917358987,right,1,4,0.6143538297037594,B27T02,2022-10-12_09h19.12.749,t1_Paradigm,2021.1.4,59.9856251001476,
Y,left,Pretarget,0,51,51,51,2206.734506634006,2208.736441069166,left,1,4,0.5858573220903054,B27T02,2022-10-12_09h19.12.749,t1_Paradigm,2021.1.4,59.9856251001476,
H,left,Distractor,0,52,52,52,2210.2342347544036,2212.2366218409734,left,1,4,1.0537699189735577,B27T02,2022-10-12_09h19.12.749,t1_Paradigm,2021.1.4,59.9856251001476,
S,left,Distractor,0,53,53,53,2213.7344848194625,2215.736398402485,left,1,4,0.4658931492595002,B27T02,2022-10-12_09h19.12.749,t1_Paradigm,2021.1.4,59.9856251001476,
Q,left,Distractor,0,54,54,54,2217.234475355828,2219.236731876037,left,1,4,0.6941279466846026,B27T02,2022-10-12_09h19.12.749,t1_Paradigm,2021.1.4,59.9856251001476,
Y,right,Target,0,55,55,55,2220.734479365812,2222.7348813305725,left,0,4,0.5554231713176705,B27T02,2022-10-12_09h19.12.749,t1_Paradigm,2021.1.4,59.9856251001476,
R,left,Distractor,0,56,56,56,2224.234510002425,2226.236290452711,left,1,4,1.133982572122477,B27T02,2022-10-12_09h19.12.749,t1_Paradigm,2021.1.4,59.9856251001476,
H,left,Pretarget,0,57,57,57,2227.7345050299773,2229.7359614704037,left,1,4,0.8022795537835918,B27T02,2022-10-12_09h19.12.749,t1_Paradigm,2021.1.4,59.9856251001476,
J,left,Distractor,0,58,58,58,2231.234457711689,2233.236524958862,left,1,4,0.5817363014793955,B27T02,2022-10-12_09h19.12.749,t1_Paradigm,2021.1.4,59.9856251001476,
V,left,Distractor,0,59,59,59,2234.7335801582667,2236.7365093999542,left,1,4,0.6337206374155357,B27T02,2022-10-12_09h19.12.749,t1_Paradigm,2021.1.4,59.9856251001476,
Y,left,Lure,0,60,60,60,2238.234586994862,2240.2367998860427,left,1,4,0.861694302118849,B27T02,2022-10-12_09h19.12.749,t1_Paradigm,2021.1.4,59.9856251001476,
H,right,Target,0,61,61,61,2241.734461400949,2243.736608527717,right,1,4,0.6574593327241018,B27T02,2022-10-12_09h19.12.749,t1_Paradigm,2021.1.4,59.9856251001476,
L,left,Distractor,0,62,62,62,2245.234408949851,2247.236337289738,left,1,4,0.7259409038233571,B27T02,2022-10-12_09h19.12.749,t1_Paradigm,2021.1.4,59.9856251001476,
P,left,Distractor,0,63,63,63,2248.733581120672,2250.7362132998533,left,1,4,0.5380873600952327,B27T02,2022-10-12_09h19.12.749,t1_Paradigm,2021.1.4,59.9856251001476,
