Letter,CorrAnswer,Stimulus,nback_run.thisRepN,nback_run.thisTrialN,nback_run.thisN,nback_run.thisIndex,fixcross.started,nback_trial.started,trial_resp.keys,trial_resp.corr,currentlevel,trial_resp.rt,Participant,date,expName,psychopyVersion,frameRate,
H,left,Distractor,0,0,0,0,494.6425078355833,496.5870168324682,None,0,1,,B31N11,2023-01-10_12h19.21.338,t1_Paradigm,2021.1.4,60.05683569694845,
Q,left,Pretarget,0,1,1,1,498.086175690285,500.08882807913596,left,1,1,0.7411550146125592,B31N11,2023-01-10_12h19.21.338,t1_Paradigm,2021.1.4,60.05683569694845,
Q,right,Target,0,2,2,2,501.585631610521,503.58612404120413,right,1,1,0.8599071599746821,B31N11,2023-01-10_12h19.21.338,t1_Paradigm,2021.1.4,60.05683569694845,
T,left,Distractor,0,3,3,3,505.0860326127058,507.0878650322893,left,1,1,0.7982339863783636,B31N11,2023-01-10_12h19.21.338,t1_Paradigm,2021.1.4,60.05683569694845,
Q,left,Lure,0,4,4,4,508.5859360513796,510.58698603550056,right,0,1,1.3153266242989048,B31N11,2023-01-10_12h19.21.338,t1_Paradigm,2021.1.4,60.05683569694845,
L,left,Distractor,0,5,5,5,512.086015931015,514.0879885409622,left,1,1,1.2539546835450892,B31N11,2023-01-10_12h19.21.338,t1_Paradigm,2021.1.4,60.05683569694845,
V,left,Pretarget,0,6,6,6,515.5857240014248,517.587422325877,left,1,1,0.8746172033152106,B31N11,2023-01-10_12h19.21.338,t1_Paradigm,2021.1.4,60.05683569694845,
V,right,Target,0,7,7,7,519.0862590987399,521.0860849033907,None,0,1,,B31N11,2023-01-10_12h19.21.338,t1_Paradigm,2021.1.4,60.05683569694845,
K,left,Distractor,0,8,8,8,522.585861304573,524.5879827665303,left,1,1,0.737932881857887,B31N11,2023-01-10_12h19.21.338,t1_Paradigm,2021.1.4,60.05683569694845,
G,left,Pretarget,0,9,9,9,526.0862446626616,528.0876574735585,left,1,1,0.8702020088603604,B31N11,2023-01-10_12h19.21.338,t1_Paradigm,2021.1.4,60.05683569694845,
G,right,Target,0,10,10,10,529.5856293649094,531.5858885727212,right,1,1,0.8119614139650366,B31N11,2023-01-10_12h19.21.338,t1_Paradigm,2021.1.4,60.05683569694845,
G,right,Target,0,11,11,11,533.0857596104188,535.0860531440176,right,1,1,0.7198162447593859,B31N11,2023-01-10_12h19.21.338,t1_Paradigm,2021.1.4,60.05683569694845,
P,left,Pretarget,0,12,12,12,536.5858520013217,538.5877229171147,left,1,1,0.7861920511750213,B31N11,2023-01-10_12h19.21.338,t1_Paradigm,2021.1.4,60.05683569694845,
P,right,Target,0,13,13,13,540.0859341265696,542.0860903570201,right,1,1,0.9999082507001731,B31N11,2023-01-10_12h19.21.338,t1_Paradigm,2021.1.4,60.05683569694845,
G,left,Lure,0,14,14,14,543.5858407732612,545.5883872975346,left,1,1,1.081491663966517,B31N11,2023-01-10_12h19.21.338,t1_Paradigm,2021.1.4,60.05683569694845,
Y,left,Distractor,0,15,15,15,547.0859658859426,549.0877171426837,left,1,1,1.0542459715325094,B31N11,2023-01-10_12h19.21.338,t1_Paradigm,2021.1.4,60.05683569694845,
B,left,Distractor,0,16,16,16,550.5858372444418,552.5879189269826,left,1,1,0.8339064991223495,B31N11,2023-01-10_12h19.21.338,t1_Paradigm,2021.1.4,60.05683569694845,
T,left,Pretarget,0,17,17,17,554.0862222065389,556.0877431276249,left,1,1,1.0622727520621993,B31N11,2023-01-10_12h19.21.338,t1_Paradigm,2021.1.4,60.05683569694845,
T,right,Target,0,18,18,18,557.5860342167143,559.5857480615559,right,1,1,0.7802976398616011,B31N11,2023-01-10_12h19.21.338,t1_Paradigm,2021.1.4,60.05683569694845,
S,left,Distractor,0,19,19,19,561.08589755517,563.087658435963,left,1,1,0.9583621787569427,B31N11,2023-01-10_12h19.21.338,t1_Paradigm,2021.1.4,60.05683569694845,
T,left,Lure,0,20,20,20,564.585898838377,566.5880337740082,left,1,1,0.9142124798290752,B31N11,2023-01-10_12h19.21.338,t1_Paradigm,2021.1.4,60.05683569694845,
J,left,Distractor,0,21,21,21,568.0861067179094,570.0881983453046,left,1,1,0.7096862879716355,B31N11,2023-01-10_12h19.21.338,t1_Paradigm,2021.1.4,60.05683569694845,
P,left,Distractor,0,22,22,22,571.5849515108157,573.5869340656172,left,1,1,0.6669359262668877,B31N11,2023-01-10_12h19.21.338,t1_Paradigm,2021.1.4,60.05683569694845,
F,left,Distractor,0,23,23,23,575.0859065376189,577.0881576034826,left,1,1,0.6377291727485499,B31N11,2023-01-10_12h19.21.338,t1_Paradigm,2021.1.4,60.05683569694845,
L,left,Distractor,0,24,24,24,578.5858542469341,580.5884402298225,left,1,1,0.7215100779867498,B31N11,2023-01-10_12h19.21.338,t1_Paradigm,2021.1.4,60.05683569694845,
W,left,Pretarget,0,25,25,25,582.0859819260295,584.0885752873583,left,1,1,0.5974220371545016,B31N11,2023-01-10_12h19.21.338,t1_Paradigm,2021.1.4,60.05683569694845,
W,right,Target,0,26,26,26,585.5858221667595,587.5859084624299,right,1,1,0.7162960871810355,B31N11,2023-01-10_12h19.21.338,t1_Paradigm,2021.1.4,60.05683569694845,
V,left,Distractor,0,27,27,27,589.0861067179094,591.0877428068234,left,1,1,0.702084248954634,B31N11,2023-01-10_12h19.21.338,t1_Paradigm,2021.1.4,60.05683569694845,
W,left,Lure,0,28,28,28,592.5858683622109,594.5880928015295,left,1,1,1.153770864143553,B31N11,2023-01-10_12h19.21.338,t1_Paradigm,2021.1.4,60.05683569694845,
R,left,Pretarget,0,29,29,29,596.0859235401113,598.0890282594264,left,1,1,0.8210253465458663,B31N11,2023-01-10_12h19.21.338,t1_Paradigm,2021.1.4,60.05683569694845,
R,right,Target,0,30,30,30,599.5859341265696,601.5857284926487,right,1,1,0.8121250228568897,B31N11,2023-01-10_12h19.21.338,t1_Paradigm,2021.1.4,60.05683569694845,
G,left,Distractor,0,31,31,31,603.0859562618898,605.0870591782987,left,1,1,0.606897237576959,B31N11,2023-01-10_12h19.21.338,t1_Paradigm,2021.1.4,60.05683569694845,
R,left,Lure,0,32,32,32,606.5858529637271,608.5875682906726,left,1,1,1.1063570074329618,B31N11,2023-01-10_12h19.21.338,t1_Paradigm,2021.1.4,60.05683569694845,
S,left,Distractor,0,33,33,33,610.0857313798651,612.0863389783754,left,1,1,0.8233033597562098,B31N11,2023-01-10_12h19.21.338,t1_Paradigm,2021.1.4,60.05683569694845,
R,left,Lure,0,34,34,34,613.5858272995874,615.5878214032509,left,1,1,0.9061225013556395,B31N11,2023-01-10_12h19.21.338,t1_Paradigm,2021.1.4,60.05683569694845,
P,left,Pretarget,0,35,35,35,617.0860457655772,619.0878945460499,left,1,1,0.7981159313349053,B31N11,2023-01-10_12h19.21.338,t1_Paradigm,2021.1.4,60.05683569694845,
P,right,Target,0,36,36,36,620.5859697355636,622.5859164824733,right,1,1,0.9800714746297672,B31N11,2023-01-10_12h19.21.338,t1_Paradigm,2021.1.4,60.05683569694845,
Y,left,Pretarget,0,37,37,37,624.0858289035959,626.0877524308753,left,1,1,0.5981691844262969,B31N11,2023-01-10_12h19.21.338,t1_Paradigm,2021.1.4,60.05683569694845,
Y,right,Target,0,38,38,38,627.5859158408693,629.5859094248344,right,1,1,0.7480715002930083,B31N11,2023-01-10_12h19.21.338,t1_Paradigm,2021.1.4,60.05683569694845,
J,left,Distractor,0,39,39,39,631.086059239251,633.0875256240397,left,1,1,0.7662753954682557,B31N11,2023-01-10_12h19.21.338,t1_Paradigm,2021.1.4,60.05683569694845,
Y,left,Lure,0,40,40,40,634.5857698760747,636.5873337845951,left,1,1,0.738469262380022,B31N11,2023-01-10_12h19.21.338,t1_Paradigm,2021.1.4,60.05683569694845,
T,left,Distractor,0,41,41,41,638.0859322017586,640.0880597589494,left,1,1,0.7257459442644176,B31N11,2023-01-10_12h19.21.338,t1_Paradigm,2021.1.4,60.05683569694845,
V,left,Distractor,0,42,42,42,641.5859305977501,643.5876244309784,left,1,1,0.7463061282760464,B31N11,2023-01-10_12h19.21.338,t1_Paradigm,2021.1.4,60.05683569694845,
N,left,Pretarget,0,43,43,43,645.0858998007825,647.0876346966343,left,1,1,0.638158726288566,B31N11,2023-01-10_12h19.21.338,t1_Paradigm,2021.1.4,60.05683569694845,
N,right,Target,0,44,44,44,648.5858086930857,650.5857788585236,right,1,1,0.7079449760840362,B31N11,2023-01-10_12h19.21.338,t1_Paradigm,2021.1.4,60.05683569694845,
N,right,Target,0,45,45,45,652.0861173043677,654.085935088975,right,1,1,0.5198207359835578,B31N11,2023-01-10_12h19.21.338,t1_Paradigm,2021.1.4,60.05683569694845,
X,left,Distractor,0,46,46,46,655.5857990690338,657.5877209923046,left,1,1,0.6819093478416107,B31N11,2023-01-10_12h19.21.338,t1_Paradigm,2021.1.4,60.05683569694845,
Z,left,Distractor,0,47,47,47,659.0859844924435,661.0881855132347,left,1,1,0.6376059848771547,B31N11,2023-01-10_12h19.21.338,t1_Paradigm,2021.1.4,60.05683569694845,
H,left,Pretarget,0,48,48,48,662.5857685928677,664.5871692132978,left,1,1,0.594771893917823,B31N11,2023-01-10_12h19.21.338,t1_Paradigm,2021.1.4,60.05683569694845,
H,right,Target,0,49,49,49,666.0859601115108,668.0859552994843,right,1,1,0.6639447707711952,B31N11,2023-01-10_12h19.21.338,t1_Paradigm,2021.1.4,60.05683569694845,
K,left,Distractor,0,50,50,50,669.5859055752135,671.5877582053072,left,1,1,0.5857981066274078,B31N11,2023-01-10_12h19.21.338,t1_Paradigm,2021.1.4,60.05683569694845,
V,left,Pretarget,0,51,51,51,673.0859681315542,675.0868278802382,left,1,1,0.7828977380268043,B31N11,2023-01-10_12h19.21.338,t1_Paradigm,2021.1.4,60.05683569694845,
V,right,Target,0,52,52,52,676.5858866479111,678.5857929738004,right,1,1,0.7719760425252389,B31N11,2023-01-10_12h19.21.338,t1_Paradigm,2021.1.4,60.05683569694845,
R,left,Distractor,0,53,53,53,680.085824412372,682.0876128821155,left,1,1,0.7422871239805318,B31N11,2023-01-10_12h19.21.338,t1_Paradigm,2021.1.4,60.05683569694845,
V,left,Lure,0,54,54,54,683.5858815150823,685.6022254017244,left,1,1,1.1796021416721487,B31N11,2023-01-10_12h19.21.338,t1_Paradigm,2021.1.4,60.05683569694845,
Y,left,Distractor,0,55,55,55,687.08597454759,689.0883674078259,left,1,1,0.6055113740258093,B31N11,2023-01-10_12h19.21.338,t1_Paradigm,2021.1.4,60.05683569694845,
Q,left,Distractor,0,56,56,56,690.5857159813813,692.5864907176019,left,1,1,0.739318424607518,B31N11,2023-01-10_12h19.21.338,t1_Paradigm,2021.1.4,60.05683569694845,
Z,left,Pretarget,0,57,57,57,694.0858706078234,696.0872394688813,left,1,1,0.6305804266021369,B31N11,2023-01-10_12h19.21.338,t1_Paradigm,2021.1.4,60.05683569694845,
Z,right,Target,0,58,58,58,697.5854843625193,699.5858686830124,right,1,1,0.7320817787822307,B31N11,2023-01-10_12h19.21.338,t1_Paradigm,2021.1.4,60.05683569694845,
B,left,Distractor,0,59,59,59,701.0857698760747,703.0879442703208,left,1,1,0.8619080004746138,B31N11,2023-01-10_12h19.21.338,t1_Paradigm,2021.1.4,60.05683569694845,
S,left,Pretarget,0,60,60,60,704.5852652549256,706.5872462057177,left,1,1,0.5305085670106564,B31N11,2023-01-10_12h19.21.338,t1_Paradigm,2021.1.4,60.05683569694845,
S,right,Target,0,61,61,61,708.08597454759,710.0857961818183,right,1,1,0.6801125372530805,B31N11,2023-01-10_12h19.21.338,t1_Paradigm,2021.1.4,60.05683569694845,
T,left,Distractor,0,62,62,62,711.5859305977501,713.5874954686751,left,1,1,0.5066883956387755,B31N11,2023-01-10_12h19.21.338,t1_Paradigm,2021.1.4,60.05683569694845,
D,left,Distractor,0,63,63,63,715.0856024175619,717.0880382652331,left,1,1,0.49415370894894295,B31N11,2023-01-10_12h19.21.338,t1_Paradigm,2021.1.4,60.05683569694845,
R,left,Distractor,0,0,0,0,735.1217894963092,737.1204495074089,None,0,1,,B31N11,2023-01-10_12h19.21.338,t1_Paradigm,2021.1.4,60.05683569694845,
V,left,Distractor,0,1,1,1,738.6189744609728,740.6207064696091,left,1,1,0.73702372970547,B31N11,2023-01-10_12h19.21.338,t1_Paradigm,2021.1.4,60.05683569694845,
N,left,Pretarget,0,2,2,2,742.1187765262948,744.1206901087198,left,1,1,0.6131981047028603,B31N11,2023-01-10_12h19.21.338,t1_Paradigm,2021.1.4,60.05683569694845,
N,right,Target,0,3,3,3,745.6191355034507,747.6191159345435,right,1,1,0.6989108780662718,B31N11,2023-01-10_12h19.21.338,t1_Paradigm,2021.1.4,60.05683569694845,
S,left,Distractor,0,4,4,4,749.1189888970521,751.1197190418297,left,1,1,0.7499138647308428,B31N11,2023-01-10_12h19.21.338,t1_Paradigm,2021.1.4,60.05683569694845,
N,left,Lure,0,5,5,5,752.6186902306245,754.6196879240597,left,1,1,0.9141736628180297,B31N11,2023-01-10_12h19.21.338,t1_Paradigm,2021.1.4,60.05683569694845,
Z,left,Distractor,0,6,6,6,756.1190075035529,758.1207770459932,left,1,1,0.7889974624586102,B31N11,2023-01-10_12h19.21.338,t1_Paradigm,2021.1.4,60.05683569694845,
L,left,Pretarget,0,7,7,7,759.6190007667165,761.6182420705827,left,1,1,0.6674097504483143,B31N11,2023-01-10_12h19.21.338,t1_Paradigm,2021.1.4,60.05683569694845,
L,right,Target,0,8,8,8,763.1190889871968,765.119154430754,right,1,1,0.7666237861658374,B31N11,2023-01-10_12h19.21.338,t1_Paradigm,2021.1.4,60.05683569694845,
H,left,Distractor,0,9,9,9,766.6190264308561,768.6206160035163,left,1,1,0.6730321218792596,B31N11,2023-01-10_12h19.21.338,t1_Paradigm,2021.1.4,60.05683569694845,
L,left,Lure,0,10,10,10,770.1186934386424,772.120289106535,left,1,1,0.6775220631398042,B31N11,2023-01-10_12h19.21.338,t1_Paradigm,2021.1.4,60.05683569694845,
X,left,Pretarget,0,11,11,11,773.618801228029,775.6205444647267,left,1,1,0.5849941774486069,B31N11,2023-01-10_12h19.21.338,t1_Paradigm,2021.1.4,60.05683569694845,
X,right,Target,0,12,12,12,777.1190184108127,779.119039262926,right,1,1,0.6866414944233838,B31N11,2023-01-10_12h19.21.338,t1_Paradigm,2021.1.4,60.05683569694845,
X,right,Target,0,13,13,13,780.6189581000835,782.6190411877369,right,1,1,0.7226316008973299,B31N11,2023-01-10_12h19.21.338,t1_Paradigm,2021.1.4,60.05683569694845,
R,left,Distractor,0,14,14,14,784.1188397242395,786.1206577077437,left,1,1,0.5971544884978357,B31N11,2023-01-10_12h19.21.338,t1_Paradigm,2021.1.4,60.05683569694845,
T,left,Distractor,0,15,15,15,787.6189510424456,789.6207876324515,left,1,1,0.5687057895092948,B31N11,2023-01-10_12h19.21.338,t1_Paradigm,2021.1.4,60.05683569694845,
V,left,Pretarget,0,16,16,16,791.1189298695299,793.1201736179064,left,1,1,0.5254536938718957,B31N11,2023-01-10_12h19.21.338,t1_Paradigm,2021.1.4,60.05683569694845,
V,right,Target,0,17,17,17,794.6190639646611,796.6188179097198,right,1,1,0.49888778034073766,B31N11,2023-01-10_12h19.21.338,t1_Paradigm,2021.1.4,60.05683569694845,
N,left,Distractor,0,18,18,18,798.1187438045163,800.1208601336466,left,1,1,0.6767925599660884,B31N11,2023-01-10_12h19.21.338,t1_Paradigm,2021.1.4,60.05683569694845,
B,left,Distractor,0,19,19,19,801.618843894662,803.6195275231858,left,1,1,0.5379357690744655,B31N11,2023-01-10_12h19.21.338,t1_Paradigm,2021.1.4,60.05683569694845,
V,left,Lure,0,20,20,20,805.1189282655214,807.120630760397,left,1,1,0.8611162617617083,B31N11,2023-01-10_12h19.21.338,t1_Paradigm,2021.1.4,60.05683569694845,
P,left,Distractor,0,21,21,21,808.6184313436142,810.6210205345205,left,1,1,0.7044716555610648,B31N11,2023-01-10_12h19.21.338,t1_Paradigm,2021.1.4,60.05683569694845,
K,left,Pretarget,0,22,22,22,812.1189824810172,814.1206849758919,left,1,1,0.5168969488540824,B31N11,2023-01-10_12h19.21.338,t1_Paradigm,2021.1.4,60.05683569694845,
K,right,Target,0,23,23,23,815.6189754233783,817.619034771702,right,1,1,0.7145913466929414,B31N11,2023-01-10_12h19.21.338,t1_Paradigm,2021.1.4,60.05683569694845,
J,left,Pretarget,0,24,24,24,819.1190328468911,821.118137489213,left,1,1,0.5756495433388409,B31N11,2023-01-10_12h19.21.338,t1_Paradigm,2021.1.4,60.05683569694845,
J,right,Target,0,25,25,25,822.6191207465699,824.6190524157983,right,1,1,0.7066701099383863,B31N11,2023-01-10_12h19.21.338,t1_Paradigm,2021.1.4,60.05683569694845,
H,left,Distractor,0,26,26,26,826.1190344508996,828.1207093568246,left,1,1,0.7090719526240719,B31N11,2023-01-10_12h19.21.338,t1_Paradigm,2021.1.4,60.05683569694845,
J,left,Lure,0,27,27,27,829.619069097489,831.6210205345205,left,1,1,1.1766283094702885,B31N11,2023-01-10_12h19.21.338,t1_Paradigm,2021.1.4,60.05683569694845,
V,left,Distractor,0,28,28,28,833.1190267516577,835.1192750522105,left,1,1,0.6863620761005222,B31N11,2023-01-10_12h19.21.338,t1_Paradigm,2021.1.4,60.05683569694845,
Z,left,Pretarget,0,29,29,29,836.618959704093,838.6196795832147,left,1,1,0.5782037668541307,B31N11,2023-01-10_12h19.21.338,t1_Paradigm,2021.1.4,60.05683569694845,
Z,right,Target,0,30,30,30,840.1188833532769,842.1190280348646,right,1,1,0.8226473201830231,B31N11,2023-01-10_12h19.21.338,t1_Paradigm,2021.1.4,60.05683569694845,
T,left,Distractor,0,31,31,31,843.618730010041,845.6202387406611,left,1,1,0.9534231150491905,B31N11,2023-01-10_12h19.21.338,t1_Paradigm,2021.1.4,60.05683569694845,
Z,left,Lure,0,32,32,32,847.1189119046321,849.1201672018715,left,1,1,1.2456430310630822,B31N11,2023-01-10_12h19.21.338,t1_Paradigm,2021.1.4,60.05683569694845,
F,left,Distractor,0,33,33,33,850.6189019597778,852.6208591712411,left,1,1,0.6567488667678845,B31N11,2023-01-10_12h19.21.338,t1_Paradigm,2021.1.4,60.05683569694845,
Y,left,Pretarget,0,34,34,34,854.1189067718042,856.1194547011892,left,1,1,0.5341884838589976,B31N11,2023-01-10_12h19.21.338,t1_Paradigm,2021.1.4,60.05683569694845,
Y,right,Target,0,35,35,35,857.6189070926057,859.6187200651875,right,1,1,0.7949040642379259,B31N11,2023-01-10_12h19.21.338,t1_Paradigm,2021.1.4,60.05683569694845,
Y,right,Target,0,36,36,36,861.1189240950989,863.118957137679,right,1,1,0.7026607296957081,B31N11,2023-01-10_12h19.21.338,t1_Paradigm,2021.1.4,60.05683569694845,
W,left,Distractor,0,37,37,37,864.6188888069064,866.620522008604,left,1,1,0.6890706052572568,B31N11,2023-01-10_12h19.21.338,t1_Paradigm,2021.1.4,60.05683569694845,
Q,left,Distractor,0,38,38,38,868.11864724319,870.1203086754422,left,1,1,0.6134881094831144,B31N11,2023-01-10_12h19.21.338,t1_Paradigm,2021.1.4,60.05683569694845,
P,left,Pretarget,0,39,39,39,871.6186584712514,873.6189051677957,left,1,1,0.5545212194319902,B31N11,2023-01-10_12h19.21.338,t1_Paradigm,2021.1.4,60.05683569694845,
P,right,Target,0,40,40,40,875.1186911930299,877.1190328468911,right,1,1,0.6226210144395736,B31N11,2023-01-10_12h19.21.338,t1_Paradigm,2021.1.4,60.05683569694845,
J,left,Distractor,0,41,41,41,878.6188766164405,880.6209743390682,left,1,1,0.6726247036585846,B31N11,2023-01-10_12h19.21.338,t1_Paradigm,2021.1.4,60.05683569694845,
P,left,Lure,0,42,42,42,882.1189218494865,884.1193985608834,left,1,1,1.1581773969501228,B31N11,2023-01-10_12h19.21.338,t1_Paradigm,2021.1.4,60.05683569694845,
L,left,Distractor,0,43,43,43,885.6188679547931,887.6207456074226,left,1,1,0.6168359965231502,B31N11,2023-01-10_12h19.21.338,t1_Paradigm,2021.1.4,60.05683569694845,
Z,left,Distractor,0,44,44,44,889.1189077342096,891.121258890219,left,1,1,0.5884273977526391,B31N11,2023-01-10_12h19.21.338,t1_Paradigm,2021.1.4,60.05683569694845,
F,left,Pretarget,0,45,45,45,892.6189199246764,894.6207022991866,left,1,1,0.6889053923559914,B31N11,2023-01-10_12h19.21.338,t1_Paradigm,2021.1.4,60.05683569694845,
F,right,Target,0,46,46,46,896.1188878445009,898.1188993933638,right,1,1,1.142616908176933,B31N11,2023-01-10_12h19.21.338,t1_Paradigm,2021.1.4,60.05683569694845,
G,left,Pretarget,0,47,47,47,899.6189147918476,901.6208659080776,left,1,1,0.712915157561838,B31N11,2023-01-10_12h19.21.338,t1_Paradigm,2021.1.4,60.05683569694845,
G,right,Target,0,48,48,48,903.1189096590197,905.1188179097198,right,1,1,0.862877784158627,B31N11,2023-01-10_12h19.21.338,t1_Paradigm,2021.1.4,60.05683569694845,
V,left,Distractor,0,49,49,49,906.6188602555512,908.6193440245861,left,1,1,0.5783336915619657,B31N11,2023-01-10_12h19.21.338,t1_Paradigm,2021.1.4,60.05683569694845,
G,left,Lure,0,50,50,50,910.1189892178536,912.1188589723442,left,1,1,1.062889012218875,B31N11,2023-01-10_12h19.21.338,t1_Paradigm,2021.1.4,60.05683569694845,
Q,left,Pretarget,0,51,51,51,913.6192564457097,915.6195114830989,left,1,1,0.6499475489135875,B31N11,2023-01-10_12h19.21.338,t1_Paradigm,2021.1.4,60.05683569694845,
Q,right,Target,0,52,52,52,917.1189654785239,919.1189311527369,right,1,1,0.9107195904007312,B31N11,2023-01-10_12h19.21.338,t1_Paradigm,2021.1.4,60.05683569694845,
Y,left,Distractor,0,53,53,53,920.6188137392974,922.6202313622207,left,1,1,0.5933250780353774,B31N11,2023-01-10_12h19.21.338,t1_Paradigm,2021.1.4,60.05683569694845,
V,left,Distractor,0,54,54,54,924.1188243257548,926.1206958831517,left,1,1,0.772967640727984,B31N11,2023-01-10_12h19.21.338,t1_Paradigm,2021.1.4,60.05683569694845,
B,left,Distractor,0,55,55,55,927.6188124560904,929.6202640839992,left,1,1,0.6010567209568762,B31N11,2023-01-10_12h19.21.338,t1_Paradigm,2021.1.4,60.05683569694845,
J,left,Pretarget,0,56,56,56,931.1187829423297,933.1207796124072,left,1,1,0.8289719266385873,B31N11,2023-01-10_12h19.21.338,t1_Paradigm,2021.1.4,60.05683569694845,
J,right,Target,0,57,57,57,934.6188644259737,936.6189337191508,right,1,1,0.8345519522390532,B31N11,2023-01-10_12h19.21.338,t1_Paradigm,2021.1.4,60.05683569694845,
H,left,Distractor,0,58,58,58,938.1186366567326,940.1202336078331,left,1,1,0.5492738652437765,B31N11,2023-01-10_12h19.21.338,t1_Paradigm,2021.1.4,60.05683569694845,
J,left,Lure,0,59,59,59,941.6189850474311,943.6197655580827,left,1,1,0.8099920120366733,B31N11,2023-01-10_12h19.21.338,t1_Paradigm,2021.1.4,60.05683569694845,
D,left,Pretarget,0,60,60,60,945.1188278545742,947.1207683843468,left,1,1,0.6368110381472434,B31N11,2023-01-10_12h19.21.338,t1_Paradigm,2021.1.4,60.05683569694845,
D,right,Target,0,61,61,61,948.6188666715861,950.6187880751577,right,1,1,0.6585116723717874,B31N11,2023-01-10_12h19.21.338,t1_Paradigm,2021.1.4,60.05683569694845,
R,left,Distractor,0,62,62,62,952.1188551227233,954.1200318235333,left,1,1,0.549453193420959,B31N11,2023-01-10_12h19.21.338,t1_Paradigm,2021.1.4,60.05683569694845,
F,left,Distractor,0,63,63,63,955.6188435738604,957.6195101998919,left,1,1,0.5698112723321174,B31N11,2023-01-10_12h19.21.338,t1_Paradigm,2021.1.4,60.05683569694845,
F,left,Distractor,0,0,0,0,1158.8546771290812,1160.8520301938606,None,0,2,,B31N11,2023-01-10_12h19.21.338,t1_Paradigm,2021.1.4,60.05683569694845,
N,left,Pretarget,0,1,1,1,1162.3519349157414,1164.3526227146886,None,0,2,,B31N11,2023-01-10_12h19.21.338,t1_Paradigm,2021.1.4,60.05683569694845,
V,left,Distractor,0,2,2,2,1165.8517713068504,1167.8538164179918,left,1,2,1.183540945531604,B31N11,2023-01-10_12h19.21.338,t1_Paradigm,2021.1.4,60.05683569694845,
N,right,Target,0,3,3,3,1169.3519679583214,1171.353568117439,right,1,2,0.8036702927956867,B31N11,2023-01-10_12h19.21.338,t1_Paradigm,2021.1.4,60.05683569694845,
N,left,Lure,0,4,4,4,1172.8519259332925,1174.8520253818342,None,0,2,,B31N11,2023-01-10_12h19.21.338,t1_Paradigm,2021.1.4,60.05683569694845,
X,left,Distractor,0,5,5,5,1176.3518781338325,1178.354104497962,None,0,2,,B31N11,2023-01-10_12h19.21.338,t1_Paradigm,2021.1.4,60.05683569694845,
G,left,Pretarget,0,6,6,6,1179.8519458230012,1181.852655436467,None,0,2,,B31N11,2023-01-10_12h19.21.338,t1_Paradigm,2021.1.4,60.05683569694845,
H,left,Pretarget,0,7,7,7,1183.3517247905966,1185.3528755064654,left,1,2,0.8043888887095818,B31N11,2023-01-10_12h19.21.338,t1_Paradigm,2021.1.4,60.05683569694845,
G,right,Target,0,8,8,8,1186.8520135121707,1188.8535443781093,right,1,2,0.6799200562054466,B31N11,2023-01-10_12h19.21.338,t1_Paradigm,2021.1.4,60.05683569694845,
H,right,Target,0,9,9,9,1190.3520042089185,1192.35317738091,right,1,2,0.7642241890935111,B31N11,2023-01-10_12h19.21.338,t1_Paradigm,2021.1.4,60.05683569694845,
T,left,Pretarget,0,10,10,10,1193.8516744247227,1195.853883144755,left,1,2,0.623565454785421,B31N11,2023-01-10_12h19.21.338,t1_Paradigm,2021.1.4,60.05683569694845,
K,left,Distractor,0,11,11,11,1197.3518146150855,1199.3536653203682,left,1,2,0.5317975484322233,B31N11,2023-01-10_12h19.21.338,t1_Paradigm,2021.1.4,60.05683569694845,
T,right,Target,0,12,12,12,1200.851843487244,1202.8545103121724,right,1,2,0.7909845084850531,B31N11,2023-01-10_12h19.21.338,t1_Paradigm,2021.1.4,60.05683569694845,
T,left,Lure,0,13,13,13,1204.351728319416,1206.3517947253786,left,1,2,0.5416535405292962,B31N11,2023-01-10_12h19.21.338,t1_Paradigm,2021.1.4,60.05683569694845,
J,left,Distractor,0,14,14,14,1207.851914705232,1209.8538539517958,left,1,2,0.8315495686820213,B31N11,2023-01-10_12h19.21.338,t1_Paradigm,2021.1.4,60.05683569694845,
Q,left,Pretarget,0,15,15,15,1211.3518813418505,1213.3529133610718,left,1,2,0.6764611717608204,B31N11,2023-01-10_12h19.21.338,t1_Paradigm,2021.1.4,60.05683569694845,
M,left,Distractor,0,16,16,16,1214.85191983806,1216.8534670648896,left,1,2,0.7598773254121625,B31N11,2023-01-10_12h19.21.338,t1_Paradigm,2021.1.4,60.05683569694845,
Q,right,Target,0,17,17,17,1218.3519727703479,1220.3534029045386,right,1,2,0.8442138592781703,B31N11,2023-01-10_12h19.21.338,t1_Paradigm,2021.1.4,60.05683569694845,
R,left,Distractor,0,18,18,18,1221.8518691513837,1223.8528270654024,left,1,2,0.816410292603905,B31N11,2023-01-10_12h19.21.338,t1_Paradigm,2021.1.4,60.05683569694845,
W,left,Distractor,0,19,19,19,1225.351544500014,1227.3527442985505,left,1,2,0.5004917890782963,B31N11,2023-01-10_12h19.21.338,t1_Paradigm,2021.1.4,60.05683569694845,
C,left,Pretarget,0,20,20,20,1228.8519583342695,1230.8533252705165,left,1,2,0.9840029000479262,B31N11,2023-01-10_12h19.21.338,t1_Paradigm,2021.1.4,60.05683569694845,
T,left,Distractor,0,21,21,21,1232.3519208004655,1234.3529480076613,left,1,2,0.6522852312500618,B31N11,2023-01-10_12h19.21.338,t1_Paradigm,2021.1.4,60.05683569694845,
C,right,Target,0,22,22,22,1235.8510777334723,1237.8521732714398,right,1,2,0.4973110397513665,B31N11,2023-01-10_12h19.21.338,t1_Paradigm,2021.1.4,60.05683569694845,
F,left,Pretarget,0,23,23,23,1239.3517947253786,1241.3531738520905,left,1,2,0.548455499985721,B31N11,2023-01-10_12h19.21.338,t1_Paradigm,2021.1.4,60.05683569694845,
C,right,Target,0,24,24,24,1242.8516259836579,1244.8528328398334,right,1,2,0.5527215216261538,B31N11,2023-01-10_12h19.21.338,t1_Paradigm,2021.1.4,60.05683569694845,
F,right,Target,0,25,25,25,1246.35179697099,1248.3538221924227,right,1,2,0.5235298457901081,B31N11,2023-01-10_12h19.21.338,t1_Paradigm,2021.1.4,60.05683569694845,
H,left,Distractor,0,26,26,26,1249.8519872064262,1251.8537859418266,left,1,2,0.47966918923884805,B31N11,2023-01-10_12h19.21.338,t1_Paradigm,2021.1.4,60.05683569694845,
H,left,Lure,0,27,27,27,1253.3520224946187,1255.3519782239782,None,0,2,,B31N11,2023-01-10_12h19.21.338,t1_Paradigm,2021.1.4,60.05683569694845,
P,left,Distractor,0,28,28,28,1256.8518576025199,1258.853002223157,left,1,2,0.6162794054907863,B31N11,2023-01-10_12h19.21.338,t1_Paradigm,2021.1.4,60.05683569694845,
G,left,Pretarget,0,29,29,29,1260.3518980235403,1262.3543098110804,left,1,2,0.6030235564721806,B31N11,2023-01-10_12h19.21.338,t1_Paradigm,2021.1.4,60.05683569694845,
K,left,Distractor,0,30,30,30,1263.8519076475932,1265.8529804086374,left,1,2,0.5764685501999338,B31N11,2023-01-10_12h19.21.338,t1_Paradigm,2021.1.4,60.05683569694845,
G,right,Target,0,31,31,31,1267.3519291413104,1269.367960246247,right,1,2,0.6934280553959979,B31N11,2023-01-10_12h19.21.338,t1_Paradigm,2021.1.4,60.05683569694845,
M,left,Pretarget,0,32,32,32,1270.852000680099,1272.8520693316732,left,1,2,0.5052354845229274,B31N11,2023-01-10_12h19.21.338,t1_Paradigm,2021.1.4,60.05683569694845,
B,left,Distractor,0,33,33,33,1274.3518370712081,1276.3530622130838,left,1,2,0.5242927123454137,B31N11,2023-01-10_12h19.21.338,t1_Paradigm,2021.1.4,60.05683569694845,
M,right,Target,0,34,34,34,1277.8516153972014,1279.8539097713,right,1,2,0.9593826491163782,B31N11,2023-01-10_12h19.21.338,t1_Paradigm,2021.1.4,60.05683569694845,
M,left,Lure,0,35,35,35,1281.3519240084825,1283.351652610203,right,0,2,0.7096959120226529,B31N11,2023-01-10_12h19.21.338,t1_Paradigm,2021.1.4,60.05683569694845,
T,left,Distractor,0,36,36,36,1284.851795687784,1286.864672028334,left,1,2,0.9246019652327959,B31N11,2023-01-10_12h19.21.338,t1_Paradigm,2021.1.4,60.05683569694845,
F,left,Distractor,0,37,37,37,1288.3515637481196,1290.353674302818,None,0,2,,B31N11,2023-01-10_12h19.21.338,t1_Paradigm,2021.1.4,60.05683569694845,
X,left,Distractor,0,38,38,38,1291.851848620072,1293.8537224230804,left,1,2,0.5276842284238228,B31N11,2023-01-10_12h19.21.338,t1_Paradigm,2021.1.4,60.05683569694845,
C,left,Distractor,0,39,39,39,1295.3519070059901,1297.3525380230276,left,1,2,0.628826603446214,B31N11,2023-01-10_12h19.21.338,t1_Paradigm,2021.1.4,60.05683569694845,
R,left,Distractor,0,40,40,40,1298.851773552462,1300.8537638065063,left,1,2,0.9834164744534064,B31N11,2023-01-10_12h19.21.338,t1_Paradigm,2021.1.4,60.05683569694845,
B,left,Pretarget,0,41,41,41,1302.3517411514858,1304.354377500249,left,1,2,0.634884944453006,B31N11,2023-01-10_12h19.21.338,t1_Paradigm,2021.1.4,60.05683569694845,
H,left,Distractor,0,42,42,42,1305.8517976125931,1307.8534519872064,left,1,2,0.7198062999050308,B31N11,2023-01-10_12h19.21.338,t1_Paradigm,2021.1.4,60.05683569694845,
B,right,Target,0,43,43,43,1309.351835146399,1311.3529592357227,right,1,2,1.1404139625738026,B31N11,2023-01-10_12h19.21.338,t1_Paradigm,2021.1.4,60.05683569694845,
W,left,Pretarget,0,44,44,44,1312.8518916075063,1314.853363766726,left,1,2,0.8079651865937194,B31N11,2023-01-10_12h19.21.338,t1_Paradigm,2021.1.4,60.05683569694845,
L,left,Pretarget,0,45,45,45,1316.351818143905,1318.3539694404262,left,1,2,0.5713639527912164,B31N11,2023-01-10_12h19.21.338,t1_Paradigm,2021.1.4,60.05683569694845,
W,right,Target,0,46,46,46,1319.8519512766306,1321.8531959874126,left,0,2,0.6721515210829239,B31N11,2023-01-10_12h19.21.338,t1_Paradigm,2021.1.4,60.05683569694845,
L,right,Target,0,47,47,47,1323.3518223143274,1325.3539858013155,right,1,2,1.027650865042233,B31N11,2023-01-10_12h19.21.338,t1_Paradigm,2021.1.4,60.05683569694845,
W,right,Target,0,48,48,48,1326.851921121266,1328.853781771404,right,1,2,1.1278109451141063,B31N11,2023-01-10_12h19.21.338,t1_Paradigm,2021.1.4,60.05683569694845,
X,left,Distractor,0,49,49,49,1330.3517998582065,1332.3533117968436,left,1,2,0.5719891953976912,B31N11,2023-01-10_12h19.21.338,t1_Paradigm,2021.1.4,60.05683569694845,
R,left,Distractor,0,50,50,50,1333.8519124596187,1335.8529868246733,left,1,2,0.8002787767181871,B31N11,2023-01-10_12h19.21.338,t1_Paradigm,2021.1.4,60.05683569694845,
V,left,Pretarget,0,51,51,51,1337.3517427554943,1339.3526634565114,left,1,2,0.852526794966252,B31N11,2023-01-10_12h19.21.338,t1_Paradigm,2021.1.4,60.05683569694845,
Z,left,Distractor,0,52,52,52,1340.851772269256,1342.85277894514,left,1,2,0.7603793801481515,B31N11,2023-01-10_12h19.21.338,t1_Paradigm,2021.1.4,60.05683569694845,
V,right,Target,0,53,53,53,1344.3515178734688,1346.350841302583,right,1,2,0.7024178827723517,B31N11,2023-01-10_12h19.21.338,t1_Paradigm,2021.1.4,60.05683569694845,
V,left,Lure,0,54,54,54,1347.8517247905966,1349.8518774922286,left,1,2,1.2814987216042937,B31N11,2023-01-10_12h19.21.338,t1_Paradigm,2021.1.4,60.05683569694845,
N,left,Distractor,0,55,55,55,1351.3515505952473,1353.3531485087533,left,1,2,1.124157334008487,B31N11,2023-01-10_12h19.21.338,t1_Paradigm,2021.1.4,60.05683569694845,
B,left,Distractor,0,56,56,56,1354.8516205300293,1356.852894112968,left,1,2,0.776489081512409,B31N11,2023-01-10_12h19.21.338,t1_Paradigm,2021.1.4,60.05683569694845,
V,left,Lure,0,57,57,57,1358.3518370712081,1360.351884229065,left,1,2,0.7493736345859361,B31N11,2023-01-10_12h19.21.338,t1_Paradigm,2021.1.4,60.05683569694845,
J,left,Distractor,0,58,58,58,1361.851570484956,1363.8522656623427,left,1,2,0.5292635354271624,B31N11,2023-01-10_12h19.21.338,t1_Paradigm,2021.1.4,60.05683569694845,
H,left,Distractor,0,59,59,59,1365.3517607203921,1367.3523955870514,left,1,2,0.5969841427686333,B31N11,2023-01-10_12h19.21.338,t1_Paradigm,2021.1.4,60.05683569694845,
X,left,Pretarget,0,60,60,60,1368.8517286402184,1370.8530699123257,left,1,2,0.5681703713908064,B31N11,2023-01-10_12h19.21.338,t1_Paradigm,2021.1.4,60.05683569694845,
P,left,Distractor,0,61,61,61,1372.3518348255966,1374.3542639364296,left,1,2,0.5069963653149898,B31N11,2023-01-10_12h19.21.338,t1_Paradigm,2021.1.4,60.05683569694845,
X,right,Target,0,62,62,62,1375.8517286402184,1377.8534718769151,right,1,2,0.6718323233417323,B31N11,2023-01-10_12h19.21.338,t1_Paradigm,2021.1.4,60.05683569694845,
Q,left,Distractor,0,63,63,63,1379.3517767604808,1381.3536601875403,left,1,2,0.5957304495404969,B31N11,2023-01-10_12h19.21.338,t1_Paradigm,2021.1.4,60.05683569694845,
B,left,Pretarget,0,0,0,0,1408.035480352497,1410.0367892236281,None,0,2,,B31N11,2023-01-10_12h19.21.338,t1_Paradigm,2021.1.4,60.05683569694845,
F,left,Distractor,0,1,1,1,1411.535167891594,1413.5365136549262,None,0,2,,B31N11,2023-01-10_12h19.21.338,t1_Paradigm,2021.1.4,60.05683569694845,
B,right,Target,0,2,2,2,1415.0349843929944,1417.0362454646656,right,1,2,0.8008818840044114,B31N11,2023-01-10_12h19.21.338,t1_Paradigm,2021.1.4,60.05683569694845,
V,left,Distractor,0,3,3,3,1418.5348361825872,1420.537302185623,left,1,2,0.4838354415351205,B31N11,2023-01-10_12h19.21.338,t1_Paradigm,2021.1.4,60.05683569694845,
G,left,Pretarget,0,4,4,4,1422.0351034104442,1424.0364713090967,left,1,2,0.6166467234907032,B31N11,2023-01-10_12h19.21.338,t1_Paradigm,2021.1.4,60.05683569694845,
B,left,Lure,0,5,5,5,1425.5351374154288,1427.5364292840677,left,1,2,0.5885371119493357,B31N11,2023-01-10_12h19.21.338,t1_Paradigm,2021.1.4,60.05683569694845,
G,right,Target,0,6,6,6,1429.0349895258223,1431.0477279216211,right,1,2,0.5335199330165779,B31N11,2023-01-10_12h19.21.338,t1_Paradigm,2021.1.4,60.05683569694845,
Y,left,Pretarget,0,7,7,7,1432.535122658548,1434.5367305169075,left,1,2,0.7402019126202504,B31N11,2023-01-10_12h19.21.338,t1_Paradigm,2021.1.4,60.05683569694845,
P,left,Distractor,0,8,8,8,1436.0349410847593,1438.0367629178854,left,1,2,0.5523715269209788,B31N11,2023-01-10_12h19.21.338,t1_Paradigm,2021.1.4,60.05683569694845,
Y,right,Target,0,9,9,9,1439.5347466789008,1441.5353716007048,right,1,2,0.8938239247527235,B31N11,2023-01-10_12h19.21.338,t1_Paradigm,2021.1.4,60.05683569694845,
X,left,Distractor,0,10,10,10,1443.0348650547458,1445.0372636894135,left,1,2,0.4799604772251769,B31N11,2023-01-10_12h19.21.338,t1_Paradigm,2021.1.4,60.05683569694845,
Y,right,Target,0,11,11,11,1446.5348169344834,1448.5364504569825,left,0,2,0.820590018573057,B31N11,2023-01-10_12h19.21.338,t1_Paradigm,2021.1.4,60.05683569694845,
N,left,Distractor,0,12,12,12,1450.0350588190013,1452.0371873385975,left,1,2,1.031934851580445,B31N11,2023-01-10_12h19.21.338,t1_Paradigm,2021.1.4,60.05683569694845,
Y,right,Target,0,13,13,13,1453.5350084531256,1455.5371315190932,left,0,2,1.2760069164851302,B31N11,2023-01-10_12h19.21.338,t1_Paradigm,2021.1.4,60.05683569694845,
Y,left,Lure,0,14,14,14,1457.0347928743522,1459.0350957112023,None,0,2,,B31N11,2023-01-10_12h19.21.338,t1_Paradigm,2021.1.4,60.05683569694845,
K,left,Distractor,0,15,15,15,1460.5350235308088,1462.5361412040984,left,1,2,0.9651994264058885,B31N11,2023-01-10_12h19.21.338,t1_Paradigm,2021.1.4,60.05683569694845,
T,left,Pretarget,0,16,16,16,1464.0347117115089,1466.0366535244884,left,1,2,0.6324362647119415,B31N11,2023-01-10_12h19.21.338,t1_Paradigm,2021.1.4,60.05683569694845,
J,left,Distractor,0,17,17,17,1467.5349314607065,1469.5512288310947,left,1,2,0.6698131971425028,B31N11,2023-01-10_12h19.21.338,t1_Paradigm,2021.1.4,60.05683569694845,
T,right,Target,0,18,18,18,1471.0349481423982,1473.0377192278938,right,1,2,0.6875134335732582,B31N11,2023-01-10_12h19.21.338,t1_Paradigm,2021.1.4,60.05683569694845,
S,left,Pretarget,0,19,19,19,1474.5350354004731,1476.5367828075923,left,1,2,0.6445192625396885,B31N11,2023-01-10_12h19.21.338,t1_Paradigm,2021.1.4,60.05683569694845,
R,left,Distractor,0,20,20,20,1478.0350828791325,1480.0353481821767,left,1,2,0.9057818098990538,B31N11,2023-01-10_12h19.21.338,t1_Paradigm,2021.1.4,60.05683569694845,
S,right,Target,0,21,21,21,1481.5351002024254,1483.5367388577542,right,1,2,0.7002431677246932,B31N11,2023-01-10_12h19.21.338,t1_Paradigm,2021.1.4,60.05683569694845,
Q,left,Distractor,0,22,22,22,1485.0349398015514,1487.0372049826929,left,1,2,0.8961032211718702,B31N11,2023-01-10_12h19.21.338,t1_Paradigm,2021.1.4,60.05683569694845,
D,left,Distractor,0,23,23,23,1488.5349288942925,1490.537028541732,left,1,2,0.6602731947677967,B31N11,2023-01-10_12h19.21.338,t1_Paradigm,2021.1.4,60.05683569694845,
F,left,Distractor,0,24,24,24,1492.0350989192193,1494.0365752488615,left,1,2,0.6966979876106052,B31N11,2023-01-10_12h19.21.338,t1_Paradigm,2021.1.4,60.05683569694845,
Z,left,Distractor,0,25,25,25,1495.5349988290745,1497.5373612131443,left,1,2,1.0837699979801982,B31N11,2023-01-10_12h19.21.338,t1_Paradigm,2021.1.4,60.05683569694845,
P,left,Distractor,0,26,26,26,1499.034966107296,1501.037706395824,left,1,2,1.1994402009513578,B31N11,2023-01-10_12h19.21.338,t1_Paradigm,2021.1.4,60.05683569694845,
H,left,Distractor,0,27,27,27,1502.5349792601664,1504.5371568624305,left,1,2,0.9643489809732273,B31N11,2023-01-10_12h19.21.338,t1_Paradigm,2021.1.4,60.05683569694845,
Z,left,Pretarget,0,28,28,28,1506.0343662080268,1508.0371943962346,left,1,2,0.7281452205352252,B31N11,2023-01-10_12h19.21.338,t1_Paradigm,2021.1.4,60.05683569694845,
J,left,Pretarget,0,29,29,29,1509.5350921823829,1511.5367369329433,left,1,2,0.6841600929037668,B31N11,2023-01-10_12h19.21.338,t1_Paradigm,2021.1.4,60.05683569694845,
Z,right,Target,0,30,30,30,1513.0354238913897,1515.0356760415634,None,0,2,,B31N11,2023-01-10_12h19.21.338,t1_Paradigm,2021.1.4,60.05683569694845,
J,right,Target,0,31,31,31,1516.535627279698,1518.5357084425395,right,1,2,1.237219739572538,B31N11,2023-01-10_12h19.21.338,t1_Paradigm,2021.1.4,60.05683569694845,
V,left,Pretarget,0,32,32,32,1520.034980222572,1522.0347085034919,left,1,2,0.6181743814140646,B31N11,2023-01-10_12h19.21.338,t1_Paradigm,2021.1.4,60.05683569694845,
Z,left,Lure,0,33,33,33,1523.535129716187,1525.5349936962466,left,1,2,0.6540897410814068,B31N11,2023-01-10_12h19.21.338,t1_Paradigm,2021.1.4,60.05683569694845,
V,right,Target,0,34,34,34,1527.0349863178053,1529.0366974743283,right,1,2,0.8805023113782227,B31N11,2023-01-10_12h19.21.338,t1_Paradigm,2021.1.4,60.05683569694845,
X,left,Distractor,0,35,35,35,1530.5350212851954,1532.537114516601,left,1,2,0.7080569358931825,B31N11,2023-01-10_12h19.21.338,t1_Paradigm,2021.1.4,60.05683569694845,
S,left,Distractor,0,36,36,36,1534.0349372351375,1536.0366403716162,left,1,2,0.6645809206365811,B31N11,2023-01-10_12h19.21.338,t1_Paradigm,2021.1.4,60.05683569694845,
Q,left,Distractor,0,37,37,37,1537.5349465383897,1539.5366528828854,left,1,2,0.508520173616489,B31N11,2023-01-10_12h19.21.338,t1_Paradigm,2021.1.4,60.05683569694845,
P,left,Distractor,0,38,38,38,1541.0346427391341,1543.0370035191954,left,1,2,0.5283142830558063,B31N11,2023-01-10_12h19.21.338,t1_Paradigm,2021.1.4,60.05683569694845,
S,left,Lure,0,39,39,39,1544.535123300151,1546.5364446825515,left,1,2,0.7247229074910138,B31N11,2023-01-10_12h19.21.338,t1_Paradigm,2021.1.4,60.05683569694845,
K,left,Pretarget,0,40,40,40,1548.0349192702397,1550.0362807528581,left,1,2,0.5047305425723607,B31N11,2023-01-10_12h19.21.338,t1_Paradigm,2021.1.4,60.05683569694845,
L,left,Distractor,0,41,41,41,1551.5349959418581,1553.5371247822568,left,1,2,0.49214484840558725,B31N11,2023-01-10_12h19.21.338,t1_Paradigm,2021.1.4,60.05683569694845,
K,right,Target,0,42,42,42,1555.0349269694816,1557.0359038108036,right,1,2,0.8011096532445663,B31N11,2023-01-10_12h19.21.338,t1_Paradigm,2021.1.4,60.05683569694845,
B,left,Distractor,0,43,43,43,1558.5349834305907,1560.5358367632398,left,1,2,0.5653575816668308,B31N11,2023-01-10_12h19.21.338,t1_Paradigm,2021.1.4,60.05683569694845,
N,left,Distractor,0,44,44,44,1562.0349811849774,1564.037278767095,left,1,2,0.6475819568258885,B31N11,2023-01-10_12h19.21.338,t1_Paradigm,2021.1.4,60.05683569694845,
S,left,Pretarget,0,45,45,45,1565.5349051549638,1567.5367048527678,left,1,2,0.5883924303616368,B31N11,2023-01-10_12h19.21.338,t1_Paradigm,2021.1.4,60.05683569694845,
Z,left,Distractor,0,46,46,46,1569.0348268793368,1571.0355525328905,left,1,2,0.5778024438677676,B31N11,2023-01-10_12h19.21.338,t1_Paradigm,2021.1.4,60.05683569694845,
S,right,Target,0,47,47,47,1572.5349722025294,1574.5363070586009,right,1,2,0.6767595173860173,B31N11,2023-01-10_12h19.21.338,t1_Paradigm,2021.1.4,60.05683569694845,
C,left,Distractor,0,48,48,48,1576.034896172514,1578.0365434894884,left,1,2,0.5524016822837439,B31N11,2023-01-10_12h19.21.338,t1_Paradigm,2021.1.4,60.05683569694845,
T,left,Pretarget,0,49,49,49,1579.5348833404441,1581.5366936247065,left,1,2,0.588309663511609,B31N11,2023-01-10_12h19.21.338,t1_Paradigm,2021.1.4,60.05683569694845,
S,left,Lure,0,50,50,50,1583.0346902177916,1585.037197925054,left,1,2,0.5599786987640982,B31N11,2023-01-10_12h19.21.338,t1_Paradigm,2021.1.4,60.05683569694845,
T,right,Target,0,51,51,51,1586.534963540882,1588.5367972436725,right,1,2,0.8521915571400314,B31N11,2023-01-10_12h19.21.338,t1_Paradigm,2021.1.4,60.05683569694845,
N,left,Pretarget,0,52,52,52,1590.0348974557219,1592.0371395391358,left,1,2,0.5198226607935794,B31N11,2023-01-10_12h19.21.338,t1_Paradigm,2021.1.4,60.05683569694845,
B,left,Distractor,0,53,53,53,1593.5348442026316,1595.536492161209,left,1,2,0.844632184755028,B31N11,2023-01-10_12h19.21.338,t1_Paradigm,2021.1.4,60.05683569694845,
N,right,Target,0,54,54,54,1597.034960974468,1599.0370898148649,right,1,2,0.8159098418764188,B31N11,2023-01-10_12h19.21.338,t1_Paradigm,2021.1.4,60.05683569694845,
N,left,Lure,0,55,55,55,1600.5347110699058,1602.5347527741342,left,1,2,0.7743634491325793,B31N11,2023-01-10_12h19.21.338,t1_Paradigm,2021.1.4,60.05683569694845,
X,left,Distractor,0,56,56,56,1604.0347842127048,1606.036570436836,left,1,2,0.6965747997383005,B31N11,2023-01-10_12h19.21.338,t1_Paradigm,2021.1.4,60.05683569694845,
W,left,Distractor,0,57,57,57,1607.5345541978513,1609.5367930732482,left,1,2,0.9243219053059875,B31N11,2023-01-10_12h19.21.338,t1_Paradigm,2021.1.4,60.05683569694845,
S,left,Distractor,0,58,58,58,1611.034965465693,1613.0370359201715,None,0,2,,B31N11,2023-01-10_12h19.21.338,t1_Paradigm,2021.1.4,60.05683569694845,
L,left,Distractor,0,59,59,59,1614.534844523434,1616.5365877601307,None,0,2,,B31N11,2023-01-10_12h19.21.338,t1_Paradigm,2021.1.4,60.05683569694845,
K,left,Pretarget,0,60,60,60,1618.0349757313488,1620.0368982962227,left,1,2,0.42422855199765763,B31N11,2023-01-10_12h19.21.338,t1_Paradigm,2021.1.4,60.05683569694845,
V,left,Pretarget,0,61,61,61,1621.5345782579825,1623.5373403610301,left,1,2,0.5397383540948795,B31N11,2023-01-10_12h19.21.338,t1_Paradigm,2021.1.4,60.05683569694845,
K,right,Target,0,62,62,62,1625.035002999497,1627.0369711182193,right,1,2,0.7520635572436731,B31N11,2023-01-10_12h19.21.338,t1_Paradigm,2021.1.4,60.05683569694845,
V,right,Target,0,63,63,63,1628.5346247742364,1630.5364642514578,right,1,2,0.8045085477624525,B31N11,2023-01-10_12h19.21.338,t1_Paradigm,2021.1.4,60.05683569694845,
R,left,Distractor,0,0,0,0,1769.650931127073,1771.652956669308,None,0,3,,B31N11,2023-01-10_12h19.21.338,t1_Paradigm,2021.1.4,60.05683569694845,
P,left,Lure,0,1,1,1,1773.1511165504835,1775.1515416127986,None,0,3,,B31N11,2023-01-10_12h19.21.338,t1_Paradigm,2021.1.4,60.05683569694845,
V,left,Distractor,0,2,2,2,1776.6513770415022,1778.6527048399366,left,1,3,0.8642761589781003,B31N11,2023-01-10_12h19.21.338,t1_Paradigm,2021.1.4,60.05683569694845,
P,left,Pretarget,0,3,3,3,1780.1512631568821,1782.1532675262024,right,0,3,1.3637109062965465,B31N11,2023-01-10_12h19.21.338,t1_Paradigm,2021.1.4,60.05683569694845,
Z,left,Distractor,0,4,4,4,1783.6513250716198,1785.6523564492381,left,1,3,0.42462249654454354,B31N11,2023-01-10_12h19.21.338,t1_Paradigm,2021.1.4,60.05683569694845,
L,left,Pretarget,0,5,5,5,1787.1511463850456,1789.1502969020185,None,0,3,,B31N11,2023-01-10_12h19.21.338,t1_Paradigm,2021.1.4,60.05683569694845,
P,right,Target,0,6,6,6,1790.6513577933983,1792.6532024034477,None,0,3,,B31N11,2023-01-10_12h19.21.338,t1_Paradigm,2021.1.4,60.05683569694845,
S,left,Distractor,0,7,7,7,1794.1512140742143,1796.15323608763,left,1,3,0.9963226495656272,B31N11,2023-01-10_12h19.21.338,t1_Paradigm,2021.1.4,60.05683569694845,
L,right,Target,0,8,8,8,1797.6511056432246,1799.6534324182994,left,0,3,0.9352910794659692,B31N11,2023-01-10_12h19.21.338,t1_Paradigm,2021.1.4,60.05683569694845,
D,left,Distractor,0,9,9,9,1801.1510738838515,1803.1674062216298,left,1,3,0.5891918683173571,B31N11,2023-01-10_12h19.21.338,t1_Paradigm,2021.1.4,60.05683569694845,
G,left,Distractor,0,10,10,10,1804.651358114199,1806.6533612003113,left,1,3,0.895562028621498,B31N11,2023-01-10_12h19.21.338,t1_Paradigm,2021.1.4,60.05683569694845,
M,left,Pretarget,0,11,11,11,1808.1513273172313,1810.1524712962637,left,1,3,1.172436393033422,B31N11,2023-01-10_12h19.21.338,t1_Paradigm,2021.1.4,60.05683569694845,
Y,left,Distractor,0,12,12,12,1811.6512066957748,1813.652912719468,left,1,3,0.6481670992143336,B31N11,2023-01-10_12h19.21.338,t1_Paradigm,2021.1.4,60.05683569694845,
V,left,Distractor,0,13,13,13,1815.151338866095,1817.1530416817714,left,1,3,0.9879407415010064,B31N11,2023-01-10_12h19.21.338,t1_Paradigm,2021.1.4,60.05683569694845,
M,right,Target,0,14,14,14,1818.6513035779026,1820.6512878586163,None,0,3,,B31N11,2023-01-10_12h19.21.338,t1_Paradigm,2021.1.4,60.05683569694845,
S,left,Pretarget,0,15,15,15,1822.1510581645653,1824.152910153054,None,0,3,,B31N11,2023-01-10_12h19.21.338,t1_Paradigm,2021.1.4,60.05683569694845,
Q,left,Distractor,0,16,16,16,1825.6513950064,1827.6520462339486,left,1,3,0.29694500495679677,B31N11,2023-01-10_12h19.21.338,t1_Paradigm,2021.1.4,60.05683569694845,
R,left,Pretarget,0,17,17,17,1829.1513183347834,1831.1642607604936,left,1,3,0.5924589133155678,B31N11,2023-01-10_12h19.21.338,t1_Paradigm,2021.1.4,60.05683569694845,
S,right,Target,0,18,18,18,1832.651356189388,1834.652654474061,left,0,3,0.7041752347467991,B31N11,2023-01-10_12h19.21.338,t1_Paradigm,2021.1.4,60.05683569694845,
F,left,Distractor,0,19,19,19,1836.1508586258788,1838.1534917666231,left,1,3,1.0114956098277617,B31N11,2023-01-10_12h19.21.338,t1_Paradigm,2021.1.4,60.05683569694845,
R,right,Target,0,20,20,20,1839.6511053224222,1841.652796268434,left,0,3,1.43234804423264,B31N11,2023-01-10_12h19.21.338,t1_Paradigm,2021.1.4,60.05683569694845,
P,left,Distractor,0,21,21,21,1843.1513837783386,1845.153337781785,left,1,3,1.259455791914661,B31N11,2023-01-10_12h19.21.338,t1_Paradigm,2021.1.4,60.05683569694845,
L,left,Distractor,0,22,22,22,1846.6511110968531,1848.6530423233744,left,1,3,0.767732156204147,B31N11,2023-01-10_12h19.21.338,t1_Paradigm,2021.1.4,60.05683569694845,
R,right,Target,0,23,23,23,1850.1514302945925,1852.1531186741904,right,1,3,0.9317109319617884,B31N11,2023-01-10_12h19.21.338,t1_Paradigm,2021.1.4,60.05683569694845,
H,left,Pretarget,0,24,24,24,1853.6514017432364,1855.6527821531581,left,1,3,0.5999916591536021,B31N11,2023-01-10_12h19.21.338,t1_Paradigm,2021.1.4,60.05683569694845,
G,left,Pretarget,0,25,25,25,1857.1512827257884,1859.1528816016998,left,1,3,1.259943731372914,B31N11,2023-01-10_12h19.21.338,t1_Paradigm,2021.1.4,60.05683569694845,
T,left,Distractor,0,26,26,26,1860.651350414957,1862.6514052720559,None,0,3,,B31N11,2023-01-10_12h19.21.338,t1_Paradigm,2021.1.4,60.05683569694845,
H,right,Target,0,27,27,27,1864.1511139840695,1866.1527760579247,right,1,3,0.7241364818946749,B31N11,2023-01-10_12h19.21.338,t1_Paradigm,2021.1.4,60.05683569694845,
G,right,Target,0,28,28,28,1867.651326996429,1869.6532203683455,left,0,3,0.6155450902897428,B31N11,2023-01-10_12h19.21.338,t1_Paradigm,2021.1.4,60.05683569694845,
D,left,Distractor,0,29,29,29,1871.1509429967373,1873.1532575813471,left,1,3,1.4356048235749768,B31N11,2023-01-10_12h19.21.338,t1_Paradigm,2021.1.4,60.05683569694845,
N,left,Pretarget,0,30,30,30,1874.651301973894,1876.652287156061,left,1,3,0.9605612747382111,B31N11,2023-01-10_12h19.21.338,t1_Paradigm,2021.1.4,60.05683569694845,
V,left,Distractor,0,31,31,31,1878.1513706254682,1880.1527513561905,left,1,3,0.7721489546675002,B31N11,2023-01-10_12h19.21.338,t1_Paradigm,2021.1.4,60.05683569694845,
R,left,Distractor,0,32,32,32,1881.6512426255704,1883.652133171221,left,1,3,0.9365428478849935,B31N11,2023-01-10_12h19.21.338,t1_Paradigm,2021.1.4,60.05683569694845,
N,right,Target,0,33,33,33,1885.1510199891563,1887.1523339931155,left,0,3,0.8924951639128267,B31N11,2023-01-10_12h19.21.338,t1_Paradigm,2021.1.4,60.05683569694845,
Z,left,Distractor,0,34,34,34,1888.6509763601189,1890.6534324182994,left,1,3,0.7353167436067451,B31N11,2023-01-10_12h19.21.338,t1_Paradigm,2021.1.4,60.05683569694845,
N,left,Lure,0,35,35,35,1892.151155046693,1894.1515704849571,None,0,3,,B31N11,2023-01-10_12h19.21.338,t1_Paradigm,2021.1.4,60.05683569694845,
Y,left,Pretarget,0,36,36,36,1895.6512814425823,1897.652480599514,left,1,3,1.4162200571663561,B31N11,2023-01-10_12h19.21.338,t1_Paradigm,2021.1.4,60.05683569694845,
Y,left,Lure,0,37,37,37,1899.150959678429,1901.151277913763,left,1,3,1.1816658593161264,B31N11,2023-01-10_12h19.21.338,t1_Paradigm,2021.1.4,60.05683569694845,
B,left,Distractor,0,38,38,38,1902.6511935429025,1904.6512310767066,left,1,3,0.9137024050505715,B31N11,2023-01-10_12h19.21.338,t1_Paradigm,2021.1.4,60.05683569694845,
Y,right,Target,0,39,39,39,1906.1510738838515,1908.1530099223983,right,1,3,0.835770998879525,B31N11,2023-01-10_12h19.21.338,t1_Paradigm,2021.1.4,60.05683569694845,
J,left,Distractor,0,40,40,40,1909.6513282796368,1911.6519445397935,left,1,3,1.3208668704828597,B31N11,2023-01-10_12h19.21.338,t1_Paradigm,2021.1.4,60.05683569694845,
X,left,Distractor,0,41,41,41,1913.151312881153,1915.1531212406044,left,1,3,0.8596726538962685,B31N11,2023-01-10_12h19.21.338,t1_Paradigm,2021.1.4,60.05683569694845,
W,left,Pretarget,0,42,42,42,1916.6511749364017,1918.6532473156913,left,1,3,0.5915587436120404,B31N11,2023-01-10_12h19.21.338,t1_Paradigm,2021.1.4,60.05683569694845,
S,left,Pretarget,0,43,43,43,1920.1511107760525,1922.1531064837236,left,1,3,0.8356863072203851,B31N11,2023-01-10_12h19.21.338,t1_Paradigm,2021.1.4,60.05683569694845,
R,left,Distractor,0,44,44,44,1923.6511463850456,1925.6513597182075,left,1,3,0.6334381285723794,B31N11,2023-01-10_12h19.21.338,t1_Paradigm,2021.1.4,60.05683569694845,
W,right,Target,0,45,45,45,1927.15093433509,1929.1530981428787,right,1,3,0.6676234044134617,B31N11,2023-01-10_12h19.21.338,t1_Paradigm,2021.1.4,60.05683569694845,
S,right,Target,0,46,46,46,1930.6511810316351,1932.65295153648,left,0,3,1.3279466442527337,B31N11,2023-01-10_12h19.21.338,t1_Paradigm,2021.1.4,60.05683569694845,
D,left,Distractor,0,47,47,47,1934.151186164463,1936.1511842396521,left,1,3,0.7896592764627712,B31N11,2023-01-10_12h19.21.338,t1_Paradigm,2021.1.4,60.05683569694845,
T,left,Distractor,0,48,48,48,1937.650876269974,1939.6526586444852,left,1,3,0.5839429101215501,B31N11,2023-01-10_12h19.21.338,t1_Paradigm,2021.1.4,60.05683569694845,
S,right,Target,0,49,49,49,1941.1511091720422,1943.1532848494953,right,1,3,1.1635367109483923,B31N11,2023-01-10_12h19.21.338,t1_Paradigm,2021.1.4,60.05683569694845,
K,left,Distractor,0,50,50,50,1944.651270856124,1946.6529958071205,left,1,3,0.6718522130522615,B31N11,2023-01-10_12h19.21.338,t1_Paradigm,2021.1.4,60.05683569694845,
S,left,Lure,0,51,51,51,1948.150843227395,1950.153137280693,left,1,3,1.2678826122246392,B31N11,2023-01-10_12h19.21.338,t1_Paradigm,2021.1.4,60.05683569694845,
T,left,Pretarget,0,52,52,52,1951.650798635952,1953.6530233960711,left,1,3,0.6799142817726533,B31N11,2023-01-10_12h19.21.338,t1_Paradigm,2021.1.4,60.05683569694845,
V,left,Distractor,0,53,53,53,1955.150920861417,1957.1520138329724,left,1,3,0.5725188390824769,B31N11,2023-01-10_12h19.21.338,t1_Paradigm,2021.1.4,60.05683569694845,
B,left,Distractor,0,54,54,54,1958.6512006005414,1960.6520378931018,left,1,3,0.5605949589207739,B31N11,2023-01-10_12h19.21.338,t1_Paradigm,2021.1.4,60.05683569694845,
T,right,Target,0,55,55,55,1962.151005553078,1964.1515210814869,right,1,3,0.8212210356123251,B31N11,2023-01-10_12h19.21.338,t1_Paradigm,2021.1.4,60.05683569694845,
Y,left,Pretarget,0,56,56,56,1965.6511053224222,1967.6503854432995,left,1,3,1.0188471026795014,B31N11,2023-01-10_12h19.21.338,t1_Paradigm,2021.1.4,60.05683569694845,
T,left,Lure,0,57,57,57,1969.1508605506879,1971.1532829246862,None,0,3,,B31N11,2023-01-10_12h19.21.338,t1_Paradigm,2021.1.4,60.05683569694845,
P,left,Pretarget,0,58,58,58,1972.6510796582825,1974.653075045153,left,1,3,1.0394342340368894,B31N11,2023-01-10_12h19.21.338,t1_Paradigm,2021.1.4,60.05683569694845,
Y,right,Target,0,59,59,59,1976.1512836881939,1978.1520119081615,right,1,3,0.772731851442586,B31N11,2023-01-10_12h19.21.338,t1_Paradigm,2021.1.4,60.05683569694845,
R,left,Distractor,0,60,60,60,1979.650925352642,1981.6528912257509,left,1,3,0.7598567940985959,B31N11,2023-01-10_12h19.21.338,t1_Paradigm,2021.1.4,60.05683569694845,
P,right,Target,0,61,61,61,1983.150737042015,1985.1520773517168,right,1,3,0.9407524084199395,B31N11,2023-01-10_12h19.21.338,t1_Paradigm,2021.1.4,60.05683569694845,
L,left,Distractor,0,62,62,62,1986.6511800692297,1988.6530038271649,left,1,3,0.5117782361685386,B31N11,2023-01-10_12h19.21.338,t1_Paradigm,2021.1.4,60.05683569694845,
V,left,Distractor,0,63,63,63,1990.1509468463591,1992.1532508445107,left,1,3,0.7394444996934908,B31N11,2023-01-10_12h19.21.338,t1_Paradigm,2021.1.4,60.05683569694845,
H,left,Lure,0,0,0,0,2034.085144633469,2036.0851763928404,None,0,3,,B31N11,2023-01-10_12h19.21.338,t1_Paradigm,2021.1.4,60.05683569694845,
B,left,Distractor,0,1,1,1,2037.5841174262714,2039.5854850041233,None,0,3,,B31N11,2023-01-10_12h19.21.338,t1_Paradigm,2021.1.4,60.05683569694845,
T,left,Distractor,0,2,2,2,2041.084152072861,2043.086558727573,None,0,3,,B31N11,2023-01-10_12h19.21.338,t1_Paradigm,2021.1.4,60.05683569694845,
R,left,Distractor,0,3,3,3,2044.5845476214163,2046.5834479130244,left,1,3,0.549443569369032,B31N11,2023-01-10_12h19.21.338,t1_Paradigm,2021.1.4,60.05683569694845,
H,left,Pretarget,0,4,4,4,2048.084226498866,2050.0844013358183,left,1,3,0.7281747342967719,B31N11,2023-01-10_12h19.21.338,t1_Paradigm,2021.1.4,60.05683569694845,
K,left,Distractor,0,5,5,5,2051.584231631694,2053.586413083578,left,1,3,0.47434772984706797,B31N11,2023-01-10_12h19.21.338,t1_Paradigm,2021.1.4,60.05683569694845,
G,left,Distractor,0,6,6,6,2055.0842572958336,2057.084550508631,left,1,3,0.6558897596878523,B31N11,2023-01-10_12h19.21.338,t1_Paradigm,2021.1.4,60.05683569694845,
H,right,Target,0,7,7,7,2058.5844462480636,2060.5858914599376,left,0,3,0.3548615900854202,B31N11,2023-01-10_12h19.21.338,t1_Paradigm,2021.1.4,60.05683569694845,
Y,left,Pretarget,0,8,8,8,2062.084241576549,2064.083971140675,left,1,3,0.5844744786172669,B31N11,2023-01-10_12h19.21.338,t1_Paradigm,2021.1.4,60.05683569694845,
S,left,Distractor,0,9,9,9,2065.584302208079,2067.586341223987,left,1,3,0.6342426993542176,B31N11,2023-01-10_12h19.21.338,t1_Paradigm,2021.1.4,60.05683569694845,
P,left,Distractor,0,10,10,10,2069.084159772103,2071.086237925825,left,1,3,0.7182436745915766,B31N11,2023-01-10_12h19.21.338,t1_Paradigm,2021.1.4,60.05683569694845,
Y,right,Target,0,11,11,11,2072.5842159124077,2074.585244082011,right,1,3,0.7394528405402525,B31N11,2023-01-10_12h19.21.338,t1_Paradigm,2021.1.4,60.05683569694845,
H,left,Lure,0,12,12,12,2076.0842829599733,2078.0862738556207,left,1,3,1.0304139304953424,B31N11,2023-01-10_12h19.21.338,t1_Paradigm,2021.1.4,60.05683569694845,
Q,left,Distractor,0,13,13,13,2079.584157847292,2081.5859129536548,left,1,3,0.5867611534740718,B31N11,2023-01-10_12h19.21.338,t1_Paradigm,2021.1.4,60.05683569694845,
V,left,Pretarget,0,14,14,14,2083.0844680625814,2085.086188522355,left,1,3,0.5423025224645244,B31N11,2023-01-10_12h19.21.338,t1_Paradigm,2021.1.4,60.05683569694845,
G,left,Distractor,0,15,15,15,2086.584423150338,2088.586902306244,left,1,3,0.46566041851656337,B31N11,2023-01-10_12h19.21.338,t1_Paradigm,2021.1.4,60.05683569694845,
Z,left,Pretarget,0,16,16,16,2090.0844093558626,2092.085956903493,left,1,3,0.7269277779032564,B31N11,2023-01-10_12h19.21.338,t1_Paradigm,2021.1.4,60.05683569694845,
V,right,Target,0,17,17,17,2093.5842903384146,2095.5850204831913,left,0,3,0.8597942377582513,B31N11,2023-01-10_12h19.21.338,t1_Paradigm,2021.1.4,60.05683569694845,
N,left,Distractor,0,18,18,18,2097.084153997672,2099.0834745395696,left,1,3,0.6249076892963785,B31N11,2023-01-10_12h19.21.338,t1_Paradigm,2021.1.4,60.05683569694845,
Z,right,Target,0,19,19,19,2100.584400052612,2102.5863675297314,left,0,3,1.0581376175341575,B31N11,2023-01-10_12h19.21.338,t1_Paradigm,2021.1.4,60.05683569694845,
R,left,Distractor,0,20,20,20,2104.084558528675,2106.086469544687,left,1,3,0.8382337938983255,B31N11,2023-01-10_12h19.21.338,t1_Paradigm,2021.1.4,60.05683569694845,
P,left,Distractor,0,21,21,21,2107.5844260375525,2109.5869693538098,left,1,3,0.9376072680843208,B31N11,2023-01-10_12h19.21.338,t1_Paradigm,2021.1.4,60.05683569694845,
Z,right,Target,0,22,22,22,2111.0844436816496,2113.0863338455474,None,0,3,,B31N11,2023-01-10_12h19.21.338,t1_Paradigm,2021.1.4,60.05683569694845,
D,left,Pretarget,0,23,23,23,2114.5845341477416,2116.584597345687,left,1,3,1.2357889637769404,B31N11,2023-01-10_12h19.21.338,t1_Paradigm,2021.1.4,60.05683569694845,
K,left,Distractor,0,24,24,24,2118.084553075045,2120.083976915106,left,1,3,0.6648083690761268,B31N11,2023-01-10_12h19.21.338,t1_Paradigm,2021.1.4,60.05683569694845,
W,left,Distractor,0,25,25,25,2121.584504633982,2123.5845549998558,left,1,3,0.5241608628275571,B31N11,2023-01-10_12h19.21.338,t1_Paradigm,2021.1.4,60.05683569694845,
D,right,Target,0,26,26,26,2125.0843336466496,2127.0865375546564,left,0,3,0.39801840760446794,B31N11,2023-01-10_12h19.21.338,t1_Paradigm,2021.1.4,60.05683569694845,
G,left,Pretarget,0,27,27,27,2128.584403260629,2130.5835775169307,left,1,3,1.2048758657638245,B31N11,2023-01-10_12h19.21.338,t1_Paradigm,2021.1.4,60.05683569694845,
V,left,Distractor,0,28,28,28,2132.0844010150176,2134.086402176319,left,1,3,1.0303475245327718,B31N11,2023-01-10_12h19.21.338,t1_Paradigm,2021.1.4,60.05683569694845,
D,right,Target,0,29,29,29,2135.5843692556446,2137.586653043287,None,0,3,,B31N11,2023-01-10_12h19.21.338,t1_Paradigm,2021.1.4,60.05683569694845,
G,right,Target,0,30,30,30,2139.084308624113,2141.0854689640346,left,0,3,1.391244357899268,B31N11,2023-01-10_12h19.21.338,t1_Paradigm,2021.1.4,60.05683569694845,
B,left,Pretarget,0,31,31,31,2142.58444913528,2144.5834536874554,left,1,3,0.9173005174525315,B31N11,2023-01-10_12h19.21.338,t1_Paradigm,2021.1.4,60.05683569694845,
N,left,Distractor,0,32,32,32,2146.0840850252953,2148.086338657573,left,1,3,0.9501910374401632,B31N11,2023-01-10_12h19.21.338,t1_Paradigm,2021.1.4,60.05683569694845,
F,left,Distractor,0,33,33,33,2149.58435193235,2151.5859139160584,left,1,3,0.6026976218963682,B31N11,2023-01-10_12h19.21.338,t1_Paradigm,2021.1.4,60.05683569694845,
B,right,Target,0,34,34,34,2153.0839836519426,2155.0846358418967,right,1,3,0.687767508557954,B31N11,2023-01-10_12h19.21.338,t1_Paradigm,2021.1.4,60.05683569694845,
Q,left,Pretarget,0,35,35,35,2156.584040754655,2158.5851863376956,left,1,3,0.6273047199556459,B31N11,2023-01-10_12h19.21.338,t1_Paradigm,2021.1.4,60.05683569694845,
S,left,Pretarget,0,36,36,36,2160.0842941880346,2162.0862950285355,left,1,3,0.5981685428232595,B31N11,2023-01-10_12h19.21.338,t1_Paradigm,2021.1.4,60.05683569694845,
W,left,Distractor,0,37,37,37,2163.5844273207604,2165.5848414758166,left,1,3,0.5557389828645682,B31N11,2023-01-10_12h19.21.338,t1_Paradigm,2021.1.4,60.05683569694845,
Q,right,Target,0,38,38,38,2167.0844388696223,2169.085597284735,left,0,3,0.3828691866729059,B31N11,2023-01-10_12h19.21.338,t1_Paradigm,2021.1.4,60.05683569694845,
S,right,Target,0,39,39,39,2170.5844526640976,2172.584898578527,left,0,3,0.6757730520112091,B31N11,2023-01-10_12h19.21.338,t1_Paradigm,2021.1.4,60.05683569694845,
T,left,Distractor,0,40,40,40,2174.0841485440415,2176.0861586877927,left,1,3,0.6785643480179715,B31N11,2023-01-10_12h19.21.338,t1_Paradigm,2021.1.4,60.05683569694845,
G,left,Distractor,0,41,41,41,2177.5842617870585,2179.5865843917127,left,1,3,0.8259814127468417,B31N11,2023-01-10_12h19.21.338,t1_Paradigm,2021.1.4,60.05683569694845,
D,left,Distractor,0,42,42,42,2181.084086950106,2183.0860252342663,left,1,3,0.8467497970923432,B31N11,2023-01-10_12h19.21.338,t1_Paradigm,2021.1.4,60.05683569694845,
S,left,Lure,0,43,43,43,2184.5843673308336,2186.5861307780415,left,1,3,1.0266515675975825,B31N11,2023-01-10_12h19.21.338,t1_Paradigm,2021.1.4,60.05683569694845,
Z,left,Pretarget,0,44,44,44,2188.084290659215,2190.0843612356,left,1,3,0.6321690368567943,B31N11,2023-01-10_12h19.21.338,t1_Paradigm,2021.1.4,60.05683569694845,
J,left,Distractor,0,45,45,45,2191.5843297970296,2193.5858022770517,left,1,3,0.6986927328780439,B31N11,2023-01-10_12h19.21.338,t1_Paradigm,2021.1.4,60.05683569694845,
M,left,Pretarget,0,46,46,46,2195.0843666892306,2197.0849280922885,left,1,3,0.8958331060985074,B31N11,2023-01-10_12h19.21.338,t1_Paradigm,2021.1.4,60.05683569694845,
Z,right,Target,0,47,47,47,2198.58430798251,2200.5851356510193,right,1,3,0.8193703303295479,B31N11,2023-01-10_12h19.21.338,t1_Paradigm,2021.1.4,60.05683569694845,
P,left,Distractor,0,48,48,48,2202.084259541447,2204.086338657573,left,1,3,0.5021054218705103,B31N11,2023-01-10_12h19.21.338,t1_Paradigm,2021.1.4,60.05683569694845,
M,right,Target,0,49,49,49,2205.5841642633277,2207.5852989391096,right,1,3,1.21138012119809,B31N11,2023-01-10_12h19.21.338,t1_Paradigm,2021.1.4,60.05683569694845,
K,left,Distractor,0,50,50,50,2209.084304774493,2211.0860951690465,left,1,3,1.374568441447991,B31N11,2023-01-10_12h19.21.338,t1_Paradigm,2021.1.4,60.05683569694845,
Y,left,Distractor,0,51,51,51,2212.58426018305,2214.584905956968,left,1,3,0.7875926716042159,B31N11,2023-01-10_12h19.21.338,t1_Paradigm,2021.1.4,60.05683569694845,
X,left,Distractor,0,52,52,52,2216.084062889975,2218.0858757406513,left,1,3,0.8706723042232625,B31N11,2023-01-10_12h19.21.338,t1_Paradigm,2021.1.4,60.05683569694845,
F,left,Pretarget,0,53,53,53,2219.584219441227,2221.5860990186684,left,1,3,0.7148126998999942,B31N11,2023-01-10_12h19.21.338,t1_Paradigm,2021.1.4,60.05683569694845,
M,left,Lure,0,54,54,54,2223.0843509699444,2225.0866495144674,left,1,3,0.8779788848296448,B31N11,2023-01-10_12h19.21.338,t1_Paradigm,2021.1.4,60.05683569694845,
V,left,Distractor,0,55,55,55,2226.5843044536905,2228.585033315261,left,1,3,0.5154174111939938,B31N11,2023-01-10_12h19.21.338,t1_Paradigm,2021.1.4,60.05683569694845,
F,right,Target,0,56,56,56,2230.084043962672,2232.0849864782067,right,1,3,0.6316852678210125,B31N11,2023-01-10_12h19.21.338,t1_Paradigm,2021.1.4,60.05683569694845,
S,left,Distractor,0,57,57,57,2233.5843567443753,2235.5860653344844,left,1,3,0.8587073614380643,B31N11,2023-01-10_12h19.21.338,t1_Paradigm,2021.1.4,60.05683569694845,
D,left,Distractor,0,58,58,58,2237.0841244839103,2239.0846214058183,left,1,3,0.687649132711158,B31N11,2023-01-10_12h19.21.338,t1_Paradigm,2021.1.4,60.05683569694845,
F,right,Target,0,59,59,59,2240.5843451955134,2242.5867775143633,right,1,3,0.5459218077812693,B31N11,2023-01-10_12h19.21.338,t1_Paradigm,2021.1.4,60.05683569694845,
V,left,Pretarget,0,60,60,60,2244.084078930062,2246.08496145567,left,1,3,0.5833391612322885,B31N11,2023-01-10_12h19.21.338,t1_Paradigm,2021.1.4,60.05683569694845,
J,left,Distractor,0,61,61,61,2247.584118388677,2249.5857560816003,left,1,3,1.06669917457657,B31N11,2023-01-10_12h19.21.338,t1_Paradigm,2021.1.4,60.05683569694845,
V,left,Lure,0,62,62,62,2251.0840102784878,2253.084897936924,left,1,3,0.7835194518138451,B31N11,2023-01-10_12h19.21.338,t1_Paradigm,2021.1.4,60.05683569694845,
V,right,Target,0,63,63,63,2254.5839111507485,2256.5840041832544,right,1,3,1.3324824601641012,B31N11,2023-01-10_12h19.21.338,t1_Paradigm,2021.1.4,60.05683569694845,
R,left,Distractor,0,0,0,0,2448.950035127791,2450.9529431956344,None,0,4,,B31N11,2023-01-10_12h19.21.338,t1_Paradigm,2021.1.4,60.05683569694845,
F,left,Distractor,0,1,1,1,2452.4508984052954,2454.4506100045237,None,0,4,,B31N11,2023-01-10_12h19.21.338,t1_Paradigm,2021.1.4,60.05683569694845,
P,left,Pretarget,0,2,2,2,2455.950808260004,2457.9521687802153,None,0,4,,B31N11,2023-01-10_12h19.21.338,t1_Paradigm,2021.1.4,60.05683569694845,
H,left,Distractor,0,3,3,3,2459.4508419441863,2461.4533560674845,None,0,4,,B31N11,2023-01-10_12h19.21.338,t1_Paradigm,2021.1.4,60.05683569694845,
Z,left,Distractor,0,4,4,4,2462.950681222512,2464.9531911753857,left,1,4,0.5310905013793672,B31N11,2023-01-10_12h19.21.338,t1_Paradigm,2021.1.4,60.05683569694845,
T,left,Distractor,0,5,5,5,2466.4505317288967,2468.4525415518474,left,1,4,0.5838027197569318,B31N11,2023-01-10_12h19.21.338,t1_Paradigm,2021.1.4,60.05683569694845,
P,right,Target,0,6,6,6,2469.9502850323533,2471.9514986253653,right,1,4,0.8766260638585663,B31N11,2023-01-10_12h19.21.338,t1_Paradigm,2021.1.4,60.05683569694845,
G,left,Distractor,0,7,7,7,2473.450529483285,2475.452346504384,left,1,4,0.8961567950627796,B31N11,2023-01-10_12h19.21.338,t1_Paradigm,2021.1.4,60.05683569694845,
L,left,Distractor,0,8,8,8,2476.9506545959666,2478.952601541774,left,1,4,0.7874736541562015,B31N11,2023-01-10_12h19.21.338,t1_Paradigm,2021.1.4,60.05683569694845,
P,left,Lure,0,9,9,9,2480.450416881871,2482.4521184143414,left,1,4,1.176158334910724,B31N11,2023-01-10_12h19.21.338,t1_Paradigm,2021.1.4,60.05683569694845,
Q,left,Pretarget,0,10,10,10,2483.950569262701,2485.951474565234,left,1,4,0.5089699376676435,B31N11,2023-01-10_12h19.21.338,t1_Paradigm,2021.1.4,60.05683569694845,
D,left,Distractor,0,11,11,11,2487.450718114713,2489.4517873469376,left,1,4,0.560460863791377,B31N11,2023-01-10_12h19.21.338,t1_Paradigm,2021.1.4,60.05683569694845,
M,left,Pretarget,0,12,12,12,2490.950463398125,2492.952844067895,left,1,4,0.7073431520057056,B31N11,2023-01-10_12h19.21.338,t1_Paradigm,2021.1.4,60.05683569694845,
C,left,Distractor,0,13,13,13,2494.4507742550177,2496.4523099329854,left,1,4,0.6319743101958011,B31N11,2023-01-10_12h19.21.338,t1_Paradigm,2021.1.4,60.05683569694845,
Q,right,Target,0,14,14,14,2497.950495157498,2499.9527985140467,right,1,4,1.0195047462621005,B31N11,2023-01-10_12h19.21.338,t1_Paradigm,2021.1.4,60.05683569694845,
R,left,Distractor,0,15,15,15,2501.450694375384,2503.451926574897,left,1,4,0.8644779432761425,B31N11,2023-01-10_12h19.21.338,t1_Paradigm,2021.1.4,60.05683569694845,
M,right,Target,0,16,16,16,2504.950564129873,2506.951404630452,left,0,4,0.5328555525957199,B31N11,2023-01-10_12h19.21.338,t1_Paradigm,2021.1.4,60.05683569694845,
S,left,Distractor,0,17,17,17,2508.450544240166,2510.4513738334845,left,1,4,1.241042413199466,B31N11,2023-01-10_12h19.21.338,t1_Paradigm,2021.1.4,60.05683569694845,
Z,left,Distractor,0,18,18,18,2511.950515047207,2513.9508143552375,left,1,4,1.2137014426461974,B31N11,2023-01-10_12h19.21.338,t1_Paradigm,2021.1.4,60.05683569694845,
L,left,Pretarget,0,19,19,19,2515.450744099655,2517.4524645594265,left,1,4,1.2640759786863782,B31N11,2023-01-10_12h19.21.338,t1_Paradigm,2021.1.4,60.05683569694845,
M,right,Target,0,20,20,20,2518.950366195195,2520.952217862883,left,0,4,1.124192622201008,B31N11,2023-01-10_12h19.21.338,t1_Paradigm,2021.1.4,60.05683569694845,
P,left,Distractor,0,21,21,21,2522.450490345471,2524.451918875655,left,1,4,0.9843310802370979,B31N11,2023-01-10_12h19.21.338,t1_Paradigm,2021.1.4,60.05683569694845,
F,left,Distractor,0,22,22,22,2525.950694375384,2527.9512763097537,left,1,4,0.4291567084455892,B31N11,2023-01-10_12h19.21.338,t1_Paradigm,2021.1.4,60.05683569694845,
L,right,Target,0,23,23,23,2529.450566696287,2531.4521947651574,left,0,4,0.8160679971388163,B31N11,2023-01-10_12h19.21.338,t1_Paradigm,2021.1.4,60.05683569694845,
L,left,Lure,0,24,24,24,2532.949631879994,2534.9507524405,left,1,4,1.0774768300943833,B31N11,2023-01-10_12h19.21.338,t1_Paradigm,2021.1.4,60.05683569694845,
V,left,Pretarget,0,25,25,25,2536.4503937841455,2538.452807817297,left,1,4,1.159365325822364,B31N11,2023-01-10_12h19.21.338,t1_Paradigm,2021.1.4,60.05683569694845,
Z,left,Distractor,0,26,26,26,2539.9503305862017,2541.9511511970722,left,1,4,1.437065113130302,B31N11,2023-01-10_12h19.21.338,t1_Paradigm,2021.1.4,60.05683569694845,
H,left,Distractor,0,27,27,27,2543.450447358038,2545.452153702534,left,1,4,0.8324150917978841,B31N11,2023-01-10_12h19.21.338,t1_Paradigm,2021.1.4,60.05683569694845,
X,left,Distractor,0,28,28,28,2546.950700791418,2548.951679557551,left,1,4,0.965025231056643,B31N11,2023-01-10_12h19.21.338,t1_Paradigm,2021.1.4,60.05683569694845,
V,right,Target,0,29,29,29,2550.4505853027895,2552.4521713466293,right,1,4,0.6320458489863086,B31N11,2023-01-10_12h19.21.338,t1_Paradigm,2021.1.4,60.05683569694845,
C,left,Distractor,0,30,30,30,2553.9507200395237,2555.9524270256225,left,1,4,0.7799543819910468,B31N11,2023-01-10_12h19.21.338,t1_Paradigm,2021.1.4,60.05683569694845,
S,left,Pretarget,0,31,31,31,2557.4504332427605,2559.4516696126957,left,1,4,0.6247065466013737,B31N11,2023-01-10_12h19.21.338,t1_Paradigm,2021.1.4,60.05683569694845,
D,left,Distractor,0,32,32,32,2560.9505503353976,2562.950872099551,left,1,4,0.5657964384590741,B31N11,2023-01-10_12h19.21.338,t1_Paradigm,2021.1.4,60.05683569694845,
V,left,Distractor,0,33,33,33,2564.450610966929,2566.4512737433397,right,0,4,0.9689800750038557,B31N11,2023-01-10_12h19.21.338,t1_Paradigm,2021.1.4,60.05683569694845,
R,left,Distractor,0,34,34,34,2567.9506388766804,2569.9512949162545,left,1,4,0.7970447743009572,B31N11,2023-01-10_12h19.21.338,t1_Paradigm,2021.1.4,60.05683569694845,
S,right,Target,0,35,35,35,2571.4503212829513,2573.4520208906106,left,0,4,0.7361922115742345,B31N11,2023-01-10_12h19.21.338,t1_Paradigm,2021.1.4,60.05683569694845,
Y,left,Distractor,0,36,36,36,2574.950331548607,2576.9513103147383,left,1,4,0.9327994122904784,B31N11,2023-01-10_12h19.21.338,t1_Paradigm,2021.1.4,60.05683569694845,
N,left,Pretarget,0,37,37,37,2578.450389613723,2580.452748789776,left,1,4,0.5834350809527677,B31N11,2023-01-10_12h19.21.338,t1_Paradigm,2021.1.4,60.05683569694845,
Z,left,Pretarget,0,38,38,38,2581.950521463241,2583.9528629951983,right,0,4,1.0353594102380157,B31N11,2023-01-10_12h19.21.338,t1_Paradigm,2021.1.4,60.05683569694845,
P,left,Pretarget,0,39,39,39,2585.4503732528337,2587.4525197373277,left,1,4,0.6717906191151997,B31N11,2023-01-10_12h19.21.338,t1_Paradigm,2021.1.4,60.05683569694845,
M,left,Distractor,0,40,40,40,2588.950611608532,2590.9523792261625,left,1,4,0.6120942258894502,B31N11,2023-01-10_12h19.21.338,t1_Paradigm,2021.1.4,60.05683569694845,
N,right,Target,0,41,41,41,2592.450302355648,2594.4510751670587,left,0,4,1.0973126437602332,B31N11,2023-01-10_12h19.21.338,t1_Paradigm,2021.1.4,60.05683569694845,
Z,right,Target,0,42,42,42,2595.950350155108,2597.9498173034044,right,1,4,1.086406346741569,B31N11,2023-01-10_12h19.21.338,t1_Paradigm,2021.1.4,60.05683569694845,
P,right,Target,0,43,43,43,2599.4503828768866,2601.4523606196617,right,1,4,0.6559693185208744,B31N11,2023-01-10_12h19.21.338,t1_Paradigm,2021.1.4,60.05683569694845,
X,left,Pretarget,0,44,44,44,2602.950568621098,2604.9513112771438,left,1,4,1.1250267067462119,B31N11,2023-01-10_12h19.21.338,t1_Paradigm,2021.1.4,60.05683569694845,
Z,left,Lure,0,45,45,45,2606.4503677992034,2608.4525835768763,left,1,4,1.1117265870852862,B31N11,2023-01-10_12h19.21.338,t1_Paradigm,2021.1.4,60.05683569694845,
R,left,Pretarget,0,46,46,46,2609.950344380677,2611.950966094464,left,1,4,0.7813979898546677,B31N11,2023-01-10_12h19.21.338,t1_Paradigm,2021.1.4,60.05683569694845,
K,left,Distractor,0,47,47,47,2613.4503716488252,2615.4509885505868,left,1,4,0.8973614056249062,B31N11,2023-01-10_12h19.21.338,t1_Paradigm,2021.1.4,60.05683569694845,
X,right,Target,0,48,48,48,2616.9505160096123,2618.9514431266616,right,1,4,0.8525399478367035,B31N11,2023-01-10_12h19.21.338,t1_Paradigm,2021.1.4,60.05683569694845,
B,left,Distractor,0,49,49,49,2620.450509272774,2622.4525210205356,left,1,4,0.6798295901116944,B31N11,2023-01-10_12h19.21.338,t1_Paradigm,2021.1.4,60.05683569694845,
R,right,Target,0,50,50,50,2623.9505038191455,2625.952457180987,left,0,4,1.0996862558913563,B31N11,2023-01-10_12h19.21.338,t1_Paradigm,2021.1.4,60.05683569694845,
Y,left,Pretarget,0,51,51,51,2627.4503206413465,2629.451291387435,left,1,4,0.9130284005786962,B31N11,2023-01-10_12h19.21.338,t1_Paradigm,2021.1.4,60.05683569694845,
W,left,Pretarget,0,52,52,52,2630.950483929437,2632.951281763384,left,1,4,0.9970463783101877,B31N11,2023-01-10_12h19.21.338,t1_Paradigm,2021.1.4,60.05683569694845,
Z,left,Distractor,0,53,53,53,2634.450404370604,2636.4519515974334,left,1,4,0.8243709879734524,B31N11,2023-01-10_12h19.21.338,t1_Paradigm,2021.1.4,60.05683569694845,
Q,left,Distractor,0,54,54,54,2637.95053397451,2639.950693733779,left,1,4,0.7815914333095861,B31N11,2023-01-10_12h19.21.338,t1_Paradigm,2021.1.4,60.05683569694845,
Y,right,Target,0,55,55,55,2641.4503071676736,2643.452273361585,right,1,4,0.8801029132009717,B31N11,2023-01-10_12h19.21.338,t1_Paradigm,2021.1.4,60.05683569694845,
W,right,Target,0,56,56,56,2644.95043677158,2646.9514120088934,right,1,4,0.8525957673409721,B31N11,2023-01-10_12h19.21.338,t1_Paradigm,2021.1.4,60.05683569694845,
H,left,Pretarget,0,57,57,57,2648.4503658743943,2650.4524581433925,left,1,4,0.6958902088099421,B31N11,2023-01-10_12h19.21.338,t1_Paradigm,2021.1.4,60.05683569694845,
M,left,Distractor,0,58,58,58,2651.950542315355,2653.9524703338593,left,1,4,0.7958010259244475,B31N11,2023-01-10_12h19.21.338,t1_Paradigm,2021.1.4,60.05683569694845,
R,left,Pretarget,0,59,59,59,2655.450474946987,2657.4519580134674,left,1,4,0.8001985762821278,B31N11,2023-01-10_12h19.21.338,t1_Paradigm,2021.1.4,60.05683569694845,
J,left,Distractor,0,60,60,60,2658.9504858542477,2660.952282985638,left,1,4,0.8996605917509441,B31N11,2023-01-10_12h19.21.338,t1_Paradigm,2021.1.4,60.05683569694845,
H,right,Target,0,61,61,61,2662.450331227805,2664.4528222533754,left,0,4,0.887389924899253,B31N11,2023-01-10_12h19.21.338,t1_Paradigm,2021.1.4,60.05683569694845,
Z,left,Distractor,0,62,62,62,2665.9504804006174,2667.9509805305424,left,1,4,0.8132613026482431,B31N11,2023-01-10_12h19.21.338,t1_Paradigm,2021.1.4,60.05683569694845,
R,right,Target,0,63,63,63,2669.4502561601967,2671.4524077775186,left,0,4,1.0558916844984196,B31N11,2023-01-10_12h19.21.338,t1_Paradigm,2021.1.4,60.05683569694845,
J,left,Pretarget,0,0,0,0,2711.541631405209,2713.5348195008974,None,0,4,,B31N11,2023-01-10_12h19.21.338,t1_Paradigm,2021.1.4,60.05683569694845,
G,left,Pretarget,0,1,1,1,2715.034295310841,2717.033882438991,None,0,4,,B31N11,2023-01-10_12h19.21.338,t1_Paradigm,2021.1.4,60.05683569694845,
Z,left,Distractor,0,2,2,2,2718.5331981688632,2720.533905215916,None,0,4,,B31N11,2023-01-10_12h19.21.338,t1_Paradigm,2021.1.4,60.05683569694845,
F,left,Distractor,0,3,3,3,2722.033583772565,2724.0343312406367,None,0,4,,B31N11,2023-01-10_12h19.21.338,t1_Paradigm,2021.1.4,60.05683569694845,
J,right,Target,0,4,4,4,2725.5332793317066,2727.534018458933,right,1,4,0.6702623195888009,B31N11,2023-01-10_12h19.21.338,t1_Paradigm,2021.1.4,60.05683569694845,
G,right,Target,0,5,5,5,2729.0339334464697,2731.0345298169195,right,1,4,0.6254575434923026,B31N11,2023-01-10_12h19.21.338,t1_Paradigm,2021.1.4,60.05683569694845,
H,left,Distractor,0,6,6,6,2732.5332029808906,2734.5336014166605,left,1,4,0.6785066037027718,B31N11,2023-01-10_12h19.21.338,t1_Paradigm,2021.1.4,60.05683569694845,
P,left,Distractor,0,7,7,7,2736.0337778576213,2738.0354476307184,left,1,4,0.7448471219267958,B31N11,2023-01-10_12h19.21.338,t1_Paradigm,2021.1.4,60.05683569694845,
G,left,Lure,0,8,8,8,2739.5332023392857,2741.5337942185106,left,1,4,1.0704872016140143,B31N11,2023-01-10_12h19.21.338,t1_Paradigm,2021.1.4,60.05683569694845,
S,left,Distractor,0,9,9,9,2743.0337942185106,2745.035325726054,left,1,4,0.7846153105838312,B31N11,2023-01-10_12h19.21.338,t1_Paradigm,2021.1.4,60.05683569694845,
R,left,Pretarget,0,10,10,10,2746.5328051867236,2748.535744372335,left,1,4,0.6285600171941041,B31N11,2023-01-10_12h19.21.338,t1_Paradigm,2021.1.4,60.05683569694845,
T,left,Pretarget,0,11,11,11,2750.0337348701887,2752.035458537979,left,1,4,0.5685749023959943,B31N11,2023-01-10_12h19.21.338,t1_Paradigm,2021.1.4,60.05683569694845,
X,left,Distractor,0,12,12,12,2753.533108023572,2755.5341920126775,left,1,4,0.7661143529912806,B31N11,2023-01-10_12h19.21.338,t1_Paradigm,2021.1.4,60.05683569694845,
F,left,Pretarget,0,13,13,13,2757.0338214866606,2759.035950006255,left,1,4,0.5603591696362855,B31N11,2023-01-10_12h19.21.338,t1_Paradigm,2021.1.4,60.05683569694845,
R,right,Target,0,14,14,14,2760.533736794998,2762.532833096475,right,1,4,0.8392654923191003,B31N11,2023-01-10_12h19.21.338,t1_Paradigm,2021.1.4,60.05683569694845,
T,right,Target,0,15,15,15,2764.033751231076,2766.03493755594,right,1,4,0.8731825778995699,B31N11,2023-01-10_12h19.21.338,t1_Paradigm,2021.1.4,60.05683569694845,
C,left,Distractor,0,16,16,16,2767.5330682441563,2769.5338006345464,left,1,4,1.166579515525882,B31N11,2023-01-10_12h19.21.338,t1_Paradigm,2021.1.4,60.05683569694845,
F,right,Target,0,17,17,17,2771.033767271165,2773.0358114199007,left,0,4,1.0404011305054155,B31N11,2023-01-10_12h19.21.338,t1_Paradigm,2021.1.4,60.05683569694845,
M,left,Distractor,0,18,18,18,2774.532716003838,2776.5328542693896,left,1,4,0.6632778239363688,B31N11,2023-01-10_12h19.21.338,t1_Paradigm,2021.1.4,60.05683569694845,
N,left,Distractor,0,19,19,19,2778.0337313413693,2780.0349365935344,left,1,4,0.8411935108233592,B31N11,2023-01-10_12h19.21.338,t1_Paradigm,2021.1.4,60.05683569694845,
R,left,Lure,0,20,20,20,2781.5328061491273,2783.5341557620814,left,1,4,0.8140790263023518,B31N11,2023-01-10_12h19.21.338,t1_Paradigm,2021.1.4,60.05683569694845,
F,right,Target,0,21,21,21,2785.033468604737,2787.035710046548,right,1,4,1.1203946503101179,B31N11,2023-01-10_12h19.21.338,t1_Paradigm,2021.1.4,60.05683569694845,
P,left,Distractor,0,22,22,22,2788.533048033645,2790.532862931037,left,1,4,1.127359897856877,B31N11,2023-01-10_12h19.21.338,t1_Paradigm,2021.1.4,60.05683569694845,
L,left,Pretarget,0,23,23,23,2792.0336963739774,2794.035657755863,left,1,4,1.3364052239357989,B31N11,2023-01-10_12h19.21.338,t1_Paradigm,2021.1.4,60.05683569694845,
T,left,Distractor,0,24,24,24,2795.5331375373335,2797.5359503270574,left,1,4,1.2760919289485173,B31N11,2023-01-10_12h19.21.338,t1_Paradigm,2021.1.4,60.05683569694845,
F,left,Distractor,0,25,25,25,2799.033807371383,2801.034627661451,right,0,4,0.9456096676804009,B31N11,2023-01-10_12h19.21.338,t1_Paradigm,2021.1.4,60.05683569694845,
V,left,Distractor,0,26,26,26,2802.533909065536,2804.5339591106094,left,1,4,0.8541583926544263,B31N11,2023-01-10_12h19.21.338,t1_Paradigm,2021.1.4,60.05683569694845,
L,right,Target,0,27,27,27,2806.033699902797,2808.035340162134,left,0,4,1.0649597874999017,B31N11,2023-01-10_12h19.21.338,t1_Paradigm,2021.1.4,60.05683569694845,
S,left,Pretarget,0,28,28,28,2809.53306535694,2811.5338304691086,left,1,4,0.7342045239456638,B31N11,2023-01-10_12h19.21.338,t1_Paradigm,2021.1.4,60.05683569694845,
W,left,Distractor,0,29,29,29,2813.0338141082193,2815.034434859601,left,1,4,0.5934351130345021,B31N11,2023-01-10_12h19.21.338,t1_Paradigm,2021.1.4,60.05683569694845,
Q,left,Distractor,0,30,30,30,2816.53399953163,2818.535676362366,left,1,4,0.7243879904654023,B31N11,2023-01-10_12h19.21.338,t1_Paradigm,2021.1.4,60.05683569694845,
L,right,Target,0,31,31,31,2820.0333880834987,2822.034679631335,left,0,4,1.2095631001011498,B31N11,2023-01-10_12h19.21.338,t1_Paradigm,2021.1.4,60.05683569694845,
S,right,Target,0,32,32,32,2823.532917467335,2825.5329829108905,right,1,4,0.7030495414128382,B31N11,2023-01-10_12h19.21.338,t1_Paradigm,2021.1.4,60.05683569694845,
Z,left,Pretarget,0,33,33,33,2827.033480153601,2829.0350969944084,left,1,4,0.8007506760895922,B31N11,2023-01-10_12h19.21.338,t1_Paradigm,2021.1.4,60.05683569694845,
F,left,Distractor,0,34,34,34,2830.5337069604357,2832.535216974262,left,1,4,0.8847795610799949,B31N11,2023-01-10_12h19.21.338,t1_Paradigm,2021.1.4,60.05683569694845,
V,left,Distractor,0,35,35,35,2834.033637346456,2836.0355672897713,left,1,4,0.9364863867795066,B31N11,2023-01-10_12h19.21.338,t1_Paradigm,2021.1.4,60.05683569694845,
M,left,Distractor,0,36,36,36,2837.5337133764715,2839.5335702988905,left,1,4,0.5746069376582454,B31N11,2023-01-10_12h19.21.338,t1_Paradigm,2021.1.4,60.05683569694845,
Z,right,Target,0,37,37,37,2841.033628364008,2843.035608352395,left,0,4,0.640308739602915,B31N11,2023-01-10_12h19.21.338,t1_Paradigm,2021.1.4,60.05683569694845,
H,left,Pretarget,0,38,38,38,2844.532920033749,2846.533165767887,left,1,4,0.8868798501207493,B31N11,2023-01-10_12h19.21.338,t1_Paradigm,2021.1.4,60.05683569694845,
L,left,Distractor,0,39,39,39,2848.0336071910915,2850.0341641029263,left,1,4,0.9058491782652709,B31N11,2023-01-10_12h19.21.338,t1_Paradigm,2021.1.4,60.05683569694845,
G,left,Distractor,0,40,40,40,2851.5336504993284,2853.5330797930183,left,1,4,0.9910785033953289,B31N11,2023-01-10_12h19.21.338,t1_Paradigm,2021.1.4,60.05683569694845,
K,left,Distractor,0,41,41,41,2855.033655311354,2857.035750146768,left,1,4,0.5920614399510669,B31N11,2023-01-10_12h19.21.338,t1_Paradigm,2021.1.4,60.05683569694845,
H,right,Target,0,42,42,42,2858.5326608259365,2860.53501262355,left,0,4,0.6930334692460747,B31N11,2023-01-10_12h19.21.338,t1_Paradigm,2021.1.4,60.05683569694845,
B,left,Distractor,0,43,43,43,2862.033825657083,2864.0351422274543,left,1,4,0.7771047000660474,B31N11,2023-01-10_12h19.21.338,t1_Paradigm,2021.1.4,60.05683569694845,
Z,left,Distractor,0,44,44,44,2865.53303584318,2867.5341499876486,left,1,4,0.621868734340751,B31N11,2023-01-10_12h19.21.338,t1_Paradigm,2021.1.4,60.05683569694845,
T,left,Pretarget,0,45,45,45,2869.0337460982482,2871.0331227804527,left,1,4,1.010679810982765,B31N11,2023-01-10_12h19.21.338,t1_Paradigm,2021.1.4,60.05683569694845,
H,right,Target,0,46,46,46,2872.5333659481785,2874.533762138337,right,1,4,0.6624376441614004,B31N11,2023-01-10_12h19.21.338,t1_Paradigm,2021.1.4,60.05683569694845,
F,left,Distractor,0,47,47,47,2876.0337037524187,2878.032974890848,left,1,4,0.9868156897719018,B31N11,2023-01-10_12h19.21.338,t1_Paradigm,2021.1.4,60.05683569694845,
R,left,Distractor,0,48,48,48,2879.5329132969127,2881.5337688751733,left,1,4,0.6542100417354959,B31N11,2023-01-10_12h19.21.338,t1_Paradigm,2021.1.4,60.05683569694845,
T,right,Target,0,49,49,49,2883.0330560536895,2885.0329591715617,left,0,4,1.0747856242323905,B31N11,2023-01-10_12h19.21.338,t1_Paradigm,2021.1.4,60.05683569694845,
H,right,Target,0,50,50,50,2886.5327631616947,2888.533031031153,right,1,4,1.2869491432993527,B31N11,2023-01-10_12h19.21.338,t1_Paradigm,2021.1.4,60.05683569694845,
Y,left,Pretarget,0,51,51,51,2890.033438770175,2892.0354845229194,left,1,4,0.7923427830846776,B31N11,2023-01-10_12h19.21.338,t1_Paradigm,2021.1.4,60.05683569694845,
H,left,Distractor,0,52,52,52,2893.5336707098377,2895.532773106548,left,1,4,0.7352022173818114,B31N11,2023-01-10_12h19.21.338,t1_Paradigm,2021.1.4,60.05683569694845,
S,left,Distractor,0,53,53,53,2897.0334506398394,2899.035530076768,left,1,4,0.5286321975872852,B31N11,2023-01-10_12h19.21.338,t1_Paradigm,2021.1.4,60.05683569694845,
Q,left,Distractor,0,54,54,54,2900.5336306096196,2902.5336318928275,left,1,4,0.8864310484750604,B31N11,2023-01-10_12h19.21.338,t1_Paradigm,2021.1.4,60.05683569694845,
Y,right,Target,0,55,55,55,2904.0334791911955,2906.0343642832177,right,1,4,0.7778085391018976,B31N11,2023-01-10_12h19.21.338,t1_Paradigm,2021.1.4,60.05683569694845,
R,left,Distractor,0,56,56,56,2907.53380672978,2909.53533599171,left,1,4,0.9727892749560851,B31N11,2023-01-10_12h19.21.338,t1_Paradigm,2021.1.4,60.05683569694845,
H,left,Pretarget,0,57,57,57,2911.033414068441,2913.034881415635,left,1,4,0.5452923947523232,B31N11,2023-01-10_12h19.21.338,t1_Paradigm,2021.1.4,60.05683569694845,
J,left,Distractor,0,58,58,58,2914.532635161797,2916.5327291567082,left,1,4,0.5994414841570688,B31N11,2023-01-10_12h19.21.338,t1_Paradigm,2021.1.4,60.05683569694845,
V,left,Distractor,0,59,59,59,2918.0335035721273,2920.0341958622994,left,1,4,0.8255810521659441,B31N11,2023-01-10_12h19.21.338,t1_Paradigm,2021.1.4,60.05683569694845,
Y,left,Lure,0,60,60,60,2921.532671412395,2923.535992672889,left,1,4,0.9721111000617384,B31N11,2023-01-10_12h19.21.338,t1_Paradigm,2021.1.4,60.05683569694845,
H,right,Target,0,61,61,61,2925.033477587187,2927.0345214760728,right,1,4,0.49749774636802613,B31N11,2023-01-10_12h19.21.338,t1_Paradigm,2021.1.4,60.05683569694845,
L,left,Distractor,0,62,62,62,2928.5335847349706,2930.533429146122,left,1,4,0.8542703524653916,B31N11,2023-01-10_12h19.21.338,t1_Paradigm,2021.1.4,60.05683569694845,
P,left,Distractor,0,63,63,63,2932.033475020773,2934.0328587606145,left,1,4,0.8589258274278109,B31N11,2023-01-10_12h19.21.338,t1_Paradigm,2021.1.4,60.05683569694845,
