Letter,CorrAnswer,Stimulus,finaln_nback_run.thisRepN,finaln_nback_run.thisTrialN,finaln_nback_run.thisN,finaln_nback_run.thisIndex,finaln_fixcross.started,finaln_nback_trial.started,finaln_trial_resp.keys,finaln_trial_resp.corr,finaln_trial_resp.rt,finaln_level,finaln_money,Participant,date,expName,psychopyVersion,frameRate,
F,left,Distractor,0,0,0,0,2513.66798110088,2515.6730908409663,left,1,1.1192396727274172,3,3.0,C05M05,2022-09-20_16h03.28.869,t1_Paradigm,2021.1.4,60.048158981468504,
P,left,Pretarget,0,1,1,1,2517.1715003028366,2519.17347708701,left,1,0.6427804710838245,3,3.0,C05M05,2022-09-20_16h03.28.869,t1_Paradigm,2021.1.4,60.048158981468504,
B,left,Distractor,0,2,2,2,2520.671490037159,2522.6706758407527,left,1,0.5216676333511714,3,3.0,C05M05,2022-09-20_16h03.28.869,t1_Paradigm,2021.1.4,60.048158981468504,
K,left,Pretarget,0,3,3,3,2524.1715073604864,2526.173131262054,left,1,0.5552209943416528,3,3.0,C05M05,2022-09-20_16h03.28.869,t1_Paradigm,2021.1.4,60.048158981468504,
H,left,Distractor,0,4,4,4,2527.671433575946,2529.6734533476265,left,1,0.5267809022479923,3,3.0,C05M05,2022-09-20_16h03.28.869,t1_Paradigm,2021.1.4,60.048158981468504,
P,right,Target,0,5,5,5,2531.171408232549,2533.1723157824454,left,0,0.45196626185497735,3,3.0,C05M05,2022-09-20_16h03.28.869,t1_Paradigm,2021.1.4,60.048158981468504,
L,left,Distractor,0,6,6,6,2534.6715294958412,2536.6728980387416,left,1,0.47141715086763725,3,3.0,C05M05,2022-09-20_16h03.28.869,t1_Paradigm,2021.1.4,60.048158981468504,
K,right,Target,0,7,7,7,2538.171499340431,2540.173002941112,right,1,0.7794560731708771,3,3.0,C05M05,2022-09-20_16h03.28.869,t1_Paradigm,2021.1.4,60.048158981468504,
Z,left,Pretarget,0,8,8,8,2541.6715256462194,2543.670622587568,left,1,0.4978451705101179,3,3.0,C05M05,2022-09-20_16h03.28.869,t1_Paradigm,2021.1.4,60.048158981468504,
S,left,Pretarget,0,9,9,9,2545.1715150597447,2547.1734578388714,left,1,0.5949841266992735,3,3.0,C05M05,2022-09-20_16h03.28.869,t1_Paradigm,2021.1.4,60.048158981468504,
N,left,Distractor,0,10,10,10,2548.6715795410128,2550.673656094732,left,1,0.6311148138920544,3,3.0,C05M05,2022-09-20_16h03.28.869,t1_Paradigm,2021.1.4,60.048158981468504,
M,left,Distractor,0,11,11,11,2552.1714990196197,2554.173808155043,left,1,0.522593468966079,3,3.0,C05M05,2022-09-20_16h03.28.869,t1_Paradigm,2021.1.4,60.048158981468504,
Z,right,Target,0,12,12,12,2555.671312312639,2557.6731594926678,right,1,0.6390062312566442,3,3.0,C05M05,2022-09-20_16h03.28.869,t1_Paradigm,2021.1.4,60.048158981468504,
S,right,Target,0,13,13,13,2559.1713581873773,2561.1734401947324,right,1,0.9149184007110307,3,3.0,C05M05,2022-09-20_16h03.28.869,t1_Paradigm,2021.1.4,60.048158981468504,
Q,left,Distractor,0,14,14,14,2562.6715387991135,2564.6706649334665,left,1,0.45774359165807255,3,3.0,C05M05,2022-09-20_16h03.28.869,t1_Paradigm,2021.1.4,60.048158981468504,
V,left,Lure,0,15,15,15,2566.171439350379,2568.1737590722914,left,1,0.5066444585972931,3,3.0,C05M05,2022-09-20_16h03.28.869,t1_Paradigm,2021.1.4,60.048158981468504,
Z,right,Target,0,16,16,16,2569.671570558552,2571.673085066519,right,1,0.7832161976984935,3,3.0,C05M05,2022-09-20_16h03.28.869,t1_Paradigm,2021.1.4,60.048158981468504,
X,left,Distractor,0,17,17,17,2573.1706415148947,2575.1735893678415,left,1,0.611124014496454,3,3.0,C05M05,2022-09-20_16h03.28.869,t1_Paradigm,2021.1.4,60.048158981468504,
V,left,Pretarget,0,18,18,18,2576.6716222077375,2578.6732785103377,right,0,0.7271470019186381,3,3.0,C05M05,2022-09-20_16h03.28.869,t1_Paradigm,2021.1.4,60.048158981468504,
E,left,Distractor,0,19,19,19,2580.1715814658237,2582.1733032121265,left,1,0.4592343602416804,3,3.0,C05M05,2022-09-20_16h03.28.869,t1_Paradigm,2021.1.4,60.048158981468504,
R,left,Distractor,0,20,20,20,2583.671625415751,2585.673422550608,left,1,0.575021878714324,3,3.0,C05M05,2022-09-20_16h03.28.869,t1_Paradigm,2021.1.4,60.048158981468504,
G,left,Distractor,0,21,21,21,2587.171603601193,2589.1731107306987,left,1,0.7872111495526042,3,3.0,C05M05,2022-09-20_16h03.28.869,t1_Paradigm,2021.1.4,60.048158981468504,
V,right,Target,0,22,22,22,2590.6715618968883,2592.6722031808167,right,1,0.7601242018427001,3,3.0,C05M05,2022-09-20_16h03.28.869,t1_Paradigm,2021.1.4,60.048158981468504,
T,left,Pretarget,0,23,23,23,2594.1714967740118,2596.1724210056273,left,1,0.46014223094971385,3,3.0,C05M05,2022-09-20_16h03.28.869,t1_Paradigm,2021.1.4,60.048158981468504,
B,left,Distractor,0,24,24,24,2597.6715750497824,2599.6733231018734,left,1,0.4469832387258066,3,3.0,C05M05,2022-09-20_16h03.28.869,t1_Paradigm,2021.1.4,60.048158981468504,
S,left,Pretarget,0,25,25,25,2601.1715894858935,2603.1740092981345,left,1,0.9784770485130139,3,3.0,C05M05,2022-09-20_16h03.28.869,t1_Paradigm,2021.1.4,60.048158981468504,
G,left,Lure,0,26,26,26,2604.6716058468155,2606.6727613769326,left,1,0.5515795666869963,3,3.0,C05M05,2022-09-20_16h03.28.869,t1_Paradigm,2021.1.4,60.048158981468504,
T,right,Target,0,27,27,27,2608.170693484877,2610.1734972975537,right,1,0.9549577439174755,3,3.0,C05M05,2022-09-20_16h03.28.869,t1_Paradigm,2021.1.4,60.048158981468504,
H,left,Distractor,0,28,28,28,2611.6716125836538,2613.6735203953285,left,1,0.5268258145806612,3,3.0,C05M05,2022-09-20_16h03.28.869,t1_Paradigm,2021.1.4,60.048158981468504,
S,right,Target,0,29,29,29,2615.1715519520076,2617.1732785103377,right,1,0.867084843252087,3,3.0,C05M05,2022-09-20_16h03.28.869,t1_Paradigm,2021.1.4,60.048158981468504,
D,left,Distractor,0,30,30,30,2618.671590448299,2620.6738270823844,left,1,0.5185433391307015,3,3.0,C05M05,2022-09-20_16h03.28.869,t1_Paradigm,2021.1.4,60.048158981468504,
Z,left,Distractor,0,31,31,31,2622.1715750497824,2624.173123241999,left,1,0.5233749435428763,3,3.0,C05M05,2022-09-20_16h03.28.869,t1_Paradigm,2021.1.4,60.048158981468504,
J,left,Pretarget,0,32,32,32,2625.6715124933253,2627.6735935382603,left,1,0.5745525448583066,3,3.0,C05M05,2022-09-20_16h03.28.869,t1_Paradigm,2021.1.4,60.048158981468504,
C,left,Pretarget,0,33,33,33,2629.1713305983867,2631.173758109886,left,1,0.4346172699442832,3,3.0,C05M05,2022-09-20_16h03.28.869,t1_Paradigm,2021.1.4,60.048158981468504,
H,left,Distractor,0,34,34,34,2632.6716292653873,2634.673524565762,left,1,1.1428658045333577,3,3.0,C05M05,2022-09-20_16h03.28.869,t1_Paradigm,2021.1.4,60.048158981468504,
B,left,Pretarget,0,35,35,35,2636.1715224381915,2638.173394640806,right,0,1.1149441290617688,3,3.0,C05M05,2022-09-20_16h03.28.869,t1_Paradigm,2021.1.4,60.048158981468504,
J,right,Target,0,36,36,36,2639.671684122586,2641.6731912521063,right,1,0.767195327571244,3,3.0,C05M05,2022-09-20_16h03.28.869,t1_Paradigm,2021.1.4,60.048158981468504,
C,right,Target,0,37,37,37,2643.1882054443995,2645.173474199779,right,1,1.1070520700741326,3,3.0,C05M05,2022-09-20_16h03.28.869,t1_Paradigm,2021.1.4,60.048158981468504,
H,left,Distractor,0,38,38,38,2646.6715785786073,2648.6736868917505,right,0,0.806842008678359,3,3.0,C05M05,2022-09-20_16h03.28.869,t1_Paradigm,2021.1.4,60.048158981468504,
B,right,Target,0,39,39,39,2650.171619962115,2652.173155963843,right,1,0.779436183423968,3,3.0,C05M05,2022-09-20_16h03.28.869,t1_Paradigm,2021.1.4,60.048158981468504,
F,left,Pretarget,0,40,40,40,2653.6716488343227,2655.672906058797,left,1,0.5434526803728659,3,3.0,C05M05,2022-09-20_16h03.28.869,t1_Paradigm,2021.1.4,60.048158981468504,
M,left,Distractor,0,41,41,41,2657.17170433313,2659.1736031623295,left,1,0.93119847914204,3,3.0,C05M05,2022-09-20_16h03.28.869,t1_Paradigm,2021.1.4,60.048158981468504,
W,left,Pretarget,0,42,42,42,2660.6717014459136,2662.6724043238937,left,1,0.551992118533235,3,3.0,C05M05,2022-09-20_16h03.28.869,t1_Paradigm,2021.1.4,60.048158981468504,
Z,left,Distractor,0,43,43,43,2664.17164305989,2666.1726725146727,left,1,0.9078844880568795,3,3.0,C05M05,2022-09-20_16h03.28.869,t1_Paradigm,2021.1.4,60.048158981468504,
F,right,Target,0,44,44,44,2667.6716408142674,2669.672833236662,right,1,0.7674769920558902,3,3.0,C05M05,2022-09-20_16h03.28.869,t1_Paradigm,2021.1.4,60.048158981468504,
B,left,Lure,0,45,45,45,2671.17159237311,2673.172827783026,right,0,0.979779185319785,3,3.0,C05M05,2022-09-20_16h03.28.869,t1_Paradigm,2021.1.4,60.048158981468504,
W,right,Target,0,46,46,46,2674.671649475931,2676.6735620996333,right,1,0.902869384677615,3,3.0,C05M05,2022-09-20_16h03.28.869,t1_Paradigm,2021.1.4,60.048158981468504,
X,left,Distractor,0,47,47,47,2678.1714467288402,2680.173121317188,left,1,0.6033153641328681,3,3.0,C05M05,2022-09-20_16h03.28.869,t1_Paradigm,2021.1.4,60.048158981468504,
T,left,Distractor,0,48,48,48,2681.671661345623,2683.671690538642,right,0,0.9133115016738884,3,3.0,C05M05,2022-09-20_16h03.28.869,t1_Paradigm,2021.1.4,60.048158981468504,
L,left,Pretarget,0,49,49,49,2685.1715914107044,2687.1737773580244,left,1,0.5310639346280368,3,3.0,C05M05,2022-09-20_16h03.28.869,t1_Paradigm,2021.1.4,60.048158981468504,
J,left,Distractor,0,50,50,50,2688.6716045635985,2690.673794681352,left,1,1.0468124435428763,3,3.0,C05M05,2022-09-20_16h03.28.869,t1_Paradigm,2021.1.4,60.048158981468504,
Z,left,Distractor,0,51,51,51,2692.1714104781713,2694.1738562754035,left,1,1.418683658077498,3,3.0,C05M05,2022-09-20_16h03.28.869,t1_Paradigm,2021.1.4,60.048158981468504,
P,left,Pretarget,0,52,52,52,2695.671593977124,2697.6731174675515,left,1,0.7833255913137691,3,3.0,C05M05,2022-09-20_16h03.28.869,t1_Paradigm,2021.1.4,60.048158981468504,
L,right,Target,0,53,53,53,2699.1717213356605,2701.172329576948,left,0,0.4362286602263339,3,3.0,C05M05,2022-09-20_16h03.28.869,t1_Paradigm,2021.1.4,60.048158981468504,
V,left,Distractor,0,54,54,54,2702.6717011251167,2704.6734989015677,left,1,0.5509694005886558,3,3.0,C05M05,2022-09-20_16h03.28.869,t1_Paradigm,2021.1.4,60.048158981468504,
F,left,Distractor,0,55,55,55,2706.1716639120423,2708.1738322152232,left,1,0.6506433370523155,3,3.0,C05M05,2022-09-20_16h03.28.869,t1_Paradigm,2021.1.4,60.048158981468504,
P,right,Target,0,56,56,56,2709.671676102531,2711.6722285241995,right,1,0.8162492172414204,3,3.0,C05M05,2022-09-20_16h03.28.869,t1_Paradigm,2021.1.4,60.048158981468504,
T,left,Pretarget,0,57,57,57,2713.1714124029822,2715.1737433529634,right,0,0.7228309268975863,3,3.0,C05M05,2022-09-20_16h03.28.869,t1_Paradigm,2021.1.4,60.048158981468504,
D,left,Distractor,0,58,58,58,2716.6716898970335,2718.6733115529933,left,1,0.4712644489336526,3,3.0,C05M05,2022-09-20_16h03.28.869,t1_Paradigm,2021.1.4,60.048158981468504,
V,left,Distractor,0,59,59,59,2720.17156125528,2722.1707117706246,left,1,0.5258884300710633,3,3.0,C05M05,2022-09-20_16h03.28.869,t1_Paradigm,2021.1.4,60.048158981468504,
Z,left,Distractor,0,60,60,60,2723.671690538642,2725.671282157229,right,0,0.5931273226015037,3,3.0,C05M05,2022-09-20_16h03.28.869,t1_Paradigm,2021.1.4,60.048158981468504,
T,right,Target,0,61,61,61,2727.1717030499276,2729.173198630553,right,1,0.7394106347201159,3,3.0,C05M05,2022-09-20_16h03.28.869,t1_Paradigm,2021.1.4,60.048158981468504,
B,left,Distractor,0,62,62,62,2730.671458919329,2732.6716080924234,left,1,0.9528555260185385,3,3.0,C05M05,2022-09-20_16h03.28.869,t1_Paradigm,2021.1.4,60.048158981468504,
J,left,Distractor,0,63,63,63,2734.171692463453,2736.172984976176,left,1,0.76370114821475,3,3.0,C05M05,2022-09-20_16h03.28.869,t1_Paradigm,2021.1.4,60.048158981468504,
