Letter,CorrAnswer,Stimulus,nback_run.thisRepN,nback_run.thisTrialN,nback_run.thisN,nback_run.thisIndex,fixcross.started,nback_trial.started,trial_resp.keys,trial_resp.corr,currentlevel,trial_resp.rt,Participant,date,expName,psychopyVersion,frameRate,
H,left,Distractor,0,0,0,0,252.53139596506662,254.4706571700517,None,0,1,,C05M05,2022-09-20_16h03.28.869,t1_Paradigm,2021.1.4,60.048158981468504,
Q,left,Pretarget,0,1,1,1,255.97333041616366,257.9724552673142,left,1,1,1.0893925414711703,C05M05,2022-09-20_16h03.28.869,t1_Paradigm,2021.1.4,60.048158981468504,
Q,right,Target,0,2,2,2,259.46934861720365,261.46932295302395,right,1,1,0.6326036576647311,C05M05,2022-09-20_16h03.28.869,t1_Paradigm,2021.1.4,60.048158981468504,
T,left,Distractor,0,3,3,3,262.9693880759005,264.97089135578426,left,1,1,0.44284617141238414,C05M05,2022-09-20_16h03.28.869,t1_Paradigm,2021.1.4,60.048158981468504,
Q,left,Lure,0,4,4,4,266.46934155955387,268.47089841343404,left,1,1,0.7986904205754399,C05M05,2022-09-20_16h03.28.869,t1_Paradigm,2021.1.4,60.048158981468504,
L,left,Distractor,0,5,5,5,269.9692863815435,271.9709401177388,left,1,1,0.6589501934940927,C05M05,2022-09-20_16h03.28.869,t1_Paradigm,2021.1.4,60.048158981468504,
V,left,Pretarget,0,6,6,6,273.4692696998245,275.4713116068742,left,1,1,0.486403433358646,C05M05,2022-09-20_16h03.28.869,t1_Paradigm,2021.1.4,60.048158981468504,
V,right,Target,0,7,7,7,276.9693341811071,278.9694249681779,right,1,1,0.6842801066668471,C05M05,2022-09-20_16h03.28.869,t1_Paradigm,2021.1.4,60.048158981468504,
K,left,Distractor,0,8,8,8,280.46934925881214,282.4713391958794,left,1,1,0.5745342591253575,C05M05,2022-09-20_16h03.28.869,t1_Paradigm,2021.1.4,60.048158981468504,
G,left,Pretarget,0,9,9,9,283.9693309730792,285.9713626144512,left,1,1,0.5785285693709739,C05M05,2022-09-20_16h03.28.869,t1_Paradigm,2021.1.4,60.048158981468504,
G,right,Target,0,10,10,10,287.4693867926835,289.46950131913763,right,1,1,0.6003123331902316,C05M05,2022-09-20_16h03.28.869,t1_Paradigm,2021.1.4,60.048158981468504,
G,right,Target,0,11,11,11,290.9693489380152,292.9693309730792,right,1,1,0.6524016548355576,C05M05,2022-09-20_16h03.28.869,t1_Paradigm,2021.1.4,60.048158981468504,
P,left,Pretarget,0,12,12,12,294.46935535405646,296.4715393765655,left,1,1,0.5742750508070458,C05M05,2022-09-20_16h03.28.869,t1_Paradigm,2021.1.4,60.048158981468504,
P,right,Target,0,13,13,13,297.9693569580704,299.9693810182507,right,1,1,0.5166544547973899,C05M05,2022-09-20_16h03.28.869,t1_Paradigm,2021.1.4,60.048158981468504,
G,left,Lure,0,14,14,14,301.46934637159575,303.471184889946,left,1,1,0.7587133130436996,C05M05,2022-09-20_16h03.28.869,t1_Paradigm,2021.1.4,60.048158981468504,
Y,left,Distractor,0,15,15,15,304.969455123588,306.971186173163,left,1,1,0.5066993157961406,C05M05,2022-09-20_16h03.28.869,t1_Paradigm,2021.1.4,60.048158981468504,
B,left,Distractor,0,16,16,16,308.46936016609834,310.4715778728423,left,1,1,0.5260995180287864,C05M05,2022-09-20_16h03.28.869,t1_Paradigm,2021.1.4,60.048158981468504,
T,left,Pretarget,0,17,17,17,311.969354070854,313.9712291606702,left,1,1,0.5467017667251639,C05M05,2022-09-20_16h03.28.869,t1_Paradigm,2021.1.4,60.048158981468504,
T,right,Target,0,18,18,18,315.4692876647605,317.46942913859675,right,1,1,0.9208442620001733,C05M05,2022-09-20_16h03.28.869,t1_Paradigm,2021.1.4,60.048158981468504,
S,left,Distractor,0,19,19,19,318.9694458203303,320.97194326673343,left,1,1,0.5219406361575238,C05M05,2022-09-20_16h03.28.869,t1_Paradigm,2021.1.4,60.048158981468504,
T,left,Lure,0,20,20,20,322.46940572002495,324.4710241679568,left,1,1,0.7825778009864734,C05M05,2022-09-20_16h03.28.869,t1_Paradigm,2021.1.4,60.048158981468504,
J,left,Distractor,0,21,21,21,325.96932102819846,327.97130102039955,left,1,1,0.4504379593854537,C05M05,2022-09-20_16h03.28.869,t1_Paradigm,2021.1.4,60.048158981468504,
P,left,Distractor,0,22,22,22,329.4693412387569,331.4709866340854,left,1,1,0.42291600366297644,C05M05,2022-09-20_16h03.28.869,t1_Paradigm,2021.1.4,60.048158981468504,
F,left,Distractor,0,23,23,23,332.9693515044346,334.9712917171273,left,1,1,0.47457769575703423,C05M05,2022-09-20_16h03.28.869,t1_Paradigm,2021.1.4,60.048158981468504,
L,left,Distractor,0,24,24,24,336.46941181526927,338.4714813113387,left,1,1,0.4784731988765998,C05M05,2022-09-20_16h03.28.869,t1_Paradigm,2021.1.4,60.048158981468504,
W,left,Pretarget,0,25,25,25,339.9692873439635,341.9712933211413,left,1,1,0.5146815202315338,C05M05,2022-09-20_16h03.28.869,t1_Paradigm,2021.1.4,60.048158981468504,
W,right,Target,0,26,26,26,343.4694143816887,345.4694240057579,left,0,1,0.5683446983020985,C05M05,2022-09-20_16h03.28.869,t1_Paradigm,2021.1.4,60.048158981468504,
V,left,Distractor,0,27,27,27,346.969354391651,348.97125899529783,left,1,1,0.6506240889139008,C05M05,2022-09-20_16h03.28.869,t1_Paradigm,2021.1.4,60.048158981468504,
W,left,Lure,0,28,28,28,350.46931204573775,352.4709872756939,left,1,1,0.8147064786753617,C05M05,2022-09-20_16h03.28.869,t1_Paradigm,2021.1.4,60.048158981468504,
R,left,Pretarget,0,29,29,29,353.96933867233747,355.9688930778502,left,1,1,0.5171093525423203,C05M05,2022-09-20_16h03.28.869,t1_Paradigm,2021.1.4,60.048158981468504,
R,right,Target,0,30,30,30,357.4692895895714,359.4693412387569,right,1,1,0.584460846715956,C05M05,2022-09-20_16h03.28.869,t1_Paradigm,2021.1.4,60.048158981468504,
G,left,Distractor,0,31,31,31,360.9693309730792,362.970177249721,left,1,1,0.5556765336950775,C05M05,2022-09-20_16h03.28.869,t1_Paradigm,2021.1.4,60.048158981468504,
R,left,Lure,0,32,32,32,364.4694345922471,366.47139309068734,left,1,1,0.6384980803122744,C05M05,2022-09-20_16h03.28.869,t1_Paradigm,2021.1.4,60.048158981468504,
S,left,Distractor,0,33,33,33,367.9686274534906,369.9707729797083,left,1,1,0.4194927216449287,C05M05,2022-09-20_16h03.28.869,t1_Paradigm,2021.1.4,60.048158981468504,
R,left,Lure,0,34,34,34,371.46950196074613,373.47096866914944,left,1,1,0.6950757478625746,C05M05,2022-09-20_16h03.28.869,t1_Paradigm,2021.1.4,60.048158981468504,
P,left,Pretarget,0,35,35,35,374.969438441869,376.97104630332615,left,1,1,0.5388103493460221,C05M05,2022-09-20_16h03.28.869,t1_Paradigm,2021.1.4,60.048158981468504,
P,right,Target,0,36,36,36,378.46935535405646,380.46947597574035,right,1,1,0.5605167997709941,C05M05,2022-09-20_16h03.28.869,t1_Paradigm,2021.1.4,60.048158981468504,
Y,left,Pretarget,0,37,37,37,381.96935246684006,383.9709773308132,left,1,1,0.48288711863278877,C05M05,2022-09-20_16h03.28.869,t1_Paradigm,2021.1.4,60.048158981468504,
Y,right,Target,0,38,38,38,385.46952762492583,387.4694618604408,right,1,1,0.600401516247075,C05M05,2022-09-20_16h03.28.869,t1_Paradigm,2021.1.4,60.048158981468504,
J,left,Distractor,0,39,39,39,388.9694506323576,390.97005598642863,left,1,1,0.5079360089148395,C05M05,2022-09-20_16h03.28.869,t1_Paradigm,2021.1.4,60.048158981468504,
Y,left,Lure,0,40,40,40,392.46945448199403,394.4712496920256,left,1,1,0.7664677478169324,C05M05,2022-09-20_16h03.28.869,t1_Paradigm,2021.1.4,60.048158981468504,
T,left,Distractor,0,41,41,41,395.96918083756464,397.9711916267988,left,1,1,0.8986100916808937,C05M05,2022-09-20_16h03.28.869,t1_Paradigm,2021.1.4,60.048158981468504,
V,left,Distractor,0,42,42,42,399.4694512739661,401.47140143153956,left,1,1,0.5663618188700639,C05M05,2022-09-20_16h03.28.869,t1_Paradigm,2021.1.4,60.048158981468504,
N,left,Pretarget,0,43,43,43,402.9685748418997,404.9713549152075,left,1,1,0.5226403061242308,C05M05,2022-09-20_16h03.28.869,t1_Paradigm,2021.1.4,60.048158981468504,
N,right,Target,0,44,44,44,406.46944004588295,408.4695802365168,right,1,1,0.6723536371282535,C05M05,2022-09-20_16h03.28.869,t1_Paradigm,2021.1.4,60.048158981468504,
N,right,Target,0,45,45,45,409.9693839054671,411.96944614112726,right,1,1,0.7245440115220845,C05M05,2022-09-20_16h03.28.869,t1_Paradigm,2021.1.4,60.048158981468504,
X,left,Distractor,0,46,46,46,413.4694913742569,415.4710479073401,left,1,1,0.5668231326853856,C05M05,2022-09-20_16h03.28.869,t1_Paradigm,2021.1.4,60.048158981468504,
Z,left,Distractor,0,47,47,47,416.969489128649,418.9717632966058,left,1,1,0.5541597801202442,C05M05,2022-09-20_16h03.28.869,t1_Paradigm,2021.1.4,60.048158981468504,
H,left,Pretarget,0,48,48,48,420.4694961862988,422.4713934114843,left,1,1,0.4786374497052748,C05M05,2022-09-20_16h03.28.869,t1_Paradigm,2021.1.4,60.048158981468504,
H,right,Target,0,49,49,49,423.9694082864444,425.9694993943267,left,0,1,0.948561586352298,C05M05,2022-09-20_16h03.28.869,t1_Paradigm,2021.1.4,60.048158981468504,
K,left,Distractor,0,50,50,50,427.469505810368,429.471000428588,left,1,1,0.5508782927063294,C05M05,2022-09-20_16h03.28.869,t1_Paradigm,2021.1.4,60.048158981468504,
V,left,Pretarget,0,51,51,51,430.96932102819846,432.9715175619931,left,1,1,0.8105171205825172,C05M05,2022-09-20_16h03.28.869,t1_Paradigm,2021.1.4,60.048158981468504,
V,right,Target,0,52,52,52,434.4695754244749,436.46953789060353,right,1,1,0.6084684125235071,C05M05,2022-09-20_16h03.28.869,t1_Paradigm,2021.1.4,60.048158981468504,
R,left,Distractor,0,53,53,53,437.9685610473971,439.9690550830419,left,1,1,0.5650266394368373,C05M05,2022-09-20_16h03.28.869,t1_Paradigm,2021.1.4,60.048158981468504,
V,left,Lure,0,54,54,54,441.46964856742125,443.4711152758391,left,1,1,0.5508048289775616,C05M05,2022-09-20_16h03.28.869,t1_Paradigm,2021.1.4,60.048158981468504,
Y,left,Distractor,0,55,55,55,444.96950003592065,446.9712493712286,left,1,1,0.6346837401943048,C05M05,2022-09-20_16h03.28.869,t1_Paradigm,2021.1.4,60.048158981468504,
Q,left,Distractor,0,56,56,56,448.469487845432,450.4699959963764,left,1,1,0.6240485001908382,C05M05,2022-09-20_16h03.28.869,t1_Paradigm,2021.1.4,60.048158981468504,
Z,left,Pretarget,0,57,57,57,451.969504527151,453.9714803489187,left,1,1,0.498444108539843,C05M05,2022-09-20_16h03.28.869,t1_Paradigm,2021.1.4,60.048158981468504,
Z,right,Target,0,58,58,58,455.46959755984426,457.469303384074,left,0,1,0.5046108923997963,C05M05,2022-09-20_16h03.28.869,t1_Paradigm,2021.1.4,60.048158981468504,
B,left,Distractor,0,59,59,59,458.9695590635529,460.9713247597829,left,1,1,0.5387246951140696,C05M05,2022-09-20_16h03.28.869,t1_Paradigm,2021.1.4,60.048158981468504,
S,left,Pretarget,0,60,60,60,462.46950805599045,464.4708724284428,left,1,1,0.47920847791829146,C05M05,2022-09-20_16h03.28.869,t1_Paradigm,2021.1.4,60.048158981468504,
S,right,Target,0,61,61,61,465.9695789532998,467.9695420610369,right,1,1,0.5806009526568232,C05M05,2022-09-20_16h03.28.869,t1_Paradigm,2021.1.4,60.048158981468504,
T,left,Distractor,0,62,62,62,469.469522492087,471.4710357168515,left,1,1,0.5509248090529582,C05M05,2022-09-20_16h03.28.869,t1_Paradigm,2021.1.4,60.048158981468504,
D,left,Distractor,0,63,63,63,472.96947982537677,474.97165197819413,left,1,1,0.570307046364178,C05M05,2022-09-20_16h03.28.869,t1_Paradigm,2021.1.4,60.048158981468504,
R,left,Distractor,0,0,0,0,484.815641296751,486.8216534538806,left,1,1,1.0885562097100774,C05M05,2022-09-20_16h03.28.869,t1_Paradigm,2021.1.4,60.048158981468504,
V,left,Distractor,0,1,1,1,488.3194819426717,490.32049471573555,left,1,1,0.6456141183880391,C05M05,2022-09-20_16h03.28.869,t1_Paradigm,2021.1.4,60.048158981468504,
N,left,Pretarget,0,2,2,2,491.8195871658536,493.82060571335023,left,1,1,0.7295799670537235,C05M05,2022-09-20_16h03.28.869,t1_Paradigm,2021.1.4,60.048158981468504,
N,right,Target,0,3,3,3,495.3185769591946,497.3194078373199,right,1,1,0.4466800804802915,C05M05,2022-09-20_16h03.28.869,t1_Paradigm,2021.1.4,60.048158981468504,
S,left,Distractor,0,4,4,4,498.8194745642104,500.8208501647605,left,1,1,0.5771013196499553,C05M05,2022-09-20_16h03.28.869,t1_Paradigm,2021.1.4,60.048158981468504,
N,left,Lure,0,5,5,5,502.319624378928,504.3210673479625,left,1,1,0.9649536248180084,C05M05,2022-09-20_16h03.28.869,t1_Paradigm,2021.1.4,60.048158981468504,
Z,left,Distractor,0,6,6,6,505.81965453433804,507.82134580441925,left,1,1,0.6808606742415577,C05M05,2022-09-20_16h03.28.869,t1_Paradigm,2021.1.4,60.048158981468504,
L,left,Pretarget,0,7,7,7,509.3194787346438,511.32114498213923,left,1,1,0.6049501729721669,C05M05,2022-09-20_16h03.28.869,t1_Paradigm,2021.1.4,60.048158981468504,
L,right,Target,0,8,8,8,512.8195002284046,514.8196128300333,right,1,1,0.578341220782022,C05M05,2022-09-20_16h03.28.869,t1_Paradigm,2021.1.4,60.048158981468504,
H,left,Distractor,0,9,9,9,516.3195794665953,518.3211379244749,left,1,1,0.532825781221618,C05M05,2022-09-20_16h03.28.869,t1_Paradigm,2021.1.4,60.048158981468504,
L,left,Lure,0,10,10,10,519.819573692148,521.8203243696771,left,1,1,0.8098036561277695,C05M05,2022-09-20_16h03.28.869,t1_Paradigm,2021.1.4,60.048158981468504,
X,left,Pretarget,0,11,11,11,523.3196086595999,525.3208081396442,left,1,1,0.7491498737217626,C05M05,2022-09-20_16h03.28.869,t1_Paradigm,2021.1.4,60.048158981468504,
X,right,Target,0,12,12,12,526.8196311157662,528.8197312061093,right,1,1,0.5782443384814542,C05M05,2022-09-20_16h03.28.869,t1_Paradigm,2021.1.4,60.048158981468504,
X,right,Target,0,13,13,13,530.3196779529098,532.3191916165379,left,0,1,0.4228338782704668,C05M05,2022-09-20_16h03.28.869,t1_Paradigm,2021.1.4,60.048158981468504,
R,left,Distractor,0,14,14,14,533.8195659928897,535.8206794979051,left,1,1,0.5373429993196623,C05M05,2022-09-20_16h03.28.869,t1_Paradigm,2021.1.4,60.048158981468504,
T,left,Distractor,0,15,15,15,537.3195069652575,539.3201039784617,left,1,1,0.638024896819843,C05M05,2022-09-20_16h03.28.869,t1_Paradigm,2021.1.4,60.048158981468504,
V,left,Pretarget,0,16,16,16,540.8194498624362,542.821319819428,left,1,1,0.5450557297735941,C05M05,2022-09-20_16h03.28.869,t1_Paradigm,2021.1.4,60.048158981468504,
V,right,Target,0,17,17,17,544.3196298325638,546.3195300630323,left,0,1,0.5826919424725929,C05M05,2022-09-20_16h03.28.869,t1_Paradigm,2021.1.4,60.048158981468504,
N,left,Distractor,0,18,18,18,547.8195807497978,549.8212646414177,left,1,1,0.4245415092591429,C05M05,2022-09-20_16h03.28.869,t1_Paradigm,2021.1.4,60.048158981468504,
B,left,Distractor,0,19,19,19,551.3195265342074,553.3204828460439,left,1,1,0.605711116179009,C05M05,2022-09-20_16h03.28.869,t1_Paradigm,2021.1.4,60.048158981468504,
V,left,Lure,0,20,20,20,554.8187039969343,556.8208893026458,left,1,1,0.6732666406605858,C05M05,2022-09-20_16h03.28.869,t1_Paradigm,2021.1.4,60.048158981468504,
P,left,Distractor,0,21,21,21,558.3196404190385,560.3208280293911,left,1,1,0.5012033296807203,C05M05,2022-09-20_16h03.28.869,t1_Paradigm,2021.1.4,60.048158981468504,
K,left,Pretarget,0,22,22,22,561.8196109052224,563.8200398179906,left,1,1,0.47404452224145643,C05M05,2022-09-20_16h03.28.869,t1_Paradigm,2021.1.4,60.048158981468504,
K,right,Target,0,23,23,23,565.3196866145736,567.3196153964527,right,1,1,0.6064521696534939,C05M05,2022-09-20_16h03.28.869,t1_Paradigm,2021.1.4,60.048158981468504,
J,left,Pretarget,0,24,24,24,568.8196481182968,570.8210391173488,left,1,1,0.5131987717177253,C05M05,2022-09-20_16h03.28.869,t1_Paradigm,2021.1.4,60.048158981468504,
J,right,Target,0,25,25,25,572.319705221118,574.3193680578261,right,1,1,0.582888594319229,C05M05,2022-09-20_16h03.28.869,t1_Paradigm,2021.1.4,60.048158981468504,
H,left,Distractor,0,26,26,26,575.8197276772844,577.8196699328546,left,1,1,0.5705226255522575,C05M05,2022-09-20_16h03.28.869,t1_Paradigm,2021.1.4,60.048158981468504,
J,left,Lure,0,27,27,27,579.3196153964527,581.3201139233279,left,1,1,0.6380746211943915,C05M05,2022-09-20_16h03.28.869,t1_Paradigm,2021.1.4,60.048158981468504,
V,left,Distractor,0,28,28,28,582.8196259829274,584.8215456642938,left,1,1,0.7205282075010473,C05M05,2022-09-20_16h03.28.869,t1_Paradigm,2021.1.4,60.048158981468504,
Z,left,Pretarget,0,29,29,29,586.3196327197802,588.3206952172186,left,1,1,0.5172918890893925,C05M05,2022-09-20_16h03.28.869,t1_Paradigm,2021.1.4,60.048158981468504,
Z,right,Target,0,30,30,30,589.8197167699982,591.8196625544078,right,1,1,1.1145607702346751,C05M05,2022-09-20_16h03.28.869,t1_Paradigm,2021.1.4,60.048158981468504,
T,left,Distractor,0,31,31,31,593.3196628752048,595.3203991166374,left,1,1,0.49364747156505473,C05M05,2022-09-20_16h03.28.869,t1_Paradigm,2021.1.4,60.048158981468504,
Z,left,Lure,0,32,32,32,596.8197928001609,598.8187386435893,left,1,1,0.8513703393837204,C05M05,2022-09-20_16h03.28.869,t1_Paradigm,2021.1.4,60.048158981468504,
F,left,Distractor,0,33,33,33,600.3196099428169,602.3210041498969,left,1,1,0.5650600028748158,C05M05,2022-09-20_16h03.28.869,t1_Paradigm,2021.1.4,60.048158981468504,
Y,left,Pretarget,0,34,34,34,603.819739867773,605.8212755486893,left,1,1,0.5688259018352255,C05M05,2022-09-20_16h03.28.869,t1_Paradigm,2021.1.4,60.048158981468504,
Y,right,Target,0,35,35,35,607.3194152157812,609.3197225444455,left,0,1,0.6064046909013996,C05M05,2022-09-20_16h03.28.869,t1_Paradigm,2021.1.4,60.048158981468504,
Y,right,Target,0,36,36,36,610.8195942235034,612.8194479376252,right,1,1,0.4666942984331399,C05M05,2022-09-20_16h03.28.869,t1_Paradigm,2021.1.4,60.048158981468504,
W,left,Distractor,0,37,37,37,614.319591657084,616.3211937440938,left,1,1,0.4689296493161237,C05M05,2022-09-20_16h03.28.869,t1_Paradigm,2021.1.4,60.048158981468504,
Q,left,Distractor,0,38,38,38,617.8196423438494,619.8217099150934,left,1,1,0.6645777085941518,C05M05,2022-09-20_16h03.28.869,t1_Paradigm,2021.1.4,60.048158981468504,
P,left,Pretarget,0,39,39,39,621.3196596671769,623.3209149668401,left,1,1,0.5254505348420935,C05M05,2022-09-20_16h03.28.869,t1_Paradigm,2021.1.4,60.048158981468504,
P,right,Target,0,40,40,40,624.8363689791731,626.8197347349342,right,1,1,0.7063933345052646,C05M05,2022-09-20_16h03.28.869,t1_Paradigm,2021.1.4,60.048158981468504,
J,left,Distractor,0,41,41,41,628.3197292812984,630.3210121699522,left,1,1,0.5170759890897898,C05M05,2022-09-20_16h03.28.869,t1_Paradigm,2021.1.4,60.048158981468504,
P,left,Lure,0,42,42,42,631.8197700231976,633.8202448106895,left,1,1,0.8419730757013895,C05M05,2022-09-20_16h03.28.869,t1_Paradigm,2021.1.4,60.048158981468504,
L,left,Distractor,0,43,43,43,635.3197196572291,637.3213656941662,left,1,1,0.5889424557535676,C05M05,2022-09-20_16h03.28.869,t1_Paradigm,2021.1.4,60.048158981468504,
Z,left,Distractor,0,44,44,44,638.8197658527642,640.8213259146723,left,1,1,0.7048079291998874,C05M05,2022-09-20_16h03.28.869,t1_Paradigm,2021.1.4,60.048158981468504,
F,left,Pretarget,0,45,45,45,642.3198213515716,644.3213624861382,left,1,1,0.5813083218672546,C05M05,2022-09-20_16h03.28.869,t1_Paradigm,2021.1.4,60.048158981468504,
F,right,Target,0,46,46,46,645.8196487599052,647.8197620031424,right,1,1,0.8265219505847199,C05M05,2022-09-20_16h03.28.869,t1_Paradigm,2021.1.4,60.048158981468504,
G,left,Pretarget,0,47,47,47,649.3196814817493,651.3204202895868,left,1,1,0.46218381718790624,C05M05,2022-09-20_16h03.28.869,t1_Paradigm,2021.1.4,60.048158981468504,
G,right,Target,0,48,48,48,652.8194649401412,654.8196757073019,left,0,1,1.1384502807632089,C05M05,2022-09-20_16h03.28.869,t1_Paradigm,2021.1.4,60.048158981468504,
V,left,Distractor,0,49,49,49,656.3197058627266,658.3212065761909,left,1,1,0.5009101163013838,C05M05,2022-09-20_16h03.28.869,t1_Paradigm,2021.1.4,60.048158981468504,
G,left,Lure,0,50,50,50,659.819523967788,661.8213461252162,left,1,1,0.5687935007881606,C05M05,2022-09-20_16h03.28.869,t1_Paradigm,2021.1.4,60.048158981468504,
Q,left,Pretarget,0,51,51,51,663.3196648000157,665.3219947875914,left,1,1,0.5882854525116272,C05M05,2022-09-20_16h03.28.869,t1_Paradigm,2021.1.4,60.048158981468504,
Q,right,Target,0,52,52,52,666.8195663136867,668.8197049003211,left,0,1,1.314625636470737,C05M05,2022-09-20_16h03.28.869,t1_Paradigm,2021.1.4,60.048158981468504,
Y,left,Distractor,0,53,53,53,670.3197389053676,672.3209579543473,left,1,1,0.5973776331520639,C05M05,2022-09-20_16h03.28.869,t1_Paradigm,2021.1.4,60.048158981468504,
V,left,Distractor,0,54,54,54,673.8196340029972,675.8212922304228,left,1,1,0.5848419599351473,C05M05,2022-09-20_16h03.28.869,t1_Paradigm,2021.1.4,60.048158981468504,
B,left,Distractor,0,55,55,55,677.3197283188929,679.3209608415782,left,1,1,0.4453275777050294,C05M05,2022-09-20_16h03.28.869,t1_Paradigm,2021.1.4,60.048158981468504,
J,left,Pretarget,0,56,56,56,680.8197559078981,682.821134074853,left,1,1,0.4812940140836872,C05M05,2022-09-20_16h03.28.869,t1_Paradigm,2021.1.4,60.048158981468504,
J,right,Target,0,57,57,57,684.3197539830726,686.3198268052074,right,1,1,0.5342786951368907,C05M05,2022-09-20_16h03.28.869,t1_Paradigm,2021.1.4,60.048158981468504,
H,left,Distractor,0,58,58,58,687.8197228652425,689.8210772928287,left,1,1,0.4093011512886733,C05M05,2022-09-20_16h03.28.869,t1_Paradigm,2021.1.4,60.048158981468504,
J,left,Lure,0,59,59,59,691.3197260732704,693.321066706354,left,1,1,0.6211988127761288,C05M05,2022-09-20_16h03.28.869,t1_Paradigm,2021.1.4,60.048158981468504,
D,left,Pretarget,0,60,60,60,694.8194453712058,696.8210092827358,left,1,1,0.4653498157276772,C05M05,2022-09-20_16h03.28.869,t1_Paradigm,2021.1.4,60.048158981468504,
D,right,Target,0,61,61,61,698.319725110865,700.3196657624212,right,1,1,0.5505112948158057,C05M05,2022-09-20_16h03.28.869,t1_Paradigm,2021.1.4,60.048158981468504,
R,left,Distractor,0,62,62,62,701.8195663136867,703.8204334424809,left,1,1,0.42570441783755086,C05M05,2022-09-20_16h03.28.869,t1_Paradigm,2021.1.4,60.048158981468504,
F,left,Distractor,0,63,63,63,705.3197344141372,707.3188804382371,left,1,1,0.5914495262404671,C05M05,2022-09-20_16h03.28.869,t1_Paradigm,2021.1.4,60.048158981468504,
F,left,Distractor,0,0,0,0,732.2777365724905,734.2697957515484,left,1,2,0.5208697978669079,C05M05,2022-09-20_16h03.28.869,t1_Paradigm,2021.1.4,60.048158981468504,
N,left,Pretarget,0,1,1,1,735.7695596410049,737.7719990221958,left,1,2,0.5702900438336655,C05M05,2022-09-20_16h03.28.869,t1_Paradigm,2021.1.4,60.048158981468504,
V,left,Distractor,0,2,2,2,739.2694601922703,741.2712213972554,left,1,2,0.8631681671686238,C05M05,2022-09-20_16h03.28.869,t1_Paradigm,2021.1.4,60.048158981468504,
N,right,Target,0,3,3,3,742.7697431399574,744.7827529590722,right,1,2,0.8715228231594665,C05M05,2022-09-20_16h03.28.869,t1_Paradigm,2021.1.4,60.048158981468504,
N,left,Lure,0,4,4,4,746.2697194005887,748.2698015259812,left,1,2,1.1284678735682974,C05M05,2022-09-20_16h03.28.869,t1_Paradigm,2021.1.4,60.048158981468504,
X,left,Distractor,0,5,5,5,749.7698781977524,751.771034048681,left,1,2,1.099214868285344,C05M05,2022-09-20_16h03.28.869,t1_Paradigm,2021.1.4,60.048158981468504,
G,left,Pretarget,0,6,6,6,753.2698044132121,755.2688904472743,left,1,2,0.8013938221265562,C05M05,2022-09-20_16h03.28.869,t1_Paradigm,2021.1.4,60.048158981468504,
H,left,Pretarget,0,7,7,7,756.7689045625739,758.7718745508755,left,1,2,1.1864439186174423,C05M05,2022-09-20_16h03.28.869,t1_Paradigm,2021.1.4,60.048158981468504,
G,right,Target,0,8,8,8,760.2697697665571,762.2714254275634,left,0,2,1.0629645218286896,C05M05,2022-09-20_16h03.28.869,t1_Paradigm,2021.1.4,60.048158981468504,
H,right,Target,0,9,9,9,763.7698435510974,765.7716884855035,None,0,2,,C05M05,2022-09-20_16h03.28.869,t1_Paradigm,2021.1.4,60.048158981468504,
T,left,Pretarget,0,10,10,10,767.2698226989451,769.2704524339933,left,1,2,1.1038135701965075,C05M05,2022-09-20_16h03.28.869,t1_Paradigm,2021.1.4,60.048158981468504,
K,left,Distractor,0,11,11,11,770.7688756903663,772.7718536987231,left,1,2,0.9307917017431464,C05M05,2022-09-20_16h03.28.869,t1_Paradigm,2021.1.4,60.048158981468504,
T,right,Target,0,12,12,12,774.2697370447131,776.2712303797161,right,1,2,0.5195513001526706,C05M05,2022-09-20_16h03.28.869,t1_Paradigm,2021.1.4,60.048158981468504,
T,left,Lure,0,13,13,13,777.769842588692,779.7700257668475,left,1,2,0.6042732799833175,C05M05,2022-09-20_16h03.28.869,t1_Paradigm,2021.1.4,60.048158981468504,
J,left,Distractor,0,14,14,14,781.2697787490179,783.271808144782,left,1,2,0.4946573574125068,C05M05,2022-09-20_16h03.28.869,t1_Paradigm,2021.1.4,60.048158981468504,
Q,left,Pretarget,0,15,15,15,784.7697893354925,786.771674691001,left,1,2,0.48237351403804496,C05M05,2022-09-20_16h03.28.869,t1_Paradigm,2021.1.4,60.048158981468504,
M,left,Distractor,0,16,16,16,788.2699000123102,790.2725777496526,left,1,2,0.5977196084713796,C05M05,2022-09-20_16h03.28.869,t1_Paradigm,2021.1.4,60.048158981468504,
Q,right,Target,0,17,17,17,791.7689295851596,793.7704540379927,right,1,2,0.4438088993047131,C05M05,2022-09-20_16h03.28.869,t1_Paradigm,2021.1.4,60.048158981468504,
R,left,Distractor,0,18,18,18,795.2698640824528,797.2714263899688,left,1,2,0.4312369754188694,C05M05,2022-09-20_16h03.28.869,t1_Paradigm,2021.1.4,60.048158981468504,
W,left,Distractor,0,19,19,19,798.7698278317839,800.7713561342534,left,1,2,0.6591526197880739,C05M05,2022-09-20_16h03.28.869,t1_Paradigm,2021.1.4,60.048158981468504,
C,left,Pretarget,0,20,20,20,802.2698384182586,804.2717510419607,left,1,2,0.6147041688818717,C05M05,2022-09-20_16h03.28.869,t1_Paradigm,2021.1.4,60.048158981468504,
T,left,Distractor,0,21,21,21,805.7689632694091,807.7713657583226,left,1,2,0.5389197429467458,C05M05,2022-09-20_16h03.28.869,t1_Paradigm,2021.1.4,60.048158981468504,
C,right,Target,0,22,22,22,809.2699028995412,811.2715832623217,right,1,2,0.8148967144807102,C05M05,2022-09-20_16h03.28.869,t1_Paradigm,2021.1.4,60.048158981468504,
F,left,Pretarget,0,23,23,23,812.7698130748759,814.7713404149399,left,1,2,0.482968602431356,C05M05,2022-09-20_16h03.28.869,t1_Paradigm,2021.1.4,60.048158981468504,
C,right,Target,0,24,24,24,816.2699077115685,818.2703263586591,right,1,2,0.935999928144156,C05M05,2022-09-20_16h03.28.869,t1_Paradigm,2021.1.4,60.048158981468504,
F,right,Target,0,25,25,25,819.7689677606395,821.7713394525199,right,1,2,0.7471535206132103,C05M05,2022-09-20_16h03.28.869,t1_Paradigm,2021.1.4,60.048158981468504,
H,left,Distractor,0,26,26,26,823.2698477215308,825.2828848088539,left,1,2,0.8515631416084943,C05M05,2022-09-20_16h03.28.869,t1_Paradigm,2021.1.4,60.048158981468504,
H,left,Lure,0,27,27,27,826.7698570248031,828.7699651351868,left,1,2,1.0605713361728704,C05M05,2022-09-20_16h03.28.869,t1_Paradigm,2021.1.4,60.048158981468504,
P,left,Distractor,0,28,28,28,830.2699394710071,832.2704543588043,left,1,2,0.8559443395060953,C05M05,2022-09-20_16h03.28.869,t1_Paradigm,2021.1.4,60.048158981468504,
G,left,Pretarget,0,29,29,29,833.7698557415861,835.771485738398,left,1,2,0.6188274416927015,C05M05,2022-09-20_16h03.28.869,t1_Paradigm,2021.1.4,60.048158981468504,
K,left,Distractor,0,30,30,30,837.2698884634301,839.2717943502794,left,1,2,0.7025421021098737,C05M05,2022-09-20_16h03.28.869,t1_Paradigm,2021.1.4,60.048158981468504,
G,right,Target,0,31,31,31,840.7698329646228,842.7689597405843,right,1,2,0.5815319211251335,C05M05,2022-09-20_16h03.28.869,t1_Paradigm,2021.1.4,60.048158981468504,
M,left,Pretarget,0,32,32,32,844.2698217365396,846.2715136482147,left,1,2,0.5028275520453462,C05M05,2022-09-20_16h03.28.869,t1_Paradigm,2021.1.4,60.048158981468504,
B,left,Distractor,0,33,33,33,847.7699526239012,849.7717026008031,left,1,2,1.1628533958864864,C05M05,2022-09-20_16h03.28.869,t1_Paradigm,2021.1.4,60.048158981468504,
M,right,Target,0,34,34,34,851.2699035411351,853.2714244651579,right,1,2,0.5590654898842331,C05M05,2022-09-20_16h03.28.869,t1_Paradigm,2021.1.4,60.048158981468504,
M,left,Lure,0,35,35,35,854.7695949292684,856.7700453357829,left,1,2,0.8363134803803405,C05M05,2022-09-20_16h03.28.869,t1_Paradigm,2021.1.4,60.048158981468504,
T,left,Distractor,0,36,36,36,858.2699686640262,860.2719047063001,left,1,2,0.646634590710164,C05M05,2022-09-20_16h03.28.869,t1_Paradigm,2021.1.4,60.048158981468504,
F,left,Distractor,0,37,37,37,861.7698807641718,863.7713943097333,left,1,2,0.8429200842801947,C05M05,2022-09-20_16h03.28.869,t1_Paradigm,2021.1.4,60.048158981468504,
X,left,Distractor,0,38,38,38,865.2696427288174,867.271537708395,left,1,2,0.4949711021181429,C05M05,2022-09-20_16h03.28.869,t1_Paradigm,2021.1.4,60.048158981468504,
C,left,Distractor,0,39,39,39,868.7696465784393,870.7707161335275,left,1,2,0.4516871637897566,C05M05,2022-09-20_16h03.28.869,t1_Paradigm,2021.1.4,60.048158981468504,
R,left,Distractor,0,40,40,40,872.2699519822927,874.27137153277,left,1,2,0.43912710959557444,C05M05,2022-09-20_16h03.28.869,t1_Paradigm,2021.1.4,60.048158981468504,
B,left,Pretarget,0,41,41,41,875.7699218268681,877.7710295574361,left,1,2,0.4752144884550944,C05M05,2022-09-20_16h03.28.869,t1_Paradigm,2021.1.4,60.048158981468504,
H,left,Distractor,0,42,42,42,879.2700969849684,881.2715803751053,left,1,2,0.6069500549201621,C05M05,2022-09-20_16h03.28.869,t1_Paradigm,2021.1.4,60.048158981468504,
B,right,Target,0,43,43,43,882.7699109195964,884.7717279441858,left,0,2,1.0426760178525,C05M05,2022-09-20_16h03.28.869,t1_Paradigm,2021.1.4,60.048158981468504,
W,left,Pretarget,0,44,44,44,886.2699750800675,888.271773818924,left,1,2,0.7748695617483463,C05M05,2022-09-20_16h03.28.869,t1_Paradigm,2021.1.4,60.048158981468504,
L,left,Pretarget,0,45,45,45,889.7698653656553,891.7716977887612,left,1,2,0.9067988928436534,C05M05,2022-09-20_16h03.28.869,t1_Paradigm,2021.1.4,60.048158981468504,
W,right,Target,0,46,46,46,893.2699641727813,895.2690678509825,right,1,2,1.425486593027017,C05M05,2022-09-20_16h03.28.869,t1_Paradigm,2021.1.4,60.048158981468504,
L,right,Target,0,47,47,47,896.7698332854197,898.7717850470071,right,1,2,0.8826293218444334,C05M05,2022-09-20_16h03.28.869,t1_Paradigm,2021.1.4,60.048158981468504,
W,right,Target,0,48,48,48,900.2699949698144,902.2716294578713,right,1,2,1.2709150310111,C05M05,2022-09-20_16h03.28.869,t1_Paradigm,2021.1.4,60.048158981468504,
X,left,Distractor,0,49,49,49,903.7690113897552,905.7712945402018,left,1,2,0.4593049367686035,C05M05,2022-09-20_16h03.28.869,t1_Paradigm,2021.1.4,60.048158981468504,
R,left,Distractor,0,50,50,50,907.2699378669931,909.2718585107505,left,1,2,0.5108925234962953,C05M05,2022-09-20_16h03.28.869,t1_Paradigm,2021.1.4,60.048158981468504,
V,left,Pretarget,0,51,51,51,910.769941075021,912.7718158440402,left,1,2,0.6426130122708855,C05M05,2022-09-20_16h03.28.869,t1_Paradigm,2021.1.4,60.048158981468504,
Z,left,Distractor,0,52,52,52,914.2699138068128,916.2716939391394,left,1,2,0.5347095327015268,C05M05,2022-09-20_16h03.28.869,t1_Paradigm,2021.1.4,60.048158981468504,
V,right,Target,0,53,53,53,917.7700305788749,919.7719358241302,left,0,2,0.7626765054592397,C05M05,2022-09-20_16h03.28.869,t1_Paradigm,2021.1.4,60.048158981468504,
V,left,Lure,0,54,54,54,921.2699465286569,923.2700116515334,left,1,2,1.1044391348114004,C05M05,2022-09-20_16h03.28.869,t1_Paradigm,2021.1.4,60.048158981468504,
N,left,Distractor,0,55,55,55,924.7697197213856,926.7710321238555,left,1,2,0.6915462802280672,C05M05,2022-09-20_16h03.28.869,t1_Paradigm,2021.1.4,60.048158981468504,
B,left,Distractor,0,56,56,56,928.2699109195964,930.2712056779419,left,1,2,0.4712708649894921,C05M05,2022-09-20_16h03.28.869,t1_Paradigm,2021.1.4,60.048158981468504,
V,left,Lure,0,57,57,57,931.7700167843723,933.7704187497438,None,0,2,,C05M05,2022-09-20_16h03.28.869,t1_Paradigm,2021.1.4,60.048158981468504,
J,left,Distractor,0,58,58,58,935.2699895161786,937.2718841749447,left,1,2,0.6866081694170134,C05M05,2022-09-20_16h03.28.869,t1_Paradigm,2021.1.4,60.048158981468504,
H,left,Distractor,0,59,59,59,938.7699712304457,940.7715646557917,left,1,2,0.8509119128138991,C05M05,2022-09-20_16h03.28.869,t1_Paradigm,2021.1.4,60.048158981468504,
X,left,Pretarget,0,60,60,60,942.2700033106812,944.271586149538,left,1,2,0.9348626837600023,C05M05,2022-09-20_16h03.28.869,t1_Paradigm,2021.1.4,60.048158981468504,
P,left,Distractor,0,61,61,61,945.7699786088924,947.7715463700588,left,1,2,0.5389232717716368,C05M05,2022-09-20_16h03.28.869,t1_Paradigm,2021.1.4,60.048158981468504,
X,right,Target,0,62,62,62,949.2701364436507,951.2714786807483,right,1,2,0.959098340041237,C05M05,2022-09-20_16h03.28.869,t1_Paradigm,2021.1.4,60.048158981468504,
Q,left,Distractor,0,63,63,63,952.7698137164844,954.7723259197955,left,1,2,0.49801070454122964,C05M05,2022-09-20_16h03.28.869,t1_Paradigm,2021.1.4,60.048158981468504,
B,left,Pretarget,0,0,0,0,1014.263926351472,1016.2553654195508,None,0,2,,C05M05,2022-09-20_16h03.28.869,t1_Paradigm,2021.1.4,60.048158981468504,
F,left,Distractor,0,1,1,1,1017.7532571064075,1019.755307354324,left,1,2,1.1954635979054729,C05M05,2022-09-20_16h03.28.869,t1_Paradigm,2021.1.4,60.048158981468504,
B,right,Target,0,2,2,2,1021.2529456073098,1023.2539561347658,right,1,2,0.7685677200934151,C05M05,2022-09-20_16h03.28.869,t1_Paradigm,2021.1.4,60.048158981468504,
V,left,Distractor,0,3,3,3,1024.7531769058114,1026.7547934289323,left,1,2,0.7558803073479794,C05M05,2022-09-20_16h03.28.869,t1_Paradigm,2021.1.4,60.048158981468504,
G,left,Pretarget,0,4,4,4,1028.253221497347,1030.2540244656702,left,1,2,1.0005633289547404,C05M05,2022-09-20_16h03.28.869,t1_Paradigm,2021.1.4,60.048158981468504,
B,left,Lure,0,5,5,5,1031.7533985802584,1033.7550276146649,left,1,2,1.0515587145346217,C05M05,2022-09-20_16h03.28.869,t1_Paradigm,2021.1.4,60.048158981468504,
G,right,Target,0,6,6,6,1035.2531839634757,1037.255042050776,right,1,2,1.1035720060172025,C05M05,2022-09-20_16h03.28.869,t1_Paradigm,2021.1.4,60.048158981468504,
Y,left,Pretarget,0,7,7,7,1038.753427131669,1040.7550144617708,left,1,2,0.48357748532725964,C05M05,2022-09-20_16h03.28.869,t1_Paradigm,2021.1.4,60.048158981468504,
P,left,Distractor,0,8,8,8,1042.253312605215,1044.2525282434362,left,1,2,1.3700349417922553,C05M05,2022-09-20_16h03.28.869,t1_Paradigm,2021.1.4,60.048158981468504,
Y,right,Target,0,9,9,9,1045.7534556830797,1047.752536584303,right,1,2,0.6380239344143774,C05M05,2022-09-20_16h03.28.869,t1_Paradigm,2021.1.4,60.048158981468504,
X,left,Distractor,0,10,10,10,1049.2532080236415,1051.2550606573059,left,1,2,0.7035879178147297,C05M05,2022-09-20_16h03.28.869,t1_Paradigm,2021.1.4,60.048158981468504,
Y,right,Target,0,11,11,11,1052.7534553622681,1054.7552515347197,None,0,2,,C05M05,2022-09-20_16h03.28.869,t1_Paradigm,2021.1.4,60.048158981468504,
N,left,Distractor,0,12,12,12,1056.2532368958637,1058.2538412875147,left,1,2,0.9367528512957506,C05M05,2022-09-20_16h03.28.869,t1_Paradigm,2021.1.4,60.048158981468504,
Y,right,Target,0,13,13,13,1059.7534694775677,1061.7549868727656,right,1,2,0.6359996715036687,C05M05,2022-09-20_16h03.28.869,t1_Paradigm,2021.1.4,60.048158981468504,
Y,left,Lure,0,14,14,14,1063.2538938991056,1065.253106008502,left,1,2,1.3454906736296834,C05M05,2022-09-20_16h03.28.869,t1_Paradigm,2021.1.4,60.048158981468504,
K,left,Distractor,0,15,15,15,1066.7534627407294,1068.7539882150013,left,1,2,0.916570532892365,C05M05,2022-09-20_16h03.28.869,t1_Paradigm,2021.1.4,60.048158981468504,
T,left,Pretarget,0,16,16,16,1070.2533312117594,1072.2544091076998,left,1,2,0.37630662803712767,C05M05,2022-09-20_16h03.28.869,t1_Paradigm,2021.1.4,60.048158981468504,
J,left,Distractor,0,17,17,17,1073.7534377181437,1075.7550138201623,left,1,2,0.6676028749061516,C05M05,2022-09-20_16h03.28.869,t1_Paradigm,2021.1.4,60.048158981468504,
T,right,Target,0,18,18,18,1077.2534553622681,1079.2545759249333,right,1,2,0.5440718289319193,C05M05,2022-09-20_16h03.28.869,t1_Paradigm,2021.1.4,60.048158981468504,
S,left,Pretarget,0,19,19,19,1080.753425527655,1082.7545140100701,left,1,2,0.43605638935696334,C05M05,2022-09-20_16h03.28.869,t1_Paradigm,2021.1.4,60.048158981468504,
R,left,Distractor,0,20,20,20,1084.2534884049091,1086.2545951730717,left,1,2,0.5520707151154056,C05M05,2022-09-20_16h03.28.869,t1_Paradigm,2021.1.4,60.048158981468504,
S,right,Target,0,21,21,21,1087.753496424979,1089.7525433211413,right,1,2,0.6860605597903486,C05M05,2022-09-20_16h03.28.869,t1_Paradigm,2021.1.4,60.048158981468504,
Q,left,Distractor,0,22,22,22,1091.2537097585446,1093.2546250076994,left,1,2,0.6401338515715906,C05M05,2022-09-20_16h03.28.869,t1_Paradigm,2021.1.4,60.048158981468504,
D,left,Distractor,0,23,23,23,1094.7534171867883,1096.7551017200021,left,1,2,0.5796369415475056,C05M05,2022-09-20_16h03.28.869,t1_Paradigm,2021.1.4,60.048158981468504,
F,left,Distractor,0,24,24,24,1098.2534925753425,1100.254549939942,left,1,2,0.6161266065755626,C05M05,2022-09-20_16h03.28.869,t1_Paradigm,2021.1.4,60.048158981468504,
Z,left,Distractor,0,25,25,25,1101.7533700288477,1103.7542265711527,left,1,2,0.540239844674943,C05M05,2022-09-20_16h03.28.869,t1_Paradigm,2021.1.4,60.048158981468504,
P,left,Distractor,0,26,26,26,1105.2533472518699,1107.2539240545302,left,1,2,0.5607314165681601,C05M05,2022-09-20_16h03.28.869,t1_Paradigm,2021.1.4,60.048158981468504,
H,left,Distractor,0,27,27,27,1108.7534880841122,1110.7545162556926,left,1,2,0.43610194329812657,C05M05,2022-09-20_16h03.28.869,t1_Paradigm,2021.1.4,60.048158981468504,
Z,left,Pretarget,0,28,28,28,1112.2531175573822,1114.254265388241,left,1,2,1.2724288973695366,C05M05,2022-09-20_16h03.28.869,t1_Paradigm,2021.1.4,60.048158981468504,
J,left,Pretarget,0,29,29,29,1115.7534633823234,1117.7546275741188,left,1,2,0.9561649232055061,C05M05,2022-09-20_16h03.28.869,t1_Paradigm,2021.1.4,60.048158981468504,
Z,right,Target,0,30,30,30,1119.2533392318146,1121.2550009880651,left,0,2,1.1676439376024064,C05M05,2022-09-20_16h03.28.869,t1_Paradigm,2021.1.4,60.048158981468504,
J,right,Target,0,31,31,31,1122.7534495878208,1124.75510492803,right,1,2,0.6596129711979302,C05M05,2022-09-20_16h03.28.869,t1_Paradigm,2021.1.4,60.048158981468504,
V,left,Pretarget,0,32,32,32,1126.253075532266,1128.2542843155825,left,1,2,0.600406649071374,C05M05,2022-09-20_16h03.28.869,t1_Paradigm,2021.1.4,60.048158981468504,
Z,left,Lure,0,33,33,33,1129.7535137483064,1131.7547937497438,right,0,2,0.6358819370361743,C05M05,2022-09-20_16h03.28.869,t1_Paradigm,2021.1.4,60.048158981468504,
V,right,Target,0,34,34,34,1133.2536722246732,1135.2549618501798,right,1,2,0.6398322973545874,C05M05,2022-09-20_16h03.28.869,t1_Paradigm,2021.1.4,60.048158981468504,
X,left,Distractor,0,35,35,35,1136.7535400540946,1138.7542785411351,left,1,2,0.48433939093956724,C05M05,2022-09-20_16h03.28.869,t1_Paradigm,2021.1.4,60.048158981468504,
S,left,Distractor,0,36,36,36,1140.2533655376028,1142.2543446264317,left,1,2,0.48836289418977685,C05M05,2022-09-20_16h03.28.869,t1_Paradigm,2021.1.4,60.048158981468504,
Q,left,Distractor,0,37,37,37,1143.7534171867883,1145.755426051197,left,1,2,0.5872245590871898,C05M05,2022-09-20_16h03.28.869,t1_Paradigm,2021.1.4,60.048158981468504,
P,left,Distractor,0,38,38,38,1147.2535031618172,1149.253394730622,left,1,2,0.43347393031581305,C05M05,2022-09-20_16h03.28.869,t1_Paradigm,2021.1.4,60.048158981468504,
S,left,Lure,0,39,39,39,1150.7535086154676,1152.7553827428783,left,1,2,0.6114817091292934,C05M05,2022-09-20_16h03.28.869,t1_Paradigm,2021.1.4,60.048158981468504,
K,left,Pretarget,0,40,40,40,1154.2619344895793,1156.2539596635906,left,1,2,0.472817774003488,C05M05,2022-09-20_16h03.28.869,t1_Paradigm,2021.1.4,60.048158981468504,
L,left,Distractor,0,41,41,41,1157.753422640424,1159.7555723370751,left,1,2,0.42757052519300487,C05M05,2022-09-20_16h03.28.869,t1_Paradigm,2021.1.4,60.048158981468504,
K,right,Target,0,42,42,42,1161.2537957335735,1163.2545505815506,right,1,2,0.9765689160558395,C05M05,2022-09-20_16h03.28.869,t1_Paradigm,2021.1.4,60.048158981468504,
B,left,Distractor,0,43,43,43,1164.7536305203685,1166.7549288075388,left,1,2,0.38784011466486845,C05M05,2022-09-20_16h03.28.869,t1_Paradigm,2021.1.4,60.048158981468504,
N,left,Distractor,0,44,44,44,1168.2533626503864,1170.255640026371,left,1,2,0.5031024796771817,C05M05,2022-09-20_16h03.28.869,t1_Paradigm,2021.1.4,60.048158981468504,
S,left,Pretarget,0,45,45,45,1171.753494820965,1173.7553471338178,left,1,2,0.5071882186020957,C05M05,2022-09-20_16h03.28.869,t1_Paradigm,2021.1.4,60.048158981468504,
Z,left,Distractor,0,46,46,46,1175.2704954215005,1177.255526462337,left,1,2,0.43142817362968344,C05M05,2022-09-20_16h03.28.869,t1_Paradigm,2021.1.4,60.048158981468504,
S,right,Target,0,47,47,47,1178.753578550386,1180.7550183113926,right,1,2,0.49962819006759673,C05M05,2022-09-20_16h03.28.869,t1_Paradigm,2021.1.4,60.048158981468504,
C,left,Distractor,0,48,48,48,1182.2532721841271,1184.2534187908022,left,1,2,0.5213458685902879,C05M05,2022-09-20_16h03.28.869,t1_Paradigm,2021.1.4,60.048158981468504,
T,left,Pretarget,0,49,49,49,1185.7535249763896,1187.755205018373,left,1,2,0.4759029303386342,C05M05,2022-09-20_16h03.28.869,t1_Paradigm,2021.1.4,60.048158981468504,
S,left,Lure,0,50,50,50,1189.2530620585749,1191.2551354042516,left,1,2,0.8156143493688432,C05M05,2022-09-20_16h03.28.869,t1_Paradigm,2021.1.4,60.048158981468504,
T,right,Target,0,51,51,51,1192.753513106698,1194.7555043269822,left,0,2,0.5151989744626917,C05M05,2022-09-20_16h03.28.869,t1_Paradigm,2021.1.4,60.048158981468504,
N,left,Pretarget,0,52,52,52,1196.2531380887376,1198.2547093787143,left,1,2,0.6000098165532108,C05M05,2022-09-20_16h03.28.869,t1_Paradigm,2021.1.4,60.048158981468504,
B,left,Distractor,0,53,53,53,1199.7526305793872,1201.754231062383,left,1,2,0.9725665857404238,C05M05,2022-09-20_16h03.28.869,t1_Paradigm,2021.1.4,60.048158981468504,
N,right,Target,0,54,54,54,1203.253238179066,1205.2542230423278,right,1,2,0.6407282983564073,C05M05,2022-09-20_16h03.28.869,t1_Paradigm,2021.1.4,60.048158981468504,
N,left,Lure,0,55,55,55,1206.7536423900456,1208.753546149339,left,1,2,0.9494149206584552,C05M05,2022-09-20_16h03.28.869,t1_Paradigm,2021.1.4,60.048158981468504,
X,left,Distractor,0,56,56,56,1210.2536176882713,1212.2537527460663,left,1,2,0.5210279534367146,C05M05,2022-09-20_16h03.28.869,t1_Paradigm,2021.1.4,60.048158981468504,
W,left,Distractor,0,57,57,57,1213.753557698219,1215.755328527288,left,1,2,0.4115612039604457,C05M05,2022-09-20_16h03.28.869,t1_Paradigm,2021.1.4,60.048158981468504,
S,left,Distractor,0,58,58,58,1217.2534791016515,1219.2546663911926,left,1,2,0.4643226065527415,C05M05,2022-09-20_16h03.28.869,t1_Paradigm,2021.1.4,60.048158981468504,
L,left,Distractor,0,59,59,59,1220.7535763047636,1222.7553147327853,left,1,2,0.45147864226601087,C05M05,2022-09-20_16h03.28.869,t1_Paradigm,2021.1.4,60.048158981468504,
K,left,Pretarget,0,60,60,60,1224.2533427606395,1226.255006120904,left,1,2,0.5037745606241515,C05M05,2022-09-20_16h03.28.869,t1_Paradigm,2021.1.4,60.048158981468504,
V,left,Pretarget,0,61,61,61,1227.7535926656856,1229.7554696803272,left,1,2,0.6193121740652714,C05M05,2022-09-20_16h03.28.869,t1_Paradigm,2021.1.4,60.048158981468504,
K,right,Target,0,62,62,62,1231.2539041647833,1233.2556207782327,left,0,2,0.4474698959093075,C05M05,2022-09-20_16h03.28.869,t1_Paradigm,2021.1.4,60.048158981468504,
V,right,Target,0,63,63,63,1234.7526469403092,1236.7554282968194,left,0,2,0.4193903856939869,C05M05,2022-09-20_16h03.28.869,t1_Paradigm,2021.1.4,60.048158981468504,
R,left,Distractor,0,0,0,0,1289.7667208608764,1291.7718848165532,left,1,3,1.4509275037999032,C05M05,2022-09-20_16h03.28.869,t1_Paradigm,2021.1.4,60.048158981468504,
P,left,Lure,0,1,1,1,1293.2701983585139,1295.2720651074778,left,1,3,0.41490268139750697,C05M05,2022-09-20_16h03.28.869,t1_Paradigm,2021.1.4,60.048158981468504,
V,left,Distractor,0,2,2,2,1296.7702349299798,1298.7723195037543,left,1,3,0.4185389761987608,C05M05,2022-09-20_16h03.28.869,t1_Paradigm,2021.1.4,60.048158981468504,
P,left,Pretarget,0,3,3,3,1300.2703090353316,1302.271995814168,left,1,3,1.0949613497359678,C05M05,2022-09-20_16h03.28.869,t1_Paradigm,2021.1.4,60.048158981468504,
Z,left,Distractor,0,4,4,4,1303.7703504188394,1305.7720227615646,left,1,3,0.6668688790960005,C05M05,2022-09-20_16h03.28.869,t1_Paradigm,2021.1.4,60.048158981468504,
L,left,Pretarget,0,5,5,5,1307.270311922548,1309.2715325755562,left,1,3,0.5914193708158564,C05M05,2022-09-20_16h03.28.869,t1_Paradigm,2021.1.4,60.048158981468504,
P,right,Target,0,6,6,6,1310.770226268316,1312.7719650171348,None,0,3,,C05M05,2022-09-20_16h03.28.869,t1_Paradigm,2021.1.4,60.048158981468504,
S,left,Distractor,0,7,7,7,1314.2693815956882,1316.2719970973703,left,1,3,0.7429019268602133,C05M05,2022-09-20_16h03.28.869,t1_Paradigm,2021.1.4,60.048158981468504,
L,right,Target,0,8,8,8,1317.7703600429086,1319.7718646059948,right,1,3,0.9390841220738366,C05M05,2022-09-20_16h03.28.869,t1_Paradigm,2021.1.4,60.048158981468504,
D,left,Distractor,0,9,9,9,1321.269569265074,1323.2721530073177,left,1,3,0.7987484858022071,C05M05,2022-09-20_16h03.28.869,t1_Paradigm,2021.1.4,60.048158981468504,
G,left,Distractor,0,10,10,10,1324.7701579374116,1326.7723166165379,left,1,3,0.4984611110558035,C05M05,2022-09-20_16h03.28.869,t1_Paradigm,2021.1.4,60.048158981468504,
M,left,Pretarget,0,11,11,11,1328.2703735165996,1330.2719977389788,left,1,3,0.7429041724826675,C05M05,2022-09-20_16h03.28.869,t1_Paradigm,2021.1.4,60.048158981468504,
Y,left,Distractor,0,12,12,12,1331.770158899817,1333.7722004860698,left,1,3,0.4745975855184952,C05M05,2022-09-20_16h03.28.869,t1_Paradigm,2021.1.4,60.048158981468504,
V,left,Distractor,0,13,13,13,1335.2703356619313,1337.2720195535367,left,1,3,0.7029257817339385,C05M05,2022-09-20_16h03.28.869,t1_Paradigm,2021.1.4,60.048158981468504,
M,right,Target,0,14,14,14,1338.7700061978976,1340.7717654780718,right,1,3,0.9315160734840902,C05M05,2022-09-20_16h03.28.869,t1_Paradigm,2021.1.4,60.048158981468504,
S,left,Pretarget,0,15,15,15,1342.2704200329463,1344.2722344911308,left,1,3,1.222812320353114,C05M05,2022-09-20_16h03.28.869,t1_Paradigm,2021.1.4,60.048158981468504,
Q,left,Distractor,0,16,16,16,1345.7703671005584,1347.7723586416396,left,1,3,0.9066991233121371,C05M05,2022-09-20_16h03.28.869,t1_Paradigm,2021.1.4,60.048158981468504,
R,left,Pretarget,0,17,17,17,1349.2703651757474,1351.2704556420067,left,1,3,0.8488353590801125,C05M05,2022-09-20_16h03.28.869,t1_Paradigm,2021.1.4,60.048158981468504,
S,right,Target,0,18,18,18,1352.7703520228533,1354.7722360951302,right,1,3,1.2507025571685517,C05M05,2022-09-20_16h03.28.869,t1_Paradigm,2021.1.4,60.048158981468504,
F,left,Distractor,0,19,19,19,1356.2705884541938,1358.271872305253,left,1,3,0.5990788480849005,C05M05,2022-09-20_16h03.28.869,t1_Paradigm,2021.1.4,60.048158981468504,
R,right,Target,0,20,20,20,1359.7704097672686,1361.772161989793,right,1,3,0.9548319893947337,C05M05,2022-09-20_16h03.28.869,t1_Paradigm,2021.1.4,60.048158981468504,
P,left,Distractor,0,21,21,21,1363.2703459275945,1365.2715803751053,left,1,3,0.7513184977287892,C05M05,2022-09-20_16h03.28.869,t1_Paradigm,2021.1.4,60.048158981468504,
L,left,Distractor,0,22,22,22,1366.7704110504856,1368.7721148318378,left,1,3,0.8028499440406449,C05M05,2022-09-20_16h03.28.869,t1_Paradigm,2021.1.4,60.048158981468504,
R,right,Target,0,23,23,23,1370.270476173362,1372.2722303206974,right,1,3,0.902746838182793,C05M05,2022-09-20_16h03.28.869,t1_Paradigm,2021.1.4,60.048158981468504,
H,left,Pretarget,0,24,24,24,1373.770380895061,1375.7721433832485,left,1,3,0.442815374393831,C05M05,2022-09-20_16h03.28.869,t1_Paradigm,2021.1.4,60.048158981468504,
G,left,Pretarget,0,25,25,25,1377.270295240829,1379.2717234529555,left,1,3,0.9272038480849005,C05M05,2022-09-20_16h03.28.869,t1_Paradigm,2021.1.4,60.048158981468504,
T,left,Distractor,0,26,26,26,1380.7703616469225,1382.7694951597223,left,1,3,0.6294591528712772,C05M05,2022-09-20_16h03.28.869,t1_Paradigm,2021.1.4,60.048158981468504,
H,right,Target,0,27,27,27,1384.2703860278998,1386.272129267949,left,0,3,0.5028525746311061,C05M05,2022-09-20_16h03.28.869,t1_Paradigm,2021.1.4,60.048158981468504,
G,right,Target,0,28,28,28,1387.7704389602877,1389.7710629208887,right,1,3,0.7960595203912817,C05M05,2022-09-20_16h03.28.869,t1_Paradigm,2021.1.4,60.048158981468504,
D,left,Distractor,0,29,29,29,1391.2701566542091,1393.2696116109873,left,1,3,0.514009439284564,C05M05,2022-09-20_16h03.28.869,t1_Paradigm,2021.1.4,60.048158981468504,
N,left,Pretarget,0,30,30,30,1394.7700700375717,1396.7720769771695,left,1,3,0.5949767482379684,C05M05,2022-09-20_16h03.28.869,t1_Paradigm,2021.1.4,60.048158981468504,
V,left,Distractor,0,31,31,31,1398.2704187497438,1400.2722527768638,left,1,3,0.5027223288780078,C05M05,2022-09-20_16h03.28.869,t1_Paradigm,2021.1.4,60.048158981468504,
R,left,Distractor,0,32,32,32,1401.7704405643017,1403.7722386615496,left,1,3,0.6027225213620113,C05M05,2022-09-20_16h03.28.869,t1_Paradigm,2021.1.4,60.048158981468504,
N,right,Target,0,33,33,33,1405.2705390506308,1407.272157177751,left,0,3,0.4630541540100239,C05M05,2022-09-20_16h03.28.869,t1_Paradigm,2021.1.4,60.048158981468504,
Z,left,Distractor,0,34,34,34,1408.7695737563045,1410.7719977389788,left,1,3,0.45100353396264836,C05M05,2022-09-20_16h03.28.869,t1_Paradigm,2021.1.4,60.048158981468504,
N,left,Lure,0,35,35,35,1412.27041008808,1414.2723214285652,left,1,3,1.3346549321431667,C05M05,2022-09-20_16h03.28.869,t1_Paradigm,2021.1.4,60.048158981468504,
Y,left,Pretarget,0,36,36,36,1415.7695259567554,1417.7713580590644,left,1,3,0.7157610843569273,C05M05,2022-09-20_16h03.28.869,t1_Paradigm,2021.1.4,60.048158981468504,
Y,left,Lure,0,37,37,37,1419.2704274114076,1421.2704639828735,left,1,3,0.9608791139762616,C05M05,2022-09-20_16h03.28.869,t1_Paradigm,2021.1.4,60.048158981468504,
B,left,Distractor,0,38,38,38,1422.7703815366694,1424.7719422401715,left,1,3,0.5308698492008261,C05M05,2022-09-20_16h03.28.869,t1_Paradigm,2021.1.4,60.048158981468504,
Y,right,Target,0,39,39,39,1426.2704017472133,1428.2720702403167,right,1,3,0.7750947650201852,C05M05,2022-09-20_16h03.28.869,t1_Paradigm,2021.1.4,60.048158981468504,
J,left,Distractor,0,40,40,40,1429.7702519325103,1431.7716326658847,left,1,3,0.4116827880498022,C05M05,2022-09-20_16h03.28.869,t1_Paradigm,2021.1.4,60.048158981468504,
X,left,Distractor,0,41,41,41,1433.2704505091679,1435.2723172581318,left,1,3,0.4468879604100948,C05M05,2022-09-20_16h03.28.869,t1_Paradigm,2021.1.4,60.048158981468504,
W,left,Pretarget,0,42,42,42,1436.7702176066523,1438.772058370625,left,1,3,0.5630912387568969,C05M05,2022-09-20_16h03.28.869,t1_Paradigm,2021.1.4,60.048158981468504,
S,left,Pretarget,0,43,43,43,1440.270190017647,1442.2724356342078,left,1,3,0.5665632827585796,C05M05,2022-09-20_16h03.28.869,t1_Paradigm,2021.1.4,60.048158981468504,
R,left,Distractor,0,44,44,44,1443.770433506652,1445.7723329774453,left,1,3,1.1948210307746194,C05M05,2022-09-20_16h03.28.869,t1_Paradigm,2021.1.4,60.048158981468504,
W,right,Target,0,45,45,45,1447.270483231012,1449.2722867819102,right,1,3,0.878901919175405,C05M05,2022-09-20_16h03.28.869,t1_Paradigm,2021.1.4,60.048158981468504,
S,right,Target,0,46,46,46,1450.7703998224024,1452.7721135486354,right,1,3,1.442956206636154,C05M05,2022-09-20_16h03.28.869,t1_Paradigm,2021.1.4,60.048158981468504,
D,left,Distractor,0,47,47,47,1454.2703966143745,1456.2711745601118,left,1,3,0.7601444123865804,C05M05,2022-09-20_16h03.28.869,t1_Paradigm,2021.1.4,60.048158981468504,
T,left,Distractor,0,48,48,48,1457.7703895567247,1459.7722854987078,left,1,3,0.5707038788823411,C05M05,2022-09-20_16h03.28.869,t1_Paradigm,2021.1.4,60.048158981468504,
S,right,Target,0,49,49,49,1461.2704716821318,1463.2719367865357,right,1,3,0.9593549819255713,C05M05,2022-09-20_16h03.28.869,t1_Paradigm,2021.1.4,60.048158981468504,
K,left,Distractor,0,50,50,50,1464.7705676020414,1466.7725421405921,left,1,3,0.43448574097419623,C05M05,2022-09-20_16h03.28.869,t1_Paradigm,2021.1.4,60.048158981468504,
S,left,Lure,0,51,51,51,1468.2705149904505,1470.272392325889,right,0,3,1.1908148508373415,C05M05,2022-09-20_16h03.28.869,t1_Paradigm,2021.1.4,60.048158981468504,
T,left,Pretarget,0,52,52,52,1471.7704999127309,1473.7726319652575,right,0,3,1.0025102785148192,C05M05,2022-09-20_16h03.28.869,t1_Paradigm,2021.1.4,60.048158981468504,
V,left,Distractor,0,53,53,53,1475.2704068800522,1477.2719707915821,left,1,3,0.35105210344772786,C05M05,2022-09-20_16h03.28.869,t1_Paradigm,2021.1.4,60.048158981468504,
B,left,Distractor,0,54,54,54,1478.770496063109,1480.7724228021107,left,1,3,1.1067671975761186,C05M05,2022-09-20_16h03.28.869,t1_Paradigm,2021.1.4,60.048158981468504,
T,right,Target,0,55,55,55,1482.2704659076844,1484.271976245218,left,0,3,0.6472707417997299,C05M05,2022-09-20_16h03.28.869,t1_Paradigm,2021.1.4,60.048158981468504,
Y,left,Pretarget,0,56,56,56,1485.770043731769,1487.7716377987235,left,1,3,0.939638468567864,C05M05,2022-09-20_16h03.28.869,t1_Paradigm,2021.1.4,60.048158981468504,
T,left,Lure,0,57,57,57,1489.2705082535977,1491.2714286355767,right,0,3,1.0074371612281539,C05M05,2022-09-20_16h03.28.869,t1_Paradigm,2021.1.4,60.048158981468504,
P,left,Pretarget,0,58,58,58,1492.7704902886617,1494.7717664404772,left,1,3,0.5475474017584929,C05M05,2022-09-20_16h03.28.869,t1_Paradigm,2021.1.4,60.048158981468504,
Y,right,Target,0,59,59,59,1496.2705050455697,1498.2717362850526,left,0,3,0.5995366330607794,C05M05,2022-09-20_16h03.28.869,t1_Paradigm,2021.1.4,60.048158981468504,
R,left,Distractor,0,60,60,60,1499.7705137072335,1501.770868193853,None,0,3,,C05M05,2022-09-20_16h03.28.869,t1_Paradigm,2021.1.4,60.048158981468504,
P,right,Target,0,61,61,61,1503.2704790605785,1505.2717173577112,left,0,3,0.9752882730099373,C05M05,2022-09-20_16h03.28.869,t1_Paradigm,2021.1.4,60.048158981468504,
L,left,Distractor,0,62,62,62,1506.7705538075388,1508.7720939796855,left,1,3,1.4110976445372216,C05M05,2022-09-20_16h03.28.869,t1_Paradigm,2021.1.4,60.048158981468504,
V,left,Distractor,0,63,63,63,1510.2704553212097,1512.2723393935012,left,1,3,0.8868186799372779,C05M05,2022-09-20_16h03.28.869,t1_Paradigm,2021.1.4,60.048158981468504,
H,left,Lure,0,0,0,0,1518.8842458449653,1520.8886065115075,left,1,3,0.8149121129827108,C05M05,2022-09-20_16h03.28.869,t1_Paradigm,2021.1.4,60.048158981468504,
B,left,Distractor,0,1,1,1,1522.3871664296894,1524.3877897486964,left,1,3,0.4993840594688663,C05M05,2022-09-20_16h03.28.869,t1_Paradigm,2021.1.4,60.048158981468504,
T,left,Distractor,0,2,2,2,1525.8872713320743,1527.888894912845,left,1,3,0.5022562030353583,C05M05,2022-09-20_16h03.28.869,t1_Paradigm,2021.1.4,60.048158981468504,
R,left,Distractor,0,3,3,3,1529.3869601537735,1531.3887078850676,left,1,3,0.922237506674719,C05M05,2022-09-20_16h03.28.869,t1_Paradigm,2021.1.4,60.048158981468504,
H,left,Pretarget,0,4,4,4,1532.8867772964295,1534.8890700709308,right,0,3,0.9101114980730927,C05M05,2022-09-20_16h03.28.869,t1_Paradigm,2021.1.4,60.048158981468504,
K,left,Distractor,0,5,5,5,1536.3872052467777,1538.3896125477331,left,1,3,0.8016081180976471,C05M05,2022-09-20_16h03.28.869,t1_Paradigm,2021.1.4,60.048158981468504,
G,left,Distractor,0,6,6,6,1539.8872344397969,1541.88865944391,left,1,3,0.662672463353374,C05M05,2022-09-20_16h03.28.869,t1_Paradigm,2021.1.4,60.048158981468504,
H,right,Target,0,7,7,7,1543.3871385198872,1545.3887630630634,right,1,3,0.7146575242368272,C05M05,2022-09-20_16h03.28.869,t1_Paradigm,2021.1.4,60.048158981468504,
Y,left,Pretarget,0,8,8,8,1546.8872103796166,1548.8892920661747,left,1,3,0.38178015798621345,C05M05,2022-09-20_16h03.28.869,t1_Paradigm,2021.1.4,60.048158981468504,
S,left,Distractor,0,9,9,9,1550.387267161641,1552.3887489477638,left,1,3,0.6103765449806815,C05M05,2022-09-20_16h03.28.869,t1_Paradigm,2021.1.4,60.048158981468504,
P,left,Distractor,0,10,10,10,1553.887183111423,1555.8891640660295,None,0,3,,C05M05,2022-09-20_16h03.28.869,t1_Paradigm,2021.1.4,60.048158981468504,
Y,right,Target,0,11,11,11,1557.3872183996718,1559.3887341908558,right,1,3,0.8264362963527674,C05M05,2022-09-20_16h03.28.869,t1_Paradigm,2021.1.4,60.048158981468504,
H,left,Lure,0,12,12,12,1560.8872350814054,1562.8888763063005,left,1,3,0.5262913578480948,C05M05,2022-09-20_16h03.28.869,t1_Paradigm,2021.1.4,60.048158981468504,
Q,left,Distractor,0,13,13,13,1564.387616515407,1566.3882924459904,left,1,3,0.5152682677726261,C05M05,2022-09-20_16h03.28.869,t1_Paradigm,2021.1.4,60.048158981468504,
V,left,Pretarget,0,14,14,14,1567.887298279471,1569.888809900207,left,1,3,0.438322216461529,C05M05,2022-09-20_16h03.28.869,t1_Paradigm,2021.1.4,60.048158981468504,
G,left,Distractor,0,15,15,15,1571.3872793521296,1573.3884236541635,left,1,3,0.5387923844100442,C05M05,2022-09-20_16h03.28.869,t1_Paradigm,2021.1.4,60.048158981468504,
Z,left,Pretarget,0,16,16,16,1574.8862999425037,1576.8888390932261,left,1,3,0.46239586755109485,C05M05,2022-09-20_16h03.28.869,t1_Paradigm,2021.1.4,60.048158981468504,
V,right,Target,0,17,17,17,1578.3872463094885,1580.3888349227927,left,0,3,0.46634815269499086,C05M05,2022-09-20_16h03.28.869,t1_Paradigm,2021.1.4,60.048158981468504,
N,left,Distractor,0,18,18,18,1581.8872559335578,1583.8891829933564,right,0,3,0.598144029994728,C05M05,2022-09-20_16h03.28.869,t1_Paradigm,2021.1.4,60.048158981468504,
Z,right,Target,0,19,19,19,1585.387260745585,1587.3891862013843,left,0,3,0.5061417612887453,C05M05,2022-09-20_16h03.28.869,t1_Paradigm,2021.1.4,60.048158981468504,
R,left,Distractor,0,20,20,20,1588.887328114084,1590.8889128777664,left,1,3,0.8947091349109542,C05M05,2022-09-20_16h03.28.869,t1_Paradigm,2021.1.4,60.048158981468504,
P,left,Distractor,0,21,21,21,1592.3872552919493,1594.3885805265163,right,0,3,0.7226673176774057,C05M05,2022-09-20_16h03.28.869,t1_Paradigm,2021.1.4,60.048158981468504,
Z,right,Target,0,22,22,22,1595.8872880137933,1597.8890232337872,right,1,3,0.7743068744021002,C05M05,2022-09-20_16h03.28.869,t1_Paradigm,2021.1.4,60.048158981468504,
D,left,Pretarget,0,23,23,23,1599.3872867305763,1601.3888185618707,left,1,3,0.7465982117137173,C05M05,2022-09-20_16h03.28.869,t1_Paradigm,2021.1.4,60.048158981468504,
K,left,Distractor,0,24,24,24,1602.887318169218,1604.8891852389788,left,1,3,0.5581704512733268,C05M05,2022-09-20_16h03.28.869,t1_Paradigm,2021.1.4,60.048158981468504,
W,left,Distractor,0,25,25,25,1606.3873794424726,1608.3893093895022,left,1,3,0.5300463495223084,C05M05,2022-09-20_16h03.28.869,t1_Paradigm,2021.1.4,60.048158981468504,
D,right,Target,0,26,26,26,1609.8873858585139,1611.88897928386,right,1,3,0.6304109734919621,C05M05,2022-09-20_16h03.28.869,t1_Paradigm,2021.1.4,60.048158981468504,
G,left,Pretarget,0,27,27,27,1613.3872613871936,1615.3888711734617,left,1,3,0.6664983523660339,C05M05,2022-09-20_16h03.28.869,t1_Paradigm,2021.1.4,60.048158981468504,
V,left,Distractor,0,28,28,28,1616.8872283445526,1618.8886854289012,left,1,3,0.6386161355912918,C05M05,2022-09-20_16h03.28.869,t1_Paradigm,2021.1.4,60.048158981468504,
D,right,Target,0,29,29,29,1620.3873104699596,1622.3890177801513,left,0,3,0.5144604874076322,C05M05,2022-09-20_16h03.28.869,t1_Paradigm,2021.1.4,60.048158981468504,
G,right,Target,0,30,30,30,1623.8872774273186,1625.8892333593394,right,1,3,0.7901455287938006,C05M05,2022-09-20_16h03.28.869,t1_Paradigm,2021.1.4,60.048158981468504,
B,left,Pretarget,0,31,31,31,1627.3872909010097,1629.3889212186332,left,1,3,0.5703769812826067,C05M05,2022-09-20_16h03.28.869,t1_Paradigm,2021.1.4,60.048158981468504,
N,left,Distractor,0,32,32,32,1630.887448414971,1632.8881426312873,left,1,3,0.46329475578386337,C05M05,2022-09-20_16h03.28.869,t1_Paradigm,2021.1.4,60.048158981468504,
F,left,Distractor,0,33,33,33,1634.3873319637205,1636.389079374203,left,1,3,0.530478470318485,C05M05,2022-09-20_16h03.28.869,t1_Paradigm,2021.1.4,60.048158981468504,
B,right,Target,0,34,34,34,1637.8873191316234,1639.8891213993047,right,1,3,1.0302898385125445,C05M05,2022-09-20_16h03.28.869,t1_Paradigm,2021.1.4,60.048158981468504,
Q,left,Pretarget,0,35,35,35,1641.3874342996714,1643.3877798038156,left,1,3,0.5236139413027558,C05M05,2022-09-20_16h03.28.869,t1_Paradigm,2021.1.4,60.048158981468504,
S,left,Pretarget,0,36,36,36,1644.887280314535,1646.889176577315,left,1,3,0.5902012842416298,C05M05,2022-09-20_16h03.28.869,t1_Paradigm,2021.1.4,60.048158981468504,
W,left,Distractor,0,37,37,37,1648.3874429613352,1650.3891220409132,left,1,3,0.5782722482836107,C05M05,2022-09-20_16h03.28.869,t1_Paradigm,2021.1.4,60.048158981468504,
Q,right,Target,0,38,38,38,1651.8873967658,1653.888811183424,right,1,3,0.8065786299557658,C05M05,2022-09-20_16h03.28.869,t1_Paradigm,2021.1.4,60.048158981468504,
S,right,Target,0,39,39,39,1655.3873550614808,1657.388980567077,left,0,3,0.4903560392995132,C05M05,2022-09-20_16h03.28.869,t1_Paradigm,2021.1.4,60.048158981468504,
T,left,Distractor,0,40,40,40,1658.887211342022,1660.8864237722155,left,1,3,0.6409271958254976,C05M05,2022-09-20_16h03.28.869,t1_Paradigm,2021.1.4,60.048158981468504,
G,left,Distractor,0,41,41,41,1662.3873268308816,1664.3879597739433,right,0,3,0.7873336960474262,C05M05,2022-09-20_16h03.28.869,t1_Paradigm,2021.1.4,60.048158981468504,
D,left,Distractor,0,42,42,42,1665.8869348103908,1667.8891704820708,left,1,3,0.6462768960627727,C05M05,2022-09-20_16h03.28.869,t1_Paradigm,2021.1.4,60.048158981468504,
S,left,Lure,0,43,43,43,1669.3864340378932,1671.386588664638,left,1,3,0.6847170394903515,C05M05,2022-09-20_16h03.28.869,t1_Paradigm,2021.1.4,60.048158981468504,
Z,left,Pretarget,0,44,44,44,1672.8873242644622,1674.8888612285955,left,1,3,0.7184349720773753,C05M05,2022-09-20_16h03.28.869,t1_Paradigm,2021.1.4,60.048158981468504,
J,left,Distractor,0,45,45,45,1676.3872581791657,1678.3892121863755,left,1,3,0.6902232912689215,C05M05,2022-09-20_16h03.28.869,t1_Paradigm,2021.1.4,60.048158981468504,
M,left,Pretarget,0,46,46,46,1679.8873877833248,1681.8882459296583,left,1,3,0.7270677637279732,C05M05,2022-09-20_16h03.28.869,t1_Paradigm,2021.1.4,60.048158981468504,
Z,right,Target,0,47,47,47,1683.3873634023475,1685.389296557405,right,1,3,0.7782023775362177,C05M05,2022-09-20_16h03.28.869,t1_Paradigm,2021.1.4,60.048158981468504,
P,left,Distractor,0,48,48,48,1686.887447773377,1688.8888503213093,left,1,3,0.6864820940973004,C05M05,2022-09-20_16h03.28.869,t1_Paradigm,2021.1.4,60.048158981468504,
M,right,Target,0,49,49,49,1690.387365968767,1692.4056985407224,left,0,3,0.5781724787520943,C05M05,2022-09-20_16h03.28.869,t1_Paradigm,2021.1.4,60.048158981468504,
K,left,Distractor,0,50,50,50,1693.8873829712975,1695.8864747797925,left,1,3,0.5687886887608329,C05M05,2022-09-20_16h03.28.869,t1_Paradigm,2021.1.4,60.048158981468504,
Y,left,Distractor,0,51,51,51,1697.3873540990753,1699.3893087478937,left,1,3,0.842251532143564,C05M05,2022-09-20_16h03.28.869,t1_Paradigm,2021.1.4,60.048158981468504,
X,left,Distractor,0,52,52,52,1700.8870461288025,1702.8883540400566,left,1,3,0.7349716924072709,C05M05,2022-09-20_16h03.28.869,t1_Paradigm,2021.1.4,60.048158981468504,
F,left,Pretarget,0,53,53,53,1704.386455531654,1706.3891396850377,left,1,3,0.6903798428393202,C05M05,2022-09-20_16h03.28.869,t1_Paradigm,2021.1.4,60.048158981468504,
M,left,Lure,0,54,54,54,1707.8874410365243,1709.8891265321436,right,0,3,0.5984372433595126,C05M05,2022-09-20_16h03.28.869,t1_Paradigm,2021.1.4,60.048158981468504,
V,left,Distractor,0,55,55,55,1711.3873765552416,1713.3889289178915,left,1,3,0.5385293264698703,C05M05,2022-09-20_16h03.28.869,t1_Paradigm,2021.1.4,60.048158981468504,
F,right,Target,0,56,56,56,1714.887198509925,1716.8891223617102,left,0,3,0.7661819128989009,C05M05,2022-09-20_16h03.28.869,t1_Paradigm,2021.1.4,60.048158981468504,
S,left,Distractor,0,57,57,57,1718.3865020480007,1720.388725849989,left,1,3,0.5627887221344281,C05M05,2022-09-20_16h03.28.869,t1_Paradigm,2021.1.4,60.048158981468504,
D,left,Distractor,0,58,58,58,1721.8873037331068,1723.8888872135867,left,1,3,0.37449569867749233,C05M05,2022-09-20_16h03.28.869,t1_Paradigm,2021.1.4,60.048158981468504,
F,right,Target,0,59,59,59,1725.387248875908,1727.389464337044,left,0,3,0.5539156495215138,C05M05,2022-09-20_16h03.28.869,t1_Paradigm,2021.1.4,60.048158981468504,
V,left,Pretarget,0,60,60,60,1728.8871683545149,1730.8865286746004,left,1,3,0.5933297489100369,C05M05,2022-09-20_16h03.28.869,t1_Paradigm,2021.1.4,60.048158981468504,
J,left,Distractor,0,61,61,61,1732.3864478323958,1734.389178181329,left,1,3,0.7062075899302727,C05M05,2022-09-20_16h03.28.869,t1_Paradigm,2021.1.4,60.048158981468504,
V,left,Lure,0,62,62,62,1735.8874429613352,1737.8891496299184,right,0,3,0.9183853118738625,C05M05,2022-09-20_16h03.28.869,t1_Paradigm,2021.1.4,60.048158981468504,
V,right,Target,0,63,63,63,1739.3872832017514,1741.3873938785691,right,1,3,0.5879585549118929,C05M05,2022-09-20_16h03.28.869,t1_Paradigm,2021.1.4,60.048158981468504,
R,left,Distractor,0,0,0,0,1794.7452527665882,1796.739465491919,left,1,4,0.9319825201237109,C05M05,2022-09-20_16h03.28.869,t1_Paradigm,2021.1.4,60.048158981468504,
F,left,Distractor,0,1,1,1,1798.2374624019576,1800.2393589855346,left,1,4,0.37602817158040125,C05M05,2022-09-20_16h03.28.869,t1_Paradigm,2021.1.4,60.048158981468504,
P,left,Pretarget,0,2,2,2,1801.737499935829,1803.7392274565645,left,1,4,0.4761945396894589,C05M05,2022-09-20_16h03.28.869,t1_Paradigm,2021.1.4,60.048158981468504,
H,left,Distractor,0,3,3,3,1805.2374595147412,1807.2382785231748,left,1,4,0.5133453783928417,C05M05,2022-09-20_16h03.28.869,t1_Paradigm,2021.1.4,60.048158981468504,
Z,left,Distractor,0,4,4,4,1808.7373421010707,1810.7388149047329,left,1,4,0.5323971892648842,C05M05,2022-09-20_16h03.28.869,t1_Paradigm,2021.1.4,60.048158981468504,
T,left,Distractor,0,5,5,5,1812.2374899909628,1814.2386936414405,left,1,4,0.48878827814769465,C05M05,2022-09-20_16h03.28.869,t1_Paradigm,2021.1.4,60.048158981468504,
P,right,Target,0,6,6,6,1815.7374938405846,1817.738926543956,right,1,4,1.084529498417396,C05M05,2022-09-20_16h03.28.869,t1_Paradigm,2021.1.4,60.048158981468504,
G,left,Distractor,0,7,7,7,1819.2365962355689,1821.239079566687,left,1,4,0.7363857892196393,C05M05,2022-09-20_16h03.28.869,t1_Paradigm,2021.1.4,60.048158981468504,
L,left,Distractor,0,8,8,8,1822.7375118055206,1824.7387853909167,left,1,4,0.5324831642938079,C05M05,2022-09-20_16h03.28.869,t1_Paradigm,2021.1.4,60.048158981468504,
P,left,Lure,0,9,9,9,1826.237499294235,1828.2390035365243,None,0,4,,C05M05,2022-09-20_16h03.28.869,t1_Paradigm,2021.1.4,60.048158981468504,
Q,left,Pretarget,0,10,10,10,1829.7375945725362,1831.7382794855803,left,1,4,0.8771878721308894,C05M05,2022-09-20_16h03.28.869,t1_Paradigm,2021.1.4,60.048158981468504,
D,left,Distractor,0,11,11,11,1833.2374787628796,1835.2387796164694,left,1,4,0.9128774560667807,C05M05,2022-09-20_16h03.28.869,t1_Paradigm,2021.1.4,60.048158981468504,
M,left,Pretarget,0,12,12,12,1836.7364900499815,1838.7382595958334,left,1,4,1.221243596781278,C05M05,2022-09-20_16h03.28.869,t1_Paradigm,2021.1.4,60.048158981468504,
C,left,Distractor,0,13,13,13,1840.2374181312334,1842.2384315459058,left,1,4,0.4891424439410912,C05M05,2022-09-20_16h03.28.869,t1_Paradigm,2021.1.4,60.048158981468504,
Q,right,Target,0,14,14,14,1843.7374771588657,1845.738574302959,left,0,4,0.9090727400180185,C05M05,2022-09-20_16h03.28.869,t1_Paradigm,2021.1.4,60.048158981468504,
R,left,Distractor,0,15,15,15,1847.2374360961694,1849.2386952454544,right,0,4,1.2811354735604255,C05M05,2022-09-20_16h03.28.869,t1_Paradigm,2021.1.4,60.048158981468504,
M,right,Target,0,16,16,16,1850.7375008982344,1852.7391174213553,right,1,4,0.820404570287792,C05M05,2022-09-20_16h03.28.869,t1_Paradigm,2021.1.4,60.048158981468504,
S,left,Distractor,0,17,17,17,1854.2375349032955,1856.2366125964909,left,1,4,0.8430224202311365,C05M05,2022-09-20_16h03.28.869,t1_Paradigm,2021.1.4,60.048158981468504,
Z,left,Distractor,0,18,18,18,1857.7370405468537,1859.7393124692026,left,1,4,0.6361709799675737,C05M05,2022-09-20_16h03.28.869,t1_Paradigm,2021.1.4,60.048158981468504,
L,left,Pretarget,0,19,19,19,1861.237531053659,1863.2395136122796,left,1,4,0.6081360612588469,C05M05,2022-09-20_16h03.28.869,t1_Paradigm,2021.1.4,60.048158981468504,
M,right,Target,0,20,20,20,1864.7375993845635,1866.738539656304,right,1,4,0.8689714819629444,C05M05,2022-09-20_16h03.28.869,t1_Paradigm,2021.1.4,60.048158981468504,
P,left,Distractor,0,21,21,21,1868.237580136425,1870.239110684517,right,0,4,0.7763924105820479,C05M05,2022-09-20_16h03.28.869,t1_Paradigm,2021.1.4,60.048158981468504,
F,left,Distractor,0,22,22,22,1871.7372866022633,1873.7387529898697,left,1,4,0.588602405245183,C05M05,2022-09-20_16h03.28.869,t1_Paradigm,2021.1.4,60.048158981468504,
L,right,Target,0,23,23,23,1875.2374444370216,1877.2501097143977,left,0,4,0.5175799696153263,C05M05,2022-09-20_16h03.28.869,t1_Paradigm,2021.1.4,60.048158981468504,
L,left,Lure,0,24,24,24,1878.7375217504014,1880.737550622609,left,1,4,0.9821348370751366,C05M05,2022-09-20_16h03.28.869,t1_Paradigm,2021.1.4,60.048158981468504,
V,left,Pretarget,0,25,25,25,1882.237481008502,1884.2376353144355,left,1,4,1.0819698163395515,C05M05,2022-09-20_16h03.28.869,t1_Paradigm,2021.1.4,60.048158981468504,
Z,left,Distractor,0,26,26,26,1885.7373542915593,1887.7385553756176,left,1,4,0.6850683180673514,C05M05,2022-09-20_16h03.28.869,t1_Paradigm,2021.1.4,60.048158981468504,
H,left,Distractor,0,27,27,27,1889.2375371489034,1891.2393387749908,left,1,4,0.512372384822811,C05M05,2022-09-20_16h03.28.869,t1_Paradigm,2021.1.4,60.048158981468504,
X,left,Distractor,0,28,28,28,1892.7376118958637,1894.73936796801,left,1,4,0.6283809361339081,C05M05,2022-09-20_16h03.28.869,t1_Paradigm,2021.1.4,60.048158981468504,
V,right,Target,0,29,29,29,1896.2375974597526,1898.2392572911922,left,0,4,0.920308201253647,C05M05,2022-09-20_16h03.28.869,t1_Paradigm,2021.1.4,60.048158981468504,
C,left,Distractor,0,30,30,30,1899.7376561665878,1901.7366145213018,left,1,4,1.0389656176848803,C05M05,2022-09-20_16h03.28.869,t1_Paradigm,2021.1.4,60.048158981468504,
S,left,Pretarget,0,31,31,31,1903.2376090086327,1905.2395694318984,left,1,4,0.5444025761680678,C05M05,2022-09-20_16h03.28.869,t1_Paradigm,2021.1.4,60.048158981468504,
D,left,Distractor,0,32,32,32,1906.737515655157,1908.7389817219664,left,1,4,0.5486483954737196,C05M05,2022-09-20_16h03.28.869,t1_Paradigm,2021.1.4,60.048158981468504,
V,left,Distractor,0,33,33,33,1910.2376170287025,1912.239247667123,left,1,4,0.5523953670926858,C05M05,2022-09-20_16h03.28.869,t1_Paradigm,2021.1.4,60.048158981468504,
R,left,Distractor,0,34,34,34,1913.737667715468,1915.7378900315089,None,0,4,,C05M05,2022-09-20_16h03.28.869,t1_Paradigm,2021.1.4,60.048158981468504,
S,right,Target,0,35,35,35,1917.2368214388262,1919.2387141727813,right,1,4,0.9608213695464656,C05M05,2022-09-20_16h03.28.869,t1_Paradigm,2021.1.4,60.048158981468504,
Y,left,Distractor,0,36,36,36,1920.7373866926064,1922.7379930090683,left,1,4,0.6137754460360156,C05M05,2022-09-20_16h03.28.869,t1_Paradigm,2021.1.4,60.048158981468504,
N,left,Pretarget,0,37,37,37,1924.2376157454855,1926.2392175116984,left,1,4,0.7447760542854667,C05M05,2022-09-20_16h03.28.869,t1_Paradigm,2021.1.4,60.048158981468504,
Z,left,Pretarget,0,38,38,38,1927.73758366525,1929.7393965194206,left,1,4,1.0841791822313098,C05M05,2022-09-20_16h03.28.869,t1_Paradigm,2021.1.4,60.048158981468504,
P,left,Pretarget,0,39,39,39,1931.237432246533,1933.2396874871629,left,1,4,0.6080279508751119,C05M05,2022-09-20_16h03.28.869,t1_Paradigm,2021.1.4,60.048158981468504,
M,left,Distractor,0,40,40,40,1934.7376561665878,1936.7393439078296,left,1,4,0.5321017302776454,C05M05,2022-09-20_16h03.28.869,t1_Paradigm,2021.1.4,60.048158981468504,
N,right,Target,0,41,41,41,1938.237770051419,1940.238691075021,left,0,4,0.5209432616102276,C05M05,2022-09-20_16h03.28.869,t1_Paradigm,2021.1.4,60.048158981468504,
Z,right,Target,0,42,42,42,1941.7375124471291,1943.7388854812452,right,1,4,0.7968926441244548,C05M05,2022-09-20_16h03.28.869,t1_Paradigm,2021.1.4,60.048158981468504,
P,right,Target,0,43,43,43,1945.2375769283972,1947.2385919470835,right,1,4,1.121008256173809,C05M05,2022-09-20_16h03.28.869,t1_Paradigm,2021.1.4,60.048158981468504,
X,left,Pretarget,0,44,44,44,1948.7376125374576,1950.738792127755,left,1,4,0.6129275653947843,C05M05,2022-09-20_16h03.28.869,t1_Paradigm,2021.1.4,60.048158981468504,
Z,left,Lure,0,45,45,45,1952.237616066297,1954.2368438949925,left,1,4,0.4108958598517347,C05M05,2022-09-20_16h03.28.869,t1_Paradigm,2021.1.4,60.048158981468504,
R,left,Pretarget,0,46,46,46,1955.737568587545,1957.7386208193057,None,0,4,,C05M05,2022-09-20_16h03.28.869,t1_Paradigm,2021.1.4,60.048158981468504,
K,left,Distractor,0,47,47,47,1959.23763435203,1961.2389153158729,left,1,4,1.2487222441850463,C05M05,2022-09-20_16h03.28.869,t1_Paradigm,2021.1.4,60.048158981468504,
X,right,Target,0,48,48,48,1962.7376080462273,1964.7388736115681,left,0,4,0.6129150540946284,C05M05,2022-09-20_16h03.28.869,t1_Paradigm,2021.1.4,60.048158981468504,
B,left,Distractor,0,49,49,49,1966.2376045174024,1968.2391180629638,left,1,4,0.8405509588046698,C05M05,2022-09-20_16h03.28.869,t1_Paradigm,2021.1.4,60.048158981468504,
R,right,Target,0,50,50,50,1969.7375063518848,1971.739147255983,None,0,4,,C05M05,2022-09-20_16h03.28.869,t1_Paradigm,2021.1.4,60.048158981468504,
Y,left,Pretarget,0,51,51,51,1973.2376388432604,1975.2395052714128,left,1,4,0.6886712494451785,C05M05,2022-09-20_16h03.28.869,t1_Paradigm,2021.1.4,60.048158981468504,
W,left,Pretarget,0,52,52,52,1976.737586873278,1978.738360327785,left,1,4,0.5651575267984299,C05M05,2022-09-20_16h03.28.869,t1_Paradigm,2021.1.4,60.048158981468504,
Z,left,Distractor,0,53,53,53,1980.2376305023936,1982.2388056014606,left,1,4,0.920629003609065,C05M05,2022-09-20_16h03.28.869,t1_Paradigm,2021.1.4,60.048158981468504,
Q,left,Distractor,0,54,54,54,1983.7376417304768,1985.7381569390855,left,1,4,0.653415711101843,C05M05,2022-09-20_16h03.28.869,t1_Paradigm,2021.1.4,60.048158981468504,
Y,right,Target,0,55,55,55,1987.237581419642,1989.2393580231292,left,0,4,0.7043187055969611,C05M05,2022-09-20_16h03.28.869,t1_Paradigm,2021.1.4,60.048158981468504,
W,right,Target,0,56,56,56,1990.7376760563347,1992.7395075170352,None,0,4,,C05M05,2022-09-20_16h03.28.869,t1_Paradigm,2021.1.4,60.048158981468504,
H,left,Pretarget,0,57,57,57,1994.2377139110176,1996.2392637072335,left,1,4,0.5684874553408008,C05M05,2022-09-20_16h03.28.869,t1_Paradigm,2021.1.4,60.048158981468504,
M,left,Distractor,0,58,58,58,1997.7376372392464,1999.7368403661676,right,0,4,0.7029389346280368,C05M05,2022-09-20_16h03.28.869,t1_Paradigm,2021.1.4,60.048158981468504,
R,left,Pretarget,0,59,59,59,2001.2375512642175,2003.2384145433753,left,1,4,1.1212758053443395,C05M05,2022-09-20_16h03.28.869,t1_Paradigm,2021.1.4,60.048158981468504,
J,left,Distractor,0,60,60,60,2004.7376433344907,2006.7393060531467,left,1,4,0.6125939309422392,C05M05,2022-09-20_16h03.28.869,t1_Paradigm,2021.1.4,60.048158981468504,
H,right,Target,0,61,61,61,2008.2377049285424,2010.2385136713128,left,0,4,0.4732457243517274,C05M05,2022-09-20_16h03.28.869,t1_Paradigm,2021.1.4,60.048158981468504,
Z,left,Distractor,0,62,62,62,2011.7376609786152,2013.7395027049934,left,1,4,0.4761579682235606,C05M05,2022-09-20_16h03.28.869,t1_Paradigm,2021.1.4,60.048158981468504,
R,right,Target,0,63,63,63,2015.2376552041824,2017.2397378531314,left,0,4,0.46430720803618897,C05M05,2022-09-20_16h03.28.869,t1_Paradigm,2021.1.4,60.048158981468504,
J,left,Pretarget,0,0,0,0,2032.3617325765808,2034.356583377812,None,0,4,,C05M05,2022-09-20_16h03.28.869,t1_Paradigm,2021.1.4,60.048158981468504,
G,left,Pretarget,0,1,1,1,2035.8540917058417,2037.8562211919489,left,1,4,0.5033985802583629,C05M05,2022-09-20_16h03.28.869,t1_Paradigm,2021.1.4,60.048158981468504,
Z,left,Distractor,0,2,2,2,2039.3544522877055,2041.355764048567,left,1,4,0.45993980464118067,C05M05,2022-09-20_16h03.28.869,t1_Paradigm,2021.1.4,60.048158981468504,
F,left,Distractor,0,3,3,3,2042.8543287787907,2044.8562606506312,left,1,4,0.46354241520748474,C05M05,2022-09-20_16h03.28.869,t1_Paradigm,2021.1.4,60.048158981468504,
J,right,Target,0,4,4,4,2046.354281941647,2048.355951717953,right,1,4,1.0280554500495782,C05M05,2022-09-20_16h03.28.869,t1_Paradigm,2021.1.4,60.048158981468504,
G,right,Target,0,5,5,5,2049.85423093407,2051.856135537717,right,1,4,0.7759185854811221,C05M05,2022-09-20_16h03.28.869,t1_Paradigm,2021.1.4,60.048158981468504,
H,left,Distractor,0,6,6,6,2053.354371124704,2055.3550416016515,left,1,4,0.7328008227923419,C05M05,2022-09-20_16h03.28.869,t1_Paradigm,2021.1.4,60.048158981468504,
P,left,Distractor,0,7,7,7,2056.854109349966,2058.853449459508,left,1,4,0.6264349489792949,C05M05,2022-09-20_16h03.28.869,t1_Paradigm,2021.1.4,60.048158981468504,
G,left,Lure,0,8,8,8,2060.3544413804193,2062.3563360391854,right,0,4,0.7394651711219922,C05M05,2022-09-20_16h03.28.869,t1_Paradigm,2021.1.4,60.048158981468504,
S,left,Distractor,0,9,9,9,2063.8543047186104,2065.855898464768,left,1,4,0.5999556009483058,C05M05,2022-09-20_16h03.28.869,t1_Paradigm,2021.1.4,60.048158981468504,
R,left,Pretarget,0,10,10,10,2067.354484367941,2069.3545135609456,left,1,4,0.7973847549583297,C05M05,2022-09-20_16h03.28.869,t1_Paradigm,2021.1.4,60.048158981468504,
T,left,Pretarget,0,11,11,11,2070.854125710888,2072.8562612922397,left,1,4,0.9275846404925687,C05M05,2022-09-20_16h03.28.869,t1_Paradigm,2021.1.4,60.048158981468504,
X,left,Distractor,0,12,12,12,2074.3543794655707,2076.35618494128,left,1,4,0.8356413994188188,C05M05,2022-09-20_16h03.28.869,t1_Paradigm,2021.1.4,60.048158981468504,
F,left,Pretarget,0,13,13,13,2077.8544596661523,2079.8565711873234,left,1,4,1.2552698204526678,C05M05,2022-09-20_16h03.28.869,t1_Paradigm,2021.1.4,60.048158981468504,
R,right,Target,0,14,14,14,2081.35436246304,2083.356133933703,right,1,4,0.8596152809623163,C05M05,2022-09-20_16h03.28.869,t1_Paradigm,2021.1.4,60.048158981468504,
T,right,Target,0,15,15,15,2084.854413470617,2086.8547124584147,left,0,4,1.0091476794477785,C05M05,2022-09-20_16h03.28.869,t1_Paradigm,2021.1.4,60.048158981468504,
C,left,Distractor,0,16,16,16,2088.3543720871094,2090.3560290313326,left,1,4,0.8519448964216281,C05M05,2022-09-20_16h03.28.869,t1_Paradigm,2021.1.4,60.048158981468504,
F,right,Target,0,17,17,17,2091.8543435356987,2093.8558301338635,right,1,4,0.9839239518769318,C05M05,2022-09-20_16h03.28.869,t1_Paradigm,2021.1.4,60.048158981468504,
M,left,Distractor,0,18,18,18,2095.354353159768,2097.355812810536,left,1,4,0.7159692850982537,C05M05,2022-09-20_16h03.28.869,t1_Paradigm,2021.1.4,60.048158981468504,
N,left,Distractor,0,19,19,19,2098.8544064129674,2100.8560126704106,left,1,4,0.7997715245583095,C05M05,2022-09-20_16h03.28.869,t1_Paradigm,2021.1.4,60.048158981468504,
R,left,Lure,0,20,20,20,2102.3543371196574,2104.3551295014913,right,0,4,1.412798538687639,C05M05,2022-09-20_16h03.28.869,t1_Paradigm,2021.1.4,60.048158981468504,
F,right,Target,0,21,21,21,2105.854466403005,2107.856027106507,left,0,4,0.4555682308127871,C05M05,2022-09-20_16h03.28.869,t1_Paradigm,2021.1.4,60.048158981468504,
P,left,Distractor,0,22,22,22,2109.3544028841425,2111.35367113394,left,1,4,0.9579360730713233,C05M05,2022-09-20_16h03.28.869,t1_Paradigm,2021.1.4,60.048158981468504,
L,left,Pretarget,0,23,23,23,2112.854055134376,2114.8559914974467,left,1,4,0.7837570704868995,C05M05,2022-09-20_16h03.28.869,t1_Paradigm,2021.1.4,60.048158981468504,
T,left,Distractor,0,24,24,24,2116.354245370181,2118.355353100749,left,1,4,0.9645048223028425,C05M05,2022-09-20_16h03.28.869,t1_Paradigm,2021.1.4,60.048158981468504,
F,left,Distractor,0,25,25,25,2119.8543836359895,2121.855674223916,right,0,4,0.7601469788060058,C05M05,2022-09-20_16h03.28.869,t1_Paradigm,2021.1.4,60.048158981468504,
V,left,Distractor,0,26,26,26,2123.3544471548666,2125.355984439797,left,1,4,0.5239029842341552,C05M05,2022-09-20_16h03.28.869,t1_Paradigm,2021.1.4,60.048158981468504,
L,right,Target,0,27,27,27,2126.8544654405996,2128.856522425369,right,1,4,0.8794232230138732,C05M05,2022-09-20_16h03.28.869,t1_Paradigm,2021.1.4,60.048158981468504,
S,left,Pretarget,0,28,28,28,2130.3544510044885,2132.356453773653,left,1,4,0.8673363522975706,C05M05,2022-09-20_16h03.28.869,t1_Paradigm,2021.1.4,60.048158981468504,
W,left,Distractor,0,29,29,29,2133.8544875759544,2135.8564836082805,left,1,4,0.6794914897473063,C05M05,2022-09-20_16h03.28.869,t1_Paradigm,2021.1.4,60.048158981468504,
Q,left,Distractor,0,30,30,30,2137.354239274937,2139.3545825334586,left,1,4,0.6532318913377821,C05M05,2022-09-20_16h03.28.869,t1_Paradigm,2021.1.4,60.048158981468504,
L,right,Target,0,31,31,31,2140.854433360364,2142.8560315977375,right,1,4,1.0718693538801745,C05M05,2022-09-20_16h03.28.869,t1_Paradigm,2021.1.4,60.048158981468504,
S,right,Target,0,32,32,32,2144.3544529292994,2146.3560736228537,right,1,4,1.1238736628874904,C05M05,2022-09-20_16h03.28.869,t1_Paradigm,2021.1.4,60.048158981468504,
Z,left,Pretarget,0,33,33,33,2147.8543685582845,2149.8563395680103,left,1,4,0.7594842011167202,C05M05,2022-09-20_16h03.28.869,t1_Paradigm,2021.1.4,60.048158981468504,
F,left,Distractor,0,34,34,34,2151.3545263930428,2153.356311979005,left,1,4,0.8757927026454126,C05M05,2022-09-20_16h03.28.869,t1_Paradigm,2021.1.4,60.048158981468504,
V,left,Distractor,0,35,35,35,2154.854430152336,2156.855663637427,left,1,4,1.0083989267295692,C05M05,2022-09-20_16h03.28.869,t1_Paradigm,2021.1.4,60.048158981468504,
M,left,Distractor,0,36,36,36,2158.354391014451,2160.3548921077454,left,1,4,1.0769739611132536,C05M05,2022-09-20_16h03.28.869,t1_Paradigm,2021.1.4,60.048158981468504,
Z,right,Target,0,37,37,37,2161.854440418014,2163.8562090014457,left,0,4,0.8557316475344123,C05M05,2022-09-20_16h03.28.869,t1_Paradigm,2021.1.4,60.048158981468504,
H,left,Pretarget,0,38,38,38,2165.3545822126616,2167.355055396154,left,1,4,0.620768295993912,C05M05,2022-09-20_16h03.28.869,t1_Paradigm,2021.1.4,60.048158981468504,
L,left,Distractor,0,39,39,39,2168.8543342324265,2170.8560752268677,left,1,4,0.7357717734994367,C05M05,2022-09-20_16h03.28.869,t1_Paradigm,2021.1.4,60.048158981468504,
G,left,Distractor,0,40,40,40,2172.354545320384,2174.3564165605785,left,1,4,0.6115423407754861,C05M05,2022-09-20_16h03.28.869,t1_Paradigm,2021.1.4,60.048158981468504,
K,left,Distractor,0,41,41,41,2175.8542062322813,2177.8560530914983,left,1,4,0.535795448711724,C05M05,2022-09-20_16h03.28.869,t1_Paradigm,2021.1.4,60.048158981468504,
H,right,Target,0,42,42,42,2179.3544872551574,2181.353614031119,right,1,4,0.9900451818102738,C05M05,2022-09-20_16h03.28.869,t1_Paradigm,2021.1.4,60.048158981468504,
B,left,Distractor,0,43,43,43,2182.854439134797,2184.8555536022177,left,1,4,0.8322877314931247,C05M05,2022-09-20_16h03.28.869,t1_Paradigm,2021.1.4,60.048158981468504,
Z,left,Distractor,0,44,44,44,2186.3545100321207,2188.355594344117,left,1,4,1.188291419428424,C05M05,2022-09-20_16h03.28.869,t1_Paradigm,2021.1.4,60.048158981468504,
T,left,Pretarget,0,45,45,45,2189.8545639269287,2191.856245572926,None,0,4,,C05M05,2022-09-20_16h03.28.869,t1_Paradigm,2021.1.4,60.048158981468504,
H,right,Target,0,46,46,46,2193.3545315258816,2195.3557024545153,None,0,4,,C05M05,2022-09-20_16h03.28.869,t1_Paradigm,2021.1.4,60.048158981468504,
F,left,Distractor,0,47,47,47,2196.8544596661523,2198.8557261938986,right,0,4,1.2645108533761231,C05M05,2022-09-20_16h03.28.869,t1_Paradigm,2021.1.4,60.048158981468504,
R,left,Distractor,0,48,48,48,2200.354483084724,2202.3561150063615,left,1,4,0.9320957633608487,C05M05,2022-09-20_16h03.28.869,t1_Paradigm,2021.1.4,60.048158981468504,
T,right,Target,0,49,49,49,2203.854581250256,2205.8557650109724,left,0,4,0.5521223642863333,C05M05,2022-09-20_16h03.28.869,t1_Paradigm,2021.1.4,60.048158981468504,
H,right,Target,0,50,50,50,2207.354428227525,2209.356131046472,right,1,4,0.8760156602947973,C05M05,2022-09-20_16h03.28.869,t1_Paradigm,2021.1.4,60.048158981468504,
Y,left,Pretarget,0,51,51,51,2210.854534092301,2212.856048600268,left,1,4,0.8483961806632578,C05M05,2022-09-20_16h03.28.869,t1_Paradigm,2021.1.4,60.048158981468504,
H,left,Distractor,0,52,52,52,2214.35448148071,2216.3563257735077,left,1,4,1.075824526240467,C05M05,2022-09-20_16h03.28.869,t1_Paradigm,2021.1.4,60.048158981468504,
S,left,Distractor,0,53,53,53,2217.8542829040525,2219.855841041135,left,1,4,0.9041689550504088,C05M05,2022-09-20_16h03.28.869,t1_Paradigm,2021.1.4,60.048158981468504,
Q,left,Distractor,0,54,54,54,2221.3545526988455,2223.3546697917045,left,1,4,0.669237362963031,C05M05,2022-09-20_16h03.28.869,t1_Paradigm,2021.1.4,60.048158981468504,
Y,right,Target,0,55,55,55,2224.854306964233,2226.856063036379,left,0,4,0.5596323476638645,C05M05,2022-09-20_16h03.28.869,t1_Paradigm,2021.1.4,60.048158981468504,
R,left,Distractor,0,56,56,56,2228.35458285427,2230.3565294830187,left,1,4,0.7715114025922958,C05M05,2022-09-20_16h03.28.869,t1_Paradigm,2021.1.4,60.048158981468504,
H,left,Pretarget,0,57,57,57,2231.854629370602,2233.8565516183735,right,0,4,1.063513414672343,C05M05,2022-09-20_16h03.28.869,t1_Paradigm,2021.1.4,60.048158981468504,
J,left,Distractor,0,58,58,58,2235.354535696315,2237.356374535477,left,1,4,0.507693482315517,C05M05,2022-09-20_16h03.28.869,t1_Paradigm,2021.1.4,60.048158981468504,
V,left,Distractor,0,59,59,59,2238.8545924783393,2240.8561445201776,left,1,4,0.575986531432136,C05M05,2022-09-20_16h03.28.869,t1_Paradigm,2021.1.4,60.048158981468504,
Y,left,Lure,0,60,60,60,2242.3542578814668,2244.3542267636367,right,0,4,1.1578289892349858,C05M05,2022-09-20_16h03.28.869,t1_Paradigm,2021.1.4,60.048158981468504,
H,right,Target,0,61,61,61,2245.854590232717,2247.856367477827,left,0,4,1.383569914381951,C05M05,2022-09-20_16h03.28.869,t1_Paradigm,2021.1.4,60.048158981468504,
L,left,Distractor,0,62,62,62,2249.354552378034,2251.3561230264168,left,1,4,0.748242003028281,C05M05,2022-09-20_16h03.28.869,t1_Paradigm,2021.1.4,60.048158981468504,
P,left,Distractor,0,63,63,63,2252.8546191049245,2254.8564820042666,left,1,4,0.6874627869256074,C05M05,2022-09-20_16h03.28.869,t1_Paradigm,2021.1.4,60.048158981468504,
