Letter,CorrAnswer,Stimulus,nback_run.thisRepN,nback_run.thisTrialN,nback_run.thisN,nback_run.thisIndex,fixcross.started,nback_trial.started,trial_resp.keys,trial_resp.corr,currentlevel,trial_resp.rt,Participant,date,expName,psychopyVersion,frameRate,
H,left,Distractor,0,0,0,0,212.12897609709762,214.08043943415396,None,0,1,,C11R08,2023-01-06_12h13.24.154,t1_Paradigm,2021.1.4,60.03115960983038,
Q,left,Pretarget,0,1,1,1,215.58069767965935,217.59333406039514,left,1,1,0.6499472281429917,C11R08,2023-01-06_12h13.24.154,t1_Paradigm,2021.1.4,60.03115960983038,
Q,right,Target,0,2,2,2,219.08042628131807,221.08059823093936,right,1,1,1.2103933349717408,C11R08,2023-01-06_12h13.24.154,t1_Paradigm,2021.1.4,60.03115960983038,
T,left,Distractor,0,3,3,3,222.58046253188513,224.58088021585718,left,1,1,1.1179283265955746,C11R08,2023-01-06_12h13.24.154,t1_Paradigm,2021.1.4,60.03115960983038,
Q,left,Lure,0,4,4,4,226.08069832110777,228.08032779511996,left,1,1,0.914769712369889,C11R08,2023-01-06_12h13.24.154,t1_Paradigm,2021.1.4,60.03115960983038,
L,left,Distractor,0,5,5,5,229.58073136373423,231.5809543209616,left,1,1,0.7900201783049852,C11R08,2023-01-06_12h13.24.154,t1_Paradigm,2021.1.4,60.03115960983038,
V,left,Pretarget,0,6,6,6,233.0806046470534,235.0808054690715,left,1,1,0.7302560959942639,C11R08,2023-01-06_12h13.24.154,t1_Paradigm,2021.1.4,60.03115960983038,
V,right,Target,0,7,7,7,236.58054529875517,238.58032266236842,right,1,1,0.6545738310087472,C11R08,2023-01-06_12h13.24.154,t1_Paradigm,2021.1.4,60.03115960983038,
K,left,Distractor,0,8,8,8,240.08032715367153,242.08275594352745,left,1,1,0.6242266271729022,C11R08,2023-01-06_12h13.24.154,t1_Paradigm,2021.1.4,60.03115960983038,
G,left,Pretarget,0,9,9,9,243.58049942413345,245.58224522718228,left,1,1,0.532619442557916,C11R08,2023-01-06_12h13.24.154,t1_Paradigm,2021.1.4,60.03115960983038,
G,right,Target,0,10,10,10,247.08049685764126,249.08071821089834,right,1,1,0.6500707368832082,C11R08,2023-01-06_12h13.24.154,t1_Paradigm,2021.1.4,60.03115960983038,
G,right,Target,0,11,11,11,250.58045611577109,252.58019049209543,right,1,1,0.4628049621824175,C11R08,2023-01-06_12h13.24.154,t1_Paradigm,2021.1.4,60.03115960983038,
P,left,Pretarget,0,12,12,12,254.0804387924727,256.08076248154975,left,1,1,0.6262326005380601,C11R08,2023-01-06_12h13.24.154,t1_Paradigm,2021.1.4,60.03115960983038,
P,right,Target,0,13,13,13,257.5805488275364,259.58052733377554,right,1,1,0.7424106327816844,C11R08,2023-01-06_12h13.24.154,t1_Paradigm,2021.1.4,60.03115960983038,
G,left,Lure,0,14,14,14,261.0804400758352,263.08050519856624,left,1,1,0.8744414041284472,C11R08,2023-01-06_12h13.24.154,t1_Paradigm,2021.1.4,60.03115960983038,
Y,left,Distractor,0,15,15,15,264.58026427635923,266.58223752793856,left,1,1,0.8287804080173373,C11R08,2023-01-06_12h13.24.154,t1_Paradigm,2021.1.4,60.03115960983038,
B,left,Distractor,0,16,16,16,268.0804057500791,270.0807384212967,left,1,1,0.5780552357900888,C11R08,2023-01-06_12h13.24.154,t1_Paradigm,2021.1.4,60.03115960983038,
T,left,Pretarget,0,17,17,17,271.58057320839725,273.5803387025371,left,1,1,0.7266162794549018,C11R08,2023-01-06_12h13.24.154,t1_Paradigm,2021.1.4,60.03115960983038,
T,right,Target,0,18,18,18,275.0804695894476,277.08020556974225,right,1,1,0.6829522743355483,C11R08,2023-01-06_12h13.24.154,t1_Paradigm,2021.1.4,60.03115960983038,
S,left,Distractor,0,19,19,19,278.5802488778718,280.581606190186,left,1,1,0.47711175750009716,C11R08,2023-01-06_12h13.24.154,t1_Paradigm,2021.1.4,60.03115960983038,
T,left,Lure,0,20,20,20,282.0977518213913,284.08048787526786,left,1,1,0.6904574313666672,C11R08,2023-01-06_12h13.24.154,t1_Paradigm,2021.1.4,60.03115960983038,
J,left,Distractor,0,21,21,21,285.58056101808324,287.5807445165701,left,1,1,0.5982785779051483,C11R08,2023-01-06_12h13.24.154,t1_Paradigm,2021.1.4,60.03115960983038,
P,left,Distractor,0,22,22,22,289.08026138925925,291.0802565771155,left,1,1,0.7308274440001696,C11R08,2023-01-06_12h13.24.154,t1_Paradigm,2021.1.4,60.03115960983038,
F,left,Distractor,0,23,23,23,292.58029828150757,294.5806838851422,left,1,1,0.6701468308456242,C11R08,2023-01-06_12h13.24.154,t1_Paradigm,2021.1.4,60.03115960983038,
L,left,Distractor,0,24,24,24,296.0804692688398,298.0801593742799,left,1,1,0.6427882164716721,C11R08,2023-01-06_12h13.24.154,t1_Paradigm,2021.1.4,60.03115960983038,
W,left,Pretarget,0,25,25,25,299.58038618112914,301.58072558930144,left,1,1,0.5824081946630031,C11R08,2023-01-06_12h13.24.154,t1_Paradigm,2021.1.4,60.03115960983038,
W,right,Target,0,26,26,26,303.0802267426625,305.08049782016315,right,1,1,0.6342593810986727,C11R08,2023-01-06_12h13.24.154,t1_Paradigm,2021.1.4,60.03115960983038,
V,left,Distractor,0,27,27,27,306.58054080745205,308.58032041671686,left,1,1,0.622590217506513,C11R08,2023-01-06_12h13.24.154,t1_Paradigm,2021.1.4,60.03115960983038,
W,left,Lure,0,28,28,28,310.0803059807513,312.0804667023476,right,0,1,1.0584244143683463,C11R08,2023-01-06_12h13.24.154,t1_Paradigm,2021.1.4,60.03115960983038,
R,left,Pretarget,0,29,29,29,313.58049108320847,315.5828258784022,left,1,1,0.6921217506751418,C11R08,2023-01-06_12h13.24.154,t1_Paradigm,2021.1.4,60.03115960983038,
R,right,Target,0,30,30,30,317.0804548326414,319.08022449701093,right,1,1,0.5866540058050305,C11R08,2023-01-06_12h13.24.154,t1_Paradigm,2021.1.4,60.03115960983038,
G,left,Distractor,0,31,31,31,320.5805238049943,322.58024984039366,left,1,1,0.4307292785961181,C11R08,2023-01-06_12h13.24.154,t1_Paradigm,2021.1.4,60.03115960983038,
R,left,Lure,0,32,32,32,324.08016579039395,326.0807573487982,left,1,1,0.9142532218247652,C11R08,2023-01-06_12h13.24.154,t1_Paradigm,2021.1.4,60.03115960983038,
S,left,Distractor,0,33,33,33,327.5803916347213,329.5802110233344,left,1,1,0.662862385623157,C11R08,2023-01-06_12h13.24.154,t1_Paradigm,2021.1.4,60.03115960983038,
R,left,Lure,0,34,34,34,331.0802139104344,333.08031464228407,left,1,1,0.778393039945513,C11R08,2023-01-06_12h13.24.154,t1_Paradigm,2021.1.4,60.03115960983038,
P,left,Pretarget,0,35,35,35,334.58031015098095,336.58015744946897,left,1,1,0.5427343214396387,C11R08,2023-01-06_12h13.24.154,t1_Paradigm,2021.1.4,60.03115960983038,
P,right,Target,0,36,36,36,338.080316567095,340.08016867749393,right,1,1,0.4025105945765972,C11R08,2023-01-06_12h13.24.154,t1_Paradigm,2021.1.4,60.03115960983038,
Y,left,Pretarget,0,37,37,37,341.5805180305615,343.5808308122214,left,1,1,0.5822981595993042,C11R08,2023-01-06_12h13.24.154,t1_Paradigm,2021.1.4,60.03115960983038,
Y,right,Target,0,38,38,38,345.08047889289446,347.0801860007923,right,1,1,0.4589546995703131,C11R08,2023-01-06_12h13.24.154,t1_Paradigm,2021.1.4,60.03115960983038,
J,left,Distractor,0,39,39,39,348.5804573991336,350.5810258598067,left,1,1,0.7498150577303022,C11R08,2023-01-06_12h13.24.154,t1_Paradigm,2021.1.4,60.03115960983038,
Y,left,Lure,0,40,40,40,352.0803881059401,354.0801426926628,left,1,1,0.6747285213787109,C11R08,2023-01-06_12h13.24.154,t1_Paradigm,2021.1.4,60.03115960983038,
T,left,Distractor,0,41,41,41,355.5802434242796,357.5806194038596,left,1,1,0.6463478324003518,C11R08,2023-01-06_12h13.24.154,t1_Paradigm,2021.1.4,60.03115960983038,
V,left,Distractor,0,42,42,42,359.0801426926628,361.08077563438565,left,1,1,0.5221305086743087,C11R08,2023-01-06_12h13.24.154,t1_Paradigm,2021.1.4,60.03115960983038,
N,left,Pretarget,0,43,43,43,362.5803813689854,364.58217529254034,left,1,1,0.6846015162300318,C11R08,2023-01-06_12h13.24.154,t1_Paradigm,2021.1.4,60.03115960983038,
N,right,Target,0,44,44,44,366.08012633165345,368.0802815996576,right,1,1,0.5783099522814155,C11R08,2023-01-06_12h13.24.154,t1_Paradigm,2021.1.4,60.03115960983038,
N,right,Target,0,45,45,45,369.58018696308136,371.5804192237556,right,1,1,0.7264635779429227,C11R08,2023-01-06_12h13.24.154,t1_Paradigm,2021.1.4,60.03115960983038,
X,left,Distractor,0,46,46,46,373.08043013093993,375.0819882650394,left,1,1,0.5687413986306638,C11R08,2023-01-06_12h13.24.154,t1_Paradigm,2021.1.4,60.03115960983038,
Z,left,Distractor,0,47,47,47,376.5801343517378,378.58048755442724,left,1,1,0.5903833261691034,C11R08,2023-01-06_12h13.24.154,t1_Paradigm,2021.1.4,60.03115960983038,
H,left,Pretarget,0,48,48,48,380.08035089285113,382.08068452659063,left,1,1,0.658205627463758,C11R08,2023-01-06_12h13.24.154,t1_Paradigm,2021.1.4,60.03115960983038,
H,right,Target,0,49,49,49,383.58018375514075,385.58027775003575,right,1,1,0.662813623668626,C11R08,2023-01-06_12h13.24.154,t1_Paradigm,2021.1.4,60.03115960983038,
K,left,Distractor,0,50,50,50,387.0804782512132,389.0803531385027,left,1,1,0.5064907816704363,C11R08,2023-01-06_12h13.24.154,t1_Paradigm,2021.1.4,60.03115960983038,
V,left,Pretarget,0,51,51,51,390.58044039667584,392.5802883366123,left,1,1,0.49451942299492657,C11R08,2023-01-06_12h13.24.154,t1_Paradigm,2021.1.4,60.03115960983038,
V,right,Target,0,52,52,52,394.0804272436071,396.08044071728364,right,1,1,0.5626384660135955,C11R08,2023-01-06_12h13.24.154,t1_Paradigm,2021.1.4,60.03115960983038,
R,left,Distractor,0,53,53,53,397.5803107926622,399.58050936902873,left,1,1,0.5341695565730333,C11R08,2023-01-06_12h13.24.154,t1_Paradigm,2021.1.4,60.03115960983038,
V,left,Lure,0,54,54,54,401.08023700816557,403.0806177998893,left,1,1,1.2742261458188295,C11R08,2023-01-06_12h13.24.154,t1_Paradigm,2021.1.4,60.03115960983038,
Y,left,Distractor,0,55,55,55,404.58050551940687,406.5808304916136,left,1,1,0.5740166625473648,C11R08,2023-01-06_12h13.24.154,t1_Paradigm,2021.1.4,60.03115960983038,
Q,left,Distractor,0,56,56,56,408.0803800858557,410.08071115333587,left,1,1,0.6741157902870327,C11R08,2023-01-06_12h13.24.154,t1_Paradigm,2021.1.4,60.03115960983038,
Z,left,Pretarget,0,57,57,57,411.58036115858704,413.5801388430409,left,1,1,0.5987639508675784,C11R08,2023-01-06_12h13.24.154,t1_Paradigm,2021.1.4,60.03115960983038,
Z,right,Target,0,58,58,58,415.0802771085873,417.08045996539295,right,1,1,0.8263577132020146,C11R08,2023-01-06_12h13.24.154,t1_Paradigm,2021.1.4,60.03115960983038,
B,left,Distractor,0,59,59,59,418.5801032339223,420.5807807671372,left,1,1,0.4778887394350022,C11R08,2023-01-06_12h13.24.154,t1_Paradigm,2021.1.4,60.03115960983038,
S,left,Pretarget,0,60,60,60,422.0803476849105,424.0801949831657,left,1,1,0.6906402884051204,C11R08,2023-01-06_12h13.24.154,t1_Paradigm,2021.1.4,60.03115960983038,
S,right,Target,0,61,61,61,425.5802767877467,427.58055396028794,right,1,1,0.5822923849336803,C11R08,2023-01-06_12h13.24.154,t1_Paradigm,2021.1.4,60.03115960983038,
T,left,Distractor,0,62,62,62,429.08022770495154,431.08008976024576,left,1,1,0.4747156894300133,C11R08,2023-01-06_12h13.24.154,t1_Paradigm,2021.1.4,60.03115960983038,
D,left,Distractor,0,63,63,63,432.5804843464866,434.58061234629713,left,1,1,0.5262136731762439,C11R08,2023-01-06_12h13.24.154,t1_Paradigm,2021.1.4,60.03115960983038,
R,left,Distractor,0,0,0,0,447.07824579183944,449.08019530400634,None,0,1,,C11R08,2023-01-06_12h13.24.154,t1_Paradigm,2021.1.4,60.03115960983038,
V,left,Distractor,0,1,1,1,450.58021198562346,452.5807570279576,left,1,1,0.6060224112588912,C11R08,2023-01-06_12h13.24.154,t1_Paradigm,2021.1.4,60.03115960983038,
N,left,Pretarget,0,2,2,2,454.080296035856,456.08004420646466,left,1,1,0.6748000604566187,C11R08,2023-01-06_12h13.24.154,t1_Paradigm,2021.1.4,60.03115960983038,
N,right,Target,0,3,3,3,457.5803316447418,459.5804779303726,right,1,1,0.7103288539219648,C11R08,2023-01-06_12h13.24.154,t1_Paradigm,2021.1.4,60.03115960983038,
S,left,Distractor,0,4,4,4,461.0800884771161,463.08010451705195,left,1,1,0.58657669252716,C11R08,2023-01-06_12h13.24.154,t1_Paradigm,2021.1.4,60.03115960983038,
N,left,Lure,0,5,5,5,464.5800650585443,466.58090491755866,left,1,1,0.6857762921135873,C11R08,2023-01-06_12h13.24.154,t1_Paradigm,2021.1.4,60.03115960983038,
Z,left,Distractor,0,6,6,6,468.0799370587338,470.08071724837646,left,1,1,0.690066373674199,C11R08,2023-01-06_12h13.24.154,t1_Paradigm,2021.1.4,60.03115960983038,
L,left,Pretarget,0,7,7,7,471.5802796748467,473.5800451687537,left,1,1,0.5505410321056843,C11R08,2023-01-06_12h13.24.154,t1_Paradigm,2021.1.4,60.03115960983038,
L,right,Target,0,8,8,8,475.0803624417167,477.08048210083507,right,1,1,0.7143991864286363,C11R08,2023-01-06_12h13.24.154,t1_Paradigm,2021.1.4,60.03115960983038,
H,left,Distractor,0,9,9,9,478.5803961260244,480.5806004765909,left,1,1,0.5902030353900045,C11R08,2023-01-06_12h13.24.154,t1_Paradigm,2021.1.4,60.03115960983038,
L,left,Lure,0,10,10,10,482.08005318883806,484.08080963930115,left,1,1,0.7698792822193354,C11R08,2023-01-06_12h13.24.154,t1_Paradigm,2021.1.4,60.03115960983038,
X,left,Pretarget,0,11,11,11,485.5802918653935,487.58079648646526,left,1,1,0.7579881236888468,C11R08,2023-01-06_12h13.24.154,t1_Paradigm,2021.1.4,60.03115960983038,
X,right,Target,0,12,12,12,489.08031464228407,491.0803916347213,right,1,1,0.7145024847704917,C11R08,2023-01-06_12h13.24.154,t1_Paradigm,2021.1.4,60.03115960983038,
X,right,Target,0,13,13,13,492.5802023615688,494.5799858204555,right,1,1,0.6387316782493144,C11R08,2023-01-06_12h13.24.154,t1_Paradigm,2021.1.4,60.03115960983038,
R,left,Distractor,0,14,14,14,496.08026588032953,498.08018375514075,left,1,1,0.6585739078000188,C11R08,2023-01-06_12h13.24.154,t1_Paradigm,2021.1.4,60.03115960983038,
T,left,Distractor,0,15,15,15,499.58026138925925,501.5800300911069,left,1,1,0.8706610761582851,C11R08,2023-01-06_12h13.24.154,t1_Paradigm,2021.1.4,60.03115960983038,
V,left,Pretarget,0,16,16,16,503.08016001596116,505.08004131913185,left,1,1,0.6026045894250274,C11R08,2023-01-06_12h13.24.154,t1_Paradigm,2021.1.4,60.03115960983038,
V,right,Target,0,17,17,17,506.5800653793849,508.58015135419555,right,1,1,0.6066223105881363,C11R08,2023-01-06_12h13.24.154,t1_Paradigm,2021.1.4,60.03115960983038,
N,left,Distractor,0,18,18,18,510.0802456699312,512.0799842164852,left,1,1,0.6587580479681492,C11R08,2023-01-06_12h13.24.154,t1_Paradigm,2021.1.4,60.03115960983038,
B,left,Distractor,0,19,19,19,513.5801067627035,515.580173168797,left,1,1,0.5669048083946109,C11R08,2023-01-06_12h13.24.154,t1_Paradigm,2021.1.4,60.03115960983038,
V,left,Lure,0,20,20,20,517.0802562562749,519.0801170284394,left,1,1,0.8266724199056625,C11R08,2023-01-06_12h13.24.154,t1_Paradigm,2021.1.4,60.03115960983038,
P,left,Distractor,0,21,21,21,520.5803541007917,522.5801240860019,left,1,1,0.47844757605344057,C11R08,2023-01-06_12h13.24.154,t1_Paradigm,2021.1.4,60.03115960983038,
K,left,Pretarget,0,22,22,22,524.0803220206872,526.0800028229132,left,1,1,0.498725775629282,C11R08,2023-01-06_12h13.24.154,t1_Paradigm,2021.1.4,60.03115960983038,
K,right,Target,0,23,23,23,527.5802302714437,529.5800762865692,right,1,1,0.662643919698894,C11R08,2023-01-06_12h13.24.154,t1_Paradigm,2021.1.4,60.03115960983038,
J,left,Pretarget,0,24,24,24,531.0800894394051,533.0806328775361,left,1,1,0.5700342294294387,C11R08,2023-01-06_12h13.24.154,t1_Paradigm,2021.1.4,60.03115960983038,
J,right,Target,0,25,25,25,534.5803242663387,536.5801715645939,right,1,1,0.5745488726533949,C11R08,2023-01-06_12h13.24.154,t1_Paradigm,2021.1.4,60.03115960983038,
H,left,Distractor,0,26,26,26,538.0800621712115,540.0806271031033,left,1,1,0.658091101096943,C11R08,2023-01-06_12h13.24.154,t1_Paradigm,2021.1.4,60.03115960983038,
J,left,Lure,0,27,27,27,541.580298922956,543.5806505216751,left,1,1,0.7420882268343121,C11R08,2023-01-06_12h13.24.154,t1_Paradigm,2021.1.4,60.03115960983038,
V,left,Distractor,0,28,28,28,545.080104517052,547.0804182612337,left,1,1,0.6983613446354866,C11R08,2023-01-06_12h13.24.154,t1_Paradigm,2021.1.4,60.03115960983038,
Z,left,Pretarget,0,29,29,29,548.5799915948883,550.5799672140274,left,1,1,0.6706774372141808,C11R08,2023-01-06_12h13.24.154,t1_Paradigm,2021.1.4,60.03115960983038,
Z,right,Target,0,30,30,30,552.0802809582092,554.0804262813181,right,1,1,0.6102849040180445,C11R08,2023-01-06_12h13.24.154,t1_Paradigm,2021.1.4,60.03115960983038,
T,left,Distractor,0,31,31,31,555.5803210583981,557.5800021814648,left,1,1,0.6628623858559877,C11R08,2023-01-06_12h13.24.154,t1_Paradigm,2021.1.4,60.03115960983038,
Z,left,Lure,0,32,32,32,559.079989990918,561.0802081360016,left,1,1,0.8105405829846859,C11R08,2023-01-06_12h13.24.154,t1_Paradigm,2021.1.4,60.03115960983038,
F,left,Distractor,0,33,33,33,562.5803233040497,564.5801256899722,left,1,1,0.7826189612969756,C11R08,2023-01-06_12h13.24.154,t1_Paradigm,2021.1.4,60.03115960983038,
Y,left,Pretarget,0,34,34,34,566.0803826523479,568.0801619407721,left,1,1,1.0905568797606975,C11R08,2023-01-06_12h13.24.154,t1_Paradigm,2021.1.4,60.03115960983038,
Y,right,Target,0,35,35,35,569.5803133591544,571.5804513038602,right,1,1,0.6303273141384125,C11R08,2023-01-06_12h13.24.154,t1_Paradigm,2021.1.4,60.03115960983038,
Y,right,Target,0,36,36,36,573.080023354385,575.0801058004145,right,1,1,0.4906056416220963,C11R08,2023-01-06_12h13.24.154,t1_Paradigm,2021.1.4,60.03115960983038,
W,left,Distractor,0,37,37,37,576.580337098334,578.5821743300185,left,1,1,0.6205024395603687,C11R08,2023-01-06_12h13.24.154,t1_Paradigm,2021.1.4,60.03115960983038,
Q,left,Distractor,0,38,38,38,580.0802684468217,582.0803066221997,left,1,1,0.6904282381292433,C11R08,2023-01-06_12h13.24.154,t1_Paradigm,2021.1.4,60.03115960983038,
P,left,Pretarget,0,39,39,39,583.5799684971571,585.5799126776401,left,1,1,0.8387775528244674,C11R08,2023-01-06_12h13.24.154,t1_Paradigm,2021.1.4,60.03115960983038,
P,right,Target,0,40,40,40,587.0802947524935,589.080260747578,right,1,1,0.44247768027707934,C11R08,2023-01-06_12h13.24.154,t1_Paradigm,2021.1.4,60.03115960983038,
J,left,Distractor,0,41,41,41,590.5801561663393,592.5800329784397,left,1,1,0.4946548012085259,C11R08,2023-01-06_12h13.24.154,t1_Paradigm,2021.1.4,60.03115960983038,
P,left,Lure,0,42,42,42,594.0800887979567,596.080580907641,right,0,1,0.5621752284932882,C11R08,2023-01-06_12h13.24.154,t1_Paradigm,2021.1.4,60.03115960983038,
L,left,Distractor,0,43,43,43,597.5799713844899,599.5800640960224,left,1,1,0.9344662979710847,C11R08,2023-01-06_12h13.24.154,t1_Paradigm,2021.1.4,60.03115960983038,
Z,left,Distractor,0,44,44,44,601.0799656100571,603.0799184520729,left,1,1,0.6988643617369235,C11R08,2023-01-06_12h13.24.154,t1_Paradigm,2021.1.4,60.03115960983038,
F,left,Pretarget,0,45,45,45,604.580252406653,606.5800865523051,left,1,1,0.814689832739532,C11R08,2023-01-06_12h13.24.154,t1_Paradigm,2021.1.4,60.03115960983038,
F,right,Target,0,46,46,46,608.0799559860025,610.0799168481026,right,1,1,0.5468239022884518,C11R08,2023-01-06_12h13.24.154,t1_Paradigm,2021.1.4,60.03115960983038,
G,left,Pretarget,0,47,47,47,611.5801151036285,613.5806739402469,left,1,1,0.48593252268619835,C11R08,2023-01-06_12h13.24.154,t1_Paradigm,2021.1.4,60.03115960983038,
G,right,Target,0,48,48,48,615.0799389835447,617.0803412687965,right,1,1,0.6665686082560569,C11R08,2023-01-06_12h13.24.154,t1_Paradigm,2021.1.4,60.03115960983038,
V,left,Distractor,0,49,49,49,618.5802687676623,620.5799251890276,left,1,1,0.6546136103570461,C11R08,2023-01-06_12h13.24.154,t1_Paradigm,2021.1.4,60.03115960983038,
G,left,Lure,0,50,50,50,622.0800454895943,624.0800538305193,left,1,1,1.1225761021487415,C11R08,2023-01-06_12h13.24.154,t1_Paradigm,2021.1.4,60.03115960983038,
Q,left,Pretarget,0,51,51,51,625.5799752341118,627.5800987426192,left,1,1,0.8225404932163656,C11R08,2023-01-06_12h13.24.154,t1_Paradigm,2021.1.4,60.03115960983038,
Q,right,Target,0,52,52,52,629.0801949831657,631.0800567176193,right,1,1,0.5226245431695133,C11R08,2023-01-06_12h13.24.154,t1_Paradigm,2021.1.4,60.03115960983038,
Y,left,Distractor,0,53,53,53,632.5801600159612,634.5798953543417,left,1,1,0.5108597809448838,C11R08,2023-01-06_12h13.24.154,t1_Paradigm,2021.1.4,60.03115960983038,
V,left,Distractor,0,54,54,54,636.0801205572207,638.0806081758346,left,1,1,0.6580195624846965,C11R08,2023-01-06_12h13.24.154,t1_Paradigm,2021.1.4,60.03115960983038,
B,left,Distractor,0,55,55,55,639.580023354385,641.5799267929979,left,1,1,0.5505493730306625,C11R08,2023-01-06_12h13.24.154,t1_Paradigm,2021.1.4,60.03115960983038,
J,left,Pretarget,0,56,56,56,643.0800724369474,645.0800509431865,left,1,1,0.6667617310304195,C11R08,2023-01-06_12h13.24.154,t1_Paradigm,2021.1.4,60.03115960983038,
J,right,Target,0,57,57,57,646.5802790333983,648.5798674446996,right,1,1,0.5748571630101651,C11R08,2023-01-06_12h13.24.154,t1_Paradigm,2021.1.4,60.03115960983038,
H,left,Distractor,0,58,58,58,650.0799813293852,652.0800958555192,left,1,1,0.5627023056149483,C11R08,2023-01-06_12h13.24.154,t1_Paradigm,2021.1.4,60.03115960983038,
J,left,Lure,0,59,59,59,653.5799877452664,655.5800689081661,left,1,1,0.8065645662136376,C11R08,2023-01-06_12h13.24.154,t1_Paradigm,2021.1.4,60.03115960983038,
D,left,Pretarget,0,60,60,60,657.080055113649,659.0806582209188,left,1,1,0.666102483170107,C11R08,2023-01-06_12h13.24.154,t1_Paradigm,2021.1.4,60.03115960983038,
D,right,Target,0,61,61,61,660.5802148729563,662.5801911335438,right,1,1,0.654364988906309,C11R08,2023-01-06_12h13.24.154,t1_Paradigm,2021.1.4,60.03115960983038,
R,left,Distractor,0,62,62,62,664.0798828431871,666.0801587325986,left,1,1,0.5782640776596963,C11R08,2023-01-06_12h13.24.154,t1_Paradigm,2021.1.4,60.03115960983038,
F,left,Distractor,0,63,63,63,667.5800188630819,669.5801083666738,left,1,1,0.7104292646981776,C11R08,2023-01-06_12h13.24.154,t1_Paradigm,2021.1.4,60.03115960983038,
F,left,Distractor,0,0,0,0,782.4418951042462,784.446586829843,None,0,2,,C11R08,2023-01-06_12h13.24.154,t1_Paradigm,2021.1.4,60.03115960983038,
N,left,Pretarget,0,1,1,1,785.9465829802211,787.9465457671322,None,0,2,,C11R08,2023-01-06_12h13.24.154,t1_Paradigm,2021.1.4,60.03115960983038,
V,left,Distractor,0,2,2,2,789.446613777196,791.4471475912724,left,1,2,0.9073636834509671,C11R08,2023-01-06_12h13.24.154,t1_Paradigm,2021.1.4,60.03115960983038,
N,right,Target,0,3,3,3,792.9465271607041,794.946487381123,None,0,2,,C11R08,2023-01-06_12h13.24.154,t1_Paradigm,2021.1.4,60.03115960983038,
N,left,Lure,0,4,4,4,796.4465611656196,798.4467007142957,None,0,2,,C11R08,2023-01-06_12h13.24.154,t1_Paradigm,2021.1.4,60.03115960983038,
X,left,Distractor,0,5,5,5,799.9467440226581,801.9465704688337,left,1,2,0.8559256894513965,C11R08,2023-01-06_12h13.24.154,t1_Paradigm,2021.1.4,60.03115960983038,
G,left,Pretarget,0,6,6,6,803.4464883436449,805.4463641932234,left,1,2,0.8281003083102405,C11R08,2023-01-06_12h13.24.154,t1_Paradigm,2021.1.4,60.03115960983038,
H,left,Pretarget,0,7,7,7,806.9463654765859,808.9472258668393,left,1,2,0.9110843418166041,C11R08,2023-01-06_12h13.24.154,t1_Paradigm,2021.1.4,60.03115960983038,
G,right,Target,0,8,8,8,810.4463792711031,812.4466561228037,right,1,2,1.2836654165294021,C11R08,2023-01-06_12h13.24.154,t1_Paradigm,2021.1.4,60.03115960983038,
H,right,Target,0,9,9,9,813.9465329351369,815.9320336584933,left,0,2,1.430617639562115,C11R08,2023-01-06_12h13.24.154,t1_Paradigm,2021.1.4,60.03115960983038,
T,left,Pretarget,0,10,10,10,817.4467793107033,819.4463824790437,left,1,2,0.9720292955171317,C11R08,2023-01-06_12h13.24.154,t1_Paradigm,2021.1.4,60.03115960983038,
K,left,Distractor,0,11,11,11,820.9466952607036,822.9465165741276,left,1,2,0.8640868859365582,C11R08,2023-01-06_12h13.24.154,t1_Paradigm,2021.1.4,60.03115960983038,
T,right,Target,0,12,12,12,824.4467100175098,826.4471267391928,right,1,2,0.7074717935174704,C11R08,2023-01-06_12h13.24.154,t1_Paradigm,2021.1.4,60.03115960983038,
T,left,Lure,0,13,13,13,827.9466856366489,829.9463603436016,left,1,2,0.8081756324972957,C11R08,2023-01-06_12h13.24.154,t1_Paradigm,2021.1.4,60.03115960983038,
J,left,Distractor,0,14,14,14,831.4464187296107,833.446392423939,left,1,2,0.8280727192759514,C11R08,2023-01-06_12h13.24.154,t1_Paradigm,2021.1.4,60.03115960983038,
Q,left,Pretarget,0,15,15,15,834.9465412758291,836.9469685838558,left,1,2,0.8155287294648588,C11R08,2023-01-06_12h13.24.154,t1_Paradigm,2021.1.4,60.03115960983038,
M,left,Distractor,0,16,16,16,838.4466105690226,840.4481039012317,left,1,2,0.7543707634322345,C11R08,2023-01-06_12h13.24.154,t1_Paradigm,2021.1.4,60.03115960983038,
Q,right,Target,0,17,17,17,841.9465977370273,843.9465929248836,right,1,2,0.7439232128672302,C11R08,2023-01-06_12h13.24.154,t1_Paradigm,2021.1.4,60.03115960983038,
R,left,Distractor,0,18,18,18,845.4466031906195,847.4466317419428,left,1,2,0.8277445391286165,C11R08,2023-01-06_12h13.24.154,t1_Paradigm,2021.1.4,60.03115960983038,
W,left,Distractor,0,19,19,19,848.9463449451141,850.9471116613131,left,1,2,0.7832278429996222,C11R08,2023-01-06_12h13.24.154,t1_Paradigm,2021.1.4,60.03115960983038,
C,left,Pretarget,0,20,20,20,852.446493797237,854.4471732552629,left,1,2,0.8032298320904374,C11R08,2023-01-06_12h13.24.154,t1_Paradigm,2021.1.4,60.03115960983038,
T,left,Distractor,0,21,21,21,855.9466160226148,857.9464633211028,left,1,2,0.6481914799660444,C11R08,2023-01-06_12h13.24.154,t1_Paradigm,2021.1.4,60.03115960983038,
C,right,Target,0,22,22,22,859.4469214258716,861.4471123029944,right,1,2,0.6032352857291698,C11R08,2023-01-06_12h13.24.154,t1_Paradigm,2021.1.4,60.03115960983038,
F,left,Pretarget,0,23,23,23,862.9464918724261,864.946448243456,left,1,2,0.6078606052324176,C11R08,2023-01-06_12h13.24.154,t1_Paradigm,2021.1.4,60.03115960983038,
C,right,Target,0,24,24,24,866.4465727144852,868.4470006639604,right,1,2,0.979611444985494,C11R08,2023-01-06_12h13.24.154,t1_Paradigm,2021.1.4,60.03115960983038,
F,right,Target,0,25,25,25,869.9467212457675,871.9463667597156,right,1,2,1.4482155402656645,C11R08,2023-01-06_12h13.24.154,t1_Paradigm,2021.1.4,60.03115960983038,
H,left,Distractor,0,26,26,26,873.4463815165218,875.4464729451574,left,1,2,1.0358707681298256,C11R08,2023-01-06_12h13.24.154,t1_Paradigm,2021.1.4,60.03115960983038,
H,left,Lure,0,27,27,27,876.9468033709563,878.9466529148631,left,1,2,1.4238041313365102,C11R08,2023-01-06_12h13.24.154,t1_Paradigm,2021.1.4,60.03115960983038,
P,left,Distractor,0,28,28,28,880.4466577270068,882.4471376463771,left,1,2,1.4272055921610445,C11R08,2023-01-06_12h13.24.154,t1_Paradigm,2021.1.4,60.03115960983038,
G,left,Pretarget,0,29,29,29,883.9463760629296,885.9463410954922,None,0,2,,C11R08,2023-01-06_12h13.24.154,t1_Paradigm,2021.1.4,60.03115960983038,
K,left,Distractor,0,30,30,30,887.4464014063124,889.4467071304098,left,1,2,0.8598154105711728,C11R08,2023-01-06_12h13.24.154,t1_Paradigm,2021.1.4,60.03115960983038,
G,right,Target,0,31,31,31,890.9464049350936,892.9466320627835,right,1,2,0.6397726798895746,C11R08,2023-01-06_12h13.24.154,t1_Paradigm,2021.1.4,60.03115960983038,
M,left,Pretarget,0,32,32,32,894.4464245040435,896.4463613061234,left,1,2,0.7080928657669574,C11R08,2023-01-06_12h13.24.154,t1_Paradigm,2021.1.4,60.03115960983038,
B,left,Distractor,0,33,33,33,897.9463410954922,899.9463584187906,left,1,2,1.1440370976924896,C11R08,2023-01-06_12h13.24.154,t1_Paradigm,2021.1.4,60.03115960983038,
M,right,Target,0,34,34,34,901.4463827998843,903.4468505287077,right,1,2,0.9236806225962937,C11R08,2023-01-06_12h13.24.154,t1_Paradigm,2021.1.4,60.03115960983038,
M,left,Lure,0,35,35,35,904.9465595616493,906.9464800027199,None,0,2,,C11R08,2023-01-06_12h13.24.154,t1_Paradigm,2021.1.4,60.03115960983038,
T,left,Distractor,0,36,36,36,908.4463795917109,910.4468967241701,left,1,2,0.8673414196819067,C11R08,2023-01-06_12h13.24.154,t1_Paradigm,2021.1.4,60.03115960983038,
F,left,Distractor,0,37,37,37,911.9463965944014,913.9465794512071,left,1,2,1.2717858070973307,C11R08,2023-01-06_12h13.24.154,t1_Paradigm,2021.1.4,60.03115960983038,
X,left,Distractor,0,38,38,38,915.4463035617955,917.4463895366061,left,1,2,0.876018465263769,C11R08,2023-01-06_12h13.24.154,t1_Paradigm,2021.1.4,60.03115960983038,
C,left,Distractor,0,39,39,39,918.9463006746955,920.9464261080138,left,1,2,0.9600258567370474,C11R08,2023-01-06_12h13.24.154,t1_Paradigm,2021.1.4,60.03115960983038,
R,left,Distractor,0,40,40,40,922.446420333581,924.4464363737497,left,1,2,0.7079629409126937,C11R08,2023-01-06_12h13.24.154,t1_Paradigm,2021.1.4,60.03115960983038,
B,left,Pretarget,0,41,41,41,925.9463083739392,927.9462522335816,left,1,2,0.8080813167616725,C11R08,2023-01-06_12h13.24.154,t1_Paradigm,2021.1.4,60.03115960983038,
H,left,Distractor,0,42,42,42,929.4464386194013,931.4462730856612,left,1,2,0.9721127040684223,C11R08,2023-01-06_12h13.24.154,t1_Paradigm,2021.1.4,60.03115960983038,
B,right,Target,0,43,43,43,932.929779384518,934.9296764072496,right,1,2,0.8487987578846514,C11R08,2023-01-06_12h13.24.154,t1_Paradigm,2021.1.4,60.03115960983038,
W,left,Pretarget,0,44,44,44,936.4298297504429,938.430246471893,left,1,2,0.6281003083568066,C11R08,2023-01-06_12h13.24.154,t1_Paradigm,2021.1.4,60.03115960983038,
L,left,Pretarget,0,45,45,45,939.9298451489303,941.9293552846648,left,1,2,0.7448355732485652,C11R08,2023-01-06_12h13.24.154,t1_Paradigm,2021.1.4,60.03115960983038,
W,right,Target,0,46,46,46,943.4298182015773,945.4297145826276,right,1,2,0.7807618400547653,C11R08,2023-01-06_12h13.24.154,t1_Paradigm,2021.1.4,60.03115960983038,
L,right,Target,0,47,47,47,946.9295394248329,948.9297543619759,right,1,2,0.7365274494513869,C11R08,2023-01-06_12h13.24.154,t1_Paradigm,2021.1.4,60.03115960983038,
W,right,Target,0,48,48,48,950.429767194204,952.4301412489731,right,1,2,0.980383614776656,C11R08,2023-01-06_12h13.24.154,t1_Paradigm,2021.1.4,60.03115960983038,
X,left,Distractor,0,49,49,49,953.9296594047919,955.9298429032788,left,1,2,1.0966213159263134,C11R08,2023-01-06_12h13.24.154,t1_Paradigm,2021.1.4,60.03115960983038,
R,left,Distractor,0,50,50,50,957.4299176500645,959.4295545024797,None,0,2,,C11R08,2023-01-06_12h13.24.154,t1_Paradigm,2021.1.4,60.03115960983038,
V,left,Pretarget,0,51,51,51,960.9298088983633,962.9299263118301,left,1,2,0.864564559655264,C11R08,2023-01-06_12h13.24.154,t1_Paradigm,2021.1.4,60.03115960983038,
Z,left,Distractor,0,52,52,52,964.4298348831944,966.4298432241194,left,1,2,1.1405701930634677,C11R08,2023-01-06_12h13.24.154,t1_Paradigm,2021.1.4,60.03115960983038,
V,right,Target,0,53,53,53,967.9298522064928,969.931059704395,left,0,2,0.9991569330450147,C11R08,2023-01-06_12h13.24.154,t1_Paradigm,2021.1.4,60.03115960983038,
V,left,Lure,0,54,54,54,971.4464036519639,973.4462669903878,None,0,2,,C11R08,2023-01-06_12h13.24.154,t1_Paradigm,2021.1.4,60.03115960983038,
N,left,Distractor,0,55,55,55,974.946468774695,976.94699905999,left,1,2,1.2153715365566313,C11R08,2023-01-06_12h13.24.154,t1_Paradigm,2021.1.4,60.03115960983038,
B,left,Distractor,0,56,56,56,978.4464970051777,980.4468101076782,left,1,2,0.6435478748753667,C11R08,2023-01-06_12h13.24.154,t1_Paradigm,2021.1.4,60.03115960983038,
V,left,Lure,0,57,57,57,981.9462673112284,983.9469730751589,left,1,2,0.6794776706956327,C11R08,2023-01-06_12h13.24.154,t1_Paradigm,2021.1.4,60.03115960983038,
J,left,Distractor,0,58,58,58,985.446463962784,987.4462878424674,left,1,2,0.5879641599021852,C11R08,2023-01-06_12h13.24.154,t1_Paradigm,2021.1.4,60.03115960983038,
H,left,Distractor,0,59,59,59,988.946254799841,990.9469281628262,left,1,2,0.8315771576017141,C11R08,2023-01-06_12h13.24.154,t1_Paradigm,2021.1.4,60.03115960983038,
X,left,Pretarget,0,60,60,60,992.4465480127838,994.4461354617961,left,1,2,1.156219223048538,C11R08,2023-01-06_12h13.24.154,t1_Paradigm,2021.1.4,60.03115960983038,
P,left,Distractor,0,61,61,61,995.9464905892964,997.9468056166079,left,1,2,1.1595606941264123,C11R08,2023-01-06_12h13.24.154,t1_Paradigm,2021.1.4,60.03115960983038,
X,right,Target,0,62,62,62,999.4464225792326,1001.4463064491283,right,1,2,0.6359920313116163,C11R08,2023-01-06_12h13.24.154,t1_Paradigm,2021.1.4,60.03115960983038,
Q,left,Distractor,0,63,63,63,1002.9463305091485,1004.946787009947,left,1,2,0.799420952796936,C11R08,2023-01-06_12h13.24.154,t1_Paradigm,2021.1.4,60.03115960983038,
B,left,Pretarget,0,0,0,0,1020.176757592475,1022.179631013656,None,0,2,,C11R08,2023-01-06_12h13.24.154,t1_Paradigm,2021.1.4,60.03115960983038,
F,left,Distractor,0,1,1,1,1023.6795460013673,1025.680192095926,None,0,2,,C11R08,2023-01-06_12h13.24.154,t1_Paradigm,2021.1.4,60.03115960983038,
B,right,Target,0,2,2,2,1027.1799255097285,1029.1794722168706,right,1,2,0.7107843924313784,C11R08,2023-01-06_12h13.24.154,t1_Paradigm,2021.1.4,60.03115960983038,
V,left,Distractor,0,3,3,3,1030.6799694595393,1032.6964429500513,left,1,2,0.9218228596728295,C11R08,2023-01-06_12h13.24.154,t1_Paradigm,2021.1.4,60.03115960983038,
G,left,Pretarget,0,4,4,4,1034.1795020515565,1036.1796380714513,left,1,2,0.9907243382185698,C11R08,2023-01-06_12h13.24.154,t1_Paradigm,2021.1.4,60.03115960983038,
B,left,Lure,0,5,5,5,1037.6797458608635,1039.6796294096857,left,1,2,1.0267567906994373,C11R08,2023-01-06_12h13.24.154,t1_Paradigm,2021.1.4,60.03115960983038,
G,right,Target,0,6,6,6,1041.1797814697493,1043.1795851390343,right,1,2,0.6468181279487908,C11R08,2023-01-06_12h13.24.154,t1_Paradigm,2021.1.4,60.03115960983038,
Y,left,Pretarget,0,7,7,7,1044.6795014098752,1046.6802873741835,left,1,2,0.4580830812919885,C11R08,2023-01-06_12h13.24.154,t1_Paradigm,2021.1.4,60.03115960983038,
P,left,Distractor,0,8,8,8,1048.1797185926698,1050.1795707030687,left,1,2,1.0706796827726066,C11R08,2023-01-06_12h13.24.154,t1_Paradigm,2021.1.4,60.03115960983038,
Y,right,Target,0,9,9,9,1051.6795235450845,1053.6793997157365,right,1,2,0.45075276121497154,C11R08,2023-01-06_12h13.24.154,t1_Paradigm,2021.1.4,60.03115960983038,
X,left,Distractor,0,10,10,10,1055.1799149233848,1057.1795055803377,left,1,2,0.5666048587299883,C11R08,2023-01-06_12h13.24.154,t1_Paradigm,2021.1.4,60.03115960983038,
Y,right,Target,0,11,11,11,1058.6796534699388,1060.6798526877537,right,1,2,0.7305483464151621,C11R08,2023-01-06_12h13.24.154,t1_Paradigm,2021.1.4,60.03115960983038,
N,left,Distractor,0,12,12,12,1062.1797866025008,1064.1794077358209,left,1,2,0.7027752560097724,C11R08,2023-01-06_12h13.24.154,t1_Paradigm,2021.1.4,60.03115960983038,
Y,right,Target,0,13,13,13,1065.679728537565,1067.6796627731528,right,1,2,0.5147373115178198,C11R08,2023-01-06_12h13.24.154,t1_Paradigm,2021.1.4,60.03115960983038,
Y,left,Lure,0,14,14,14,1069.1797246879432,1071.1795716653578,left,1,2,0.6629031274933368,C11R08,2023-01-06_12h13.24.154,t1_Paradigm,2021.1.4,60.03115960983038,
K,left,Distractor,0,15,15,15,1072.6796829835512,1074.680101950653,left,1,2,0.7780494613107294,C11R08,2023-01-06_12h13.24.154,t1_Paradigm,2021.1.4,60.03115960983038,
T,left,Pretarget,0,16,16,16,1076.1797076854855,1078.1796929284465,left,1,2,0.7826475128531456,C11R08,2023-01-06_12h13.24.154,t1_Paradigm,2021.1.4,60.03115960983038,
J,left,Distractor,0,17,17,17,1079.6796788133215,1081.6794776704628,left,1,2,0.6588680830318481,C11R08,2023-01-06_12h13.24.154,t1_Paradigm,2021.1.4,60.03115960983038,
T,right,Target,0,18,18,18,1083.1798751438037,1085.1796245977748,right,1,2,1.1426781814079732,C11R08,2023-01-06_12h13.24.154,t1_Paradigm,2021.1.4,60.03115960983038,
S,left,Pretarget,0,19,19,19,1086.6797336703166,1088.679590913467,left,1,2,0.6505342952441424,C11R08,2023-01-06_12h13.24.154,t1_Paradigm,2021.1.4,60.03115960983038,
R,left,Distractor,0,20,20,20,1090.1797583720181,1092.1800429231953,left,1,2,0.5102656558156013,C11R08,2023-01-06_12h13.24.154,t1_Paradigm,2021.1.4,60.03115960983038,
S,right,Target,0,21,21,21,1093.6796768885106,1095.6796249186154,right,1,2,0.6585504894610494,C11R08,2023-01-06_12h13.24.154,t1_Paradigm,2021.1.4,60.03115960983038,
Q,left,Distractor,0,22,22,22,1097.1796008583624,1099.1794674049597,left,1,2,1.0469291252084076,C11R08,2023-01-06_12h13.24.154,t1_Paradigm,2021.1.4,60.03115960983038,
D,left,Distractor,0,23,23,23,1100.6797933394555,1102.6795495301485,left,1,2,1.0827662092633545,C11R08,2023-01-06_12h13.24.154,t1_Paradigm,2021.1.4,60.03115960983038,
F,left,Distractor,0,24,24,24,1104.1798020009883,1106.1795607581735,left,1,2,1.2946804652456194,C11R08,2023-01-06_12h13.24.154,t1_Paradigm,2021.1.4,60.03115960983038,
Z,left,Distractor,0,25,25,25,1107.6796399962623,1109.6800211085938,left,1,2,1.4102727137506008,C11R08,2023-01-06_12h13.24.154,t1_Paradigm,2021.1.4,60.03115960983038,
P,left,Distractor,0,26,26,26,1111.1797218006104,1113.1797683169134,left,1,2,0.9184079251717776,C11R08,2023-01-06_12h13.24.154,t1_Paradigm,2021.1.4,60.03115960983038,
H,left,Distractor,0,27,27,27,1114.6794481568504,1116.6814653582405,left,1,2,0.7289093704894185,C11R08,2023-01-06_12h13.24.154,t1_Paradigm,2021.1.4,60.03115960983038,
Z,left,Pretarget,0,28,28,28,1118.1795469636563,1120.179558512522,left,1,2,0.7666581119410694,C11R08,2023-01-06_12h13.24.154,t1_Paradigm,2021.1.4,60.03115960983038,
J,left,Pretarget,0,29,29,29,1121.6796140111983,1123.6795168083627,left,1,2,1.0267728306353092,C11R08,2023-01-06_12h13.24.154,t1_Paradigm,2021.1.4,60.03115960983038,
Z,right,Target,0,30,30,30,1125.1797057606746,1127.1801744520199,right,1,2,0.9822943098843098,C11R08,2023-01-06_12h13.24.154,t1_Paradigm,2021.1.4,60.03115960983038,
J,right,Target,0,31,31,31,1128.679517450044,1130.6793618611991,right,1,2,0.6667399164289236,C11R08,2023-01-06_12h13.24.154,t1_Paradigm,2021.1.4,60.03115960983038,
V,left,Pretarget,0,32,32,32,1132.1795607581735,1134.1794388534036,left,1,2,1.0228054753970355,C11R08,2023-01-06_12h13.24.154,t1_Paradigm,2021.1.4,60.03115960983038,
Z,left,Lure,0,33,33,33,1135.6796698307153,1137.6798173994757,left,1,2,0.8502458946313709,C11R08,2023-01-06_12h13.24.154,t1_Paradigm,2021.1.4,60.03115960983038,
V,right,Target,0,34,34,34,1139.1798270235304,1141.1796262017451,right,1,2,0.6147206297609955,C11R08,2023-01-06_12h13.24.154,t1_Paradigm,2021.1.4,60.03115960983038,
X,left,Distractor,0,35,35,35,1142.6796133697499,1144.6793050791603,left,1,2,1.2109220162965357,C11R08,2023-01-06_12h13.24.154,t1_Paradigm,2021.1.4,60.03115960983038,
S,left,Distractor,0,36,36,36,1146.1795671742875,1148.179921339266,left,1,2,0.8623760500922799,C11R08,2023-01-06_12h13.24.154,t1_Paradigm,2021.1.4,60.03115960983038,
Q,left,Distractor,0,37,37,37,1149.6797926977742,1151.6799540610518,left,1,2,0.8021083089988679,C11R08,2023-01-06_12h13.24.154,t1_Paradigm,2021.1.4,60.03115960983038,
P,left,Distractor,0,38,38,38,1153.1794240965974,1155.1796752843075,left,1,2,0.8864968130365014,C11R08,2023-01-06_12h13.24.154,t1_Paradigm,2021.1.4,60.03115960983038,
S,left,Lure,0,39,39,39,1156.6795735901687,1158.6796515451279,left,1,2,0.8266121088527143,C11R08,2023-01-06_12h13.24.154,t1_Paradigm,2021.1.4,60.03115960983038,
K,left,Pretarget,0,40,40,40,1160.1795562668703,1162.179490502691,left,1,2,0.830842521507293,C11R08,2023-01-06_12h13.24.154,t1_Paradigm,2021.1.4,60.03115960983038,
L,left,Distractor,0,41,41,41,1163.6795719861984,1165.6794083772693,left,1,2,0.882839352125302,C11R08,2023-01-06_12h13.24.154,t1_Paradigm,2021.1.4,60.03115960983038,
K,right,Target,0,42,42,42,1167.1793958661146,1169.1795520966407,right,1,2,1.0147478978615254,C11R08,2023-01-06_12h13.24.154,t1_Paradigm,2021.1.4,60.03115960983038,
B,left,Distractor,0,43,43,43,1170.6798748231959,1172.679760296829,left,1,2,0.7943461900576949,C11R08,2023-01-06_12h13.24.154,t1_Paradigm,2021.1.4,60.03115960983038,
N,left,Distractor,0,44,44,44,1174.1794747833628,1176.1794927481096,left,1,2,0.6066444457974285,C11R08,2023-01-06_12h13.24.154,t1_Paradigm,2021.1.4,60.03115960983038,
S,left,Pretarget,0,45,45,45,1177.6793868837412,1179.6795504924376,left,1,2,0.8827408659271896,C11R08,2023-01-06_12h13.24.154,t1_Paradigm,2021.1.4,60.03115960983038,
Z,left,Distractor,0,46,46,46,1181.1794834448956,1183.181192355929,left,1,2,0.94888761988841,C11R08,2023-01-06_12h13.24.154,t1_Paradigm,2021.1.4,60.03115960983038,
S,right,Target,0,47,47,47,1184.679370522732,1186.6795014098752,right,1,2,0.6345259672962129,C11R08,2023-01-06_12h13.24.154,t1_Paradigm,2021.1.4,60.03115960983038,
C,left,Distractor,0,48,48,48,1188.1795774397906,1190.1802196849603,left,1,2,0.7500688119325787,C11R08,2023-01-06_12h13.24.154,t1_Paradigm,2021.1.4,60.03115960983038,
T,left,Pretarget,0,49,49,49,1191.6795094299596,1193.6796178608201,left,1,2,0.5306773085612804,C11R08,2023-01-06_12h13.24.154,t1_Paradigm,2021.1.4,60.03115960983038,
S,left,Lure,0,50,50,50,1195.1796390337404,1197.1793811093085,left,1,2,0.9346109798643738,C11R08,2023-01-06_12h13.24.154,t1_Paradigm,2021.1.4,60.03115960983038,
T,right,Target,0,51,51,51,1198.6793474250007,1200.6801571287215,right,1,2,0.8897843891754746,C11R08,2023-01-06_12h13.24.154,t1_Paradigm,2021.1.4,60.03115960983038,
N,left,Pretarget,0,52,52,52,1202.1797009485308,1204.18009617622,left,1,2,0.5421138908714056,C11R08,2023-01-06_12h13.24.154,t1_Paradigm,2021.1.4,60.03115960983038,
B,left,Distractor,0,53,53,53,1205.679528678069,1207.679487615358,left,1,2,0.8987748580984771,C11R08,2023-01-06_12h13.24.154,t1_Paradigm,2021.1.4,60.03115960983038,
N,right,Target,0,54,54,54,1209.1797234045807,1211.1794901818503,right,1,2,0.7906624234747142,C11R08,2023-01-06_12h13.24.154,t1_Paradigm,2021.1.4,60.03115960983038,
N,left,Lure,0,55,55,55,1212.6797785826493,1214.6794757456519,left,1,2,0.7468113908544183,C11R08,2023-01-06_12h13.24.154,t1_Paradigm,2021.1.4,60.03115960983038,
X,left,Distractor,0,56,56,56,1216.1795796854421,1218.1798892591614,left,1,2,0.622278398135677,C11R08,2023-01-06_12h13.24.154,t1_Paradigm,2021.1.4,60.03115960983038,
W,left,Distractor,0,57,57,57,1219.6793560867663,1221.6793884877115,left,1,2,0.6907801576890051,C11R08,2023-01-06_12h13.24.154,t1_Paradigm,2021.1.4,60.03115960983038,
S,left,Distractor,0,58,58,58,1223.1793766180053,1225.179952136241,left,1,2,0.5982371945865452,C11R08,2023-01-06_12h13.24.154,t1_Paradigm,2021.1.4,60.03115960983038,
L,left,Distractor,0,59,59,59,1226.6795126379002,1228.6792887183838,left,1,2,0.8748430476989597,C11R08,2023-01-06_12h13.24.154,t1_Paradigm,2021.1.4,60.03115960983038,
K,left,Pretarget,0,60,60,60,1230.1794853697065,1232.1793175905477,left,1,2,0.8787863429170102,C11R08,2023-01-06_12h13.24.154,t1_Paradigm,2021.1.4,60.03115960983038,
V,left,Pretarget,0,61,61,61,1233.679582572775,1235.6793275352102,left,1,2,0.5788437663577497,C11R08,2023-01-06_12h13.24.154,t1_Paradigm,2021.1.4,60.03115960983038,
K,right,Target,0,62,62,62,1237.1793342721649,1239.179486653069,right,1,2,0.7107128535863012,C11R08,2023-01-06_12h13.24.154,t1_Paradigm,2021.1.4,60.03115960983038,
V,right,Target,0,63,63,63,1240.6795703822281,1242.6796624523122,None,0,2,,C11R08,2023-01-06_12h13.24.154,t1_Paradigm,2021.1.4,60.03115960983038,
R,left,Distractor,0,0,0,0,1379.2396437174175,1381.246536143124,None,0,3,,C11R08,2023-01-06_12h13.24.154,t1_Paradigm,2021.1.4,60.03115960983038,
P,left,Lure,0,1,1,1,1382.7458881235216,1384.7307193337474,None,0,3,,C11R08,2023-01-06_12h13.24.154,t1_Paradigm,2021.1.4,60.03115960983038,
V,left,Distractor,0,2,2,2,1386.2459875720087,1388.2458977475762,None,0,3,,C11R08,2023-01-06_12h13.24.154,t1_Paradigm,2021.1.4,60.03115960983038,
P,left,Pretarget,0,3,3,3,1389.7459885345306,1391.7458531560842,left,1,3,1.0402359175495803,C11R08,2023-01-06_12h13.24.154,t1_Paradigm,2021.1.4,60.03115960983038,
Z,left,Distractor,0,4,4,4,1393.2459728152025,1395.2461136472411,None,0,3,,C11R08,2023-01-06_12h13.24.154,t1_Paradigm,2021.1.4,60.03115960983038,
L,left,Pretarget,0,5,5,5,1396.745856043417,1398.7459141085856,None,0,3,,C11R08,2023-01-06_12h13.24.154,t1_Paradigm,2021.1.4,60.03115960983038,
P,right,Target,0,6,6,6,1400.245959341526,1402.2458303791936,None,0,3,,C11R08,2023-01-06_12h13.24.154,t1_Paradigm,2021.1.4,60.03115960983038,
S,left,Distractor,0,7,7,7,1403.7461434816942,1405.7458505898248,left,1,3,1.2962809454184026,C11R08,2023-01-06_12h13.24.154,t1_Paradigm,2021.1.4,60.03115960983038,
L,right,Target,0,8,8,8,1407.2459176373668,1409.2464267497417,None,0,3,,C11R08,2023-01-06_12h13.24.154,t1_Paradigm,2021.1.4,60.03115960983038,
D,left,Distractor,0,9,9,9,1410.7458428905811,1412.746565015288,None,0,3,,C11R08,2023-01-06_12h13.24.154,t1_Paradigm,2021.1.4,60.03115960983038,
G,left,Distractor,0,10,10,10,1414.2461470104754,1416.2459311110433,left,1,3,1.372025446034968,C11R08,2023-01-06_12h13.24.154,t1_Paradigm,2021.1.4,60.03115960983038,
M,left,Pretarget,0,11,11,11,1417.7459747400135,1419.7464639625978,left,1,3,1.1035002677235752,C11R08,2023-01-06_12h13.24.154,t1_Paradigm,2021.1.4,60.03115960983038,
Y,left,Distractor,0,12,12,12,1421.2461797322612,1423.2459599832073,None,0,3,,C11R08,2023-01-06_12h13.24.154,t1_Paradigm,2021.1.4,60.03115960983038,
V,left,Distractor,0,13,13,13,1424.7460186898243,1426.7466250050347,None,0,3,,C11R08,2023-01-06_12h13.24.154,t1_Paradigm,2021.1.4,60.03115960983038,
M,right,Target,0,14,14,14,1428.2460725845303,1430.2463032410014,right,1,3,1.0195913626812398,C11R08,2023-01-06_12h13.24.154,t1_Paradigm,2021.1.4,60.03115960983038,
S,left,Pretarget,0,15,15,15,1431.7459131460637,1433.7307953636628,right,0,3,0.9591635414399207,C11R08,2023-01-06_12h13.24.154,t1_Paradigm,2021.1.4,60.03115960983038,
Q,left,Distractor,0,16,16,16,1435.2457803341094,1437.2458958227653,left,1,3,1.3164959466084838,C11R08,2023-01-06_12h13.24.154,t1_Paradigm,2021.1.4,60.03115960983038,
R,left,Pretarget,0,17,17,17,1438.7460398627445,1440.7459243740886,None,0,3,,C11R08,2023-01-06_12h13.24.154,t1_Paradigm,2021.1.4,60.03115960983038,
S,right,Target,0,18,18,18,1442.246037617093,1444.2458246047609,right,1,3,1.1483047232031822,C11R08,2023-01-06_12h13.24.154,t1_Paradigm,2021.1.4,60.03115960983038,
F,left,Distractor,0,19,19,19,1445.7460286347196,1447.7459339981433,left,1,3,1.119989156955853,C11R08,2023-01-06_12h13.24.154,t1_Paradigm,2021.1.4,60.03115960983038,
R,right,Target,0,20,20,20,1449.2457819380797,1451.2459375269245,left,0,3,1.4600852050352842,C11R08,2023-01-06_12h13.24.154,t1_Paradigm,2021.1.4,60.03115960983038,
P,left,Distractor,0,21,21,21,1452.7460992110427,1454.74599110079,right,0,3,0.9358640313148499,C11R08,2023-01-06_12h13.24.154,t1_Paradigm,2021.1.4,60.03115960983038,
L,left,Distractor,0,22,22,22,1456.2457748805173,1458.246036654804,left,1,3,0.9878996789921075,C11R08,2023-01-06_12h13.24.154,t1_Paradigm,2021.1.4,60.03115960983038,
R,right,Target,0,23,23,23,1459.7463183186483,1461.7467061679345,right,1,3,1.1993811733555049,C11R08,2023-01-06_12h13.24.154,t1_Paradigm,2021.1.4,60.03115960983038,
H,left,Pretarget,0,24,24,24,1463.2459747400135,1465.2459301485214,left,1,3,1.316111947176978,C11R08,2023-01-06_12h13.24.154,t1_Paradigm,2021.1.4,60.03115960983038,
G,left,Pretarget,0,25,25,25,1466.7461996220518,1468.746164975455,left,1,3,1.2717816366348416,C11R08,2023-01-06_12h13.24.154,t1_Paradigm,2021.1.4,60.03115960983038,
T,left,Distractor,0,26,26,26,1470.2461624089628,1472.246289767325,None,0,3,,C11R08,2023-01-06_12h13.24.154,t1_Paradigm,2021.1.4,60.03115960983038,
H,right,Target,0,27,27,27,1473.7461271209177,1475.7462737271562,None,0,3,,C11R08,2023-01-06_12h13.24.154,t1_Paradigm,2021.1.4,60.03115960983038,
G,right,Target,0,28,28,28,1477.2461328953505,1479.245951963123,right,1,3,0.6920107533223927,C11R08,2023-01-06_12h13.24.154,t1_Paradigm,2021.1.4,60.03115960983038,
D,left,Distractor,0,29,29,29,1480.7459468301386,1482.74586342182,left,1,3,0.7442594130989164,C11R08,2023-01-06_12h13.24.154,t1_Paradigm,2021.1.4,60.03115960983038,
N,left,Pretarget,0,30,30,30,1484.2458598930389,1486.245792845497,right,0,3,1.1482976656407118,C11R08,2023-01-06_12h13.24.154,t1_Paradigm,2021.1.4,60.03115960983038,
V,left,Distractor,0,31,31,31,1487.7459012763575,1489.7459070507903,left,1,3,0.9277993962168694,C11R08,2023-01-06_12h13.24.154,t1_Paradigm,2021.1.4,60.03115960983038,
R,left,Distractor,0,32,32,32,1491.245747291483,1493.2457334971987,left,1,3,0.916579355020076,C11R08,2023-01-06_12h13.24.154,t1_Paradigm,2021.1.4,60.03115960983038,
N,right,Target,0,33,33,33,1494.7460809254553,1496.7462284942158,left,0,3,1.383676965488121,C11R08,2023-01-06_12h13.24.154,t1_Paradigm,2021.1.4,60.03115960983038,
Z,left,Distractor,0,34,34,34,1498.2457703892142,1500.2460363339633,left,1,3,0.8919514049775898,C11R08,2023-01-06_12h13.24.154,t1_Paradigm,2021.1.4,60.03115960983038,
N,left,Lure,0,35,35,35,1501.7458916523028,1503.7458640635014,left,1,3,1.10400970117189,C11R08,2023-01-06_12h13.24.154,t1_Paradigm,2021.1.4,60.03115960983038,
Y,left,Pretarget,0,36,36,36,1505.245972494362,1507.2457405547611,left,1,3,0.7881499042268842,C11R08,2023-01-06_12h13.24.154,t1_Paradigm,2021.1.4,60.03115960983038,
Y,left,Lure,0,37,37,37,1508.746092474321,1510.7458345496561,left,1,3,1.00024220533669,C11R08,2023-01-06_12h13.24.154,t1_Paradigm,2021.1.4,60.03115960983038,
B,left,Distractor,0,38,38,38,1512.2461470104754,1514.2463767046575,left,1,3,1.0355117910075933,C11R08,2023-01-06_12h13.24.154,t1_Paradigm,2021.1.4,60.03115960983038,
Y,right,Target,0,39,39,39,1515.7457235523034,1517.7456125547178,right,1,3,0.4644404095597565,C11R08,2023-01-06_12h13.24.154,t1_Paradigm,2021.1.4,60.03115960983038,
J,left,Distractor,0,40,40,40,1519.245986288879,1521.2459195621777,left,1,3,1.1240120108705014,C11R08,2023-01-06_12h13.24.154,t1_Paradigm,2021.1.4,60.03115960983038,
X,left,Distractor,0,41,41,41,1522.7456719032489,1524.7461662585847,left,1,3,0.8395227752625942,C11R08,2023-01-06_12h13.24.154,t1_Paradigm,2021.1.4,60.03115960983038,
W,left,Pretarget,0,42,42,42,1526.2459606246557,1528.2465002131648,left,1,3,0.8435696894302964,C11R08,2023-01-06_12h13.24.154,t1_Paradigm,2021.1.4,60.03115960983038,
S,left,Pretarget,0,43,43,43,1529.7459933464415,1531.7459282237105,left,1,3,1.087944270344451,C11R08,2023-01-06_12h13.24.154,t1_Paradigm,2021.1.4,60.03115960983038,
R,left,Distractor,0,44,44,44,1533.2461264792364,1535.24590544682,right,0,3,1.348213936202228,C11R08,2023-01-06_12h13.24.154,t1_Paradigm,2021.1.4,60.03115960983038,
W,right,Target,0,45,45,45,1536.746099852724,1538.7455897778273,right,1,3,1.032400976633653,C11R08,2023-01-06_12h13.24.154,t1_Paradigm,2021.1.4,60.03115960983038,
S,right,Target,0,46,46,46,1540.2459644742776,1542.2456847352441,right,1,3,0.9242612738162279,C11R08,2023-01-06_12h13.24.154,t1_Paradigm,2021.1.4,60.03115960983038,
D,left,Distractor,0,47,47,47,1543.7462240029126,1545.7461341784801,None,0,3,,C11R08,2023-01-06_12h13.24.154,t1_Paradigm,2021.1.4,60.03115960983038,
T,left,Distractor,0,48,48,48,1547.2457604445517,1549.2466054363176,left,1,3,0.9793949038721621,C11R08,2023-01-06_12h13.24.154,t1_Paradigm,2021.1.4,60.03115960983038,
S,right,Target,0,49,49,49,1550.7459327150136,1552.745828133542,right,1,3,0.9519098931923509,C11R08,2023-01-06_12h13.24.154,t1_Paradigm,2021.1.4,60.03115960983038,
K,left,Distractor,0,50,50,50,1554.2457007754128,1556.2461142886896,left,1,3,0.7319014880340546,C11R08,2023-01-06_12h13.24.154,t1_Paradigm,2021.1.4,60.03115960983038,
S,left,Lure,0,51,51,51,1557.7459272614215,1559.7461899979971,None,0,3,,C11R08,2023-01-06_12h13.24.154,t1_Paradigm,2021.1.4,60.03115960983038,
T,left,Pretarget,0,52,52,52,1561.245869196253,1563.2458069606218,right,0,3,0.8040315157268196,C11R08,2023-01-06_12h13.24.154,t1_Paradigm,2021.1.4,60.03115960983038,
V,left,Distractor,0,53,53,53,1564.7458656674717,1566.746247742325,left,1,3,0.9195474130101502,C11R08,2023-01-06_12h13.24.154,t1_Paradigm,2021.1.4,60.03115960983038,
B,left,Distractor,0,54,54,54,1568.2458833116107,1570.2456683742348,left,1,3,1.3720979471690953,C11R08,2023-01-06_12h13.24.154,t1_Paradigm,2021.1.4,60.03115960983038,
T,right,Target,0,55,55,55,1571.7460652061272,1573.7460485245101,right,1,3,1.2959469908382744,C11R08,2023-01-06_12h13.24.154,t1_Paradigm,2021.1.4,60.03115960983038,
Y,left,Pretarget,0,56,56,56,1575.2458528352436,1577.245643993374,right,0,3,0.9803348530549556,C11R08,2023-01-06_12h13.24.154,t1_Paradigm,2021.1.4,60.03115960983038,
T,left,Lure,0,57,57,57,1578.746111080749,1580.7458531560842,None,0,3,,C11R08,2023-01-06_12h13.24.154,t1_Paradigm,2021.1.4,60.03115960983038,
P,left,Pretarget,0,58,58,58,1582.2458711210638,1584.2460879830178,left,1,3,0.907803823472932,C11R08,2023-01-06_12h13.24.154,t1_Paradigm,2021.1.4,60.03115960983038,
Y,right,Target,0,59,59,59,1585.7459962337743,1587.7463876118418,None,0,3,,C11R08,2023-01-06_12h13.24.154,t1_Paradigm,2021.1.4,60.03115960983038,
R,left,Distractor,0,60,60,60,1589.2460603939835,1591.2464508097619,left,1,3,0.8513388661667705,C11R08,2023-01-06_12h13.24.154,t1_Paradigm,2021.1.4,60.03115960983038,
P,right,Target,0,61,61,61,1592.7456584295724,1594.7457870710641,right,1,3,0.9678880658466369,C11R08,2023-01-06_12h13.24.154,t1_Paradigm,2021.1.4,60.03115960983038,
L,left,Distractor,0,62,62,62,1596.2456516926177,1598.2457992613781,None,0,3,,C11R08,2023-01-06_12h13.24.154,t1_Paradigm,2021.1.4,60.03115960983038,
V,left,Distractor,0,63,63,63,1599.7459692864213,1601.7456180085428,right,0,3,1.3601634805090725,C11R08,2023-01-06_12h13.24.154,t1_Paradigm,2021.1.4,60.03115960983038,
H,left,Lure,0,0,0,0,1625.9729057259392,1627.9789868439548,None,0,3,,C11R08,2023-01-06_12h13.24.154,t1_Paradigm,2021.1.4,60.03115960983038,
B,left,Distractor,0,1,1,1,1629.479186703451,1631.479067685781,None,0,3,,C11R08,2023-01-06_12h13.24.154,t1_Paradigm,2021.1.4,60.03115960983038,
T,left,Distractor,0,2,2,2,1632.9789554052986,1634.9794061316643,None,0,3,,C11R08,2023-01-06_12h13.24.154,t1_Paradigm,2021.1.4,60.03115960983038,
R,left,Distractor,0,3,3,3,1636.4791745129041,1638.4790458714124,left,1,3,0.611008632928133,C11R08,2023-01-06_12h13.24.154,t1_Paradigm,2021.1.4,60.03115960983038,
H,left,Pretarget,0,4,4,4,1639.9792951343115,1641.9793660314754,None,0,3,,C11R08,2023-01-06_12h13.24.154,t1_Paradigm,2021.1.4,60.03115960983038,
K,left,Distractor,0,5,5,5,1643.4790413801093,1645.478950272547,None,0,3,,C11R08,2023-01-06_12h13.24.154,t1_Paradigm,2021.1.4,60.03115960983038,
G,left,Distractor,0,6,6,6,1646.979116126895,1648.9788864329457,None,0,3,,C11R08,2023-01-06_12h13.24.154,t1_Paradigm,2021.1.4,60.03115960983038,
H,right,Target,0,7,7,7,1650.4792120466009,1652.47912735492,right,1,3,0.9627347064670175,C11R08,2023-01-06_12h13.24.154,t1_Paradigm,2021.1.4,60.03115960983038,
Y,left,Pretarget,0,8,8,8,1653.9789143425878,1655.9791780416854,left,1,3,1.046764233149588,C11R08,2023-01-06_12h13.24.154,t1_Paradigm,2021.1.4,60.03115960983038,
S,left,Distractor,0,9,9,9,1657.4790548537858,1659.479120618198,left,1,3,1.162709042429924,C11R08,2023-01-06_12h13.24.154,t1_Paradigm,2021.1.4,60.03115960983038,
P,left,Distractor,0,10,10,10,1660.9788761672098,1662.9794019612018,left,1,3,1.246501817367971,C11R08,2023-01-06_12h13.24.154,t1_Paradigm,2021.1.4,60.03115960983038,
Y,right,Target,0,11,11,11,1664.4787972499616,1666.4794792744797,right,1,3,0.6104398511815816,C11R08,2023-01-06_12h13.24.154,t1_Paradigm,2021.1.4,60.03115960983038,
H,left,Lure,0,12,12,12,1667.9789005480707,1669.9795755150262,left,1,3,1.1422941817436367,C11R08,2023-01-06_12h13.24.154,t1_Paradigm,2021.1.4,60.03115960983038,
Q,left,Distractor,0,13,13,13,1671.4792110843118,1673.4794770288281,left,1,3,0.9542421218939126,C11R08,2023-01-06_12h13.24.154,t1_Paradigm,2021.1.4,60.03115960983038,
V,left,Pretarget,0,14,14,14,1674.979247334879,1676.9800470937043,left,1,3,0.8139067557640374,C11R08,2023-01-06_12h13.24.154,t1_Paradigm,2021.1.4,60.03115960983038,
G,left,Distractor,0,15,15,15,1678.4790083374828,1680.4791716255713,left,1,3,1.1705632314551622,C11R08,2023-01-06_12h13.24.154,t1_Paradigm,2021.1.4,60.03115960983038,
Z,left,Pretarget,0,16,16,16,1681.979060307378,1683.9802674844395,left,1,3,0.869484375230968,C11R08,2023-01-06_12h13.24.154,t1_Paradigm,2021.1.4,60.03115960983038,
V,right,Target,0,17,17,17,1685.479196006665,1687.4789323075674,right,1,3,0.9548439460340887,C11R08,2023-01-06_12h13.24.154,t1_Paradigm,2021.1.4,60.03115960983038,
N,left,Distractor,0,18,18,18,1688.9793474250473,1690.9792543924414,left,1,3,0.8784636163618416,C11R08,2023-01-06_12h13.24.154,t1_Paradigm,2021.1.4,60.03115960983038,
Z,right,Target,0,19,19,19,1692.4789406484924,1694.4790340017062,right,1,3,1.234584674006328,C11R08,2023-01-06_12h13.24.154,t1_Paradigm,2021.1.4,60.03115960983038,
R,left,Distractor,0,20,20,20,1695.979035926517,1697.9793130992912,left,1,3,1.2544342821929604,C11R08,2023-01-06_12h13.24.154,t1_Paradigm,2021.1.4,60.03115960983038,
P,left,Distractor,0,21,21,21,1699.479120618198,1701.4792960968334,left,1,3,0.842527725500986,C11R08,2023-01-06_12h13.24.154,t1_Paradigm,2021.1.4,60.03115960983038,
Z,right,Target,0,22,22,22,1702.9789961471688,1704.9795755150262,right,1,3,1.2143366301897913,C11R08,2023-01-06_12h13.24.154,t1_Paradigm,2021.1.4,60.03115960983038,
D,left,Pretarget,0,23,23,23,1706.4788585230708,1708.479142111959,left,1,3,0.7066251977812499,C11R08,2023-01-06_12h13.24.154,t1_Paradigm,2021.1.4,60.03115960983038,
K,left,Distractor,0,24,24,24,1709.9793567282613,1711.9789589340799,left,1,3,0.9988694947678596,C11R08,2023-01-06_12h13.24.154,t1_Paradigm,2021.1.4,60.03115960983038,
W,left,Distractor,0,25,25,25,1713.4791286382824,1715.4789172299206,left,1,3,1.114998123375699,C11R08,2023-01-06_12h13.24.154,t1_Paradigm,2021.1.4,60.03115960983038,
D,right,Target,0,26,26,26,1716.9790420217905,1718.9790818011388,None,0,3,,C11R08,2023-01-06_12h13.24.154,t1_Paradigm,2021.1.4,60.03115960983038,
G,left,Pretarget,0,27,27,27,1720.4791251095012,1722.4798283069395,left,1,3,0.8177650384604931,C11R08,2023-01-06_12h13.24.154,t1_Paradigm,2021.1.4,60.03115960983038,
V,left,Distractor,0,28,28,28,1723.9792040267494,1725.9791825329885,None,0,3,,C11R08,2023-01-06_12h13.24.154,t1_Paradigm,2021.1.4,60.03115960983038,
D,right,Target,0,29,29,29,1727.479179324815,1729.4789586132392,right,1,3,0.6832310508470982,C11R08,2023-01-06_12h13.24.154,t1_Paradigm,2021.1.4,60.03115960983038,
G,right,Target,0,30,30,30,1730.9791199765168,1732.9794850489125,left,0,3,1.2941158541943878,C11R08,2023-01-06_12h13.24.154,t1_Paradigm,2021.1.4,60.03115960983038,
B,left,Pretarget,0,31,31,31,1734.479153339984,1736.4788511446677,left,1,3,1.1708378379698843,C11R08,2023-01-06_12h13.24.154,t1_Paradigm,2021.1.4,60.03115960983038,
N,left,Distractor,0,32,32,32,1737.9790340017062,1739.9788845081348,None,0,3,,C11R08,2023-01-06_12h13.24.154,t1_Paradigm,2021.1.4,60.03115960983038,
F,left,Distractor,0,33,33,33,1741.4791065028403,1743.479248297168,left,1,3,1.162576230475679,C11R08,2023-01-06_12h13.24.154,t1_Paradigm,2021.1.4,60.03115960983038,
B,right,Target,0,34,34,34,1744.9790840467904,1746.9789711246267,right,1,3,0.39880597591400146,C11R08,2023-01-06_12h13.24.154,t1_Paradigm,2021.1.4,60.03115960983038,
Q,left,Pretarget,0,35,35,35,1748.4791716255713,1750.4790041672532,left,1,3,0.8185631930828094,C11R08,2023-01-06_12h13.24.154,t1_Paradigm,2021.1.4,60.03115960983038,
S,left,Pretarget,0,36,36,36,1751.9790218111593,1753.9787905132398,None,0,3,,C11R08,2023-01-06_12h13.24.154,t1_Paradigm,2021.1.4,60.03115960983038,
W,left,Distractor,0,37,37,37,1755.478910492966,1757.479180287337,None,0,3,,C11R08,2023-01-06_12h13.24.154,t1_Paradigm,2021.1.4,60.03115960983038,
Q,right,Target,0,38,38,38,1758.9790394552983,1760.9788200268522,right,1,3,1.022905244724825,C11R08,2023-01-06_12h13.24.154,t1_Paradigm,2021.1.4,60.03115960983038,
S,right,Target,0,39,39,39,1762.4788087988272,1764.4788296509068,right,1,3,0.7388426754623652,C11R08,2023-01-06_12h13.24.154,t1_Paradigm,2021.1.4,60.03115960983038,
T,left,Distractor,0,40,40,40,1765.978965350194,1767.9787350145634,left,1,3,0.9190415085759014,C11R08,2023-01-06_12h13.24.154,t1_Paradigm,2021.1.4,60.03115960983038,
G,left,Distractor,0,41,41,41,1769.4789470643736,1771.4791100316215,left,1,3,1.2586672611068934,C11R08,2023-01-06_12h13.24.154,t1_Paradigm,2021.1.4,60.03115960983038,
D,left,Distractor,0,42,42,42,1772.979020207189,1774.9790134704672,left,1,3,1.4386335129383951,C11R08,2023-01-06_12h13.24.154,t1_Paradigm,2021.1.4,60.03115960983038,
S,left,Lure,0,43,43,43,1776.4791911945213,1778.4791145229246,right,0,3,0.8829795424826443,C11R08,2023-01-06_12h13.24.154,t1_Paradigm,2021.1.4,60.03115960983038,
Z,left,Pretarget,0,44,44,44,1779.9790551746264,1781.979035926517,left,1,3,1.0627526715397835,C11R08,2023-01-06_12h13.24.154,t1_Paradigm,2021.1.4,60.03115960983038,
J,left,Distractor,0,45,45,45,1783.4794112646487,1785.4788845081348,left,1,3,1.066802793648094,C11R08,2023-01-06_12h13.24.154,t1_Paradigm,2021.1.4,60.03115960983038,
M,left,Pretarget,0,46,46,46,1786.9789294202346,1788.979064798681,left,1,3,0.7025612811557949,C11R08,2023-01-06_12h13.24.154,t1_Paradigm,2021.1.4,60.03115960983038,
Z,right,Target,0,47,47,47,1790.4790538914967,1792.478885149816,right,1,3,0.738755417522043,C11R08,2023-01-06_12h13.24.154,t1_Paradigm,2021.1.4,60.03115960983038,
P,left,Distractor,0,48,48,48,1793.9790612698998,1795.9789987134282,left,1,3,1.2866145470179617,C11R08,2023-01-06_12h13.24.154,t1_Paradigm,2021.1.4,60.03115960983038,
M,right,Target,0,49,49,49,1797.4788335005287,1799.4788187437225,left,0,3,1.1787667740136385,C11R08,2023-01-06_12h13.24.154,t1_Paradigm,2021.1.4,60.03115960983038,
K,left,Distractor,0,50,50,50,1800.979115164606,1802.9795312443748,left,1,3,1.3742235794197768,C11R08,2023-01-06_12h13.24.154,t1_Paradigm,2021.1.4,60.03115960983038,
Y,left,Distractor,0,51,51,51,1804.479111314984,1806.4788296509068,None,0,3,,C11R08,2023-01-06_12h13.24.154,t1_Paradigm,2021.1.4,60.03115960983038,
X,left,Distractor,0,52,52,52,1807.9789990342688,1809.9787776810117,left,1,3,0.9028028447646648,C11R08,2023-01-06_12h13.24.154,t1_Paradigm,2021.1.4,60.03115960983038,
F,left,Pretarget,0,53,53,53,1811.4791344127152,1813.479412868619,left,1,3,1.3382524002809078,C11R08,2023-01-06_12h13.24.154,t1_Paradigm,2021.1.4,60.03115960983038,
M,left,Lure,0,54,54,54,1814.978921720991,1816.9794661216438,right,0,3,1.3102810543496162,C11R08,2023-01-06_12h13.24.154,t1_Paradigm,2021.1.4,60.03115960983038,
V,left,Distractor,0,55,55,55,1818.4787327689119,1820.4790410592686,left,1,3,1.1865696348249912,C11R08,2023-01-06_12h13.24.154,t1_Paradigm,2021.1.4,60.03115960983038,
F,right,Target,0,56,56,56,1821.9788902825676,1823.978842483135,right,1,3,1.3346565337851644,C11R08,2023-01-06_12h13.24.154,t1_Paradigm,2021.1.4,60.03115960983038,
S,left,Distractor,0,57,57,57,1825.4787635658868,1827.478775435593,left,1,3,0.6347473205532879,C11R08,2023-01-06_12h13.24.154,t1_Paradigm,2021.1.4,60.03115960983038,
D,left,Distractor,0,58,58,58,1828.9788999066222,1830.9793410089333,left,1,3,1.246394348796457,C11R08,2023-01-06_12h13.24.154,t1_Paradigm,2021.1.4,60.03115960983038,
F,right,Target,0,59,59,59,1832.4788662223145,1834.4788100821897,None,0,3,,C11R08,2023-01-06_12h13.24.154,t1_Paradigm,2021.1.4,60.03115960983038,
V,left,Pretarget,0,60,60,60,1835.9787199369166,1837.978856277652,left,1,3,0.9506590871606022,C11R08,2023-01-06_12h13.24.154,t1_Paradigm,2021.1.4,60.03115960983038,
J,left,Distractor,0,61,61,61,1839.478917871369,1841.4791629640386,left,1,3,1.1784100425429642,C11R08,2023-01-06_12h13.24.154,t1_Paradigm,2021.1.4,60.03115960983038,
V,left,Lure,0,62,62,62,1842.978934553219,1844.9794930689968,right,0,3,1.1500068972818553,C11R08,2023-01-06_12h13.24.154,t1_Paradigm,2021.1.4,60.03115960983038,
V,right,Target,0,63,63,63,1846.479034964228,1848.4791241469793,right,1,3,1.0745466267690063,C11R08,2023-01-06_12h13.24.154,t1_Paradigm,2021.1.4,60.03115960983038,
R,left,Distractor,0,0,0,0,1985.6761403698474,1987.67884761584,None,0,4,,C11R08,2023-01-06_12h13.24.154,t1_Paradigm,2021.1.4,60.03115960983038,
F,left,Distractor,0,1,1,1,1989.1788392751478,1991.178812006954,None,0,4,,C11R08,2023-01-06_12h13.24.154,t1_Paradigm,2021.1.4,60.03115960983038,
P,left,Pretarget,0,2,2,2,1992.6787950044964,1994.6792874350213,None,0,4,,C11R08,2023-01-06_12h13.24.154,t1_Paradigm,2021.1.4,60.03115960983038,
H,left,Distractor,0,3,3,3,1996.1787276361138,1998.178831575904,None,0,4,,C11R08,2023-01-06_12h13.24.154,t1_Paradigm,2021.1.4,60.03115960983038,
Z,left,Distractor,0,4,4,4,1999.6784896012396,2001.679387204349,left,1,4,0.6103436108678579,C11R08,2023-01-06_12h13.24.154,t1_Paradigm,2021.1.4,60.03115960983038,
T,left,Distractor,0,5,5,5,2003.1789586131927,2005.1785354758613,left,1,4,0.8869311783928424,C11R08,2023-01-06_12h13.24.154,t1_Paradigm,2021.1.4,60.03115960983038,
P,right,Target,0,6,6,6,2006.6786073353142,2008.6790878963657,left,0,4,1.2584693264216185,C11R08,2023-01-06_12h13.24.154,t1_Paradigm,2021.1.4,60.03115960983038,
G,left,Distractor,0,7,7,7,2010.1786047690548,2012.178746884223,left,1,4,0.8309320253320038,C11R08,2023-01-06_12h13.24.154,t1_Paradigm,2021.1.4,60.03115960983038,
L,left,Distractor,0,8,8,8,2013.6789483476896,2015.6786824029405,left,1,4,0.8830751413479447,C11R08,2023-01-06_12h13.24.154,t1_Paradigm,2021.1.4,60.03115960983038,
P,left,Lure,0,9,9,9,2017.1789412898943,2019.1789878061973,right,0,4,0.614638504339382,C11R08,2023-01-06_12h13.24.154,t1_Paradigm,2021.1.4,60.03115960983038,
Q,left,Pretarget,0,10,10,10,2020.6787411097903,2022.6784751650412,right,0,4,0.970932153519243,C11R08,2023-01-06_12h13.24.154,t1_Paradigm,2021.1.4,60.03115960983038,
D,left,Distractor,0,11,11,11,2024.1787279569544,2026.1785194356926,left,1,4,1.0389418033882976,C11R08,2023-01-06_12h13.24.154,t1_Paradigm,2021.1.4,60.03115960983038,
M,left,Pretarget,0,12,12,12,2027.6788832249586,2029.6791219012812,left,1,4,1.2023139430675656,C11R08,2023-01-06_12h13.24.154,t1_Paradigm,2021.1.4,60.03115960983038,
C,left,Distractor,0,13,13,13,2031.178560819244,2033.1785444582347,left,1,4,1.3188288169912994,C11R08,2023-01-06_12h13.24.154,t1_Paradigm,2021.1.4,60.03115960983038,
Q,right,Target,0,14,14,14,2034.678860448068,2036.6785476661753,None,0,4,,C11R08,2023-01-06_12h13.24.154,t1_Paradigm,2021.1.4,60.03115960983038,
R,left,Distractor,0,15,15,15,2038.178556327941,2040.179187986534,right,0,4,1.438234435627237,C11R08,2023-01-06_12h13.24.154,t1_Paradigm,2021.1.4,60.03115960983038,
M,right,Target,0,16,16,16,2041.67870325502,2043.6785569696222,right,1,4,0.8990757702849805,C11R08,2023-01-06_12h13.24.154,t1_Paradigm,2021.1.4,60.03115960983038,
S,left,Distractor,0,17,17,17,2045.178560819244,2047.178572047269,left,1,4,0.8389193471521139,C11R08,2023-01-06_12h13.24.154,t1_Paradigm,2021.1.4,60.03115960983038,
Z,left,Distractor,0,18,18,18,2048.6785521574784,2050.6791196558625,right,0,4,1.050228571286425,C11R08,2023-01-06_12h13.24.154,t1_Paradigm,2021.1.4,60.03115960983038,
L,left,Pretarget,0,19,19,19,2052.1786471148953,2054.178518152563,left,1,4,0.7990183467045426,C11R08,2023-01-06_12h13.24.154,t1_Paradigm,2021.1.4,60.03115960983038,
M,right,Target,0,20,20,20,2055.6787324480247,2057.6787985332776,right,1,4,1.3308075540699065,C11R08,2023-01-06_12h13.24.154,t1_Paradigm,2021.1.4,60.03115960983038,
P,left,Distractor,0,21,21,21,2059.1785547239706,2061.179307324812,left,1,4,0.7901545944623649,C11R08,2023-01-06_12h13.24.154,t1_Paradigm,2021.1.4,60.03115960983038,
F,left,Distractor,0,22,22,22,2062.678493771469,2064.678680157289,left,1,4,0.7628671976272017,C11R08,2023-01-06_12h13.24.154,t1_Paradigm,2021.1.4,60.03115960983038,
L,right,Target,0,23,23,23,2066.1785752552096,2068.1787577914074,right,1,4,0.7987200010102242,C11R08,2023-01-06_12h13.24.154,t1_Paradigm,2021.1.4,60.03115960983038,
L,left,Lure,0,24,24,24,2069.678672778886,2071.6786769493483,left,1,4,1.4109739863779396,C11R08,2023-01-06_12h13.24.154,t1_Paradigm,2021.1.4,60.03115960983038,
V,left,Pretarget,0,25,25,25,2073.178631395567,2075.1788062325213,None,0,4,,C11R08,2023-01-06_12h13.24.154,t1_Paradigm,2021.1.4,60.03115960983038,
Z,left,Distractor,0,26,26,26,2076.678480939474,2078.6785903328564,left,1,4,0.8268969808705151,C11R08,2023-01-06_12h13.24.154,t1_Paradigm,2021.1.4,60.03115960983038,
H,left,Distractor,0,27,27,27,2080.1787911548745,2082.1786544932984,left,1,4,1.3592645942699164,C11R08,2023-01-06_12h13.24.154,t1_Paradigm,2021.1.4,60.03115960983038,
X,left,Distractor,0,28,28,28,2083.678636207478,2085.6786365283187,left,1,4,0.9149150357116014,C11R08,2023-01-06_12h13.24.154,t1_Paradigm,2021.1.4,60.03115960983038,
V,right,Target,0,29,29,29,2087.178585200105,2089.178627866786,right,1,4,1.3832397125661373,C11R08,2023-01-06_12h13.24.154,t1_Paradigm,2021.1.4,60.03115960983038,
C,left,Distractor,0,30,30,30,2090.678588728886,2092.6792694702744,left,1,4,0.8262444701977074,C11R08,2023-01-06_12h13.24.154,t1_Paradigm,2021.1.4,60.03115960983038,
S,left,Pretarget,0,31,31,31,2094.1786599468905,2096.17876645294,right,0,4,0.8786833656486124,C11R08,2023-01-06_12h13.24.154,t1_Paradigm,2021.1.4,60.03115960983038,
D,left,Distractor,0,32,32,32,2097.67870036792,2099.678598994622,right,0,4,0.9149483991786838,C11R08,2023-01-06_12h13.24.154,t1_Paradigm,2021.1.4,60.03115960983038,
V,left,Distractor,0,33,33,33,2101.1785277766176,2103.1786496811546,right,0,4,1.2547326276544482,C11R08,2023-01-06_12h13.24.154,t1_Paradigm,2021.1.4,60.03115960983038,
R,left,Distractor,0,34,34,34,2104.678826122079,2106.6784841474146,right,0,4,0.9067307414952666,C11R08,2023-01-06_12h13.24.154,t1_Paradigm,2021.1.4,60.03115960983038,
S,right,Target,0,35,35,35,2108.178618563339,2110.178560819244,right,1,4,0.7187303307000548,C11R08,2023-01-06_12h13.24.154,t1_Paradigm,2021.1.4,60.03115960983038,
Y,left,Distractor,0,36,36,36,2111.6788267637603,2113.678580387961,left,1,4,0.7548423418775201,C11R08,2023-01-06_12h13.24.154,t1_Paradigm,2021.1.4,60.03115960983038,
N,left,Pretarget,0,37,37,37,2115.1786179218907,2117.1794526479207,None,0,4,,C11R08,2023-01-06_12h13.24.154,t1_Paradigm,2021.1.4,60.03115960983038,
Z,left,Pretarget,0,38,38,38,2118.6784944131505,2120.678448217688,left,1,4,1.0671669035218656,C11R08,2023-01-06_12h13.24.154,t1_Paradigm,2021.1.4,60.03115960983038,
P,left,Pretarget,0,39,39,39,2122.1788591647055,2124.178612147458,None,0,4,,C11R08,2023-01-06_12h13.24.154,t1_Paradigm,2021.1.4,60.03115960983038,
M,left,Distractor,0,40,40,40,2125.678436347982,2127.678445330588,right,0,4,0.9311103911604732,C11R08,2023-01-06_12h13.24.154,t1_Paradigm,2021.1.4,60.03115960983038,
N,right,Target,0,41,41,41,2129.178624017164,2131.178556327941,right,1,4,1.1589190906379372,C11R08,2023-01-06_12h13.24.154,t1_Paradigm,2021.1.4,60.03115960983038,
Z,right,Target,0,42,42,42,2132.678709671134,2134.678442764096,right,1,4,1.3869055141694844,C11R08,2023-01-06_12h13.24.154,t1_Paradigm,2021.1.4,60.03115960983038,
P,right,Target,0,43,43,43,2136.178476127563,2138.178557931911,left,0,4,1.2310131881386042,C11R08,2023-01-06_12h13.24.154,t1_Paradigm,2021.1.4,60.03115960983038,
X,left,Pretarget,0,44,44,44,2139.6784209494945,2141.6784215911757,None,0,4,,C11R08,2023-01-06_12h13.24.154,t1_Paradigm,2021.1.4,60.03115960983038,
Z,left,Lure,0,45,45,45,2143.1786663630046,2145.178624979453,right,0,4,1.270665567368269,C11R08,2023-01-06_12h13.24.154,t1_Paradigm,2021.1.4,60.03115960983038,
R,left,Pretarget,0,46,46,46,2146.678405230399,2148.6784504633397,None,0,4,,C11R08,2023-01-06_12h13.24.154,t1_Paradigm,2021.1.4,60.03115960983038,
K,left,Distractor,0,47,47,47,2150.178532267688,2152.1787706234027,left,1,4,0.8785640271380544,C11R08,2023-01-06_12h13.24.154,t1_Paradigm,2021.1.4,60.03115960983038,
X,right,Target,0,48,48,48,2153.6787606785074,2155.678569480777,left,0,4,1.0269110961817205,C11R08,2023-01-06_12h13.24.154,t1_Paradigm,2021.1.4,60.03115960983038,
B,left,Distractor,0,49,49,49,2157.178440197604,2159.179007375147,left,1,4,0.7904105940833688,C11R08,2023-01-06_12h13.24.154,t1_Paradigm,2021.1.4,60.03115960983038,
R,right,Target,0,50,50,50,2160.678557931911,2162.6784219120163,right,1,4,0.7311065413523465,C11R08,2023-01-06_12h13.24.154,t1_Paradigm,2021.1.4,60.03115960983038,
Y,left,Pretarget,0,51,51,51,2164.178679195,2166.178373150062,left,1,4,0.879006092203781,C11R08,2023-01-06_12h13.24.154,t1_Paradigm,2021.1.4,60.03115960983038,
W,left,Pretarget,0,52,52,52,2167.678428648738,2169.6786159970798,left,1,4,0.8346116214524955,C11R08,2023-01-06_12h13.24.154,t1_Paradigm,2021.1.4,60.03115960983038,
Z,left,Distractor,0,53,53,53,2171.1785874457564,2173.1785075659864,left,1,4,0.8548105824738741,C11R08,2023-01-06_12h13.24.154,t1_Paradigm,2021.1.4,60.03115960983038,
Q,left,Distractor,0,54,54,54,2174.678404588718,2176.678536758991,left,1,4,0.6988961212337017,C11R08,2023-01-06_12h13.24.154,t1_Paradigm,2021.1.4,60.03115960983038,
Y,right,Target,0,55,55,55,2178.178335616365,2180.1790901420172,right,1,4,1.1341547998599708,C11R08,2023-01-06_12h13.24.154,t1_Paradigm,2021.1.4,60.03115960983038,
W,right,Target,0,56,56,56,2181.678756187437,2183.680849097902,right,1,4,0.9126928418409079,C11R08,2023-01-06_12h13.24.154,t1_Paradigm,2021.1.4,60.03115960983038,
H,left,Pretarget,0,57,57,57,2185.178427044768,2187.178985239938,left,1,4,0.8863097853027284,C11R08,2023-01-06_12h13.24.154,t1_Paradigm,2021.1.4,60.03115960983038,
M,left,Distractor,0,58,58,58,2188.678660267731,2190.679010583088,left,1,4,0.9381516687572002,C11R08,2023-01-06_12h13.24.154,t1_Paradigm,2021.1.4,60.03115960983038,
R,left,Pretarget,0,59,59,59,2192.178472598549,2194.1789496308193,right,0,4,1.1183318949770182,C11R08,2023-01-06_12h13.24.154,t1_Paradigm,2021.1.4,60.03115960983038,
J,left,Distractor,0,60,60,60,2195.6787930796854,2197.678762924159,left,1,4,1.2184900504071265,C11R08,2023-01-06_12h13.24.154,t1_Paradigm,2021.1.4,60.03115960983038,
H,right,Target,0,61,61,61,2199.1787064631935,2201.1786285082344,None,0,4,,C11R08,2023-01-06_12h13.24.154,t1_Paradigm,2021.1.4,60.03115960983038,
Z,left,Distractor,0,62,62,62,2202.678481581155,2204.678663475672,right,0,4,0.890605962369591,C11R08,2023-01-06_12h13.24.154,t1_Paradigm,2021.1.4,60.03115960983038,
R,right,Target,0,63,63,63,2206.178735976806,2208.1785912953783,right,1,4,1.038777873851359,C11R08,2023-01-06_12h13.24.154,t1_Paradigm,2021.1.4,60.03115960983038,
J,left,Pretarget,0,0,0,0,2233.7244162210263,2235.728857079521,None,0,4,,C11R08,2023-01-06_12h13.24.154,t1_Paradigm,2021.1.4,60.03115960983038,
G,left,Pretarget,0,1,1,1,2237.2283444383647,2239.2291515755933,None,0,4,,C11R08,2023-01-06_12h13.24.154,t1_Paradigm,2021.1.4,60.03115960983038,
Z,left,Distractor,0,2,2,2,2240.7283707440365,2242.72939666803,None,0,4,,C11R08,2023-01-06_12h13.24.154,t1_Paradigm,2021.1.4,60.03115960983038,
F,left,Distractor,0,3,3,3,2244.2286722976714,2246.2293838360347,None,0,4,,C11R08,2023-01-06_12h13.24.154,t1_Paradigm,2021.1.4,60.03115960983038,
J,right,Target,0,4,4,4,2247.7286107037216,2249.7289039166644,right,1,4,0.5924640463199466,C11R08,2023-01-06_12h13.24.154,t1_Paradigm,2021.1.4,60.03115960983038,
G,right,Target,0,5,5,5,2251.2286312351935,2253.228726513218,right,1,4,0.7726070596836507,C11R08,2023-01-06_12h13.24.154,t1_Paradigm,2021.1.4,60.03115960983038,
H,left,Distractor,0,6,6,6,2254.7283402679022,2256.7290078564547,left,1,4,0.7124390876851976,C11R08,2023-01-06_12h13.24.154,t1_Paradigm,2021.1.4,60.03115960983038,
P,left,Distractor,0,7,7,7,2258.2283537415788,2260.2286434255075,left,1,4,0.6685049675870687,C11R08,2023-01-06_12h13.24.154,t1_Paradigm,2021.1.4,60.03115960983038,
G,left,Lure,0,8,8,8,2261.7286710145418,2263.7285157465376,left,1,4,0.720730850705877,C11R08,2023-01-06_12h13.24.154,t1_Paradigm,2021.1.4,60.03115960983038,
S,left,Distractor,0,9,9,9,2265.228434583638,2267.228493931936,left,1,4,0.8527195968199521,C11R08,2023-01-06_12h13.24.154,t1_Paradigm,2021.1.4,60.03115960983038,
R,left,Pretarget,0,10,10,10,2268.728321661474,2270.7283521376085,left,1,4,0.7448095881845802,C11R08,2023-01-06_12h13.24.154,t1_Paradigm,2021.1.4,60.03115960983038,
T,left,Pretarget,0,11,11,11,2272.228386784205,2274.228450944647,left,1,4,0.6527173512149602,C11R08,2023-01-06_12h13.24.154,t1_Paradigm,2021.1.4,60.03115960983038,
X,left,Distractor,0,12,12,12,2275.728635405656,2277.7285513554234,left,1,4,0.8005998991429806,C11R08,2023-01-06_12h13.24.154,t1_Paradigm,2021.1.4,60.03115960983038,
F,left,Pretarget,0,13,13,13,2279.228559054667,2281.230888075428,left,1,4,0.8343854560516775,C11R08,2023-01-06_12h13.24.154,t1_Paradigm,2021.1.4,60.03115960983038,
R,right,Target,0,14,14,14,2282.728369460907,2284.728910011938,right,1,4,1.1763825754169375,C11R08,2023-01-06_12h13.24.154,t1_Paradigm,2021.1.4,60.03115960983038,
T,right,Target,0,15,15,15,2286.228450302966,2288.228460568702,right,1,4,1.1006890821736306,C11R08,2023-01-06_12h13.24.154,t1_Paradigm,2021.1.4,60.03115960983038,
C,left,Distractor,0,16,16,16,2289.728651124751,2291.72891546553,left,1,4,0.9125164009165019,C11R08,2023-01-06_12h13.24.154,t1_Paradigm,2021.1.4,60.03115960983038,
F,right,Target,0,17,17,17,2293.2284329796676,2295.2285783027764,right,1,4,0.7407142329029739,C11R08,2023-01-06_12h13.24.154,t1_Paradigm,2021.1.4,60.03115960983038,
M,left,Distractor,0,18,18,18,2296.7286107037216,2298.728892046958,left,1,4,0.6965199424885213,C11R08,2023-01-06_12h13.24.154,t1_Paradigm,2021.1.4,60.03115960983038,
N,left,Distractor,0,19,19,19,2300.2284990646876,2302.2283697817475,left,1,4,1.037097514141351,C11R08,2023-01-06_12h13.24.154,t1_Paradigm,2021.1.4,60.03115960983038,
R,left,Lure,0,20,20,20,2303.72878906969,2305.728750894079,left,1,4,0.8486685124225914,C11R08,2023-01-06_12h13.24.154,t1_Paradigm,2021.1.4,60.03115960983038,
F,right,Target,0,21,21,21,2307.2287002075464,2309.228321982315,right,1,4,0.9008292725775391,C11R08,2023-01-06_12h13.24.154,t1_Paradigm,2021.1.4,60.03115960983038,
P,left,Distractor,0,22,22,22,2310.7284769294783,2312.728964868933,left,1,4,1.2723391901236027,C11R08,2023-01-06_12h13.24.154,t1_Paradigm,2021.1.4,60.03115960983038,
L,left,Pretarget,0,23,23,23,2314.2282591050025,2316.2282244584057,left,1,4,1.277108228765428,C11R08,2023-01-06_12h13.24.154,t1_Paradigm,2021.1.4,60.03115960983038,
T,left,Distractor,0,24,24,24,2317.728731325362,2319.7290527685545,left,1,4,1.2482620566152036,C11R08,2023-01-06_12h13.24.154,t1_Paradigm,2021.1.4,60.03115960983038,
F,left,Distractor,0,25,25,25,2321.2284878366627,2323.2290957560763,right,0,4,1.2520218528807163,C11R08,2023-01-06_12h13.24.154,t1_Paradigm,2021.1.4,60.03115960983038,
V,left,Distractor,0,26,26,26,2324.728394483449,2326.7282700124197,left,1,4,1.2090430804528296,C11R08,2023-01-06_12h13.24.154,t1_Paradigm,2021.1.4,60.03115960983038,
L,right,Target,0,27,27,27,2328.2283890298568,2330.2282793156337,right,1,4,1.4369040706660599,C11R08,2023-01-06_12h13.24.154,t1_Paradigm,2021.1.4,60.03115960983038,
S,left,Pretarget,0,28,28,28,2331.7282802779227,2333.745212194277,left,1,4,0.6719481328036636,C11R08,2023-01-06_12h13.24.154,t1_Paradigm,2021.1.4,60.03115960983038,
W,left,Distractor,0,29,29,29,2335.228350533638,2337.228478212608,left,1,4,0.692838101182133,C11R08,2023-01-06_12h13.24.154,t1_Paradigm,2021.1.4,60.03115960983038,
Q,left,Distractor,0,30,30,30,2338.7285475058015,2340.7290659213904,left,1,4,1.0643541137687862,C11R08,2023-01-06_12h13.24.154,t1_Paradigm,2021.1.4,60.03115960983038,
L,right,Target,0,31,31,31,2342.2284695510752,2344.228512859205,None,0,4,,C11R08,2023-01-06_12h13.24.154,t1_Paradigm,2021.1.4,60.03115960983038,
S,right,Target,0,32,32,32,2345.728488478344,2347.7282218921464,right,1,4,0.6250690524466336,C11R08,2023-01-06_12h13.24.154,t1_Paradigm,2021.1.4,60.03115960983038,
Z,left,Pretarget,0,33,33,33,2349.2282895813696,2351.2291942422744,left,1,4,0.7400854616425931,C11R08,2023-01-06_12h13.24.154,t1_Paradigm,2021.1.4,60.03115960983038,
F,left,Distractor,0,34,34,34,2352.728260388365,2354.72841597721,left,1,4,0.9688068421091884,C11R08,2023-01-06_12h13.24.154,t1_Paradigm,2021.1.4,60.03115960983038,
V,left,Distractor,0,35,35,35,2356.228593701264,2358.228777520824,left,1,4,0.9245163111481816,C11R08,2023-01-06_12h13.24.154,t1_Paradigm,2021.1.4,60.03115960983038,
M,left,Distractor,0,36,36,36,2359.728464097483,2361.728873761138,left,1,4,0.8964512911625206,C11R08,2023-01-06_12h13.24.154,t1_Paradigm,2021.1.4,60.03115960983038,
Z,right,Target,0,37,37,37,2363.2284653806128,2365.228388709016,right,1,4,0.72487528831698,C11R08,2023-01-06_12h13.24.154,t1_Paradigm,2021.1.4,60.03115960983038,
H,left,Pretarget,0,38,38,38,2366.7283745936584,2368.7284005787224,left,1,4,0.8567183907143772,C11R08,2023-01-06_12h13.24.154,t1_Paradigm,2021.1.4,60.03115960983038,
L,left,Distractor,0,39,39,39,2370.2283482879866,2372.228520879289,left,1,4,1.196803210536018,C11R08,2023-01-06_12h13.24.154,t1_Paradigm,2021.1.4,60.03115960983038,
G,left,Distractor,0,40,40,40,2373.7284637766425,2375.7284095610958,left,1,4,0.7367529729381204,C11R08,2023-01-06_12h13.24.154,t1_Paradigm,2021.1.4,60.03115960983038,
K,left,Distractor,0,41,41,41,2377.2283174910117,2379.229451525258,left,1,4,0.5798629533965141,C11R08,2023-01-06_12h13.24.154,t1_Paradigm,2021.1.4,60.03115960983038,
H,right,Target,0,42,42,42,2380.728543335339,2382.7289866835345,right,1,4,1.2882288214750588,C11R08,2023-01-06_12h13.24.154,t1_Paradigm,2021.1.4,60.03115960983038,
B,left,Distractor,0,43,43,43,2384.228595626075,2386.228268729057,left,1,4,1.0368857849389315,C11R08,2023-01-06_12h13.24.154,t1_Paradigm,2021.1.4,60.03115960983038,
Z,left,Distractor,0,44,44,44,2387.728221250465,2389.7282106641214,left,1,4,0.9930575294420123,C11R08,2023-01-06_12h13.24.154,t1_Paradigm,2021.1.4,60.03115960983038,
T,left,Pretarget,0,45,45,45,2391.22833481431,2393.2282299122307,left,1,4,1.3008234980516136,C11R08,2023-01-06_12h13.24.154,t1_Paradigm,2021.1.4,60.03115960983038,
H,right,Target,0,46,46,46,2394.728398974752,2396.728421430802,None,0,4,,C11R08,2023-01-06_12h13.24.154,t1_Paradigm,2021.1.4,60.03115960983038,
F,left,Distractor,0,47,47,47,2398.228319094982,2400.2281137818936,right,0,4,1.1812244362663478,C11R08,2023-01-06_12h13.24.154,t1_Paradigm,2021.1.4,60.03115960983038,
R,left,Distractor,0,48,48,48,2401.7284323379863,2403.728245631326,left,1,4,1.3289180318824947,C11R08,2023-01-06_12h13.24.154,t1_Paradigm,2021.1.4,60.03115960983038,
T,right,Target,0,49,49,49,2405.2285625834484,2407.228254613932,right,1,4,1.2688620199915022,C11R08,2023-01-06_12h13.24.154,t1_Paradigm,2021.1.4,60.03115960983038,
H,right,Target,0,50,50,50,2408.7285436561797,2410.7290101018734,right,1,4,1.4000574233941734,C11R08,2023-01-06_12h13.24.154,t1_Paradigm,2021.1.4,60.03115960983038,
Y,left,Pretarget,0,51,51,51,2412.2284143732395,2414.2284162980504,left,1,4,0.9248011829331517,C11R08,2023-01-06_12h13.24.154,t1_Paradigm,2021.1.4,60.03115960983038,
H,left,Distractor,0,52,52,52,2415.728106724331,2417.728205531137,left,1,4,1.2333248856011778,C11R08,2023-01-06_12h13.24.154,t1_Paradigm,2021.1.4,60.03115960983038,
S,left,Distractor,0,53,53,53,2419.2286090997513,2421.228721059626,left,1,4,0.9646620834246278,C11R08,2023-01-06_12h13.24.154,t1_Paradigm,2021.1.4,60.03115960983038,
Q,left,Distractor,0,54,54,54,2422.7282969597727,2424.730480657192,left,1,4,0.8705025999806821,C11R08,2023-01-06_12h13.24.154,t1_Paradigm,2021.1.4,60.03115960983038,
Y,right,Target,0,55,55,55,2426.2282449898776,2428.2282895813696,right,1,4,0.8447550518903881,C11R08,2023-01-06_12h13.24.154,t1_Paradigm,2021.1.4,60.03115960983038,
R,left,Distractor,0,56,56,56,2429.728277069982,2431.7282915061805,None,0,4,,C11R08,2023-01-06_12h13.24.154,t1_Paradigm,2021.1.4,60.03115960983038,
H,left,Pretarget,0,57,57,57,2433.2281201980077,2435.2290489189327,right,0,4,0.868056807667017,C11R08,2023-01-06_12h13.24.154,t1_Paradigm,2021.1.4,60.03115960983038,
J,left,Distractor,0,58,58,58,2436.728445811663,2438.7285317864735,left,1,4,0.7128333530854434,C11R08,2023-01-06_12h13.24.154,t1_Paradigm,2021.1.4,60.03115960983038,
V,left,Distractor,0,59,59,59,2440.2286665232386,2442.228855796391,left,1,4,0.8441744006704539,C11R08,2023-01-06_12h13.24.154,t1_Paradigm,2021.1.4,60.03115960983038,
Y,left,Lure,0,60,60,60,2443.7281490701716,2445.7281484284904,left,1,4,1.0411113856825978,C11R08,2023-01-06_12h13.24.154,t1_Paradigm,2021.1.4,60.03115960983038,
H,right,Target,0,61,61,61,2447.2285074056126,2449.2281352756545,right,1,4,0.9971727742813528,C11R08,2023-01-06_12h13.24.154,t1_Paradigm,2021.1.4,60.03115960983038,
L,left,Distractor,0,62,62,62,2450.728500668891,2452.729264497757,left,1,4,0.7281872455496341,C11R08,2023-01-06_12h13.24.154,t1_Paradigm,2021.1.4,60.03115960983038,
P,left,Distractor,0,63,63,63,2454.228466022294,2456.2285635459702,left,1,4,0.9087851557414979,C11R08,2023-01-06_12h13.24.154,t1_Paradigm,2021.1.4,60.03115960983038,
