Letter,CorrAnswer,Stimulus,finaln_nback_run.thisRepN,finaln_nback_run.thisTrialN,finaln_nback_run.thisN,finaln_nback_run.thisIndex,finaln_fixcross.started,finaln_nback_trial.started,finaln_trial_resp.keys,finaln_trial_resp.corr,finaln_level,finaln_money,finaln_trial_resp.rt,Participant,date,expName,psychopyVersion,frameRate,
F,left,Distractor,0,0,0,0,2994.868748456007,2996.8609844122548,None,0,1,3.0,,C11R08,2023-01-06_12h13.24.154,t1_Paradigm,2021.1.4,60.03115960983038,
T,left,Pretarget,0,1,1,1,2998.361209294293,3000.361218597507,None,0,1,3.0,,C11R08,2023-01-06_12h13.24.154,t1_Paradigm,2021.1.4,60.03115960983038,
B,left,Distractor,0,2,2,2,3001.8611178656574,3003.861628261395,left,1,1,3.0,0.8110978156328201,C11R08,2023-01-06_12h13.24.154,t1_Paradigm,2021.1.4,60.03115960983038,
T,right,Target,0,3,3,3,3005.3611217152793,3007.361113374587,right,1,1,3.0,1.1355201320257038,C11R08,2023-01-06_12h13.24.154,t1_Paradigm,2021.1.4,60.03115960983038,
Z,left,Distractor,0,4,4,4,3008.861128452234,3010.8613260660786,left,1,1,3.0,0.931566891958937,C11R08,2023-01-06_12h13.24.154,t1_Paradigm,2021.1.4,60.03115960983038,
T,right,Target,0,5,5,5,3012.3609667681158,3014.3611149785575,right,1,1,3.0,0.9674097504466772,C11R08,2023-01-06_12h13.24.154,t1_Paradigm,2021.1.4,60.03115960983038,
L,left,Distractor,0,6,6,6,3015.8609914698172,3017.8609872993547,left,1,1,3.0,1.0037213002797216,C11R08,2023-01-06_12h13.24.154,t1_Paradigm,2021.1.4,60.03115960983038,
T,right,Target,0,7,7,7,3019.3610302868765,3021.361052422086,right,1,1,3.0,1.1195470918901265,C11R08,2023-01-06_12h13.24.154,t1_Paradigm,2021.1.4,60.03115960983038,
Z,left,Lure,0,8,8,8,3022.861387339188,3024.8613260660786,left,1,1,3.0,0.7552000361029059,C11R08,2023-01-06_12h13.24.154,t1_Paradigm,2021.1.4,60.03115960983038,
J,left,Distractor,0,9,9,9,3026.361258697696,3028.3616388477385,left,1,1,3.0,0.8390149460174143,C11R08,2023-01-06_12h13.24.154,t1_Paradigm,2021.1.4,60.03115960983038,
D,left,Pretarget,0,10,10,10,3029.8610164923593,3031.860975750489,left,1,1,3.0,1.035599049180746,C11R08,2023-01-06_12h13.24.154,t1_Paradigm,2021.1.4,60.03115960983038,
H,left,Distractor,0,11,11,11,3033.361147058662,3035.36095361528,left,1,1,3.0,0.7516134723555297,C11R08,2023-01-06_12h13.24.154,t1_Paradigm,2021.1.4,60.03115960983038,
D,right,Target,0,12,12,12,3036.861108883284,3038.8615410032216,right,1,1,3.0,1.283096956089139,C11R08,2023-01-06_12h13.24.154,t1_Paradigm,2021.1.4,60.03115960983038,
S,left,Distractor,0,13,13,13,3040.3609430287033,3042.3611242817715,left,1,1,3.0,0.727810945129022,C11R08,2023-01-06_12h13.24.154,t1_Paradigm,2021.1.4,60.03115960983038,
R,left,Pretarget,0,14,14,14,3043.861329274019,3045.8609532944392,left,1,1,3.0,0.8437791729811579,C11R08,2023-01-06_12h13.24.154,t1_Paradigm,2021.1.4,60.03115960983038,
Z,left,Distractor,0,15,15,15,3047.360908061266,3049.360931158997,left,1,1,3.0,0.6717238924466074,C11R08,2023-01-06_12h13.24.154,t1_Paradigm,2021.1.4,60.03115960983038,
R,right,Target,0,16,16,16,3050.8611765725072,3052.861340822885,right,1,1,3.0,0.6594262782018632,C11R08,2023-01-06_12h13.24.154,t1_Paradigm,2021.1.4,60.03115960983038,
T,left,Distractor,0,17,17,17,3054.361049214145,3056.361020662822,left,1,1,3.0,0.6797638258431107,C11R08,2023-01-06_12h13.24.154,t1_Paradigm,2021.1.4,60.03115960983038,
M,left,Distractor,0,18,18,18,3057.861169514712,3059.860943991225,left,1,1,3.0,0.8917470541782677,C11R08,2023-01-06_12h13.24.154,t1_Paradigm,2021.1.4,60.03115960983038,
R,left,Lure,0,19,19,19,3061.361077444628,3063.361918266164,left,1,1,3.0,0.9587849953677505,C11R08,2023-01-06_12h13.24.154,t1_Paradigm,2021.1.4,60.03115960983038,
J,left,Distractor,0,20,20,20,3064.8611858757213,3066.8610444020014,left,1,1,3.0,0.7553591534961015,C11R08,2023-01-06_12h13.24.154,t1_Paradigm,2021.1.4,60.03115960983038,
K,left,Distractor,0,21,21,21,3068.360874377191,3070.361716481857,left,1,1,3.0,0.6471376465633512,C11R08,2023-01-06_12h13.24.154,t1_Paradigm,2021.1.4,60.03115960983038,
Z,left,Distractor,0,22,22,22,3071.8610267580952,3073.8610444020014,left,1,1,3.0,0.5395230962894857,C11R08,2023-01-06_12h13.24.154,t1_Paradigm,2021.1.4,60.03115960983038,
W,left,Pretarget,0,23,23,23,3075.360982166603,3077.3610825776123,left,1,1,3.0,0.7195384304504842,C11R08,2023-01-06_12h13.24.154,t1_Paradigm,2021.1.4,60.03115960983038,
Q,left,Distractor,0,24,24,24,3078.861130377045,3080.861568592256,left,1,1,3.0,0.8348798116203398,C11R08,2023-01-06_12h13.24.154,t1_Paradigm,2021.1.4,60.03115960983038,
W,right,Target,0,25,25,25,3082.361179780448,3084.3777857620735,right,1,1,3.0,0.6630349769257009,C11R08,2023-01-06_12h13.24.154,t1_Paradigm,2021.1.4,60.03115960983038,
D,left,Pretarget,0,26,26,26,3085.861194537254,3087.8610479310155,left,1,1,3.0,0.9075850364752114,C11R08,2023-01-06_12h13.24.154,t1_Paradigm,2021.1.4,60.03115960983038,
W,right,Target,0,27,27,27,3089.360966447275,3091.3611845923588,right,1,1,3.0,0.6235548683907837,C11R08,2023-01-06_12h13.24.154,t1_Paradigm,2021.1.4,60.03115960983038,
D,right,Target,0,28,28,28,3092.861122998642,3094.8615438903216,right,1,1,3.0,0.8828977381344885,C11R08,2023-01-06_12h13.24.154,t1_Paradigm,2021.1.4,60.03115960983038,
L,left,Pretarget,0,29,29,29,3096.3608265777584,3098.3609529735986,left,1,1,3.0,0.6000449124258012,C11R08,2023-01-06_12h13.24.154,t1_Paradigm,2021.1.4,60.03115960983038,
P,left,Distractor,0,30,30,30,3099.861223409418,3101.860947199166,left,1,1,3.0,0.6515746552031487,C11R08,2023-01-06_12h13.24.154,t1_Paradigm,2021.1.4,60.03115960983038,
L,right,Target,0,31,31,31,3103.360868923599,3105.361591048306,right,1,1,3.0,0.49543884093873203,C11R08,2023-01-06_12h13.24.154,t1_Paradigm,2021.1.4,60.03115960983038,
R,left,Distractor,0,32,32,32,3106.861242978368,3108.8610703870654,left,1,1,3.0,0.7394082490354776,C11R08,2023-01-06_12h13.24.154,t1_Paradigm,2021.1.4,60.03115960983038,
V,left,Distractor,0,33,33,33,3110.3608490338083,3112.3610543468967,left,1,1,3.0,0.6477417158894241,C11R08,2023-01-06_12h13.24.154,t1_Paradigm,2021.1.4,60.03115960983038,
L,left,Lure,0,34,34,34,3113.861251319293,3115.861233675154,left,1,1,3.0,0.6512679690495133,C11R08,2023-01-06_12h13.24.154,t1_Paradigm,2021.1.4,60.03115960983038,
H,left,Distractor,0,35,35,35,3117.3611781764776,3119.361367770238,left,1,1,3.0,0.5274795568548143,C11R08,2023-01-06_12h13.24.154,t1_Paradigm,2021.1.4,60.03115960983038,
K,left,Pretarget,0,36,36,36,3120.8609751090407,3122.860943991225,left,1,1,3.0,0.8840401130728424,C11R08,2023-01-06_12h13.24.154,t1_Paradigm,2021.1.4,60.03115960983038,
F,left,Distractor,0,37,37,37,3124.3609221766237,3126.360975750489,left,1,1,3.0,0.5836785694118589,C11R08,2023-01-06_12h13.24.154,t1_Paradigm,2021.1.4,60.03115960983038,
K,right,Target,0,38,38,38,3127.8608798307832,3129.8610043018125,right,1,1,3.0,0.715852097608149,C11R08,2023-01-06_12h13.24.154,t1_Paradigm,2021.1.4,60.03115960983038,
S,left,Pretarget,0,39,39,39,3131.3611371137667,3133.361293344293,left,1,1,3.0,0.751249362481758,C11R08,2023-01-06_12h13.24.154,t1_Paradigm,2021.1.4,60.03115960983038,
W,left,Distractor,0,40,40,40,3134.8612192389555,3136.861342426855,left,1,1,3.0,0.4351996509358287,C11R08,2023-01-06_12h13.24.154,t1_Paradigm,2021.1.4,60.03115960983038,
S,right,Target,0,41,41,41,3138.3610835399013,3140.362125824904,right,1,1,3.0,0.47046602866612375,C11R08,2023-01-06_12h13.24.154,t1_Paradigm,2021.1.4,60.03115960983038,
F,left,Pretarget,0,42,42,42,3141.8610768031795,3143.8611874796916,left,1,1,3.0,0.5394432165194303,C11R08,2023-01-06_12h13.24.154,t1_Paradigm,2021.1.4,60.03115960983038,
Y,left,Distractor,0,43,43,43,3145.360975750489,3147.361241053557,left,1,1,3.0,0.6234419462271035,C11R08,2023-01-06_12h13.24.154,t1_Paradigm,2021.1.4,60.03115960983038,
F,right,Target,0,44,44,44,3148.8610694245435,3150.8609895450063,right,1,1,3.0,0.7714569852687418,C11R08,2023-01-06_12h13.24.154,t1_Paradigm,2021.1.4,60.03115960983038,
F,left,Lure,0,45,45,45,3152.361092201667,3154.360950727947,left,1,1,3.0,0.8077037332113832,C11R08,2023-01-06_12h13.24.154,t1_Paradigm,2021.1.4,60.03115960983038,
B,left,Pretarget,0,46,46,46,3155.8610626878217,3157.860943349544,left,1,1,3.0,0.6194980093277991,C11R08,2023-01-06_12h13.24.154,t1_Paradigm,2021.1.4,60.03115960983038,
W,left,Distractor,0,47,47,47,3159.3610043018125,3161.3608878508676,left,1,1,3.0,0.5917679064441472,C11R08,2023-01-06_12h13.24.154,t1_Paradigm,2021.1.4,60.03115960983038,
B,right,Target,0,48,48,48,3162.861254848074,3164.860887530027,right,1,1,3.0,0.6917435254435986,C11R08,2023-01-06_12h13.24.154,t1_Paradigm,2021.1.4,60.03115960983038,
R,left,Pretarget,0,49,49,49,3166.3611101664137,3168.3607912894804,left,1,1,3.0,0.4717463485430926,C11R08,2023-01-06_12h13.24.154,t1_Paradigm,2021.1.4,60.03115960983038,
N,left,Distractor,0,50,50,50,3169.8611855548806,3171.8609411038924,left,1,1,3.0,0.6675066326279193,C11R08,2023-01-06_12h13.24.154,t1_Paradigm,2021.1.4,60.03115960983038,
R,right,Target,0,51,51,51,3173.360883038724,3175.3612696048804,right,1,1,3.0,0.8153795565012842,C11R08,2023-01-06_12h13.24.154,t1_Paradigm,2021.1.4,60.03115960983038,
V,left,Distractor,0,52,52,52,3176.861086427234,3178.861108241603,left,1,1,3.0,0.75529018137604,C11R08,2023-01-06_12h13.24.154,t1_Paradigm,2021.1.4,60.03115960983038,
G,left,Distractor,0,53,53,53,3180.361113374587,3182.3613716198597,left,1,1,3.0,0.6313564460724592,C11R08,2023-01-06_12h13.24.154,t1_Paradigm,2021.1.4,60.03115960983038,
H,left,Distractor,0,54,54,54,3183.8607149387244,3185.8610145675484,left,1,1,3.0,0.5075086855795234,C11R08,2023-01-06_12h13.24.154,t1_Paradigm,2021.1.4,60.03115960983038,
V,left,Lure,0,55,55,55,3187.3607643421274,3189.3609141565394,left,1,1,3.0,0.8957416776102036,C11R08,2023-01-06_12h13.24.154,t1_Paradigm,2021.1.4,60.03115960983038,
L,left,Distractor,0,56,56,56,3190.861059479881,3192.8614229480736,left,1,1,3.0,0.7710444342810661,C11R08,2023-01-06_12h13.24.154,t1_Paradigm,2021.1.4,60.03115960983038,
K,left,Distractor,0,57,57,57,3194.3609696552157,3196.3609176853206,left,1,1,3.0,0.5196850369684398,C11R08,2023-01-06_12h13.24.154,t1_Paradigm,2021.1.4,60.03115960983038,
D,left,Pretarget,0,58,58,58,3197.8608923421707,3199.861103429692,left,1,1,3.0,0.6833776573184878,C11R08,2023-01-06_12h13.24.154,t1_Paradigm,2021.1.4,60.03115960983038,
T,left,Pretarget,0,59,59,59,3201.3614008128643,3203.3609632393345,left,1,1,3.0,0.8637214927002788,C11R08,2023-01-06_12h13.24.154,t1_Paradigm,2021.1.4,60.03115960983038,
D,right,Target,0,60,60,60,3204.86076851259,3206.8610100762453,right,1,1,3.0,0.4195294480305165,C11R08,2023-01-06_12h13.24.154,t1_Paradigm,2021.1.4,60.03115960983038,
T,right,Target,0,61,61,61,3208.360932121519,3210.3608872091863,right,1,1,3.0,0.5036282679066062,C11R08,2023-01-06_12h13.24.154,t1_Paradigm,2021.1.4,60.03115960983038,
T,left,Lure,0,62,62,62,3211.861030928325,3213.8609231391456,right,0,1,3.0,0.7479149491991848,C11R08,2023-01-06_12h13.24.154,t1_Paradigm,2021.1.4,60.03115960983038,
F,left,Distractor,0,63,63,63,3215.361028682906,3217.360675479984,left,1,1,3.0,0.687824290478602,C11R08,2023-01-06_12h13.24.154,t1_Paradigm,2021.1.4,60.03115960983038,
