Letter,CorrAnswer,Stimulus,nback_run.thisRepN,nback_run.thisTrialN,nback_run.thisN,nback_run.thisIndex,fixcross.started,nback_trial.started,trial_resp.keys,trial_resp.corr,currentlevel,trial_resp.rt,Participant,date,expName,psychopyVersion,frameRate,
H,left,Distractor,0,0,0,0,258.09257799015904,260.0407036726683,None,0,1,,C13H11,2022-11-15_12h12.27.442,t1_Paradigm,2021.1.4,59.97071866349109,
Q,left,Pretarget,0,1,1,1,261.53981665526226,263.54193106094317,left,1,1,0.6579936789203202,C13H11,2022-11-15_12h12.27.442,t1_Paradigm,2021.1.4,59.97071866349109,
Q,right,Target,0,2,2,2,265.0398705499829,267.03994433443586,right,1,1,0.6801270888972795,C13H11,2022-11-15_12h12.27.442,t1_Paradigm,2021.1.4,59.97071866349109,
T,left,Distractor,0,3,3,3,268.53994080561097,270.54152043443173,left,1,1,1.06637424499786,C13H11,2022-11-15_12h12.27.442,t1_Paradigm,2021.1.4,59.97071866349109,
Q,left,Lure,0,4,4,4,272.0397165650502,274.0401156426815,left,1,1,0.671809335850412,C13H11,2022-11-15_12h12.27.442,t1_Paradigm,2021.1.4,59.97071866349109,
L,left,Distractor,0,5,5,5,275.5396787104255,277.5414723141439,left,1,1,0.6586920647678198,C13H11,2022-11-15_12h12.27.442,t1_Paradigm,2021.1.4,59.97071866349109,
V,left,Pretarget,0,6,6,6,279.03982595851994,281.0422675821901,left,1,1,0.5335764156625373,C13H11,2022-11-15_12h12.27.442,t1_Paradigm,2021.1.4,59.97071866349109,
V,right,Target,0,7,7,7,282.53987792842963,284.5398991013644,left,0,1,0.4278015955496812,C13H11,2022-11-15_12h12.27.442,t1_Paradigm,2021.1.4,59.97071866349109,
K,left,Distractor,0,8,8,8,286.0397075825895,288.0416333567264,left,1,1,0.5902723865146982,C13H11,2022-11-15_12h12.27.442,t1_Paradigm,2021.1.4,59.97071866349109,
G,left,Pretarget,0,9,9,9,289.53971175302286,291.53975153245847,left,1,1,0.6921789766929578,C13H11,2022-11-15_12h12.27.442,t1_Paradigm,2021.1.4,59.97071866349109,
G,right,Target,0,10,10,10,293.0399035925948,295.0394798132038,right,1,1,0.4723949918989092,C13H11,2022-11-15_12h12.27.442,t1_Paradigm,2021.1.4,59.97071866349109,
G,right,Target,0,11,11,11,296.53979548232746,298.53991321664944,right,1,1,0.4602202369569568,C13H11,2022-11-15_12h12.27.442,t1_Paradigm,2021.1.4,59.97071866349109,
P,left,Pretarget,0,12,12,12,300.0398355825746,302.04147969259066,left,1,1,0.47854733176063746,C13H11,2022-11-15_12h12.27.442,t1_Paradigm,2021.1.4,59.97071866349109,
P,right,Target,0,13,13,13,303.53956931695575,305.5396973169409,right,1,1,0.7881584299757378,C13H11,2022-11-15_12h12.27.442,t1_Paradigm,2021.1.4,59.97071866349109,
G,left,Lure,0,14,14,14,307.0399292567454,309.03999245473824,left,1,1,0.6322573421930429,C13H11,2022-11-15_12h12.27.442,t1_Paradigm,2021.1.4,59.97071866349109,
Y,left,Distractor,0,15,15,15,310.5395712417667,312.5416295071045,left,1,1,0.5063050415919861,C13H11,2022-11-15_12h12.27.442,t1_Paradigm,2021.1.4,59.97071866349109,
B,left,Distractor,0,16,16,16,314.0396023595531,316.04138120639254,left,1,1,0.6225123412586981,C13H11,2022-11-15_12h12.27.442,t1_Paradigm,2021.1.4,59.97071866349109,
T,left,Pretarget,0,17,17,17,317.5394910412724,319.5408124245296,left,1,1,0.4829914012225345,C13H11,2022-11-15_12h12.27.442,t1_Paradigm,2021.1.4,59.97071866349109,
T,right,Target,0,18,18,18,321.03971688584716,323.03986926678044,right,1,1,0.6481517957872711,C13H11,2022-11-15_12h12.27.442,t1_Paradigm,2021.1.4,59.97071866349109,
S,left,Distractor,0,19,19,19,324.5398618883337,326.5425704192312,left,1,1,0.7454776548693189,C13H11,2022-11-15_12h12.27.442,t1_Paradigm,2021.1.4,59.97071866349109,
T,left,Lure,0,20,20,20,328.03987504121324,330.0416670409322,left,1,1,0.8468263704417041,C13H11,2022-11-15_12h12.27.442,t1_Paradigm,2021.1.4,59.97071866349109,
J,left,Distractor,0,21,21,21,331.5397611565277,333.5414087953541,left,1,1,0.658512736481498,C13H11,2022-11-15_12h12.27.442,t1_Paradigm,2021.1.4,59.97071866349109,
P,left,Distractor,0,22,22,22,335.039940164017,337.0399552417075,left,1,1,0.6800703069457086,C13H11,2022-11-15_12h12.27.442,t1_Paradigm,2021.1.4,59.97071866349109,
F,left,Distractor,0,23,23,23,338.53969410891295,340.5413449557673,left,1,1,0.5225449988938635,C13H11,2022-11-15_12h12.27.442,t1_Paradigm,2021.1.4,59.97071866349109,
L,left,Distractor,0,24,24,24,342.0394974573137,344.04027604365547,left,1,1,0.5916120554757072,C13H11,2022-11-15_12h12.27.442,t1_Paradigm,2021.1.4,59.97071866349109,
W,left,Pretarget,0,25,25,25,345.5398057479906,347.5414171362063,left,1,1,0.5147151856072014,C13H11,2022-11-15_12h12.27.442,t1_Paradigm,2021.1.4,59.97071866349109,
W,right,Target,0,26,26,26,349.03952600869525,351.03985643469787,right,1,1,0.4719891774147982,C13H11,2022-11-15_12h12.27.442,t1_Paradigm,2021.1.4,59.97071866349109,
V,left,Distractor,0,27,27,27,352.539591773093,354.5414229106391,left,1,1,0.6984885095153004,C13H11,2022-11-15_12h12.27.442,t1_Paradigm,2021.1.4,59.97071866349109,
W,left,Lure,0,28,28,28,356.03981376804586,358.04144087554596,left,1,1,0.830629721400328,C13H11,2022-11-15_12h12.27.442,t1_Paradigm,2021.1.4,59.97071866349109,
R,left,Pretarget,0,29,29,29,359.539838469791,361.5414286850719,left,1,1,0.6264424859837163,C13H11,2022-11-15_12h12.27.442,t1_Paradigm,2021.1.4,59.97071866349109,
R,right,Target,0,30,30,30,363.0398237128975,365.0400325549708,right,1,1,0.6479699010815239,C13H11,2022-11-15_12h12.27.442,t1_Paradigm,2021.1.4,59.97071866349109,
G,left,Distractor,0,31,31,31,366.5398474522517,368.5411171863816,left,1,1,0.8429302307049511,C13H11,2022-11-15_12h12.27.442,t1_Paradigm,2021.1.4,59.97071866349109,
R,left,Lure,0,32,32,32,370.0396729359927,372.04080344206886,left,1,1,1.3111515891941963,C13H11,2022-11-15_12h12.27.442,t1_Paradigm,2021.1.4,59.97071866349109,
S,left,Distractor,0,33,33,33,373.5395526352513,375.53990744221664,left,1,1,0.6760795306472573,C13H11,2022-11-15_12h12.27.442,t1_Paradigm,2021.1.4,59.97071866349109,
R,left,Lure,0,34,34,34,377.03985418908997,379.04180306095805,left,1,1,0.9341438501578523,C13H11,2022-11-15_12h12.27.442,t1_Paradigm,2021.1.4,59.97071866349109,
P,left,Pretarget,0,35,35,35,380.53970565777854,382.5414777677797,left,1,1,0.8586748697853182,C13H11,2022-11-15_12h12.27.442,t1_Paradigm,2021.1.4,59.97071866349109,
P,right,Target,0,36,36,36,384.03985130187357,386.0397775174206,right,1,1,0.448208449408412,C13H11,2022-11-15_12h12.27.442,t1_Paradigm,2021.1.4,59.97071866349109,
Y,left,Pretarget,0,37,37,37,387.53980606880214,389.54069276539667,left,1,1,0.6271665359963663,C13H11,2022-11-15_12h12.27.442,t1_Paradigm,2021.1.4,59.97071866349109,
Y,right,Target,0,38,38,38,391.03973741717346,393.0398070312076,right,1,1,0.7603003091207938,C13H11,2022-11-15_12h12.27.442,t1_Paradigm,2021.1.4,59.97071866349109,
J,left,Distractor,0,39,39,39,394.5393784397893,396.54006078554085,left,1,1,0.4918378358852351,C13H11,2022-11-15_12h12.27.442,t1_Paradigm,2021.1.4,59.97071866349109,
Y,left,Lure,0,40,40,40,398.039488154056,400.03977495100116,left,1,1,0.832161550730234,C13H11,2022-11-15_12h12.27.442,t1_Paradigm,2021.1.4,59.97071866349109,
T,left,Distractor,0,41,41,41,401.5397197730781,403.5399639033567,left,1,1,0.7399649940925883,C13H11,2022-11-15_12h12.27.442,t1_Paradigm,2021.1.4,59.97071866349109,
V,left,Distractor,0,42,42,42,405.0398063895991,407.0417876624706,left,1,1,0.6621987509279279,C13H11,2022-11-15_12h12.27.442,t1_Paradigm,2021.1.4,59.97071866349109,
N,left,Pretarget,0,43,43,43,408.53960460517555,410.541454670034,left,1,1,0.5544054448982934,C13H11,2022-11-15_12h12.27.442,t1_Paradigm,2021.1.4,59.97071866349109,
N,right,Target,0,44,44,44,412.0394162944285,414.03951478062663,left,0,1,0.5443681933975313,C13H11,2022-11-15_12h12.27.442,t1_Paradigm,2021.1.4,59.97071866349109,
N,right,Target,0,45,45,45,415.5395792618219,417.5396694071678,left,0,1,0.7241956532670883,C13H11,2022-11-15_12h12.27.442,t1_Paradigm,2021.1.4,59.97071866349109,
X,left,Distractor,0,46,46,46,419.03941982323886,421.04144504597934,left,1,1,0.5344698491098825,C13H11,2022-11-15_12h12.27.442,t1_Paradigm,2021.1.4,59.97071866349109,
Z,left,Distractor,0,47,47,47,422.53983365776367,424.5413998129079,left,1,1,0.5704718483466422,C13H11,2022-11-15_12h12.27.442,t1_Paradigm,2021.1.4,59.97071866349109,
H,left,Pretarget,0,48,48,48,426.0398461690347,428.05233049787057,left,1,1,0.7236945606127847,C13H11,2022-11-15_12h12.27.442,t1_Paradigm,2021.1.4,59.97071866349109,
H,right,Target,0,49,49,49,429.5395051565574,431.53947500117647,right,1,1,0.40434776470647193,C13H11,2022-11-15_12h12.27.442,t1_Paradigm,2021.1.4,59.97071866349109,
K,left,Distractor,0,50,50,50,433.03980253997725,435.0400431414455,left,1,1,0.6639371767087141,C13H11,2022-11-15_12h12.27.442,t1_Paradigm,2021.1.4,59.97071866349109,
V,left,Pretarget,0,51,51,51,436.5395099685993,438.5410238330078,left,1,1,0.5549318809062243,C13H11,2022-11-15_12h12.27.442,t1_Paradigm,2021.1.4,59.97071866349109,
V,right,Target,0,52,52,52,440.03957573299704,442.03975024925603,right,1,1,0.8321949141391087,C13H11,2022-11-15_12h12.27.442,t1_Paradigm,2021.1.4,59.97071866349109,
R,left,Distractor,0,53,53,53,443.5395561640762,445.54108350217575,left,1,1,0.4827299476455664,C13H11,2022-11-15_12h12.27.442,t1_Paradigm,2021.1.4,59.97071866349109,
V,left,Lure,0,54,54,54,447.03977270539326,449.04069789822097,left,1,1,0.5351977487443946,C13H11,2022-11-15_12h12.27.442,t1_Paradigm,2021.1.4,59.97071866349109,
Y,left,Distractor,0,55,55,55,450.5395584096841,452.5411460585601,left,1,1,0.6027320135908667,C13H11,2022-11-15_12h12.27.442,t1_Paradigm,2021.1.4,59.97071866349109,
Q,left,Distractor,0,56,56,56,454.03951381822117,456.04222266991565,left,1,1,0.685550566733582,C13H11,2022-11-15_12h12.27.442,t1_Paradigm,2021.1.4,59.97071866349109,
Z,left,Pretarget,0,57,57,57,457.5398375073855,459.5418649757339,left,1,1,0.5145194964134134,C13H11,2022-11-15_12h12.27.442,t1_Paradigm,2021.1.4,59.97071866349109,
Z,right,Target,0,58,58,58,461.03988626928185,463.03989332693163,right,1,1,0.6322063346888172,C13H11,2022-11-15_12h12.27.442,t1_Paradigm,2021.1.4,59.97071866349109,
B,left,Distractor,0,59,59,59,464.53964181819174,466.53997481062834,left,1,1,0.5399776978447335,C13H11,2022-11-15_12h12.27.442,t1_Paradigm,2021.1.4,59.97071866349109,
S,left,Pretarget,0,60,60,60,468.03943458013237,470.0411832715763,left,1,1,0.5746923188562505,C13H11,2022-11-15_12h12.27.442,t1_Paradigm,2021.1.4,59.97071866349109,
S,right,Target,0,61,61,61,471.53968063523644,473.53993021915085,right,1,1,0.6601440144149819,C13H11,2022-11-15_12h12.27.442,t1_Paradigm,2021.1.4,59.97071866349109,
T,left,Distractor,0,62,62,62,475.03978136704245,477.04171580282855,left,1,1,0.5340489569498459,C13H11,2022-11-15_12h12.27.442,t1_Paradigm,2021.1.4,59.97071866349109,
D,left,Distractor,0,63,63,63,478.5393527756387,480.54166254970187,left,1,1,0.6341500737180468,C13H11,2022-11-15_12h12.27.442,t1_Paradigm,2021.1.4,59.97071866349109,
R,left,Distractor,0,0,0,0,548.2356328845053,550.2417454449314,left,1,1,0.7101230339612812,C13H11,2022-11-15_12h12.27.442,t1_Paradigm,2021.1.4,59.97071866349109,
V,left,Distractor,0,1,1,1,551.7398087635374,553.7420203721995,left,1,1,0.4577481370943133,C13H11,2022-11-15_12h12.27.442,t1_Paradigm,2021.1.4,59.97071866349109,
N,left,Pretarget,0,2,2,2,555.2394331044488,557.2416889837768,left,1,1,0.6221694039704744,C13H11,2022-11-15_12h12.27.442,t1_Paradigm,2021.1.4,59.97071866349109,
N,right,Target,0,3,3,3,558.7394979064411,560.7394863575755,right,1,1,0.6126778365724022,C13H11,2022-11-15_12h12.27.442,t1_Paradigm,2021.1.4,59.97071866349109,
S,left,Distractor,0,4,4,4,562.2398437309457,564.2403194802464,left,1,1,0.5516016358305933,C13H11,2022-11-15_12h12.27.442,t1_Paradigm,2021.1.4,59.97071866349109,
N,left,Lure,0,5,5,5,565.7394350292598,567.7399155905878,right,0,1,0.9559538917819737,C13H11,2022-11-15_12h12.27.442,t1_Paradigm,2021.1.4,59.97071866349109,
Z,left,Distractor,0,6,6,6,569.239704182095,571.2419206027989,left,1,1,0.6059409955487354,C13H11,2022-11-15_12h12.27.442,t1_Paradigm,2021.1.4,59.97071866349109,
L,left,Pretarget,0,7,7,7,572.7398472597706,574.7411638309859,left,1,1,0.5627934535878012,C13H11,2022-11-15_12h12.27.442,t1_Paradigm,2021.1.4,59.97071866349109,
L,right,Target,0,8,8,8,576.2397259966237,578.2395627084334,right,1,1,0.7281344596558483,C13H11,2022-11-15_12h12.27.442,t1_Paradigm,2021.1.4,59.97071866349109,
H,left,Distractor,0,9,9,9,579.7397965730634,581.7405414751993,left,1,1,0.5713373720209347,C13H11,2022-11-15_12h12.27.442,t1_Paradigm,2021.1.4,59.97071866349109,
L,left,Lure,0,10,10,10,583.2396486833604,585.2398029891046,left,1,1,0.9921307280892506,C13H11,2022-11-15_12h12.27.442,t1_Paradigm,2021.1.4,59.97071866349109,
X,left,Pretarget,0,11,11,11,586.7397266382322,588.7411426580511,left,1,1,0.5468540877191117,C13H11,2022-11-15_12h12.27.442,t1_Paradigm,2021.1.4,59.97071866349109,
X,right,Target,0,12,12,12,590.2399178361957,592.2395399314992,right,1,1,1.160519673503586,C13H11,2022-11-15_12h12.27.442,t1_Paradigm,2021.1.4,59.97071866349109,
X,right,Target,0,13,13,13,593.7398745279352,595.7396682522813,right,1,1,0.7482952584105078,C13H11,2022-11-15_12h12.27.442,t1_Paradigm,2021.1.4,59.97071866349109,
R,left,Distractor,0,14,14,14,597.2397965730634,599.2405924827035,left,1,1,0.4793188604671741,C13H11,2022-11-15_12h12.27.442,t1_Paradigm,2021.1.4,59.97071866349109,
T,left,Distractor,0,15,15,15,600.7398270492413,602.7414005828323,left,1,1,0.5148454312002286,C13H11,2022-11-15_12h12.27.442,t1_Paradigm,2021.1.4,59.97071866349109,
V,left,Pretarget,0,16,16,16,604.2397397911118,606.2399698061199,left,1,1,0.5837508036202053,C13H11,2022-11-15_12h12.27.442,t1_Paradigm,2021.1.4,59.97071866349109,
V,right,Target,0,17,17,17,607.7399130241683,609.7563961493433,left,0,1,0.8755067066813353,C13H11,2022-11-15_12h12.27.442,t1_Paradigm,2021.1.4,59.97071866349109,
N,left,Distractor,0,18,18,18,611.2398411645263,613.2407265779184,left,1,1,0.70312570175156,C13H11,2022-11-15_12h12.27.442,t1_Paradigm,2021.1.4,59.97071866349109,
B,left,Distractor,0,19,19,19,614.7393901169853,616.7393750392948,left,1,1,0.46862011530902237,C13H11,2022-11-15_12h12.27.442,t1_Paradigm,2021.1.4,59.97071866349109,
V,left,Lure,0,20,20,20,618.2398315404716,620.2419376053003,left,1,1,0.6302106257353444,C13H11,2022-11-15_12h12.27.442,t1_Paradigm,2021.1.4,59.97071866349109,
P,left,Distractor,0,21,21,21,621.7397131645557,623.7398690742993,left,1,1,0.5400354422017699,C13H11,2022-11-15_12h12.27.442,t1_Paradigm,2021.1.4,59.97071866349109,
K,left,Pretarget,0,22,22,22,625.2397885530081,627.2418939762283,left,1,1,0.57395126632764,C13H11,2022-11-15_12h12.27.442,t1_Paradigm,2021.1.4,59.97071866349109,
K,right,Target,0,23,23,23,628.7396117911267,630.7397593600326,right,1,1,0.8202626854763366,C13H11,2022-11-15_12h12.27.442,t1_Paradigm,2021.1.4,59.97071866349109,
J,left,Pretarget,0,24,24,24,632.2399066081271,634.2401529840281,left,1,1,0.5835753249266418,C13H11,2022-11-15_12h12.27.442,t1_Paradigm,2021.1.4,59.97071866349109,
J,right,Target,0,25,25,25,635.739385304958,637.7395213249838,right,1,1,0.7168752734869486,C13H11,2022-11-15_12h12.27.442,t1_Paradigm,2021.1.4,59.97071866349109,
H,left,Distractor,0,26,26,26,639.2397699464927,641.2403095353802,left,1,1,0.3834154372452758,C13H11,2022-11-15_12h12.27.442,t1_Paradigm,2021.1.4,59.97071866349109,
J,left,Lure,0,27,27,27,642.7397551896138,644.7406973849429,left,1,1,1.0112989656045102,C13H11,2022-11-15_12h12.27.442,t1_Paradigm,2021.1.4,59.97071866349109,
V,left,Distractor,0,28,28,28,646.2399001920858,648.239952482807,left,1,1,0.5999266005092068,C13H11,2022-11-15_12h12.27.442,t1_Paradigm,2021.1.4,59.97071866349109,
Z,left,Pretarget,0,29,29,29,649.7397150893667,651.7408741468244,left,1,1,0.6028859985381132,C13H11,2022-11-15_12h12.27.442,t1_Paradigm,2021.1.4,59.97071866349109,
Z,right,Target,0,30,30,30,653.2394738462899,655.2394391996786,right,1,1,0.7202555636613397,C13H11,2022-11-15_12h12.27.442,t1_Paradigm,2021.1.4,59.97071866349109,
T,left,Distractor,0,31,31,31,656.7398251244304,658.740359259682,left,1,1,0.49943250133947004,C13H11,2022-11-15_12h12.27.442,t1_Paradigm,2021.1.4,59.97071866349109,
Z,left,Lure,0,32,32,32,660.2398523925949,662.2401077509567,left,1,1,1.3516554022353375,C13H11,2022-11-15_12h12.27.442,t1_Paradigm,2021.1.4,59.97071866349109,
F,left,Distractor,0,33,33,33,663.7397003324731,665.7415571341844,left,1,1,0.6342382942530094,C13H11,2022-11-15_12h12.27.442,t1_Paradigm,2021.1.4,59.97071866349109,
Y,left,Pretarget,0,34,34,34,667.23984886377,669.2393458463193,left,1,1,0.6563107518741162,C13H11,2022-11-15_12h12.27.442,t1_Paradigm,2021.1.4,59.97071866349109,
Y,right,Target,0,35,35,35,670.7397677008848,672.7397263174353,right,1,1,1.0442225493025035,C13H11,2022-11-15_12h12.27.442,t1_Paradigm,2021.1.4,59.97071866349109,
Y,right,Target,0,36,36,36,674.2397388287063,676.239528061822,right,1,1,0.6643850162363378,C13H11,2022-11-15_12h12.27.442,t1_Paradigm,2021.1.4,59.97071866349109,
W,left,Distractor,0,37,37,37,677.7394337460428,679.7401584376639,left,1,1,0.5396790312370285,C13H11,2022-11-15_12h12.27.442,t1_Paradigm,2021.1.4,59.97071866349109,
Q,left,Distractor,0,38,38,38,681.2397994602798,683.2417480113363,left,1,1,0.6539409878314473,C13H11,2022-11-15_12h12.27.442,t1_Paradigm,2021.1.4,59.97071866349109,
P,left,Pretarget,0,39,39,39,684.7398649038805,686.7403704877506,left,1,1,0.611887701365049,C13H11,2022-11-15_12h12.27.442,t1_Paradigm,2021.1.4,59.97071866349109,
P,right,Target,0,40,40,40,688.2396749891195,690.2399094953435,right,1,1,0.6961116878374014,C13H11,2022-11-15_12h12.27.442,t1_Paradigm,2021.1.4,59.97071866349109,
J,left,Distractor,0,41,41,41,691.739748452761,693.7406665879535,left,1,1,0.5551583671040135,C13H11,2022-11-15_12h12.27.442,t1_Paradigm,2021.1.4,59.97071866349109,
P,left,Lure,0,42,42,42,695.2393227485736,697.2416466379218,left,1,1,0.6061655569064897,C13H11,2022-11-15_12h12.27.442,t1_Paradigm,2021.1.4,59.97071866349109,
L,left,Distractor,0,43,43,43,698.7396111495327,700.7410929337493,left,1,1,0.5307979499484645,C13H11,2022-11-15_12h12.27.442,t1_Paradigm,2021.1.4,59.97071866349109,
Z,left,Distractor,0,44,44,44,702.2394642222353,704.2398379565129,left,1,1,0.5838457609934267,C13H11,2022-11-15_12h12.27.442,t1_Paradigm,2021.1.4,59.97071866349109,
F,left,Pretarget,0,45,45,45,705.7398912096396,707.7399759013497,left,1,1,0.5878083067073021,C13H11,2022-11-15_12h12.27.442,t1_Paradigm,2021.1.4,59.97071866349109,
F,right,Target,0,46,46,46,709.2393070292746,711.2394144979335,right,1,1,0.7843440947472118,C13H11,2022-11-15_12h12.27.442,t1_Paradigm,2021.1.4,59.97071866349109,
G,left,Pretarget,0,47,47,47,712.7395623876364,714.7398620166641,left,1,1,0.5481077817530604,C13H11,2022-11-15_12h12.27.442,t1_Paradigm,2021.1.4,59.97071866349109,
G,right,Target,0,48,48,48,716.2396823675663,718.2398687535024,right,1,1,0.7438483017322142,C13H11,2022-11-15_12h12.27.442,t1_Paradigm,2021.1.4,59.97071866349109,
V,left,Distractor,0,49,49,49,719.7395187585644,721.7398482221761,left,1,1,0.4920755501516396,C13H11,2022-11-15_12h12.27.442,t1_Paradigm,2021.1.4,59.97071866349109,
G,left,Lure,0,50,50,50,723.2396666482673,725.2415295452083,left,1,1,0.9743217284412822,C13H11,2022-11-15_12h12.27.442,t1_Paradigm,2021.1.4,59.97071866349109,
Q,left,Pretarget,0,51,51,51,726.7398190292006,728.7406046731776,left,1,1,0.5953535686567193,C13H11,2022-11-15_12h12.27.442,t1_Paradigm,2021.1.4,59.97071866349109,
Q,right,Target,0,52,52,52,730.2395322322554,732.2395418563101,right,1,1,0.6322656830452615,C13H11,2022-11-15_12h12.27.442,t1_Paradigm,2021.1.4,59.97071866349109,
Y,left,Distractor,0,53,53,53,733.7393387886696,735.7409171342879,left,1,1,0.5389245050319005,C13H11,2022-11-15_12h12.27.442,t1_Paradigm,2021.1.4,59.97071866349109,
V,left,Distractor,0,54,54,54,737.2393894753768,739.2397968938603,left,1,1,0.5920537997590145,C13H11,2022-11-15_12h12.27.442,t1_Paradigm,2021.1.4,59.97071866349109,
B,left,Distractor,0,55,55,55,740.7397869489942,742.7415269787889,left,1,1,0.5464611053321278,C13H11,2022-11-15_12h12.27.442,t1_Paradigm,2021.1.4,59.97071866349109,
J,left,Pretarget,0,56,56,56,744.2397840617778,746.2420479611756,left,1,1,0.5816238866536878,C13H11,2022-11-15_12h12.27.442,t1_Paradigm,2021.1.4,59.97071866349109,
J,right,Target,0,57,57,57,747.7397080317169,749.7398074803205,left,0,1,0.6199443216173677,C13H11,2022-11-15_12h12.27.442,t1_Paradigm,2021.1.4,59.97071866349109,
H,left,Distractor,0,58,58,58,751.2396509289683,753.2418740865105,left,1,1,0.8142213430837728,C13H11,2022-11-15_12h12.27.442,t1_Paradigm,2021.1.4,59.97071866349109,
J,left,Lure,0,59,59,59,754.7396486833604,756.7410894049244,left,1,1,0.8826961992745055,C13H11,2022-11-15_12h12.27.442,t1_Paradigm,2021.1.4,59.97071866349109,
D,left,Pretarget,0,60,60,60,758.2398001018737,760.24180254768,left,1,1,0.5658709067211021,C13H11,2022-11-15_12h12.27.442,t1_Paradigm,2021.1.4,59.97071866349109,
D,right,Target,0,61,61,61,761.7397083525284,763.7397128437442,right,1,1,0.6840357399050845,C13H11,2022-11-15_12h12.27.442,t1_Paradigm,2021.1.4,59.97071866349109,
R,left,Distractor,0,62,62,62,765.2393788889167,767.2410586079495,left,1,1,0.654568476456916,C13H11,2022-11-15_12h12.27.442,t1_Paradigm,2021.1.4,59.97071866349109,
F,left,Distractor,0,63,63,63,768.7398100467399,770.7411657557968,left,1,1,0.5627709974505706,C13H11,2022-11-15_12h12.27.442,t1_Paradigm,2021.1.4,59.97071866349109,
F,left,Distractor,0,0,0,0,882.5385119537095,884.5393617580849,left,1,2,0.5883369883376872,C13H11,2022-11-15_12h12.27.442,t1_Paradigm,2021.1.4,59.97071866349109,
N,left,Pretarget,0,1,1,1,886.0393178082159,888.0413090259535,left,1,2,0.4785832615889376,C13H11,2022-11-15_12h12.27.442,t1_Paradigm,2021.1.4,59.97071866349109,
V,left,Distractor,0,2,2,2,889.5396123044193,891.5391795425821,left,1,2,0.5005424761038739,C13H11,2022-11-15_12h12.27.442,t1_Paradigm,2021.1.4,59.97071866349109,
N,right,Target,0,3,3,3,893.0394535074447,895.0399077630136,right,1,2,0.5677828863699688,C13H11,2022-11-15_12h12.27.442,t1_Paradigm,2021.1.4,59.97071866349109,
N,left,Lure,0,4,4,4,896.5394422793761,898.5393341691233,left,1,2,1.212558241590159,C13H11,2022-11-15_12h12.27.442,t1_Paradigm,2021.1.4,59.97071866349109,
X,left,Distractor,0,5,5,5,900.0397014873597,902.041500223917,left,1,2,1.0383582895883592,C13H11,2022-11-15_12h12.27.442,t1_Paradigm,2021.1.4,59.97071866349109,
G,left,Pretarget,0,6,6,6,903.5392433821689,905.5409763543284,left,1,2,0.578888087591622,C13H11,2022-11-15_12h12.27.442,t1_Paradigm,2021.1.4,59.97071866349109,
H,left,Pretarget,0,7,7,7,907.0396219284739,909.0406847453414,left,1,2,0.6154043323767837,C13H11,2022-11-15_12h12.27.442,t1_Paradigm,2021.1.4,59.97071866349109,
G,right,Target,0,8,8,8,910.5397640437441,912.5392472317908,right,1,2,0.8285371302627027,C13H11,2022-11-15_12h12.27.442,t1_Paradigm,2021.1.4,59.97071866349109,
H,right,Target,0,9,9,9,914.0397598733107,916.0404544095509,right,1,2,1.007384860975435,C13H11,2022-11-15_12h12.27.442,t1_Paradigm,2021.1.4,59.97071866349109,
T,left,Pretarget,0,10,10,10,917.5394830212317,919.541207973336,left,1,2,0.5947876740247011,C13H11,2022-11-15_12h12.27.442,t1_Paradigm,2021.1.4,59.97071866349109,
K,left,Distractor,0,11,11,11,921.0396354021505,923.0409336876619,left,1,2,0.6151438411907293,C13H11,2022-11-15_12h12.27.442,t1_Paradigm,2021.1.4,59.97071866349109,
T,right,Target,0,12,12,12,924.5395025901526,926.5403074822534,right,1,2,0.4754284951632144,C13H11,2022-11-15_12h12.27.442,t1_Paradigm,2021.1.4,59.97071866349109,
T,left,Lure,0,13,13,13,928.0393845350336,930.0397852166643,left,1,2,0.9919488333835034,C13H11,2022-11-15_12h12.27.442,t1_Paradigm,2021.1.4,59.97071866349109,
J,left,Distractor,0,14,14,14,931.5393665701267,933.541222409418,left,1,2,0.6905650220578536,C13H11,2022-11-15_12h12.27.442,t1_Paradigm,2021.1.4,59.97071866349109,
Q,left,Pretarget,0,15,15,15,935.0394008959265,937.0417526950478,left,1,2,0.5499966636562021,C13H11,2022-11-15_12h12.27.442,t1_Paradigm,2021.1.4,59.97071866349109,
M,left,Distractor,0,16,16,16,938.5393964046962,940.5412653968815,left,1,2,0.6184882015368203,C13H11,2022-11-15_12h12.27.442,t1_Paradigm,2021.1.4,59.97071866349109,
Q,right,Target,0,17,17,17,942.0397470412427,944.0419551210798,right,1,2,0.5579952187690651,C13H11,2022-11-15_12h12.27.442,t1_Paradigm,2021.1.4,59.97071866349109,
R,left,Distractor,0,18,18,18,945.5393267906766,947.539663953532,left,1,2,0.6279909970035078,C13H11,2022-11-15_12h12.27.442,t1_Paradigm,2021.1.4,59.97071866349109,
W,left,Distractor,0,19,19,19,949.0394910412724,951.0408813969407,left,1,2,0.6309523198578972,C13H11,2022-11-15_12h12.27.442,t1_Paradigm,2021.1.4,59.97071866349109,
C,left,Pretarget,0,20,20,20,952.5394733971771,954.5412147101742,left,1,2,0.6985295721678995,C13H11,2022-11-15_12h12.27.442,t1_Paradigm,2021.1.4,59.97071866349109,
T,left,Distractor,0,21,21,21,956.039301126526,958.0404229709529,left,1,2,0.5272601460019359,C13H11,2022-11-15_12h12.27.442,t1_Paradigm,2021.1.4,59.97071866349109,
C,right,Target,0,22,22,22,959.5394365049433,961.5409792415448,right,1,2,0.9951135446463013,C13H11,2022-11-15_12h12.27.442,t1_Paradigm,2021.1.4,59.97071866349109,
F,left,Pretarget,0,23,23,23,963.0395782994165,965.0399234823126,left,1,2,0.7599759783479385,C13H11,2022-11-15_12h12.27.442,t1_Paradigm,2021.1.4,59.97071866349109,
C,right,Target,0,24,24,24,966.5398288457363,968.5408534871676,left,0,2,1.291022870616871,C13H11,2022-11-15_12h12.27.442,t1_Paradigm,2021.1.4,59.97071866349109,
F,right,Target,0,25,25,25,970.0397714221908,972.0404457478871,right,1,2,0.7193056690884987,C13H11,2022-11-15_12h12.27.442,t1_Paradigm,2021.1.4,59.97071866349109,
H,left,Distractor,0,26,26,26,973.5397152818477,975.5396998833457,left,1,2,0.7401571544614853,C13H11,2022-11-15_12h12.27.442,t1_Paradigm,2021.1.4,59.97071866349109,
H,left,Lure,0,27,27,27,977.0393498884223,979.0397159234417,left,1,2,1.143991956851096,C13H11,2022-11-15_12h12.27.442,t1_Paradigm,2021.1.4,59.97071866349109,
P,left,Distractor,0,28,28,28,980.5395099685993,982.5408223693812,left,1,2,0.7154024717165157,C13H11,2022-11-15_12h12.27.442,t1_Paradigm,2021.1.4,59.97071866349109,
G,left,Pretarget,0,29,29,29,984.0396370061644,986.0405208155425,left,1,2,0.7671167090302333,C13H11,2022-11-15_12h12.27.442,t1_Paradigm,2021.1.4,59.97071866349109,
K,left,Distractor,0,30,30,30,987.5396321941371,989.5393338483264,left,1,2,0.5485745485930238,C13H11,2022-11-15_12h12.27.442,t1_Paradigm,2021.1.4,59.97071866349109,
G,right,Target,0,31,31,31,991.039403462346,993.0417267100856,left,0,2,0.5021301249798853,C13H11,2022-11-15_12h12.27.442,t1_Paradigm,2021.1.4,59.97071866349109,
M,left,Pretarget,0,32,32,32,994.5393239034602,996.5391885250428,left,1,2,0.7005833462753799,C13H11,2022-11-15_12h12.27.442,t1_Paradigm,2021.1.4,59.97071866349109,
B,left,Distractor,0,33,33,33,998.0394262392801,1000.0418505396519,left,1,2,0.6379435568233021,C13H11,2022-11-15_12h12.27.442,t1_Paradigm,2021.1.4,59.97071866349109,
M,right,Target,0,34,34,34,1001.5396395725838,1003.5408833217516,right,1,2,0.4668159251305042,C13H11,2022-11-15_12h12.27.442,t1_Paradigm,2021.1.4,59.97071866349109,
M,left,Lure,0,35,35,35,1005.0396155124326,1007.0397868206783,left,1,2,1.112138247670373,C13H11,2022-11-15_12h12.27.442,t1_Paradigm,2021.1.4,59.97071866349109,
T,left,Distractor,0,36,36,36,1008.5397887454892,1010.541615071008,left,1,2,0.8902504436700838,C13H11,2022-11-15_12h12.27.442,t1_Paradigm,2021.1.4,59.97071866349109,
F,left,Distractor,0,37,37,37,1012.0396206452715,1014.041208294133,left,1,2,0.6064218776737107,C13H11,2022-11-15_12h12.27.442,t1_Paradigm,2021.1.4,59.97071866349109,
X,left,Distractor,0,38,38,38,1015.5395648257254,1017.5398189008702,left,1,2,0.5481135561858537,C13H11,2022-11-15_12h12.27.442,t1_Paradigm,2021.1.4,59.97071866349109,
C,left,Distractor,0,39,39,39,1019.0393482844083,1021.0388734975131,left,1,2,0.6490567780856509,C13H11,2022-11-15_12h12.27.442,t1_Paradigm,2021.1.4,59.97071866349109,
R,left,Distractor,0,40,40,40,1022.539782008651,1024.5414299682889,left,1,2,0.6662973166821757,C13H11,2022-11-15_12h12.27.442,t1_Paradigm,2021.1.4,59.97071866349109,
B,left,Pretarget,0,41,41,41,1026.0395888858766,1028.039766289352,left,1,2,0.6080287746590329,C13H11,2022-11-15_12h12.27.442,t1_Paradigm,2021.1.4,59.97071866349109,
H,left,Distractor,0,42,42,42,1029.5395423695882,1031.5396947505214,left,1,2,0.6441536410420667,C13H11,2022-11-15_12h12.27.442,t1_Paradigm,2021.1.4,59.97071866349109,
B,right,Target,0,43,43,43,1033.0396559334768,1035.0521441119345,right,1,2,0.7796735390875256,C13H11,2022-11-15_12h12.27.442,t1_Paradigm,2021.1.4,59.97071866349109,
W,left,Pretarget,0,44,44,44,1036.5395837530377,1038.5409163643635,left,1,2,0.6189350786589785,C13H11,2022-11-15_12h12.27.442,t1_Paradigm,2021.1.4,59.97071866349109,
L,left,Pretarget,0,45,45,45,1040.039635722962,1042.0407652666327,left,1,2,0.6230038098437944,C13H11,2022-11-15_12h12.27.442,t1_Paradigm,2021.1.4,59.97071866349109,
W,right,Target,0,46,46,46,1043.5396992417518,1045.5416943090968,right,1,2,0.8181380141322734,C13H11,2022-11-15_12h12.27.442,t1_Paradigm,2021.1.4,59.97071866349109,
L,right,Target,0,47,47,47,1047.039415973617,1049.0412179181876,right,1,2,0.9827815967437346,C13H11,2022-11-15_12h12.27.442,t1_Paradigm,2021.1.4,59.97071866349109,
W,right,Target,0,48,48,48,1050.5397701389738,1052.542007732598,right,1,2,1.3537274620612152,C13H11,2022-11-15_12h12.27.442,t1_Paradigm,2021.1.4,59.97071866349109,
X,left,Distractor,0,49,49,49,1054.039636043759,1056.0412673216924,left,1,2,0.6384956569818314,C13H11,2022-11-15_12h12.27.442,t1_Paradigm,2021.1.4,59.97071866349109,
R,left,Distractor,0,50,50,50,1057.5394621691084,1059.5395940187009,left,1,2,0.7082254904089496,C13H11,2022-11-15_12h12.27.442,t1_Paradigm,2021.1.4,59.97071866349109,
V,left,Pretarget,0,51,51,51,1061.039340264353,1063.0404415774683,left,1,2,0.5992089665378444,C13H11,2022-11-15_12h12.27.442,t1_Paradigm,2021.1.4,59.97071866349109,
Z,left,Distractor,0,52,52,52,1064.539534028736,1066.5414161738008,left,1,2,0.5863188232469838,C13H11,2022-11-15_12h12.27.442,t1_Paradigm,2021.1.4,59.97071866349109,
V,right,Target,0,53,53,53,1068.0395930562954,1070.0408371262747,right,1,2,0.622969163232483,C13H11,2022-11-15_12h12.27.442,t1_Paradigm,2021.1.4,59.97071866349109,
V,left,Lure,0,54,54,54,1071.539315562608,1073.5396835224528,left,1,2,0.7240955630550161,C13H11,2022-11-15_12h12.27.442,t1_Paradigm,2021.1.4,59.97071866349109,
N,left,Distractor,0,55,55,55,1075.0393607956794,1077.041496374295,left,1,2,0.7107588634389685,C13H11,2022-11-15_12h12.27.442,t1_Paradigm,2021.1.4,59.97071866349109,
B,left,Distractor,0,56,56,56,1078.5395173470315,1080.5416660785268,left,1,2,0.6340390762343304,C13H11,2022-11-15_12h12.27.442,t1_Paradigm,2021.1.4,59.97071866349109,
V,left,Lure,0,57,57,57,1082.0396392517869,1084.041597426898,right,0,2,0.9103063402144471,C13H11,2022-11-15_12h12.27.442,t1_Paradigm,2021.1.4,59.97071866349109,
J,left,Distractor,0,58,58,58,1085.539781687854,1087.539239532547,left,1,2,0.5646460848656716,C13H11,2022-11-15_12h12.27.442,t1_Paradigm,2021.1.4,59.97071866349109,
H,left,Distractor,0,59,59,59,1089.0396876928717,1091.0414014169073,left,1,2,0.614614838763373,C13H11,2022-11-15_12h12.27.442,t1_Paradigm,2021.1.4,59.97071866349109,
X,left,Pretarget,0,60,60,60,1092.5392639134952,1094.5409795623418,left,1,2,0.715273188528954,C13H11,2022-11-15_12h12.27.442,t1_Paradigm,2021.1.4,59.97071866349109,
P,left,Distractor,0,61,61,61,1096.039516384626,1098.0409208555793,left,1,2,0.6229030780377798,C13H11,2022-11-15_12h12.27.442,t1_Paradigm,2021.1.4,59.97071866349109,
X,right,Target,0,62,62,62,1099.5396424598002,1101.5407829107426,right,1,2,0.45092179233324714,C13H11,2022-11-15_12h12.27.442,t1_Paradigm,2021.1.4,59.97071866349109,
Q,left,Distractor,0,63,63,63,1103.0395981891343,1105.0413160835888,left,1,2,0.5183553253737045,C13H11,2022-11-15_12h12.27.442,t1_Paradigm,2021.1.4,59.97071866349109,
B,left,Pretarget,0,0,0,0,1129.324334303863,1131.341032366341,left,1,2,0.5387207957974169,C13H11,2022-11-15_12h12.27.442,t1_Paradigm,2021.1.4,59.97071866349109,
F,left,Distractor,0,1,1,1,1132.8224829557876,1134.822834554725,left,1,2,0.5769870152143994,C13H11,2022-11-15_12h12.27.442,t1_Paradigm,2021.1.4,59.97071866349109,
B,right,Target,0,2,2,2,1136.3228255722788,1138.3239602487884,right,1,2,0.38772284507285804,C13H11,2022-11-15_12h12.27.442,t1_Paradigm,2021.1.4,59.97071866349109,
V,left,Distractor,0,3,3,3,1139.8229211712605,1141.8232625045348,left,1,2,0.5043997987813782,C13H11,2022-11-15_12h12.27.442,t1_Paradigm,2021.1.4,59.97071866349109,
G,left,Pretarget,0,4,4,4,1143.3225920284458,1145.3245700932894,left,1,2,0.5871670236083446,C13H11,2022-11-15_12h12.27.442,t1_Paradigm,2021.1.4,59.97071866349109,
B,left,Lure,0,5,5,5,1146.8230318479327,1148.82292277526,right,0,2,0.9129430114699062,C13H11,2022-11-15_12h12.27.442,t1_Paradigm,2021.1.4,59.97071866349109,
G,right,Target,0,6,6,6,1150.322864710106,1152.3237286297663,right,1,2,0.9641766874410678,C13H11,2022-11-15_12h12.27.442,t1_Paradigm,2021.1.4,59.97071866349109,
Y,left,Pretarget,0,7,7,7,1153.822818514629,1155.8236705646123,left,1,2,0.5360119441029383,C13H11,2022-11-15_12h12.27.442,t1_Paradigm,2021.1.4,59.97071866349109,
P,left,Distractor,0,8,8,8,1157.3223228756106,1159.32424993295,left,1,2,0.6674685646139551,C13H11,2022-11-15_12h12.27.442,t1_Paradigm,2021.1.4,59.97071866349109,
Y,right,Target,0,9,9,9,1160.82302511108,1162.8243898025976,right,1,2,0.3993195148941595,C13H11,2022-11-15_12h12.27.442,t1_Paradigm,2021.1.4,59.97071866349109,
X,left,Distractor,0,10,10,10,1164.3229760283866,1166.3237225345365,left,1,2,0.49996118295530323,C13H11,2022-11-15_12h12.27.442,t1_Paradigm,2021.1.4,59.97071866349109,
Y,right,Target,0,11,11,11,1167.8230254318914,1169.8231463742268,right,1,2,1.0005229071975918,C13H11,2022-11-15_12h12.27.442,t1_Paradigm,2021.1.4,59.97071866349109,
N,left,Distractor,0,12,12,12,1171.3226626048854,1173.324535446678,left,1,2,0.8430765163939213,C13H11,2022-11-15_12h12.27.442,t1_Paradigm,2021.1.4,59.97071866349109,
Y,right,Target,0,13,13,13,1174.8391633741558,1176.839053659889,left,0,2,0.944591728184605,C13H11,2022-11-15_12h12.27.442,t1_Paradigm,2021.1.4,59.97071866349109,
Y,left,Lure,0,14,14,14,1178.322644319167,1180.3225904244464,left,1,2,1.1412099623121321,C13H11,2022-11-15_12h12.27.442,t1_Paradigm,2021.1.4,59.97071866349109,
K,left,Distractor,0,15,15,15,1181.822860539687,1183.8231502238486,left,1,2,0.7445749181642896,C13H11,2022-11-15_12h12.27.442,t1_Paradigm,2021.1.4,59.97071866349109,
T,left,Pretarget,0,16,16,16,1185.323006504579,1187.322980519617,left,1,2,0.8606436313712038,C13H11,2022-11-15_12h12.27.442,t1_Paradigm,2021.1.4,59.97071866349109,
J,left,Distractor,0,17,17,17,1188.8226950058743,1190.824274313898,left,1,2,0.6395620026887627,C13H11,2022-11-15_12h12.27.442,t1_Paradigm,2021.1.4,59.97071866349109,
T,right,Target,0,18,18,18,1192.339333719996,1194.3242877875746,right,1,2,0.8194690214440925,C13H11,2022-11-15_12h12.27.442,t1_Paradigm,2021.1.4,59.97071866349109,
S,left,Pretarget,0,19,19,19,1195.8228913366765,1197.8246255920385,left,1,2,0.614995630676276,C13H11,2022-11-15_12h12.27.442,t1_Paradigm,2021.1.4,59.97071866349109,
R,left,Distractor,0,20,20,20,1199.3393847275147,1201.3238463640882,left,1,2,0.45975186611758545,C13H11,2022-11-15_12h12.27.442,t1_Paradigm,2021.1.4,59.97071866349109,
S,right,Target,0,21,21,21,1202.8228602188901,1204.8242274768127,right,1,2,0.7514808218111284,C13H11,2022-11-15_12h12.27.442,t1_Paradigm,2021.1.4,59.97071866349109,
Q,left,Distractor,0,22,22,22,1206.322982123631,1208.323445040849,left,1,2,0.5803939319594065,C13H11,2022-11-15_12h12.27.442,t1_Paradigm,2021.1.4,59.97071866349109,
D,left,Distractor,0,23,23,23,1209.8227049507404,1211.8238460432913,left,1,2,0.5518945280200569,C13H11,2022-11-15_12h12.27.442,t1_Paradigm,2021.1.4,59.97071866349109,
F,left,Distractor,0,24,24,24,1213.3225910660403,1215.3229016023397,left,1,2,0.6206690132239601,C13H11,2022-11-15_12h12.27.442,t1_Paradigm,2021.1.4,59.97071866349109,
Z,left,Distractor,0,25,25,25,1216.8226346951124,1218.82399842421,left,1,2,0.543673657157342,C13H11,2022-11-15_12h12.27.442,t1_Paradigm,2021.1.4,59.97071866349109,
P,left,Distractor,0,26,26,26,1220.322834554725,1222.3228149858041,left,1,2,0.5167943030683091,C13H11,2022-11-15_12h12.27.442,t1_Paradigm,2021.1.4,59.97071866349109,
H,left,Distractor,0,27,27,27,1223.8228252514673,1225.8233686899766,left,1,2,0.5363574477960356,C13H11,2022-11-15_12h12.27.442,t1_Paradigm,2021.1.4,59.97071866349109,
Z,left,Pretarget,0,28,28,28,1227.3230145246198,1229.323853421738,left,1,2,0.6997329002915649,C13H11,2022-11-15_12h12.27.442,t1_Paradigm,2021.1.4,59.97071866349109,
J,left,Pretarget,0,29,29,29,1230.8227312564995,1232.8240693214466,left,1,2,0.8160819944168907,C13H11,2022-11-15_12h12.27.442,t1_Paradigm,2021.1.4,59.97071866349109,
Z,right,Target,0,30,30,30,1234.3228563692537,1236.3228615020926,right,1,2,1.028937940223841,C13H11,2022-11-15_12h12.27.442,t1_Paradigm,2021.1.4,59.97071866349109,
J,right,Target,0,31,31,31,1237.822862785295,1239.8246419529314,left,0,2,0.6311807308375137,C13H11,2022-11-15_12h12.27.442,t1_Paradigm,2021.1.4,59.97071866349109,
V,left,Pretarget,0,32,32,32,1241.3229131512053,1243.3356650288624,left,1,2,0.784164766446338,C13H11,2022-11-15_12h12.27.442,t1_Paradigm,2021.1.4,59.97071866349109,
Z,left,Lure,0,33,33,33,1244.8395797751,1246.8241415018856,left,1,2,0.6555995339294896,C13H11,2022-11-15_12h12.27.442,t1_Paradigm,2021.1.4,59.97071866349109,
V,right,Target,0,34,34,34,1248.3224460635538,1250.3232188754628,right,1,2,0.7725151643098798,C13H11,2022-11-15_12h12.27.442,t1_Paradigm,2021.1.4,59.97071866349109,
X,left,Distractor,0,35,35,35,1251.8230267150939,1253.8240661134332,left,1,2,0.5516141471161973,C13H11,2022-11-15_12h12.27.442,t1_Paradigm,2021.1.4,59.97071866349109,
S,left,Distractor,0,36,36,36,1255.3226629256824,1257.3231627351197,left,1,2,0.5085660537733929,C13H11,2022-11-15_12h12.27.442,t1_Paradigm,2021.1.4,59.97071866349109,
Q,left,Distractor,0,37,37,37,1258.822587858027,1260.824218494352,left,1,2,0.559419900237117,C13H11,2022-11-15_12h12.27.442,t1_Paradigm,2021.1.4,59.97071866349109,
P,left,Distractor,0,38,38,38,1262.3228374419414,1264.3240346748353,left,1,2,0.49957172939321026,C13H11,2022-11-15_12h12.27.442,t1_Paradigm,2021.1.4,59.97071866349109,
S,left,Lure,0,39,39,39,1265.8226074269478,1267.8242566697882,left,1,2,0.5514187787193805,C13H11,2022-11-15_12h12.27.442,t1_Paradigm,2021.1.4,59.97071866349109,
K,left,Pretarget,0,40,40,40,1269.322865993323,1271.3243663840549,left,1,2,0.5712664747698,C13H11,2022-11-15_12h12.27.442,t1_Paradigm,2021.1.4,59.97071866349109,
L,left,Distractor,0,41,41,41,1272.8228894118656,1274.823122634887,left,1,2,0.560567408829229,C13H11,2022-11-15_12h12.27.442,t1_Paradigm,2021.1.4,59.97071866349109,
K,right,Target,0,42,42,42,1276.3227129707811,1278.322807928169,right,1,2,0.8048901766596828,C13H11,2022-11-15_12h12.27.442,t1_Paradigm,2021.1.4,59.97071866349109,
B,left,Distractor,0,43,43,43,1279.8227793767874,1281.8248761383584,left,1,2,0.6951961190789007,C13H11,2022-11-15_12h12.27.442,t1_Paradigm,2021.1.4,59.97071866349109,
N,left,Distractor,0,44,44,44,1283.32258657481,1285.3230854218564,left,1,2,0.8290488093771273,C13H11,2022-11-15_12h12.27.442,t1_Paradigm,2021.1.4,59.97071866349109,
S,left,Pretarget,0,45,45,45,1286.8229452313972,1288.8238370608306,left,1,2,0.8800046708784066,C13H11,2022-11-15_12h12.27.442,t1_Paradigm,2021.1.4,59.97071866349109,
Z,left,Distractor,0,46,46,46,1290.322846745199,1292.3240324292274,left,1,2,0.9638289381400682,C13H11,2022-11-15_12h12.27.442,t1_Paradigm,2021.1.4,59.97071866349109,
S,right,Target,0,47,47,47,1293.8229041687446,1295.8238001686113,right,1,2,0.7120202567166416,C13H11,2022-11-15_12h12.27.442,t1_Paradigm,2021.1.4,59.97071866349109,
C,left,Distractor,0,48,48,48,1297.323010674998,1299.3238069054496,left,1,2,0.6998317072866485,C13H11,2022-11-15_12h12.27.442,t1_Paradigm,2021.1.4,59.97071866349109,
T,left,Pretarget,0,49,49,49,1300.8230302439188,1302.8235460934666,left,1,2,0.6082552608277183,C13H11,2022-11-15_12h12.27.442,t1_Paradigm,2021.1.4,59.97071866349109,
S,left,Lure,0,50,50,50,1304.3225978028786,1306.3239034668368,left,1,2,1.219814781783498,C13H11,2022-11-15_12h12.27.442,t1_Paradigm,2021.1.4,59.97071866349109,
T,right,Target,0,51,51,51,1307.8228996775288,1309.8242672562483,right,1,2,0.7915358329337323,C13H11,2022-11-15_12h12.27.442,t1_Paradigm,2021.1.4,59.97071866349109,
N,left,Pretarget,0,52,52,52,1311.3227861136256,1313.3245152361633,left,1,2,0.699117602154729,C13H11,2022-11-15_12h12.27.442,t1_Paradigm,2021.1.4,59.97071866349109,
B,left,Distractor,0,53,53,53,1314.8228159482096,1316.8247154165874,left,1,2,0.6230881807568949,C13H11,2022-11-15_12h12.27.442,t1_Paradigm,2021.1.4,59.97071866349109,
N,right,Target,0,54,54,54,1318.3393221711303,1320.3239349054202,right,1,2,0.6758591397228884,C13H11,2022-11-15_12h12.27.442,t1_Paradigm,2021.1.4,59.97071866349109,
N,left,Lure,0,55,55,55,1321.8392599355575,1323.8228088905744,left,1,2,0.8408889678830747,C13H11,2022-11-15_12h12.27.442,t1_Paradigm,2021.1.4,59.97071866349109,
X,left,Distractor,0,56,56,56,1325.322516319182,1327.3245739429258,left,1,2,0.6190566626028158,C13H11,2022-11-15_12h12.27.442,t1_Paradigm,2021.1.4,59.97071866349109,
W,left,Distractor,0,57,57,57,1328.8228836374328,1330.8234158478735,left,1,2,0.6083460477821063,C13H11,2022-11-15_12h12.27.442,t1_Paradigm,2021.1.4,59.97071866349109,
S,left,Distractor,0,58,58,58,1332.3226064645423,1334.3228961487039,left,1,2,0.6928513775928877,C13H11,2022-11-15_12h12.27.442,t1_Paradigm,2021.1.4,59.97071866349109,
L,left,Distractor,0,59,59,59,1335.8228858830407,1337.8240170307254,left,1,2,0.5676792673330056,C13H11,2022-11-15_12h12.27.442,t1_Paradigm,2021.1.4,59.97071866349109,
K,left,Pretarget,0,60,60,60,1339.3394485671015,1341.3402701409068,left,1,2,0.6192016650893493,C13H11,2022-11-15_12h12.27.442,t1_Paradigm,2021.1.4,59.97071866349109,
V,left,Pretarget,0,61,61,61,1342.8226780033729,1344.8243561183917,left,1,2,0.5433191709889797,C13H11,2022-11-15_12h12.27.442,t1_Paradigm,2021.1.4,59.97071866349109,
K,right,Target,0,62,62,62,1346.322862143701,1348.3239361886372,right,1,2,0.8037394600542029,C13H11,2022-11-15_12h12.27.442,t1_Paradigm,2021.1.4,59.97071866349109,
V,right,Target,0,63,63,63,1349.8229359281395,1351.8244270156283,right,1,2,1.063497613882646,C13H11,2022-11-15_12h12.27.442,t1_Paradigm,2021.1.4,59.97071866349109,
R,left,Distractor,0,0,0,0,1503.6728756815428,1505.6738810748648,left,1,3,0.6697744890552713,C13H11,2022-11-15_12h12.27.442,t1_Paradigm,2021.1.4,59.97071866349109,
P,left,Lure,0,1,1,1,1507.1728391101205,1509.1739080222178,left,1,3,0.4177017876354512,C13H11,2022-11-15_12h12.27.442,t1_Paradigm,2021.1.4,59.97071866349109,
V,left,Distractor,0,2,2,2,1510.672798047468,1512.6751338064932,left,1,3,0.5645190472860122,C13H11,2022-11-15_12h12.27.442,t1_Paradigm,2021.1.4,59.97071866349109,
P,left,Pretarget,0,3,3,3,1514.1728060675086,1516.1741386788344,left,1,3,1.065996981895296,C13H11,2022-11-15_12h12.27.442,t1_Paradigm,2021.1.4,59.97071866349109,
Z,left,Distractor,0,4,4,4,1517.672828202849,1519.6728747191373,left,1,3,0.9268988588446518,C13H11,2022-11-15_12h12.27.442,t1_Paradigm,2021.1.4,59.97071866349109,
L,left,Pretarget,0,5,5,5,1521.1728907592333,1523.1742111800704,left,1,3,0.7693032951501664,C13H11,2022-11-15_12h12.27.442,t1_Paradigm,2021.1.4,59.97071866349109,
P,right,Target,0,6,6,6,1524.6727749497222,1526.6745955008082,right,1,3,1.3170460042747436,C13H11,2022-11-15_12h12.27.442,t1_Paradigm,2021.1.4,59.97071866349109,
S,left,Distractor,0,7,7,7,1528.1728153707663,1530.1732991401223,left,1,3,0.6987380934297107,C13H11,2022-11-15_12h12.27.442,t1_Paradigm,2021.1.4,59.97071866349109,
L,right,Target,0,8,8,8,1531.6726459873316,1533.6741534357134,left,0,3,1.1655001238395926,C13H11,2022-11-15_12h12.27.442,t1_Paradigm,2021.1.4,59.97071866349109,
D,left,Distractor,0,9,9,9,1535.172780082561,1537.1737813054497,left,1,3,0.7219372075196588,C13H11,2022-11-15_12h12.27.442,t1_Paradigm,2021.1.4,59.97071866349109,
G,left,Distractor,0,10,10,10,1538.6725186289696,1540.6734162328357,left,1,3,0.6464566782524344,C13H11,2022-11-15_12h12.27.442,t1_Paradigm,2021.1.4,59.97071866349109,
M,left,Pretarget,0,11,11,11,1542.172810237942,1544.174147019672,left,1,3,1.1456594854098512,C13H11,2022-11-15_12h12.27.442,t1_Paradigm,2021.1.4,59.97071866349109,
Y,left,Distractor,0,12,12,12,1545.6724830199528,1547.6735288343189,left,1,3,0.6862393285264261,C13H11,2022-11-15_12h12.27.442,t1_Paradigm,2021.1.4,59.97071866349109,
V,left,Distractor,0,13,13,13,1549.1723752304824,1551.1740822176798,left,1,3,1.2820875737961615,C13H11,2022-11-15_12h12.27.442,t1_Paradigm,2021.1.4,59.97071866349109,
M,right,Target,0,14,14,14,1552.6729452955624,1554.6746782677073,right,1,3,0.9649459705397021,C13H11,2022-11-15_12h12.27.442,t1_Paradigm,2021.1.4,59.97071866349109,
S,left,Pretarget,0,15,15,15,1556.1726832003624,1558.1734078919835,left,1,3,0.5702658934897045,C13H11,2022-11-15_12h12.27.442,t1_Paradigm,2021.1.4,59.97071866349109,
Q,left,Distractor,0,16,16,16,1559.6724535061658,1561.6746599820035,left,1,3,0.573047567231697,C13H11,2022-11-15_12h12.27.442,t1_Paradigm,2021.1.4,59.97071866349109,
R,left,Pretarget,0,17,17,17,1563.1723357718438,1565.1744341374288,left,1,3,0.6413491903513204,C13H11,2022-11-15_12h12.27.442,t1_Paradigm,2021.1.4,59.97071866349109,
S,right,Target,0,18,18,18,1566.6729116113565,1568.6744347790373,right,1,3,0.6293842399027199,C13H11,2022-11-15_12h12.27.442,t1_Paradigm,2021.1.4,59.97071866349109,
F,left,Distractor,0,19,19,19,1570.1725818269479,1572.173687310482,left,1,3,0.6820326525048586,C13H11,2022-11-15_12h12.27.442,t1_Paradigm,2021.1.4,59.97071866349109,
R,right,Target,0,20,20,20,1573.6720047042327,1575.6735464784288,right,1,3,0.7662450901261764,C13H11,2022-11-15_12h12.27.442,t1_Paradigm,2021.1.4,59.97071866349109,
P,left,Distractor,0,21,21,21,1577.1727303582593,1579.174443119875,left,1,3,0.9613898808747763,C13H11,2022-11-15_12h12.27.442,t1_Paradigm,2021.1.4,59.97071866349109,
L,left,Distractor,0,22,22,22,1580.6727916314267,1582.673639831788,left,1,3,0.9660633237508591,C13H11,2022-11-15_12h12.27.442,t1_Paradigm,2021.1.4,59.97071866349109,
R,right,Target,0,23,23,23,1584.1724361828674,1586.174573044671,right,1,3,0.5856024724926101,C13H11,2022-11-15_12h12.27.442,t1_Paradigm,2021.1.4,59.97071866349109,
H,left,Pretarget,0,24,24,24,1587.672690899606,1589.6743427088659,left,1,3,1.165299943415448,C13H11,2022-11-15_12h12.27.442,t1_Paradigm,2021.1.4,59.97071866349109,
G,left,Pretarget,0,25,25,25,1591.172734849475,1593.1742984382,left,1,3,0.7533687413233565,C13H11,2022-11-15_12h12.27.442,t1_Paradigm,2021.1.4,59.97071866349109,
T,left,Distractor,0,26,26,26,1594.6729331050883,1596.6747777163255,left,1,3,0.5328761050041066,C13H11,2022-11-15_12h12.27.442,t1_Paradigm,2021.1.4,59.97071866349109,
H,right,Target,0,27,27,27,1598.1727592304233,1600.1744155309134,left,0,3,0.6493137404613663,C13H11,2022-11-15_12h12.27.442,t1_Paradigm,2021.1.4,59.97071866349109,
G,right,Target,0,28,28,28,1601.6724823783443,1603.6745197915443,right,1,3,0.8293028845218942,C13H11,2022-11-15_12h12.27.442,t1_Paradigm,2021.1.4,59.97071866349109,
D,left,Distractor,0,29,29,29,1605.172473716695,1607.1736908393068,left,1,3,0.9785569558152929,C13H11,2022-11-15_12h12.27.442,t1_Paradigm,2021.1.4,59.97071866349109,
N,left,Pretarget,0,30,30,30,1608.6727743081137,1610.6748341774655,left,1,3,1.10880960659415,C13H11,2022-11-15_12h12.27.442,t1_Paradigm,2021.1.4,59.97071866349109,
V,left,Distractor,0,31,31,31,1612.1727309998532,1614.1719925137586,left,1,3,1.1638720539049245,C13H11,2022-11-15_12h12.27.442,t1_Paradigm,2021.1.4,59.97071866349109,
R,left,Distractor,0,32,32,32,1615.6726825587539,1617.674368693828,left,1,3,0.8773910973541206,C13H11,2022-11-15_12h12.27.442,t1_Paradigm,2021.1.4,59.97071866349109,
N,right,Target,0,33,33,33,1619.1724817367358,1621.174050458285,right,1,3,0.8495461293932749,C13H11,2022-11-15_12h12.27.442,t1_Paradigm,2021.1.4,59.97071866349109,
Z,left,Distractor,0,34,34,34,1622.672346037507,1624.674560854197,left,1,3,0.6131972149159992,C13H11,2022-11-15_12h12.27.442,t1_Paradigm,2021.1.4,59.97071866349109,
N,left,Lure,0,35,35,35,1626.1722988796246,1628.174453385538,left,1,3,0.9053066417545779,C13H11,2022-11-15_12h12.27.442,t1_Paradigm,2021.1.4,59.97071866349109,
Y,left,Pretarget,0,36,36,36,1629.672736453489,1631.6746490747319,left,1,3,0.6210722612886457,C13H11,2022-11-15_12h12.27.442,t1_Paradigm,2021.1.4,59.97071866349109,
Y,left,Lure,0,37,37,37,1633.1728166539833,1635.1726251352084,left,1,3,1.138960819807835,C13H11,2022-11-15_12h12.27.442,t1_Paradigm,2021.1.4,59.97071866349109,
B,left,Distractor,0,38,38,38,1636.672534348254,1638.673668062358,left,1,3,0.7580842092284001,C13H11,2022-11-15_12h12.27.442,t1_Paradigm,2021.1.4,59.97071866349109,
Y,right,Target,0,39,39,39,1640.1725032304676,1642.1744578767684,right,1,3,0.8572508299112087,C13H11,2022-11-15_12h12.27.442,t1_Paradigm,2021.1.4,59.97071866349109,
J,left,Distractor,0,40,40,40,1643.67227161146,1645.674124242738,left,1,3,0.5416644745127996,C13H11,2022-11-15_12h12.27.442,t1_Paradigm,2021.1.4,59.97071866349109,
X,left,Distractor,0,41,41,41,1647.1726738971047,1649.1739307991666,left,1,3,0.5780334711889736,C13H11,2022-11-15_12h12.27.442,t1_Paradigm,2021.1.4,59.97071866349109,
W,left,Pretarget,0,42,42,42,1650.672736774286,1652.674252242723,left,1,3,0.5653871373797301,C13H11,2022-11-15_12h12.27.442,t1_Paradigm,2021.1.4,59.97071866349109,
S,left,Pretarget,0,43,43,43,1654.1724647342344,1656.174282398104,left,1,3,0.697765421908116,C13H11,2022-11-15_12h12.27.442,t1_Paradigm,2021.1.4,59.97071866349109,
R,left,Distractor,0,44,44,44,1657.672374268077,1659.6729093657486,left,1,3,0.8468979092722293,C13H11,2022-11-15_12h12.27.442,t1_Paradigm,2021.1.4,59.97071866349109,
W,right,Target,0,45,45,45,1661.1728346188902,1663.1746352802584,right,1,3,1.0411200736125465,C13H11,2022-11-15_12h12.27.442,t1_Paradigm,2021.1.4,59.97071866349109,
S,right,Target,0,46,46,46,1664.672462167815,1666.6743234607566,left,0,3,0.5493390196643304,C13H11,2022-11-15_12h12.27.442,t1_Paradigm,2021.1.4,59.97071866349109,
D,left,Distractor,0,47,47,47,1668.1727390199085,1670.172852263,left,1,3,0.6669517526606796,C13H11,2022-11-15_12h12.27.442,t1_Paradigm,2021.1.4,59.97071866349109,
T,left,Distractor,0,48,48,48,1671.6724294460146,1673.6722902179754,left,1,3,0.7192703808686929,C13H11,2022-11-15_12h12.27.442,t1_Paradigm,2021.1.4,59.97071866349109,
S,right,Target,0,49,49,49,1675.172273215474,1677.1892599997082,right,1,3,1.042458459356567,C13H11,2022-11-15_12h12.27.442,t1_Paradigm,2021.1.4,59.97071866349109,
K,left,Distractor,0,50,50,50,1678.6724509397463,1680.6736950097256,left,1,3,0.7740774698322639,C13H11,2022-11-15_12h12.27.442,t1_Paradigm,2021.1.4,59.97071866349109,
S,left,Lure,0,51,51,51,1682.1727816865605,1684.1737489044608,None,0,3,,C13H11,2022-11-15_12h12.27.442,t1_Paradigm,2021.1.4,59.97071866349109,
T,left,Pretarget,0,52,52,52,1685.6727072605136,1687.67416787181,right,0,3,0.9415819642599672,C13H11,2022-11-15_12h12.27.442,t1_Paradigm,2021.1.4,59.97071866349109,
V,left,Distractor,0,53,53,53,1689.1724579973961,1691.1743455960823,left,1,3,0.6254281102155801,C13H11,2022-11-15_12h12.27.442,t1_Paradigm,2021.1.4,59.97071866349109,
B,left,Distractor,0,54,54,54,1692.6724955312238,1694.6741726838372,left,1,3,0.6616168161854148,C13H11,2022-11-15_12h12.27.442,t1_Paradigm,2021.1.4,59.97071866349109,
T,right,Target,0,55,55,55,1696.1723267893976,1698.1735522528616,right,1,3,1.3221631162450649,C13H11,2022-11-15_12h12.27.442,t1_Paradigm,2021.1.4,59.97071866349109,
Y,left,Pretarget,0,56,56,56,1699.6726610650367,1701.6737110498216,left,1,3,0.5420221686945297,C13H11,2022-11-15_12h12.27.442,t1_Paradigm,2021.1.4,59.97071866349109,
T,left,Lure,0,57,57,57,1703.1722741778794,1705.1751453553588,left,1,3,0.9126260591292521,C13H11,2022-11-15_12h12.27.442,t1_Paradigm,2021.1.4,59.97071866349109,
P,left,Pretarget,0,58,58,58,1706.6728349396872,1708.6733517516404,left,1,3,0.8382644870871445,C13H11,2022-11-15_12h12.27.442,t1_Paradigm,2021.1.4,59.97071866349109,
Y,right,Target,0,59,59,59,1710.1724506189494,1712.174471029648,right,1,3,1.0017316889425274,C13H11,2022-11-15_12h12.27.442,t1_Paradigm,2021.1.4,59.97071866349109,
R,left,Distractor,0,60,60,60,1713.6724191803514,1715.6733751701831,left,1,3,0.5423651059827534,C13H11,2022-11-15_12h12.27.442,t1_Paradigm,2021.1.4,59.97071866349109,
P,right,Target,0,61,61,61,1717.1724717918842,1719.1748447639256,right,1,3,1.2167636344092898,C13H11,2022-11-15_12h12.27.442,t1_Paradigm,2021.1.4,59.97071866349109,
L,left,Distractor,0,62,62,62,1720.672358227981,1722.6743770346802,left,1,3,0.7253258385462686,C13H11,2022-11-15_12h12.27.442,t1_Paradigm,2021.1.4,59.97071866349109,
V,left,Distractor,0,63,63,63,1724.1727534559905,1726.1743038918357,left,1,3,0.5852977106260369,C13H11,2022-11-15_12h12.27.442,t1_Paradigm,2021.1.4,59.97071866349109,
H,left,Lure,0,0,0,0,1812.689627638756,1814.690746275155,left,1,3,0.5168539722217247,C13H11,2022-11-15_12h12.27.442,t1_Paradigm,2021.1.4,59.97071866349109,
B,left,Distractor,0,1,1,1,1816.1894313079538,1818.1905993478722,left,1,3,0.3613773054385092,C13H11,2022-11-15_12h12.27.442,t1_Paradigm,2021.1.4,59.97071866349109,
T,left,Distractor,0,2,2,2,1819.6894050021947,1821.6905496235704,left,1,3,0.4291916304064216,C13H11,2022-11-15_12h12.27.442,t1_Paradigm,2021.1.4,59.97071866349109,
R,left,Distractor,0,3,3,3,1823.1893684307724,1825.1895172828808,left,1,3,0.7061499017727328,C13H11,2022-11-15_12h12.27.442,t1_Paradigm,2021.1.4,59.97071866349109,
H,left,Pretarget,0,4,4,4,1826.6893847916654,1828.6905746461125,left,1,3,1.045310388712096,C13H11,2022-11-15_12h12.27.442,t1_Paradigm,2021.1.4,59.97071866349109,
K,left,Distractor,0,5,5,5,1830.1892590373027,1832.1891095436004,None,0,3,,C13H11,2022-11-15_12h12.27.442,t1_Paradigm,2021.1.4,59.97071866349109,
G,left,Distractor,0,6,6,6,1833.6893430874188,1835.6894646713627,left,1,3,0.9262825982877985,C13H11,2022-11-15_12h12.27.442,t1_Paradigm,2021.1.4,59.97071866349109,
H,right,Target,0,7,7,7,1837.1894643505511,1839.1909294530778,right,1,3,0.4326347977767,C13H11,2022-11-15_12h12.27.442,t1_Paradigm,2021.1.4,59.97071866349109,
Y,left,Pretarget,0,8,8,8,1840.6894162302633,1842.6902888115728,left,1,3,0.6294419842452044,C13H11,2022-11-15_12h12.27.442,t1_Paradigm,2021.1.4,59.97071866349109,
S,left,Distractor,0,9,9,9,1844.1894649921596,1846.1901415634784,left,1,3,0.6976072665420361,C13H11,2022-11-15_12h12.27.442,t1_Paradigm,2021.1.4,59.97071866349109,
P,left,Distractor,0,10,10,10,1847.6893809420435,1849.6906359192944,left,1,3,0.6849971833580639,C13H11,2022-11-15_12h12.27.442,t1_Paradigm,2021.1.4,59.97071866349109,
Y,right,Target,0,11,11,11,1851.1891284709127,1853.1914985557378,right,1,3,0.5759768098650966,C13H11,2022-11-15_12h12.27.442,t1_Paradigm,2021.1.4,59.97071866349109,
H,left,Lure,0,12,12,12,1854.689422004696,1856.6889597290865,left,1,3,0.5828990744194016,C13H11,2022-11-15_12h12.27.442,t1_Paradigm,2021.1.4,59.97071866349109,
Q,left,Distractor,0,13,13,13,1858.189045062405,1860.1910757387668,left,1,3,0.6650712116243085,C13H11,2022-11-15_12h12.27.442,t1_Paradigm,2021.1.4,59.97071866349109,
V,left,Pretarget,0,14,14,14,1861.688986997251,1863.6903208917647,left,1,3,0.6372964992769994,C13H11,2022-11-15_12h12.27.442,t1_Paradigm,2021.1.4,59.97071866349109,
G,left,Distractor,0,15,15,15,1865.1893292929308,1867.1905541147862,left,1,3,0.7688872150029056,C13H11,2022-11-15_12h12.27.442,t1_Paradigm,2021.1.4,59.97071866349109,
Z,left,Pretarget,0,16,16,16,1868.6892577541003,1870.6901614531962,left,1,3,0.54962645820342,C13H11,2022-11-15_12h12.27.442,t1_Paradigm,2021.1.4,59.97071866349109,
V,right,Target,0,17,17,17,1872.18930972401,1874.1910946660792,right,1,3,0.37638762885762844,C13H11,2022-11-15_12h12.27.442,t1_Paradigm,2021.1.4,59.97071866349109,
N,left,Distractor,0,18,18,18,1875.6894479896582,1877.6906423353357,left,1,3,0.573083176248474,C13H11,2022-11-15_12h12.27.442,t1_Paradigm,2021.1.4,59.97071866349109,
Z,right,Target,0,19,19,19,1879.1892423555983,1881.1913266058982,right,1,3,1.1203119606507244,C13H11,2022-11-15_12h12.27.442,t1_Paradigm,2021.1.4,59.97071866349109,
R,left,Distractor,0,20,20,20,1882.689352069865,1884.6907481999806,left,1,3,0.5490589595428901,C13H11,2022-11-15_12h12.27.442,t1_Paradigm,2021.1.4,59.97071866349109,
P,left,Distractor,0,21,21,21,1886.189191348094,1888.191344570805,left,1,3,0.6804328131547663,C13H11,2022-11-15_12h12.27.442,t1_Paradigm,2021.1.4,59.97071866349109,
Z,right,Target,0,22,22,22,1889.689145794211,1891.6905480195564,right,1,3,0.4132015778304776,C13H11,2022-11-15_12h12.27.442,t1_Paradigm,2021.1.4,59.97071866349109,
D,left,Pretarget,0,23,23,23,1893.1890941450984,1895.1898996788077,left,1,3,0.625785483585787,C13H11,2022-11-15_12h12.27.442,t1_Paradigm,2021.1.4,59.97071866349109,
K,left,Distractor,0,24,24,24,1896.6893052327796,1898.690821984419,left,1,3,0.5969444255460985,C13H11,2022-11-15_12h12.27.442,t1_Paradigm,2021.1.4,59.97071866349109,
W,left,Distractor,0,25,25,25,1900.1891464358196,1902.1909769317717,None,0,3,,C13H11,2022-11-15_12h12.27.442,t1_Paradigm,2021.1.4,59.97071866349109,
D,right,Target,0,26,26,26,1903.6890517992433,1905.689438044792,left,0,3,0.6381042785942554,C13H11,2022-11-15_12h12.27.442,t1_Paradigm,2021.1.4,59.97071866349109,
G,left,Pretarget,0,27,27,27,1907.1890639897174,1909.1909868766234,None,0,3,,C13H11,2022-11-15_12h12.27.442,t1_Paradigm,2021.1.4,59.97071866349109,
V,left,Distractor,0,28,28,28,1910.6890431375941,1912.690122315369,left,1,3,0.8055189484875882,C13H11,2022-11-15_12h12.27.442,t1_Paradigm,2021.1.4,59.97071866349109,
D,right,Target,0,29,29,29,1914.189379979638,1916.1901450923033,right,1,3,0.3934652000461938,C13H11,2022-11-15_12h12.27.442,t1_Paradigm,2021.1.4,59.97071866349109,
G,right,Target,0,30,30,30,1917.68944125282,1919.6906696035003,right,1,3,0.9089804657269269,C13H11,2022-11-15_12h12.27.442,t1_Paradigm,2021.1.4,59.97071866349109,
B,left,Pretarget,0,31,31,31,1921.18944125282,1923.1905964606558,left,1,3,0.4972901859000558,C13H11,2022-11-15_12h12.27.442,t1_Paradigm,2021.1.4,59.97071866349109,
N,left,Distractor,0,32,32,32,1924.6893539946905,1926.6905605308275,left,1,3,0.4850384384917561,C13H11,2022-11-15_12h12.27.442,t1_Paradigm,2021.1.4,59.97071866349109,
F,left,Distractor,0,33,33,33,1928.1893225560925,1930.1911604304769,left,1,3,0.5363949816382956,C13H11,2022-11-15_12h12.27.442,t1_Paradigm,2021.1.4,59.97071866349109,
B,right,Target,0,34,34,34,1931.6894406112115,1933.6909198290232,right,1,3,0.44480634469073266,C13H11,2022-11-15_12h12.27.442,t1_Paradigm,2021.1.4,59.97071866349109,
Q,left,Pretarget,0,35,35,35,1935.189077142597,1937.1908508565975,left,1,3,0.6248201904963935,C13H11,2022-11-15_12h12.27.442,t1_Paradigm,2021.1.4,59.97071866349109,
S,left,Pretarget,0,36,36,36,1938.6890036789555,1940.6894842402835,left,1,3,0.7581332919216948,C13H11,2022-11-15_12h12.27.442,t1_Paradigm,2021.1.4,59.97071866349109,
W,left,Distractor,0,37,37,37,1942.1892898342921,1944.2055981223966,left,1,3,0.7461009730614023,C13H11,2022-11-15_12h12.27.442,t1_Paradigm,2021.1.4,59.97071866349109,
Q,right,Target,0,38,38,38,1945.6893430874188,1947.6896667765832,right,1,3,0.6698498775076587,C13H11,2022-11-15_12h12.27.442,t1_Paradigm,2021.1.4,59.97071866349109,
S,right,Target,0,39,39,39,1949.1889067967568,1951.190749483183,right,1,3,1.3130379046779126,C13H11,2022-11-15_12h12.27.442,t1_Paradigm,2021.1.4,59.97071866349109,
T,left,Distractor,0,40,40,40,1952.6892866262788,1954.6902660346386,left,1,3,1.1254322806344135,C13H11,2022-11-15_12h12.27.442,t1_Paradigm,2021.1.4,59.97071866349109,
G,left,Distractor,0,41,41,41,1956.1892266363138,1958.1913942951069,left,1,3,1.096393929401529,C13H11,2022-11-15_12h12.27.442,t1_Paradigm,2021.1.4,59.97071866349109,
D,left,Distractor,0,42,42,42,1959.689353353082,1961.6909955382725,left,1,3,0.7165191833046265,C13H11,2022-11-15_12h12.27.442,t1_Paradigm,2021.1.4,59.97071866349109,
S,left,Lure,0,43,43,43,1963.1889552378561,1965.1902801499236,left,1,3,0.8972346230002586,C13H11,2022-11-15_12h12.27.442,t1_Paradigm,2021.1.4,59.97071866349109,
Z,left,Pretarget,0,44,44,44,1966.6892753982102,1968.6893555986899,left,1,3,0.7743536803027382,C13H11,2022-11-15_12h12.27.442,t1_Paradigm,2021.1.4,59.97071866349109,
J,left,Distractor,0,45,45,45,1970.1891166012356,1972.1893915285182,None,0,3,,C13H11,2022-11-15_12h12.27.442,t1_Paradigm,2021.1.4,59.97071866349109,
M,left,Pretarget,0,46,46,46,1973.6890428167826,1975.6910738139559,left,1,3,0.7325371456536232,C13H11,2022-11-15_12h12.27.442,t1_Paradigm,2021.1.4,59.97071866349109,
Z,right,Target,0,47,47,47,1977.1889314985165,1979.1900908767711,left,0,3,0.5616161104262574,C13H11,2022-11-15_12h12.27.442,t1_Paradigm,2021.1.4,59.97071866349109,
P,left,Distractor,0,48,48,48,1980.688888511053,1982.690911808968,left,1,3,0.5808741724904394,C13H11,2022-11-15_12h12.27.442,t1_Paradigm,2021.1.4,59.97071866349109,
M,right,Target,0,49,49,49,1984.1892417140043,1986.1919762298494,left,0,3,0.7598572816350497,C13H11,2022-11-15_12h12.27.442,t1_Paradigm,2021.1.4,59.97071866349109,
K,left,Distractor,0,50,50,50,1987.689107297978,1989.6900751574722,left,1,3,0.5735489806975238,C13H11,2022-11-15_12h12.27.442,t1_Paradigm,2021.1.4,59.97071866349109,
Y,left,Distractor,0,51,51,51,1991.1893430874188,1993.190068420634,left,1,3,0.6895920297392877,C13H11,2022-11-15_12h12.27.442,t1_Paradigm,2021.1.4,59.97071866349109,
X,left,Distractor,0,52,52,52,1994.6894447816303,1996.688856751658,left,1,3,1.2387722524290439,C13H11,2022-11-15_12h12.27.442,t1_Paradigm,2021.1.4,59.97071866349109,
F,left,Pretarget,0,53,53,53,1998.1893482202431,2000.1910369217367,left,1,3,1.2089261218789034,C13H11,2022-11-15_12h12.27.442,t1_Paradigm,2021.1.4,59.97071866349109,
M,left,Lure,0,54,54,54,2001.6894691625785,2003.6904899544024,right,0,3,1.0051065254956484,C13H11,2022-11-15_12h12.27.442,t1_Paradigm,2021.1.4,59.97071866349109,
V,left,Distractor,0,55,55,55,2005.1892904759006,2007.1913615733065,left,1,3,0.5921702508785529,C13H11,2022-11-15_12h12.27.442,t1_Paradigm,2021.1.4,59.97071866349109,
F,right,Target,0,56,56,56,2008.6892721901822,2010.6906699242973,right,1,3,1.0291538399324054,C13H11,2022-11-15_12h12.27.442,t1_Paradigm,2021.1.4,59.97071866349109,
S,left,Distractor,0,57,57,57,2012.1892660949525,2014.1899930321815,left,1,3,0.6175771239941241,C13H11,2022-11-15_12h12.27.442,t1_Paradigm,2021.1.4,59.97071866349109,
D,left,Distractor,0,58,58,58,2015.6893847916654,2017.6897325409955,left,1,3,0.7018120177526725,C13H11,2022-11-15_12h12.27.442,t1_Paradigm,2021.1.4,59.97071866349109,
F,right,Target,0,59,59,59,2019.18933795458,2021.1901973830245,left,0,3,1.009777722734725,C13H11,2022-11-15_12h12.27.442,t1_Paradigm,2021.1.4,59.97071866349109,
V,left,Pretarget,0,60,60,60,2022.6892285611248,2024.6895214532997,right,0,3,0.9981829777389066,C13H11,2022-11-15_12h12.27.442,t1_Paradigm,2021.1.4,59.97071866349109,
J,left,Distractor,0,61,61,61,2026.1891044107615,2028.1910212024377,left,1,3,0.648498582697357,C13H11,2022-11-15_12h12.27.442,t1_Paradigm,2021.1.4,59.97071866349109,
V,left,Lure,0,62,62,62,2029.6891958393244,2031.6900392276584,left,1,3,1.133515527457348,C13H11,2022-11-15_12h12.27.442,t1_Paradigm,2021.1.4,59.97071866349109,
V,right,Target,0,63,63,63,2033.1891907064855,2035.189455368105,right,1,3,1.3624090045195771,C13H11,2022-11-15_12h12.27.442,t1_Paradigm,2021.1.4,59.97071866349109,
R,left,Distractor,0,0,0,0,2256.221552245159,2258.2241988612805,left,1,4,0.4873745183140272,C13H11,2022-11-15_12h12.27.442,t1_Paradigm,2021.1.4,59.97071866349109,
F,left,Distractor,0,1,1,1,2259.7222098891652,2261.722240044546,left,1,4,0.365194848694955,C13H11,2022-11-15_12h12.27.442,t1_Paradigm,2021.1.4,59.97071866349109,
P,left,Pretarget,0,2,2,2,2263.222411352792,2265.222813959248,left,1,4,0.3846418631146662,C13H11,2022-11-15_12h12.27.442,t1_Paradigm,2021.1.4,59.97071866349109,
H,left,Distractor,0,3,3,3,2266.7224565858633,2268.7225143302203,left,1,4,0.6930412923393305,C13H11,2022-11-15_12h12.27.442,t1_Paradigm,2021.1.4,59.97071866349109,
Z,left,Distractor,0,4,4,4,2270.22253197433,2272.2230985105707,left,1,4,0.5204780719068367,C13H11,2022-11-15_12h12.27.442,t1_Paradigm,2021.1.4,59.97071866349109,
T,left,Distractor,0,5,5,5,2273.7226394429745,2275.723416425317,left,1,4,0.6041371261526365,C13H11,2022-11-15_12h12.27.442,t1_Paradigm,2021.1.4,59.97071866349109,
P,right,Target,0,6,6,6,2277.222409427981,2279.222765197337,right,1,4,0.7366735660471022,C13H11,2022-11-15_12h12.27.442,t1_Paradigm,2021.1.4,59.97071866349109,
G,left,Distractor,0,7,7,7,2280.7226336685417,2282.7241006958793,left,1,4,0.5956544809014304,C13H11,2022-11-15_12h12.27.442,t1_Paradigm,2021.1.4,59.97071866349109,
L,left,Distractor,0,8,8,8,2284.222733437957,2286.224162610655,left,1,4,0.8552965044073062,C13H11,2022-11-15_12h12.27.442,t1_Paradigm,2021.1.4,59.97071866349109,
P,left,Lure,0,9,9,9,2287.722103382912,2289.7238693976688,None,0,4,,C13H11,2022-11-15_12h12.27.442,t1_Paradigm,2021.1.4,59.97071866349109,
Q,left,Pretarget,0,10,10,10,2291.222483533231,2293.2244333675044,left,1,4,0.6231327722343849,C13H11,2022-11-15_12h12.27.442,t1_Paradigm,2021.1.4,59.97071866349109,
D,left,Distractor,0,11,11,11,2294.7226429717994,2296.7243297484674,left,1,4,0.8671985777036753,C13H11,2022-11-15_12h12.27.442,t1_Paradigm,2021.1.4,59.97071866349109,
M,left,Pretarget,0,12,12,12,2298.2225316535187,2300.222310941783,left,1,4,0.7610519480949733,C13H11,2022-11-15_12h12.27.442,t1_Paradigm,2021.1.4,59.97071866349109,
C,left,Distractor,0,13,13,13,2301.722189037042,2303.722932335164,left,1,4,0.7165262409544084,C13H11,2022-11-15_12h12.27.442,t1_Paradigm,2021.1.4,59.97071866349109,
Q,right,Target,0,14,14,14,2305.2222467813845,2307.223816144542,right,1,4,0.6237400503305253,C13H11,2022-11-15_12h12.27.442,t1_Paradigm,2021.1.4,59.97071866349109,
R,left,Distractor,0,15,15,15,2308.722397237507,2310.722712265022,None,0,4,,C13H11,2022-11-15_12h12.27.442,t1_Paradigm,2021.1.4,59.97071866349109,
M,right,Target,0,16,16,16,2312.222439262565,2314.2242851570045,left,0,4,0.9353048324264819,C13H11,2022-11-15_12h12.27.442,t1_Paradigm,2021.1.4,59.97071866349109,
S,left,Distractor,0,17,17,17,2315.722714189833,2317.724280665774,left,1,4,0.6832385470479494,C13H11,2022-11-15_12h12.27.442,t1_Paradigm,2021.1.4,59.97071866349109,
Z,left,Distractor,0,18,18,18,2319.222169788918,2321.2237413976836,left,1,4,0.7835392026463524,C13H11,2022-11-15_12h12.27.442,t1_Paradigm,2021.1.4,59.97071866349109,
L,left,Pretarget,0,19,19,19,2322.7226128164184,2324.723928746025,left,1,4,0.8196047206729418,C13H11,2022-11-15_12h12.27.442,t1_Paradigm,2021.1.4,59.97071866349109,
M,right,Target,0,20,20,20,2326.222243573371,2328.224549177001,left,0,4,0.9669612484140089,C13H11,2022-11-15_12h12.27.442,t1_Paradigm,2021.1.4,59.97071866349109,
P,left,Distractor,0,21,21,21,2329.722434129726,2331.723823522989,left,1,4,0.5078211516374722,C13H11,2022-11-15_12h12.27.442,t1_Paradigm,2021.1.4,59.97071866349109,
F,left,Distractor,0,22,22,22,2333.222553788859,2335.2236111520906,left,1,4,0.7837871825613547,C13H11,2022-11-15_12h12.27.442,t1_Paradigm,2021.1.4,59.97071866349109,
L,right,Target,0,23,23,23,2336.7224944405025,2338.722599663539,left,0,4,0.5492588191700634,C13H11,2022-11-15_12h12.27.442,t1_Paradigm,2021.1.4,59.97071866349109,
L,left,Lure,0,24,24,24,2340.22250983899,2342.2221251974406,left,1,4,0.5693166405108059,C13H11,2022-11-15_12h12.27.442,t1_Paradigm,2021.1.4,59.97071866349109,
V,left,Pretarget,0,25,25,25,2343.7224315633066,2345.724124114422,left,1,4,0.7635814715031302,C13H11,2022-11-15_12h12.27.442,t1_Paradigm,2021.1.4,59.97071866349109,
Z,left,Distractor,0,26,26,26,2347.2225451272097,2349.2228678539686,left,1,4,0.5605824865197064,C13H11,2022-11-15_12h12.27.442,t1_Paradigm,2021.1.4,59.97071866349109,
H,left,Distractor,0,27,27,27,2350.72230516735,2352.7225310119247,left,1,4,0.6772790091636125,C13H11,2022-11-15_12h12.27.442,t1_Paradigm,2021.1.4,59.97071866349109,
X,left,Distractor,0,28,28,28,2354.222506310165,2356.223495984188,left,1,4,0.5519593300123233,C13H11,2022-11-15_12h12.27.442,t1_Paradigm,2021.1.4,59.97071866349109,
V,right,Target,0,29,29,29,2357.7225990219304,2359.724394871271,right,1,4,1.0351278139132774,C13H11,2022-11-15_12h12.27.442,t1_Paradigm,2021.1.4,59.97071866349109,
C,left,Distractor,0,30,30,30,2361.22253806956,2363.2244073825423,left,1,4,0.5590089529432589,C13H11,2022-11-15_12h12.27.442,t1_Paradigm,2021.1.4,59.97071866349109,
S,left,Pretarget,0,31,31,31,2364.722618270054,2366.7227212474827,left,1,4,0.6129415357718244,C13H11,2022-11-15_12h12.27.442,t1_Paradigm,2021.1.4,59.97071866349109,
D,left,Distractor,0,32,32,32,2368.222256084642,2370.2230760544335,left,1,4,0.5843731594068231,C13H11,2022-11-15_12h12.27.442,t1_Paradigm,2021.1.4,59.97071866349109,
V,left,Distractor,0,33,33,33,2371.722130971888,2373.7236935981928,right,0,4,1.1639747105364222,C13H11,2022-11-15_12h12.27.442,t1_Paradigm,2021.1.4,59.97071866349109,
R,left,Distractor,0,34,34,34,2375.222228174869,2377.2228633627383,left,1,4,0.7684615108155413,C13H11,2022-11-15_12h12.27.442,t1_Paradigm,2021.1.4,59.97071866349109,
S,right,Target,0,35,35,35,2378.722685638466,2380.72264040538,right,1,4,1.0290380304359132,C13H11,2022-11-15_12h12.27.442,t1_Paradigm,2021.1.4,59.97071866349109,
Y,left,Distractor,0,36,36,36,2382.2221486159833,2384.2227356835647,left,1,4,0.6808819358993787,C13H11,2022-11-15_12h12.27.442,t1_Paradigm,2021.1.4,59.97071866349109,
N,left,Pretarget,0,37,37,37,2385.722182300189,2387.7239669214614,left,1,4,0.635571867969702,C13H11,2022-11-15_12h12.27.442,t1_Paradigm,2021.1.4,59.97071866349109,
Z,left,Pretarget,0,38,38,38,2389.222211493179,2391.2220482049743,left,1,4,0.7054319469898473,C13H11,2022-11-15_12h12.27.442,t1_Paradigm,2021.1.4,59.97071866349109,
P,left,Pretarget,0,39,39,39,2392.7225954931055,2394.7242415279325,left,1,4,0.6114401826198446,C13H11,2022-11-15_12h12.27.442,t1_Paradigm,2021.1.4,59.97071866349109,
M,left,Distractor,0,40,40,40,2396.222235553316,2398.2242344702972,left,1,4,0.7590969809971284,C13H11,2022-11-15_12h12.27.442,t1_Paradigm,2021.1.4,59.97071866349109,
N,right,Target,0,41,41,41,2399.722494119691,2401.722527803897,None,0,4,,C13H11,2022-11-15_12h12.27.442,t1_Paradigm,2021.1.4,59.97071866349109,
Z,right,Target,0,42,42,42,2403.2222573678446,2405.2232447962597,left,0,4,0.6403267945424886,C13H11,2022-11-15_12h12.27.442,t1_Paradigm,2021.1.4,59.97071866349109,
P,right,Target,0,43,43,43,2406.7225104805984,2408.7236056984693,right,1,4,1.0918789627030492,C13H11,2022-11-15_12h12.27.442,t1_Paradigm,2021.1.4,59.97071866349109,
X,left,Pretarget,0,44,44,44,2410.22221341799,2412.224545327379,left,1,4,1.0631697542848997,C13H11,2022-11-15_12h12.27.442,t1_Paradigm,2021.1.4,59.97071866349109,
Z,left,Lure,0,45,45,45,2413.7225743201852,2415.724168385088,left,1,4,1.243335660212324,C13H11,2022-11-15_12h12.27.442,t1_Paradigm,2021.1.4,59.97071866349109,
R,left,Pretarget,0,46,46,46,2417.2224986109213,2419.223700014234,left,1,4,1.0558760010753758,C13H11,2022-11-15_12h12.27.442,t1_Paradigm,2021.1.4,59.97071866349109,
K,left,Distractor,0,47,47,47,2420.7223029217275,2422.7228476434393,left,1,4,0.5490884733299026,C13H11,2022-11-15_12h12.27.442,t1_Paradigm,2021.1.4,59.97071866349109,
X,right,Target,0,48,48,48,2424.222257688656,2426.22447314694,left,0,4,0.8870886196236825,C13H11,2022-11-15_12h12.27.442,t1_Paradigm,2021.1.4,59.97071866349109,
B,left,Distractor,0,49,49,49,2427.7225371071545,2429.7232842548983,left,1,4,0.7162137798441108,C13H11,2022-11-15_12h12.27.442,t1_Paradigm,2021.1.4,59.97071866349109,
R,right,Target,0,50,50,50,2431.2223468715965,2433.2238803049404,right,1,4,0.8478375381964725,C13H11,2022-11-15_12h12.27.442,t1_Paradigm,2021.1.4,59.97071866349109,
Y,left,Pretarget,0,51,51,51,2434.7227048865752,2436.7240971670544,left,1,4,0.9636046975647332,C13H11,2022-11-15_12h12.27.442,t1_Paradigm,2021.1.4,59.97071866349109,
W,left,Pretarget,0,52,52,52,2438.222599984336,2440.2233602849738,left,1,4,0.7446538354415679,C13H11,2022-11-15_12h12.27.442,t1_Paradigm,2021.1.4,59.97071866349109,
Z,left,Distractor,0,53,53,53,2441.7222150219895,2443.723203092013,left,1,4,0.7003135518316412,C13H11,2022-11-15_12h12.27.442,t1_Paradigm,2021.1.4,59.97071866349109,
Q,left,Distractor,0,54,54,54,2445.2225069517735,2447.2232380594214,left,1,4,0.7042953456839314,C13H11,2022-11-15_12h12.27.442,t1_Paradigm,2021.1.4,59.97071866349109,
Y,right,Target,0,55,55,55,2448.7224402249703,2450.722387613452,left,0,4,1.397297500181594,C13H11,2022-11-15_12h12.27.442,t1_Paradigm,2021.1.4,59.97071866349109,
W,right,Target,0,56,56,56,2452.22252042545,2454.223823522989,left,0,4,1.0320542104018386,C13H11,2022-11-15_12h12.27.442,t1_Paradigm,2021.1.4,59.97071866349109,
H,left,Pretarget,0,57,57,57,2455.7227202850772,2457.723286179724,left,1,4,0.7483924614061834,C13H11,2022-11-15_12h12.27.442,t1_Paradigm,2021.1.4,59.97071866349109,
M,left,Distractor,0,58,58,58,2459.222437337754,2461.2388040118094,left,1,4,0.7206450172379846,C13H11,2022-11-15_12h12.27.442,t1_Paradigm,2021.1.4,59.97071866349109,
R,left,Pretarget,0,59,59,59,2462.722190961853,2464.7228473226423,left,1,4,0.500622676583589,C13H11,2022-11-15_12h12.27.442,t1_Paradigm,2021.1.4,59.97071866349109,
J,left,Distractor,0,60,60,60,2466.2221636936883,2468.2228768364294,left,1,4,0.5206926884129643,C13H11,2022-11-15_12h12.27.442,t1_Paradigm,2021.1.4,59.97071866349109,
H,right,Target,0,61,61,61,2469.72240750317,2471.724097808663,right,1,4,0.4757614875998115,C13H11,2022-11-15_12h12.27.442,t1_Paradigm,2021.1.4,59.97071866349109,
Z,left,Distractor,0,62,62,62,2473.2225756033877,2475.223443051873,left,1,4,0.6561952631600434,C13H11,2022-11-15_12h12.27.442,t1_Paradigm,2021.1.4,59.97071866349109,
R,right,Target,0,63,63,63,2476.722449849025,2478.723733377643,right,1,4,1.0760720880498411,C13H11,2022-11-15_12h12.27.442,t1_Paradigm,2021.1.4,59.97071866349109,
J,left,Pretarget,0,0,0,0,2502.869959720105,2504.8721171132347,None,0,4,,C13H11,2022-11-15_12h12.27.442,t1_Paradigm,2021.1.4,59.97071866349109,
G,left,Pretarget,0,1,1,1,2506.3724388776027,2508.3737268974364,left,1,4,1.2817921152018243,C13H11,2022-11-15_12h12.27.442,t1_Paradigm,2021.1.4,59.97071866349109,
Z,left,Distractor,0,2,2,2,2509.872201484148,2511.8732245215797,left,1,4,0.48625556110346224,C13H11,2022-11-15_12h12.27.442,t1_Paradigm,2021.1.4,59.97071866349109,
F,left,Distractor,0,3,3,3,2513.3723666971637,2515.3737127821514,left,1,4,0.40967051073675975,C13H11,2022-11-15_12h12.27.442,t1_Paradigm,2021.1.4,59.97071866349109,
J,right,Target,0,4,4,4,2516.8721767824027,2518.873855859827,right,1,4,0.7176022107159952,C13H11,2022-11-15_12h12.27.442,t1_Paradigm,2021.1.4,59.97071866349109,
G,right,Target,0,5,5,5,2520.3721668375365,2522.372898586793,right,1,4,0.9628190535877366,C13H11,2022-11-15_12h12.27.442,t1_Paradigm,2021.1.4,59.97071866349109,
H,left,Distractor,0,6,6,6,2523.8724789778353,2525.874461213112,left,1,4,0.6771728237072239,C13H11,2022-11-15_12h12.27.442,t1_Paradigm,2021.1.4,59.97071866349109,
P,left,Distractor,0,7,7,7,2527.3723410329985,2529.372804591825,left,1,4,0.7788246971322224,C13H11,2022-11-15_12h12.27.442,t1_Paradigm,2021.1.4,59.97071866349109,
G,left,Lure,0,8,8,8,2530.87219218089,2532.873241203284,right,0,4,1.0063108160247793,C13H11,2022-11-15_12h12.27.442,t1_Paradigm,2021.1.4,59.97071866349109,
S,left,Distractor,0,9,9,9,2534.3721751783887,2536.3724324615614,left,1,4,0.4669837045366876,C13H11,2022-11-15_12h12.27.442,t1_Paradigm,2021.1.4,59.97071866349109,
R,left,Pretarget,0,10,10,10,2537.87240391018,2539.8733060052764,left,1,4,1.1101922630186891,C13H11,2022-11-15_12h12.27.442,t1_Paradigm,2021.1.4,59.97071866349109,
T,left,Pretarget,0,11,11,11,2541.3724536344816,2543.373417323557,left,1,4,0.7782446872006403,C13H11,2022-11-15_12h12.27.442,t1_Paradigm,2021.1.4,59.97071866349109,
X,left,Distractor,0,12,12,12,2544.8724853938766,2546.8733605416055,None,0,4,,C13H11,2022-11-15_12h12.27.442,t1_Paradigm,2021.1.4,59.97071866349109,
F,left,Pretarget,0,13,13,13,2548.3724221958983,2550.373915849792,left,1,4,0.6733870398602448,C13H11,2022-11-15_12h12.27.442,t1_Paradigm,2021.1.4,59.97071866349109,
R,right,Target,0,14,14,14,2551.8721485518327,2553.873183458927,right,1,4,0.7903658682189416,C13H11,2022-11-15_12h12.27.442,t1_Paradigm,2021.1.4,59.97071866349109,
T,right,Target,0,15,15,15,2555.372165875131,2557.3737965114706,left,0,4,0.47373979368421715,C13H11,2022-11-15_12h12.27.442,t1_Paradigm,2021.1.4,59.97071866349109,
C,left,Distractor,0,16,16,16,2558.8722159202443,2560.8729919401667,left,1,4,0.7504978846263839,C13H11,2022-11-15_12h12.27.442,t1_Paradigm,2021.1.4,59.97071866349109,
F,right,Target,0,17,17,17,2562.3726403412293,2564.3747826566687,left,0,4,0.5768378423090326,C13H11,2022-11-15_12h12.27.442,t1_Paradigm,2021.1.4,59.97071866349109,
M,left,Distractor,0,18,18,18,2565.8723111984145,2567.8725450630445,left,1,4,0.6471460816537729,C13H11,2022-11-15_12h12.27.442,t1_Paradigm,2021.1.4,59.97071866349109,
N,left,Distractor,0,19,19,19,2569.372479298647,2571.3727773236606,left,1,4,0.5227483873313759,C13H11,2022-11-15_12h12.27.442,t1_Paradigm,2021.1.4,59.97071866349109,
R,left,Lure,0,20,20,20,2572.8721841608494,2574.8732126519026,left,1,4,0.6384000580001157,C13H11,2022-11-15_12h12.27.442,t1_Paradigm,2021.1.4,59.97071866349109,
F,right,Target,0,21,21,21,2576.372628792349,2578.3736454137397,right,1,4,0.48202322093129624,C13H11,2022-11-15_12h12.27.442,t1_Paradigm,2021.1.4,59.97071866349109,
P,left,Distractor,0,22,22,22,2579.872105885166,2581.8744592883013,left,1,4,0.6612536683824146,C13H11,2022-11-15_12h12.27.442,t1_Paradigm,2021.1.4,59.97071866349109,
L,left,Pretarget,0,23,23,23,2583.372470316186,2585.384992178835,left,1,4,0.5903853088093456,C13H11,2022-11-15_12h12.27.442,t1_Paradigm,2021.1.4,59.97071866349109,
T,left,Distractor,0,24,24,24,2586.8724847522826,2588.874094215673,left,1,4,1.0534308485803194,C13H11,2022-11-15_12h12.27.442,t1_Paradigm,2021.1.4,59.97071866349109,
F,left,Distractor,0,25,25,25,2590.372519398894,2592.3728334640036,left,1,4,0.8990631941269385,C13H11,2022-11-15_12h12.27.442,t1_Paradigm,2021.1.4,59.97071866349109,
V,left,Distractor,0,26,26,26,2593.8721049227606,2595.873857463841,left,1,4,0.7417781667318195,C13H11,2022-11-15_12h12.27.442,t1_Paradigm,2021.1.4,59.97071866349109,
L,right,Target,0,27,27,27,2597.3722303563263,2599.372697764775,right,1,4,0.9872644832503283,C13H11,2022-11-15_12h12.27.442,t1_Paradigm,2021.1.4,59.97071866349109,
S,left,Pretarget,0,28,28,28,2600.872618526686,2602.873187308549,left,1,4,0.5584292638086481,C13H11,2022-11-15_12h12.27.442,t1_Paradigm,2021.1.4,59.97071866349109,
W,left,Distractor,0,29,29,29,2604.3724764114304,2606.372550195869,left,1,4,0.6747103479137877,C13H11,2022-11-15_12h12.27.442,t1_Paradigm,2021.1.4,59.97071866349109,
Q,left,Distractor,0,30,30,30,2607.872129303709,2609.874929263169,left,1,4,0.676641254874994,C13H11,2022-11-15_12h12.27.442,t1_Paradigm,2021.1.4,59.97071866349109,
L,right,Target,0,31,31,31,2611.372413534249,2613.374159017665,right,1,4,0.601266590267187,C13H11,2022-11-15_12h12.27.442,t1_Paradigm,2021.1.4,59.97071866349109,
S,right,Target,0,32,32,32,2614.87244978486,2616.874177944992,left,0,4,1.0692922595626442,C13H11,2022-11-15_12h12.27.442,t1_Paradigm,2021.1.4,59.97071866349109,
Z,left,Pretarget,0,33,33,33,2618.3724805818492,2620.3848904846236,left,1,4,0.6144460969371721,C13H11,2022-11-15_12h12.27.442,t1_Paradigm,2021.1.4,59.97071866349109,
F,left,Distractor,0,34,34,34,2621.8719563914638,2623.873704120502,left,1,4,0.6781047533877427,C13H11,2022-11-15_12h12.27.442,t1_Paradigm,2021.1.4,59.97071866349109,
V,left,Distractor,0,35,35,35,2625.372287459075,2627.3725691231957,left,1,4,0.6993084793211892,C13H11,2022-11-15_12h12.27.442,t1_Paradigm,2021.1.4,59.97071866349109,
M,left,Distractor,0,36,36,36,2628.8720163814287,2630.8741987971152,left,1,4,0.7651768196228659,C13H11,2022-11-15_12h12.27.442,t1_Paradigm,2021.1.4,59.97071866349109,
Z,right,Target,0,37,37,37,2632.3720359503495,2634.3723391081876,left,0,4,0.48323328590777237,C13H11,2022-11-15_12h12.27.442,t1_Paradigm,2021.1.4,59.97071866349109,
H,left,Pretarget,0,38,38,38,2635.872137644561,2637.8743152482202,left,1,4,0.5331487866642419,C13H11,2022-11-15_12h12.27.442,t1_Paradigm,2021.1.4,59.97071866349109,
L,left,Distractor,0,39,39,39,2639.3721998801484,2641.373392621812,left,1,4,1.0821288289444055,C13H11,2022-11-15_12h12.27.442,t1_Paradigm,2021.1.4,59.97071866349109,
G,left,Distractor,0,40,40,40,2642.87207925861,2644.8742016843316,left,1,4,0.7172765967261512,C13H11,2022-11-15_12h12.27.442,t1_Paradigm,2021.1.4,59.97071866349109,
K,left,Distractor,0,41,41,41,2646.372447860049,2648.3725755392225,left,1,4,0.5151482682413189,C13H11,2022-11-15_12h12.27.442,t1_Paradigm,2021.1.4,59.97071866349109,
H,right,Target,0,42,42,42,2649.872411609438,2651.8737910578348,right,1,4,0.4217971453763312,C13H11,2022-11-15_12h12.27.442,t1_Paradigm,2021.1.4,59.97071866349109,
B,left,Distractor,0,43,43,43,2653.372109413991,2655.385274163753,left,1,4,0.8144876087026205,C13H11,2022-11-15_12h12.27.442,t1_Paradigm,2021.1.4,59.97071866349109,
Z,left,Distractor,0,44,44,44,2656.872154967874,2658.872516511663,left,1,4,0.4949682213627966,C13H11,2022-11-15_12h12.27.442,t1_Paradigm,2021.1.4,59.97071866349109,
T,left,Pretarget,0,45,45,45,2660.3724042309914,2662.371906667162,left,1,4,0.4354790278885048,C13H11,2022-11-15_12h12.27.442,t1_Paradigm,2021.1.4,59.97071866349109,
H,right,Target,0,46,46,46,2663.8723933237197,2665.873479238333,left,0,4,0.6301839991647284,C13H11,2022-11-15_12h12.27.442,t1_Paradigm,2021.1.4,59.97071866349109,
F,left,Distractor,0,47,47,47,2667.372123850073,2669.3722887422773,left,1,4,0.8592507092980668,C13H11,2022-11-15_12h12.27.442,t1_Paradigm,2021.1.4,59.97071866349109,
R,left,Distractor,0,48,48,48,2670.8722005217423,2672.8731940454018,left,1,4,0.5584327926189872,C13H11,2022-11-15_12h12.27.442,t1_Paradigm,2021.1.4,59.97071866349109,
T,right,Target,0,49,49,49,2674.37225569968,2676.372442406413,right,1,4,1.3471567964443238,C13H11,2022-11-15_12h12.27.442,t1_Paradigm,2021.1.4,59.97071866349109,
H,right,Target,0,50,50,50,2677.872112942816,2679.8734965616313,left,0,4,0.9824107496824581,C13H11,2022-11-15_12h12.27.442,t1_Paradigm,2021.1.4,59.97071866349109,
Y,left,Pretarget,0,51,51,51,2681.372439840008,2683.3742353685375,left,1,4,0.9212537068669917,C13H11,2022-11-15_12h12.27.442,t1_Paradigm,2021.1.4,59.97071866349109,
H,left,Distractor,0,52,52,52,2684.872399739761,2686.873382356149,left,1,4,1.086180236801738,C13H11,2022-11-15_12h12.27.442,t1_Paradigm,2021.1.4,59.97071866349109,
S,left,Distractor,0,53,53,53,2688.3723545066896,2690.373518055363,left,1,4,0.9301543570763897,C13H11,2022-11-15_12h12.27.442,t1_Paradigm,2021.1.4,59.97071866349109,
Q,left,Distractor,0,54,54,54,2691.8724375943857,2693.873901734507,left,1,4,0.6617323048849357,C13H11,2022-11-15_12h12.27.442,t1_Paradigm,2021.1.4,59.97071866349109,
Y,right,Target,0,55,55,55,2695.372379850043,2697.37258484248,left,0,4,0.6027852667175466,C13H11,2022-11-15_12h12.27.442,t1_Paradigm,2021.1.4,59.97071866349109,
R,left,Distractor,0,56,56,56,2698.87208984507,2700.8736912884196,left,1,4,0.5578575947292848,C13H11,2022-11-15_12h12.27.442,t1_Paradigm,2021.1.4,59.97071866349109,
H,left,Pretarget,0,57,57,57,2702.3723711883795,2704.3720875994622,left,1,4,1.1713961429340998,C13H11,2022-11-15_12h12.27.442,t1_Paradigm,2021.1.4,59.97071866349109,
J,left,Distractor,0,58,58,58,2705.872371829988,2707.872856240938,left,1,4,0.7269353019510163,C13H11,2022-11-15_12h12.27.442,t1_Paradigm,2021.1.4,59.97071866349109,
V,left,Distractor,0,59,59,59,2709.372428291128,2711.388564308596,left,1,4,1.1632500189298298,C13H11,2022-11-15_12h12.27.442,t1_Paradigm,2021.1.4,59.97071866349109,
Y,left,Lure,0,60,60,60,2712.8723493738507,2714.8745013133594,left,1,4,0.6050857375230407,C13H11,2022-11-15_12h12.27.442,t1_Paradigm,2021.1.4,59.97071866349109,
H,right,Target,0,61,61,61,2716.372347128243,2718.373976160554,right,1,4,1.0415364745422266,C13H11,2022-11-15_12h12.27.442,t1_Paradigm,2021.1.4,59.97071866349109,
L,left,Distractor,0,62,62,62,2719.8721171132347,2721.873938305929,left,1,4,1.1736481726402417,C13H11,2022-11-15_12h12.27.442,t1_Paradigm,2021.1.4,59.97071866349109,
P,left,Distractor,0,63,63,63,2723.372165233537,2725.384939567317,left,1,4,0.6223326921608532,C13H11,2022-11-15_12h12.27.442,t1_Paradigm,2021.1.4,59.97071866349109,
