Letter,CorrAnswer,Stimulus,nback_run.thisRepN,nback_run.thisTrialN,nback_run.thisN,nback_run.thisIndex,fixcross.started,nback_trial.started,trial_resp.keys,trial_resp.corr,currentlevel,trial_resp.rt,Participant,date,expName,psychopyVersion,frameRate,
H,left,Distractor,0,0,0,0,244.23813978373073,246.183731416706,None,0,1,,C15T09,2022-12-02_13h11.45.580,t1_Paradigm,2021.1.4,59.96491195917922,
Q,left,Pretarget,0,1,1,1,247.68467200861778,249.68566072091926,left,1,1,0.8167064782464877,C15T09,2022-12-02_13h11.45.580,t1_Paradigm,2021.1.4,59.96491195917922,
Q,right,Target,0,2,2,2,251.18244532088283,253.18236479948973,None,0,1,,C15T09,2022-12-02_13h11.45.580,t1_Paradigm,2021.1.4,59.96491195917922,
T,left,Distractor,0,3,3,3,254.6823439473519,256.68429185810965,left,1,1,0.9220842131180689,C15T09,2022-12-02_13h11.45.580,t1_Paradigm,2021.1.4,59.96491195917922,
Q,left,Lure,0,4,4,4,258.1823997669271,260.1839056122699,None,0,1,,C15T09,2022-12-02_13h11.45.580,t1_Paradigm,2021.1.4,59.96491195917922,
L,left,Distractor,0,5,5,5,261.68234458897496,263.6842225647997,left,1,1,0.9944661627523601,C15T09,2022-12-02_13h11.45.580,t1_Paradigm,2021.1.4,59.96491195917922,
V,left,Pretarget,0,6,6,6,265.1814149043057,267.1843188054627,left,1,1,0.6144054284668528,C15T09,2022-12-02_13h11.45.580,t1_Paradigm,2021.1.4,59.96491195917922,
V,right,Target,0,7,7,7,268.6824174110661,270.68224064906826,right,1,1,0.7321962821879424,C15T09,2022-12-02_13h11.45.580,t1_Paradigm,2021.1.4,59.96491195917922,
K,left,Distractor,0,8,8,8,272.18236640351824,274.18423186807195,left,1,1,0.5901880734600127,C15T09,2022-12-02_13h11.45.580,t1_Paradigm,2021.1.4,59.96491195917922,
G,left,Pretarget,0,9,9,9,275.68218450871063,277.68445033434546,left,1,1,1.042040802189149,C15T09,2022-12-02_13h11.45.580,t1_Paradigm,2021.1.4,59.96491195917922,
G,right,Target,0,10,10,10,279.18240008776775,281.18216141092125,right,1,1,0.8082376219681464,C15T09,2022-12-02_13h11.45.580,t1_Paradigm,2021.1.4,59.96491195917922,
G,right,Target,0,11,11,11,282.68226085964125,284.68243986723246,right,1,1,0.5878330648411065,C15T09,2022-12-02_13h11.45.580,t1_Paradigm,2021.1.4,59.96491195917922,
P,left,Pretarget,0,12,12,12,286.18155766127165,288.18424790818244,left,1,1,0.686042154673487,C15T09,2022-12-02_13h11.45.580,t1_Paradigm,2021.1.4,59.96491195917922,
P,right,Target,0,13,13,13,289.68237987719476,291.682453982532,right,1,1,0.851805763260927,C15T09,2022-12-02_13h11.45.580,t1_Paradigm,2021.1.4,59.96491195917922,
G,left,Lure,0,14,14,14,293.1823878972791,295.1842065246892,left,1,1,0.6622793762944639,C15T09,2022-12-02_13h11.45.580,t1_Paradigm,2021.1.4,59.96491195917922,
Y,left,Distractor,0,15,15,15,296.68240586220054,298.68422866007313,left,1,1,0.6180667435401119,C15T09,2022-12-02_13h11.45.580,t1_Paradigm,2021.1.4,59.96491195917922,
B,left,Distractor,0,16,16,16,300.18237666919595,302.18472879059846,left,1,1,0.6056664568604901,C15T09,2022-12-02_13h11.45.580,t1_Paradigm,2021.1.4,59.96491195917922,
T,left,Pretarget,0,17,17,17,303.68239848373923,305.6840278378804,left,1,1,0.5784521680907346,C15T09,2022-12-02_13h11.45.580,t1_Paradigm,2021.1.4,59.96491195917922,
T,right,Target,0,18,18,18,307.18231956643285,309.18232117040316,right,1,1,0.8719514972763136,C15T09,2022-12-02_13h11.45.580,t1_Paradigm,2021.1.4,59.96491195917922,
S,left,Distractor,0,19,19,19,310.68234587216284,312.6859340443625,left,1,1,0.6804114351398312,C15T09,2022-12-02_13h11.45.580,t1_Paradigm,2021.1.4,59.96491195917922,
T,left,Lure,0,20,20,20,314.1822935814271,316.18451481556986,left,1,1,1.037917852809187,C15T09,2022-12-02_13h11.45.580,t1_Paradigm,2021.1.4,59.96491195917922,
J,left,Distractor,0,21,21,21,317.68237987719476,319.68421743198996,left,1,1,0.6260964215616696,C15T09,2022-12-02_13h11.45.580,t1_Paradigm,2021.1.4,59.96491195917922,
P,left,Distractor,0,22,22,22,321.1824478872586,323.1840361787472,left,1,1,0.6624535719165578,C15T09,2022-12-02_13h11.45.580,t1_Paradigm,2021.1.4,59.96491195917922,
F,left,Distractor,0,23,23,23,324.682374744385,326.68477530695964,left,1,1,0.6976227918057702,C15T09,2022-12-02_13h11.45.580,t1_Paradigm,2021.1.4,59.96491195917922,
L,left,Distractor,0,24,24,24,328.18240329576656,330.1814877263969,left,1,1,0.9130420834990218,C15T09,2022-12-02_13h11.45.580,t1_Paradigm,2021.1.4,59.96491195917922,
W,left,Pretarget,0,25,25,25,331.68245013291016,333.68487539718626,left,1,1,0.5935783106833696,C15T09,2022-12-02_13h11.45.580,t1_Paradigm,2021.1.4,59.96491195917922,
W,right,Target,0,26,26,26,335.1821902831434,337.18225829320727,right,1,1,0.5680350803304464,C15T09,2022-12-02_13h11.45.580,t1_Paradigm,2021.1.4,59.96491195917922,
V,left,Distractor,0,27,27,27,338.6822425738792,340.6841006599716,left,1,1,0.6342037337599322,C15T09,2022-12-02_13h11.45.580,t1_Paradigm,2021.1.4,59.96491195917922,
W,left,Lure,0,28,28,28,342.1823423433816,344.18450294592185,left,1,1,0.717792586016003,C15T09,2022-12-02_13h11.45.580,t1_Paradigm,2021.1.4,59.96491195917922,
R,left,Pretarget,0,29,29,29,345.68236800754676,347.6855121895205,left,1,1,0.5132356554968283,C15T09,2022-12-02_13h11.45.580,t1_Paradigm,2021.1.4,59.96491195917922,
R,right,Target,0,30,30,30,349.18217745103175,351.18235902505694,right,1,1,0.5519449272542261,C15T09,2022-12-02_13h11.45.580,t1_Paradigm,2021.1.4,59.96491195917922,
G,left,Distractor,0,31,31,31,352.68150344572496,354.6841523091425,left,1,1,0.5541947127785534,C15T09,2022-12-02_13h11.45.580,t1_Paradigm,2021.1.4,59.96491195917922,
R,left,Lure,0,32,32,32,356.18227689969353,358.1844509759685,left,1,1,0.6538057081052102,C15T09,2022-12-02_13h11.45.580,t1_Paradigm,2021.1.4,59.96491195917922,
S,left,Distractor,0,33,33,33,359.68233560654335,361.6950470712618,left,1,1,0.7113544074818492,C15T09,2022-12-02_13h11.45.580,t1_Paradigm,2021.1.4,59.96491195917922,
R,left,Lure,0,34,34,34,363.1823962381459,365.1844227453694,left,1,1,0.48588534659938887,C15T09,2022-12-02_13h11.45.580,t1_Paradigm,2021.1.4,59.96491195917922,
P,left,Pretarget,0,35,35,35,366.6824437168543,368.68422031920636,left,1,1,0.6501042927848175,C15T09,2022-12-02_13h11.45.580,t1_Paradigm,2021.1.4,59.96491195917922,
P,right,Target,0,36,36,36,370.1822708044783,372.1824639273691,right,1,1,0.5440868783625774,C15T09,2022-12-02_13h11.45.580,t1_Paradigm,2021.1.4,59.96491195917922,
Y,left,Pretarget,0,37,37,37,373.68235036340775,375.6846354372101,left,1,1,0.5778574008727446,C15T09,2022-12-02_13h11.45.580,t1_Paradigm,2021.1.4,59.96491195917922,
Y,right,Target,0,38,38,38,377.1823628746788,379.1822884486173,right,1,1,0.744174713967368,C15T09,2022-12-02_13h11.45.580,t1_Paradigm,2021.1.4,59.96491195917922,
J,left,Distractor,0,39,39,39,380.682404258172,382.6835601083585,left,1,1,0.7309137151460163,C15T09,2022-12-02_13h11.45.580,t1_Paradigm,2021.1.4,59.96491195917922,
Y,left,Lure,0,40,40,40,384.1823801980354,386.18410868005594,left,1,1,0.5743455796036869,C15T09,2022-12-02_13h11.45.580,t1_Paradigm,2021.1.4,59.96491195917922,
T,left,Distractor,0,41,41,41,387.6822730500717,389.69505829934496,left,1,1,0.6634021838544868,C15T09,2022-12-02_13h11.45.580,t1_Paradigm,2021.1.4,59.96491195917922,
V,left,Distractor,0,42,42,42,391.1822412906913,393.18150761612924,left,1,1,0.6329975176486187,C15T09,2022-12-02_13h11.45.580,t1_Paradigm,2021.1.4,59.96491195917922,
N,left,Pretarget,0,43,43,43,394.6823538922472,396.6846806703252,left,1,1,0.5856355700525455,C15T09,2022-12-02_13h11.45.580,t1_Paradigm,2021.1.4,59.96491195917922,
N,right,Target,0,44,44,44,398.1823949548998,400.1824671354261,right,1,1,0.43211088463431224,C15T09,2022-12-02_13h11.45.580,t1_Paradigm,2021.1.4,59.96491195917922,
N,right,Target,0,45,45,45,401.6822999974829,403.68224898993503,right,1,1,0.5802037478424609,C15T09,2022-12-02_13h11.45.580,t1_Paradigm,2021.1.4,59.96491195917922,
X,left,Distractor,0,46,46,46,405.1824799674796,407.1845347053022,left,1,1,0.5657711795647629,C15T09,2022-12-02_13h11.45.580,t1_Paradigm,2021.1.4,59.96491195917922,
Z,left,Distractor,0,47,47,47,408.6822906942107,410.6818486288539,left,1,1,0.9086156552657485,C15T09,2022-12-02_13h11.45.580,t1_Paradigm,2021.1.4,59.96491195917922,
H,left,Pretarget,0,48,48,48,412.1815435459721,414.19503199355677,left,1,1,0.8675148034235463,C15T09,2022-12-02_13h11.45.580,t1_Paradigm,2021.1.4,59.96491195917922,
H,right,Target,0,49,49,49,415.68137159600155,417.6822076064418,right,1,1,0.644297132093925,C15T09,2022-12-02_13h11.45.580,t1_Paradigm,2021.1.4,59.96491195917922,
K,left,Distractor,0,50,50,50,419.18160449841525,421.1841773316846,left,1,1,0.7423419712577015,C15T09,2022-12-02_13h11.45.580,t1_Paradigm,2021.1.4,59.96491195917922,
V,left,Pretarget,0,51,51,51,422.6825691504637,424.684546254226,left,1,1,0.5378241785801947,C15T09,2022-12-02_13h11.45.580,t1_Paradigm,2021.1.4,59.96491195917922,
V,right,Target,0,52,52,52,426.1823712155456,428.1823477969738,right,1,1,0.816407490579877,C15T09,2022-12-02_13h11.45.580,t1_Paradigm,2021.1.4,59.96491195917922,
R,left,Distractor,0,53,53,53,429.6824405087973,431.68437687063124,left,1,1,0.5301242852001451,C15T09,2022-12-02_13h11.45.580,t1_Paradigm,2021.1.4,59.96491195917922,
V,left,Lure,0,54,54,54,433.1822922982392,435.1842677979148,left,1,1,0.8381572354119271,C15T09,2022-12-02_13h11.45.580,t1_Paradigm,2021.1.4,59.96491195917922,
Y,left,Distractor,0,55,55,55,436.6823952757404,438.6815894207102,left,1,1,0.6048051030375063,C15T09,2022-12-02_13h11.45.580,t1_Paradigm,2021.1.4,59.96491195917922,
Q,left,Distractor,0,56,56,56,440.1823202079977,442.1841516675195,left,1,1,0.68621057580458,C15T09,2022-12-02_13h11.45.580,t1_Paradigm,2021.1.4,59.96491195917922,
Z,left,Pretarget,0,57,57,57,443.6820253908518,445.68470537208486,left,1,1,0.48151120910188183,C15T09,2022-12-02_13h11.45.580,t1_Paradigm,2021.1.4,59.96491195917922,
Z,right,Target,0,58,58,58,447.18238436843967,449.1824151654728,right,1,1,0.47194681357359514,C15T09,2022-12-02_13h11.45.580,t1_Paradigm,2021.1.4,59.96491195917922,
B,left,Distractor,0,59,59,59,450.6824876667233,452.6844769609161,left,1,1,0.506008624448441,C15T09,2022-12-02_13h11.45.580,t1_Paradigm,2021.1.4,59.96491195917922,
S,left,Pretarget,0,60,60,60,454.18243120558327,456.18434029922355,left,1,1,0.6700405429583043,C15T09,2022-12-02_13h11.45.580,t1_Paradigm,2021.1.4,59.96491195917922,
S,right,Target,0,61,61,61,457.6824305639602,459.6824450000422,right,1,1,0.4838822578894906,C15T09,2022-12-02_13h11.45.580,t1_Paradigm,2021.1.4,59.96491195917922,
T,left,Distractor,0,62,62,62,461.18211168661946,463.18295379227493,left,1,1,0.6635914571234025,C15T09,2022-12-02_13h11.45.580,t1_Paradigm,2021.1.4,59.96491195917922,
D,left,Distractor,0,63,63,63,464.6824886291288,466.68179794208845,left,1,1,0.6046135841752402,C15T09,2022-12-02_13h11.45.580,t1_Paradigm,2021.1.4,59.96491195917922,
R,left,Distractor,0,0,0,0,486.8124641904142,488.81787836848525,None,0,1,,C15T09,2022-12-02_13h11.45.580,t1_Paradigm,2021.1.4,59.96491195917922,
V,left,Distractor,0,1,1,1,490.31576941505773,492.3177776365774,left,1,1,0.8565918106469326,C15T09,2022-12-02_13h11.45.580,t1_Paradigm,2021.1.4,59.96491195917922,
N,left,Pretarget,0,2,2,2,493.8156651543686,495.81678058346733,left,1,1,0.7175930470693856,C15T09,2022-12-02_13h11.45.580,t1_Paradigm,2021.1.4,59.96491195917922,
N,right,Target,0,3,3,3,497.31574599654414,499.31553394632647,right,1,1,0.6909555605379865,C15T09,2022-12-02_13h11.45.580,t1_Paradigm,2021.1.4,59.96491195917922,
S,left,Distractor,0,4,4,4,500.81467195088044,502.81706802221015,left,1,1,0.5654340164619498,C15T09,2022-12-02_13h11.45.580,t1_Paradigm,2021.1.4,59.96491195917922,
N,left,Lure,0,5,5,5,504.31566707917955,506.31724382180255,left,1,1,0.9691426818608306,C15T09,2022-12-02_13h11.45.580,t1_Paradigm,2021.1.4,59.96491195917922,
Z,left,Distractor,0,6,6,6,507.8156035603606,509.8171421275474,left,1,1,0.6053482211427763,C15T09,2022-12-02_13h11.45.580,t1_Paradigm,2021.1.4,59.96491195917922,
L,left,Pretarget,0,7,7,7,511.31563211174216,513.3174302078551,left,1,1,0.5291060591116548,C15T09,2022-12-02_13h11.45.580,t1_Paradigm,2021.1.4,59.96491195917922,
L,right,Target,0,8,8,8,514.815594577929,516.8160202823929,left,0,1,0.4383844916592352,C15T09,2022-12-02_13h11.45.580,t1_Paradigm,2021.1.4,59.96491195917922,
H,left,Distractor,0,9,9,9,518.3156600215589,520.317467420944,left,1,1,0.4890359446289949,C15T09,2022-12-02_13h11.45.580,t1_Paradigm,2021.1.4,59.96491195917922,
L,left,Lure,0,10,10,10,521.8157228987548,523.8177301578689,left,1,1,0.9086519058910199,C15T09,2022-12-02_13h11.45.580,t1_Paradigm,2021.1.4,59.96491195917922,
X,left,Pretarget,0,11,11,11,525.3149221765925,527.3175549998996,left,1,1,0.5289976279600523,C15T09,2022-12-02_13h11.45.580,t1_Paradigm,2021.1.4,59.96491195917922,
X,right,Target,0,12,12,12,528.8159015855636,530.8158223474165,right,1,1,0.4865384997683577,C15T09,2022-12-02_13h11.45.580,t1_Paradigm,2021.1.4,59.96491195917922,
X,right,Target,0,13,13,13,532.3155689137639,534.3156080516055,right,1,1,0.6508010750403628,C15T09,2022-12-02_13h11.45.580,t1_Paradigm,2021.1.4,59.96491195917922,
R,left,Distractor,0,14,14,14,535.815668041585,537.817699360894,left,1,1,0.4448759233346209,C15T09,2022-12-02_13h11.45.580,t1_Paradigm,2021.1.4,59.96491195917922,
T,left,Distractor,0,15,15,15,539.314925705432,541.3172300273436,left,1,1,0.513333820970729,C15T09,2022-12-02_13h11.45.580,t1_Paradigm,2021.1.4,59.96491195917922,
V,left,Pretarget,0,16,16,16,542.8156744576409,544.8174250750453,left,1,1,0.5651436905027367,C15T09,2022-12-02_13h11.45.580,t1_Paradigm,2021.1.4,59.96491195917922,
V,right,Target,0,17,17,17,546.3147219960229,548.3155256054597,right,1,1,0.6348363555734977,C15T09,2022-12-02_13h11.45.580,t1_Paradigm,2021.1.4,59.96491195917922,
N,left,Distractor,0,18,18,18,549.8158650141559,551.8175646239542,left,1,1,0.5729247468989342,C15T09,2022-12-02_13h11.45.580,t1_Paradigm,2021.1.4,59.96491195917922,
B,left,Distractor,0,19,19,19,553.3156811944791,555.3179540777928,left,1,1,0.6885697548859753,C15T09,2022-12-02_13h11.45.580,t1_Paradigm,2021.1.4,59.96491195917922,
V,left,Lure,0,20,20,20,556.8158245930681,558.8173002830008,left,1,1,0.5171048503252678,C15T09,2022-12-02_13h11.45.580,t1_Paradigm,2021.1.4,59.96491195917922,
P,left,Distractor,0,21,21,21,560.3156067684176,562.3176528445911,left,1,1,0.5849737551761791,C15T09,2022-12-02_13h11.45.580,t1_Paradigm,2021.1.4,59.96491195917922,
K,left,Pretarget,0,22,22,22,563.8158695053426,565.8172954709735,left,1,1,0.557242333306931,C15T09,2022-12-02_13h11.45.580,t1_Paradigm,2021.1.4,59.96491195917922,
K,right,Target,0,23,23,23,567.315875600616,569.3158589188824,right,1,1,0.38656371482647955,C15T09,2022-12-02_13h11.45.580,t1_Paradigm,2021.1.4,59.96491195917922,
J,left,Pretarget,0,24,24,24,570.815776793519,572.817010277824,left,1,1,0.5818144954973832,C15T09,2022-12-02_13h11.45.580,t1_Paradigm,2021.1.4,59.96491195917922,
J,right,Target,0,25,25,25,574.3148580161505,576.3157402221113,right,1,1,1.1630210709408857,C15T09,2022-12-02_13h11.45.580,t1_Paradigm,2021.1.4,59.96491195917922,
H,left,Distractor,0,26,26,26,577.8158037409303,579.8162089140387,left,1,1,0.4942351852077991,C15T09,2022-12-02_13h11.45.580,t1_Paradigm,2021.1.4,59.96491195917922,
J,left,Lure,0,27,27,27,581.3156750992639,583.3322657037061,left,1,1,0.6102876119548455,C15T09,2022-12-02_13h11.45.580,t1_Paradigm,2021.1.4,59.96491195917922,
V,left,Distractor,0,28,28,28,584.8157681318698,586.8174622880761,left,1,1,0.5649791189935058,C15T09,2022-12-02_13h11.45.580,t1_Paradigm,2021.1.4,59.96491195917922,
Z,left,Pretarget,0,29,29,29,588.3157825679518,590.3150145676336,left,1,1,0.45949776499764994,C15T09,2022-12-02_13h11.45.580,t1_Paradigm,2021.1.4,59.96491195917922,
Z,right,Target,0,30,30,30,591.8157338060555,593.8157860967913,right,1,1,0.6067241415730678,C15T09,2022-12-02_13h11.45.580,t1_Paradigm,2021.1.4,59.96491195917922,
T,left,Distractor,0,31,31,31,595.314985374629,597.3176679222379,left,1,1,0.880801145627629,C15T09,2022-12-02_13h11.45.580,t1_Paradigm,2021.1.4,59.96491195917922,
Z,left,Lure,0,32,32,32,598.8156930641853,600.8181218573009,left,1,1,0.6763561750994995,C15T09,2022-12-02_13h11.45.580,t1_Paradigm,2021.1.4,59.96491195917922,
F,left,Distractor,0,33,33,33,602.3158486532047,604.3149420663249,left,1,1,0.571586360281799,C15T09,2022-12-02_13h11.45.580,t1_Paradigm,2021.1.4,59.96491195917922,
Y,left,Pretarget,0,34,34,34,605.8158005328733,607.8178780477028,left,1,1,0.8447137899347581,C15T09,2022-12-02_13h11.45.580,t1_Paradigm,2021.1.4,59.96491195917922,
Y,right,Target,0,35,35,35,609.3157225779723,611.3156914601568,right,1,1,0.49886243557557464,C15T09,2022-12-02_13h11.45.580,t1_Paradigm,2021.1.4,59.96491195917922,
Y,right,Target,0,36,36,36,612.8148153494694,614.8156086932286,right,1,1,0.6631368805537932,C15T09,2022-12-02_13h11.45.580,t1_Paradigm,2021.1.4,59.96491195917922,
W,left,Distractor,0,37,37,37,616.3155300966464,618.3178969750297,left,1,1,0.6325211264775135,C15T09,2022-12-02_13h11.45.580,t1_Paradigm,2021.1.4,59.96491195917922,
Q,left,Distractor,0,38,38,38,619.815715199511,621.8178623283748,left,1,1,0.6685712690814398,C15T09,2022-12-02_13h11.45.580,t1_Paradigm,2021.1.4,59.96491195917922,
P,left,Pretarget,0,39,39,39,623.3156949889963,625.3179938572575,left,1,1,0.800196074298583,C15T09,2022-12-02_13h11.45.580,t1_Paradigm,2021.1.4,59.96491195917922,
P,right,Target,0,40,40,40,626.8158210642287,628.8157867384143,right,1,1,0.806835074967239,C15T09,2022-12-02_13h11.45.580,t1_Paradigm,2021.1.4,59.96491195917922,
J,left,Distractor,0,41,41,41,630.3156908185338,632.3178818973247,left,1,1,0.7926161608775146,C15T09,2022-12-02_13h11.45.580,t1_Paradigm,2021.1.4,59.96491195917922,
P,left,Lure,0,42,42,42,633.8160263776081,635.8175588495214,None,0,1,,C15T09,2022-12-02_13h11.45.580,t1_Paradigm,2021.1.4,59.96491195917922,
L,left,Distractor,0,43,43,43,637.3158313299064,639.3179117318941,left,1,1,0.6086893755709752,C15T09,2022-12-02_13h11.45.580,t1_Paradigm,2021.1.4,59.96491195917922,
Z,left,Distractor,0,44,44,44,640.8158682221547,642.8172560122912,left,1,1,0.4854205042938702,C15T09,2022-12-02_13h11.45.580,t1_Paradigm,2021.1.4,59.96491195917922,
F,left,Pretarget,0,45,45,45,644.3158399915555,646.3179210351664,left,1,1,0.5846253640484065,C15T09,2022-12-02_13h11.45.580,t1_Paradigm,2021.1.4,59.96491195917922,
F,right,Target,0,46,46,46,647.8158322923118,649.8156523223151,right,1,1,0.4628466187277809,C15T09,2022-12-02_13h11.45.580,t1_Paradigm,2021.1.4,59.96491195917922,
G,left,Pretarget,0,47,47,47,651.31570268824,653.317605045042,left,1,1,1.2328516809502617,C15T09,2022-12-02_13h11.45.580,t1_Paradigm,2021.1.4,59.96491195917922,
G,right,Target,0,48,48,48,654.8156199212535,656.81577871833,right,1,1,0.48664757248479873,C15T09,2022-12-02_13h11.45.580,t1_Paradigm,2021.1.4,59.96491195917922,
V,left,Distractor,0,49,49,49,658.3156606631819,660.3175299773575,left,1,1,0.5050497467746027,C15T09,2022-12-02_13h11.45.580,t1_Paradigm,2021.1.4,59.96491195917922,
G,left,Lure,0,50,50,50,661.8147373945685,663.8175437718164,left,1,1,0.8773021564702503,C15T09,2022-12-02_13h11.45.580,t1_Paradigm,2021.1.4,59.96491195917922,
Q,left,Pretarget,0,51,51,51,665.3157135954825,667.3179746091482,left,1,1,0.7364911814802326,C15T09,2022-12-02_13h11.45.580,t1_Paradigm,2021.1.4,59.96491195917922,
Q,right,Target,0,52,52,52,668.815735410084,670.8158124025795,right,1,1,0.8546602608985268,C15T09,2022-12-02_13h11.45.580,t1_Paradigm,2021.1.4,59.96491195917922,
Y,left,Distractor,0,53,53,53,672.3157710190862,674.3175928545534,left,1,1,0.6970171174034476,C15T09,2022-12-02_13h11.45.580,t1_Paradigm,2021.1.4,59.96491195917922,
V,left,Distractor,0,54,54,54,675.8157601118437,677.8176165939076,left,1,1,0.5249244029982947,C15T09,2022-12-02_13h11.45.580,t1_Paradigm,2021.1.4,59.96491195917922,
B,left,Distractor,0,55,55,55,679.3157187283505,681.3175967041752,left,1,1,0.5290287457755767,C15T09,2022-12-02_13h11.45.580,t1_Paradigm,2021.1.4,59.96491195917922,
J,left,Pretarget,0,56,56,56,682.815542287135,684.8172736564302,left,1,1,0.6453490423737094,C15T09,2022-12-02_13h11.45.580,t1_Paradigm,2021.1.4,59.96491195917922,
J,right,Target,0,57,57,57,686.3157087834552,688.3159580467618,right,1,1,0.4106572402524762,C15T09,2022-12-02_13h11.45.580,t1_Paradigm,2021.1.4,59.96491195917922,
H,left,Distractor,0,58,58,58,689.8158188186353,691.8174853858654,left,1,1,0.8613470611162484,C15T09,2022-12-02_13h11.45.580,t1_Paradigm,2021.1.4,59.96491195917922,
J,left,Lure,0,59,59,59,693.3157245027833,695.3172999621602,left,1,1,0.8650112633476965,C15T09,2022-12-02_13h11.45.580,t1_Paradigm,2021.1.4,59.96491195917922,
D,left,Pretarget,0,60,60,60,696.815669966396,698.8174587592366,left,1,1,0.5651879611541517,C15T09,2022-12-02_13h11.45.580,t1_Paradigm,2021.1.4,59.96491195917922,
D,right,Target,0,61,61,61,700.3159080016194,702.3158794502378,right,1,1,0.426735523622483,C15T09,2022-12-02_13h11.45.580,t1_Paradigm,2021.1.4,59.96491195917922,
R,left,Distractor,0,62,62,62,703.8156898561283,705.8174459271831,left,1,1,0.4458226105198264,C15T09,2022-12-02_13h11.45.580,t1_Paradigm,2021.1.4,59.96491195917922,
F,left,Distractor,0,63,63,63,707.3158672597492,709.3150155300391,left,1,1,0.6915971648995765,C15T09,2022-12-02_13h11.45.580,t1_Paradigm,2021.1.4,59.96491195917922,
F,left,Distractor,0,0,0,0,899.4962190257502,901.4992255835677,None,0,2,,C15T09,2022-12-02_13h11.45.580,t1_Paradigm,2021.1.4,59.96491195917922,
N,left,Pretarget,0,1,1,1,902.9992024858366,905.0014291735715,None,0,2,,C15T09,2022-12-02_13h11.45.580,t1_Paradigm,2021.1.4,59.96491195917922,
V,left,Distractor,0,2,2,2,906.499296480848,908.5010981057421,left,1,2,1.1056225069332868,C15T09,2022-12-02_13h11.45.580,t1_Paradigm,2021.1.4,59.96491195917922,
N,right,Target,0,3,3,3,909.9991043203627,912.0015639105113,right,1,2,0.7571505197556689,C15T09,2022-12-02_13h11.45.580,t1_Paradigm,2021.1.4,59.96491195917922,
N,left,Lure,0,4,4,4,913.4990440095426,915.4993093129015,left,1,2,0.8273773204418831,C15T09,2022-12-02_13h11.45.580,t1_Paradigm,2021.1.4,59.96491195917922,
X,left,Distractor,0,5,5,5,916.9992169219186,919.000824140734,left,1,2,0.8138452437124215,C15T09,2022-12-02_13h11.45.580,t1_Paradigm,2021.1.4,59.96491195917922,
G,left,Pretarget,0,6,6,6,920.4991296637454,922.5006817045505,left,1,2,0.8820108905783854,C15T09,2022-12-02_13h11.45.580,t1_Paradigm,2021.1.4,59.96491195917922,
H,left,Pretarget,0,7,7,7,923.9992024858366,926.0008180454606,left,1,2,0.6138363254722208,C15T09,2022-12-02_13h11.45.580,t1_Paradigm,2021.1.4,59.96491195917922,
G,right,Target,0,8,8,8,927.4991312677157,929.5011872887844,right,1,2,0.6173045175964944,C15T09,2022-12-02_13h11.45.580,t1_Paradigm,2021.1.4,59.96491195917922,
H,right,Target,0,9,9,9,930.9992708166828,933.0010753287934,right,1,2,0.9736294209142216,C15T09,2022-12-02_13h11.45.580,t1_Paradigm,2021.1.4,59.96491195917922,
T,left,Pretarget,0,10,10,10,934.4991136236349,936.500792060513,left,1,2,1.2982122336979955,C15T09,2022-12-02_13h11.45.580,t1_Paradigm,2021.1.4,59.96491195917922,
K,left,Distractor,0,11,11,11,937.9992149971076,940.0010618551169,None,0,2,,C15T09,2022-12-02_13h11.45.580,t1_Paradigm,2021.1.4,59.96491195917922,
T,right,Target,0,12,12,12,941.4992413028958,943.501259790035,right,1,2,0.7776953316642903,C15T09,2022-12-02_13h11.45.580,t1_Paradigm,2021.1.4,59.96491195917922,
T,left,Lure,0,13,13,13,944.9990690320847,946.9992807615199,left,1,2,0.6393012800253928,C15T09,2022-12-02_13h11.45.580,t1_Paradigm,2021.1.4,59.96491195917922,
J,left,Distractor,0,14,14,14,948.4993423555279,950.5011205619085,None,0,2,,C15T09,2022-12-02_13h11.45.580,t1_Paradigm,2021.1.4,59.96491195917922,
Q,left,Pretarget,0,15,15,15,951.9992089018342,954.0010679503903,left,1,2,1.2856736813555472,C15T09,2022-12-02_13h11.45.580,t1_Paradigm,2021.1.4,59.96491195917922,
M,left,Distractor,0,16,16,16,955.4992541349493,957.5026556002558,left,1,2,0.6318118328345008,C15T09,2022-12-02_13h11.45.580,t1_Paradigm,2021.1.4,59.96491195917922,
Q,right,Target,0,17,17,17,958.9992560597602,961.0009729929152,right,1,2,0.7016257611685432,C15T09,2022-12-02_13h11.45.580,t1_Paradigm,2021.1.4,59.96491195917922,
R,left,Distractor,0,18,18,18,962.4984534127871,964.501043569413,left,1,2,0.9297193045495078,C15T09,2022-12-02_13h11.45.580,t1_Paradigm,2021.1.4,59.96491195917922,
W,left,Distractor,0,19,19,19,965.99902925262,968.0006877998239,left,1,2,0.8539269071770832,C15T09,2022-12-02_13h11.45.580,t1_Paradigm,2021.1.4,59.96491195917922,
C,left,Pretarget,0,20,20,20,969.4984203701606,971.5012710181181,left,1,2,0.617190953635145,C15T09,2022-12-02_13h11.45.580,t1_Paradigm,2021.1.4,59.96491195917922,
T,left,Distractor,0,21,21,21,972.9991758592078,975.0008514089277,left,1,2,0.7817457796772942,C15T09,2022-12-02_13h11.45.580,t1_Paradigm,2021.1.4,59.96491195917922,
C,right,Target,0,22,22,22,976.4991479494493,978.5011212035315,right,1,2,1.009494139929302,C15T09,2022-12-02_13h11.45.580,t1_Paradigm,2021.1.4,59.96491195917922,
F,left,Pretarget,0,23,23,23,979.9993208618253,982.0010166220018,left,1,2,0.5979457112844102,C15T09,2022-12-02_13h11.45.580,t1_Paradigm,2021.1.4,59.96491195917922,
C,right,Target,0,24,24,24,983.4993012928753,985.5119710533763,None,0,2,,C15T09,2022-12-02_13h11.45.580,t1_Paradigm,2021.1.4,59.96491195917922,
F,right,Target,0,25,25,25,986.9984261445934,989.000170345942,right,1,2,0.7024158969288692,C15T09,2022-12-02_13h11.45.580,t1_Paradigm,2021.1.4,59.96491195917922,
H,left,Distractor,0,26,26,26,990.499138646177,992.5009810129995,left,1,2,0.4980575428926386,C15T09,2022-12-02_13h11.45.580,t1_Paradigm,2021.1.4,59.96491195917922,
H,left,Lure,0,27,27,27,993.9989259543363,995.9992268667556,left,1,2,1.3193595120683312,C15T09,2022-12-02_13h11.45.580,t1_Paradigm,2021.1.4,59.96491195917922,
P,left,Distractor,0,28,28,28,997.4990825058194,999.5008626370109,left,1,2,0.6334767960943282,C15T09,2022-12-02_13h11.45.580,t1_Paradigm,2021.1.4,59.96491195917922,
G,left,Pretarget,0,29,29,29,1000.9994042703765,1003.0007080103387,left,1,2,0.6698891243431717,C15T09,2022-12-02_13h11.45.580,t1_Paradigm,2021.1.4,59.96491195917922,
K,left,Distractor,0,30,30,30,1004.4992214131635,1006.5015032789088,left,1,2,0.6571176695870236,C15T09,2022-12-02_13h11.45.580,t1_Paradigm,2021.1.4,59.96491195917922,
G,right,Target,0,31,31,31,1007.9991440998274,1010.001102596987,left,0,2,1.0936415087198839,C15T09,2022-12-02_13h11.45.580,t1_Paradigm,2021.1.4,59.96491195917922,
M,left,Pretarget,0,32,32,32,1011.4990841097897,1013.5010294541134,left,1,2,0.8577098062378354,C15T09,2022-12-02_13h11.45.580,t1_Paradigm,2021.1.4,59.96491195917922,
B,left,Distractor,0,33,33,33,1014.9991203604732,1017.0155245788628,None,0,2,,C15T09,2022-12-02_13h11.45.580,t1_Paradigm,2021.1.4,59.96491195917922,
M,right,Target,0,34,34,34,1018.4991678391816,1020.5010759704164,right,1,2,0.4655365448561497,C15T09,2022-12-02_13h11.45.580,t1_Paradigm,2021.1.4,59.96491195917922,
M,left,Lure,0,35,35,35,1021.9991004707408,1023.9992133930791,left,1,2,0.6475693141110241,C15T09,2022-12-02_13h11.45.580,t1_Paradigm,2021.1.4,59.96491195917922,
T,left,Distractor,0,36,36,36,1025.499091488251,1027.5011507173185,left,1,2,0.7137479123775847,C15T09,2022-12-02_13h11.45.580,t1_Paradigm,2021.1.4,59.96491195917922,
F,left,Distractor,0,37,37,37,1028.999093413062,1031.000732391316,left,1,2,0.7819815692491829,C15T09,2022-12-02_13h11.45.580,t1_Paradigm,2021.1.4,59.96491195917922,
X,left,Distractor,0,38,38,38,1032.499291989603,1034.5011494341306,left,1,2,0.529657838807907,C15T09,2022-12-02_13h11.45.580,t1_Paradigm,2021.1.4,59.96491195917922,
C,left,Distractor,0,39,39,39,1035.9991296637454,1038.0012857750407,left,1,2,0.5333294195588678,C15T09,2022-12-02_13h11.45.580,t1_Paradigm,2021.1.4,59.96491195917922,
R,left,Distractor,0,40,40,40,1039.4993510172353,1041.5003631480504,left,1,2,1.1785113240475766,C15T09,2022-12-02_13h11.45.580,t1_Paradigm,2021.1.4,59.96491195917922,
B,left,Pretarget,0,41,41,41,1042.9992701750598,1045.0010182260303,None,0,2,,C15T09,2022-12-02_13h11.45.580,t1_Paradigm,2021.1.4,59.96491195917922,
H,left,Distractor,0,42,42,42,1046.4991485910723,1048.5011305068037,None,0,2,,C15T09,2022-12-02_13h11.45.580,t1_Paradigm,2021.1.4,59.96491195917922,
B,right,Target,0,43,43,43,1049.9991569318809,1052.0011606622138,right,1,2,0.37360330764204264,C15T09,2022-12-02_13h11.45.580,t1_Paradigm,2021.1.4,59.96491195917922,
W,left,Pretarget,0,44,44,44,1053.4992243003799,1055.5012180857593,left,1,2,0.6652721396530978,C15T09,2022-12-02_13h11.45.580,t1_Paradigm,2021.1.4,59.96491195917922,
L,left,Pretarget,0,45,45,45,1056.9992772327387,1059.0013489730773,left,1,2,0.9574385359301232,C15T09,2022-12-02_13h11.45.580,t1_Paradigm,2021.1.4,59.96491195917922,
W,right,Target,0,46,46,46,1060.4993275986635,1062.5012957198778,right,1,2,1.2493495736271143,C15T09,2022-12-02_13h11.45.580,t1_Paradigm,2021.1.4,59.96491195917922,
L,right,Target,0,47,47,47,1063.9992701750598,1066.0009848626214,right,1,2,0.8856911329785362,C15T09,2022-12-02_13h11.45.580,t1_Paradigm,2021.1.4,59.96491195917922,
W,right,Target,0,48,48,48,1067.4993442803388,1069.5004208924365,right,1,2,1.0182003896916285,C15T09,2022-12-02_13h11.45.580,t1_Paradigm,2021.1.4,59.96491195917922,
X,left,Distractor,0,49,49,49,1070.9991899745073,1073.0011305068037,left,1,2,0.5576596969622187,C15T09,2022-12-02_13h11.45.580,t1_Paradigm,2021.1.4,59.96491195917922,
R,left,Distractor,0,50,50,50,1074.4992929520085,1076.498263497895,left,1,2,0.9646604341105558,C15T09,2022-12-02_13h11.45.580,t1_Paradigm,2021.1.4,59.96491195917922,
V,left,Pretarget,0,51,51,51,1077.9992923104437,1080.0013932437287,left,1,2,0.5172578729689121,C15T09,2022-12-02_13h11.45.580,t1_Paradigm,2021.1.4,59.96491195917922,
Z,left,Distractor,0,52,52,52,1081.499154365505,1083.500123188016,left,1,2,0.5866441720281728,C15T09,2022-12-02_13h11.45.580,t1_Paradigm,2021.1.4,59.96491195917922,
V,right,Target,0,53,53,53,1084.9991716888035,1087.0012437499245,right,1,2,0.4616330241551623,C15T09,2022-12-02_13h11.45.580,t1_Paradigm,2021.1.4,59.96491195917922,
V,left,Lure,0,54,54,54,1088.499328561069,1090.4991684808047,left,1,2,0.7555003134184517,C15T09,2022-12-02_13h11.45.580,t1_Paradigm,2021.1.4,59.96491195917922,
N,left,Distractor,0,55,55,55,1091.9992862151703,1093.9998626966262,None,0,2,,C15T09,2022-12-02_13h11.45.580,t1_Paradigm,2021.1.4,59.96491195917922,
B,left,Distractor,0,56,56,56,1095.4993468467728,1097.5011776647298,left,1,2,1.0654651342774741,C15T09,2022-12-02_13h11.45.580,t1_Paradigm,2021.1.4,59.96491195917922,
V,left,Lure,0,57,57,57,1098.999307067308,1101.0006178649492,left,1,2,0.6221297028823756,C15T09,2022-12-02_13h11.45.580,t1_Paradigm,2021.1.4,59.96491195917922,
J,left,Distractor,0,58,58,58,1102.499231678783,1104.5011289027752,left,1,2,0.5779481878853403,C15T09,2022-12-02_13h11.45.580,t1_Paradigm,2021.1.4,59.96491195917922,
H,left,Distractor,0,59,59,59,1105.9992268667556,1108.001297003124,left,1,2,0.6776650478714146,C15T09,2022-12-02_13h11.45.580,t1_Paradigm,2021.1.4,59.96491195917922,
X,left,Pretarget,0,60,60,60,1109.4993243906065,1111.5010682711727,left,1,2,0.5856962016550824,C15T09,2022-12-02_13h11.45.580,t1_Paradigm,2021.1.4,59.96491195917922,
P,left,Distractor,0,61,61,61,1112.9993766814005,1115.0014009430306,right,0,2,0.7172395230736583,C15T09,2022-12-02_13h11.45.580,t1_Paradigm,2021.1.4,59.96491195917922,
X,right,Target,0,62,62,62,1116.499090205063,1118.5007580554811,right,1,2,1.0419715089374222,C15T09,2022-12-02_13h11.45.580,t1_Paradigm,2021.1.4,59.96491195917922,
Q,left,Distractor,0,63,63,63,1119.999313483364,1122.0011394892354,left,1,2,0.8215932574821636,C15T09,2022-12-02_13h11.45.580,t1_Paradigm,2021.1.4,59.96491195917922,
B,left,Pretarget,0,0,0,0,1157.5478232610621,1159.5484946999932,None,0,2,,C15T09,2022-12-02_13h11.45.580,t1_Paradigm,2021.1.4,59.96491195917922,
F,left,Distractor,0,1,1,1,1161.0491045449162,1163.0512789419736,left,1,2,0.907541609602049,C15T09,2022-12-02_13h11.45.580,t1_Paradigm,2021.1.4,59.96491195917922,
B,right,Target,0,2,2,2,1164.5492123344447,1166.5499222695944,right,1,2,0.5925424405140802,C15T09,2022-12-02_13h11.45.580,t1_Paradigm,2021.1.4,59.96491195917922,
V,left,Distractor,0,3,3,3,1168.0493352016783,1170.05132770387,left,1,2,0.8993653249926865,C15T09,2022-12-02_13h11.45.580,t1_Paradigm,2021.1.4,59.96491195917922,
G,left,Pretarget,0,4,4,4,1171.5493602242204,1173.5510457187775,left,1,2,1.079869792854879,C15T09,2022-12-02_13h11.45.580,t1_Paradigm,2021.1.4,59.96491195917922,
B,left,Lure,0,5,5,5,1175.0492835525074,1177.051386089879,left,1,2,0.6033358291606419,C15T09,2022-12-02_13h11.45.580,t1_Paradigm,2021.1.4,59.96491195917922,
G,right,Target,0,6,6,6,1178.549278098857,1180.5513822402572,right,1,2,0.639416448015254,C15T09,2022-12-02_13h11.45.580,t1_Paradigm,2021.1.4,59.96491195917922,
Y,left,Pretarget,0,7,7,7,1182.0493865300086,1184.0484870007494,left,1,2,0.5506559441564605,C15T09,2022-12-02_13h11.45.580,t1_Paradigm,2021.1.4,59.96491195917922,
P,left,Distractor,0,8,8,8,1185.5493865300086,1187.5512035534484,left,1,2,0.6155452386010438,C15T09,2022-12-02_13h11.45.580,t1_Paradigm,2021.1.4,59.96491195917922,
Y,right,Target,0,9,9,9,1189.0493531665998,1191.048438880418,right,1,2,0.6383478560601361,C15T09,2022-12-02_13h11.45.580,t1_Paradigm,2021.1.4,59.96491195917922,
X,left,Distractor,0,10,10,10,1192.5493858883856,1194.5506347712362,left,1,2,0.4962215921841562,C15T09,2022-12-02_13h11.45.580,t1_Paradigm,2021.1.4,59.96491195917922,
Y,right,Target,0,11,11,11,1196.0493188407272,1198.050620335096,right,1,2,0.6284042723127641,C15T09,2022-12-02_13h11.45.580,t1_Paradigm,2021.1.4,59.96491195917922,
N,left,Distractor,0,12,12,12,1199.5495324949734,1201.5507765657385,left,1,2,0.5199336837977171,C15T09,2022-12-02_13h11.45.580,t1_Paradigm,2021.1.4,59.96491195917922,
Y,right,Target,0,13,13,13,1203.0492944598082,1205.0484533165,right,1,2,0.7022843680460937,C15T09,2022-12-02_13h11.45.580,t1_Paradigm,2021.1.4,59.96491195917922,
Y,left,Lure,0,14,14,14,1206.549270720454,1208.5493570162216,left,1,2,1.1534813771140762,C15T09,2022-12-02_13h11.45.580,t1_Paradigm,2021.1.4,59.96491195917922,
K,left,Distractor,0,15,15,15,1210.0491427203524,1212.0512205559644,left,1,2,0.6117138983681798,C15T09,2022-12-02_13h11.45.580,t1_Paradigm,2021.1.4,59.96491195917922,
T,left,Pretarget,0,16,16,16,1213.5493300688104,1215.5513909019064,left,1,2,0.7115340566379018,C15T09,2022-12-02_13h11.45.580,t1_Paradigm,2021.1.4,59.96491195917922,
J,left,Distractor,0,17,17,17,1217.0493034422398,1219.0510123553686,left,1,2,1.1637797680450603,C15T09,2022-12-02_13h11.45.580,t1_Paradigm,2021.1.4,59.96491195917922,
T,right,Target,0,18,18,18,1220.549202068767,1222.5507027812419,right,1,2,0.5602819337509573,C15T09,2022-12-02_13h11.45.580,t1_Paradigm,2021.1.4,59.96491195917922,
S,left,Pretarget,0,19,19,19,1224.049387492414,1226.0514197740704,left,1,2,0.5634620455675758,C15T09,2022-12-02_13h11.45.580,t1_Paradigm,2021.1.4,59.96491195917922,
R,left,Distractor,0,20,20,20,1227.5493923044414,1229.55154392455,left,1,2,0.887202111131046,C15T09,2022-12-02_13h11.45.580,t1_Paradigm,2021.1.4,59.96491195917922,
S,right,Target,0,21,21,21,1231.049214580038,1233.0512914532446,right,1,2,0.44355518085649237,C15T09,2022-12-02_13h11.45.580,t1_Paradigm,2021.1.4,59.96491195917922,
Q,left,Distractor,0,22,22,22,1234.5493865300086,1236.5510704205371,left,1,2,0.5754780112183653,C15T09,2022-12-02_13h11.45.580,t1_Paradigm,2021.1.4,59.96491195917922,
D,left,Distractor,0,23,23,23,1238.0493785099825,1240.0513966763392,left,1,2,0.8833335579256527,C15T09,2022-12-02_13h11.45.580,t1_Paradigm,2021.1.4,59.96491195917922,
F,left,Distractor,0,24,24,24,1241.5492328658001,1243.5511387513834,left,1,2,0.6796482468489558,C15T09,2022-12-02_13h11.45.580,t1_Paradigm,2021.1.4,59.96491195917922,
Z,left,Distractor,0,25,25,25,1245.0484555621515,1247.0484610158019,left,1,2,0.7182936789467931,C15T09,2022-12-02_13h11.45.580,t1_Paradigm,2021.1.4,59.96491195917922,
P,left,Distractor,0,26,26,26,1248.5491491364082,1250.5512632226455,left,1,2,0.8479028841829859,C15T09,2022-12-02_13h11.45.580,t1_Paradigm,2021.1.4,59.96491195917922,
H,left,Distractor,0,27,27,27,1252.049220354471,1254.0510396235622,left,1,2,0.8836835530819371,C15T09,2022-12-02_13h11.45.580,t1_Paradigm,2021.1.4,59.96491195917922,
Z,left,Pretarget,0,28,28,28,1255.5492277329322,1257.5510530972388,left,1,2,0.9036887757247314,C15T09,2022-12-02_13h11.45.580,t1_Paradigm,2021.1.4,59.96491195917922,
J,left,Pretarget,0,29,29,29,1259.0493637530599,1261.051450250321,left,1,2,0.6032963705365546,C15T09,2022-12-02_13h11.45.580,t1_Paradigm,2021.1.4,59.96491195917922,
Z,right,Target,0,30,30,30,1262.5492399234208,1264.550987653609,None,0,2,,C15T09,2022-12-02_13h11.45.580,t1_Paradigm,2021.1.4,59.96491195917922,
J,right,Target,0,31,31,31,1266.0493335976498,1268.0512208767468,right,1,2,0.6757203452289104,C15T09,2022-12-02_13h11.45.580,t1_Paradigm,2021.1.4,59.96491195917922,
V,left,Pretarget,0,32,32,32,1269.5492456978536,1271.5507201045984,left,1,2,0.6158743815612979,C15T09,2022-12-02_13h11.45.580,t1_Paradigm,2021.1.4,59.96491195917922,
Z,left,Lure,0,33,33,33,1273.049437858339,1275.0514261901262,left,1,2,0.619354764232412,C15T09,2022-12-02_13h11.45.580,t1_Paradigm,2021.1.4,59.96491195917922,
V,right,Target,0,34,34,34,1276.5492389610154,1278.551466611214,right,1,2,1.0872723026550375,C15T09,2022-12-02_13h11.45.580,t1_Paradigm,2021.1.4,59.96491195917922,
X,left,Distractor,0,35,35,35,1280.0493419385166,1282.0483124844031,left,1,2,0.8704511055839248,C15T09,2022-12-02_13h11.45.580,t1_Paradigm,2021.1.4,59.96491195917922,
S,left,Distractor,0,36,36,36,1283.549126680242,1285.551229538396,left,1,2,0.9035373571095988,C15T09,2022-12-02_13h11.45.580,t1_Paradigm,2021.1.4,59.96491195917922,
Q,left,Distractor,0,37,37,37,1287.0493204447557,1289.0511592827388,left,1,2,0.6195927993976511,C15T09,2022-12-02_13h11.45.580,t1_Paradigm,2021.1.4,59.96491195917922,
P,left,Distractor,0,38,38,38,1290.5493977580918,1292.551420094911,left,1,2,0.639314753760118,C15T09,2022-12-02_13h11.45.580,t1_Paradigm,2021.1.4,59.96491195917922,
S,left,Lure,0,39,39,39,1294.0492463394767,1296.0510495683993,left,1,2,0.6119018884492107,C15T09,2022-12-02_13h11.45.580,t1_Paradigm,2021.1.4,59.96491195917922,
K,left,Pretarget,0,40,40,40,1297.5493201239733,1299.5507695081178,left,1,2,0.9199726933147758,C15T09,2022-12-02_13h11.45.580,t1_Paradigm,2021.1.4,59.96491195917922,
L,left,Distractor,0,41,41,41,1301.0492992718355,1303.0510062600952,left,1,2,0.9877774377819151,C15T09,2022-12-02_13h11.45.580,t1_Paradigm,2021.1.4,59.96491195917922,
K,right,Target,0,42,42,42,1304.5492633419926,1306.5484013466048,right,1,2,0.658339925808832,C15T09,2022-12-02_13h11.45.580,t1_Paradigm,2021.1.4,59.96491195917922,
B,left,Distractor,0,43,43,43,1308.0493156327284,1310.0510700997547,left,1,2,0.7078252629144117,C15T09,2022-12-02_13h11.45.580,t1_Paradigm,2021.1.4,59.96491195917922,
N,left,Distractor,0,44,44,44,1311.5493993621203,1313.5515336588724,left,1,2,0.5670450848992914,C15T09,2022-12-02_13h11.45.580,t1_Paradigm,2021.1.4,59.96491195917922,
S,left,Pretarget,0,45,45,45,1315.0493047254859,1317.05151376914,left,1,2,0.6032761599635705,C15T09,2022-12-02_13h11.45.580,t1_Paradigm,2021.1.4,59.96491195917922,
Z,left,Distractor,0,46,46,46,1318.5491468908149,1320.5510627212934,left,1,2,0.6718068796326406,C15T09,2022-12-02_13h11.45.580,t1_Paradigm,2021.1.4,59.96491195917922,
S,right,Target,0,47,47,47,1322.0491978983628,1324.0508522751043,right,1,2,0.4521687187952921,C15T09,2022-12-02_13h11.45.580,t1_Paradigm,2021.1.4,59.96491195917922,
C,left,Distractor,0,48,48,48,1325.5494779586443,1327.5506652474287,left,1,2,0.5041287238127552,C15T09,2022-12-02_13h11.45.580,t1_Paradigm,2021.1.4,59.96491195917922,
T,left,Pretarget,0,49,49,49,1329.049499452347,1331.0508256484754,left,1,2,0.5080771567882039,C15T09,2022-12-02_13h11.45.580,t1_Paradigm,2021.1.4,59.96491195917922,
S,left,Lure,0,50,50,50,1332.5491978983628,1334.5515343004954,left,1,2,1.1992531084106304,C15T09,2022-12-02_13h11.45.580,t1_Paradigm,2021.1.4,59.96491195917922,
T,right,Target,0,51,51,51,1336.0492633419926,1338.0511137288413,right,1,2,1.187654185516294,C15T09,2022-12-02_13h11.45.580,t1_Paradigm,2021.1.4,59.96491195917922,
N,left,Pretarget,0,52,52,52,1339.5493307104334,1341.551298831706,left,1,2,0.6639680789085105,C15T09,2022-12-02_13h11.45.580,t1_Paradigm,2021.1.4,59.96491195917922,
B,left,Distractor,0,53,53,53,1343.0492582091247,1345.0624402906979,left,1,2,0.6403236765763722,C15T09,2022-12-02_13h11.45.580,t1_Paradigm,2021.1.4,59.96491195917922,
N,right,Target,0,54,54,54,1346.5493602242204,1348.5510194129893,right,1,2,1.2317972042947076,C15T09,2022-12-02_13h11.45.580,t1_Paradigm,2021.1.4,59.96491195917922,
N,left,Lure,0,55,55,55,1350.0492043143604,1352.0493753019255,left,1,2,0.8054055805550888,C15T09,2022-12-02_13h11.45.580,t1_Paradigm,2021.1.4,59.96491195917922,
X,left,Distractor,0,56,56,56,1353.5493615074665,1355.5511923253653,left,1,2,0.8877048080903478,C15T09,2022-12-02_13h11.45.580,t1_Paradigm,2021.1.4,59.96491195917922,
W,left,Distractor,0,57,57,57,1357.049330389651,1359.0513960347162,left,1,2,0.6354555037687533,C15T09,2022-12-02_13h11.45.580,t1_Paradigm,2021.1.4,59.96491195917922,
S,left,Distractor,0,58,58,58,1360.549264304398,1362.5509773879312,left,1,2,0.9920373695786111,C15T09,2022-12-02_13h11.45.580,t1_Paradigm,2021.1.4,59.96491195917922,
L,left,Distractor,0,59,59,59,1364.0494782794267,1366.0513001148938,left,1,2,0.9479103910271078,C15T09,2022-12-02_13h11.45.580,t1_Paradigm,2021.1.4,59.96491195917922,
K,left,Pretarget,0,60,60,60,1367.5494295174722,1369.5515718343086,left,1,2,0.72738649538951,C15T09,2022-12-02_13h11.45.580,t1_Paradigm,2021.1.4,59.96491195917922,
V,left,Pretarget,0,61,61,61,1371.049233507365,1373.0512288968312,left,1,2,0.555670081928838,C15T09,2022-12-02_13h11.45.580,t1_Paradigm,2021.1.4,59.96491195917922,
K,right,Target,0,62,62,62,1374.5492665499914,1376.5509902199847,right,1,2,0.463962689449545,C15T09,2022-12-02_13h11.45.580,t1_Paradigm,2021.1.4,59.96491195917922,
V,right,Target,0,63,63,63,1378.0494035325246,1380.0621631176327,right,1,2,0.4726291598053649,C15T09,2022-12-02_13h11.45.580,t1_Paradigm,2021.1.4,59.96491195917922,
R,left,Distractor,0,0,0,0,1476.8126178546809,1478.8181285941391,left,1,3,0.6767879747785628,C15T09,2022-12-02_13h11.45.580,t1_Paradigm,2021.1.4,59.96491195917922,
P,left,Lure,0,1,1,1,1480.3161463576253,1482.3181584287668,left,1,3,0.5366782732889988,C15T09,2022-12-02_13h11.45.580,t1_Paradigm,2021.1.4,59.96491195917922,
V,left,Distractor,0,2,2,2,1483.8160915004555,1485.8181058171904,left,1,3,0.8449550331570208,C15T09,2022-12-02_13h11.45.580,t1_Paradigm,2021.1.4,59.96491195917922,
P,left,Pretarget,0,3,3,3,1487.3160491545568,1489.318213606719,right,0,3,0.48105534928618,C15T09,2022-12-02_13h11.45.580,t1_Paradigm,2021.1.4,59.96491195917922,
Z,left,Distractor,0,4,4,4,1490.8160520417732,1492.8182232308318,left,1,3,0.6287715907674283,C15T09,2022-12-02_13h11.45.580,t1_Paradigm,2021.1.4,59.96491195917922,
L,left,Pretarget,0,5,5,5,1494.3161001621047,1496.3182649351074,left,1,3,0.6809410795685835,C15T09,2022-12-02_13h11.45.580,t1_Paradigm,2021.1.4,59.96491195917922,
P,right,Target,0,6,6,6,1497.8159625380067,1499.817743952386,None,0,3,,C15T09,2022-12-02_13h11.45.580,t1_Paradigm,2021.1.4,59.96491195917922,
S,left,Distractor,0,7,7,7,1501.316169776197,1503.3151582869468,None,0,3,,C15T09,2022-12-02_13h11.45.580,t1_Paradigm,2021.1.4,59.96491195917922,
L,right,Target,0,8,8,8,1504.8161367335706,1506.8150873896666,None,0,3,,C15T09,2022-12-02_13h11.45.580,t1_Paradigm,2021.1.4,59.96491195917922,
D,left,Distractor,0,9,9,9,1508.3159965430386,1510.3182982985163,left,1,3,1.2726523216697387,C15T09,2022-12-02_13h11.45.580,t1_Paradigm,2021.1.4,59.96491195917922,
G,left,Distractor,0,10,10,10,1511.8159785781172,1513.8181500879,left,1,3,0.8128744963905774,C15T09,2022-12-02_13h11.45.580,t1_Paradigm,2021.1.4,59.96491195917922,
M,left,Pretarget,0,11,11,11,1515.3161864578724,1517.3180647545378,left,1,3,0.6729033814044669,C15T09,2022-12-02_13h11.45.580,t1_Paradigm,2021.1.4,59.96491195917922,
Y,left,Distractor,0,12,12,12,1518.8161024077563,1520.815155078948,left,1,3,0.8879232743638568,C15T09,2022-12-02_13h11.45.580,t1_Paradigm,2021.1.4,59.96491195917922,
V,left,Distractor,0,13,13,13,1522.3159747284953,1524.3179688347154,left,1,3,0.6811810395447537,C15T09,2022-12-02_13h11.45.580,t1_Paradigm,2021.1.4,59.96491195917922,
M,right,Target,0,14,14,14,1525.8160424177186,1527.8171049144585,None,0,3,,C15T09,2022-12-02_13h11.45.580,t1_Paradigm,2021.1.4,59.96491195917922,
S,left,Pretarget,0,15,15,15,1529.3161418663803,1531.315135509998,left,1,3,0.5479618476238102,C15T09,2022-12-02_13h11.45.580,t1_Paradigm,2021.1.4,59.96491195917922,
Q,left,Distractor,0,16,16,16,1532.816108182189,1534.8181282733567,left,1,3,0.7568467200617306,C15T09,2022-12-02_13h11.45.580,t1_Paradigm,2021.1.4,59.96491195917922,
R,left,Pretarget,0,17,17,17,1536.3161065781605,1538.3181744688773,left,1,3,0.9527108744950965,C15T09,2022-12-02_13h11.45.580,t1_Paradigm,2021.1.4,59.96491195917922,
S,right,Target,0,18,18,18,1539.8161729841959,1541.815145134111,left,0,3,0.8161033701035194,C15T09,2022-12-02_13h11.45.580,t1_Paradigm,2021.1.4,59.96491195917922,
F,left,Distractor,0,19,19,19,1543.3161267886753,1545.3179900076357,left,1,3,0.7208860812825151,C15T09,2022-12-02_13h11.45.580,t1_Paradigm,2021.1.4,59.96491195917922,
R,right,Target,0,20,20,20,1546.8161158814328,1548.8178751604864,right,1,3,1.4611450840602629,C15T09,2022-12-02_13h11.45.580,t1_Paradigm,2021.1.4,59.96491195917922,
P,left,Distractor,0,21,21,21,1550.3159513099235,1552.317586117715,left,1,3,1.2095001709531061,C15T09,2022-12-02_13h11.45.580,t1_Paradigm,2021.1.4,59.96491195917922,
L,left,Distractor,0,22,22,22,1553.8161755506299,1555.8179428497097,left,1,3,0.989027282979805,C15T09,2022-12-02_13h11.45.580,t1_Paradigm,2021.1.4,59.96491195917922,
R,right,Target,0,23,23,23,1557.316087971616,1559.318288353621,None,0,3,,C15T09,2022-12-02_13h11.45.580,t1_Paradigm,2021.1.4,59.96491195917922,
H,left,Pretarget,0,24,24,24,1560.815954838763,1562.818389727152,left,1,3,0.8204778284416534,C15T09,2022-12-02_13h11.45.580,t1_Paradigm,2021.1.4,59.96491195917922,
G,left,Pretarget,0,25,25,25,1564.3161870994954,1566.3164411748294,left,1,3,0.7626150637515821,C15T09,2022-12-02_13h11.45.580,t1_Paradigm,2021.1.4,59.96491195917922,
T,left,Distractor,0,26,26,26,1567.8161181270261,1569.8178844637005,left,1,3,0.9731017013546079,C15T09,2022-12-02_13h11.45.580,t1_Paradigm,2021.1.4,59.96491195917922,
H,right,Target,0,27,27,27,1571.3159131344291,1573.3173387792776,right,1,3,0.5457803930039518,C15T09,2022-12-02_13h11.45.580,t1_Paradigm,2021.1.4,59.96491195917922,
G,right,Target,0,28,28,28,1574.8160703275353,1576.8173997316626,right,1,3,1.2855665333918296,C15T09,2022-12-02_13h11.45.580,t1_Paradigm,2021.1.4,59.96491195917922,
D,left,Distractor,0,29,29,29,1578.3161152398097,1580.317982950015,left,1,3,0.5529236946022138,C15T09,2022-12-02_13h11.45.580,t1_Paradigm,2021.1.4,59.96491195917922,
N,left,Pretarget,0,30,30,30,1581.8159920517937,1583.8178642531857,left,1,3,0.877112241636496,C15T09,2022-12-02_13h11.45.580,t1_Paradigm,2021.1.4,59.96491195917922,
V,left,Distractor,0,31,31,31,1585.3160805931548,1587.318480193324,left,1,3,0.6885168225271627,C15T09,2022-12-02_13h11.45.580,t1_Paradigm,2021.1.4,59.96491195917922,
R,left,Distractor,0,32,32,32,1588.8152846830199,1590.8174404735328,left,1,3,1.1415773713961244,C15T09,2022-12-02_13h11.45.580,t1_Paradigm,2021.1.4,59.96491195917922,
N,right,Target,0,33,33,33,1592.3161466784077,1594.317729516304,None,0,3,,C15T09,2022-12-02_13h11.45.580,t1_Paradigm,2021.1.4,59.96491195917922,
Z,left,Distractor,0,34,34,34,1595.815964141977,1597.8181087044068,left,1,3,1.1649638488306664,C15T09,2022-12-02_13h11.45.580,t1_Paradigm,2021.1.4,59.96491195917922,
N,left,Lure,0,35,35,35,1599.3160937460489,1601.318195321015,left,1,3,1.3767423567478545,C15T09,2022-12-02_13h11.45.580,t1_Paradigm,2021.1.4,59.96491195917922,
Y,left,Pretarget,0,36,36,36,1602.8159920517937,1604.8178453258588,left,1,3,0.6613285187631845,C15T09,2022-12-02_13h11.45.580,t1_Paradigm,2021.1.4,59.96491195917922,
Y,left,Lure,0,37,37,37,1606.3160488337744,1608.3160975956707,left,1,3,0.9707954546320252,C15T09,2022-12-02_13h11.45.580,t1_Paradigm,2021.1.4,59.96491195917922,
B,left,Distractor,0,38,38,38,1609.8160706483177,1611.8182787295664,left,1,3,0.7166370566701517,C15T09,2022-12-02_13h11.45.580,t1_Paradigm,2021.1.4,59.96491195917922,
Y,right,Target,0,39,39,39,1613.316137695976,1615.317757746845,right,1,3,1.2331654254812747,C15T09,2022-12-02_13h11.45.580,t1_Paradigm,2021.1.4,59.96491195917922,
J,left,Distractor,0,40,40,40,1616.8158733549644,1618.8151377556496,left,1,3,1.3037682063295506,C15T09,2022-12-02_13h11.45.580,t1_Paradigm,2021.1.4,59.96491195917922,
X,left,Distractor,0,41,41,41,1620.3152740965597,1622.3181606743601,left,1,3,1.000742977776099,C15T09,2022-12-02_13h11.45.580,t1_Paradigm,2021.1.4,59.96491195917922,
W,left,Pretarget,0,42,42,42,1623.8162079516333,1625.8182476117508,left,1,3,0.8770384571398608,C15T09,2022-12-02_13h11.45.580,t1_Paradigm,2021.1.4,59.96491195917922,
S,left,Pretarget,0,43,43,43,1627.3159638211946,1629.3150501766359,left,1,3,0.6281027182703838,C15T09,2022-12-02_13h11.45.580,t1_Paradigm,2021.1.4,59.96491195917922,
R,left,Distractor,0,44,44,44,1630.816091821238,1632.8179919324466,left,1,3,0.8853664811467752,C15T09,2022-12-02_13h11.45.580,t1_Paradigm,2021.1.4,59.96491195917922,
W,right,Target,0,45,45,45,1634.3161486032186,1636.3180900979205,right,1,3,0.5528242459404282,C15T09,2022-12-02_13h11.45.580,t1_Paradigm,2021.1.4,59.96491195917922,
S,right,Target,0,46,46,46,1637.816001355066,1639.8180987595697,right,1,3,1.0528191131306812,C15T09,2022-12-02_13h11.45.580,t1_Paradigm,2021.1.4,59.96491195917922,
D,left,Distractor,0,47,47,47,1641.315971199656,1643.3183765742579,left,1,3,0.5127692091627978,C15T09,2022-12-02_13h11.45.580,t1_Paradigm,2021.1.4,59.96491195917922,
T,left,Distractor,0,48,48,48,1644.8161107485648,1646.8178366642096,left,1,3,0.8530780646251515,C15T09,2022-12-02_13h11.45.580,t1_Paradigm,2021.1.4,59.96491195917922,
S,right,Target,0,49,49,49,1648.3161152398097,1650.3149192893761,right,1,3,1.0200373028637841,C15T09,2022-12-02_13h11.45.580,t1_Paradigm,2021.1.4,59.96491195917922,
K,left,Distractor,0,50,50,50,1651.8161678513861,1653.8179588898201,left,1,3,0.5090985908173025,C15T09,2022-12-02_13h11.45.580,t1_Paradigm,2021.1.4,59.96491195917922,
S,left,Lure,0,51,51,51,1655.3161473200307,1657.317257937102,left,1,3,1.217634751345031,C15T09,2022-12-02_13h11.45.580,t1_Paradigm,2021.1.4,59.96491195917922,
T,left,Pretarget,0,52,52,52,1658.815889395075,1660.817665997427,left,1,3,1.0614406711538322,C15T09,2022-12-02_13h11.45.580,t1_Paradigm,2021.1.4,59.96491195917922,
V,left,Distractor,0,53,53,53,1662.316138337541,1664.31784211786,left,1,3,0.6010895724757574,C15T09,2022-12-02_13h11.45.580,t1_Paradigm,2021.1.4,59.96491195917922,
B,left,Distractor,0,54,54,54,1665.8159776157117,1667.8172672403743,left,1,3,1.0057442834367976,C15T09,2022-12-02_13h11.45.580,t1_Paradigm,2021.1.4,59.96491195917922,
T,right,Target,0,55,55,55,1669.3160311896354,1671.3177705789567,right,1,3,1.1531464596628211,C15T09,2022-12-02_13h11.45.580,t1_Paradigm,2021.1.4,59.96491195917922,
Y,left,Pretarget,0,56,56,56,1672.8161248638644,1674.8182078322861,left,1,3,1.3486997567815706,C15T09,2022-12-02_13h11.45.580,t1_Paradigm,2021.1.4,59.96491195917922,
T,left,Lure,0,57,57,57,1676.3162243125262,1678.3182062283158,right,0,3,1.304741520085372,C15T09,2022-12-02_13h11.45.580,t1_Paradigm,2021.1.4,59.96491195917922,
P,left,Pretarget,0,58,58,58,1679.8160311896354,1681.8160517209908,left,1,3,0.9270739699131809,C15T09,2022-12-02_13h11.45.580,t1_Paradigm,2021.1.4,59.96491195917922,
Y,right,Target,0,59,59,59,1683.315939761058,1685.317685566377,right,1,3,1.313461564364843,C15T09,2022-12-02_13h11.45.580,t1_Paradigm,2021.1.4,59.96491195917922,
R,left,Distractor,0,60,60,60,1686.8160270192311,1688.8182010954479,left,1,3,0.788828449731227,C15T09,2022-12-02_13h11.45.580,t1_Paradigm,2021.1.4,59.96491195917922,
P,right,Target,0,61,61,61,1690.3160985580762,1692.3180195214227,right,1,3,0.9529370400123298,C15T09,2022-12-02_13h11.45.580,t1_Paradigm,2021.1.4,59.96491195917922,
L,left,Distractor,0,62,62,62,1693.8158361419337,1695.8181661280105,left,1,3,0.5409151074127294,C15T09,2022-12-02_13h11.45.580,t1_Paradigm,2021.1.4,59.96491195917922,
V,left,Distractor,0,63,63,63,1697.316186778713,1699.3152205225779,left,1,3,0.8836960643529892,C15T09,2022-12-02_13h11.45.580,t1_Paradigm,2021.1.4,59.96491195917922,
H,left,Lure,0,0,0,0,1730.0466196113848,1732.051528846845,left,1,3,0.691626678686589,C15T09,2022-12-02_13h11.45.580,t1_Paradigm,2021.1.4,59.96491195917922,
B,left,Distractor,0,1,1,1,1733.5492803445086,1735.5510540596442,left,1,3,0.7119960117852315,C15T09,2022-12-02_13h11.45.580,t1_Paradigm,2021.1.4,59.96491195917922,
T,left,Distractor,0,2,2,2,1737.04939390847,1739.0512237639632,left,1,3,0.8119451325619593,C15T09,2022-12-02_13h11.45.580,t1_Paradigm,2021.1.4,59.96491195917922,
R,left,Distractor,0,3,3,3,1740.5493711315212,1742.5513331575203,left,1,3,1.1836608402663842,C15T09,2022-12-02_13h11.45.580,t1_Paradigm,2021.1.4,59.96491195917922,
H,left,Pretarget,0,4,4,4,1744.049500735593,1746.0515352629009,left,1,3,0.6594543925020844,C15T09,2022-12-02_13h11.45.580,t1_Paradigm,2021.1.4,59.96491195917922,
K,left,Distractor,0,5,5,5,1747.5495847857674,1749.5517145912745,left,1,3,0.9832480320474133,C15T09,2022-12-02_13h11.45.580,t1_Paradigm,2021.1.4,59.96491195917922,
G,left,Distractor,0,6,6,6,1751.049481166643,1753.051188154961,left,1,3,0.7320329938665964,C15T09,2022-12-02_13h11.45.580,t1_Paradigm,2021.1.4,59.96491195917922,
H,right,Target,0,7,7,7,1754.5494952819427,1756.551746992278,right,1,3,0.5114478250034153,C15T09,2022-12-02_13h11.45.580,t1_Paradigm,2021.1.4,59.96491195917922,
Y,left,Pretarget,0,8,8,8,1758.0495588007616,1760.051283754001,left,1,3,0.6440831570653245,C15T09,2022-12-02_13h11.45.580,t1_Paradigm,2021.1.4,59.96491195917922,
S,left,Distractor,0,9,9,9,1761.5493813971989,1763.551321287814,left,1,3,0.5674964535282925,C15T09,2022-12-02_13h11.45.580,t1_Paradigm,2021.1.4,59.96491195917922,
P,left,Distractor,0,10,10,10,1765.0493695274927,1767.051304285298,left,1,3,0.6676088625681587,C15T09,2022-12-02_13h11.45.580,t1_Paradigm,2021.1.4,59.96491195917922,
Y,right,Target,0,11,11,11,1768.5494022493367,1770.5511746812263,right,1,3,0.4318266539485194,C15T09,2022-12-02_13h11.45.580,t1_Paradigm,2021.1.4,59.96491195917922,
H,left,Lure,0,12,12,12,1772.0494025701191,1774.0513517640647,left,1,3,0.6118441440630704,C15T09,2022-12-02_13h11.45.580,t1_Paradigm,2021.1.4,59.96491195917922,
Q,left,Distractor,0,13,13,13,1775.549355412193,1777.551402450772,left,1,3,0.6795664422679693,C15T09,2022-12-02_13h11.45.580,t1_Paradigm,2021.1.4,59.96491195917922,
V,left,Pretarget,0,14,14,14,1779.049516454863,1781.0508609367535,left,1,3,0.8282723584561609,C15T09,2022-12-02_13h11.45.580,t1_Paradigm,2021.1.4,59.96491195917922,
G,left,Distractor,0,15,15,15,1782.549393266847,1784.551296265272,left,1,3,0.9918875549919903,C15T09,2022-12-02_13h11.45.580,t1_Paradigm,2021.1.4,59.96491195917922,
Z,left,Pretarget,0,16,16,16,1786.0494959235657,1788.0510113929631,left,1,3,0.7081027568201534,C15T09,2022-12-02_13h11.45.580,t1_Paradigm,2021.1.4,59.96491195917922,
V,right,Target,0,17,17,17,1789.549466730561,1791.5513161550043,right,1,3,0.8876727278693579,C15T09,2022-12-02_13h11.45.580,t1_Paradigm,2021.1.4,59.96491195917922,
N,left,Distractor,0,18,18,18,1793.049534740625,1795.0515506613883,left,1,3,1.1955715828225948,C15T09,2022-12-02_13h11.45.580,t1_Paradigm,2021.1.4,59.96491195917922,
Z,right,Target,0,19,19,19,1796.5495113220531,1798.5511820596876,right,1,3,1.1522164542111568,C15T09,2022-12-02_13h11.45.580,t1_Paradigm,2021.1.4,59.96491195917922,
R,left,Distractor,0,20,20,20,1800.049393266847,1802.0512378792628,left,1,3,0.787698584550526,C15T09,2022-12-02_13h11.45.580,t1_Paradigm,2021.1.4,59.96491195917922,
P,left,Distractor,0,21,21,21,1803.549482449831,1805.5511717940099,left,1,3,0.67983334971359,C15T09,2022-12-02_13h11.45.580,t1_Paradigm,2021.1.4,59.96491195917922,
Z,right,Target,0,22,22,22,1807.0494760338333,1809.050903282594,right,1,3,0.7001025925274007,C15T09,2022-12-02_13h11.45.580,t1_Paradigm,2021.1.4,59.96491195917922,
D,left,Pretarget,0,23,23,23,1810.5493393720826,1812.5512593730236,left,1,3,0.7837575300363824,C15T09,2022-12-02_13h11.45.580,t1_Paradigm,2021.1.4,59.96491195917922,
K,left,Distractor,0,24,24,24,1814.0494715425884,1816.0510710621602,left,1,3,0.7400219300179742,C15T09,2022-12-02_13h11.45.580,t1_Paradigm,2021.1.4,59.96491195917922,
W,left,Distractor,0,25,25,25,1817.5494192518527,1819.5508169868262,left,1,3,0.6801464525633492,C15T09,2022-12-02_13h11.45.580,t1_Paradigm,2021.1.4,59.96491195917922,
D,right,Target,0,26,26,26,1821.0495610464131,1823.0516071225284,right,1,3,0.8755040604155511,C15T09,2022-12-02_13h11.45.580,t1_Paradigm,2021.1.4,59.96491195917922,
G,left,Pretarget,0,27,27,27,1824.5493656778708,1826.5515907616355,left,1,3,0.5598337731789798,C15T09,2022-12-02_13h11.45.580,t1_Paradigm,2021.1.4,59.96491195917922,
V,left,Distractor,0,28,28,28,1828.0486948805628,1830.0512458993471,left,1,3,0.5481299479724839,C15T09,2022-12-02_13h11.45.580,t1_Paradigm,2021.1.4,59.96491195917922,
D,right,Target,0,29,29,29,1831.549467372126,1833.5513164757867,right,1,3,0.711812833789736,C15T09,2022-12-02_13h11.45.580,t1_Paradigm,2021.1.4,59.96491195917922,
G,right,Target,0,30,30,30,1835.0496601742343,1837.0513928267173,left,0,3,0.9717103823786601,C15T09,2022-12-02_13h11.45.580,t1_Paradigm,2021.1.4,59.96491195917922,
B,left,Pretarget,0,31,31,31,1838.5495334573789,1840.5516507516732,left,1,3,0.7674004695145413,C15T09,2022-12-02_13h11.45.580,t1_Paradigm,2021.1.4,59.96491195917922,
N,left,Distractor,0,32,32,32,1842.0495806153049,1844.051585307985,left,1,3,0.6276045125559904,C15T09,2022-12-02_13h11.45.580,t1_Paradigm,2021.1.4,59.96491195917922,
F,left,Distractor,0,33,33,33,1845.549422139069,1847.5501076932414,left,1,3,0.6167383017600514,C15T09,2022-12-02_13h11.45.580,t1_Paradigm,2021.1.4,59.96491195917922,
B,right,Target,0,34,34,34,1849.049531532568,1851.051355934469,None,0,3,,C15T09,2022-12-02_13h11.45.580,t1_Paradigm,2021.1.4,59.96491195917922,
Q,left,Pretarget,0,35,35,35,1852.549422139069,1854.551205157477,left,1,3,0.5756310339202173,C15T09,2022-12-02_13h11.45.580,t1_Paradigm,2021.1.4,59.96491195917922,
S,left,Pretarget,0,36,36,36,1856.0495382694062,1858.0514675736194,left,1,3,0.5318062509177253,C15T09,2022-12-02_13h11.45.580,t1_Paradigm,2021.1.4,59.96491195917922,
W,left,Distractor,0,37,37,37,1859.5494128357968,1861.5511281649233,left,1,3,0.567830408574082,C15T09,2022-12-02_13h11.45.580,t1_Paradigm,2021.1.4,59.96491195917922,
Q,right,Target,0,38,38,38,1863.0494269510964,1865.0512503905338,right,1,3,0.6997763367253356,C15T09,2022-12-02_13h11.45.580,t1_Paradigm,2021.1.4,59.96491195917922,
S,right,Target,0,39,39,39,1866.5494968859712,1868.5515907616355,right,1,3,0.8635936385835521,C15T09,2022-12-02_13h11.45.580,t1_Paradigm,2021.1.4,59.96491195917922,
T,left,Distractor,0,40,40,40,1870.049422780634,1872.0510832526488,left,1,3,0.6442506157327443,C15T09,2022-12-02_13h11.45.580,t1_Paradigm,2021.1.4,59.96491195917922,
G,left,Distractor,0,41,41,41,1873.549621998798,1875.5513902602834,left,1,3,1.1277764624683186,C15T09,2022-12-02_13h11.45.580,t1_Paradigm,2021.1.4,59.96491195917922,
D,left,Distractor,0,42,42,42,1877.0494247054448,1879.0511458090623,left,1,3,0.540022314991802,C15T09,2022-12-02_13h11.45.580,t1_Paradigm,2021.1.4,59.96491195917922,
S,left,Lure,0,43,43,43,1880.549604354659,1882.5513803154463,left,1,3,0.927826571802143,C15T09,2022-12-02_13h11.45.580,t1_Paradigm,2021.1.4,59.96491195917922,
Z,left,Pretarget,0,44,44,44,1884.0493220487842,1886.0508064003661,left,1,3,0.6442589565995149,C15T09,2022-12-02_13h11.45.580,t1_Paradigm,2021.1.4,59.96491195917922,
J,left,Distractor,0,45,45,45,1887.5494295174722,1889.5518320048577,left,1,3,0.8073387343320064,C15T09,2022-12-02_13h11.45.580,t1_Paradigm,2021.1.4,59.96491195917922,
M,left,Pretarget,0,46,46,46,1891.0494917531032,1893.0485925446847,left,1,3,0.4946509447763674,C15T09,2022-12-02_13h11.45.580,t1_Paradigm,2021.1.4,59.96491195917922,
Z,right,Target,0,47,47,47,1894.5495052267797,1896.5508086459595,left,0,3,1.2162164849578403,C15T09,2022-12-02_13h11.45.580,t1_Paradigm,2021.1.4,59.96491195917922,
P,left,Distractor,0,48,48,48,1898.049625206797,1900.0508269317215,left,1,3,0.660182292573154,C15T09,2022-12-02_13h11.45.580,t1_Paradigm,2021.1.4,59.96491195917922,
M,right,Target,0,49,49,49,1901.549435933528,1903.548659592343,right,1,3,0.4425622981507331,C15T09,2022-12-02_13h11.45.580,t1_Paradigm,2021.1.4,59.96491195917922,
K,left,Distractor,0,50,50,50,1905.0497439036262,1907.0497403747868,left,1,3,0.653534951095935,C15T09,2022-12-02_13h11.45.580,t1_Paradigm,2021.1.4,59.96491195917922,
Y,left,Distractor,0,51,51,51,1908.5496742895339,1910.550859974348,left,1,3,1.4243468307540752,C15T09,2022-12-02_13h11.45.580,t1_Paradigm,2021.1.4,59.96491195917922,
X,left,Distractor,0,52,52,52,1912.0485466699465,1914.0515833831741,left,1,3,0.6276150990161113,C15T09,2022-12-02_13h11.45.580,t1_Paradigm,2021.1.4,59.96491195917922,
F,left,Pretarget,0,53,53,53,1915.5495639336295,1917.5513867315021,left,1,3,0.6315850256942213,C15T09,2022-12-02_13h11.45.580,t1_Paradigm,2021.1.4,59.96491195917922,
M,left,Lure,0,54,54,54,1919.0494413871784,1921.0514101500157,left,1,3,0.5717403453309089,C15T09,2022-12-02_13h11.45.580,t1_Paradigm,2021.1.4,59.96491195917922,
V,left,Distractor,0,55,55,55,1922.5494625600986,1924.5512500697514,left,1,3,0.4799922109232284,C15T09,2022-12-02_13h11.45.580,t1_Paradigm,2021.1.4,59.96491195917922,
F,right,Target,0,56,56,56,1926.0496316228528,1928.051512485894,right,1,3,1.0595642992993817,C15T09,2022-12-02_13h11.45.580,t1_Paradigm,2021.1.4,59.96491195917922,
S,left,Distractor,0,57,57,57,1929.5494478032342,1931.5512859995943,left,1,3,0.5836376142106019,C15T09,2022-12-02_13h11.45.580,t1_Paradigm,2021.1.4,59.96491195917922,
D,left,Distractor,0,58,58,58,1933.0494112317683,1935.0502757935901,left,1,3,0.7167791720130481,C15T09,2022-12-02_13h11.45.580,t1_Paradigm,2021.1.4,59.96491195917922,
F,right,Target,0,59,59,59,1936.5487577577587,1938.5512542401557,left,0,3,0.9918448883108795,C15T09,2022-12-02_13h11.45.580,t1_Paradigm,2021.1.4,59.96491195917922,
V,left,Pretarget,0,60,60,60,1940.0495976178208,1942.0515644558473,left,1,3,1.3636520246509463,C15T09,2022-12-02_13h11.45.580,t1_Paradigm,2021.1.4,59.96491195917922,
J,left,Distractor,0,61,61,61,1943.549581898551,1945.5515195435728,left,1,3,1.0478842135635205,C15T09,2022-12-02_13h11.45.580,t1_Paradigm,2021.1.4,59.96491195917922,
V,left,Lure,0,62,62,62,1947.0496098083095,1949.0513645961182,left,1,3,1.0357104131835513,C15T09,2022-12-02_13h11.45.580,t1_Paradigm,2021.1.4,59.96491195917922,
V,right,Target,0,63,63,63,1950.5492784196977,1952.5495700288448,right,1,3,1.345517720154021,C15T09,2022-12-02_13h11.45.580,t1_Paradigm,2021.1.4,59.96491195917922,
R,left,Distractor,0,0,0,0,2087.9081315647927,2089.9018335767905,left,1,4,0.3935985853895545,C15T09,2022-12-02_13h11.45.580,t1_Paradigm,2021.1.4,59.96491195917922,
F,left,Distractor,0,1,1,1,2091.399606568215,2093.4012702482287,left,1,4,0.46207573113497347,C15T09,2022-12-02_13h11.45.580,t1_Paradigm,2021.1.4,59.96491195917922,
P,left,Pretarget,0,2,2,2,2094.899583791266,2096.9018355016015,left,1,4,0.5295054577873088,C15T09,2022-12-02_13h11.45.580,t1_Paradigm,2021.1.4,59.96491195917922,
H,left,Distractor,0,3,3,3,2098.3995042323368,2100.401871752285,left,1,4,0.4692819100455381,C15T09,2022-12-02_13h11.45.580,t1_Paradigm,2021.1.4,59.96491195917922,
Z,left,Distractor,0,4,4,4,2101.8996947887936,2103.901274418633,left,1,4,0.5059973963652737,C15T09,2022-12-02_13h11.45.580,t1_Paradigm,2021.1.4,59.96491195917922,
T,left,Distractor,0,5,5,5,2105.3996245331364,2107.401210899814,left,1,4,0.6379689886816777,C15T09,2022-12-02_13h11.45.580,t1_Paradigm,2021.1.4,59.96491195917922,
P,right,Target,0,6,6,6,2108.8996861271444,2110.901559932565,right,1,4,1.2015949641354382,C15T09,2022-12-02_13h11.45.580,t1_Paradigm,2021.1.4,59.96491195917922,
G,left,Distractor,0,7,7,7,2112.3994987786864,2114.4013180477195,left,1,4,0.7896352672250941,C15T09,2022-12-02_13h11.45.580,t1_Paradigm,2021.1.4,59.96491195917922,
L,left,Distractor,0,8,8,8,2115.8995793000213,2117.9161599596264,left,1,4,0.7151491762488149,C15T09,2022-12-02_13h11.45.580,t1_Paradigm,2021.1.4,59.96491195917922,
P,left,Lure,0,9,9,9,2119.39950647793,2121.4014758823905,left,1,4,1.0058020278811455,C15T09,2022-12-02_13h11.45.580,t1_Paradigm,2021.1.4,59.96491195917922,
Q,left,Pretarget,0,10,10,10,2122.899478247331,2124.9017004438792,left,1,4,1.009429337864276,C15T09,2022-12-02_13h11.45.580,t1_Paradigm,2021.1.4,59.96491195917922,
D,left,Distractor,0,11,11,11,2126.399674899061,2128.4012728146045,left,1,4,0.7100933341425844,C15T09,2022-12-02_13h11.45.580,t1_Paradigm,2021.1.4,59.96491195917922,
M,left,Pretarget,0,12,12,12,2129.8996620670077,2131.9013113108813,left,1,4,0.762041469453834,C15T09,2022-12-02_13h11.45.580,t1_Paradigm,2021.1.4,59.96491195917922,
C,left,Distractor,0,13,13,13,2133.3996338364086,2135.4009491252364,left,1,4,0.6382625226397067,C15T09,2022-12-02_13h11.45.580,t1_Paradigm,2021.1.4,59.96491195917922,
Q,right,Target,0,14,14,14,2136.8987285327166,2138.9015336267767,left,0,4,1.4256528163678013,C15T09,2022-12-02_13h11.45.580,t1_Paradigm,2021.1.4,59.96491195917922,
R,left,Distractor,0,15,15,15,2140.3996238915133,2142.401232393575,left,1,4,1.3181109500583261,C15T09,2022-12-02_13h11.45.580,t1_Paradigm,2021.1.4,59.96491195917922,
M,right,Target,0,16,16,16,2143.899639290059,2145.9012930251774,left,0,4,1.049870299641043,C15T09,2022-12-02_13h11.45.580,t1_Paradigm,2021.1.4,59.96491195917922,
S,left,Distractor,0,17,17,17,2147.3996665581944,2149.4016741381492,left,1,4,0.5896241033333354,C15T09,2022-12-02_13h11.45.580,t1_Paradigm,2021.1.4,59.96491195917922,
Z,left,Distractor,0,18,18,18,2150.899556843855,2152.912735717371,left,1,4,0.7264420538558625,C15T09,2022-12-02_13h11.45.580,t1_Paradigm,2021.1.4,59.96491195917922,
L,left,Pretarget,0,19,19,19,2154.399640573247,2156.4014075515443,left,1,4,1.3497564790886827,C15T09,2022-12-02_13h11.45.580,t1_Paradigm,2021.1.4,59.96491195917922,
M,right,Target,0,20,20,20,2157.899594056944,2159.9017241832917,right,1,4,1.1296191500732675,C15T09,2022-12-02_13h11.45.580,t1_Paradigm,2021.1.4,59.96491195917922,
P,left,Distractor,0,21,21,21,2161.399539199774,2163.3987724825856,left,1,4,0.8485788143589161,C15T09,2022-12-02_13h11.45.580,t1_Paradigm,2021.1.4,59.96491195917922,
F,left,Distractor,0,22,22,22,2164.899509685987,2166.9014312908985,left,1,4,1.4257862700615078,C15T09,2022-12-02_13h11.45.580,t1_Paradigm,2021.1.4,59.96491195917922,
L,right,Target,0,23,23,23,2168.399685164739,2170.4015878423234,None,0,4,,C15T09,2022-12-02_13h11.45.580,t1_Paradigm,2021.1.4,59.96491195917922,
L,left,Lure,0,24,24,24,2171.8994760017376,2173.8997352098813,left,1,4,0.8436958846868947,C15T09,2022-12-02_13h11.45.580,t1_Paradigm,2021.1.4,59.96491195917922,
V,left,Pretarget,0,25,25,25,2175.3996710494393,2177.4014941680944,left,1,4,0.6537040137918666,C15T09,2022-12-02_13h11.45.580,t1_Paradigm,2021.1.4,59.96491195917922,
Z,left,Distractor,0,26,26,26,2178.899642498058,2180.9010703884414,left,1,4,0.6582712741219439,C15T09,2022-12-02_13h11.45.580,t1_Paradigm,2021.1.4,59.96491195917922,
H,left,Distractor,0,27,27,27,2182.3987028685515,2184.4011201128014,left,1,4,0.5821022550226189,C15T09,2022-12-02_13h11.45.580,t1_Paradigm,2021.1.4,59.96491195917922,
X,left,Distractor,0,28,28,28,2185.8996771447128,2187.9014627294964,left,1,4,0.5376345845288597,C15T09,2022-12-02_13h11.45.580,t1_Paradigm,2021.1.4,59.96491195917922,
V,right,Target,0,29,29,29,2189.39965693414,2191.4020023187622,right,1,4,1.3573357508867048,C15T09,2022-12-02_13h11.45.580,t1_Paradigm,2021.1.4,59.96491195917922,
C,left,Distractor,0,30,30,30,2192.8997708189418,2194.9015904087573,left,1,4,0.5618195385322906,C15T09,2022-12-02_13h11.45.580,t1_Paradigm,2021.1.4,59.96491195917922,
S,left,Pretarget,0,31,31,31,2196.3996396108414,2198.40101168165,left,1,4,0.7419335900922306,C15T09,2022-12-02_13h11.45.580,t1_Paradigm,2021.1.4,59.96491195917922,
D,left,Distractor,0,32,32,32,2199.8995276509086,2201.9013613560237,left,1,4,0.6022483098204248,C15T09,2022-12-02_13h11.45.580,t1_Paradigm,2021.1.4,59.96491195917922,
V,left,Distractor,0,33,33,33,2203.399619721109,2205.4014011354884,left,1,4,1.0538479256792925,C15T09,2022-12-02_13h11.45.580,t1_Paradigm,2021.1.4,59.96491195917922,
R,left,Distractor,0,34,34,34,2206.8995629391284,2208.901018418488,left,1,4,0.8181658072280698,C15T09,2022-12-02_13h11.45.580,t1_Paradigm,2021.1.4,59.96491195917922,
S,right,Target,0,35,35,35,2210.39959149051,2212.4015907295397,right,1,4,1.1897256050724536,C15T09,2022-12-02_13h11.45.580,t1_Paradigm,2021.1.4,59.96491195917922,
Y,left,Distractor,0,36,36,36,2213.8994070292683,2215.9009885839187,left,1,4,0.6502111199079081,C15T09,2022-12-02_13h11.45.580,t1_Paradigm,2021.1.4,59.96491195917922,
N,left,Pretarget,0,37,37,37,2217.399475039332,2219.4013116316637,left,1,4,0.6219795674551278,C15T09,2022-12-02_13h11.45.580,t1_Paradigm,2021.1.4,59.96491195917922,
Z,left,Pretarget,0,38,38,38,2220.899517385231,2222.9017549802666,left,1,4,1.0254405736923218,C15T09,2022-12-02_13h11.45.580,t1_Paradigm,2021.1.4,59.96491195917922,
P,left,Pretarget,0,39,39,39,2224.399624853919,2226.4015329851536,left,1,4,0.5496794224018231,C15T09,2022-12-02_13h11.45.580,t1_Paradigm,2021.1.4,59.96491195917922,
M,left,Distractor,0,40,40,40,2227.899708904093,2229.9015400428325,left,1,4,0.5696525648236275,C15T09,2022-12-02_13h11.45.580,t1_Paradigm,2021.1.4,59.96491195917922,
N,right,Target,0,41,41,41,2231.399529254879,2233.400945596397,right,1,4,0.5102412881096825,C15T09,2022-12-02_13h11.45.580,t1_Paradigm,2021.1.4,59.96491195917922,
Z,right,Target,0,42,42,42,2234.899759270018,2236.9010986190406,right,1,4,0.6902266980614513,C15T09,2022-12-02_13h11.45.580,t1_Paradigm,2021.1.4,59.96491195917922,
P,right,Target,0,43,43,43,2238.3994878713856,2240.401371942484,right,1,4,0.48593603330664337,C15T09,2022-12-02_13h11.45.580,t1_Paradigm,2021.1.4,59.96491195917922,
X,left,Pretarget,0,44,44,44,2241.899552994233,2243.9014332157094,left,1,4,0.5697664495673962,C15T09,2022-12-02_13h11.45.580,t1_Paradigm,2021.1.4,59.96491195917922,
Z,left,Lure,0,45,45,45,2245.3994968538755,2247.4013866994064,None,0,4,,C15T09,2022-12-02_13h11.45.580,t1_Paradigm,2021.1.4,59.96491195917922,
R,left,Pretarget,0,46,46,46,2248.899546899018,2250.9015406844555,left,1,4,1.0256529446924105,C15T09,2022-12-02_13h11.45.580,t1_Paradigm,2021.1.4,59.96491195917922,
K,left,Distractor,0,47,47,47,2252.399539841339,2254.401536513993,left,1,4,0.7574527153628878,C15T09,2022-12-02_13h11.45.580,t1_Paradigm,2021.1.4,59.96491195917922,
X,right,Target,0,48,48,48,2255.8995408037445,2257.9019638224854,left,0,4,1.0652723321691155,C15T09,2022-12-02_13h11.45.580,t1_Paradigm,2021.1.4,59.96491195917922,
B,left,Distractor,0,49,49,49,2259.3995603726944,2261.4013671304565,left,1,4,1.3578564127674326,C15T09,2022-12-02_13h11.45.580,t1_Paradigm,2021.1.4,59.96491195917922,
R,right,Target,0,50,50,50,2262.8997053752537,2264.9010626891977,right,1,4,0.5144896710989997,C15T09,2022-12-02_13h11.45.580,t1_Paradigm,2021.1.4,59.96491195917922,
Y,left,Pretarget,0,51,51,51,2266.3996848439565,2268.4012728146045,left,1,4,0.5339508133474737,C15T09,2022-12-02_13h11.45.580,t1_Paradigm,2021.1.4,59.96491195917922,
W,left,Pretarget,0,52,52,52,2269.8996848439565,2271.9010819373652,left,1,4,0.9701464718673378,C15T09,2022-12-02_13h11.45.580,t1_Paradigm,2021.1.4,59.96491195917922,
Z,left,Distractor,0,53,53,53,2273.3996489141136,2275.4015955416253,left,1,4,0.845784627541434,C15T09,2022-12-02_13h11.45.580,t1_Paradigm,2021.1.4,59.96491195917922,
Q,left,Distractor,0,54,54,54,2276.899652442895,2278.9015746894875,left,1,4,0.6576056096819229,C15T09,2022-12-02_13h11.45.580,t1_Paradigm,2021.1.4,59.96491195917922,
Y,right,Target,0,55,55,55,2280.3994837009814,2282.4012971955817,left,0,4,0.7258232265012339,C15T09,2022-12-02_13h11.45.580,t1_Paradigm,2021.1.4,59.96491195917922,
W,right,Target,0,56,56,56,2283.8997060168767,2285.898768953746,right,1,4,0.42848100821720436,C15T09,2022-12-02_13h11.45.580,t1_Paradigm,2021.1.4,59.96491195917922,
H,left,Pretarget,0,57,57,57,2287.399740984314,2289.4011069599073,left,1,4,0.5742480557528324,C15T09,2022-12-02_13h11.45.580,t1_Paradigm,2021.1.4,59.96491195917922,
M,left,Distractor,0,58,58,58,2290.8996784279007,2292.90168119577,left,1,4,1.0737049377057701,C15T09,2022-12-02_13h11.45.580,t1_Paradigm,2021.1.4,59.96491195917922,
R,left,Pretarget,0,59,59,59,2294.3996803527116,2296.4013469199417,left,1,4,0.8859038247610442,C15T09,2022-12-02_13h11.45.580,t1_Paradigm,2021.1.4,59.96491195917922,
J,left,Distractor,0,60,60,60,2297.899557485478,2299.9016247345717,left,1,4,0.7936183467973024,C15T09,2022-12-02_13h11.45.580,t1_Paradigm,2021.1.4,59.96491195917922,
H,right,Target,0,61,61,61,2301.3993326031487,2303.4017318825354,right,1,4,1.1655406510690227,C15T09,2022-12-02_13h11.45.580,t1_Paradigm,2021.1.4,59.96491195917922,
Z,left,Distractor,0,62,62,62,2304.899556843855,2306.9013790001627,left,1,4,0.8979772140737623,C15T09,2022-12-02_13h11.45.580,t1_Paradigm,2021.1.4,59.96491195917922,
R,right,Target,0,63,63,63,2308.399620362732,2310.4016250554123,left,0,4,0.8855384311173111,C15T09,2022-12-02_13h11.45.580,t1_Paradigm,2021.1.4,59.96491195917922,
J,left,Pretarget,0,0,0,0,2339.364299403329,2341.36858564103,left,1,4,0.4948973208665848,C15T09,2022-12-02_13h11.45.580,t1_Paradigm,2021.1.4,59.96491195917922,
G,left,Pretarget,0,1,1,1,2342.8661606974783,2344.8680245580035,left,1,4,0.43571670091478154,C15T09,2022-12-02_13h11.45.580,t1_Paradigm,2021.1.4,59.96491195917922,
Z,left,Distractor,0,2,2,2,2346.366279073467,2348.368438072037,left,1,4,0.4549122189055197,C15T09,2022-12-02_13h11.45.580,t1_Paradigm,2021.1.4,59.96491195917922,
F,left,Distractor,0,3,3,3,2349.866323664959,2351.868419786275,left,1,4,0.6188918466796167,C15T09,2022-12-02_13h11.45.580,t1_Paradigm,2021.1.4,59.96491195917922,
J,right,Target,0,4,4,4,2353.365480596898,2355.368283445365,left,0,4,0.719029599102214,C15T09,2022-12-02_13h11.45.580,t1_Paradigm,2021.1.4,59.96491195917922,
G,right,Target,0,5,5,5,2356.866398411861,2358.8685019116383,None,0,4,,C15T09,2022-12-02_13h11.45.580,t1_Paradigm,2021.1.4,59.96491195917922,
H,left,Distractor,0,6,6,6,2360.3653859602637,2362.3681496708887,None,0,4,,C15T09,2022-12-02_13h11.45.580,t1_Paradigm,2021.1.4,59.96491195917922,
P,left,Distractor,0,7,7,7,2363.8662543717073,2365.865498241037,left,1,4,0.6537903096177615,C15T09,2022-12-02_13h11.45.580,t1_Paradigm,2021.1.4,59.96491195917922,
G,left,Lure,0,8,8,8,2367.3661972689442,2369.3678253398975,left,1,4,0.5756656805169769,C15T09,2022-12-02_13h11.45.580,t1_Paradigm,2021.1.4,59.96491195917922,
S,left,Distractor,0,9,9,9,2370.866231273976,2372.865671794978,left,1,4,0.5498321242048405,C15T09,2022-12-02_13h11.45.580,t1_Paradigm,2021.1.4,59.96491195917922,
R,left,Pretarget,0,10,10,10,2374.366452627466,2376.3685564480256,left,1,4,0.8065152352210134,C15T09,2022-12-02_13h11.45.580,t1_Paradigm,2021.1.4,59.96491195917922,
T,left,Pretarget,0,11,11,11,2377.8662694494124,2379.8654055292136,left,1,4,0.9579409121070057,C15T09,2022-12-02_13h11.45.580,t1_Paradigm,2021.1.4,59.96491195917922,
X,left,Distractor,0,12,12,12,2381.366439474572,2383.3681570492918,left,1,4,0.5913509813253768,C15T09,2022-12-02_13h11.45.580,t1_Paradigm,2021.1.4,59.96491195917922,
F,left,Pretarget,0,13,13,13,2384.866323664959,2386.8684031045996,left,1,4,0.8349800108117051,C15T09,2022-12-02_13h11.45.580,t1_Paradigm,2021.1.4,59.96491195917922,
R,right,Target,0,14,14,14,2388.3662274243543,2390.368407916627,left,0,4,0.9668823098763824,C15T09,2022-12-02_13h11.45.580,t1_Paradigm,2021.1.4,59.96491195917922,
T,right,Target,0,15,15,15,2391.8662235747324,2393.867847154441,left,0,4,0.8915910054929554,C15T09,2022-12-02_13h11.45.580,t1_Paradigm,2021.1.4,59.96491195917922,
C,left,Distractor,0,16,16,16,2395.3663782013464,2397.3678667233908,left,1,4,0.5280300886370242,C15T09,2022-12-02_13h11.45.580,t1_Paradigm,2021.1.4,59.96491195917922,
F,right,Target,0,17,17,17,2398.8663875046186,2400.868239174655,right,1,4,0.7710961104021408,C15T09,2022-12-02_13h11.45.580,t1_Paradigm,2021.1.4,59.96491195917922,
M,left,Distractor,0,18,18,18,2402.36649208609,2404.3687011298025,left,1,4,0.5345741318888031,C15T09,2022-12-02_13h11.45.580,t1_Paradigm,2021.1.4,59.96491195917922,
N,left,Distractor,0,19,19,19,2405.86639648705,2407.868579545757,left,1,4,0.8426725257886574,C15T09,2022-12-02_13h11.45.580,t1_Paradigm,2021.1.4,59.96491195917922,
R,left,Lure,0,20,20,20,2409.3660493791103,2411.368237570685,left,1,4,0.8952224859385751,C15T09,2022-12-02_13h11.45.580,t1_Paradigm,2021.1.4,59.96491195917922,
F,right,Target,0,21,21,21,2412.8663958454854,2414.868265801226,right,1,4,0.43507798382779583,C15T09,2022-12-02_13h11.45.580,t1_Paradigm,2021.1.4,59.96491195917922,
P,left,Distractor,0,22,22,22,2416.3663499707473,2418.3682346834685,left,1,4,0.5670729947159998,C15T09,2022-12-02_13h11.45.580,t1_Paradigm,2021.1.4,59.96491195917922,
L,left,Pretarget,0,23,23,23,2419.866264637385,2421.8682106232736,left,1,4,0.8275056413258426,C15T09,2022-12-02_13h11.45.580,t1_Paradigm,2021.1.4,59.96491195917922,
T,left,Distractor,0,24,24,24,2423.366281639901,2425.36862092925,left,1,4,0.7186844160314649,C15T09,2022-12-02_13h11.45.580,t1_Paradigm,2021.1.4,59.96491195917922,
F,left,Distractor,0,25,25,25,2426.8662402564078,2428.868529179832,right,0,4,0.6109211962320842,C15T09,2022-12-02_13h11.45.580,t1_Paradigm,2021.1.4,59.96491195917922,
V,left,Distractor,0,26,26,26,2430.3664051486994,2432.3683540218626,left,1,4,0.5189436883083545,C15T09,2022-12-02_13h11.45.580,t1_Paradigm,2021.1.4,59.96491195917922,
L,right,Target,0,27,27,27,2433.866428888112,2435.8677695203223,right,1,4,1.355643519491423,C15T09,2022-12-02_13h11.45.580,t1_Paradigm,2021.1.4,59.96491195917922,
S,left,Pretarget,0,28,28,28,2437.3663599156425,2439.3680957761244,left,1,4,0.687220781808719,C15T09,2022-12-02_13h11.45.580,t1_Paradigm,2021.1.4,59.96491195917922,
W,left,Distractor,0,29,29,29,2440.866267203819,2442.868031936465,left,1,4,0.6753029815736227,C15T09,2022-12-02_13h11.45.580,t1_Paradigm,2021.1.4,59.96491195917922,
Q,left,Distractor,0,30,30,30,2444.3664529482485,2446.368104758556,left,1,4,0.6793649785686284,C15T09,2022-12-02_13h11.45.580,t1_Paradigm,2021.1.4,59.96491195917922,
L,right,Target,0,31,31,31,2447.8663422715035,2449.8681272147223,left,0,4,0.7152425296371803,C15T09,2022-12-02_13h11.45.580,t1_Paradigm,2021.1.4,59.96491195917922,
S,right,Target,0,32,32,32,2451.3662713742233,2453.3678510040627,left,0,4,0.9434066494577564,C15T09,2022-12-02_13h11.45.580,t1_Paradigm,2021.1.4,59.96491195917922,
Z,left,Pretarget,0,33,33,33,2454.866271053441,2456.8685112149105,left,1,4,0.6750286957831122,C15T09,2022-12-02_13h11.45.580,t1_Paradigm,2021.1.4,59.96491195917922,
F,left,Distractor,0,34,34,34,2458.366356386803,2460.3683472850244,left,1,4,0.6951753921457566,C15T09,2022-12-02_13h11.45.580,t1_Paradigm,2021.1.4,59.96491195917922,
V,left,Distractor,0,35,35,35,2461.866460005869,2463.8681384428055,left,1,4,0.5392809412442148,C15T09,2022-12-02_13h11.45.580,t1_Paradigm,2021.1.4,59.96491195917922,
M,left,Distractor,0,36,36,36,2465.3662883767392,2467.3684765682556,left,1,4,0.5429085720097646,C15T09,2022-12-02_13h11.45.580,t1_Paradigm,2021.1.4,59.96491195917922,
Z,right,Target,0,37,37,37,2468.8665215999354,2470.8680656207143,left,0,4,0.8512571915634908,C15T09,2022-12-02_13h11.45.580,t1_Paradigm,2021.1.4,59.96491195917922,
H,left,Pretarget,0,38,38,38,2472.3664298505173,2474.3681653901585,left,1,4,0.967126761097461,C15T09,2022-12-02_13h11.45.580,t1_Paradigm,2021.1.4,59.96491195917922,
L,left,Distractor,0,39,39,39,2475.8655245468253,2477.8684598865802,None,0,4,,C15T09,2022-12-02_13h11.45.580,t1_Paradigm,2021.1.4,59.96491195917922,
G,left,Distractor,0,40,40,40,2479.366398732702,2481.368561901618,left,1,4,0.8948817939963192,C15T09,2022-12-02_13h11.45.580,t1_Paradigm,2021.1.4,59.96491195917922,
K,left,Distractor,0,41,41,41,2482.866518712719,2484.8831035427283,left,1,4,0.5002656241995282,C15T09,2022-12-02_13h11.45.580,t1_Paradigm,2021.1.4,59.96491195917922,
H,right,Target,0,42,42,42,2486.3662989631994,2488.3684842674993,right,1,4,0.47086025663884357,C15T09,2022-12-02_13h11.45.580,t1_Paradigm,2021.1.4,59.96491195917922,
B,left,Distractor,0,43,43,43,2489.866358311614,2491.868228588195,left,1,4,0.5392103647463955,C15T09,2022-12-02_13h11.45.580,t1_Paradigm,2021.1.4,59.96491195917922,
Z,left,Distractor,0,44,44,44,2493.3663076248486,2495.3686106635723,left,1,4,0.5587035870994441,C15T09,2022-12-02_13h11.45.580,t1_Paradigm,2021.1.4,59.96491195917922,
T,left,Pretarget,0,45,45,45,2496.866231915541,2498.8679196556914,left,1,4,0.5635691935312934,C15T09,2022-12-02_13h11.45.580,t1_Paradigm,2021.1.4,59.96491195917922,
H,right,Target,0,46,46,46,2500.3663826925913,2502.368922804075,left,0,4,1.0306991626275703,C15T09,2022-12-02_13h11.45.580,t1_Paradigm,2021.1.4,59.96491195917922,
F,left,Distractor,0,47,47,47,2503.8662867727107,2505.865388205857,left,1,4,0.6539584099664353,C15T09,2022-12-02_13h11.45.580,t1_Paradigm,2021.1.4,59.96491195917922,
R,left,Distractor,0,48,48,48,2507.366364086047,2509.3682334002224,left,1,4,0.5112967272289097,C15T09,2022-12-02_13h11.45.580,t1_Paradigm,2021.1.4,59.96491195917922,
T,right,Target,0,49,49,49,2510.8660952538485,2512.8683957261383,right,1,4,0.6749972571851686,C15T09,2022-12-02_13h11.45.580,t1_Paradigm,2021.1.4,59.96491195917922,
H,right,Target,0,50,50,50,2514.366453910654,2516.3653490680153,right,1,4,0.5380035070120357,C15T09,2022-12-02_13h11.45.580,t1_Paradigm,2021.1.4,59.96491195917922,
Y,left,Pretarget,0,51,51,51,2517.8662649581674,2519.8680649790913,left,1,4,0.61928675416857,C15T09,2022-12-02_13h11.45.580,t1_Paradigm,2021.1.4,59.96491195917922,
H,left,Distractor,0,52,52,52,2521.3662274243543,2523.3656053889426,left,1,4,1.1057803416042589,C15T09,2022-12-02_13h11.45.580,t1_Paradigm,2021.1.4,59.96491195917922,
S,left,Distractor,0,53,53,53,2524.8662585421116,2526.8682699716883,left,1,4,0.6112397527322173,C15T09,2022-12-02_13h11.45.580,t1_Paradigm,2021.1.4,59.96491195917922,
Q,left,Distractor,0,54,54,54,2528.3664609682746,2530.3683784027817,left,1,4,0.7111295251525007,C15T09,2022-12-02_13h11.45.580,t1_Paradigm,2021.1.4,59.96491195917922,
Y,right,Target,0,55,55,55,2531.866468346736,2533.8682555356063,left,0,4,0.6190824031946249,C15T09,2022-12-02_13h11.45.580,t1_Paradigm,2021.1.4,59.96491195917922,
R,left,Distractor,0,56,56,56,2535.3665389232337,2537.368297239882,left,1,4,0.9430479926522821,C15T09,2022-12-02_13h11.45.580,t1_Paradigm,2021.1.4,59.96491195917922,
H,left,Pretarget,0,57,57,57,2538.8664548730594,2540.868482663529,right,0,4,0.5311479648808017,C15T09,2022-12-02_13h11.45.580,t1_Paradigm,2021.1.4,59.96491195917922,
J,left,Distractor,0,58,58,58,2542.3665094094467,2544.368141971645,left,1,4,0.6475946574937552,C15T09,2022-12-02_13h11.45.580,t1_Paradigm,2021.1.4,59.96491195917922,
V,left,Distractor,0,59,59,59,2545.866396807891,2547.8654244565405,left,1,4,0.6219198982580565,C15T09,2022-12-02_13h11.45.580,t1_Paradigm,2021.1.4,59.96491195917922,
Y,left,Lure,0,60,60,60,2549.3662800358725,2551.3683164879913,left,1,4,1.1830339928274043,C15T09,2022-12-02_13h11.45.580,t1_Paradigm,2021.1.4,59.96491195917922,
H,right,Target,0,61,61,61,2552.8662550133304,2554.8680505430093,right,1,4,0.8353284019394778,C15T09,2022-12-02_13h11.45.580,t1_Paradigm,2021.1.4,59.96491195917922,
L,left,Distractor,0,62,62,62,2556.3656355443527,2558.3680534302257,left,1,4,0.6634612114867195,C15T09,2022-12-02_13h11.45.580,t1_Paradigm,2021.1.4,59.96491195917922,
P,left,Distractor,0,63,63,63,2559.8664372289204,2561.8681589741027,left,1,4,0.7793695981381461,C15T09,2022-12-02_13h11.45.580,t1_Paradigm,2021.1.4,59.96491195917922,
