Letter,CorrAnswer,Stimulus,finaln_nback_run.thisRepN,finaln_nback_run.thisTrialN,finaln_nback_run.thisN,finaln_nback_run.thisIndex,finaln_fixcross.started,finaln_nback_trial.started,finaln_trial_resp.keys,finaln_trial_resp.corr,finaln_trial_resp.rt,finaln_level,finaln_money,Participant,date,expName,psychopyVersion,frameRate,
F,left,Distractor,0,0,0,0,2766.2408012475353,2768.2348061025514,left,1,0.6029926321461971,1,3.0,C15T02,2022-10-06_14h45.31.035,t1_Paradigm,2021.1.4,60.017732749276476,
T,left,Pretarget,0,1,1,1,2769.7348418719557,2771.7351931499834,left,1,1.2308137235195318,1,3.0,C15T02,2022-10-06_14h45.31.035,t1_Paradigm,2021.1.4,60.017732749276476,
B,left,Distractor,0,2,2,2,2773.2350017916797,2775.2353992651733,left,1,0.7222584193623334,1,3.0,C15T02,2022-10-06_14h45.31.035,t1_Paradigm,2021.1.4,60.017732749276476,
T,right,Target,0,3,3,3,2776.734910202751,2778.7349660222717,right,1,0.5831382056094299,1,3.0,C15T02,2022-10-06_14h45.31.035,t1_Paradigm,2021.1.4,60.017732749276476,
Z,left,Distractor,0,4,4,4,2780.234821180238,2782.2349732403163,left,1,0.5547761139896465,1,3.0,C15T02,2022-10-06_14h45.31.035,t1_Paradigm,2021.1.4,60.017732749276476,
T,right,Target,0,5,5,5,2783.735094022213,2785.7347677667276,right,1,0.5910976203231257,1,3.0,C15T02,2022-10-06_14h45.31.035,t1_Paradigm,2021.1.4,60.017732749276476,
L,left,Distractor,0,6,6,6,2787.2348247090595,2789.2348574308453,left,1,0.7227476421867323,1,3.0,C15T02,2022-10-06_14h45.31.035,t1_Paradigm,2021.1.4,60.017732749276476,
T,right,Target,0,7,7,7,2790.734838022334,2792.735361250154,right,1,0.45446105449445895,1,3.0,C15T02,2022-10-06_14h45.31.035,t1_Paradigm,2021.1.4,60.017732749276476,
Z,left,Lure,0,8,8,8,2794.2348760373534,2796.2347778719886,left,1,0.5391110388227389,1,3.0,C15T02,2022-10-06_14h45.31.035,t1_Paradigm,2021.1.4,60.017732749276476,
J,left,Distractor,0,9,9,9,2797.7349486989733,2799.734809791771,left,1,0.623090868084546,1,3.0,C15T02,2022-10-06_14h45.31.035,t1_Paradigm,2021.1.4,60.017732749276476,
D,left,Pretarget,0,10,10,10,2801.234817651417,2803.2347573406696,left,1,0.8030260596970038,1,3.0,C15T02,2022-10-06_14h45.31.035,t1_Paradigm,2021.1.4,60.017732749276476,
H,left,Distractor,0,11,11,11,2804.7349342628913,2806.735192829183,left,1,0.7906838500966842,1,3.0,C15T02,2022-10-06_14h45.31.035,t1_Paradigm,2021.1.4,60.017732749276476,
D,right,Target,0,12,12,12,2808.2346328695494,2810.2349725987115,right,1,0.5868296725020627,1,3.0,C15T02,2022-10-06_14h45.31.035,t1_Paradigm,2021.1.4,60.017732749276476,
S,left,Distractor,0,13,13,13,2811.7349188644002,2813.735369911803,left,1,0.7503372429455339,1,3.0,C15T02,2022-10-06_14h45.31.035,t1_Paradigm,2021.1.4,60.017732749276476,
R,left,Pretarget,0,14,14,14,2815.2349414809323,2817.234856789244,left,1,0.5311326968003414,1,3.0,C15T02,2022-10-06_14h45.31.035,t1_Paradigm,2021.1.4,60.017732749276476,
Z,left,Distractor,0,15,15,15,2818.734814282998,2820.734776107576,left,1,0.5188860861489957,1,3.0,C15T02,2022-10-06_14h45.31.035,t1_Paradigm,2021.1.4,60.017732749276476,
R,right,Target,0,16,16,16,2822.234663666528,2824.2353591649407,right,1,0.6187363037643081,1,3.0,C15T02,2022-10-06_14h45.31.035,t1_Paradigm,2021.1.4,60.017732749276476,
T,left,Distractor,0,17,17,17,2825.7346930198983,2827.7346946239086,left,1,0.5911675551287772,1,3.0,C15T02,2022-10-06_14h45.31.035,t1_Paradigm,2021.1.4,60.017732749276476,
M,left,Distractor,0,18,18,18,2829.2345995061587,2831.2349507841864,left,1,0.5947441749594873,1,3.0,C15T02,2022-10-06_14h45.31.035,t1_Paradigm,2021.1.4,60.017732749276476,
R,left,Lure,0,19,19,19,2832.7347465938074,2834.734439265634,left,1,0.47136249999675783,1,3.0,C15T02,2022-10-06_14h45.31.035,t1_Paradigm,2021.1.4,60.017732749276476,
J,left,Distractor,0,20,20,20,2836.234810272974,2838.235280568486,left,1,0.6503647998251836,1,3.0,C15T02,2022-10-06_14h45.31.035,t1_Paradigm,2021.1.4,60.017732749276476,
K,left,Distractor,0,21,21,21,2839.734557962318,2841.735130914425,left,1,0.4628811406691966,1,3.0,C15T02,2022-10-06_14h45.31.035,t1_Paradigm,2021.1.4,60.017732749276476,
Z,left,Distractor,0,22,22,22,2843.2348959270676,2845.234994734037,left,1,0.4989626872156805,1,3.0,C15T02,2022-10-06_14h45.31.035,t1_Paradigm,2021.1.4,60.017732749276476,
W,left,Pretarget,0,23,23,23,2846.7347526890408,2848.7345813808533,left,1,0.5510872135128011,1,3.0,C15T02,2022-10-06_14h45.31.035,t1_Paradigm,2021.1.4,60.017732749276476,
Q,left,Distractor,0,24,24,24,2850.2349812603607,2852.2346646289334,left,1,0.491229117003968,1,3.0,C15T02,2022-10-06_14h45.31.035,t1_Paradigm,2021.1.4,60.017732749276476,
W,right,Target,0,25,25,25,2853.7348511752098,2855.734879084972,right,1,0.5750286556249193,1,3.0,C15T02,2022-10-06_14h45.31.035,t1_Paradigm,2021.1.4,60.017732749276476,
D,left,Pretarget,0,26,26,26,2857.2351958767977,2859.235423646114,left,1,0.5625581252861593,1,3.0,C15T02,2022-10-06_14h45.31.035,t1_Paradigm,2021.1.4,60.017732749276476,
W,right,Target,0,27,27,27,2860.7349804583573,2862.7347802780023,right,1,0.5189242615706462,1,3.0,C15T02,2022-10-06_14h45.31.035,t1_Paradigm,2021.1.4,60.017732749276476,
D,right,Target,0,28,28,28,2864.234846844385,2866.234722694069,right,1,0.42715215535645257,1,3.0,C15T02,2022-10-06_14h45.31.035,t1_Paradigm,2021.1.4,60.017732749276476,
L,left,Pretarget,0,29,29,29,2867.7346923782934,2869.7348624032747,left,1,0.5111855585273588,1,3.0,C15T02,2022-10-06_14h45.31.035,t1_Paradigm,2021.1.4,60.017732749276476,
P,left,Distractor,0,30,30,30,2871.2348891902293,2873.2346296615324,left,1,0.7069921008951496,1,3.0,C15T02,2022-10-06_14h45.31.035,t1_Paradigm,2021.1.4,60.017732749276476,
L,right,Target,0,31,31,31,2874.7347334409314,2876.735033711462,right,1,0.48675521439508884,1,3.0,C15T02,2022-10-06_14h45.31.035,t1_Paradigm,2021.1.4,60.017732749276476,
R,left,Distractor,0,32,32,32,2878.2347669647243,2880.2347220524643,left,1,0.44313899478220264,1,3.0,C15T02,2022-10-06_14h45.31.035,t1_Paradigm,2021.1.4,60.017732749276476,
V,left,Distractor,0,33,33,33,2881.734808508565,2883.734685641455,left,1,0.5911354749405291,1,3.0,C15T02,2022-10-06_14h45.31.035,t1_Paradigm,2021.1.4,60.017732749276476,
L,left,Lure,0,34,34,34,2885.234794553682,2887.234739696567,left,1,0.49910319842456374,1,3.0,C15T02,2022-10-06_14h45.31.035,t1_Paradigm,2021.1.4,60.017732749276476,
H,left,Distractor,0,35,35,35,2888.7346384835837,2890.7357699517124,left,1,0.45406710982570075,1,3.0,C15T02,2022-10-06_14h45.31.035,t1_Paradigm,2021.1.4,60.017732749276476,
K,left,Pretarget,0,36,36,36,2892.234863205278,2894.2346408895974,left,1,0.5871190357720479,1,3.0,C15T02,2022-10-06_14h45.31.035,t1_Paradigm,2021.1.4,60.017732749276476,
F,left,Distractor,0,37,37,37,2895.7347575010717,2897.7347122680076,left,1,0.7029904186128988,1,3.0,C15T02,2022-10-06_14h45.31.035,t1_Paradigm,2021.1.4,60.017732749276476,
K,right,Target,0,38,38,38,2899.2345902029047,2901.2345404786174,right,1,0.7070658853226632,1,3.0,C15T02,2022-10-06_14h45.31.035,t1_Paradigm,2021.1.4,60.017732749276476,
S,left,Pretarget,0,39,39,39,2902.7347183632446,2904.734373822055,left,1,0.615599503271369,1,3.0,C15T02,2022-10-06_14h45.31.035,t1_Paradigm,2021.1.4,60.017732749276476,
W,left,Distractor,0,40,40,40,2906.2345407994217,2908.234752849443,left,1,0.6350285465523484,1,3.0,C15T02,2022-10-06_14h45.31.035,t1_Paradigm,2021.1.4,60.017732749276476,
S,right,Target,0,41,41,41,2909.7347129096124,2911.73486464889,right,1,0.6868704464177426,1,3.0,C15T02,2022-10-06_14h45.31.035,t1_Paradigm,2021.1.4,60.017732749276476,
F,left,Pretarget,0,42,42,42,2913.2346806690257,2915.234750283027,left,1,0.770996240524255,1,3.0,C15T02,2022-10-06_14h45.31.035,t1_Paradigm,2021.1.4,60.017732749276476,
Y,left,Distractor,0,43,43,43,2916.7347809196035,2918.734691415888,left,1,0.6472251121122099,1,3.0,C15T02,2022-10-06_14h45.31.035,t1_Paradigm,2021.1.4,60.017732749276476,
F,right,Target,0,44,44,44,2920.234735846945,2922.2353331799895,right,1,0.5703552142658737,1,3.0,C15T02,2022-10-06_14h45.31.035,t1_Paradigm,2021.1.4,60.017732749276476,
F,left,Lure,0,45,45,45,2923.7347340825363,2925.7348973706758,left,1,0.7192695085213927,1,3.0,C15T02,2022-10-06_14h45.31.035,t1_Paradigm,2021.1.4,60.017732749276476,
B,left,Pretarget,0,46,46,46,2927.234632227948,2929.2348218218394,left,1,0.7547344739105029,1,3.0,C15T02,2022-10-06_14h45.31.035,t1_Paradigm,2021.1.4,60.017732749276476,
W,left,Distractor,0,47,47,47,2930.734925280438,2932.7346699221634,left,1,0.7430880835272546,1,3.0,C15T02,2022-10-06_14h45.31.035,t1_Paradigm,2021.1.4,60.017732749276476,
B,right,Target,0,48,48,48,2934.2347249396807,2936.2347124284097,right,1,0.55497372793252,1,3.0,C15T02,2022-10-06_14h45.31.035,t1_Paradigm,2021.1.4,60.017732749276476,
R,left,Pretarget,0,49,49,49,2937.7349329796816,2939.734756217862,left,1,0.5751111017016228,1,3.0,C15T02,2022-10-06_14h45.31.035,t1_Paradigm,2021.1.4,60.017732749276476,
N,left,Distractor,0,50,50,50,2941.234715315626,2943.2350531199772,left,1,0.6109398563894501,1,3.0,C15T02,2022-10-06_14h45.31.035,t1_Paradigm,2021.1.4,60.017732749276476,
R,right,Target,0,51,51,51,2944.7346057617942,2946.734999385666,right,1,0.45476164582942147,1,3.0,C15T02,2022-10-06_14h45.31.035,t1_Paradigm,2021.1.4,60.017732749276476,
V,left,Distractor,0,52,52,52,2948.2347740223668,2950.2352600371705,left,1,0.5065865431970451,1,3.0,C15T02,2022-10-06_14h45.31.035,t1_Paradigm,2021.1.4,60.017732749276476,
G,left,Distractor,0,53,53,53,2951.734754293051,2953.7353285283643,left,1,0.5745407160102332,1,3.0,C15T02,2022-10-06_14h45.31.035,t1_Paradigm,2021.1.4,60.017732749276476,
H,left,Distractor,0,54,54,54,2955.234602393375,2957.235175024678,left,1,0.6107865131052677,1,3.0,C15T02,2022-10-06_14h45.31.035,t1_Paradigm,2021.1.4,60.017732749276476,
V,left,Lure,0,55,55,55,2958.7346939823037,2960.734660298109,left,1,0.6472061848035082,1,3.0,C15T02,2022-10-06_14h45.31.035,t1_Paradigm,2021.1.4,60.017732749276476,
L,left,Distractor,0,56,56,56,2962.234834333114,2964.2346046389866,left,1,0.5231829061376629,1,3.0,C15T02,2022-10-06_14h45.31.035,t1_Paradigm,2021.1.4,60.017732749276476,
K,left,Distractor,0,57,57,57,2965.7349567190176,2967.7351244983874,left,1,0.5746757735905703,1,3.0,C15T02,2022-10-06_14h45.31.035,t1_Paradigm,2021.1.4,60.017732749276476,
D,left,Pretarget,0,58,58,58,2969.2345658219638,2971.2347512454326,left,1,0.46706279279169394,1,3.0,C15T02,2022-10-06_14h45.31.035,t1_Paradigm,2021.1.4,60.017732749276476,
T,left,Pretarget,0,59,59,59,2972.7345849096746,2974.7346163482543,left,1,0.6312742024965701,1,3.0,C15T02,2022-10-06_14h45.31.035,t1_Paradigm,2021.1.4,60.017732749276476,
D,right,Target,0,60,60,60,2976.234692217895,2978.2349819019655,right,1,0.6826535060899914,1,3.0,C15T02,2022-10-06_14h45.31.035,t1_Paradigm,2021.1.4,60.017732749276476,
T,right,Target,0,61,61,61,2979.7345682279774,2981.7352986937913,right,1,0.4783797196796513,1,3.0,C15T02,2022-10-06_14h45.31.035,t1_Paradigm,2021.1.4,60.017732749276476,
T,left,Lure,0,62,62,62,2983.234929290462,2985.23488052858,left,1,0.7706080702846521,1,3.0,C15T02,2022-10-06_14h45.31.035,t1_Paradigm,2021.1.4,60.017732749276476,
F,left,Distractor,0,63,63,63,2986.734616989859,2988.734592929719,left,1,0.9510652065036993,1,3.0,C15T02,2022-10-06_14h45.31.035,t1_Paradigm,2021.1.4,60.017732749276476,
