Letter,CorrAnswer,Stimulus,nback_run.thisRepN,nback_run.thisTrialN,nback_run.thisN,nback_run.thisIndex,fixcross.started,nback_trial.started,trial_resp.keys,trial_resp.corr,currentlevel,trial_resp.rt,Participant,date,expName,psychopyVersion,frameRate,
H,left,Distractor,0,0,0,0,222.83016685866824,224.77093785458783,None,0,1,,C15T02,2022-10-06_14h45.31.035,t1_Paradigm,2021.1.4,60.017732749276476,
Q,left,Pretarget,0,1,1,1,226.27149011497386,228.27199698189725,left,1,1,0.47116937728060293,C15T02,2022-10-06_14h45.31.035,t1_Paradigm,2021.1.4,60.017732749276476,
Q,right,Target,0,2,2,2,229.76984905310746,231.7698673388113,right,1,1,0.49326460474185296,C15T02,2022-10-06_14h45.31.035,t1_Paradigm,2021.1.4,60.017732749276476,
T,left,Distractor,0,3,3,3,233.26989123854946,235.27018894266803,left,1,1,0.4810401294234907,C15T02,2022-10-06_14h45.31.035,t1_Paradigm,2021.1.4,60.017732749276476,
Q,left,Lure,0,4,4,4,236.7697342060419,238.76996774979125,left,1,1,0.7411446659170906,C15T02,2022-10-06_14h45.31.035,t1_Paradigm,2021.1.4,60.017732749276476,
L,left,Distractor,0,5,5,5,240.2699117698685,242.2701363311644,left,1,1,0.5369129045429872,C15T02,2022-10-06_14h45.31.035,t1_Paradigm,2021.1.4,60.017732749276476,
V,left,Pretarget,0,6,6,6,243.76991995031494,245.76967902812612,left,1,1,0.4774532439332688,C15T02,2022-10-06_14h45.31.035,t1_Paradigm,2021.1.4,60.017732749276476,
V,right,Target,0,7,7,7,247.26988321850513,249.26980109322903,right,1,1,0.4654356858045503,C15T02,2022-10-06_14h45.31.035,t1_Paradigm,2021.1.4,60.017732749276476,
K,left,Distractor,0,8,8,8,250.76981825612893,252.77142611500312,left,1,1,0.48355008310318226,C15T02,2022-10-06_14h45.31.035,t1_Paradigm,2021.1.4,60.017732749276476,
G,left,Pretarget,0,9,9,9,254.26973789526528,256.2701841306407,left,1,1,0.48891613565865555,C15T02,2022-10-06_14h45.31.035,t1_Paradigm,2021.1.4,60.017732749276476,
G,right,Target,0,10,10,10,257.76988241649815,259.7698596395676,right,1,1,0.6850797304869047,C15T02,2022-10-06_14h45.31.035,t1_Paradigm,2021.1.4,60.017732749276476,
G,right,Target,0,11,11,11,261.2699002210029,263.26984311827255,right,1,1,0.5133891464392946,C15T02,2022-10-06_14h45.31.035,t1_Paradigm,2021.1.4,60.017732749276476,
P,left,Pretarget,0,12,12,12,264.76975088773906,266.76992700795745,left,1,1,0.4211236469782307,C15T02,2022-10-06_14h45.31.035,t1_Paradigm,2021.1.4,60.017732749276476,
P,right,Target,0,13,13,13,268.26979820601264,270.2697154391353,right,1,1,0.5533010670842486,C15T02,2022-10-06_14h45.31.035,t1_Paradigm,2021.1.4,60.017732749276476,
G,left,Lure,0,14,14,14,271.7698381458431,273.7700463462461,left,1,1,0.4291289363609394,C15T02,2022-10-06_14h45.31.035,t1_Paradigm,2021.1.4,60.017732749276476,
Y,left,Distractor,0,15,15,15,275.2698251533693,277.2719851122274,left,1,1,0.49518620783055667,C15T02,2022-10-06_14h45.31.035,t1_Paradigm,2021.1.4,60.017732749276476,
B,left,Distractor,0,16,16,16,278.7700418550194,280.7710719497627,left,1,1,0.5322218190813146,C15T02,2022-10-06_14h45.31.035,t1_Paradigm,2021.1.4,60.017732749276476,
T,left,Pretarget,0,17,17,17,282.26985177992174,284.2701045717804,left,1,1,0.44105699077044846,C15T02,2022-10-06_14h45.31.035,t1_Paradigm,2021.1.4,60.017732749276476,
T,right,Target,0,18,18,18,285.7697945167929,287.76978810075525,right,1,1,0.4134157409098407,C15T02,2022-10-06_14h45.31.035,t1_Paradigm,2021.1.4,60.017732749276476,
S,left,Distractor,0,19,19,19,289.2697914691744,291.27190619497196,left,1,1,0.46338864919380285,C15T02,2022-10-06_14h45.31.035,t1_Paradigm,2021.1.4,60.017732749276476,
T,left,Lure,0,20,20,20,292.7697605117937,294.770436441293,left,1,1,0.5807966729007603,C15T02,2022-10-06_14h45.31.035,t1_Paradigm,2021.1.4,60.017732749276476,
J,left,Distractor,0,21,21,21,296.2698877097282,298.27193795435596,left,1,1,0.6149235737721028,C15T02,2022-10-06_14h45.31.035,t1_Paradigm,2021.1.4,60.017732749276476,
P,left,Distractor,0,22,22,22,299.7698121608919,301.7702019351418,left,1,1,0.5888038870907621,C15T02,2022-10-06_14h45.31.035,t1_Paradigm,2021.1.4,60.017732749276476,
F,left,Distractor,0,23,23,23,303.2699034290199,305.27073558901975,left,1,1,0.5604190185476909,C15T02,2022-10-06_14h45.31.035,t1_Paradigm,2021.1.4,60.017732749276476,
L,left,Distractor,0,24,24,24,306.76987503805503,308.7697181659496,left,1,1,0.4212718574308383,C15T02,2022-10-06_14h45.31.035,t1_Paradigm,2021.1.4,60.017732749276476,
W,left,Pretarget,0,25,25,25,310.2699146570849,312.2717467564544,left,1,1,0.4073577187664341,C15T02,2022-10-06_14h45.31.035,t1_Paradigm,2021.1.4,60.017732749276476,
W,right,Target,0,26,26,26,313.7698022160366,315.76988979494126,right,1,1,0.5571898271191458,C15T02,2022-10-06_14h45.31.035,t1_Paradigm,2021.1.4,60.017732749276476,
V,left,Distractor,0,27,27,27,317.26994481245856,319.26966090282076,left,1,1,0.513473196522682,C15T02,2022-10-06_14h45.31.035,t1_Paradigm,2021.1.4,60.017732749276476,
W,left,Lure,0,28,28,28,320.76976083259797,322.76971624113867,left,1,1,1.1253725712522282,C15T02,2022-10-06_14h45.31.035,t1_Paradigm,2021.1.4,60.017732749276476,
R,left,Pretarget,0,29,29,29,324.26998266707596,326.2719610520908,left,1,1,0.45510650781943696,C15T02,2022-10-06_14h45.31.035,t1_Paradigm,2021.1.4,60.017732749276476,
R,right,Target,0,30,30,30,327.7697614742028,329.7699003814014,right,1,1,0.509198191062751,C15T02,2022-10-06_14h45.31.035,t1_Paradigm,2021.1.4,60.017732749276476,
G,left,Distractor,0,31,31,31,331.26978409073126,333.26962882263615,left,1,1,0.49751907888639835,C15T02,2022-10-06_14h45.31.035,t1_Paradigm,2021.1.4,60.017732749276476,
R,left,Lure,0,32,32,32,334.7697492837324,336.77001298285177,left,1,1,0.4689616189461958,C15T02,2022-10-06_14h45.31.035,t1_Paradigm,2021.1.4,60.017732749276476,
S,left,Distractor,0,33,33,33,338.25347324143877,340.2532188455698,left,1,1,0.44185097534864326,C15T02,2022-10-06_14h45.31.035,t1_Paradigm,2021.1.4,60.017732749276476,
R,left,Lure,0,34,34,34,341.7532915071897,343.7531468255547,left,1,1,0.5579992101847893,C15T02,2022-10-06_14h45.31.035,t1_Paradigm,2021.1.4,60.017732749276476,
P,left,Pretarget,0,35,35,35,345.25316463005584,347.2535996373663,left,1,1,0.49758291845500935,C15T02,2022-10-06_14h45.31.035,t1_Paradigm,2021.1.4,60.017732749276476,
P,right,Target,0,36,36,36,348.75324306610855,350.75314875036565,right,1,1,0.5499551037792116,C15T02,2022-10-06_14h45.31.035,t1_Paradigm,2021.1.4,60.017732749276476,
Y,left,Pretarget,0,37,37,37,352.2532971212204,354.25289259008787,left,1,1,0.4741563633142505,C15T02,2022-10-06_14h45.31.035,t1_Paradigm,2021.1.4,60.017732749276476,
Y,right,Target,0,38,38,38,355.75295755246407,357.75312404862416,right,1,1,0.6059266858683259,C15T02,2022-10-06_14h45.31.035,t1_Paradigm,2021.1.4,60.017732749276476,
J,left,Distractor,0,39,39,39,359.25319510623376,361.2535287401588,left,1,1,0.4496153425425291,C15T02,2022-10-06_14h45.31.035,t1_Paradigm,2021.1.4,60.017732749276476,
Y,left,Lure,0,40,40,40,362.753431697598,364.753321983364,left,1,1,0.5335778485023184,C15T02,2022-10-06_14h45.31.035,t1_Paradigm,2021.1.4,60.017732749276476,
T,left,Distractor,0,41,41,41,366.2530667854917,368.25297375295486,left,1,1,0.6179015773523133,C15T02,2022-10-06_14h45.31.035,t1_Paradigm,2021.1.4,60.017732749276476,
V,left,Distractor,0,42,42,42,369.7532199683774,371.7534073166571,left,1,1,0.4615783643530449,C15T02,2022-10-06_14h45.31.035,t1_Paradigm,2021.1.4,60.017732749276476,
N,left,Pretarget,0,43,43,43,373.25310977294066,375.25362498071263,left,1,1,0.4975386477999564,C15T02,2022-10-06_14h45.31.035,t1_Paradigm,2021.1.4,60.017732749276476,
N,right,Target,0,44,44,44,376.75304737698025,378.7531830761618,right,1,1,0.6139765667103347,C15T02,2022-10-06_14h45.31.035,t1_Paradigm,2021.1.4,60.017732749276476,
N,right,Target,0,45,45,45,380.25307608874573,382.2530019835176,right,1,1,0.7141273756606097,C15T02,2022-10-06_14h45.31.035,t1_Paradigm,2021.1.4,60.017732749276476,
X,left,Distractor,0,46,46,46,383.75302844967155,385.755045330905,left,1,1,0.7801512837359041,C15T02,2022-10-06_14h45.31.035,t1_Paradigm,2021.1.4,60.017732749276476,
Z,left,Distractor,0,47,47,47,387.26990695784116,389.27001731367636,left,1,1,0.7050066582451109,C15T02,2022-10-06_14h45.31.035,t1_Paradigm,2021.1.4,60.017732749276476,
H,left,Pretarget,0,48,48,48,390.76974030127894,392.7699119302706,left,1,1,0.4370678197592497,C15T02,2022-10-06_14h45.31.035,t1_Paradigm,2021.1.4,60.017732749276476,
H,right,Target,0,49,49,49,394.26987487765655,396.2699233187341,right,1,1,0.6812554516291129,C15T02,2022-10-06_14h45.31.035,t1_Paradigm,2021.1.4,60.017732749276476,
K,left,Distractor,0,50,50,50,397.76970020104636,399.7699122510712,left,1,1,0.6050342151211225,C15T02,2022-10-06_14h45.31.035,t1_Paradigm,2021.1.4,60.017732749276476,
V,left,Pretarget,0,51,51,51,401.2696727724906,403.2699114490679,left,1,1,0.5132146302348701,C15T02,2022-10-06_14h45.31.035,t1_Paradigm,2021.1.4,60.017732749276476,
V,right,Target,0,52,52,52,404.76995203049955,406.7695744467237,right,1,1,0.6300907644690596,C15T02,2022-10-06_14h45.31.035,t1_Paradigm,2021.1.4,60.017732749276476,
R,left,Distractor,0,53,53,53,408.2698126420946,410.2698367022349,left,1,1,0.6010803323115397,C15T02,2022-10-06_14h45.31.035,t1_Paradigm,2021.1.4,60.017732749276476,
V,left,Lure,0,54,54,54,411.77002581492707,413.7698872285255,left,1,1,0.5251683487913397,C15T02,2022-10-06_14h45.31.035,t1_Paradigm,2021.1.4,60.017732749276476,
Y,left,Distractor,0,55,55,55,415.26985755435453,417.2701494840403,left,1,1,0.5928700505464803,C15T02,2022-10-06_14h45.31.035,t1_Paradigm,2021.1.4,60.017732749276476,
Q,left,Distractor,0,56,56,56,418.76970565467855,420.76982018093986,left,1,1,0.5010507864644751,C15T02,2022-10-06_14h45.31.035,t1_Paradigm,2021.1.4,60.017732749276476,
Z,left,Pretarget,0,57,57,57,422.26967533890274,424.26964742914424,left,1,1,0.4733703987803892,C15T02,2022-10-06_14h45.31.035,t1_Paradigm,2021.1.4,60.017732749276476,
Z,right,Target,0,58,58,58,425.76987118843317,427.76962449181156,right,1,1,0.49344136656509363,C15T02,2022-10-06_14h45.31.035,t1_Paradigm,2021.1.4,60.017732749276476,
B,left,Distractor,0,59,59,59,429.2696785469234,431.26966218602684,left,1,1,0.46541804170192336,C15T02,2022-10-06_14h45.31.035,t1_Paradigm,2021.1.4,60.017732749276476,
S,left,Pretarget,0,60,60,60,432.76965208076945,434.76971624113867,left,1,1,0.48515248834883096,C15T02,2022-10-06_14h45.31.035,t1_Paradigm,2021.1.4,60.017732749276476,
S,right,Target,0,61,61,61,436.26977607068693,438.2699197899128,right,1,1,0.6332163368970214,C15T02,2022-10-06_14h45.31.035,t1_Paradigm,2021.1.4,60.017732749276476,
T,left,Distractor,0,62,62,62,439.7698240305617,441.7696758201055,left,1,1,0.6053126711267396,C15T02,2022-10-06_14h45.31.035,t1_Paradigm,2021.1.4,60.017732749276476,
D,left,Distractor,0,63,63,63,443.26965769480375,445.2709104260284,left,1,1,0.5921745521372941,C15T02,2022-10-06_14h45.31.035,t1_Paradigm,2021.1.4,60.017732749276476,
R,left,Distractor,0,0,0,0,482.1407630400354,484.13625352842064,None,0,1,,C15T02,2022-10-06_14h45.31.035,t1_Paradigm,2021.1.4,60.017732749276476,
V,left,Distractor,0,1,1,1,485.6363399845177,487.63634832536627,left,1,1,0.6107573201370542,C15T02,2022-10-06_14h45.31.035,t1_Paradigm,2021.1.4,60.017732749276476,
N,left,Pretarget,0,2,2,2,489.13635778902244,491.13618904724717,left,1,1,0.5828061756910756,C15T02,2022-10-06_14h45.31.035,t1_Paradigm,2021.1.4,60.017732749276476,
N,right,Target,0,3,3,3,492.63630854593794,494.63652444558466,right,1,1,0.6025271486614656,C15T02,2022-10-06_14h45.31.035,t1_Paradigm,2021.1.4,60.017732749276476,
S,left,Distractor,0,4,4,4,496.1362833629937,498.13646782405704,left,1,1,0.5105035337946902,C15T02,2022-10-06_14h45.31.035,t1_Paradigm,2021.1.4,60.017732749276476,
N,left,Lure,0,5,5,5,499.63612600968554,501.63646638044884,left,1,1,0.4183419741311809,C15T02,2022-10-06_14h45.31.035,t1_Paradigm,2021.1.4,60.017732749276476,
Z,left,Distractor,0,6,6,6,503.1364065509042,505.1384891965172,left,1,1,0.5804813246832055,C15T02,2022-10-06_14h45.31.035,t1_Paradigm,2021.1.4,60.017732749276476,
L,left,Pretarget,0,7,7,7,506.63654626010975,508.63667265603726,left,1,1,0.5223244403823628,C15T02,2022-10-06_14h45.31.035,t1_Paradigm,2021.1.4,60.017732749276476,
L,right,Target,0,8,8,8,510.1363122351577,512.1362275434694,right,1,1,0.49483492980289157,C15T02,2022-10-06_14h45.31.035,t1_Paradigm,2021.1.4,60.017732749276476,
H,left,Distractor,0,9,9,9,513.6363149619756,515.636263633678,left,1,1,0.5947961448619026,C15T02,2022-10-06_14h45.31.035,t1_Paradigm,2021.1.4,60.017732749276476,
L,left,Lure,0,10,10,10,517.1362525660152,519.1367883051062,left,1,1,0.6779502301578759,C15T02,2022-10-06_14h45.31.035,t1_Paradigm,2021.1.4,60.017732749276476,
X,left,Pretarget,0,11,11,11,520.6361151024212,522.6361863204329,left,1,1,0.5227806206166861,C15T02,2022-10-06_14h45.31.035,t1_Paradigm,2021.1.4,60.017732749276476,
X,right,Target,0,12,12,12,524.1362092577656,526.1362310722907,right,1,1,0.5107569672545651,C15T02,2022-10-06_14h45.31.035,t1_Paradigm,2021.1.4,60.017732749276476,
X,right,Target,0,13,13,13,527.6363091875428,529.6363114331543,right,1,1,0.6426941067766165,C15T02,2022-10-06_14h45.31.035,t1_Paradigm,2021.1.4,60.017732749276476,
R,left,Distractor,0,14,14,14,531.136310631151,533.1362079745559,left,1,1,0.502644530053658,C15T02,2022-10-06_14h45.31.035,t1_Paradigm,2021.1.4,60.017732749276476,
T,left,Distractor,0,15,15,15,534.6364150521513,536.6374088962839,left,1,1,0.4257037349998427,C15T02,2022-10-06_14h45.31.035,t1_Paradigm,2021.1.4,60.017732749276476,
V,left,Pretarget,0,16,16,16,538.1365544405562,540.1362455083727,left,1,1,0.46273421341902576,C15T02,2022-10-06_14h45.31.035,t1_Paradigm,2021.1.4,60.017732749276476,
V,right,Target,0,17,17,17,541.6363162451817,543.6362026813258,right,1,1,0.8026330774300732,C15T02,2022-10-06_14h45.31.035,t1_Paradigm,2021.1.4,60.017732749276476,
N,left,Distractor,0,18,18,18,545.1362840045949,547.1362150321984,left,1,1,0.4227475459447305,C15T02,2022-10-06_14h45.31.035,t1_Paradigm,2021.1.4,60.017732749276476,
B,left,Distractor,0,19,19,19,548.6361680347254,550.6365741698719,left,1,1,0.6342028025901527,C15T02,2022-10-06_14h45.31.035,t1_Paradigm,2021.1.4,60.017732749276476,
V,left,Lure,0,20,20,20,552.1361701199385,554.1363183303947,left,1,1,0.4628506644949084,C15T02,2022-10-06_14h45.31.035,t1_Paradigm,2021.1.4,60.017732749276476,
P,left,Distractor,0,21,21,21,555.6362177590127,557.6367509316915,left,1,1,0.46625693854366546,C15T02,2022-10-06_14h45.31.035,t1_Paradigm,2021.1.4,60.017732749276476,
K,left,Pretarget,0,22,22,22,559.13632827525,561.1362259394627,left,1,1,0.4546503275851137,C15T02,2022-10-06_14h45.31.035,t1_Paradigm,2021.1.4,60.017732749276476,
K,right,Target,0,23,23,23,562.636265558489,564.6362062101471,right,1,1,0.5386933548143134,C15T02,2022-10-06_14h45.31.035,t1_Paradigm,2021.1.4,60.017732749276476,
J,left,Pretarget,0,24,24,24,566.1362544908261,568.1364376686834,left,1,1,0.7827962949959328,C15T02,2022-10-06_14h45.31.035,t1_Paradigm,2021.1.4,60.017732749276476,
J,right,Target,0,25,25,25,569.6365298992132,571.6363855383825,right,1,1,0.5147223989333725,C15T02,2022-10-06_14h45.31.035,t1_Paradigm,2021.1.4,60.017732749276476,
H,left,Distractor,0,26,26,26,573.1363933980283,575.1361855184296,left,1,1,0.4706884953084227,C15T02,2022-10-06_14h45.31.035,t1_Paradigm,2021.1.4,60.017732749276476,
J,left,Lure,0,27,27,27,576.6362819193855,578.6361853580274,left,1,1,0.8747759600046265,C15T02,2022-10-06_14h45.31.035,t1_Paradigm,2021.1.4,60.017732749276476,
V,left,Distractor,0,28,28,28,580.1363747915202,582.1369602548984,left,1,1,0.7018316823268833,C15T02,2022-10-06_14h45.31.035,t1_Paradigm,2021.1.4,60.017732749276476,
Z,left,Pretarget,0,29,29,29,583.6362883354195,585.6362347615104,left,1,1,0.49884591534282663,C15T02,2022-10-06_14h45.31.035,t1_Paradigm,2021.1.4,60.017732749276476,
Z,right,Target,0,30,30,30,587.136377357936,589.1366978389851,right,1,1,0.5501540009281598,C15T02,2022-10-06_14h45.31.035,t1_Paradigm,2021.1.4,60.017732749276476,
T,left,Distractor,0,31,31,31,590.6364105609246,592.6361811876013,left,1,1,0.5067809491156368,C15T02,2022-10-06_14h45.31.035,t1_Paradigm,2021.1.4,60.017732749276476,
Z,left,Lure,0,32,32,32,594.1362262602634,596.1372114427468,left,1,1,0.6057101446203887,C15T02,2022-10-06_14h45.31.035,t1_Paradigm,2021.1.4,60.017732749276476,
F,left,Distractor,0,33,33,33,597.6363704606956,599.6366187613276,left,1,1,0.5144567749994167,C15T02,2022-10-06_14h45.31.035,t1_Paradigm,2021.1.4,60.017732749276476,
Y,left,Pretarget,0,34,34,34,601.136204124934,603.1367507712894,left,1,1,0.5180840815228294,C15T02,2022-10-06_14h45.31.035,t1_Paradigm,2021.1.4,60.017732749276476,
Y,right,Target,0,35,35,35,604.6361420497778,606.6362472727851,right,1,1,0.6346262610313715,C15T02,2022-10-06_14h45.31.035,t1_Paradigm,2021.1.4,60.017732749276476,
Y,right,Target,0,36,36,36,608.1364488967483,610.1361556838565,right,1,1,0.5428336234981543,C15T02,2022-10-06_14h45.31.035,t1_Paradigm,2021.1.4,60.017732749276476,
W,left,Distractor,0,37,37,37,611.636315924381,613.637616455082,left,1,1,0.41716078171884874,C15T02,2022-10-06_14h45.31.035,t1_Paradigm,2021.1.4,60.017732749276476,
Q,left,Distractor,0,38,38,38,615.1362650772862,617.1361999545115,left,1,1,0.534586128720548,C15T02,2022-10-06_14h45.31.035,t1_Paradigm,2021.1.4,60.017732749276476,
P,left,Pretarget,0,39,39,39,618.6363868215885,620.6363993328632,left,1,1,0.5065400269304519,C15T02,2022-10-06_14h45.31.035,t1_Paradigm,2021.1.4,60.017732749276476,
P,right,Target,0,40,40,40,622.1366651171957,624.1361524758358,right,1,1,0.5588050644328177,C15T02,2022-10-06_14h45.31.035,t1_Paradigm,2021.1.4,60.017732749276476,
J,left,Distractor,0,41,41,41,625.6363730271114,627.6362251374558,left,1,1,0.6747383620313485,C15T02,2022-10-06_14h45.31.035,t1_Paradigm,2021.1.4,60.017732749276476,
P,left,Lure,0,42,42,42,629.1362535284206,631.136143493386,left,1,1,0.694747415058373,C15T02,2022-10-06_14h45.31.035,t1_Paradigm,2021.1.4,60.017732749276476,
L,left,Distractor,0,43,43,43,632.6362100597689,634.6362013981197,left,1,1,0.4586738243961008,C15T02,2022-10-06_14h45.31.035,t1_Paradigm,2021.1.4,60.017732749276476,
Z,left,Distractor,0,44,44,44,636.1361078843802,638.136261548465,left,1,1,0.6386587402957957,C15T02,2022-10-06_14h45.31.035,t1_Paradigm,2021.1.4,60.017732749276476,
F,left,Pretarget,0,45,45,45,639.6362293078819,641.6362453479742,left,1,1,0.5149463186207868,C15T02,2022-10-06_14h45.31.035,t1_Paradigm,2021.1.4,60.017732749276476,
F,right,Target,0,46,46,46,643.1362236938476,645.1364812977336,right,1,1,0.45435679389265715,C15T02,2022-10-06_14h45.31.035,t1_Paradigm,2021.1.4,60.017732749276476,
G,left,Pretarget,0,47,47,47,646.6361645059078,648.6369883250591,left,1,1,0.5859234072777326,C15T02,2022-10-06_14h45.31.035,t1_Paradigm,2021.1.4,60.017732749276476,
G,right,Target,0,48,48,48,650.1362971574708,652.136223373047,left,0,1,0.4467954942738288,C15T02,2022-10-06_14h45.31.035,t1_Paradigm,2021.1.4,60.017732749276476,
V,left,Distractor,0,49,49,49,653.6362851274025,655.6361571274647,left,1,1,0.8828277656575665,C15T02,2022-10-06_14h45.31.035,t1_Paradigm,2021.1.4,60.017732749276476,
G,left,Lure,0,50,50,50,657.136337578504,659.1365281348044,left,1,1,0.8064191808698524,C15T02,2022-10-06_14h45.31.035,t1_Paradigm,2021.1.4,60.017732749276476,
Q,left,Pretarget,0,51,51,51,660.6363117539549,662.636184395622,left,1,1,0.5866282089409651,C15T02,2022-10-06_14h45.31.035,t1_Paradigm,2021.1.4,60.017732749276476,
Q,right,Target,0,52,52,52,664.1364184205704,666.1360732377798,right,1,1,0.5268278567673406,C15T02,2022-10-06_14h45.31.035,t1_Paradigm,2021.1.4,60.017732749276476,
Y,left,Distractor,0,53,53,53,667.636230591088,669.636228666277,left,1,1,0.6106479267036775,C15T02,2022-10-06_14h45.31.035,t1_Paradigm,2021.1.4,60.017732749276476,
V,left,Distractor,0,54,54,54,671.13598630048,673.1360671425464,left,1,1,0.614913308112591,C15T02,2022-10-06_14h45.31.035,t1_Paradigm,2021.1.4,60.017732749276476,
B,left,Distractor,0,55,55,55,674.6362443855687,676.6362078141574,left,1,1,0.5386048135042074,C15T02,2022-10-06_14h45.31.035,t1_Paradigm,2021.1.4,60.017732749276476,
J,left,Pretarget,0,56,56,56,678.1362618692692,680.1365342300414,left,1,1,0.4304628304525977,C15T02,2022-10-06_14h45.31.035,t1_Paradigm,2021.1.4,60.017732749276476,
J,right,Target,0,57,57,57,681.6360977791228,683.6362100597689,right,1,1,0.49883340407177457,C15T02,2022-10-06_14h45.31.035,t1_Paradigm,2021.1.4,60.017732749276476,
H,left,Distractor,0,58,58,58,685.136399814066,687.1361791023919,left,1,1,0.5666807498710114,C15T02,2022-10-06_14h45.31.035,t1_Paradigm,2021.1.4,60.017732749276476,
J,left,Lure,0,59,59,59,688.6363948416365,690.6360817390305,left,1,1,0.8428394941729493,C15T02,2022-10-06_14h45.31.035,t1_Paradigm,2021.1.4,60.017732749276476,
D,left,Pretarget,0,60,60,60,692.1362159946038,694.1367632825604,left,1,1,0.5421140649486915,C15T02,2022-10-06_14h45.31.035,t1_Paradigm,2021.1.4,60.017732749276476,
D,right,Target,0,61,61,61,695.6361712427461,697.6361561650592,right,1,1,0.4989437599069788,C15T02,2022-10-06_14h45.31.035,t1_Paradigm,2021.1.4,60.017732749276476,
R,left,Distractor,0,62,62,62,699.1364623704249,701.1362022001231,left,1,1,0.7427175573902787,C15T02,2022-10-06_14h45.31.035,t1_Paradigm,2021.1.4,60.017732749276476,
F,left,Distractor,0,63,63,63,702.6363576286203,704.6365616585972,left,1,1,0.5544264399759413,C15T02,2022-10-06_14h45.31.035,t1_Paradigm,2021.1.4,60.017732749276476,
F,left,Distractor,0,0,0,0,812.4284664805382,814.419520920932,None,0,2,,C15T02,2022-10-06_14h45.31.035,t1_Paradigm,2021.1.4,60.017732749276476,
N,left,Pretarget,0,1,1,1,815.9193998182345,817.9198165398375,left,1,2,0.982862444336206,C15T02,2022-10-06_14h45.31.035,t1_Paradigm,2021.1.4,60.017732749276476,
V,left,Distractor,0,2,2,2,819.4194436076868,821.4193845801456,left,1,2,0.6033326821052469,C15T02,2022-10-06_14h45.31.035,t1_Paradigm,2021.1.4,60.017732749276476,
N,right,Target,0,3,3,3,822.9197292817371,824.919814294226,right,1,2,0.46311243880336406,C15T02,2022-10-06_14h45.31.035,t1_Paradigm,2021.1.4,60.017732749276476,
N,left,Lure,0,4,4,4,826.4194564397621,828.41963993842,left,1,2,1.1551227724739874,C15T02,2022-10-06_14h45.31.035,t1_Paradigm,2021.1.4,60.017732749276476,
X,left,Distractor,0,5,5,5,829.9194703946414,831.919395647812,left,1,2,0.6315728690206015,C15T02,2022-10-06_14h45.31.035,t1_Paradigm,2021.1.4,60.017732749276476,
G,left,Pretarget,0,6,6,6,833.4193428759063,835.4195709660235,left,1,2,0.6351145214466669,C15T02,2022-10-06_14h45.31.035,t1_Paradigm,2021.1.4,60.017732749276476,
H,left,Pretarget,0,7,7,7,836.9192285100471,838.9194630161983,left,1,2,0.495200964716787,C15T02,2022-10-06_14h45.31.035,t1_Paradigm,2021.1.4,60.017732749276476,
G,right,Target,0,8,8,8,840.4195703244186,842.4198994671169,right,1,2,0.979034315852914,C15T02,2022-10-06_14h45.31.035,t1_Paradigm,2021.1.4,60.017732749276476,
H,right,Target,0,9,9,9,843.9193603596068,845.9193847405477,right,1,2,0.823571814220486,C15T02,2022-10-06_14h45.31.035,t1_Paradigm,2021.1.4,60.017732749276476,
T,left,Pretarget,0,10,10,10,847.4195648707864,849.4193387054838,left,1,2,0.7636107403159258,C15T02,2022-10-06_14h45.31.035,t1_Paradigm,2021.1.4,60.017732749276476,
K,left,Distractor,0,11,11,11,850.9193747956888,852.9194001390351,left,1,2,0.49525710503803566,C15T02,2022-10-06_14h45.31.035,t1_Paradigm,2021.1.4,60.017732749276476,
T,right,Target,0,12,12,12,854.419339347085,856.4200300334705,right,1,2,0.5628558294010872,C15T02,2022-10-06_14h45.31.035,t1_Paradigm,2021.1.4,60.017732749276476,
T,left,Lure,0,13,13,13,857.9193231465906,859.919632720379,left,1,2,0.9199445397753152,C15T02,2022-10-06_14h45.31.035,t1_Paradigm,2021.1.4,60.017732749276476,
J,left,Distractor,0,14,14,14,861.4196344847878,863.4192896227978,left,1,2,0.5234931215272809,C15T02,2022-10-06_14h45.31.035,t1_Paradigm,2021.1.4,60.017732749276476,
Q,left,Pretarget,0,15,15,15,864.9191948258522,866.9193269962161,left,1,2,0.43160552664630814,C15T02,2022-10-06_14h45.31.035,t1_Paradigm,2021.1.4,60.017732749276476,
M,left,Distractor,0,16,16,16,868.4195594171542,870.4211111357072,left,1,2,0.49798616638145177,C15T02,2022-10-06_14h45.31.035,t1_Paradigm,2021.1.4,60.017732749276476,
Q,right,Target,0,17,17,17,871.9195011916199,873.9194129711104,right,1,2,0.5994378268369474,C15T02,2022-10-06_14h45.31.035,t1_Paradigm,2021.1.4,60.017732749276476,
R,left,Distractor,0,18,18,18,875.4194294924055,877.4194227555672,left,1,2,0.5393503570048779,C15T02,2022-10-06_14h45.31.035,t1_Paradigm,2021.1.4,60.017732749276476,
W,left,Distractor,0,19,19,19,878.9196433068391,880.919467507425,left,1,2,0.5913667730783345,C15T02,2022-10-06_14h45.31.035,t1_Paradigm,2021.1.4,60.017732749276476,
C,left,Pretarget,0,20,20,20,882.4196421840315,884.4194298132061,left,1,2,0.4192312368613784,C15T02,2022-10-06_14h45.31.035,t1_Paradigm,2021.1.4,60.017732749276476,
T,left,Distractor,0,21,21,21,885.9194235575706,887.9192124699548,left,1,2,0.37559608993615257,C15T02,2022-10-06_14h45.31.035,t1_Paradigm,2021.1.4,60.017732749276476,
C,right,Target,0,22,22,22,889.4192803195438,891.4194609309889,right,1,2,0.6511728996847523,C15T02,2022-10-06_14h45.31.035,t1_Paradigm,2021.1.4,60.017732749276476,
F,left,Pretarget,0,23,23,23,892.9194168207323,894.9193439987139,left,1,2,0.6234222563980438,C15T02,2022-10-06_14h45.31.035,t1_Paradigm,2021.1.4,60.017732749276476,
C,right,Target,0,24,24,24,896.4194798582976,898.4193794473176,None,0,2,,C15T02,2022-10-06_14h45.31.035,t1_Paradigm,2021.1.4,60.017732749276476,
F,right,Target,0,25,25,25,899.9196230963244,901.9192535325892,right,1,2,0.48744975040244753,C15T02,2022-10-06_14h45.31.035,t1_Paradigm,2021.1.4,60.017732749276476,
H,left,Distractor,0,26,26,26,903.4193518583597,905.4220151553236,left,1,2,0.5207666265996522,C15T02,2022-10-06_14h45.31.035,t1_Paradigm,2021.1.4,60.017732749276476,
H,left,Lure,0,27,27,27,906.9192506453728,908.9192692518809,left,1,2,0.5595210941646656,C15T02,2022-10-06_14h45.31.035,t1_Paradigm,2021.1.4,60.017732749276476,
P,left,Distractor,0,28,28,28,910.4191985150719,912.4193884297674,left,1,2,0.6274419035871688,C15T02,2022-10-06_14h45.31.035,t1_Paradigm,2021.1.4,60.017732749276476,
G,left,Pretarget,0,29,29,29,913.9193757580942,915.9193507355521,left,1,2,0.5033310460166831,C15T02,2022-10-06_14h45.31.035,t1_Paradigm,2021.1.4,60.017732749276476,
K,left,Distractor,0,30,30,30,917.419482745514,919.4193499335452,left,1,2,0.44321470401700935,C15T02,2022-10-06_14h45.31.035,t1_Paradigm,2021.1.4,60.017732749276476,
G,right,Target,0,31,31,31,920.9193234673949,922.9197937629069,right,1,2,0.5270376611733809,C15T02,2022-10-06_14h45.31.035,t1_Paradigm,2021.1.4,60.017732749276476,
M,left,Pretarget,0,32,32,32,924.419315607749,926.4192610714344,left,1,2,0.5154855865330319,C15T02,2022-10-06_14h45.31.035,t1_Paradigm,2021.1.4,60.017732749276476,
B,left,Distractor,0,33,33,33,927.9193359786659,929.9195210813341,left,1,2,0.5670926594430057,C15T02,2022-10-06_14h45.31.035,t1_Paradigm,2021.1.4,60.017732749276476,
M,right,Target,0,34,34,34,931.4194577229682,933.4192742243104,right,1,2,0.5235120488359826,C15T02,2022-10-06_14h45.31.035,t1_Paradigm,2021.1.4,60.017732749276476,
M,left,Lure,0,35,35,35,934.9195178733171,936.919351377157,left,1,2,0.46354520049862913,C15T02,2022-10-06_14h45.31.035,t1_Paradigm,2021.1.4,60.017732749276476,
T,left,Distractor,0,36,36,36,938.4191558484272,940.4194978232008,left,1,2,0.6272875978975208,C15T02,2022-10-06_14h45.31.035,t1_Paradigm,2021.1.4,60.017732749276476,
F,left,Distractor,0,37,37,37,941.9193584347959,943.91937832451,left,1,2,0.6634823874956055,C15T02,2022-10-06_14h45.31.035,t1_Paradigm,2021.1.4,60.017732749276476,
X,left,Distractor,0,38,38,38,945.4194577229682,947.4194015826433,left,1,2,0.5712608378889854,C15T02,2022-10-06_14h45.31.035,t1_Paradigm,2021.1.4,60.017732749276476,
C,left,Distractor,0,39,39,39,948.9193542643734,950.9193080689038,left,1,2,0.5913914748198295,C15T02,2022-10-06_14h45.31.035,t1_Paradigm,2021.1.4,60.017732749276476,
R,left,Distractor,0,40,40,40,952.419367898452,954.4193736728848,left,1,2,0.563458295277087,C15T02,2022-10-06_14h45.31.035,t1_Paradigm,2021.1.4,60.017732749276476,
B,left,Pretarget,0,41,41,41,955.9193362994665,957.9196702541958,left,1,2,0.4710603046514734,C15T02,2022-10-06_14h45.31.035,t1_Paradigm,2021.1.4,60.017732749276476,
H,left,Distractor,0,42,42,42,959.4193820137334,961.4196325599769,left,1,2,0.55505521160012,C15T02,2022-10-06_14h45.31.035,t1_Paradigm,2021.1.4,60.017732749276476,
B,right,Target,0,43,43,43,962.9193391866866,964.9197340937644,right,1,2,0.4311509504223068,C15T02,2022-10-06_14h45.31.035,t1_Paradigm,2021.1.4,60.017732749276476,
W,left,Pretarget,0,44,44,44,966.4193425551057,968.4196665649724,left,1,2,0.5312151428770449,C15T02,2022-10-06_14h45.31.035,t1_Paradigm,2021.1.4,60.017732749276476,
L,left,Pretarget,0,45,45,45,969.9192811215507,971.9192711766918,left,1,2,0.679498419889569,C15T02,2022-10-06_14h45.31.035,t1_Paradigm,2021.1.4,60.017732749276476,
W,right,Target,0,46,46,46,973.4193338934529,975.4192896227978,right,1,2,0.7154766682433547,C15T02,2022-10-06_14h45.31.035,t1_Paradigm,2021.1.4,60.017732749276476,
L,right,Target,0,47,47,47,976.9193812117264,978.9192888207945,right,1,2,0.5914610888212337,C15T02,2022-10-06_14h45.31.035,t1_Paradigm,2021.1.4,60.017732749276476,
W,right,Target,0,48,48,48,980.4194557981573,982.4193130413332,right,1,2,0.7393728772949544,C15T02,2022-10-06_14h45.31.035,t1_Paradigm,2021.1.4,60.017732749276476,
X,left,Distractor,0,49,49,49,983.9193324498447,985.919858564881,None,0,2,,C15T02,2022-10-06_14h45.31.035,t1_Paradigm,2021.1.4,60.017732749276476,
R,left,Distractor,0,50,50,50,987.4193233069927,989.4192989260519,left,1,2,1.0033632865997788,C15T02,2022-10-06_14h45.31.035,t1_Paradigm,2021.1.4,60.017732749276476,
V,left,Pretarget,0,51,51,51,990.9192650814584,992.919363888428,left,1,2,0.6233840809763933,C15T02,2022-10-06_14h45.31.035,t1_Paradigm,2021.1.4,60.017732749276476,
Z,left,Distractor,0,52,52,52,994.419631918372,996.4197502942552,left,1,2,0.4993207020816044,C15T02,2022-10-06_14h45.31.035,t1_Paradigm,2021.1.4,60.017732749276476,
V,right,Target,0,53,53,53,997.9193427155042,999.9191762193441,right,1,2,0.5834795387745544,C15T02,2022-10-06_14h45.31.035,t1_Paradigm,2021.1.4,60.017732749276476,
V,left,Lure,0,54,54,54,1001.4193858633553,1003.4191661140867,left,1,2,0.7477101965887414,C15T02,2022-10-06_14h45.31.035,t1_Paradigm,2021.1.4,60.017732749276476,
N,left,Distractor,0,55,55,55,1004.9193523395625,1006.9196205299086,left,1,2,0.6391428302886197,C15T02,2022-10-06_14h45.31.035,t1_Paradigm,2021.1.4,60.017732749276476,
B,left,Distractor,0,56,56,56,1008.4193165701545,1010.4194933319741,left,1,2,0.5313524460652843,C15T02,2022-10-06_14h45.31.035,t1_Paradigm,2021.1.4,60.017732749276476,
V,left,Lure,0,57,57,57,1011.9193257130064,1013.9193051816874,left,1,2,0.6475552172159951,C15T02,2022-10-06_14h45.31.035,t1_Paradigm,2021.1.4,60.017732749276476,
J,left,Distractor,0,58,58,58,1015.4194798582976,1017.4193261942091,left,1,2,0.619480884863151,C15T02,2022-10-06_14h45.31.035,t1_Paradigm,2021.1.4,60.017732749276476,
H,left,Distractor,0,59,59,59,1018.9192718182967,1020.9193077481032,left,1,2,0.5594322320503125,C15T02,2022-10-06_14h45.31.035,t1_Paradigm,2021.1.4,60.017732749276476,
X,left,Pretarget,0,60,60,60,1022.4194557981573,1024.4200351662985,left,1,2,0.7546561982599087,C15T02,2022-10-06_14h45.31.035,t1_Paradigm,2021.1.4,60.017732749276476,
P,left,Distractor,0,61,61,61,1025.919338224281,1027.9192689310803,left,1,2,0.6635734952214989,C15T02,2022-10-06_14h45.31.035,t1_Paradigm,2021.1.4,60.017732749276476,
X,right,Target,0,62,62,62,1029.4192479185585,1031.4212445892772,right,1,2,0.5054579622847086,C15T02,2022-10-06_14h45.31.035,t1_Paradigm,2021.1.4,60.017732749276476,
Q,left,Distractor,0,63,63,63,1032.9194732818578,1034.9194569209649,left,1,2,0.5592108787750476,C15T02,2022-10-06_14h45.31.035,t1_Paradigm,2021.1.4,60.017732749276476,
B,left,Pretarget,0,0,0,0,1042.3921523526478,1044.3862306712872,left,1,2,1.3487918121099938,C15T02,2022-10-06_14h45.31.035,t1_Paradigm,2021.1.4,60.017732749276476,
F,left,Distractor,0,1,1,1,1045.8860643355292,1047.8859504508728,left,1,2,0.5208243709312228,C15T02,2022-10-06_14h45.31.035,t1_Paradigm,2021.1.4,60.017732749276476,
B,right,Target,0,2,2,2,1049.3860632127216,1051.3858636739715,right,1,2,1.1491135122087144,C15T02,2022-10-06_14h45.31.035,t1_Paradigm,2021.1.4,60.017732749276476,
V,left,Distractor,0,3,3,3,1052.8859392228078,1054.8858846864932,left,1,2,1.1367494880796585,C15T02,2022-10-06_14h45.31.035,t1_Paradigm,2021.1.4,60.017732749276476,
G,left,Pretarget,0,4,4,4,1056.3861620196913,1058.3864985408327,left,1,2,0.7242595813113439,C15T02,2022-10-06_14h45.31.035,t1_Paradigm,2021.1.4,60.017732749276476,
B,left,Lure,0,5,5,5,1059.8859729070027,1061.8864191423745,left,1,2,0.4882690783269936,C15T02,2022-10-06_14h45.31.035,t1_Paradigm,2021.1.4,60.017732749276476,
G,right,Target,0,6,6,6,1063.385797267987,1065.3861145410192,right,1,2,0.6045177241430792,C15T02,2022-10-06_14h45.31.035,t1_Paradigm,2021.1.4,60.017732749276476,
Y,left,Pretarget,0,7,7,7,1066.8861695585365,1068.8861339495306,left,1,2,0.448742761509493,C15T02,2022-10-06_14h45.31.035,t1_Paradigm,2021.1.4,60.017732749276476,
P,left,Distractor,0,8,8,8,1070.385856616329,1072.3874333574277,left,1,2,0.8994250910036499,C15T02,2022-10-06_14h45.31.035,t1_Paradigm,2021.1.4,60.017732749276476,
Y,right,Target,0,9,9,9,1073.8861361951422,1075.886488756376,right,1,2,0.5840624357406341,C15T02,2022-10-06_14h45.31.035,t1_Paradigm,2021.1.4,60.017732749276476,
X,left,Distractor,0,10,10,10,1077.3859297591516,1079.386170681344,left,1,2,0.6364500195522851,C15T02,2022-10-06_14h45.31.035,t1_Paradigm,2021.1.4,60.017732749276476,
Y,right,Target,0,11,11,11,1080.8860235936954,1082.8863270722431,right,1,2,0.6083760080000502,C15T02,2022-10-06_14h45.31.035,t1_Paradigm,2021.1.4,60.017732749276476,
N,left,Distractor,0,12,12,12,1084.3857857191215,1086.3860365861692,left,1,2,0.5010841498515219,C15T02,2022-10-06_14h45.31.035,t1_Paradigm,2021.1.4,60.017732749276476,
Y,right,Target,0,13,13,13,1087.8858169973028,1089.885984776669,right,1,2,0.7130449902142573,C15T02,2022-10-06_14h45.31.035,t1_Paradigm,2021.1.4,60.017732749276476,
Y,left,Lure,0,14,14,14,1091.3858007968083,1093.3860407565917,left,1,2,1.0525787817168748,C15T02,2022-10-06_14h45.31.035,t1_Paradigm,2021.1.4,60.017732749276476,
K,left,Distractor,0,15,15,15,1094.8859360147871,1096.8858542103153,left,1,2,0.7846781186490261,C15T02,2022-10-06_14h45.31.035,t1_Paradigm,2021.1.4,60.017732749276476,
T,left,Pretarget,0,16,16,16,1098.3859782002328,1100.3858245361444,left,1,2,0.5650045601978491,C15T02,2022-10-06_14h45.31.035,t1_Paradigm,2021.1.4,60.017732749276476,
J,left,Distractor,0,17,17,17,1101.8858458694704,1103.8864515433634,left,1,2,0.6162292373046512,C15T02,2022-10-06_14h45.31.035,t1_Paradigm,2021.1.4,60.017732749276476,
T,right,Target,0,18,18,18,1105.3860686663538,1107.3866358440246,right,1,2,0.9400937832106138,C15T02,2022-10-06_14h45.31.035,t1_Paradigm,2021.1.4,60.017732749276476,
S,left,Pretarget,0,19,19,19,1108.88607813001,1110.8860749219893,left,1,2,0.7684603018933558,C15T02,2022-10-06_14h45.31.035,t1_Paradigm,2021.1.4,60.017732749276476,
R,left,Distractor,0,20,20,20,1112.3859044158053,1114.3860394733856,left,1,2,1.0446328406760585,C15T02,2022-10-06_14h45.31.035,t1_Paradigm,2021.1.4,60.017732749276476,
S,right,Target,0,21,21,21,1115.8858888569157,1117.8858153932924,right,1,2,0.5846944153854565,C15T02,2022-10-06_14h45.31.035,t1_Paradigm,2021.1.4,60.017732749276476,
Q,left,Distractor,0,22,22,22,1119.3859891074935,1121.3861674733234,left,1,2,0.6045170825382229,C15T02,2022-10-06_14h45.31.035,t1_Paradigm,2021.1.4,60.017732749276476,
D,left,Distractor,0,23,23,23,1122.8863934782275,1124.885895593754,left,1,2,0.56081264241584,C15T02,2022-10-06_14h45.31.035,t1_Paradigm,2021.1.4,60.017732749276476,
F,left,Distractor,0,24,24,24,1126.3860388317808,1128.3859772378273,left,1,2,0.6927308546255517,C15T02,2022-10-06_14h45.31.035,t1_Paradigm,2021.1.4,60.017732749276476,
Z,left,Distractor,0,25,25,25,1129.886044445815,1131.8862494381974,left,1,2,0.6965532086760504,C15T02,2022-10-06_14h45.31.035,t1_Paradigm,2021.1.4,60.017732749276476,
P,left,Distractor,0,26,26,26,1133.385867844394,1135.386218801621,left,1,2,0.5246046999382088,C15T02,2022-10-06_14h45.31.035,t1_Paradigm,2021.1.4,60.017732749276476,
H,left,Distractor,0,27,27,27,1136.8857736890532,1138.9025185832506,left,1,2,0.448281769247842,C15T02,2022-10-06_14h45.31.035,t1_Paradigm,2021.1.4,60.017732749276476,
Z,left,Pretarget,0,28,28,28,1140.386087272862,1142.3859175686812,left,1,2,0.4691550624593219,C15T02,2022-10-06_14h45.31.035,t1_Paradigm,2021.1.4,60.017732749276476,
J,left,Pretarget,0,29,29,29,1143.8860316137398,1145.8860335385507,left,1,2,0.5205677294507041,C15T02,2022-10-06_14h45.31.035,t1_Paradigm,2021.1.4,60.017732749276476,
Z,right,Target,0,30,30,30,1147.3858582203393,1149.3861065209712,right,1,2,0.7004252870137861,C15T02,2022-10-06_14h45.31.035,t1_Paradigm,2021.1.4,60.017732749276476,
J,right,Target,0,31,31,31,1150.885946601251,1152.8857576489609,right,1,2,0.6569072327692993,C15T02,2022-10-06_14h45.31.035,t1_Paradigm,2021.1.4,60.017732749276476,
V,left,Pretarget,0,32,32,32,1154.3858152328903,1156.3864067915056,left,1,2,1.044177943651448,C15T02,2022-10-06_14h45.31.035,t1_Paradigm,2021.1.4,60.017732749276476,
Z,left,Lure,0,33,33,33,1157.8857926163619,1159.8863155233776,None,0,2,,C15T02,2022-10-06_14h45.31.035,t1_Paradigm,2021.1.4,60.017732749276476,
V,right,Target,0,34,34,34,1161.3859894282978,1163.3858081752514,right,1,2,0.8928919613135804,C15T02,2022-10-06_14h45.31.035,t1_Paradigm,2021.1.4,60.017732749276476,
X,left,Distractor,0,35,35,35,1164.8859549420995,1166.88582180933,left,1,2,1.1367369768086064,C15T02,2022-10-06_14h45.31.035,t1_Paradigm,2021.1.4,60.017732749276476,
S,left,Distractor,0,36,36,36,1168.385895754156,1170.3859217391073,left,1,2,0.5486619515213533,C15T02,2022-10-06_14h45.31.035,t1_Paradigm,2021.1.4,60.017732749276476,
Q,left,Distractor,0,37,37,37,1171.8859097090353,1173.8859270323373,left,1,2,0.7446651454229141,C15T02,2022-10-06_14h45.31.035,t1_Paradigm,2021.1.4,60.017732749276476,
P,left,Distractor,0,38,38,38,1175.3858899797233,1177.3858149120897,left,1,2,1.004853090395045,C15T02,2022-10-06_14h45.31.035,t1_Paradigm,2021.1.4,60.017732749276476,
S,left,Lure,0,39,39,39,1178.8858323957902,1180.885447112767,left,1,2,0.6252543557675381,C15T02,2022-10-06_14h45.31.035,t1_Paradigm,2021.1.4,60.017732749276476,
K,left,Pretarget,0,40,40,40,1182.3857664710122,1184.3860863104564,left,1,2,0.5006340648578771,C15T02,2022-10-06_14h45.31.035,t1_Paradigm,2021.1.4,60.017732749276476,
L,left,Distractor,0,41,41,41,1185.886003383177,1187.8858920649363,left,1,2,0.5206893133545236,C15T02,2022-10-06_14h45.31.035,t1_Paradigm,2021.1.4,60.017732749276476,
K,right,Target,0,42,42,42,1189.3859852578717,1191.3859422704263,right,1,2,0.9886663914185192,C15T02,2022-10-06_14h45.31.035,t1_Paradigm,2021.1.4,60.017732749276476,
B,left,Distractor,0,43,43,43,1192.8857993532001,1194.8856761652896,left,1,2,0.7048764126921014,C15T02,2022-10-06_14h45.31.035,t1_Paradigm,2021.1.4,60.017732749276476,
N,left,Distractor,0,44,44,44,1196.3857953431761,1198.3858947917506,left,1,2,0.7247446337059955,C15T02,2022-10-06_14h45.31.035,t1_Paradigm,2021.1.4,60.017732749276476,
S,left,Pretarget,0,45,45,45,1199.8858651175797,1201.8858221301307,left,1,2,0.6332548331192811,C15T02,2022-10-06_14h45.31.035,t1_Paradigm,2021.1.4,60.017732749276476,
Z,left,Distractor,0,46,46,46,1203.3859884658923,1205.3861880046425,left,1,2,0.5242954469576944,C15T02,2022-10-06_14h45.31.035,t1_Paradigm,2021.1.4,60.017732749276476,
S,right,Target,0,47,47,47,1206.8858176389076,1208.885871854418,right,1,2,0.9286206258257153,C15T02,2022-10-06_14h45.31.035,t1_Paradigm,2021.1.4,60.017732749276476,
C,left,Distractor,0,48,48,48,1210.3859897490984,1212.3862354833145,left,1,2,0.452358198363072,C15T02,2022-10-06_14h45.31.035,t1_Paradigm,2021.1.4,60.017732749276476,
T,left,Pretarget,0,49,49,49,1213.8861041149576,1215.885925428327,left,1,2,1.2248124832985923,C15T02,2022-10-06_14h45.31.035,t1_Paradigm,2021.1.4,60.017732749276476,
S,left,Lure,0,50,50,50,1217.3860625711204,1219.385741769267,left,1,2,1.1333621413396031,C15T02,2022-10-06_14h45.31.035,t1_Paradigm,2021.1.4,60.017732749276476,
T,right,Target,0,51,51,51,1220.8857329472157,1222.8858141100864,right,1,2,0.5128386504620721,C15T02,2022-10-06_14h45.31.035,t1_Paradigm,2021.1.4,60.017732749276476,
N,left,Pretarget,0,52,52,52,1224.3856744008808,1226.3858774684522,left,1,2,0.5488130491939955,C15T02,2022-10-06_14h45.31.035,t1_Paradigm,2021.1.4,60.017732749276476,
B,left,Distractor,0,53,53,53,1227.885769518627,1229.8858375286218,left,1,2,0.5527098292732262,C15T02,2022-10-06_14h45.31.035,t1_Paradigm,2021.1.4,60.017732749276476,
N,right,Target,0,54,54,54,1231.385964405752,1233.3858444258622,right,1,2,0.6207384281151462,C15T02,2022-10-06_14h45.31.035,t1_Paradigm,2021.1.4,60.017732749276476,
N,left,Lure,0,55,55,55,1234.8857085662748,1236.886094490903,left,1,2,0.8487929349175829,C15T02,2022-10-06_14h45.31.035,t1_Paradigm,2021.1.4,60.017732749276476,
X,left,Distractor,0,56,56,56,1238.3857975887913,1240.3858360850136,left,1,2,0.8527798603172414,C15T02,2022-10-06_14h45.31.035,t1_Paradigm,2021.1.4,60.017732749276476,
W,left,Distractor,0,57,57,57,1241.8860479746363,1243.8862038843326,left,1,2,0.7444280728559534,C15T02,2022-10-06_14h45.31.035,t1_Paradigm,2021.1.4,60.017732749276476,
S,left,Distractor,0,58,58,58,1245.3858672027927,1247.3858604659545,left,1,2,0.668620029136946,C15T02,2022-10-06_14h45.31.035,t1_Paradigm,2021.1.4,60.017732749276476,
L,left,Distractor,0,59,59,59,1248.8859693781815,1250.886226019662,left,1,2,0.5924453088991868,C15T02,2022-10-06_14h45.31.035,t1_Paradigm,2021.1.4,60.017732749276476,
K,left,Pretarget,0,60,60,60,1252.385797267987,1254.3859323255674,left,1,2,1.4286451671687246,C15T02,2022-10-06_14h45.31.035,t1_Paradigm,2021.1.4,60.017732749276476,
V,left,Pretarget,0,61,61,61,1255.8863492075725,1257.886348245167,left,1,2,0.9202165797469206,C15T02,2022-10-06_14h45.31.035,t1_Paradigm,2021.1.4,60.017732749276476,
K,right,Target,0,62,62,62,1259.385731182807,1261.3858803556686,right,1,2,0.5246550658303022,C15T02,2022-10-06_14h45.31.035,t1_Paradigm,2021.1.4,60.017732749276476,
V,right,Target,0,63,63,63,1262.8859543004946,1264.8858673631912,right,1,2,0.5447253920101502,C15T02,2022-10-06_14h45.31.035,t1_Paradigm,2021.1.4,60.017732749276476,
R,left,Distractor,0,0,0,0,1368.141704593465,1370.1362169570093,left,1,3,1.2781531694090518,C15T02,2022-10-06_14h45.31.035,t1_Paradigm,2021.1.4,60.017732749276476,
P,left,Lure,0,1,1,1,1371.6358799546651,1373.6360178994619,left,1,3,1.1225572142066085,C15T02,2022-10-06_14h45.31.035,t1_Paradigm,2021.1.4,60.017732749276476,
V,left,Distractor,0,2,2,2,1375.135822370732,1377.1357527567307,left,1,3,0.6149354434382985,C15T02,2022-10-06_14h45.31.035,t1_Paradigm,2021.1.4,60.017732749276476,
P,left,Pretarget,0,3,3,3,1378.6357612579814,1380.6355597944166,left,1,3,0.970936314737628,C15T02,2022-10-06_14h45.31.035,t1_Paradigm,2021.1.4,60.017732749276476,
Z,left,Distractor,0,4,4,4,1382.1359837340642,1384.1357373582432,left,1,3,0.9908609968806559,C15T02,2022-10-06_14h45.31.035,t1_Paradigm,2021.1.4,60.017732749276476,
L,left,Pretarget,0,5,5,5,1385.6356531477577,1387.636119593648,left,1,3,0.4828282789385412,C15T02,2022-10-06_14h45.31.035,t1_Paradigm,2021.1.4,60.017732749276476,
P,right,Target,0,6,6,6,1389.1528771595185,1391.1356407968851,right,1,3,0.663066628298111,C15T02,2022-10-06_14h45.31.035,t1_Paradigm,2021.1.4,60.017732749276476,
S,left,Distractor,0,7,7,7,1392.6359171676813,1394.6357975085884,left,1,3,0.522761051703128,C15T02,2022-10-06_14h45.31.035,t1_Paradigm,2021.1.4,60.017732749276476,
L,right,Target,0,8,8,8,1396.1358105010659,1398.1366102600768,right,1,3,0.47772335909030517,C15T02,2022-10-06_14h45.31.035,t1_Paradigm,2021.1.4,60.017732749276476,
D,left,Distractor,0,9,9,9,1399.6357423306727,1401.6356204259682,left,1,3,0.5630117391010572,C15T02,2022-10-06_14h45.31.035,t1_Paradigm,2021.1.4,60.017732749276476,
G,left,Distractor,0,10,10,10,1403.1358756238405,1405.1357261301782,left,1,3,0.6787480643615709,C15T02,2022-10-06_14h45.31.035,t1_Paradigm,2021.1.4,60.017732749276476,
M,left,Pretarget,0,11,11,11,1406.6357330274186,1408.635628125212,left,1,3,0.4749468190711923,C15T02,2022-10-06_14h45.31.035,t1_Paradigm,2021.1.4,60.017732749276476,
Y,left,Distractor,0,12,12,12,1410.1356841051347,1412.1359044960082,left,1,3,0.5105240651100758,C15T02,2022-10-06_14h45.31.035,t1_Paradigm,2021.1.4,60.017732749276476,
V,left,Distractor,0,13,13,13,1413.635749067511,1415.6356922855812,left,1,3,0.7228525443897524,C15T02,2022-10-06_14h45.31.035,t1_Paradigm,2021.1.4,60.017732749276476,
M,right,Target,0,14,14,14,1417.1358557341264,1419.1363962852447,right,1,3,0.7258616657527455,C15T02,2022-10-06_14h45.31.035,t1_Paradigm,2021.1.4,60.017732749276476,
S,left,Pretarget,0,15,15,15,1420.635663092613,1422.6369661897334,left,1,3,0.48957859148140415,C15T02,2022-10-06_14h45.31.035,t1_Paradigm,2021.1.4,60.017732749276476,
Q,left,Distractor,0,16,16,16,1424.1356770474958,1426.135834240402,left,1,3,0.6707155068252177,C15T02,2022-10-06_14h45.31.035,t1_Paradigm,2021.1.4,60.017732749276476,
R,left,Pretarget,0,17,17,17,1427.6355950826219,1429.6361548818495,left,1,3,0.9942101681990607,C15T02,2022-10-06_14h45.31.035,t1_Paradigm,2021.1.4,60.017732749276476,
S,right,Target,0,18,18,18,1431.1355577092072,1433.135663253015,right,1,3,1.222854308802198,C15T02,2022-10-06_14h45.31.035,t1_Paradigm,2021.1.4,60.017732749276476,
F,left,Distractor,0,19,19,19,1434.6355418295134,1436.6356412780879,left,1,3,1.2428871011652518,C15T02,2022-10-06_14h45.31.035,t1_Paradigm,2021.1.4,60.017732749276476,
R,right,Target,0,20,20,20,1438.1355108721364,1440.1356173783497,right,1,3,0.9429328795922629,C15T02,2022-10-06_14h45.31.035,t1_Paradigm,2021.1.4,60.017732749276476,
P,left,Distractor,0,21,21,21,1441.6359229421141,1443.6356768870937,left,1,3,0.9947654762036109,C15T02,2022-10-06_14h45.31.035,t1_Paradigm,2021.1.4,60.017732749276476,
L,left,Distractor,0,22,22,22,1445.1356148119376,1447.1354845663845,left,1,3,0.9348637506409432,C15T02,2022-10-06_14h45.31.035,t1_Paradigm,2021.1.4,60.017732749276476,
R,right,Target,0,23,23,23,1448.6357176289275,1450.6361263304861,right,1,3,0.8423929379969195,C15T02,2022-10-06_14h45.31.035,t1_Paradigm,2021.1.4,60.017732749276476,
H,left,Pretarget,0,24,24,24,1452.1357925361626,1454.1356792931074,left,1,3,1.454682728570333,C15T02,2022-10-06_14h45.31.035,t1_Paradigm,2021.1.4,60.017732749276476,
G,left,Pretarget,0,25,25,25,1455.6356310124283,1457.6356306916277,None,0,3,,C15T02,2022-10-06_14h45.31.035,t1_Paradigm,2021.1.4,60.017732749276476,
T,left,Distractor,0,26,26,26,1459.1359385010037,1461.1361537590456,left,1,3,1.1263680193915206,C15T02,2022-10-06_14h45.31.035,t1_Paradigm,2021.1.4,60.017732749276476,
H,right,Target,0,27,27,27,1462.6356290876174,1464.6358414584429,left,0,3,1.1629692649366916,C15T02,2022-10-06_14h45.31.035,t1_Paradigm,2021.1.4,60.017732749276476,
G,right,Target,0,28,28,28,1466.1357322254116,1468.1356472129228,left,0,3,0.7673480818775715,C15T02,2022-10-06_14h45.31.035,t1_Paradigm,2021.1.4,60.017732749276476,
D,left,Distractor,0,29,29,29,1469.6356624510117,1471.6356399948818,left,1,3,0.6748445474404434,C15T02,2022-10-06_14h45.31.035,t1_Paradigm,2021.1.4,60.017732749276476,
N,left,Pretarget,0,30,30,30,1473.1358390524292,1475.1361030723529,left,1,3,0.6465376337437192,C15T02,2022-10-06_14h45.31.035,t1_Paradigm,2021.1.4,60.017732749276476,
V,left,Distractor,0,31,31,31,1476.6354747819278,1478.6355014084802,left,1,3,0.7471054851048393,C15T02,2022-10-06_14h45.31.035,t1_Paradigm,2021.1.4,60.017732749276476,
R,left,Distractor,0,32,32,32,1480.1357896489426,1482.1361120548027,left,1,3,1.1662969425342453,C15T02,2022-10-06_14h45.31.035,t1_Paradigm,2021.1.4,60.017732749276476,
N,right,Target,0,33,33,33,1483.6357715236409,1485.635529639043,right,1,3,0.9150949782015232,C15T02,2022-10-06_14h45.31.035,t1_Paradigm,2021.1.4,60.017732749276476,
Z,left,Distractor,0,34,34,34,1487.1359324057667,1489.1356789723068,left,1,3,1.318659215081425,C15T02,2022-10-06_14h45.31.035,t1_Paradigm,2021.1.4,60.017732749276476,
N,left,Lure,0,35,35,35,1490.6357221201542,1492.63558064654,left,1,3,0.8589729400409851,C15T02,2022-10-06_14h45.31.035,t1_Paradigm,2021.1.4,60.017732749276476,
Y,left,Pretarget,0,36,36,36,1494.1358281451649,1496.135544877132,left,1,3,0.8949175041998387,C15T02,2022-10-06_14h45.31.035,t1_Paradigm,2021.1.4,60.017732749276476,
Y,left,Lure,0,37,37,37,1497.635789488544,1499.6357718444415,left,1,3,1.3308095851716644,C15T02,2022-10-06_14h45.31.035,t1_Paradigm,2021.1.4,60.017732749276476,
B,left,Distractor,0,38,38,38,1501.1357232429618,1503.135555463592,left,1,3,1.1909640384365048,C15T02,2022-10-06_14h45.31.035,t1_Paradigm,2021.1.4,60.017732749276476,
Y,right,Target,0,39,39,39,1504.635538942297,1506.636229949483,right,1,3,1.0825288424930477,C15T02,2022-10-06_14h45.31.035,t1_Paradigm,2021.1.4,60.017732749276476,
J,left,Distractor,0,40,40,40,1508.13556348364,1510.135464997471,left,1,3,1.2311287509364774,C15T02,2022-10-06_14h45.31.035,t1_Paradigm,2021.1.4,60.017732749276476,
X,left,Distractor,0,41,41,41,1511.6355251478199,1513.6359652879582,None,0,3,,C15T02,2022-10-06_14h45.31.035,t1_Paradigm,2021.1.4,60.017732749276476,
W,left,Pretarget,0,42,42,42,1515.1358977591663,1517.1356026214671,left,1,3,0.9990465768969443,C15T02,2022-10-06_14h45.31.035,t1_Paradigm,2021.1.4,60.017732749276476,
S,left,Pretarget,0,43,43,43,1518.635681699121,1520.635785318118,left,1,3,0.6025887426148984,C15T02,2022-10-06_14h45.31.035,t1_Paradigm,2021.1.4,60.017732749276476,
R,left,Distractor,0,44,44,44,1522.1356449673112,1524.1351884662763,left,1,3,0.5273642374595511,C15T02,2022-10-06_14h45.31.035,t1_Paradigm,2021.1.4,60.017732749276476,
W,right,Target,0,45,45,45,1525.6358100198631,1527.6361661099145,right,1,3,0.6263120394687576,C15T02,2022-10-06_14h45.31.035,t1_Paradigm,2021.1.4,60.017732749276476,
S,right,Target,0,46,46,46,1529.135555463592,1531.1356850675402,right,1,3,1.222861366444704,C15T02,2022-10-06_14h45.31.035,t1_Paradigm,2021.1.4,60.017732749276476,
D,left,Distractor,0,47,47,47,1532.635681699121,1534.6356082354978,left,1,3,1.3708177463740867,C15T02,2022-10-06_14h45.31.035,t1_Paradigm,2021.1.4,60.017732749276476,
T,left,Distractor,0,48,48,48,1536.1356728770697,1538.135495473649,left,1,3,0.7028832707910624,C15T02,2022-10-06_14h45.31.035,t1_Paradigm,2021.1.4,60.017732749276476,
S,right,Target,0,49,49,49,1539.6357038344504,1541.6355877041788,right,1,3,0.5470162380261172,C15T02,2022-10-06_14h45.31.035,t1_Paradigm,2021.1.4,60.017732749276476,
K,left,Distractor,0,50,50,50,1543.13577489206,1545.1355365362833,left,1,3,0.582971709449339,C15T02,2022-10-06_14h45.31.035,t1_Paradigm,2021.1.4,60.017732749276476,
S,left,Lure,0,51,51,51,1546.6356265212016,1548.6356303708271,left,1,3,1.4186980641825357,C15T02,2022-10-06_14h45.31.035,t1_Paradigm,2021.1.4,60.017732749276476,
T,left,Pretarget,0,52,52,52,1550.1355346114724,1552.1354759047354,left,1,3,0.8788786948753113,C15T02,2022-10-06_14h45.31.035,t1_Paradigm,2021.1.4,60.017732749276476,
V,left,Distractor,0,53,53,53,1553.6355658896537,1555.6355751929077,left,1,3,1.3628913742468285,C15T02,2022-10-06_14h45.31.035,t1_Paradigm,2021.1.4,60.017732749276476,
B,left,Distractor,0,54,54,54,1557.1358506012948,1559.1363658090668,left,1,3,0.6622306186764035,C15T02,2022-10-06_14h45.31.035,t1_Paradigm,2021.1.4,60.017732749276476,
T,right,Target,0,55,55,55,1560.6357301402022,1562.6356794535095,left,0,3,0.7149341923141037,C15T02,2022-10-06_14h45.31.035,t1_Paradigm,2021.1.4,60.017732749276476,
Y,left,Pretarget,0,56,56,56,1564.135746340693,1566.135528516239,left,1,3,0.7028284136758884,C15T02,2022-10-06_14h45.31.035,t1_Paradigm,2021.1.4,60.017732749276476,
T,left,Lure,0,57,57,57,1567.635615613941,1569.6360217490837,left,1,3,0.866255142052978,C15T02,2022-10-06_14h45.31.035,t1_Paradigm,2021.1.4,60.017732749276476,
P,left,Pretarget,0,58,58,58,1571.1355657292515,1573.1365480245186,left,1,3,0.8858051276329206,C15T02,2022-10-06_14h45.31.035,t1_Paradigm,2021.1.4,60.017732749276476,
Y,right,Target,0,59,59,59,1574.6355135989506,1576.6353515940173,right,1,3,0.8911715009926411,C15T02,2022-10-06_14h45.31.035,t1_Paradigm,2021.1.4,60.017732749276476,
R,left,Distractor,0,60,60,60,1578.1356972580106,1580.1354916240234,left,1,3,1.231101161974948,C15T02,2022-10-06_14h45.31.035,t1_Paradigm,2021.1.4,60.017732749276476,
P,right,Target,0,61,61,61,1581.6356884359593,1583.635651864548,right,1,3,0.8026606663879647,C15T02,2022-10-06_14h45.31.035,t1_Paradigm,2021.1.4,60.017732749276476,
L,left,Distractor,0,62,62,62,1585.1357158645187,1587.1356379096687,left,1,3,0.5827615842354135,C15T02,2022-10-06_14h45.31.035,t1_Paradigm,2021.1.4,60.017732749276476,
V,left,Distractor,0,63,63,63,1588.635572626492,1590.6357561251498,left,1,3,0.9706986005658109,C15T02,2022-10-06_14h45.31.035,t1_Paradigm,2021.1.4,60.017732749276476,
H,left,Lure,0,0,0,0,1603.625396791791,1605.6188530756408,None,0,3,,C15T02,2022-10-06_14h45.31.035,t1_Paradigm,2021.1.4,60.017732749276476,
B,left,Distractor,0,1,1,1,1607.1190656068684,1609.1188811458014,None,0,3,,C15T02,2022-10-06_14h45.31.035,t1_Paradigm,2021.1.4,60.017732749276476,
T,left,Distractor,0,2,2,2,1610.618885476626,1612.6187193012702,None,0,3,,C15T02,2022-10-06_14h45.31.035,t1_Paradigm,2021.1.4,60.017732749276476,
R,left,Distractor,0,3,3,3,1614.11917884992,1616.1188959026877,left,1,3,0.6236683114184416,C15T02,2022-10-06_14h45.31.035,t1_Paradigm,2021.1.4,60.017732749276476,
H,left,Pretarget,0,4,4,4,1617.6188643037058,1619.6188610956851,left,1,3,0.899951847641205,C15T02,2022-10-06_14h45.31.035,t1_Paradigm,2021.1.4,60.017732749276476,
K,left,Distractor,0,5,5,5,1621.118902639526,1623.1196157820414,left,1,3,0.5506493189859611,C15T02,2022-10-06_14h45.31.035,t1_Paradigm,2021.1.4,60.017732749276476,
G,left,Distractor,0,6,6,6,1624.61922905541,1626.6188591708742,left,1,3,0.5396009032483562,C15T02,2022-10-06_14h45.31.035,t1_Paradigm,2021.1.4,60.017732749276476,
H,right,Target,0,7,7,7,1628.1191124439356,1630.1187101584146,right,1,3,0.7514831471562502,C15T02,2022-10-06_14h45.31.035,t1_Paradigm,2021.1.4,60.017732749276476,
Y,left,Pretarget,0,8,8,8,1631.6188424891807,1633.6189781883622,None,0,3,,C15T02,2022-10-06_14h45.31.035,t1_Paradigm,2021.1.4,60.017732749276476,
S,left,Distractor,0,9,9,9,1635.118789717275,1637.1191929652014,left,1,3,1.1110481270152377,C15T02,2022-10-06_14h45.31.035,t1_Paradigm,2021.1.4,60.017732749276476,
P,left,Distractor,0,10,10,10,1638.6186147198641,1640.6188020681475,left,1,3,1.0354819678868807,C15T02,2022-10-06_14h45.31.035,t1_Paradigm,2021.1.4,60.017732749276476,
Y,right,Target,0,11,11,11,1642.1188429703834,1644.1190550204046,right,1,3,1.119337967636966,C15T02,2022-10-06_14h45.31.035,t1_Paradigm,2021.1.4,60.017732749276476,
H,left,Lure,0,12,12,12,1645.6188928550691,1647.6190218174124,left,1,3,0.963457140391256,C15T02,2022-10-06_14h45.31.035,t1_Paradigm,2021.1.4,60.017732749276476,
Q,left,Distractor,0,13,13,13,1649.118775281193,1651.1191342584643,left,1,3,0.8232468419446377,C15T02,2022-10-06_14h45.31.035,t1_Paradigm,2021.1.4,60.017732749276476,
V,left,Pretarget,0,14,14,14,1652.618776403997,1654.620138528655,left,1,3,1.210169482823403,C15T02,2022-10-06_14h45.31.035,t1_Paradigm,2021.1.4,60.017732749276476,
G,left,Distractor,0,15,15,15,1656.1188971858937,1658.1191557521852,left,1,3,0.4634146341450105,C15T02,2022-10-06_14h45.31.035,t1_Paradigm,2021.1.4,60.017732749276476,
Z,left,Pretarget,0,16,16,16,1659.6188893262515,1661.6190259878385,left,1,3,0.41935699118403136,C15T02,2022-10-06_14h45.31.035,t1_Paradigm,2021.1.4,60.017732749276476,
V,right,Target,0,17,17,17,1663.119011712155,1665.1188641433037,right,1,3,0.7593617198072025,C15T02,2022-10-06_14h45.31.035,t1_Paradigm,2021.1.4,60.017732749276476,
N,left,Distractor,0,18,18,18,1666.6190019276983,1668.6188623788948,left,1,3,0.5714918152225437,C15T02,2022-10-06_14h45.31.035,t1_Paradigm,2021.1.4,60.017732749276476,
Z,right,Target,0,19,19,19,1670.1191467697354,1672.1188991107047,right,1,3,0.7034911902992462,C15T02,2022-10-06_14h45.31.035,t1_Paradigm,2021.1.4,60.017732749276476,
R,left,Distractor,0,20,20,20,1673.618880343798,1675.618739511785,left,1,3,0.6278547755682666,C15T02,2022-10-06_14h45.31.035,t1_Paradigm,2021.1.4,60.017732749276476,
P,left,Distractor,0,21,21,21,1677.118897506698,1679.118806398972,left,1,3,0.7753755065859878,C15T02,2022-10-06_14h45.31.035,t1_Paradigm,2021.1.4,60.017732749276476,
Z,right,Target,0,22,22,22,1680.6188684741282,1682.6193714914298,right,1,3,0.4272108620934887,C15T02,2022-10-06_14h45.31.035,t1_Paradigm,2021.1.4,60.017732749276476,
D,left,Pretarget,0,23,23,23,1684.1190848549777,1686.119345987685,left,1,3,0.510923463414656,C15T02,2022-10-06_14h45.31.035,t1_Paradigm,2021.1.4,60.017732749276476,
K,left,Distractor,0,24,24,24,1687.6190163637839,1689.6203643731606,left,1,3,0.5621661054246943,C15T02,2022-10-06_14h45.31.035,t1_Paradigm,2021.1.4,60.017732749276476,
W,left,Distractor,0,25,25,25,1691.1188291759026,1693.1190858173832,left,1,3,1.2393970978373545,C15T02,2022-10-06_14h45.31.035,t1_Paradigm,2021.1.4,60.017732749276476,
D,right,Target,0,26,26,26,1694.6189595818541,1696.619043311137,left,0,3,0.8593700927340251,C15T02,2022-10-06_14h45.31.035,t1_Paradigm,2021.1.4,60.017732749276476,
G,left,Pretarget,0,27,27,27,1698.1188224390644,1700.1191750002981,left,1,3,0.7509506160859019,C15T02,2022-10-06_14h45.31.035,t1_Paradigm,2021.1.4,60.017732749276476,
V,left,Distractor,0,28,28,28,1701.6191799727276,1703.6185922637378,left,1,3,0.9318976167305664,C15T02,2022-10-06_14h45.31.035,t1_Paradigm,2021.1.4,60.017732749276476,
D,right,Target,0,29,29,29,1705.1188484240156,1707.119273165663,left,0,3,0.7270460661857214,C15T02,2022-10-06_14h45.31.035,t1_Paradigm,2021.1.4,60.017732749276476,
G,right,Target,0,30,30,30,1708.6187318125412,1710.6188149002191,right,1,3,0.8596171101598884,C15T02,2022-10-06_14h45.31.035,t1_Paradigm,2021.1.4,60.017732749276476,
B,left,Pretarget,0,31,31,31,1712.1189738575376,1714.1191721130817,left,1,3,0.591254171627952,C15T02,2022-10-06_14h45.31.035,t1_Paradigm,2021.1.4,60.017732749276476,
N,left,Distractor,0,32,32,32,1715.6189018375226,1717.6192954613944,left,1,3,0.8349628463329282,C15T02,2022-10-06_14h45.31.035,t1_Paradigm,2021.1.4,60.017732749276476,
F,left,Distractor,0,33,33,33,1719.1190040129113,1721.1186883438895,left,1,3,0.5675533309040475,C15T02,2022-10-06_14h45.31.035,t1_Paradigm,2021.1.4,60.017732749276476,
B,right,Target,0,34,34,34,1722.6188376771534,1724.6187545894718,right,1,3,0.7954605896520661,C15T02,2022-10-06_14h45.31.035,t1_Paradigm,2021.1.4,60.017732749276476,
Q,left,Pretarget,0,35,35,35,1726.1190986494585,1728.1190380179069,left,1,3,0.5275121271115495,C15T02,2022-10-06_14h45.31.035,t1_Paradigm,2021.1.4,60.017732749276476,
S,left,Pretarget,0,36,36,36,1729.6189698475137,1731.6188039929584,left,1,3,0.7075964915820805,C15T02,2022-10-06_14h45.31.035,t1_Paradigm,2021.1.4,60.017732749276476,
W,left,Distractor,0,37,37,37,1733.1187608451073,1735.11902294022,left,1,3,0.8394001775304787,C15T02,2022-10-06_14h45.31.035,t1_Paradigm,2021.1.4,60.017732749276476,
Q,right,Target,0,38,38,38,1736.6188001433366,1738.6187125644283,right,1,3,0.5236548056600441,C15T02,2022-10-06_14h45.31.035,t1_Paradigm,2021.1.4,60.017732749276476,
S,right,Target,0,39,39,39,1740.1188221182638,1742.1187874716634,right,1,3,0.4316918223448738,C15T02,2022-10-06_14h45.31.035,t1_Paradigm,2021.1.4,60.017732749276476,
T,left,Distractor,0,40,40,40,1743.6190542184013,1745.6190173261894,left,1,3,0.5795458664833859,C15T02,2022-10-06_14h45.31.035,t1_Paradigm,2021.1.4,60.017732749276476,
G,left,Distractor,0,41,41,41,1747.118830779913,1749.1190749101188,left,1,3,1.1111280066725158,C15T02,2022-10-06_14h45.31.035,t1_Paradigm,2021.1.4,60.017732749276476,
D,left,Distractor,0,42,42,42,1750.618858529273,1752.6192550403612,left,1,3,0.8590868246974424,C15T02,2022-10-06_14h45.31.035,t1_Paradigm,2021.1.4,60.017732749276476,
S,left,Lure,0,43,43,43,1754.118719782473,1756.120064583829,left,1,3,1.0542755027054227,C15T02,2022-10-06_14h45.31.035,t1_Paradigm,2021.1.4,60.017732749276476,
Z,left,Pretarget,0,44,44,44,1757.6188870806363,1759.6188046345596,left,1,3,1.155508697098412,C15T02,2022-10-06_14h45.31.035,t1_Paradigm,2021.1.4,60.017732749276476,
J,left,Distractor,0,45,45,45,1761.1191323336534,1763.1187518626575,left,1,3,0.87158333998741,C15T02,2022-10-06_14h45.31.035,t1_Paradigm,2021.1.4,60.017732749276476,
M,left,Pretarget,0,46,46,46,1764.6191793311227,1766.6186830506595,left,1,3,0.9076895882790268,C15T02,2022-10-06_14h45.31.035,t1_Paradigm,2021.1.4,60.017732749276476,
Z,right,Target,0,47,47,47,1768.1187031007757,1770.1187053463873,right,1,3,0.639653867634479,C15T02,2022-10-06_14h45.31.035,t1_Paradigm,2021.1.4,60.017732749276476,
P,left,Distractor,0,48,48,48,1771.6188886846467,1773.6200037918788,left,1,3,0.6264073176171223,C15T02,2022-10-06_14h45.31.035,t1_Paradigm,2021.1.4,60.017732749276476,
M,right,Target,0,49,49,49,1775.118704704786,1777.1186825694567,left,0,3,1.2237041129046702,C15T02,2022-10-06_14h45.31.035,t1_Paradigm,2021.1.4,60.017732749276476,
K,left,Distractor,0,50,50,50,1778.6188052761645,1780.6187943689038,None,0,3,,C15T02,2022-10-06_14h45.31.035,t1_Paradigm,2021.1.4,60.017732749276476,
Y,left,Distractor,0,51,51,51,1782.1187502586472,1784.118485917923,left,1,3,1.4558716202336655,C15T02,2022-10-06_14h45.31.035,t1_Paradigm,2021.1.4,60.017732749276476,
X,left,Distractor,0,52,52,52,1785.6186368551935,1787.619158479003,left,1,3,0.9313782385361264,C15T02,2022-10-06_14h45.31.035,t1_Paradigm,2021.1.4,60.017732749276476,
F,left,Pretarget,0,53,53,53,1789.119073306112,1791.119121426389,left,1,3,0.48718252245816984,C15T02,2022-10-06_14h45.31.035,t1_Paradigm,2021.1.4,60.017732749276476,
M,left,Lure,0,54,54,54,1792.6188309403115,1794.6187539478706,None,0,3,,C15T02,2022-10-06_14h45.31.035,t1_Paradigm,2021.1.4,60.017732749276476,
V,left,Distractor,0,55,55,55,1796.1187768851996,1798.118563231168,left,1,3,0.4001541132092825,C15T02,2022-10-06_14h45.31.035,t1_Paradigm,2021.1.4,60.017732749276476,
F,right,Target,0,56,56,56,1799.6188177874355,1801.6187831408388,left,0,3,0.3395623428696126,C15T02,2022-10-06_14h45.31.035,t1_Paradigm,2021.1.4,60.017732749276476,
S,left,Distractor,0,57,57,57,1803.1188189102431,1805.1187643739286,left,1,3,0.8556048414138786,C15T02,2022-10-06_14h45.31.035,t1_Paradigm,2021.1.4,60.017732749276476,
D,left,Distractor,0,58,58,58,1806.61881682503,1808.6188193914459,left,1,3,0.6833820470928913,C15T02,2022-10-06_14h45.31.035,t1_Paradigm,2021.1.4,60.017732749276476,
F,right,Target,0,59,59,59,1810.118695401532,1812.1193001130196,right,1,3,1.1669379046325048,C15T02,2022-10-06_14h45.31.035,t1_Paradigm,2021.1.4,60.017732749276476,
V,left,Pretarget,0,60,60,60,1813.6189785091628,1815.6191373060792,left,1,3,0.6432571140212531,C15T02,2022-10-06_14h45.31.035,t1_Paradigm,2021.1.4,60.017732749276476,
J,left,Distractor,0,61,61,61,1817.1190251858352,1819.1211437612546,left,1,3,0.5171611346013378,C15T02,2022-10-06_14h45.31.035,t1_Paradigm,2021.1.4,60.017732749276476,
V,left,Lure,0,62,62,62,1820.6187892360722,1822.6193429400664,left,1,3,0.9230566385303973,C15T02,2022-10-06_14h45.31.035,t1_Paradigm,2021.1.4,60.017732749276476,
V,right,Target,0,63,63,63,1824.1188811458014,1826.11894498537,right,1,3,0.7192897190398071,C15T02,2022-10-06_14h45.31.035,t1_Paradigm,2021.1.4,60.017732749276476,
R,left,Distractor,0,0,0,0,1912.8423714442724,1914.8357991767589,None,0,4,,C15T02,2022-10-06_14h45.31.035,t1_Paradigm,2021.1.4,60.017732749276476,
F,left,Distractor,0,1,1,1,1916.335622896142,1918.335389673197,left,1,4,0.9347630188603944,C15T02,2022-10-06_14h45.31.035,t1_Paradigm,2021.1.4,60.017732749276476,
P,left,Pretarget,0,2,2,2,1919.8356528911172,1921.835424801,left,1,4,0.426899363497796,C15T02,2022-10-06_14h45.31.035,t1_Paradigm,2021.1.4,60.017732749276476,
H,left,Distractor,0,3,3,3,1923.3355144651177,1925.3357220239159,left,1,4,0.8784792965707311,C15T02,2022-10-06_14h45.31.035,t1_Paradigm,2021.1.4,60.017732749276476,
Z,left,Distractor,0,4,4,4,1926.8354241593952,1928.8352955178525,left,1,4,1.3470825798503938,C15T02,2022-10-06_14h45.31.035,t1_Paradigm,2021.1.4,60.017732749276476,
T,left,Distractor,0,5,5,5,1930.335465061631,1932.3353819739532,left,1,4,0.9029930491851701,C15T02,2022-10-06_14h45.31.035,t1_Paradigm,2021.1.4,60.017732749276476,
P,right,Target,0,6,6,6,1933.8355322696189,1935.8359602192868,right,1,4,0.7463753400916175,C15T02,2022-10-06_14h45.31.035,t1_Paradigm,2021.1.4,60.017732749276476,
G,left,Distractor,0,7,7,7,1937.335410204516,1939.335400901262,left,1,4,0.6868332334015577,C15T02,2022-10-06_14h45.31.035,t1_Paradigm,2021.1.4,60.017732749276476,
L,left,Distractor,0,8,8,8,1940.8354838285413,1942.8353141243606,left,1,4,1.0588764428466675,C15T02,2022-10-06_14h45.31.035,t1_Paradigm,2021.1.4,60.017732749276476,
P,left,Lure,0,9,9,9,1944.3354997082315,1946.335187568031,left,1,4,0.69495304904558,C15T02,2022-10-06_14h45.31.035,t1_Paradigm,2021.1.4,60.017732749276476,
Q,left,Pretarget,0,10,10,10,1947.8355842395176,1949.8355245703751,left,1,4,0.4108656870012055,C15T02,2022-10-06_14h45.31.035,t1_Paradigm,2021.1.4,60.017732749276476,
D,left,Distractor,0,11,11,11,1951.335684490099,1953.3353120391475,left,1,4,0.7833198436128441,C15T02,2022-10-06_14h45.31.035,t1_Paradigm,2021.1.4,60.017732749276476,
M,left,Pretarget,0,12,12,12,1954.8353847007675,1956.8352891018185,left,1,4,0.7869086539176351,C15T02,2022-10-06_14h45.31.035,t1_Paradigm,2021.1.4,60.017732749276476,
C,left,Distractor,0,13,13,13,1958.3353646506512,1960.3352642396749,left,1,4,0.727089695235918,C15T02,2022-10-06_14h45.31.035,t1_Paradigm,2021.1.4,60.017732749276476,
Q,right,Target,0,14,14,14,1961.8355123799047,1963.8352627960667,left,0,4,0.8910040424234467,C15T02,2022-10-06_14h45.31.035,t1_Paradigm,2021.1.4,60.017732749276476,
R,left,Distractor,0,15,15,15,1965.335217402604,1967.3360267856733,left,1,4,0.5900460318589467,C15T02,2022-10-06_14h45.31.035,t1_Paradigm,2021.1.4,60.017732749276476,
M,right,Target,0,16,16,16,1968.8353227860098,1970.8353994576537,right,1,4,0.5469498320453567,C15T02,2022-10-06_14h45.31.035,t1_Paradigm,2021.1.4,60.017732749276476,
S,left,Distractor,0,17,17,17,1972.335217402604,1974.336294013614,left,1,4,0.5820105871025589,C15T02,2022-10-06_14h45.31.035,t1_Paradigm,2021.1.4,60.017732749276476,
Z,left,Distractor,0,18,18,18,1975.8354498235458,1977.8355553673537,left,1,4,0.8587756469059968,C15T02,2022-10-06_14h45.31.035,t1_Paradigm,2021.1.4,60.017732749276476,
L,left,Pretarget,0,19,19,19,1979.3352671268913,1981.3355382044538,left,1,4,0.7829839640762657,C15T02,2022-10-06_14h45.31.035,t1_Paradigm,2021.1.4,60.017732749276476,
M,right,Target,0,20,20,20,1982.835585843528,1984.8354466155251,left,0,4,0.6748275449463108,C15T02,2022-10-06_14h45.31.035,t1_Paradigm,2021.1.4,60.017732749276476,
P,left,Distractor,0,21,21,21,1986.3352058537348,1988.3352757885405,left,1,4,0.5188520811534545,C15T02,2022-10-06_14h45.31.035,t1_Paradigm,2021.1.4,60.017732749276476,
F,left,Distractor,0,22,22,22,1989.83554766811,1991.8352939138458,left,1,4,0.44303152616339503,C15T02,2022-10-06_14h45.31.035,t1_Paradigm,2021.1.4,60.017732749276476,
L,right,Target,0,23,23,23,1993.3354846305447,1995.335610384871,left,0,4,0.751099788943975,C15T02,2022-10-06_14h45.31.035,t1_Paradigm,2021.1.4,60.017732749276476,
L,left,Lure,0,24,24,24,1996.83550275585,1998.8354777333043,left,1,4,0.8506972147006309,C15T02,2022-10-06_14h45.31.035,t1_Paradigm,2021.1.4,60.017732749276476,
V,left,Pretarget,0,25,25,25,2000.335833021356,2002.3353883899908,left,1,4,0.9029009790574491,C15T02,2022-10-06_14h45.31.035,t1_Paradigm,2021.1.4,60.017732749276476,
Z,left,Distractor,0,26,26,26,2003.835572690652,2005.8356192069223,left,1,4,1.1308444884161872,C15T02,2022-10-06_14h45.31.035,t1_Paradigm,2021.1.4,60.017732749276476,
H,left,Distractor,0,27,27,27,2007.335291187028,2009.3352652020803,left,1,4,1.150822102863458,C15T02,2022-10-06_14h45.31.035,t1_Paradigm,2021.1.4,60.017732749276476,
X,left,Distractor,0,28,28,28,2010.8352846105918,2012.836097201678,left,1,4,0.850036042091233,C15T02,2022-10-06_14h45.31.035,t1_Paradigm,2021.1.4,60.017732749276476,
V,right,Target,0,29,29,29,2014.3355609813843,2016.3356953973598,right,1,4,0.5503952439212298,C15T02,2022-10-06_14h45.31.035,t1_Paradigm,2021.1.4,60.017732749276476,
C,left,Distractor,0,30,30,30,2017.835428009017,2019.83531380356,left,1,4,0.7310711670033925,C15T02,2022-10-06_14h45.31.035,t1_Paradigm,2021.1.4,60.017732749276476,
S,left,Pretarget,0,31,31,31,2021.335363367445,2023.336294013614,left,1,4,1.2460341673213406,C15T02,2022-10-06_14h45.31.035,t1_Paradigm,2021.1.4,60.017732749276476,
D,left,Distractor,0,32,32,32,2024.8354440491094,2026.835323106814,None,0,4,,C15T02,2022-10-06_14h45.31.035,t1_Paradigm,2021.1.4,60.017732749276476,
V,left,Distractor,0,33,33,33,2028.335291187028,2030.3352190066107,None,0,4,,C15T02,2022-10-06_14h45.31.035,t1_Paradigm,2021.1.4,60.017732749276476,
R,left,Distractor,0,34,34,34,2031.8354459739203,2033.8365447202596,left,1,4,0.8577051311294781,C15T02,2022-10-06_14h45.31.035,t1_Paradigm,2021.1.4,60.017732749276476,
S,right,Target,0,35,35,35,2035.3353213424016,2037.3354570415868,left,0,4,0.622729324401007,C15T02,2022-10-06_14h45.31.035,t1_Paradigm,2021.1.4,60.017732749276476,
Y,left,Distractor,0,36,36,36,2038.8354077985023,2040.8352429063489,left,1,4,0.48341374231677037,C15T02,2022-10-06_14h45.31.035,t1_Paradigm,2021.1.4,60.017732749276476,
N,left,Pretarget,0,37,37,37,2042.335368500273,2044.335249161988,left,1,4,0.823006240556424,C15T02,2022-10-06_14h45.31.035,t1_Paradigm,2021.1.4,60.017732749276476,
Z,left,Pretarget,0,38,38,38,2045.835417422557,2047.8356686104053,left,1,4,0.9065690274146618,C15T02,2022-10-06_14h45.31.035,t1_Paradigm,2021.1.4,60.017732749276476,
P,left,Pretarget,0,39,39,39,2049.3351112171913,2051.336499647601,left,1,4,0.9577276193376747,C15T02,2022-10-06_14h45.31.035,t1_Paradigm,2021.1.4,60.017732749276476,
M,left,Distractor,0,40,40,40,2052.83529134743,2054.8357908359103,left,1,4,0.8182869245356414,C15T02,2022-10-06_14h45.31.035,t1_Paradigm,2021.1.4,60.017732749276476,
N,right,Target,0,41,41,41,2056.352361053501,2058.33546313682,left,0,4,0.6628189692673914,C15T02,2022-10-06_14h45.31.035,t1_Paradigm,2021.1.4,60.017732749276476,
Z,right,Target,0,42,42,42,2059.8355579337695,2061.8359165902366,left,0,4,0.36240086821999284,C15T02,2022-10-06_14h45.31.035,t1_Paradigm,2021.1.4,60.017732749276476,
P,right,Target,0,43,43,43,2063.3352703349083,2065.3353595178232,left,0,4,0.6388464093761286,C15T02,2022-10-06_14h45.31.035,t1_Paradigm,2021.1.4,60.017732749276476,
X,left,Pretarget,0,44,44,44,2066.835383096761,2068.83530193389,left,1,4,0.5310393434592697,C15T02,2022-10-06_14h45.31.035,t1_Paradigm,2021.1.4,60.017732749276476,
Z,left,Lure,0,45,45,45,2070.335285412595,2072.33519751289,left,1,4,0.9670453090911906,C15T02,2022-10-06_14h45.31.035,t1_Paradigm,2021.1.4,60.017732749276476,
R,left,Pretarget,0,46,46,46,2073.8354581643907,2075.8354058736913,left,1,4,0.8588353160484985,C15T02,2022-10-06_14h45.31.035,t1_Paradigm,2021.1.4,60.017732749276476,
K,left,Distractor,0,47,47,47,2077.3351654327016,2079.3353729914998,left,1,4,0.6227957303854055,C15T02,2022-10-06_14h45.31.035,t1_Paradigm,2021.1.4,60.017732749276476,
X,right,Target,0,48,48,48,2080.8354607308065,2082.83541293133,right,1,4,0.7387842058997194,C15T02,2022-10-06_14h45.31.035,t1_Paradigm,2021.1.4,60.017732749276476,
B,left,Distractor,0,49,49,49,2084.3351574126573,2086.335265522881,left,1,4,0.6151439646419021,C15T02,2022-10-06_14h45.31.035,t1_Paradigm,2021.1.4,60.017732749276476,
R,right,Target,0,50,50,50,2087.8354905653796,2089.836911075974,left,0,4,1.4012913557708089,C15T02,2022-10-06_14h45.31.035,t1_Paradigm,2021.1.4,60.017732749276476,
Y,left,Pretarget,0,51,51,51,2091.3352777133514,2093.335334174477,left,1,4,0.8630076649169496,C15T02,2022-10-06_14h45.31.035,t1_Paradigm,2021.1.4,60.017732749276476,
W,left,Pretarget,0,52,52,52,2094.8354045904816,2096.835237131916,left,1,4,0.45084690084695467,C15T02,2022-10-06_14h45.31.035,t1_Paradigm,2021.1.4,60.017732749276476,
Z,left,Distractor,0,53,53,53,2098.335281883774,2100.3355988360054,left,1,4,0.6307041376057896,C15T02,2022-10-06_14h45.31.035,t1_Paradigm,2021.1.4,60.017732749276476,
Q,left,Distractor,0,54,54,54,2101.8356140740907,2103.8352467559707,left,1,4,0.5069801670688321,C15T02,2022-10-06_14h45.31.035,t1_Paradigm,2021.1.4,60.017732749276476,
Y,right,Target,0,55,55,55,2105.335239217129,2107.3351721695435,right,1,4,0.8151523696542426,C15T02,2022-10-06_14h45.31.035,t1_Paradigm,2021.1.4,60.017732749276476,
W,right,Target,0,56,56,56,2108.835315728371,2110.8351104151843,right,1,4,0.6751265322673135,C15T02,2022-10-06_14h45.31.035,t1_Paradigm,2021.1.4,60.017732749276476,
H,left,Pretarget,0,57,57,57,2112.335220610621,2114.3360441089717,left,1,4,0.48606420720534516,C15T02,2022-10-06_14h45.31.035,t1_Paradigm,2021.1.4,60.017732749276476,
M,left,Distractor,0,58,58,58,2115.8353994576537,2117.8357151266755,left,1,4,0.6830031801073346,C15T02,2022-10-06_14h45.31.035,t1_Paradigm,2021.1.4,60.017732749276476,
R,left,Pretarget,0,59,59,59,2119.3352507659947,2121.3352465955722,left,1,4,0.5586979166146193,C15T02,2022-10-06_14h45.31.035,t1_Paradigm,2021.1.4,60.017732749276476,
J,left,Distractor,0,60,60,60,2122.8352400191325,2124.83520280612,left,1,4,0.40303106420469703,C15T02,2022-10-06_14h45.31.035,t1_Paradigm,2021.1.4,60.017732749276476,
H,right,Target,0,61,61,61,2126.335326154429,2128.335276109341,left,0,4,0.454897345010977,C15T02,2022-10-06_14h45.31.035,t1_Paradigm,2021.1.4,60.017732749276476,
Z,left,Distractor,0,62,62,62,2129.8353625654418,2131.8352201294183,left,1,4,0.39478453183255624,C15T02,2022-10-06_14h45.31.035,t1_Paradigm,2021.1.4,60.017732749276476,
R,right,Target,0,63,63,63,2133.33547500649,2135.3352401795346,right,1,4,0.5432724804304598,C15T02,2022-10-06_14h45.31.035,t1_Paradigm,2021.1.4,60.017732749276476,
J,left,Pretarget,0,0,0,0,2156.6412678217457,2158.6351424312124,left,1,4,0.42709537343034754,C15T02,2022-10-06_14h45.31.035,t1_Paradigm,2021.1.4,60.017732749276476,
G,left,Pretarget,0,1,1,1,2160.1352725163597,2162.1354957944495,left,1,4,0.6706086798076285,C15T02,2022-10-06_14h45.31.035,t1_Paradigm,2021.1.4,60.017732749276476,
Z,left,Distractor,0,2,2,2,2163.6352174988424,2165.635574551303,left,1,4,0.994521025193535,C15T02,2022-10-06_14h45.31.035,t1_Paradigm,2021.1.4,60.017732749276476,
F,left,Distractor,0,3,3,3,2167.1351214186907,2169.1351079450105,left,1,4,1.1111446883696772,C15T02,2022-10-06_14h45.31.035,t1_Paradigm,2021.1.4,60.017732749276476,
J,right,Target,0,4,4,4,2170.635129599137,2172.6349380804313,right,1,4,0.4592477389087435,C15T02,2022-10-06_14h45.31.035,t1_Paradigm,2021.1.4,60.017732749276476,
G,right,Target,0,5,5,5,2174.1350325565763,2176.135495473649,right,1,4,0.7828123350882379,C15T02,2022-10-06_14h45.31.035,t1_Paradigm,2021.1.4,60.017732749276476,
H,left,Distractor,0,6,6,6,2177.6352191028527,2179.635187664273,left,1,4,0.770911228031764,C15T02,2022-10-06_14h45.31.035,t1_Paradigm,2021.1.4,60.017732749276476,
P,left,Distractor,0,7,7,7,2181.13532961909,2183.1351939199085,left,1,4,0.5508440457088,C15T02,2022-10-06_14h45.31.035,t1_Paradigm,2021.1.4,60.017732749276476,
G,left,Lure,0,8,8,8,2184.635371162931,2186.635281980016,left,1,4,0.506907345046784,C15T02,2022-10-06_14h45.31.035,t1_Paradigm,2021.1.4,60.017732749276476,
S,left,Distractor,0,9,9,9,2188.1351958447194,2190.135314541403,left,1,4,0.49470404264866374,C15T02,2022-10-06_14h45.31.035,t1_Paradigm,2021.1.4,60.017732749276476,
R,left,Pretarget,0,10,10,10,2191.6352386717663,2193.6354696491,left,1,4,0.49891103811751236,C15T02,2022-10-06_14h45.31.035,t1_Paradigm,2021.1.4,60.017732749276476,
T,left,Pretarget,0,11,11,11,2195.1353187118293,2197.1355532179805,left,1,4,0.5504799356094736,C15T02,2022-10-06_14h45.31.035,t1_Paradigm,2021.1.4,60.017732749276476,
X,left,Distractor,0,12,12,12,2198.6351950427124,2200.6352130076193,left,1,4,0.6508482482131512,C15T02,2022-10-06_14h45.31.035,t1_Paradigm,2021.1.4,60.017732749276476,
F,left,Pretarget,0,13,13,13,2202.1355127969473,2204.135763663995,left,1,4,0.8305344975888147,C15T02,2022-10-06_14h45.31.035,t1_Paradigm,2021.1.4,60.017732749276476,
R,right,Target,0,14,14,14,2205.635342611564,2207.6353451779796,left,0,4,0.6429385577830544,C15T02,2022-10-06_14h45.31.035,t1_Paradigm,2021.1.4,60.017732749276476,
T,right,Target,0,15,15,15,2209.1351185314743,2211.1351807670326,right,1,4,0.758747384261369,C15T02,2022-10-06_14h45.31.035,t1_Paradigm,2021.1.4,60.017732749276476,
C,left,Distractor,0,16,16,16,2212.6352386717663,2214.6352011379495,left,1,4,0.7470381167113374,C15T02,2022-10-06_14h45.31.035,t1_Paradigm,2021.1.4,60.017732749276476,
F,right,Target,0,17,17,17,2216.1351198146804,2218.1351759550053,right,1,4,0.8470740785996895,C15T02,2022-10-06_14h45.31.035,t1_Paradigm,2021.1.4,60.017732749276476,
M,left,Distractor,0,18,18,18,2219.6351379399857,2221.6350128272643,left,1,4,0.45105381804023637,C15T02,2022-10-06_14h45.31.035,t1_Paradigm,2021.1.4,60.017732749276476,
N,left,Distractor,0,19,19,19,2223.1355256290226,2225.1351304011405,left,1,4,0.6310897414296051,C15T02,2022-10-06_14h45.31.035,t1_Paradigm,2021.1.4,60.017732749276476,
R,left,Lure,0,20,20,20,2226.63520274196,2228.6352223108697,left,1,4,0.4270527067819785,C15T02,2022-10-06_14h45.31.035,t1_Paradigm,2021.1.4,60.017732749276476,
F,right,Target,0,21,21,21,2230.13530844617,2232.1351932783036,right,1,4,0.6069853319750109,C15T02,2022-10-06_14h45.31.035,t1_Paradigm,2021.1.4,60.017732749276476,
P,left,Distractor,0,22,22,22,2233.635065438768,2235.6350843660766,left,1,4,0.4030041168516618,C15T02,2022-10-06_14h45.31.035,t1_Paradigm,2021.1.4,60.017732749276476,
L,left,Pretarget,0,23,23,23,2237.1353138997983,2239.1353007469224,left,1,4,0.5989829298123368,C15T02,2022-10-06_14h45.31.035,t1_Paradigm,2021.1.4,60.017732749276476,
T,left,Distractor,0,24,24,24,2240.635315664211,2242.6352174988424,left,1,4,0.6832996010198258,C15T02,2022-10-06_14h45.31.035,t1_Paradigm,2021.1.4,60.017732749276476,
F,left,Distractor,0,25,25,25,2244.135222471272,2246.135085809685,right,0,4,0.5910908834848669,C15T02,2022-10-06_14h45.31.035,t1_Paradigm,2021.1.4,60.017732749276476,
V,left,Distractor,0,26,26,26,2247.6352434837936,2249.6352085163926,left,1,4,0.46677535433263984,C15T02,2022-10-06_14h45.31.035,t1_Paradigm,2021.1.4,60.017732749276476,
L,right,Target,0,27,27,27,2251.135300105321,2253.135087092891,right,1,4,0.7588670433506195,C15T02,2022-10-06_14h45.31.035,t1_Paradigm,2021.1.4,60.017732749276476,
S,left,Pretarget,0,28,28,28,2254.635077308434,2256.63721352796,left,1,4,0.9209454415504297,C15T02,2022-10-06_14h45.31.035,t1_Paradigm,2021.1.4,60.017732749276476,
W,left,Distractor,0,29,29,29,2258.1351358547727,2260.1351563860917,left,1,4,0.6069789159409993,C15T02,2022-10-06_14h45.31.035,t1_Paradigm,2021.1.4,60.017732749276476,
Q,left,Distractor,0,30,30,30,2261.6351729073867,2263.635162962528,left,1,4,0.5150926042661013,C15T02,2022-10-06_14h45.31.035,t1_Paradigm,2021.1.4,60.017732749276476,
L,right,Target,0,31,31,31,2265.135505739305,2267.135194240709,right,1,4,0.854926345498825,C15T02,2022-10-06_14h45.31.035,t1_Paradigm,2021.1.4,60.017732749276476,
S,right,Target,0,32,32,32,2268.6352749223734,2270.635122220694,right,1,4,1.0992474309387035,C15T02,2022-10-06_14h45.31.035,t1_Paradigm,2021.1.4,60.017732749276476,
Z,left,Pretarget,0,33,33,33,2272.1353793433773,2274.135295934895,left,1,4,0.5588615255619516,C15T02,2022-10-06_14h45.31.035,t1_Paradigm,2021.1.4,60.017732749276476,
F,left,Distractor,0,34,34,34,2275.635200817149,2277.635118371072,left,1,4,0.6268862747820094,C15T02,2022-10-06_14h45.31.035,t1_Paradigm,2021.1.4,60.017732749276476,
V,left,Distractor,0,35,35,35,2279.1349051982434,2281.1356443257064,left,1,4,0.6306139922853617,C15T02,2022-10-06_14h45.31.035,t1_Paradigm,2021.1.4,60.017732749276476,
M,left,Distractor,0,36,36,36,2282.635042982638,2284.6352540702537,left,1,4,0.6027703164618288,C15T02,2022-10-06_14h45.31.035,t1_Paradigm,2021.1.4,60.017732749276476,
Z,right,Target,0,37,37,37,2286.1352426817903,2288.1351342507623,right,1,4,1.3430699903001369,C15T02,2022-10-06_14h45.31.035,t1_Paradigm,2021.1.4,60.017732749276476,
H,left,Pretarget,0,38,38,38,2289.6353939398614,2291.635576476114,left,1,4,0.6106350946320163,C15T02,2022-10-06_14h45.31.035,t1_Paradigm,2021.1.4,60.017732749276476,
L,left,Distractor,0,39,39,39,2293.134935032813,2295.135083884874,right,0,4,1.0152573360173847,C15T02,2022-10-06_14h45.31.035,t1_Paradigm,2021.1.4,60.017732749276476,
G,left,Distractor,0,40,40,40,2296.6351526968683,2298.635374691752,left,1,4,0.5546086554277281,C15T02,2022-10-06_14h45.31.035,t1_Paradigm,2021.1.4,60.017732749276476,
K,left,Distractor,0,41,41,41,2300.13519616552,2302.1350790728466,left,1,4,0.49487887965733535,C15T02,2022-10-06_14h45.31.035,t1_Paradigm,2021.1.4,60.017732749276476,
H,right,Target,0,42,42,42,2303.6350320753736,2305.635056777115,left,0,4,0.5790210346567619,C15T02,2022-10-06_14h45.31.035,t1_Paradigm,2021.1.4,60.017732749276476,
B,left,Distractor,0,43,43,43,2307.135083243269,2309.1353430927666,left,1,4,0.4387141748557042,C15T02,2022-10-06_14h45.31.035,t1_Paradigm,2021.1.4,60.017732749276476,
Z,left,Distractor,0,44,44,44,2310.6350141104704,2312.635170982576,left,1,4,0.5869198178261286,C15T02,2022-10-06_14h45.31.035,t1_Paradigm,2021.1.4,60.017732749276476,
T,left,Pretarget,0,45,45,45,2314.1353790225767,2316.13507618563,left,1,4,0.6070549459764152,C15T02,2022-10-06_14h45.31.035,t1_Paradigm,2021.1.4,60.017732749276476,
H,right,Target,0,46,46,46,2317.6351238247044,2319.635272676762,left,0,4,0.706865063362784,C15T02,2022-10-06_14h45.31.035,t1_Paradigm,2021.1.4,60.017732749276476,
F,left,Distractor,0,47,47,47,2321.135179804627,2323.1351217394913,left,1,4,0.6311009694945824,C15T02,2022-10-06_14h45.31.035,t1_Paradigm,2021.1.4,60.017732749276476,
R,left,Distractor,0,48,48,48,2324.6350859700833,2326.6350121856594,left,1,4,0.8591099224322534,C15T02,2022-10-06_14h45.31.035,t1_Paradigm,2021.1.4,60.017732749276476,
T,right,Target,0,49,49,49,2328.135224396083,2330.1350877344958,right,1,4,0.5750430917105405,C15T02,2022-10-06_14h45.31.035,t1_Paradigm,2021.1.4,60.017732749276476,
H,right,Target,0,50,50,50,2331.6351603961157,2333.635250541436,right,1,4,0.7068570433148125,C15T02,2022-10-06_14h45.31.035,t1_Paradigm,2021.1.4,60.017732749276476,
Y,left,Pretarget,0,51,51,51,2335.1350643159603,2337.1351194938798,left,1,4,0.6630570042434556,C15T02,2022-10-06_14h45.31.035,t1_Paradigm,2021.1.4,60.017732749276476,
H,left,Distractor,0,52,52,52,2338.6350490778714,2340.635067363579,left,1,4,0.7311670867566136,C15T02,2022-10-06_14h45.31.035,t1_Paradigm,2021.1.4,60.017732749276476,
S,left,Distractor,0,53,53,53,2342.1351567068923,2344.135463714265,left,1,4,0.5107534384369501,C15T02,2022-10-06_14h45.31.035,t1_Paradigm,2021.1.4,60.017732749276476,
Q,left,Distractor,0,54,54,54,2345.635112275835,2347.6351414688033,left,1,4,0.6749042165865831,C15T02,2022-10-06_14h45.31.035,t1_Paradigm,2021.1.4,60.017732749276476,
Y,right,Target,0,55,55,55,2349.135161198119,2351.135244606601,right,1,4,0.7107336128792667,C15T02,2022-10-06_14h45.31.035,t1_Paradigm,2021.1.4,60.017732749276476,
R,left,Distractor,0,56,56,56,2352.635214611626,2354.63514596003,left,1,4,0.7794663717868389,C15T02,2022-10-06_14h45.31.035,t1_Paradigm,2021.1.4,60.017732749276476,
H,left,Pretarget,0,57,57,57,2356.134920596731,2358.135098320956,left,1,4,0.6389859581831843,C15T02,2022-10-06_14h45.31.035,t1_Paradigm,2021.1.4,60.017732749276476,
J,left,Distractor,0,58,58,58,2359.635114842251,2361.635307323362,left,1,4,0.5149193712677516,C15T02,2022-10-06_14h45.31.035,t1_Paradigm,2021.1.4,60.017732749276476,
V,left,Distractor,0,59,59,59,2363.1352545514565,2365.135072015204,left,1,4,0.5990525438137411,C15T02,2022-10-06_14h45.31.035,t1_Paradigm,2021.1.4,60.017732749276476,
Y,left,Lure,0,60,60,60,2366.63524637101,2368.63505741872,left,1,4,0.8911365335879964,C15T02,2022-10-06_14h45.31.035,t1_Paradigm,2021.1.4,60.017732749276476,
H,right,Target,0,61,61,61,2370.135061428744,2372.135220546461,right,1,4,0.7186641554289963,C15T02,2022-10-06_14h45.31.035,t1_Paradigm,2021.1.4,60.017732749276476,
L,left,Distractor,0,62,62,62,2373.6352235940794,2375.6351052181963,left,1,4,0.7229269704221224,C15T02,2022-10-06_14h45.31.035,t1_Paradigm,2021.1.4,60.017732749276476,
P,left,Distractor,0,63,63,63,2377.1350749024205,2379.1355631628394,left,1,4,0.5023577331994602,C15T02,2022-10-06_14h45.31.035,t1_Paradigm,2021.1.4,60.017732749276476,
