Currentstep,EDround.thisRepN,EDround.thisTrialN,EDround.thisN,EDround.thisIndex,question.started,EDclick.clicked_name,EDleftbutton.wasclicked,EDrightbutton.wasclicked,EDleftbutton.value,EDrightbutton.value,EDleftbutton.nback,EDrightbutton.nback,Participant,date,expName,psychopyVersion,frameRate,
,,,,,,,,,,,,,C18D18,2022-10-20_12h22.58.609,t1_Paradigm,2021.1.4,60.28887402339225,
0,0,0,0,0,3048.4676756743575,EDleftbutton,1,0,2.00,1.00,2,3,C18D18,2022-10-20_12h22.58.609,t1_Paradigm,2021.1.4,60.28887402339225,
1,0,1,1,1,3080.0415156224044,EDleftbutton,1,0,2.00,1.50,2,3,C18D18,2022-10-20_12h22.58.609,t1_Paradigm,2021.1.4,60.28887402339225,
2,0,2,2,2,3117.6106417066185,EDrightbutton,0,1,2.00,1.75,2,3,C18D18,2022-10-20_12h22.58.609,t1_Paradigm,2021.1.4,60.28887402339225,
3,0,3,3,3,3120.8904236766975,EDleftbutton,1,0,2.00,1.62,2,3,C18D18,2022-10-20_12h22.58.609,t1_Paradigm,2021.1.4,60.28887402339225,
4,0,4,4,4,3125.9753271217924,EDleftbutton,1,0,2.00,1.68,2,3,C18D18,2022-10-20_12h22.58.609,t1_Paradigm,2021.1.4,60.28887402339225,
5,0,5,5,5,3134.665909146308,EDleftbutton,1,0,2.00,1.71,2,3,C18D18,2022-10-20_12h22.58.609,t1_Paradigm,2021.1.4,60.28887402339225,
0,0,0,0,0,3136.919577195891,EDrightbutton,0,1,2.00,1.00,3,4,C18D18,2022-10-20_12h22.58.609,t1_Paradigm,2021.1.4,60.28887402339225,
1,0,1,1,1,3148.399125750526,EDleftbutton,1,0,2.00,0.50,3,4,C18D18,2022-10-20_12h22.58.609,t1_Paradigm,2021.1.4,60.28887402339225,
2,0,2,2,2,3152.5510992599884,EDleftbutton,1,0,2.00,0.75,3,4,C18D18,2022-10-20_12h22.58.609,t1_Paradigm,2021.1.4,60.28887402339225,
3,0,3,3,3,3154.198379436857,EDleftbutton,1,0,2.00,0.88,3,4,C18D18,2022-10-20_12h22.58.609,t1_Paradigm,2021.1.4,60.28887402339225,
4,0,4,4,4,3156.547047210508,EDleftbutton,1,0,2.00,0.94,3,4,C18D18,2022-10-20_12h22.58.609,t1_Paradigm,2021.1.4,60.28887402339225,
5,0,5,5,5,3158.033828245243,EDleftbutton,1,0,2.00,0.97,3,4,C18D18,2022-10-20_12h22.58.609,t1_Paradigm,2021.1.4,60.28887402339225,
0,0,0,0,0,3159.683733544429,EDleftbutton,1,0,1.00,2.00,1,2,C18D18,2022-10-20_12h22.58.609,t1_Paradigm,2021.1.4,60.28887402339225,
1,0,1,1,1,3170.767058002297,EDrightbutton,0,1,0.50,2.00,1,2,C18D18,2022-10-20_12h22.58.609,t1_Paradigm,2021.1.4,60.28887402339225,
2,0,2,2,2,3182.0958995736437,EDrightbutton,0,1,0.75,2.00,1,2,C18D18,2022-10-20_12h22.58.609,t1_Paradigm,2021.1.4,60.28887402339225,
3,0,3,3,3,3184.5149557871046,EDrightbutton,0,1,0.88,2.00,1,2,C18D18,2022-10-20_12h22.58.609,t1_Paradigm,2021.1.4,60.28887402339225,
4,0,4,4,4,3186.147308086627,EDrightbutton,0,1,0.94,2.00,1,2,C18D18,2022-10-20_12h22.58.609,t1_Paradigm,2021.1.4,60.28887402339225,
5,0,5,5,5,3191.8536758129485,EDleftbutton,1,0,0.97,2.00,1,2,C18D18,2022-10-20_12h22.58.609,t1_Paradigm,2021.1.4,60.28887402339225,
0,0,0,0,0,3201.519904157263,EDrightbutton,0,1,2.00,1.00,2,4,C18D18,2022-10-20_12h22.58.609,t1_Paradigm,2021.1.4,60.28887402339225,
1,0,1,1,1,3212.56746240519,EDleftbutton,1,0,2.00,0.50,2,4,C18D18,2022-10-20_12h22.58.609,t1_Paradigm,2021.1.4,60.28887402339225,
2,0,2,2,2,3215.0860390838934,EDleftbutton,1,0,2.00,0.75,2,4,C18D18,2022-10-20_12h22.58.609,t1_Paradigm,2021.1.4,60.28887402339225,
3,0,3,3,3,3221.5635284108575,EDleftbutton,1,0,2.00,0.88,2,4,C18D18,2022-10-20_12h22.58.609,t1_Paradigm,2021.1.4,60.28887402339225,
4,0,4,4,4,3226.853690569871,EDrightbutton,0,1,2.00,0.94,2,4,C18D18,2022-10-20_12h22.58.609,t1_Paradigm,2021.1.4,60.28887402339225,
5,0,5,5,5,3229.003656179877,EDleftbutton,1,0,2.00,0.91,2,4,C18D18,2022-10-20_12h22.58.609,t1_Paradigm,2021.1.4,60.28887402339225,
0,0,0,0,0,3233.2954242734704,EDleftbutton,1,0,2.00,1.00,1,4,C18D18,2022-10-20_12h22.58.609,t1_Paradigm,2021.1.4,60.28887402339225,
1,0,1,1,1,3262.5376781894593,EDleftbutton,1,0,2.00,1.50,1,4,C18D18,2022-10-20_12h22.58.609,t1_Paradigm,2021.1.4,60.28887402339225,
2,0,2,2,2,3264.9162315522553,EDleftbutton,1,0,2.00,1.75,1,4,C18D18,2022-10-20_12h22.58.609,t1_Paradigm,2021.1.4,60.28887402339225,
3,0,3,3,3,3272.41813326627,EDleftbutton,1,0,2.00,1.88,1,4,C18D18,2022-10-20_12h22.58.609,t1_Paradigm,2021.1.4,60.28887402339225,
4,0,4,4,4,3277.690335007035,EDrightbutton,0,1,2.00,1.94,1,4,C18D18,2022-10-20_12h22.58.609,t1_Paradigm,2021.1.4,60.28887402339225,
5,0,5,5,5,3279.903129679733,EDleftbutton,1,0,2.00,1.91,1,4,C18D18,2022-10-20_12h22.58.609,t1_Paradigm,2021.1.4,60.28887402339225,
0,0,0,0,0,3282.3862234167755,EDrightbutton,0,1,1.00,2.00,1,3,C18D18,2022-10-20_12h22.58.609,t1_Paradigm,2021.1.4,60.28887402339225,
1,0,1,1,1,3293.6524043465033,EDrightbutton,0,1,1.50,2.00,1,3,C18D18,2022-10-20_12h22.58.609,t1_Paradigm,2021.1.4,60.28887402339225,
2,0,2,2,2,3303.636064940598,EDrightbutton,0,1,1.75,2.00,1,3,C18D18,2022-10-20_12h22.58.609,t1_Paradigm,2021.1.4,60.28887402339225,
3,0,3,3,3,3305.066748620826,EDrightbutton,0,1,1.88,2.00,1,3,C18D18,2022-10-20_12h22.58.609,t1_Paradigm,2021.1.4,60.28887402339225,
4,0,4,4,4,3306.5675830267137,EDleftbutton,1,0,1.94,2.00,1,3,C18D18,2022-10-20_12h22.58.609,t1_Paradigm,2021.1.4,60.28887402339225,
5,0,5,5,5,3307.96856044617,EDrightbutton,0,1,1.91,2.00,1,3,C18D18,2022-10-20_12h22.58.609,t1_Paradigm,2021.1.4,60.28887402339225,
