Letter,CorrAnswer,Stimulus,nback_run.thisRepN,nback_run.thisTrialN,nback_run.thisN,nback_run.thisIndex,fixcross.started,nback_trial.started,trial_resp.keys,trial_resp.corr,currentlevel,trial_resp.rt,Participant,date,expName,psychopyVersion,frameRate,
H,left,Distractor,0,0,0,0,277.8312661924865,279.7795333486283,None,0,1,,C18D18,2022-10-20_12h22.58.609,t1_Paradigm,2021.1.4,60.28887402339225,
Q,left,Pretarget,0,1,1,1,281.2778924466693,283.279704336077,left,1,1,0.635219948249869,C18D18,2022-10-20_12h22.58.609,t1_Paradigm,2021.1.4,60.28887402339225,
Q,right,Target,0,2,2,2,284.7781888676691,286.77782443666365,right,1,1,0.7850306109176017,C18D18,2022-10-20_12h22.58.609,t1_Paradigm,2021.1.4,60.28887402339225,
T,left,Distractor,0,3,3,3,288.27768969984027,290.27976272202795,left,1,1,0.5952691977727227,C18D18,2022-10-20_12h22.58.609,t1_Paradigm,2021.1.4,60.28887402339225,
Q,left,Lure,0,4,4,4,291.7778764065588,293.7776787925395,left,1,1,1.0973473527701572,C18D18,2022-10-20_12h22.58.609,t1_Paradigm,2021.1.4,60.28887402339225,
L,left,Distractor,0,5,5,5,295.27784945920575,297.27886030613445,left,1,1,0.7962256366736256,C18D18,2022-10-20_12h22.58.609,t1_Paradigm,2021.1.4,60.28887402339225,
V,left,Pretarget,0,6,6,6,298.77781160455197,300.77965589496307,left,1,1,0.7672809596406296,C18D18,2022-10-20_12h22.58.609,t1_Paradigm,2021.1.4,60.28887402339225,
V,right,Target,0,7,7,7,302.2777487273561,304.277870632126,right,1,1,0.5652905760216527,C18D18,2022-10-20_12h22.58.609,t1_Paradigm,2021.1.4,60.28887402339225,
K,left,Distractor,0,8,8,8,305.77786389528774,307.7797694588662,left,1,1,0.6151348587591201,C18D18,2022-10-20_12h22.58.609,t1_Paradigm,2021.1.4,60.28887402339225,
G,left,Pretarget,0,9,9,9,309.2778343815007,311.27957922330825,right,0,1,0.5393787606153637,C18D18,2022-10-20_12h22.58.609,t1_Paradigm,2021.1.4,60.28887402339225,
G,right,Target,0,10,10,10,312.7778167374199,314.77782443666365,right,1,1,0.6251567117287777,C18D18,2022-10-20_12h22.58.609,t1_Paradigm,2021.1.4,60.28887402339225,
G,right,Target,0,11,11,11,316.27759827126283,318.2780002360814,right,1,1,0.5169393055257387,C18D18,2022-10-20_12h22.58.609,t1_Paradigm,2021.1.4,60.28887402339225,
P,left,Pretarget,0,12,12,12,319.7777901108493,321.77869477233617,left,1,1,0.48825319489696994,C18D18,2022-10-20_12h22.58.609,t1_Paradigm,2021.1.4,60.28887402339225,
P,right,Target,0,13,13,13,323.27816609072033,325.27766307326965,right,1,1,0.9573025432182476,C18D18,2022-10-20_12h22.58.609,t1_Paradigm,2021.1.4,60.28887402339225,
G,left,Lure,0,14,14,14,326.77775674744043,328.7781490882044,left,1,1,0.8007790996343829,C18D18,2022-10-20_12h22.58.609,t1_Paradigm,2021.1.4,60.28887402339225,
Y,left,Distractor,0,15,15,15,330.27814459695946,332.2795551631716,left,1,1,0.435361935175024,C18D18,2022-10-20_12h22.58.609,t1_Paradigm,2021.1.4,60.28887402339225,
B,left,Distractor,0,16,16,16,333.7946864289115,335.7795888473629,left,1,1,0.5353536584880203,C18D18,2022-10-20_12h22.58.609,t1_Paradigm,2021.1.4,60.28887402339225,
T,left,Pretarget,0,17,17,17,337.2781330480939,339.2782302511041,left,1,1,0.4927543670637533,C18D18,2022-10-20_12h22.58.609,t1_Paradigm,2021.1.4,60.28887402339225,
T,right,Target,0,18,18,18,340.77821613580454,342.7778045469313,right,1,1,0.6252372330054641,C18D18,2022-10-20_12h22.58.609,t1_Paradigm,2021.1.4,60.28887402339225,
S,left,Distractor,0,19,19,19,344.2782430832158,346.2794569977559,left,1,1,0.4673898398177698,C18D18,2022-10-20_12h22.58.609,t1_Paradigm,2021.1.4,60.28887402339225,
T,left,Lure,0,20,20,20,347.7778459303663,349.77919041138375,left,1,1,0.5359230819740333,C18D18,2022-10-20_12h22.58.609,t1_Paradigm,2021.1.4,60.28887402339225,
J,left,Distractor,0,21,21,21,351.278264256136,353.27969952404965,left,1,1,0.6192045523202978,C18D18,2022-10-20_12h22.58.609,t1_Paradigm,2021.1.4,60.28887402339225,
P,left,Distractor,0,22,22,22,354.77792452683207,356.7780072937603,left,1,1,0.4810582486097701,C18D18,2022-10-20_12h22.58.609,t1_Paradigm,2021.1.4,60.28887402339225,
F,left,Distractor,0,23,23,23,358.2778587624198,360.2797062608879,left,1,1,0.5311944611603394,C18D18,2022-10-20_12h22.58.609,t1_Paradigm,2021.1.4,60.28887402339225,
L,left,Distractor,0,24,24,24,361.777824115823,363.77803584514186,left,1,1,0.39299330033827573,C18D18,2022-10-20_12h22.58.609,t1_Paradigm,2021.1.4,60.28887402339225,
W,left,Pretarget,0,25,25,25,365.2776621108642,367.2796591030201,left,1,1,0.3634265883010812,C18D18,2022-10-20_12h22.58.609,t1_Paradigm,2021.1.4,60.28887402339225,
W,right,Target,0,26,26,26,368.77768071735045,370.7778468927718,right,1,1,0.4170204042457044,C18D18,2022-10-20_12h22.58.609,t1_Paradigm,2021.1.4,60.28887402339225,
V,left,Distractor,0,27,27,27,372.27778914844384,374.2775844768039,left,1,1,0.5172434257692657,C18D18,2022-10-20_12h22.58.609,t1_Paradigm,2021.1.4,60.28887402339225,
W,left,Lure,0,28,28,28,375.7778841058025,377.77812984009506,left,1,1,0.6331536628422327,C18D18,2022-10-20_12h22.58.609,t1_Paradigm,2021.1.4,60.28887402339225,
R,left,Pretarget,0,29,29,29,379.2778148125508,381.28044763422804,left,1,1,0.5865286277257837,C18D18,2022-10-20_12h22.58.609,t1_Paradigm,2021.1.4,60.28887402339225,
R,right,Target,0,30,30,30,382.7777445569518,384.77812085766345,right,1,1,0.54472492513014,C18D18,2022-10-20_12h22.58.609,t1_Paradigm,2021.1.4,60.28887402339225,
G,left,Distractor,0,31,31,31,386.2777294792468,388.2774908026331,left,1,1,0.40542501769959927,C18D18,2022-10-20_12h22.58.609,t1_Paradigm,2021.1.4,60.28887402339225,
R,left,Lure,0,32,32,32,389.7777153639472,391.777550471772,left,1,1,0.6012778183212504,C18D18,2022-10-20_12h22.58.609,t1_Paradigm,2021.1.4,60.28887402339225,
S,left,Distractor,0,33,33,33,393.27781834139023,395.2775581710157,left,1,1,0.4134678434347734,C18D18,2022-10-20_12h22.58.609,t1_Paradigm,2021.1.4,60.28887402339225,
R,left,Lure,0,34,34,34,396.77798997046193,398.77811797044706,left,1,1,0.6408262831391767,C18D18,2022-10-20_12h22.58.609,t1_Paradigm,2021.1.4,60.28887402339225,
P,left,Pretarget,0,35,35,35,400.27768039656803,402.27805316844024,left,1,1,0.5007554885814898,C18D18,2022-10-20_12h22.58.609,t1_Paradigm,2021.1.4,60.28887402339225,
P,right,Target,0,36,36,36,403.77773782011354,405.77808428619755,right,1,1,0.6169284624629654,C18D18,2022-10-20_12h22.58.609,t1_Paradigm,2021.1.4,60.28887402339225,
Y,left,Pretarget,0,37,37,37,407.27794505818747,409.27757966471836,left,1,1,0.5414562740479596,C18D18,2022-10-20_12h22.58.609,t1_Paradigm,2021.1.4,60.28887402339225,
Y,right,Target,0,38,38,38,410.7777330080862,412.77781417098595,right,1,1,0.4973203412955627,C18D18,2022-10-20_12h22.58.609,t1_Paradigm,2021.1.4,60.28887402339225,
J,left,Distractor,0,39,39,39,414.27811925363494,416.27945892256685,left,1,1,0.5475858369609341,C18D18,2022-10-20_12h22.58.609,t1_Paradigm,2021.1.4,60.28887402339225,
Y,left,Lure,0,40,40,40,417.7777917148196,419.7779174692114,left,1,1,0.45704943040618673,C18D18,2022-10-20_12h22.58.609,t1_Paradigm,2021.1.4,60.28887402339225,
T,left,Distractor,0,41,41,41,421.27789790026145,423.2775260907947,left,1,1,0.60541552194627,C18D18,2022-10-20_12h22.58.609,t1_Paradigm,2021.1.4,60.28887402339225,
V,left,Distractor,0,42,42,42,424.77783502312377,426.7778603664483,left,1,1,0.4651849679648876,C18D18,2022-10-20_12h22.58.609,t1_Paradigm,2021.1.4,60.28887402339225,
N,left,Pretarget,0,43,43,43,428.2777400657069,430.27900819585193,left,1,1,0.4038826019386761,C18D18,2022-10-20_12h22.58.609,t1_Paradigm,2021.1.4,60.28887402339225,
N,right,Target,0,44,44,44,431.77773621608503,433.77792998048244,right,1,1,0.5369419489870779,C18D18,2022-10-20_12h22.58.609,t1_Paradigm,2021.1.4,60.28887402339225,
N,right,Target,0,45,45,45,435.277782732388,437.2779925368377,right,1,1,0.5569291939027607,C18D18,2022-10-20_12h22.58.609,t1_Paradigm,2021.1.4,60.28887402339225,
X,left,Distractor,0,46,46,46,438.77803424111335,440.77961002028314,left,1,1,0.41521140205441043,C18D18,2022-10-20_12h22.58.609,t1_Paradigm,2021.1.4,60.28887402339225,
Z,left,Distractor,0,47,47,47,442.2776637148345,444.27961419074563,left,1,1,0.563398165279068,C18D18,2022-10-20_12h22.58.609,t1_Paradigm,2021.1.4,60.28887402339225,
H,left,Pretarget,0,48,48,48,445.7775421309052,447.77946052659536,left,1,1,0.4555753454915248,C18D18,2022-10-20_12h22.58.609,t1_Paradigm,2021.1.4,60.28887402339225,
H,right,Target,0,49,49,49,449.27799157443224,451.2780926270643,right,1,1,0.5728313467116095,C18D18,2022-10-20_12h22.58.609,t1_Paradigm,2021.1.4,60.28887402339225,
K,left,Distractor,0,50,50,50,452.77813882252667,454.77939764939947,left,1,1,0.43167078791884705,C18D18,2022-10-20_12h22.58.609,t1_Paradigm,2021.1.4,60.28887402339225,
V,left,Pretarget,0,51,51,51,456.27818373480113,458.2781818099902,left,1,1,0.48467144108144566,C18D18,2022-10-20_12h22.58.609,t1_Paradigm,2021.1.4,60.28887402339225,
V,right,Target,0,52,52,52,459.77779684768757,461.7781394641497,right,1,1,0.4088191023329273,C18D18,2022-10-20_12h22.58.609,t1_Paradigm,2021.1.4,60.28887402339225,
R,left,Distractor,0,53,53,53,463.27778626122745,465.27772787527647,left,1,1,0.5252150335581973,C18D18,2022-10-20_12h22.58.609,t1_Paradigm,2021.1.4,60.28887402339225,
V,left,Lure,0,54,54,54,466.777318852779,468.7780082561658,left,1,1,0.5609433887293562,C18D18,2022-10-20_12h22.58.609,t1_Paradigm,2021.1.4,60.28887402339225,
Y,left,Distractor,0,55,55,55,470.2777281960589,472.2777888276032,left,1,1,0.5652617037994787,C18D18,2022-10-20_12h22.58.609,t1_Paradigm,2021.1.4,60.28887402339225,
Q,left,Distractor,0,56,56,56,473.7777929980657,475.7781583914766,left,1,1,0.5686243498930708,C18D18,2022-10-20_12h22.58.609,t1_Paradigm,2021.1.4,60.28887402339225,
Z,left,Pretarget,0,57,57,57,477.27775674744043,479.2781962461304,left,1,1,1.052763259736821,C18D18,2022-10-20_12h22.58.609,t1_Paradigm,2021.1.4,60.28887402339225,
Z,right,Target,0,58,58,58,480.77771311835386,482.77785106317606,right,1,1,0.6411749949329533,C18D18,2022-10-20_12h22.58.609,t1_Paradigm,2021.1.4,60.28887402339225,
B,left,Distractor,0,59,59,59,484.2780060105724,486.2785927572986,left,1,1,0.38837792264530435,C18D18,2022-10-20_12h22.58.609,t1_Paradigm,2021.1.4,60.28887402339225,
S,left,Pretarget,0,60,60,60,487.7778648576932,489.778085248603,left,1,1,0.4888120318646543,C18D18,2022-10-20_12h22.58.609,t1_Paradigm,2021.1.4,60.28887402339225,
S,right,Target,0,61,61,61,491.2778606872307,493.2778189830133,right,1,1,0.5411540786153637,C18D18,2022-10-20_12h22.58.609,t1_Paradigm,2021.1.4,60.28887402339225,
T,left,Distractor,0,62,62,62,494.77777086274,496.77775835141074,left,1,1,0.4973068675608374,C18D18,2022-10-20_12h22.58.609,t1_Paradigm,2021.1.4,60.28887402339225,
D,left,Distractor,0,63,63,63,498.278105459176,500.27942812559195,left,1,1,0.5476856063469313,C18D18,2022-10-20_12h22.58.609,t1_Paradigm,2021.1.4,60.28887402339225,
R,left,Distractor,0,0,0,0,510.42534168617567,512.4274310692563,None,0,1,,C18D18,2022-10-20_12h22.58.609,t1_Paradigm,2021.1.4,60.28887402339225,
V,left,Distractor,0,1,1,1,513.9277252446627,515.9279899062822,left,1,1,0.7868700893595815,C18D18,2022-10-20_12h22.58.609,t1_Paradigm,2021.1.4,60.28887402339225,
N,left,Pretarget,0,2,2,2,517.427758928854,519.4282552095247,left,1,1,0.8226901938323863,C18D18,2022-10-20_12h22.58.609,t1_Paradigm,2021.1.4,60.28887402339225,
N,right,Target,0,3,3,3,520.9277505880455,522.927922858682,right,1,1,0.570992830733303,C18D18,2022-10-20_12h22.58.609,t1_Paradigm,2021.1.4,60.28887402339225,
S,left,Distractor,0,4,4,4,524.4278817960294,526.4276771243894,left,1,1,0.5112479581148364,C18D18,2022-10-20_12h22.58.609,t1_Paradigm,2021.1.4,60.28887402339225,
N,left,Lure,0,5,5,5,527.9277951794793,529.9280431594234,left,1,1,0.38679540663724765,C18D18,2022-10-20_12h22.58.609,t1_Paradigm,2021.1.4,60.28887402339225,
Z,left,Distractor,0,6,6,6,531.4278144275886,533.4275462371879,left,1,1,0.45534340565791354,C18D18,2022-10-20_12h22.58.609,t1_Paradigm,2021.1.4,60.28887402339225,
L,left,Pretarget,0,7,7,7,534.9274981169146,536.9276614050614,left,1,1,0.5552619861555286,C18D18,2022-10-20_12h22.58.609,t1_Paradigm,2021.1.4,60.28887402339225,
L,right,Target,0,8,8,8,538.4278012747527,540.4281743674073,right,1,1,0.3988238758756779,C18D18,2022-10-20_12h22.58.609,t1_Paradigm,2021.1.4,60.28887402339225,
H,left,Distractor,0,9,9,9,541.9277788185864,543.9280091543915,left,1,1,0.4668265116051771,C18D18,2022-10-20_12h22.58.609,t1_Paradigm,2021.1.4,60.28887402339225,
L,left,Lure,0,10,10,10,545.4277894050465,547.4280033799587,left,1,1,0.4388519396306947,C18D18,2022-10-20_12h22.58.609,t1_Paradigm,2021.1.4,60.28887402339225,
X,left,Pretarget,0,11,11,11,548.9277820266434,550.9298874498345,left,1,1,0.3930253805592656,C18D18,2022-10-20_12h22.58.609,t1_Paradigm,2021.1.4,60.28887402339225,
X,right,Target,0,12,12,12,552.4278105779667,554.4278862872743,right,1,1,0.4151834922959097,C18D18,2022-10-20_12h22.58.609,t1_Paradigm,2021.1.4,60.28887402339225,
X,right,Target,0,13,13,13,555.927788442641,557.9277823474258,right,1,1,0.4191896670963615,C18D18,2022-10-20_12h22.58.609,t1_Paradigm,2021.1.4,60.28887402339225,
R,left,Distractor,0,14,14,14,559.4277701569372,561.4294441015227,left,1,1,0.40546575956977904,C18D18,2022-10-20_12h22.58.609,t1_Paradigm,2021.1.4,60.28887402339225,
T,left,Distractor,0,15,15,15,562.9280412346125,564.9278981569223,left,1,1,0.4591417007613927,C18D18,2022-10-20_12h22.58.609,t1_Paradigm,2021.1.4,60.28887402339225,
V,left,Pretarget,0,16,16,16,566.4275808837847,568.4293744874885,left,1,1,0.4456616027164273,C18D18,2022-10-20_12h22.58.609,t1_Paradigm,2021.1.4,60.28887402339225,
V,right,Target,0,17,17,17,569.9275844126241,571.927820522862,right,1,1,0.5790950048249215,C18D18,2022-10-20_12h22.58.609,t1_Paradigm,2021.1.4,60.28887402339225,
N,left,Distractor,0,18,18,18,573.4275125529966,575.428576973849,left,1,1,0.40631716791540384,C18D18,2022-10-20_12h22.58.609,t1_Paradigm,2021.1.4,60.28887402339225,
B,left,Distractor,0,19,19,19,576.9276501770364,578.9275471995934,left,1,1,0.5234961766982451,C18D18,2022-10-20_12h22.58.609,t1_Paradigm,2021.1.4,60.28887402339225,
V,left,Lure,0,20,20,20,580.4276986180921,582.4278728135978,left,1,1,0.47912317130248994,C18D18,2022-10-20_12h22.58.609,t1_Paradigm,2021.1.4,60.28887402339225,
P,left,Distractor,0,21,21,21,583.9278927032719,585.9275488036219,left,1,1,0.37146620609564707,C18D18,2022-10-20_12h22.58.609,t1_Paradigm,2021.1.4,60.28887402339225,
K,left,Pretarget,0,22,22,22,587.4277143374202,589.4282526430907,left,1,1,0.5666292825480923,C18D18,2022-10-20_12h22.58.609,t1_Paradigm,2021.1.4,60.28887402339225,
K,right,Target,0,23,23,23,590.9277656656923,592.9275327635114,right,1,1,0.45940572081599385,C18D18,2022-10-20_12h22.58.609,t1_Paradigm,2021.1.4,60.28887402339225,
J,left,Pretarget,0,24,24,24,594.427634778549,596.4278869288391,left,1,1,0.38314115157118067,C18D18,2022-10-20_12h22.58.609,t1_Paradigm,2021.1.4,60.28887402339225,
J,right,Target,0,25,25,25,597.9277108085807,599.9277515504509,right,1,1,0.4833500578533858,C18D18,2022-10-20_12h22.58.609,t1_Paradigm,2021.1.4,60.28887402339225,
H,left,Distractor,0,26,26,26,601.427544954,603.4279039313551,left,1,1,0.48692988679977134,C18D18,2022-10-20_12h22.58.609,t1_Paradigm,2021.1.4,60.28887402339225,
J,left,Lure,0,27,27,27,604.9279267083039,606.9275722221355,left,1,1,0.5552581364754587,C18D18,2022-10-20_12h22.58.609,t1_Paradigm,2021.1.4,60.28887402339225,
V,left,Distractor,0,28,28,28,608.4277438512072,610.4280085128266,left,1,1,0.5109746347879991,C18D18,2022-10-20_12h22.58.609,t1_Paradigm,2021.1.4,60.28887402339225,
Z,left,Pretarget,0,29,29,29,611.9277040717425,613.9275725429179,left,1,1,0.41925992275355384,C18D18,2022-10-20_12h22.58.609,t1_Paradigm,2021.1.4,60.28887402339225,
Z,right,Target,0,30,30,30,615.4277598912595,617.4279854150373,right,1,1,0.3590242231148295,C18D18,2022-10-20_12h22.58.609,t1_Paradigm,2021.1.4,60.28887402339225,
T,left,Distractor,0,31,31,31,618.9276838612277,620.9292904374306,left,1,1,0.39349599700653926,C18D18,2022-10-20_12h22.58.609,t1_Paradigm,2021.1.4,60.28887402339225,
Z,left,Lure,0,32,32,32,622.4277563624782,624.427409896336,left,1,1,0.8953704428276978,C18D18,2022-10-20_12h22.58.609,t1_Paradigm,2021.1.4,60.28887402339225,
F,left,Distractor,0,33,33,33,625.9277724025887,627.9280778060202,left,1,1,0.738811390241608,C18D18,2022-10-20_12h22.58.609,t1_Paradigm,2021.1.4,60.28887402339225,
Y,left,Pretarget,0,34,34,34,629.4278221268905,631.428049575421,left,1,1,0.47079803980886936,C18D18,2022-10-20_12h22.58.609,t1_Paradigm,2021.1.4,60.28887402339225,
Y,right,Target,0,35,35,35,632.9278352797264,634.9282102972502,right,1,1,0.47474518697708845,C18D18,2022-10-20_12h22.58.609,t1_Paradigm,2021.1.4,60.28887402339225,
Y,right,Target,0,36,36,36,636.4276809740113,638.4277804226149,right,1,1,0.575179296254646,C18D18,2022-10-20_12h22.58.609,t1_Paradigm,2021.1.4,60.28887402339225,
W,left,Distractor,0,37,37,37,639.9278599814861,641.9294072093326,left,1,1,0.41811369732022285,C18D18,2022-10-20_12h22.58.609,t1_Paradigm,2021.1.4,60.28887402339225,
Q,left,Distractor,0,38,38,38,643.4276479313849,645.4277826682082,left,1,1,0.5031425759661943,C18D18,2022-10-20_12h22.58.609,t1_Paradigm,2021.1.4,60.28887402339225,
P,left,Pretarget,0,39,39,39,646.9277162622311,648.9281438912149,left,1,1,0.4908334049396217,C18D18,2022-10-20_12h22.58.609,t1_Paradigm,2021.1.4,60.28887402339225,
P,right,Target,0,40,40,40,650.4279212546535,652.427573184541,right,1,1,0.4793794919969514,C18D18,2022-10-20_12h22.58.609,t1_Paradigm,2021.1.4,60.28887402339225,
J,left,Distractor,0,41,41,41,653.9275789589738,655.9275905078393,left,1,1,0.4834366743452847,C18D18,2022-10-20_12h22.58.609,t1_Paradigm,2021.1.4,60.28887402339225,
P,left,Lure,0,42,42,42,657.4276777660125,659.4276918812538,left,1,1,0.6472872344893403,C18D18,2022-10-20_12h22.58.609,t1_Paradigm,2021.1.4,60.28887402339225,
L,left,Distractor,0,43,43,43,660.9277191494475,662.9275763925398,left,1,1,0.6352404795470648,C18D18,2022-10-20_12h22.58.609,t1_Paradigm,2021.1.4,60.28887402339225,
Z,left,Distractor,0,44,44,44,664.4276379865478,666.4275555404602,left,1,1,0.4794353115139529,C18D18,2022-10-20_12h22.58.609,t1_Paradigm,2021.1.4,60.28887402339225,
F,left,Pretarget,0,45,45,45,667.9280678611831,669.9280912796967,left,1,1,0.8347083973931149,C18D18,2022-10-20_12h22.58.609,t1_Paradigm,2021.1.4,60.28887402339225,
F,right,Target,0,46,46,46,671.4277493047994,673.4280110792024,right,1,1,0.5028317188262008,C18D18,2022-10-20_12h22.58.609,t1_Paradigm,2021.1.4,60.28887402339225,
G,left,Pretarget,0,47,47,47,674.9277018261491,676.9274669990991,left,1,1,0.9713652176433243,C18D18,2022-10-20_12h22.58.609,t1_Paradigm,2021.1.4,60.28887402339225,
G,right,Target,0,48,48,48,678.4277361519635,680.4276614050614,right,1,1,0.5913342410349287,C18D18,2022-10-20_12h22.58.609,t1_Paradigm,2021.1.4,60.28887402339225,
V,left,Distractor,0,49,49,49,681.9277509088279,683.9282539262786,left,1,1,0.40258656203513965,C18D18,2022-10-20_12h22.58.609,t1_Paradigm,2021.1.4,60.28887402339225,
G,left,Lure,0,50,50,50,685.4277557208552,687.4286129036918,left,1,1,0.4222834811080247,C18D18,2022-10-20_12h22.58.609,t1_Paradigm,2021.1.4,60.28887402339225,
Q,left,Pretarget,0,51,51,51,688.927632853738,690.9286036004196,left,1,1,0.41042054566787556,C18D18,2022-10-20_12h22.58.609,t1_Paradigm,2021.1.4,60.28887402339225,
Q,right,Target,0,52,52,52,692.4277278110967,694.4276922020945,right,1,1,0.6232270880136639,C18D18,2022-10-20_12h22.58.609,t1_Paradigm,2021.1.4,60.28887402339225,
Y,left,Distractor,0,53,53,53,695.9277537960443,697.9275465579703,left,1,1,0.4512390654999763,C18D18,2022-10-20_12h22.58.609,t1_Paradigm,2021.1.4,60.28887402339225,
V,left,Distractor,0,54,54,54,699.4277647032868,701.4291720615001,left,1,1,0.4856707391445525,C18D18,2022-10-20_12h22.58.609,t1_Paradigm,2021.1.4,60.28887402339225,
B,left,Distractor,0,55,55,55,702.927705034148,704.9280454050167,left,1,1,0.3788687111227773,C18D18,2022-10-20_12h22.58.609,t1_Paradigm,2021.1.4,60.28887402339225,
J,left,Pretarget,0,56,56,56,706.4276254752767,708.4273746081162,left,1,1,0.3513836829806678,C18D18,2022-10-20_12h22.58.609,t1_Paradigm,2021.1.4,60.28887402339225,
J,right,Target,0,57,57,57,709.9276004527346,711.9277557208552,right,1,1,0.5632400098838843,C18D18,2022-10-20_12h22.58.609,t1_Paradigm,2021.1.4,60.28887402339225,
H,left,Distractor,0,58,58,58,713.4278731343802,715.4281069990247,left,1,1,0.7108297606464475,C18D18,2022-10-20_12h22.58.609,t1_Paradigm,2021.1.4,60.28887402339225,
J,left,Lure,0,59,59,59,716.927529234672,718.9282407733845,left,1,1,0.6505276550306007,C18D18,2022-10-20_12h22.58.609,t1_Paradigm,2021.1.4,60.28887402339225,
D,left,Pretarget,0,60,60,60,720.4277390391799,722.4290100564831,left,1,1,0.4140193019993603,C18D18,2022-10-20_12h22.58.609,t1_Paradigm,2021.1.4,60.28887402339225,
D,right,Target,0,61,61,61,723.927672953927,725.9280412346125,right,1,1,0.4030421007773839,C18D18,2022-10-20_12h22.58.609,t1_Paradigm,2021.1.4,60.28887402339225,
R,left,Distractor,0,62,62,62,727.427776572993,729.4275555404602,left,1,1,0.5032670471118763,C18D18,2022-10-20_12h22.58.609,t1_Paradigm,2021.1.4,60.28887402339225,
F,left,Distractor,0,63,63,63,730.9275022873189,732.9273807033896,left,1,1,0.5075324298231862,C18D18,2022-10-20_12h22.58.609,t1_Paradigm,2021.1.4,60.28887402339225,
F,left,Distractor,0,0,0,0,921.2432503268938,923.2441161713796,None,0,2,,C18D18,2022-10-20_12h22.58.609,t1_Paradigm,2021.1.4,60.28887402339225,
N,left,Pretarget,0,1,1,1,924.744277855556,926.7441549883806,None,0,2,,C18D18,2022-10-20_12h22.58.609,t1_Paradigm,2021.1.4,60.28887402339225,
V,left,Distractor,0,2,2,2,928.2442740059341,930.244644532213,left,1,2,0.4381391176721081,C18D18,2022-10-20_12h22.58.609,t1_Paradigm,2021.1.4,60.28887402339225,
N,right,Target,0,3,3,3,931.7442865172052,933.7448305973085,right,1,2,1.3859763992368244,C18D18,2022-10-20_12h22.58.609,t1_Paradigm,2021.1.4,60.28887402339225,
N,left,Lure,0,4,4,4,935.2447070885682,937.2442534745787,left,1,2,1.022620708157774,C18D18,2022-10-20_12h22.58.609,t1_Paradigm,2021.1.4,60.28887402339225,
X,left,Distractor,0,5,5,5,938.7443862865912,940.7444889432518,None,0,2,,C18D18,2022-10-20_12h22.58.609,t1_Paradigm,2021.1.4,60.28887402339225,
G,left,Pretarget,0,6,6,6,942.2443092941539,944.2444379357039,None,0,2,,C18D18,2022-10-20_12h22.58.609,t1_Paradigm,2021.1.4,60.28887402339225,
H,left,Pretarget,0,7,7,7,945.7441411939217,947.7450981461443,None,0,2,,C18D18,2022-10-20_12h22.58.609,t1_Paradigm,2021.1.4,60.28887402339225,
G,right,Target,0,8,8,8,949.2443949482404,951.2461009730469,None,0,2,,C18D18,2022-10-20_12h22.58.609,t1_Paradigm,2021.1.4,60.28887402339225,
H,right,Target,0,9,9,9,952.744222036039,954.7446191888303,right,1,2,0.9782390410546213,C18D18,2022-10-20_12h22.58.609,t1_Paradigm,2021.1.4,60.28887402339225,
T,left,Pretarget,0,10,10,10,956.2446166223963,958.2443009532872,None,0,2,,C18D18,2022-10-20_12h22.58.609,t1_Paradigm,2021.1.4,60.28887402339225,
K,left,Distractor,0,11,11,11,959.7446272088564,961.7443869282142,None,0,2,,C18D18,2022-10-20_12h22.58.609,t1_Paradigm,2021.1.4,60.28887402339225,
T,right,Target,0,12,12,12,963.2445328931208,965.2442406425253,right,1,2,1.0066210314980708,C18D18,2022-10-20_12h22.58.609,t1_Paradigm,2021.1.4,60.28887402339225,
T,left,Lure,0,13,13,13,966.7442881212337,968.7444571838714,None,0,2,,C18D18,2022-10-20_12h22.58.609,t1_Paradigm,2021.1.4,60.28887402339225,
J,left,Distractor,0,14,14,14,970.2443949482404,972.2440552189946,None,0,2,,C18D18,2022-10-20_12h22.58.609,t1_Paradigm,2021.1.4,60.28887402339225,
Q,left,Pretarget,0,15,15,15,973.7441970134387,975.7458103264798,None,0,2,,C18D18,2022-10-20_12h22.58.609,t1_Paradigm,2021.1.4,60.28887402339225,
M,left,Distractor,0,16,16,16,977.24436318886,979.2457503365004,None,0,2,,C18D18,2022-10-20_12h22.58.609,t1_Paradigm,2021.1.4,60.28887402339225,
Q,right,Target,0,17,17,17,980.7442614946631,982.7440359708853,None,0,2,,C18D18,2022-10-20_12h22.58.609,t1_Paradigm,2021.1.4,60.28887402339225,
R,left,Distractor,0,18,18,18,984.2444619958987,986.2460451535298,None,0,2,,C18D18,2022-10-20_12h22.58.609,t1_Paradigm,2021.1.4,60.28887402339225,
W,left,Distractor,0,19,19,19,987.7443805121584,989.7461516597541,None,0,2,,C18D18,2022-10-20_12h22.58.609,t1_Paradigm,2021.1.4,60.28887402339225,
C,left,Pretarget,0,20,20,20,991.2442560410127,993.2461433188873,None,0,2,,C18D18,2022-10-20_12h22.58.609,t1_Paradigm,2021.1.4,60.28887402339225,
T,left,Distractor,0,21,21,21,994.7440366125084,996.7446881612414,None,0,2,,C18D18,2022-10-20_12h22.58.609,t1_Paradigm,2021.1.4,60.28887402339225,
C,right,Target,0,22,22,22,998.2441848230083,1000.2455973139731,None,0,2,,C18D18,2022-10-20_12h22.58.609,t1_Paradigm,2021.1.4,60.28887402339225,
F,left,Pretarget,0,23,23,23,1001.7440645222669,1003.744218827982,None,0,2,,C18D18,2022-10-20_12h22.58.609,t1_Paradigm,2021.1.4,60.28887402339225,
C,right,Target,0,24,24,24,1005.2442993492587,1007.2439506375813,None,0,2,,C18D18,2022-10-20_12h22.58.609,t1_Paradigm,2021.1.4,60.28887402339225,
F,right,Target,0,25,25,25,1008.7442021463066,1010.7446692339145,None,0,2,,C18D18,2022-10-20_12h22.58.609,t1_Paradigm,2021.1.4,60.28887402339225,
H,left,Distractor,0,26,26,26,1012.2442435297417,1014.2449419156183,None,0,2,,C18D18,2022-10-20_12h22.58.609,t1_Paradigm,2021.1.4,60.28887402339225,
H,left,Lure,0,27,27,27,1015.7442518706084,1017.7445832589874,None,0,2,,C18D18,2022-10-20_12h22.58.609,t1_Paradigm,2021.1.4,60.28887402339225,
P,left,Distractor,0,28,28,28,1019.2441992590902,1021.2445300059044,None,0,2,,C18D18,2022-10-20_12h22.58.609,t1_Paradigm,2021.1.4,60.28887402339225,
G,left,Pretarget,0,29,29,29,1022.7442117703613,1024.7444953592494,None,0,2,,C18D18,2022-10-20_12h22.58.609,t1_Paradigm,2021.1.4,60.28887402339225,
K,left,Distractor,0,30,30,30,1026.2440459157224,1028.2441565924091,None,0,2,,C18D18,2022-10-20_12h22.58.609,t1_Paradigm,2021.1.4,60.28887402339225,
G,right,Target,0,31,31,31,1029.7443850034033,1031.7464897850296,None,0,2,,C18D18,2022-10-20_12h22.58.609,t1_Paradigm,2021.1.4,60.28887402339225,
M,left,Pretarget,0,32,32,32,1033.244292933261,1035.2445505372016,None,0,2,,C18D18,2022-10-20_12h22.58.609,t1_Paradigm,2021.1.4,60.28887402339225,
B,left,Distractor,0,33,33,33,1036.7440199307748,1038.7456836097408,left,1,2,0.94524808897404,C18D18,2022-10-20_12h22.58.609,t1_Paradigm,2021.1.4,60.28887402339225,
M,right,Target,0,34,34,34,1040.2442849131767,1042.2440959608648,left,0,2,1.0786324084037915,C18D18,2022-10-20_12h22.58.609,t1_Paradigm,2021.1.4,60.28887402339225,
M,left,Lure,0,35,35,35,1043.7442711187177,1045.7441848230083,left,1,2,1.1627640039660037,C18D18,2022-10-20_12h22.58.609,t1_Paradigm,2021.1.4,60.28887402339225,
T,left,Distractor,0,36,36,36,1047.2441081512952,1049.2439750185004,None,0,2,,C18D18,2022-10-20_12h22.58.609,t1_Paradigm,2021.1.4,60.28887402339225,
F,left,Distractor,0,37,37,37,1050.744290366827,1052.744658326672,left,1,2,1.4422113776672632,C18D18,2022-10-20_12h22.58.609,t1_Paradigm,2021.1.4,60.28887402339225,
X,left,Distractor,0,38,38,38,1054.2441402315162,1056.2441742365481,left,1,2,0.6627659287769347,C18D18,2022-10-20_12h22.58.609,t1_Paradigm,2021.1.4,60.28887402339225,
C,left,Distractor,0,39,39,39,1057.7442576450412,1059.7441806525458,left,1,2,0.6829049129737541,C18D18,2022-10-20_12h22.58.609,t1_Paradigm,2021.1.4,60.28887402339225,
R,left,Distractor,0,40,40,40,1061.244185464573,1063.2441447227611,left,1,2,1.1830588979646564,C18D18,2022-10-20_12h22.58.609,t1_Paradigm,2021.1.4,60.28887402339225,
B,left,Pretarget,0,41,41,41,1064.7440289132646,1066.7457323716371,left,1,2,0.5930004863184877,C18D18,2022-10-20_12h22.58.609,t1_Paradigm,2021.1.4,60.28887402339225,
H,left,Distractor,0,42,42,42,1068.244687198836,1070.2441030184855,left,1,2,0.758781632699538,C18D18,2022-10-20_12h22.58.609,t1_Paradigm,2021.1.4,60.28887402339225,
B,right,Target,0,43,43,43,1071.744599940721,1073.7445405923645,left,0,2,1.1781406832160428,C18D18,2022-10-20_12h22.58.609,t1_Paradigm,2021.1.4,60.28887402339225,
W,left,Pretarget,0,44,44,44,1075.2441703869263,1077.2440080611268,None,0,2,,C18D18,2022-10-20_12h22.58.609,t1_Paradigm,2021.1.4,60.28887402339225,
L,left,Pretarget,0,45,45,45,1078.7442217151984,1080.7440747879446,left,1,2,1.3628526736283675,C18D18,2022-10-20_12h22.58.609,t1_Paradigm,2021.1.4,60.28887402339225,
W,right,Target,0,46,46,46,1082.244143439515,1084.2444039307302,None,0,2,,C18D18,2022-10-20_12h22.58.609,t1_Paradigm,2021.1.4,60.28887402339225,
L,right,Target,0,47,47,47,1085.7441861061961,1087.7440520109958,right,1,2,1.3707415144890547,C18D18,2022-10-20_12h22.58.609,t1_Paradigm,2021.1.4,60.28887402339225,
W,right,Target,0,48,48,48,1089.2442387177143,1091.2445890334202,None,0,2,,C18D18,2022-10-20_12h22.58.609,t1_Paradigm,2021.1.4,60.28887402339225,
X,left,Distractor,0,49,49,49,1092.7441665372462,1094.7439888130175,None,0,2,,C18D18,2022-10-20_12h22.58.609,t1_Paradigm,2021.1.4,60.28887402339225,
R,left,Distractor,0,50,50,50,1096.2443667176994,1098.2451206023106,left,1,2,0.22982412355486304,C18D18,2022-10-20_12h22.58.609,t1_Paradigm,2021.1.4,60.28887402339225,
V,left,Pretarget,0,51,51,51,1099.744277855556,1101.744990998297,left,1,2,1.0820476660155691,C18D18,2022-10-20_12h22.58.609,t1_Paradigm,2021.1.4,60.28887402339225,
Z,left,Distractor,0,52,52,52,1103.2441267578397,1105.2446422865614,left,1,2,1.0381115929340012,C18D18,2022-10-20_12h22.58.609,t1_Paradigm,2021.1.4,60.28887402339225,
V,right,Target,0,53,53,53,1106.7440930736484,1108.7441136049456,left,0,2,0.786632375093177,C18D18,2022-10-20_12h22.58.609,t1_Paradigm,2021.1.4,60.28887402339225,
V,left,Lure,0,54,54,54,1110.244217544794,1112.2445794093655,right,0,2,0.5984412874677218,C18D18,2022-10-20_12h22.58.609,t1_Paradigm,2021.1.4,60.28887402339225,
N,left,Distractor,0,55,55,55,1113.7440369332908,1115.7445011337404,left,1,2,1.25835496612126,C18D18,2022-10-20_12h22.58.609,t1_Paradigm,2021.1.4,60.28887402339225,
B,left,Distractor,0,56,56,56,1117.2438386777067,1119.2440632390208,None,0,2,,C18D18,2022-10-20_12h22.58.609,t1_Paradigm,2021.1.4,60.28887402339225,
V,left,Lure,0,57,57,57,1120.744220752793,1122.7454099656316,None,0,2,,C18D18,2022-10-20_12h22.58.609,t1_Paradigm,2021.1.4,60.28887402339225,
J,left,Distractor,0,58,58,58,1124.244640040968,1126.2444209332461,None,0,2,,C18D18,2022-10-20_12h22.58.609,t1_Paradigm,2021.1.4,60.28887402339225,
H,left,Distractor,0,59,59,59,1127.744267910719,1129.7442056750879,left,1,2,1.434568591939751,C18D18,2022-10-20_12h22.58.609,t1_Paradigm,2021.1.4,60.28887402339225,
X,left,Pretarget,0,60,60,60,1131.2443833993748,1133.2439705272554,left,1,2,0.9748670917470008,C18D18,2022-10-20_12h22.58.609,t1_Paradigm,2021.1.4,60.28887402339225,
P,left,Distractor,0,61,61,61,1134.7446634594817,1136.7450426474097,left,1,2,1.4418270569876768,C18D18,2022-10-20_12h22.58.609,t1_Paradigm,2021.1.4,60.28887402339225,
X,right,Target,0,62,62,62,1138.24425026658,1140.2445361011196,left,0,2,0.9342048024991527,C18D18,2022-10-20_12h22.58.609,t1_Paradigm,2021.1.4,60.28887402339225,
Q,left,Distractor,0,63,63,63,1141.7442140159546,1143.7445181361982,left,1,2,0.6662860885844566,C18D18,2022-10-20_12h22.58.609,t1_Paradigm,2021.1.4,60.28887402339225,
B,left,Pretarget,0,0,0,0,1241.6767272297875,1243.6778548486764,None,0,2,,C18D18,2022-10-20_12h22.58.609,t1_Paradigm,2021.1.4,60.28887402339225,
F,left,Distractor,0,1,1,1,1245.177836242132,1247.1773062773282,None,0,2,,C18D18,2022-10-20_12h22.58.609,t1_Paradigm,2021.1.4,60.28887402339225,
B,right,Target,0,2,2,2,1248.6776488937903,1250.6778015955351,None,0,2,,C18D18,2022-10-20_12h22.58.609,t1_Paradigm,2021.1.4,60.28887402339225,
V,left,Distractor,0,3,3,3,1252.1774669990991,1254.1778298261343,None,0,2,,C18D18,2022-10-20_12h22.58.609,t1_Paradigm,2021.1.4,60.28887402339225,
G,left,Pretarget,0,4,4,4,1255.6775600316469,1257.6775481619989,None,0,2,,C18D18,2022-10-20_12h22.58.609,t1_Paradigm,2021.1.4,60.28887402339225,
B,left,Lure,0,5,5,5,1259.1777586080716,1261.1778436205932,right,0,2,0.49707941903034225,C18D18,2022-10-20_12h22.58.609,t1_Paradigm,2021.1.4,60.28887402339225,
G,right,Target,0,6,6,6,1262.677557465271,1264.6788365026587,None,0,2,,C18D18,2022-10-20_12h22.58.609,t1_Paradigm,2021.1.4,60.28887402339225,
Y,left,Pretarget,0,7,7,7,1266.1775144778076,1268.1790437406744,left,1,2,0.871796632069163,C18D18,2022-10-20_12h22.58.609,t1_Paradigm,2021.1.4,60.28887402339225,
P,left,Distractor,0,8,8,8,1269.6778731343802,1271.6778526030248,left,1,2,1.2129999858443625,C18D18,2022-10-20_12h22.58.609,t1_Paradigm,2021.1.4,60.28887402339225,
Y,right,Target,0,9,9,9,1273.1774477509898,1275.1773742873338,left,0,2,1.2333012958988547,C18D18,2022-10-20_12h22.58.609,t1_Paradigm,2021.1.4,60.28887402339225,
X,left,Distractor,0,10,10,10,1276.677443259745,1278.678126247134,None,0,2,,C18D18,2022-10-20_12h22.58.609,t1_Paradigm,2021.1.4,60.28887402339225,
Y,right,Target,0,11,11,11,1280.177358568064,1282.1780001719599,None,0,2,,C18D18,2022-10-20_12h22.58.609,t1_Paradigm,2021.1.4,60.28887402339225,
N,left,Distractor,0,12,12,12,1283.6772937660571,1285.6788859061198,left,1,2,0.8279548746650107,C18D18,2022-10-20_12h22.58.609,t1_Paradigm,2021.1.4,60.28887402339225,
Y,right,Target,0,13,13,13,1287.1775350091048,1289.177788442641,right,1,2,1.0890132388449274,C18D18,2022-10-20_12h22.58.609,t1_Paradigm,2021.1.4,60.28887402339225,
Y,left,Lure,0,14,14,14,1290.677631570492,1292.67741246277,left,1,2,1.3654800415970385,C18D18,2022-10-20_12h22.58.609,t1_Paradigm,2021.1.4,60.28887402339225,
K,left,Distractor,0,15,15,15,1294.1774987584795,1296.1777833098313,left,1,2,1.288989627850242,C18D18,2022-10-20_12h22.58.609,t1_Paradigm,2021.1.4,60.28887402339225,
T,left,Pretarget,0,16,16,16,1297.6776373449247,1299.6774602622609,None,0,2,,C18D18,2022-10-20_12h22.58.609,t1_Paradigm,2021.1.4,60.28887402339225,
J,left,Distractor,0,17,17,17,1301.1776148888166,1303.177849395026,None,0,2,,C18D18,2022-10-20_12h22.58.609,t1_Paradigm,2021.1.4,60.28887402339225,
T,right,Target,0,18,18,18,1304.6775632397039,1306.6774968336686,right,1,2,0.9973957297042944,C18D18,2022-10-20_12h22.58.609,t1_Paradigm,2021.1.4,60.28887402339225,
S,left,Pretarget,0,19,19,19,1308.1775812046253,1310.1781179062673,left,1,2,0.7927147800801322,C18D18,2022-10-20_12h22.58.609,t1_Paradigm,2021.1.4,60.28887402339225,
R,left,Distractor,0,20,20,20,1311.677921575494,1313.677995039092,left,1,2,0.9887841221061535,C18D18,2022-10-20_12h22.58.609,t1_Paradigm,2021.1.4,60.28887402339225,
S,right,Target,0,21,21,21,1315.1777942170738,1317.1777650241274,right,1,2,0.6569308620528318,C18D18,2022-10-20_12h22.58.609,t1_Paradigm,2021.1.4,60.28887402339225,
Q,left,Distractor,0,22,22,22,1318.6770040818956,1320.6777768937754,left,1,2,1.381168861174956,C18D18,2022-10-20_12h22.58.609,t1_Paradigm,2021.1.4,60.28887402339225,
D,left,Distractor,0,23,23,23,1322.177382948983,1324.1783732646145,left,1,2,1.032527714036405,C18D18,2022-10-20_12h22.58.609,t1_Paradigm,2021.1.4,60.28887402339225,
F,left,Distractor,0,24,24,24,1325.6778404125944,1327.67874828208,left,1,2,0.5720553267747164,C18D18,2022-10-20_12h22.58.609,t1_Paradigm,2021.1.4,60.28887402339225,
Z,left,Distractor,0,25,25,25,1329.1774509589886,1331.1778436205932,left,1,2,0.5130688299541362,C18D18,2022-10-20_12h22.58.609,t1_Paradigm,2021.1.4,60.28887402339225,
P,left,Distractor,0,26,26,26,1332.6773284126539,1334.6796455651638,left,1,2,0.6112425686442293,C18D18,2022-10-20_12h22.58.609,t1_Paradigm,2021.1.4,60.28887402339225,
H,left,Distractor,0,27,27,27,1336.1774817559635,1338.1776354201138,left,1,2,0.5211078061256558,C18D18,2022-10-20_12h22.58.609,t1_Paradigm,2021.1.4,60.28887402339225,
Z,left,Pretarget,0,28,28,28,1339.677441334934,1341.6777573248837,left,1,2,0.5571021061623469,C18D18,2022-10-20_12h22.58.609,t1_Paradigm,2021.1.4,60.28887402339225,
J,left,Pretarget,0,29,29,29,1343.177529234672,1345.1774490341777,left,1,2,0.4172879531397484,C18D18,2022-10-20_12h22.58.609,t1_Paradigm,2021.1.4,60.28887402339225,
Z,right,Target,0,30,30,30,1346.677352152008,1348.6786244525574,left,0,2,1.0282110029947944,C18D18,2022-10-20_12h22.58.609,t1_Paradigm,2021.1.4,60.28887402339225,
J,right,Target,0,31,31,31,1350.1775138361845,1352.179324121622,right,1,2,0.4554248893400654,C18D18,2022-10-20_12h22.58.609,t1_Paradigm,2021.1.4,60.28887402339225,
V,left,Pretarget,0,32,32,32,1353.6773130141664,1355.6772928036517,left,1,2,0.8934077765443362,C18D18,2022-10-20_12h22.58.609,t1_Paradigm,2021.1.4,60.28887402339225,
Z,left,Lure,0,33,33,33,1357.1775006832904,1359.179043419892,left,1,2,0.8958240568172187,C18D18,2022-10-20_12h22.58.609,t1_Paradigm,2021.1.4,60.28887402339225,
V,right,Target,0,34,34,34,1360.6773325830582,1362.6787463572691,right,1,2,0.48403208277886733,C18D18,2022-10-20_12h22.58.609,t1_Paradigm,2021.1.4,60.28887402339225,
X,left,Distractor,0,35,35,35,1364.1776004527346,1366.1783190490678,left,1,2,0.584429620532319,C18D18,2022-10-20_12h22.58.609,t1_Paradigm,2021.1.4,60.28887402339225,
S,left,Distractor,0,36,36,36,1367.6776431193575,1369.6777387183392,left,1,2,0.5410466099856421,C18D18,2022-10-20_12h22.58.609,t1_Paradigm,2021.1.4,60.28887402339225,
Q,left,Distractor,0,37,37,37,1371.1776180968154,1373.1785195503035,left,1,2,0.38414590328466147,C18D18,2022-10-20_12h22.58.609,t1_Paradigm,2021.1.4,60.28887402339225,
P,left,Distractor,0,38,38,38,1374.6774990793201,1376.6774945880752,left,1,2,0.677416633174289,C18D18,2022-10-20_12h22.58.609,t1_Paradigm,2021.1.4,60.28887402339225,
S,left,Lure,0,39,39,39,1378.1773900066037,1380.1775885830284,left,1,2,0.9851420575287193,C18D18,2022-10-20_12h22.58.609,t1_Paradigm,2021.1.4,60.28887402339225,
K,left,Pretarget,0,40,40,40,1381.677500362508,1383.6784124024562,left,1,2,0.49231935961870477,C18D18,2022-10-20_12h22.58.609,t1_Paradigm,2021.1.4,60.28887402339225,
L,left,Distractor,0,41,41,41,1385.1778388085659,1387.1772193399956,left,1,2,0.5935089574777521,C18D18,2022-10-20_12h22.58.609,t1_Paradigm,2021.1.4,60.28887402339225,
K,right,Target,0,42,42,42,1388.6778314301046,1390.67745833745,right,1,2,0.565589563397225,C18D18,2022-10-20_12h22.58.609,t1_Paradigm,2021.1.4,60.28887402339225,
B,left,Distractor,0,43,43,43,1392.1775427083485,1394.177804803534,left,1,2,0.6971344044432044,C18D18,2022-10-20_12h22.58.609,t1_Paradigm,2021.1.4,60.28887402339225,
N,left,Distractor,0,44,44,44,1395.6777704777778,1397.6789263272076,left,1,2,0.7319301883690059,C18D18,2022-10-20_12h22.58.609,t1_Paradigm,2021.1.4,60.28887402339225,
S,left,Pretarget,0,45,45,45,1399.1773832697654,1401.1773332246812,left,1,2,0.8014498964766972,C18D18,2022-10-20_12h22.58.609,t1_Paradigm,2021.1.4,60.28887402339225,
Z,left,Distractor,0,46,46,46,1402.6773957810947,1404.6778869288391,left,1,2,0.5008597492123954,C18D18,2022-10-20_12h22.58.609,t1_Paradigm,2021.1.4,60.28887402339225,
S,right,Target,0,47,47,47,1406.1772838211618,1408.1793122519157,right,1,2,0.3275506642530672,C18D18,2022-10-20_12h22.58.609,t1_Paradigm,2021.1.4,60.28887402339225,
C,left,Distractor,0,48,48,48,1409.6775664477027,1411.6778166732402,left,1,2,0.7810837844735943,C18D18,2022-10-20_12h22.58.609,t1_Paradigm,2021.1.4,60.28887402339225,
T,left,Pretarget,0,49,49,49,1413.177266177081,1415.1773556808475,left,1,2,0.5774585941107944,C18D18,2022-10-20_12h22.58.609,t1_Paradigm,2021.1.4,60.28887402339225,
S,left,Lure,0,50,50,50,1416.6777387183392,1418.6786558911554,left,1,2,1.04398675984703,C18D18,2022-10-20_12h22.58.609,t1_Paradigm,2021.1.4,60.28887402339225,
T,right,Target,0,51,51,51,1420.1773733249283,1422.1778551694588,right,1,2,0.6168325426406227,C18D18,2022-10-20_12h22.58.609,t1_Paradigm,2021.1.4,60.28887402339225,
N,left,Pretarget,0,52,52,52,1423.6776607634965,1425.6773213550332,left,1,2,0.46137640718370676,C18D18,2022-10-20_12h22.58.609,t1_Paradigm,2021.1.4,60.28887402339225,
B,left,Distractor,0,53,53,53,1427.1777406431502,1429.177237946482,left,1,2,0.5776898922631517,C18D18,2022-10-20_12h22.58.609,t1_Paradigm,2021.1.4,60.28887402339225,
N,right,Target,0,54,54,54,1430.6773062773282,1432.6788624876062,right,1,2,0.5960208367323503,C18D18,2022-10-20_12h22.58.609,t1_Paradigm,2021.1.4,60.28887402339225,
N,left,Lure,0,55,55,55,1434.1774448637734,1436.1776039815159,left,1,2,0.3773115384974517,C18D18,2022-10-20_12h22.58.609,t1_Paradigm,2021.1.4,60.28887402339225,
X,left,Distractor,0,56,56,56,1437.6774355605012,1439.677293124434,left,1,2,0.781639092718251,C18D18,2022-10-20_12h22.58.609,t1_Paradigm,2021.1.4,60.28887402339225,
W,left,Distractor,0,57,57,57,1441.1777855554246,1443.1772016958566,left,1,2,0.8014325731783174,C18D18,2022-10-20_12h22.58.609,t1_Paradigm,2021.1.4,60.28887402339225,
S,left,Distractor,0,58,58,58,1444.6774352397188,1446.6778471494326,left,1,2,0.4688976090401411,C18D18,2022-10-20_12h22.58.609,t1_Paradigm,2021.1.4,60.28887402339225,
L,left,Distractor,0,59,59,59,1448.1772193399956,1450.1772892748122,left,1,2,0.6335132818785496,C18D18,2022-10-20_12h22.58.609,t1_Paradigm,2021.1.4,60.28887402339225,
K,left,Pretarget,0,60,60,60,1451.6778012747527,1453.677510307345,left,1,2,0.749644230643753,C18D18,2022-10-20_12h22.58.609,t1_Paradigm,2021.1.4,60.28887402339225,
V,left,Pretarget,0,61,61,61,1455.1774929840467,1457.1772286432679,left,1,2,0.5453860979760066,C18D18,2022-10-20_12h22.58.609,t1_Paradigm,2021.1.4,60.28887402339225,
K,right,Target,0,62,62,62,1458.6773033901118,1460.6776216256549,right,1,2,0.6132899267249741,C18D18,2022-10-20_12h22.58.609,t1_Paradigm,2021.1.4,60.28887402339225,
V,right,Target,0,63,63,63,1462.177512232156,1464.1777383975568,right,1,2,0.904910130542703,C18D18,2022-10-20_12h22.58.609,t1_Paradigm,2021.1.4,60.28887402339225,
R,left,Distractor,0,0,0,0,1702.706635916722,1704.7114617404877,None,0,3,,C18D18,2022-10-20_12h22.58.609,t1_Paradigm,2021.1.4,60.28887402339225,
P,left,Lure,0,1,1,1,1706.2106587731978,1708.210830081487,None,0,3,,C18D18,2022-10-20_12h22.58.609,t1_Paradigm,2021.1.4,60.28887402339225,
V,left,Distractor,0,2,2,2,1709.7107765075634,1711.7105195451877,None,0,3,,C18D18,2022-10-20_12h22.58.609,t1_Paradigm,2021.1.4,60.28887402339225,
P,left,Pretarget,0,3,3,3,1713.2105471341638,1715.2104441567208,left,1,3,0.8484079240588471,C18D18,2022-10-20_12h22.58.609,t1_Paradigm,2021.1.4,60.28887402339225,
Z,left,Distractor,0,4,4,4,1716.7107040063129,1718.7121832240955,left,1,3,0.6749932952225208,C18D18,2022-10-20_12h22.58.609,t1_Paradigm,2021.1.4,60.28887402339225,
L,left,Pretarget,0,5,5,5,1720.2108236654312,1722.2106270138174,left,1,3,0.6161979963653721,C18D18,2022-10-20_12h22.58.609,t1_Paradigm,2021.1.4,60.28887402339225,
P,right,Target,0,6,6,6,1723.7109208684415,1725.710538793297,right,1,3,0.7164097898057662,C18D18,2022-10-20_12h22.58.609,t1_Paradigm,2021.1.4,60.28887402339225,
S,left,Distractor,0,7,7,7,1727.2110507932375,1729.2111864924664,left,1,3,0.8476598138804547,C18D18,2022-10-20_12h22.58.609,t1_Paradigm,2021.1.4,60.28887402339225,
L,right,Target,0,8,8,8,1730.7106408083346,1732.7110212794505,right,1,3,0.4677160953870043,C18D18,2022-10-20_12h22.58.609,t1_Paradigm,2021.1.4,60.28887402339225,
D,left,Distractor,0,9,9,9,1734.2107255000155,1736.2122634245898,left,1,3,0.7904951514210552,C18D18,2022-10-20_12h22.58.609,t1_Paradigm,2021.1.4,60.28887402339225,
G,left,Distractor,0,10,10,10,1737.7105602869997,1739.7116975299432,left,1,3,0.6510059707798064,C18D18,2022-10-20_12h22.58.609,t1_Paradigm,2021.1.4,60.28887402339225,
M,left,Pretarget,0,11,11,11,1741.2106183521682,1743.2110453395871,left,1,3,0.703585090173874,C18D18,2022-10-20_12h22.58.609,t1_Paradigm,2021.1.4,60.28887402339225,
Y,left,Distractor,0,12,12,12,1744.7106953446637,1746.7104711040738,left,1,3,0.7881991718313657,C18D18,2022-10-20_12h22.58.609,t1_Paradigm,2021.1.4,60.28887402339225,
V,left,Distractor,0,13,13,13,1748.2106128985179,1750.2104518559645,left,1,3,1.112180593481753,C18D18,2022-10-20_12h22.58.609,t1_Paradigm,2021.1.4,60.28887402339225,
M,right,Target,0,14,14,14,1751.7111133495928,1753.712129008607,right,1,3,0.7149777299491689,C18D18,2022-10-20_12h22.58.609,t1_Paradigm,2021.1.4,60.28887402339225,
S,left,Pretarget,0,15,15,15,1755.2107437857194,1757.211600968556,None,0,3,,C18D18,2022-10-20_12h22.58.609,t1_Paradigm,2021.1.4,60.28887402339225,
Q,left,Distractor,0,16,16,16,1758.7105936504086,1760.7109808583627,left,1,3,1.1877971428330056,C18D18,2022-10-20_12h22.58.609,t1_Paradigm,2021.1.4,60.28887402339225,
R,left,Pretarget,0,17,17,17,1762.2107492393698,1764.211439605162,left,1,3,1.0793779522064142,C18D18,2022-10-20_12h22.58.609,t1_Paradigm,2021.1.4,60.28887402339225,
S,right,Target,0,18,18,18,1765.7105452093529,1767.7105163371307,None,0,3,,C18D18,2022-10-20_12h22.58.609,t1_Paradigm,2021.1.4,60.28887402339225,
F,left,Distractor,0,19,19,19,1769.2110276954481,1771.2109959360678,left,1,3,0.991761164215859,C18D18,2022-10-20_12h22.58.609,t1_Paradigm,2021.1.4,60.28887402339225,
R,right,Target,0,20,20,20,1772.710499334673,1774.7106606980087,right,1,3,0.8839338531834073,C18D18,2022-10-20_12h22.58.609,t1_Paradigm,2021.1.4,60.28887402339225,
P,left,Distractor,0,21,21,21,1776.210592688003,1778.2105102419155,left,1,3,0.9040199050796218,C18D18,2022-10-20_12h22.58.609,t1_Paradigm,2021.1.4,60.28887402339225,
L,left,Distractor,0,22,22,22,1779.711021600233,1781.7115079360083,None,0,3,,C18D18,2022-10-20_12h22.58.609,t1_Paradigm,2021.1.4,60.28887402339225,
R,right,Target,0,23,23,23,1783.210580176732,1785.212356136355,right,1,3,0.7022723685367964,C18D18,2022-10-20_12h22.58.609,t1_Paradigm,2021.1.4,60.28887402339225,
H,left,Pretarget,0,24,24,24,1786.7105211492162,1788.711590382096,left,1,3,0.627031157608144,C18D18,2022-10-20_12h22.58.609,t1_Paradigm,2021.1.4,60.28887402339225,
G,left,Pretarget,0,25,25,25,1790.210656206822,1792.2131494795904,left,1,3,0.7575933822081424,C18D18,2022-10-20_12h22.58.609,t1_Paradigm,2021.1.4,60.28887402339225,
T,left,Distractor,0,26,26,26,1793.710582101543,1795.7116006477736,left,1,3,0.6191541863954626,C18D18,2022-10-20_12h22.58.609,t1_Paradigm,2021.1.4,60.28887402339225,
H,right,Target,0,27,27,27,1797.2109102819813,1799.2108384222956,None,0,3,,C18D18,2022-10-20_12h22.58.609,t1_Paradigm,2021.1.4,60.28887402339225,
G,right,Target,0,28,28,28,1800.7108098709723,1802.712285880756,left,0,3,1.346568445675075,C18D18,2022-10-20_12h22.58.609,t1_Paradigm,2021.1.4,60.28887402339225,
D,left,Distractor,0,29,29,29,1804.2111479961895,1806.212872948323,left,1,3,0.7097351844422519,C18D18,2022-10-20_12h22.58.609,t1_Paradigm,2021.1.4,60.28887402339225,
N,left,Pretarget,0,30,30,30,1807.7106420915225,1809.7104852193734,left,1,3,1.036120054370258,C18D18,2022-10-20_12h22.58.609,t1_Paradigm,2021.1.4,60.28887402339225,
V,left,Distractor,0,31,31,31,1811.2106818709872,1813.211484196654,left,1,3,0.6712001329287887,C18D18,2022-10-20_12h22.58.609,t1_Paradigm,2021.1.4,60.28887402339225,
R,left,Distractor,0,32,32,32,1814.7105923672207,1816.7121469734702,left,1,3,0.4825942484312691,C18D18,2022-10-20_12h22.58.609,t1_Paradigm,2021.1.4,60.28887402339225,
N,right,Target,0,33,33,33,1818.2105772895156,1820.210904186708,right,1,3,0.5360696884454228,C18D18,2022-10-20_12h22.58.609,t1_Paradigm,2021.1.4,60.28887402339225,
Z,left,Distractor,0,34,34,34,1821.71078998124,1823.7110645876965,left,1,3,0.5397399835637771,C18D18,2022-10-20_12h22.58.609,t1_Paradigm,2021.1.4,60.28887402339225,
N,left,Lure,0,35,35,35,1825.2104897106183,1827.211161469866,left,1,3,0.5436165544087999,C18D18,2022-10-20_12h22.58.609,t1_Paradigm,2021.1.4,60.28887402339225,
Y,left,Pretarget,0,36,36,36,1828.7106789837708,1830.7109144523856,left,1,3,0.46769139368552715,C18D18,2022-10-20_12h22.58.609,t1_Paradigm,2021.1.4,60.28887402339225,
Y,left,Lure,0,37,37,37,1832.2106177106034,1834.2107947932673,left,1,3,0.5358621295890771,C18D18,2022-10-20_12h22.58.609,t1_Paradigm,2021.1.4,60.28887402339225,
B,left,Distractor,0,38,38,38,1835.7105057506706,1837.7105583621887,left,1,3,0.3803646106389351,C18D18,2022-10-20_12h22.58.609,t1_Paradigm,2021.1.4,60.28887402339225,
Y,right,Target,0,39,39,39,1839.210670001281,1841.2108801265713,right,1,3,0.8318879066500813,C18D18,2022-10-20_12h22.58.609,t1_Paradigm,2021.1.4,60.28887402339225,
J,left,Distractor,0,40,40,40,1842.7107174799894,1844.7115316753625,left,1,3,0.7711174301803112,C18D18,2022-10-20_12h22.58.609,t1_Paradigm,2021.1.4,60.28887402339225,
X,left,Distractor,0,41,41,41,1846.210652998765,1848.2113196252612,left,1,3,0.5512692849733867,C18D18,2022-10-20_12h22.58.609,t1_Paradigm,2021.1.4,60.28887402339225,
W,left,Pretarget,0,42,42,42,1849.7107816403732,1851.7270087655634,left,1,3,0.5716540035791695,C18D18,2022-10-20_12h22.58.609,t1_Paradigm,2021.1.4,60.28887402339225,
S,left,Pretarget,0,43,43,43,1853.2106427331455,1855.2108955250587,left,1,3,0.6078545791679062,C18D18,2022-10-20_12h22.58.609,t1_Paradigm,2021.1.4,60.28887402339225,
R,left,Distractor,0,44,44,44,1856.7106902117957,1858.7109170188196,left,1,3,0.5317860199720599,C18D18,2022-10-20_12h22.58.609,t1_Paradigm,2021.1.4,60.28887402339225,
W,right,Target,0,45,45,45,1860.2106369587127,1862.2110283370712,right,1,3,0.45562539057573304,C18D18,2022-10-20_12h22.58.609,t1_Paradigm,2021.1.4,60.28887402339225,
S,right,Target,0,46,46,46,1863.710566382273,1865.7109516654164,right,1,3,0.45963573578046635,C18D18,2022-10-20_12h22.58.609,t1_Paradigm,2021.1.4,60.28887402339225,
D,left,Distractor,0,47,47,47,1867.2107643170748,1869.2119252993143,left,1,3,0.4789133667945862,C18D18,2022-10-20_12h22.58.609,t1_Paradigm,2021.1.4,60.28887402339225,
T,left,Distractor,0,48,48,48,1870.7105737607344,1872.711049830832,left,1,3,0.5797173606115393,C18D18,2022-10-20_12h22.58.609,t1_Paradigm,2021.1.4,60.28887402339225,
S,right,Target,0,49,49,49,1874.2107187631773,1876.2109930488514,right,1,3,0.599706209555734,C18D18,2022-10-20_12h22.58.609,t1_Paradigm,2021.1.4,60.28887402339225,
K,left,Distractor,0,50,50,50,1877.7105981416535,1879.7110668332898,left,1,3,0.9556439970619977,C18D18,2022-10-20_12h22.58.609,t1_Paradigm,2021.1.4,60.28887402339225,
S,left,Lure,0,51,51,51,1881.2106507531716,1883.21098567039,left,1,3,0.863862237369176,C18D18,2022-10-20_12h22.58.609,t1_Paradigm,2021.1.4,60.28887402339225,
T,left,Pretarget,0,52,52,52,1884.7102988334373,1886.7109850288252,None,0,3,,C18D18,2022-10-20_12h22.58.609,t1_Paradigm,2021.1.4,60.28887402339225,
V,left,Distractor,0,53,53,53,1888.2107075350941,1890.2119329986162,left,1,3,0.9507373311789706,C18D18,2022-10-20_12h22.58.609,t1_Paradigm,2021.1.4,60.28887402339225,
B,left,Distractor,0,54,54,54,1891.7106716053095,1893.710765921045,left,1,3,1.0519089641747996,C18D18,2022-10-20_12h22.58.609,t1_Paradigm,2021.1.4,60.28887402339225,
T,right,Target,0,55,55,55,1895.2109426829265,1897.2110876854276,None,0,3,,C18D18,2022-10-20_12h22.58.609,t1_Paradigm,2021.1.4,60.28887402339225,
Y,left,Pretarget,0,56,56,56,1898.7110196754802,1900.7112605976872,left,1,3,0.8034237909596413,C18D18,2022-10-20_12h22.58.609,t1_Paradigm,2021.1.4,60.28887402339225,
T,left,Lure,0,57,57,57,1902.210493560182,1904.2109240764985,right,0,3,0.6160776956239715,C18D18,2022-10-20_12h22.58.609,t1_Paradigm,2021.1.4,60.28887402339225,
P,left,Pretarget,0,58,58,58,1905.7104832945624,1907.7115204472793,left,1,3,1.3072070083580911,C18D18,2022-10-20_12h22.58.609,t1_Paradigm,2021.1.4,60.28887402339225,
Y,right,Target,0,59,59,59,1909.2104361366946,1911.2115377705777,right,1,3,0.6391696619102731,C18D18,2022-10-20_12h22.58.609,t1_Paradigm,2021.1.4,60.28887402339225,
R,left,Distractor,0,60,60,60,1912.7105705527356,1914.7108361767605,left,1,3,0.7718142120866105,C18D18,2022-10-20_12h22.58.609,t1_Paradigm,2021.1.4,60.28887402339225,
P,right,Target,0,61,61,61,1916.210645620362,1918.211047905963,right,1,3,0.5676516783423722,C18D18,2022-10-20_12h22.58.609,t1_Paradigm,2021.1.4,60.28887402339225,
L,left,Distractor,0,62,62,62,1919.7107293496374,1921.7109673847444,left,1,3,0.5237755952402949,C18D18,2022-10-20_12h22.58.609,t1_Paradigm,2021.1.4,60.28887402339225,
V,left,Distractor,0,63,63,63,1923.210633429815,1925.2108631241135,left,1,3,0.5599014239851385,C18D18,2022-10-20_12h22.58.609,t1_Paradigm,2021.1.4,60.28887402339225,
H,left,Lure,0,0,0,0,1952.9767765050055,1954.9775842842646,None,0,3,,C18D18,2022-10-20_12h22.58.609,t1_Paradigm,2021.1.4,60.28887402339225,
B,left,Distractor,0,1,1,1,1956.477565356996,1958.4776291965973,None,0,3,,C18D18,2022-10-20_12h22.58.609,t1_Paradigm,2021.1.4,60.28887402339225,
T,left,Distractor,0,2,2,2,1959.9773353419732,1961.9776025699684,None,0,3,,C18D18,2022-10-20_12h22.58.609,t1_Paradigm,2021.1.4,60.28887402339225,
R,left,Distractor,0,3,3,3,1963.4774161840323,1965.477647482301,None,0,3,,C18D18,2022-10-20_12h22.58.609,t1_Paradigm,2021.1.4,60.28887402339225,
H,left,Pretarget,0,4,4,4,1966.9773099985905,1968.9780603543622,None,0,3,,C18D18,2022-10-20_12h22.58.609,t1_Paradigm,2021.1.4,60.28887402339225,
K,left,Distractor,0,5,5,5,1970.4772599535063,1972.4775185198523,None,0,3,,C18D18,2022-10-20_12h22.58.609,t1_Paradigm,2021.1.4,60.28887402339225,
G,left,Distractor,0,6,6,6,1973.9774954221211,1975.978348755394,None,0,3,,C18D18,2022-10-20_12h22.58.609,t1_Paradigm,2021.1.4,60.28887402339225,
H,right,Target,0,7,7,7,1977.477039883379,1979.4789569958812,right,1,3,1.1238170427968726,C18D18,2022-10-20_12h22.58.609,t1_Paradigm,2021.1.4,60.28887402339225,
Y,left,Pretarget,0,8,8,8,1980.9776272717863,1982.978200544836,left,1,3,1.0645905861165375,C18D18,2022-10-20_12h22.58.609,t1_Paradigm,2021.1.4,60.28887402339225,
S,left,Distractor,0,9,9,9,1984.477147672791,1986.4774505099049,left,1,3,0.845201829331927,C18D18,2022-10-20_12h22.58.609,t1_Paradigm,2021.1.4,60.28887402339225,
P,left,Distractor,0,10,10,10,1987.977667051251,1989.9773671013536,left,1,3,0.9134351216489449,C18D18,2022-10-20_12h22.58.609,t1_Paradigm,2021.1.4,60.28887402339225,
Y,right,Target,0,11,11,11,1991.4776032116497,1993.478198620025,right,1,3,0.5805944332387298,C18D18,2022-10-20_12h22.58.609,t1_Paradigm,2021.1.4,60.28887402339225,
H,left,Lure,0,12,12,12,1994.9772593119415,1996.9782518731663,left,1,3,0.8405007974943146,C18D18,2022-10-20_12h22.58.609,t1_Paradigm,2021.1.4,60.28887402339225,
Q,left,Distractor,0,13,13,13,1998.477282088832,2000.478139592451,left,1,3,0.49267544981557876,C18D18,2022-10-20_12h22.58.609,t1_Paradigm,2021.1.4,60.28887402339225,
V,left,Pretarget,0,14,14,14,2001.9777154922485,2003.9781148907496,left,1,3,0.7525619243970141,C18D18,2022-10-20_12h22.58.609,t1_Paradigm,2021.1.4,60.28887402339225,
G,left,Distractor,0,15,15,15,2005.4776195725426,2007.477846700349,left,1,3,0.8847262340132147,C18D18,2022-10-20_12h22.58.609,t1_Paradigm,2021.1.4,60.28887402339225,
Z,left,Pretarget,0,16,16,16,2008.9771229710896,2010.9784212566447,left,1,3,0.6645271314773709,C18D18,2022-10-20_12h22.58.609,t1_Paradigm,2021.1.4,60.28887402339225,
V,right,Target,0,17,17,17,2012.4773420788115,2014.4781261187745,right,1,3,0.6845329829957336,C18D18,2022-10-20_12h22.58.609,t1_Paradigm,2021.1.4,60.28887402339225,
N,left,Distractor,0,18,18,18,2015.9771951514995,2017.9776025699684,left,1,3,0.6091932856943458,C18D18,2022-10-20_12h22.58.609,t1_Paradigm,2021.1.4,60.28887402339225,
Z,right,Target,0,19,19,19,2019.477606098866,2021.4782631011913,right,1,3,0.7883987106615677,C18D18,2022-10-20_12h22.58.609,t1_Paradigm,2021.1.4,60.28887402339225,
R,left,Distractor,0,20,20,20,2022.9772573871305,2024.9772580286954,left,1,3,1.0497820471646264,C18D18,2022-10-20_12h22.58.609,t1_Paradigm,2021.1.4,60.28887402339225,
P,left,Distractor,0,21,21,21,2026.477414580062,2028.4771293870872,left,1,3,1.133612409583293,C18D18,2022-10-20_12h22.58.609,t1_Paradigm,2021.1.4,60.28887402339225,
Z,right,Target,0,22,22,22,2029.9774158633081,2031.9778598531848,right,1,3,0.81670435029082,C18D18,2022-10-20_12h22.58.609,t1_Paradigm,2021.1.4,60.28887402339225,
D,left,Pretarget,0,23,23,23,2033.477256424725,2035.4788941186853,left,1,3,1.2997483629733324,C18D18,2022-10-20_12h22.58.609,t1_Paradigm,2021.1.4,60.28887402339225,
K,left,Distractor,0,24,24,24,2036.977362930891,2038.9772054172354,left,1,3,0.9374227669322863,C18D18,2022-10-20_12h22.58.609,t1_Paradigm,2021.1.4,60.28887402339225,
W,left,Distractor,0,25,25,25,2040.477425808087,2042.477504404611,left,1,3,0.7170610177563503,C18D18,2022-10-20_12h22.58.609,t1_Paradigm,2021.1.4,60.28887402339225,
D,right,Target,0,26,26,26,2043.977395011112,2045.9787051663734,left,0,3,0.4801542287459597,C18D18,2022-10-20_12h22.58.609,t1_Paradigm,2021.1.4,60.28887402339225,
G,left,Pretarget,0,27,27,27,2047.477274710429,2049.478232625057,left,1,3,0.7404208536026999,C18D18,2022-10-20_12h22.58.609,t1_Paradigm,2021.1.4,60.28887402339225,
V,left,Distractor,0,28,28,28,2050.9773847454926,2052.978229417,left,1,3,0.6645993118872866,C18D18,2022-10-20_12h22.58.609,t1_Paradigm,2021.1.4,60.28887402339225,
D,right,Target,0,29,29,29,2054.4773715926567,2056.478799482109,None,0,3,,C18D18,2022-10-20_12h22.58.609,t1_Paradigm,2021.1.4,60.28887402339225,
G,right,Target,0,30,30,30,2057.977648765431,2059.9780812065583,None,0,3,,C18D18,2022-10-20_12h22.58.609,t1_Paradigm,2021.1.4,60.28887402339225,
B,left,Pretarget,0,31,31,31,2061.4774062392535,2063.4783214872004,left,1,3,1.1723813257412985,C18D18,2022-10-20_12h22.58.609,t1_Paradigm,2021.1.4,60.28887402339225,
N,left,Distractor,0,32,32,32,2064.977206700365,2066.9782153017586,left,1,3,1.0965803153812885,C18D18,2022-10-20_12h22.58.609,t1_Paradigm,2021.1.4,60.28887402339225,
F,left,Distractor,0,33,33,33,2068.477488685283,2070.4773202643264,left,1,3,0.6371059429366142,C18D18,2022-10-20_12h22.58.609,t1_Paradigm,2021.1.4,60.28887402339225,
B,right,Target,0,34,34,34,2071.977323151543,2073.9772737480234,right,1,3,0.8497899388894439,C18D18,2022-10-20_12h22.58.609,t1_Paradigm,2021.1.4,60.28887402339225,
Q,left,Pretarget,0,35,35,35,2075.4772448758595,2077.4777257579844,None,0,3,,C18D18,2022-10-20_12h22.58.609,t1_Paradigm,2021.1.4,60.28887402339225,
S,left,Pretarget,0,36,36,36,2078.977236855775,2080.977548996103,left,1,3,0.9372758396202698,C18D18,2022-10-20_12h22.58.609,t1_Paradigm,2021.1.4,60.28887402339225,
W,left,Distractor,0,37,37,37,2082.477507933392,2084.478550860542,right,0,3,1.212317960918881,C18D18,2022-10-20_12h22.58.609,t1_Paradigm,2021.1.4,60.28887402339225,
Q,right,Target,0,38,38,38,2085.9777231914923,2087.977688865736,left,0,3,0.8329257010482252,C18D18,2022-10-20_12h22.58.609,t1_Paradigm,2021.1.4,60.28887402339225,
S,right,Target,0,39,39,39,2089.477255783044,2091.4775515624788,right,1,3,0.43705031590070575,C18D18,2022-10-20_12h22.58.609,t1_Paradigm,2021.1.4,60.28887402339225,
T,left,Distractor,0,40,40,40,2092.977557978593,2094.9775233318796,left,1,3,0.7611209204187617,C18D18,2022-10-20_12h22.58.609,t1_Paradigm,2021.1.4,60.28887402339225,
G,left,Distractor,0,41,41,41,2096.477152164094,2098.4778887253487,left,1,3,0.7968977167038247,C18D18,2022-10-20_12h22.58.609,t1_Paradigm,2021.1.4,60.28887402339225,
D,left,Distractor,0,42,42,42,2099.977177828201,2101.993714206503,left,1,3,0.6569799447897822,C18D18,2022-10-20_12h22.58.609,t1_Paradigm,2021.1.4,60.28887402339225,
S,left,Lure,0,43,43,43,2103.4774498682236,2105.4770010663196,left,1,3,1.205649771494791,C18D18,2022-10-20_12h22.58.609,t1_Paradigm,2021.1.4,60.28887402339225,
Z,left,Pretarget,0,44,44,44,2106.9775842842646,2108.9787853668677,left,1,3,0.6639830514322966,C18D18,2022-10-20_12h22.58.609,t1_Paradigm,2021.1.4,60.28887402339225,
J,left,Distractor,0,45,45,45,2110.47736100608,2112.477581717889,left,1,3,0.6848659754032269,C18D18,2022-10-20_12h22.58.609,t1_Paradigm,2021.1.4,60.28887402339225,
M,left,Pretarget,0,46,46,46,2113.9771784698823,2115.9774550010916,left,1,3,0.6572795737301931,C18D18,2022-10-20_12h22.58.609,t1_Paradigm,2021.1.4,60.28887402339225,
Z,right,Target,0,47,47,47,2117.477081266814,2119.4782448154874,right,1,3,0.8204166704090312,C18D18,2022-10-20_12h22.58.609,t1_Paradigm,2021.1.4,60.28887402339225,
P,left,Distractor,0,48,48,48,2120.9776673719753,2122.9781671814853,left,1,3,0.888523245928809,C18D18,2022-10-20_12h22.58.609,t1_Paradigm,2021.1.4,60.28887402339225,
M,right,Target,0,49,49,49,2124.4773074322147,2126.478103983449,right,1,3,0.6044649857794866,C18D18,2022-10-20_12h22.58.609,t1_Paradigm,2021.1.4,60.28887402339225,
K,left,Distractor,0,50,50,50,2127.9775069709867,2129.977423241711,left,1,3,0.6413167894352227,C18D18,2022-10-20_12h22.58.609,t1_Paradigm,2021.1.4,60.28887402339225,
Y,left,Distractor,0,51,51,51,2131.477376404684,2133.478220755351,left,1,3,0.7404895052313805,C18D18,2022-10-20_12h22.58.609,t1_Paradigm,2021.1.4,60.28887402339225,
X,left,Distractor,0,52,52,52,2134.9771341991145,2136.9779021990253,left,1,3,0.6490461917128414,C18D18,2022-10-20_12h22.58.609,t1_Paradigm,2021.1.4,60.28887402339225,
F,left,Pretarget,0,53,53,53,2138.4772535375087,2140.477575301891,right,0,3,1.3091658250195906,C18D18,2022-10-20_12h22.58.609,t1_Paradigm,2021.1.4,60.28887402339225,
M,left,Lure,0,54,54,54,2141.9773334171623,2143.978258930845,left,1,3,0.8965144226094708,C18D18,2022-10-20_12h22.58.609,t1_Paradigm,2021.1.4,60.28887402339225,
V,left,Distractor,0,55,55,55,2145.4773119234014,2147.479275231366,left,1,3,0.8193493622820824,C18D18,2022-10-20_12h22.58.609,t1_Paradigm,2021.1.4,60.28887402339225,
F,right,Target,0,56,56,56,2148.9771460688207,2150.977661918383,right,1,3,0.4250568139832467,C18D18,2022-10-20_12h22.58.609,t1_Paradigm,2021.1.4,60.28887402339225,
S,left,Distractor,0,57,57,57,2152.47756279062,2154.477434790577,left,1,3,0.829298714059405,C18D18,2022-10-20_12h22.58.609,t1_Paradigm,2021.1.4,60.28887402339225,
D,left,Distractor,0,58,58,58,2155.9775676026475,2157.9775714522693,left,1,3,1.0891008178004995,C18D18,2022-10-20_12h22.58.609,t1_Paradigm,2021.1.4,60.28887402339225,
F,right,Target,0,59,59,59,2159.4771649960894,2161.477188735502,right,1,3,1.1894726913888007,C18D18,2022-10-20_12h22.58.609,t1_Paradigm,2021.1.4,60.28887402339225,
V,left,Pretarget,0,60,60,60,2162.977348494809,2164.9775807554834,left,1,3,0.7291263793595135,C18D18,2022-10-20_12h22.58.609,t1_Paradigm,2021.1.4,60.28887402339225,
J,left,Distractor,0,61,61,61,2166.4770652267616,2168.4785341789247,left,1,3,0.7160707021830603,C18D18,2022-10-20_12h22.58.609,t1_Paradigm,2021.1.4,60.28887402339225,
V,left,Lure,0,62,62,62,2169.977333738003,2171.9784745096695,left,1,3,0.46430212107952684,C18D18,2022-10-20_12h22.58.609,t1_Paradigm,2021.1.4,60.28887402339225,
V,right,Target,0,63,63,63,2173.4774607755244,2175.4773488156497,right,1,3,0.48524246853776276,C18D18,2022-10-20_12h22.58.609,t1_Paradigm,2021.1.4,60.28887402339225,
R,left,Distractor,0,0,0,0,2283.175733064534,2285.1776142471936,None,0,4,,C18D18,2022-10-20_12h22.58.609,t1_Paradigm,2021.1.4,60.28887402339225,
F,left,Distractor,0,1,1,1,2286.677189505426,2288.6775847334648,None,0,4,,C18D18,2022-10-20_12h22.58.609,t1_Paradigm,2021.1.4,60.28887402339225,
P,left,Pretarget,0,2,2,2,2290.1771404227475,2292.1785012645414,None,0,4,,C18D18,2022-10-20_12h22.58.609,t1_Paradigm,2021.1.4,60.28887402339225,
H,left,Distractor,0,3,3,3,2293.677239871351,2295.6774442221504,None,0,4,,C18D18,2022-10-20_12h22.58.609,t1_Paradigm,2021.1.4,60.28887402339225,
Z,left,Distractor,0,4,4,4,2297.1770416157087,2299.1775568237063,left,1,4,0.6411230249796063,C18D18,2022-10-20_12h22.58.609,t1_Paradigm,2021.1.4,60.28887402339225,
T,left,Distractor,0,5,5,5,2300.677130798693,2302.6779908686876,left,1,4,0.7406970640877262,C18D18,2022-10-20_12h22.58.609,t1_Paradigm,2021.1.4,60.28887402339225,
P,right,Target,0,6,6,6,2304.1771936758887,2306.177809294779,right,1,4,0.5687459338223562,C18D18,2022-10-20_12h22.58.609,t1_Paradigm,2021.1.4,60.28887402339225,
G,left,Distractor,0,7,7,7,2307.677282538032,2309.6773470191984,left,1,4,0.573308699997142,C18D18,2022-10-20_12h22.58.609,t1_Paradigm,2021.1.4,60.28887402339225,
L,left,Distractor,0,8,8,8,2311.1773005028954,2313.177010818734,left,1,4,0.673507982166484,C18D18,2022-10-20_12h22.58.609,t1_Paradigm,2021.1.4,60.28887402339225,
P,left,Lure,0,9,9,9,2314.6772908788407,2316.6773790994193,left,1,4,0.9813819378614426,C18D18,2022-10-20_12h22.58.609,t1_Paradigm,2021.1.4,60.28887402339225,
Q,left,Pretarget,0,10,10,10,2318.1771760317497,2320.177476623212,left,1,4,0.7610121687175706,C18D18,2022-10-20_12h22.58.609,t1_Paradigm,2021.1.4,60.28887402339225,
D,left,Distractor,0,11,11,11,2321.6770852447953,2323.678761434974,left,1,4,0.8919522979995236,C18D18,2022-10-20_12h22.58.609,t1_Paradigm,2021.1.4,60.28887402339225,
M,left,Pretarget,0,12,12,12,2325.1772754803533,2327.1777945378562,left,1,4,0.5291217596968636,C18D18,2022-10-20_12h22.58.609,t1_Paradigm,2021.1.4,60.28887402339225,
C,left,Distractor,0,13,13,13,2328.6772020166973,2330.6774724527495,left,1,4,1.1732202229322866,C18D18,2022-10-20_12h22.58.609,t1_Paradigm,2021.1.4,60.28887402339225,
Q,right,Target,0,14,14,14,2332.177159350016,2334.178080372396,right,1,4,0.47256309213116765,C18D18,2022-10-20_12h22.58.609,t1_Paradigm,2021.1.4,60.28887402339225,
R,left,Distractor,0,15,15,15,2335.6775702973828,2337.677399309934,left,1,4,0.5892592938616872,C18D18,2022-10-20_12h22.58.609,t1_Paradigm,2021.1.4,60.28887402339225,
M,right,Target,0,16,16,16,2339.177501004073,2341.1791733447462,right,1,4,0.39933330938220024,C18D18,2022-10-20_12h22.58.609,t1_Paradigm,2021.1.4,60.28887402339225,
S,left,Distractor,0,17,17,17,2342.6771824477473,2344.677561956458,left,1,4,0.4849203833146021,C18D18,2022-10-20_12h22.58.609,t1_Paradigm,2021.1.4,60.28887402339225,
Z,left,Distractor,0,18,18,18,2346.17757510941,2348.177405405091,left,1,4,0.6171199812088162,C18D18,2022-10-20_12h22.58.609,t1_Paradigm,2021.1.4,60.28887402339225,
L,left,Pretarget,0,19,19,19,2349.6770149891963,2351.6773964227177,left,1,4,0.5252054095035419,C18D18,2022-10-20_12h22.58.609,t1_Paradigm,2021.1.4,60.28887402339225,
M,right,Target,0,20,20,20,2353.177095510415,2355.1772748387884,right,1,4,0.43331874744035304,C18D18,2022-10-20_12h22.58.609,t1_Paradigm,2021.1.4,60.28887402339225,
P,left,Distractor,0,21,21,21,2356.677572542918,2358.6788836605847,left,1,4,0.3557549304096028,C18D18,2022-10-20_12h22.58.609,t1_Paradigm,2021.1.4,60.28887402339225,
F,left,Distractor,0,22,22,22,2360.177293766057,2362.177047069301,left,1,4,0.6334776729345322,C18D18,2022-10-20_12h22.58.609,t1_Paradigm,2021.1.4,60.28887402339225,
L,right,Target,0,23,23,23,2363.6769758512964,2365.678411760833,right,1,4,0.5881993643706664,C18D18,2022-10-20_12h22.58.609,t1_Paradigm,2021.1.4,60.28887402339225,
L,left,Lure,0,24,24,24,2367.1769360718317,2369.1775722221937,left,1,4,0.5774152857484296,C18D18,2022-10-20_12h22.58.609,t1_Paradigm,2021.1.4,60.28887402339225,
V,left,Pretarget,0,25,25,25,2370.677380382549,2372.6780858261045,left,1,4,0.46833075187169015,C18D18,2022-10-20_12h22.58.609,t1_Paradigm,2021.1.4,60.28887402339225,
Z,left,Distractor,0,26,26,26,2374.1775263474556,2376.1785853146575,left,1,4,0.7599499933421612,C18D18,2022-10-20_12h22.58.609,t1_Paradigm,2021.1.4,60.28887402339225,
H,left,Distractor,0,27,27,27,2377.677180843777,2379.6774573749863,left,1,4,0.6850738551001996,C18D18,2022-10-20_12h22.58.609,t1_Paradigm,2021.1.4,60.28887402339225,
X,left,Distractor,0,28,28,28,2381.177224793588,2383.177452562959,left,1,4,0.5610649726586416,C18D18,2022-10-20_12h22.58.609,t1_Paradigm,2021.1.4,60.28887402339225,
V,right,Target,0,29,29,29,2384.677178277285,2386.6787380164023,right,1,4,0.8518626403529197,C18D18,2022-10-20_12h22.58.609,t1_Paradigm,2021.1.4,60.28887402339225,
C,left,Distractor,0,30,30,30,2388.1774272196926,2390.1788166129263,left,1,4,0.6637783797923476,C18D18,2022-10-20_12h22.58.609,t1_Paradigm,2021.1.4,60.28887402339225,
S,left,Pretarget,0,31,31,31,2391.677498437697,2393.677696051658,left,1,4,0.5410414771176875,C18D18,2022-10-20_12h22.58.609,t1_Paradigm,2021.1.4,60.28887402339225,
D,left,Distractor,0,32,32,32,2395.177235380048,2397.177443259745,left,1,4,0.7211653579724953,C18D18,2022-10-20_12h22.58.609,t1_Paradigm,2021.1.4,60.28887402339225,
V,left,Distractor,0,33,33,33,2398.6771615956677,2400.6789189487463,right,0,4,0.403646812424995,C18D18,2022-10-20_12h22.58.609,t1_Paradigm,2021.1.4,60.28887402339225,
R,left,Distractor,0,34,34,34,2402.177428182098,2404.1788310490083,left,1,4,0.5996564853703603,C18D18,2022-10-20_12h22.58.609,t1_Paradigm,2021.1.4,60.28887402339225,
S,right,Target,0,35,35,35,2405.6774750191253,2407.678601996391,right,1,4,0.4598423322895542,C18D18,2022-10-20_12h22.58.609,t1_Paradigm,2021.1.4,60.28887402339225,
Y,left,Distractor,0,36,36,36,2409.177315259818,2411.1789240816142,left,1,4,0.7358468594029546,C18D18,2022-10-20_12h22.58.609,t1_Paradigm,2021.1.4,60.28887402339225,
N,left,Pretarget,0,37,37,37,2412.6772835004376,2414.6773322622757,left,1,4,0.597379753831774,C18D18,2022-10-20_12h22.58.609,t1_Paradigm,2021.1.4,60.28887402339225,
Z,left,Pretarget,0,38,38,38,2416.17713689385,2418.177612001542,right,0,4,0.8890102233272046,C18D18,2022-10-20_12h22.58.609,t1_Paradigm,2021.1.4,60.28887402339225,
P,left,Pretarget,0,39,39,39,2419.677603339893,2421.6790562520036,left,1,4,0.6994890907080844,C18D18,2022-10-20_12h22.58.609,t1_Paradigm,2021.1.4,60.28887402339225,
M,left,Distractor,0,40,40,40,2423.1771981670754,2425.1774442221504,left,1,4,0.6571698595071211,C18D18,2022-10-20_12h22.58.609,t1_Paradigm,2021.1.4,60.28887402339225,
N,right,Target,0,41,41,41,2426.677161274827,2428.677258157055,left,0,4,0.693426254671067,C18D18,2022-10-20_12h22.58.609,t1_Paradigm,2021.1.4,60.28887402339225,
Z,right,Target,0,42,42,42,2430.177119891392,2432.1774615454488,right,1,4,0.4891819164622575,C18D18,2022-10-20_12h22.58.609,t1_Paradigm,2021.1.4,60.28887402339225,
P,right,Target,0,43,43,43,2433.676913615782,2435.6780614451272,right,1,4,0.5405849759699777,C18D18,2022-10-20_12h22.58.609,t1_Paradigm,2021.1.4,60.28887402339225,
X,left,Pretarget,0,44,44,44,2437.1771891845856,2439.177501004073,left,1,4,0.6570242154411972,C18D18,2022-10-20_12h22.58.609,t1_Paradigm,2021.1.4,60.28887402339225,
Z,left,Lure,0,45,45,45,2440.677144913934,2442.6777210742002,left,1,4,0.45273945620283484,C18D18,2022-10-20_12h22.58.609,t1_Paradigm,2021.1.4,60.28887402339225,
R,left,Pretarget,0,46,46,46,2444.176993174595,2446.1773091645446,left,1,4,0.5693018836900592,C18D18,2022-10-20_12h22.58.609,t1_Paradigm,2021.1.4,60.28887402339225,
K,left,Distractor,0,47,47,47,2447.6773771746084,2449.6777813850204,left,1,4,0.5888724067481235,C18D18,2022-10-20_12h22.58.609,t1_Paradigm,2021.1.4,60.28887402339225,
X,right,Target,0,48,48,48,2451.1770817158977,2453.1788528634934,right,1,4,0.39963358000386506,C18D18,2022-10-20_12h22.58.609,t1_Paradigm,2021.1.4,60.28887402339225,
B,left,Distractor,0,49,49,49,2454.6772546281572,2456.6775289138313,left,1,4,0.4688863808987662,C18D18,2022-10-20_12h22.58.609,t1_Paradigm,2021.1.4,60.28887402339225,
R,right,Target,0,50,50,50,2458.177478548023,2460.177637024084,right,1,4,0.5848527583293617,C18D18,2022-10-20_12h22.58.609,t1_Paradigm,2021.1.4,60.28887402339225,
Y,left,Pretarget,0,51,51,51,2461.676894367556,2463.6768520217156,left,1,4,0.5417071412084624,C18D18,2022-10-20_12h22.58.609,t1_Paradigm,2021.1.4,60.28887402339225,
W,left,Pretarget,0,52,52,52,2465.17705573095,2467.176886989153,left,1,4,0.9459791965782642,C18D18,2022-10-20_12h22.58.609,t1_Paradigm,2021.1.4,60.28887402339225,
Z,left,Distractor,0,53,53,53,2468.677151329932,2470.6773431695765,left,1,4,0.5973803955130279,C18D18,2022-10-20_12h22.58.609,t1_Paradigm,2021.1.4,60.28887402339225,
Q,left,Distractor,0,54,54,54,2472.177552973968,2474.1774653950706,left,1,4,0.6010147607885301,C18D18,2022-10-20_12h22.58.609,t1_Paradigm,2021.1.4,60.28887402339225,
Y,right,Target,0,55,55,55,2475.6771673701005,2477.6778368836967,right,1,4,0.636681201052852,C18D18,2022-10-20_12h22.58.609,t1_Paradigm,2021.1.4,60.28887402339225,
W,right,Target,0,56,56,56,2479.1768966132076,2481.1781265679747,left,0,4,0.8325263025471941,C18D18,2022-10-20_12h22.58.609,t1_Paradigm,2021.1.4,60.28887402339225,
H,left,Pretarget,0,57,57,57,2482.6769947786815,2484.677430427633,left,1,4,0.5330268818652257,C18D18,2022-10-20_12h22.58.609,t1_Paradigm,2021.1.4,60.28887402339225,
M,left,Distractor,0,58,58,58,2486.1770505981985,2488.17813939997,left,1,4,0.58432824711781,C18D18,2022-10-20_12h22.58.609,t1_Paradigm,2021.1.4,60.28887402339225,
R,left,Pretarget,0,59,59,59,2489.6772571946494,2491.677265535458,left,1,4,0.5253029332961887,C18D18,2022-10-20_12h22.58.609,t1_Paradigm,2021.1.4,60.28887402339225,
J,left,Distractor,0,60,60,60,2493.1768805731554,2495.177405405091,left,1,4,0.49730879242997617,C18D18,2022-10-20_12h22.58.609,t1_Paradigm,2021.1.4,60.28887402339225,
H,right,Target,0,61,61,61,2496.6772677811095,2498.677178918966,right,1,4,0.5815645382972434,C18D18,2022-10-20_12h22.58.609,t1_Paradigm,2021.1.4,60.28887402339225,
Z,left,Distractor,0,62,62,62,2500.1772219063714,2502.1936187358806,left,1,4,0.5209339314606041,C18D18,2022-10-20_12h22.58.609,t1_Paradigm,2021.1.4,60.28887402339225,
R,right,Target,0,63,63,63,2503.6774188787676,2505.67793472833,right,1,4,0.47643517167307436,C18D18,2022-10-20_12h22.58.609,t1_Paradigm,2021.1.4,60.28887402339225,
J,left,Pretarget,0,0,0,0,2513.125230496167,2515.127174876863,None,0,4,,C18D18,2022-10-20_12h22.58.609,t1_Paradigm,2021.1.4,60.28887402339225,
G,left,Pretarget,0,1,1,1,2516.6273817941546,2518.627668911824,None,0,4,,C18D18,2022-10-20_12h22.58.609,t1_Paradigm,2021.1.4,60.28887402339225,
Z,left,Distractor,0,2,2,2,2520.127252831706,2522.12844685663,None,0,4,,C18D18,2022-10-20_12h22.58.609,t1_Paradigm,2021.1.4,60.28887402339225,
F,left,Distractor,0,3,3,3,2523.6271280397195,2525.628874485614,None,0,4,,C18D18,2022-10-20_12h22.58.609,t1_Paradigm,2021.1.4,60.28887402339225,
J,right,Target,0,4,4,4,2527.1270988468314,2529.127794024651,right,1,4,0.5148409400135279,C18D18,2022-10-20_12h22.58.609,t1_Paradigm,2021.1.4,60.28887402339225,
G,right,Target,0,5,5,5,2530.6270144758746,2532.6275887113297,left,0,4,0.48684776155278087,C18D18,2022-10-20_12h22.58.609,t1_Paradigm,2021.1.4,60.28887402339225,
H,left,Distractor,0,6,6,6,2534.1269503154326,2536.128102636081,left,1,4,0.6667865396011621,C18D18,2022-10-20_12h22.58.609,t1_Paradigm,2021.1.4,60.28887402339225,
P,left,Distractor,0,7,7,7,2537.627047518501,2539.626920480863,left,1,4,0.5115126197924837,C18D18,2022-10-20_12h22.58.609,t1_Paradigm,2021.1.4,60.28887402339225,
G,left,Lure,0,8,8,8,2541.1272749670316,2543.1263943656813,left,1,4,0.5162989848759025,C18D18,2022-10-20_12h22.58.609,t1_Paradigm,2021.1.4,60.28887402339225,
S,left,Distractor,0,9,9,9,2544.6274148366647,2546.6273830772843,left,1,4,0.5349574681604281,C18D18,2022-10-20_12h22.58.609,t1_Paradigm,2021.1.4,60.28887402339225,
R,left,Pretarget,0,10,10,10,2548.127125152503,2550.1273923806148,left,1,4,0.5072469160659239,C18D18,2022-10-20_12h22.58.609,t1_Paradigm,2021.1.4,60.28887402339225,
T,left,Pretarget,0,11,11,11,2551.6270346863894,2553.628666605917,left,1,4,0.4942566826939583,C18D18,2022-10-20_12h22.58.609,t1_Paradigm,2021.1.4,60.28887402339225,
X,left,Distractor,0,12,12,12,2555.12703500723,2557.127043668879,left,1,4,0.8035020666429773,C18D18,2022-10-20_12h22.58.609,t1_Paradigm,2021.1.4,60.28887402339225,
F,left,Pretarget,0,13,13,13,2558.627069332986,2560.628254696261,left,1,4,0.518078473280184,C18D18,2022-10-20_12h22.58.609,t1_Paradigm,2021.1.4,60.28887402339225,
R,right,Target,0,14,14,14,2562.126934596221,2564.127436651266,right,1,4,0.411046109511517,C18D18,2022-10-20_12h22.58.609,t1_Paradigm,2021.1.4,60.28887402339225,
T,right,Target,0,15,15,15,2565.627185784164,2567.6271508167265,right,1,4,0.43156107363756746,C18D18,2022-10-20_12h22.58.609,t1_Paradigm,2021.1.4,60.28887402339225,
C,left,Distractor,0,16,16,16,2569.1269285009475,2571.1278447113,left,1,4,0.4345884816721082,C18D18,2022-10-20_12h22.58.609,t1_Paradigm,2021.1.4,60.28887402339225,
F,right,Target,0,17,17,17,2572.627092109993,2574.6289758590283,left,0,4,0.6617432121420279,C18D18,2022-10-20_12h22.58.609,t1_Paradigm,2021.1.4,60.28887402339225,
M,left,Distractor,0,18,18,18,2576.1271004508017,2578.1281408115756,left,1,4,0.506528319674544,C18D18,2022-10-20_12h22.58.609,t1_Paradigm,2021.1.4,60.28887402339225,
N,left,Distractor,0,19,19,19,2579.6269945862005,2581.6270000397926,left,1,4,0.39977377047762275,C18D18,2022-10-20_12h22.58.609,t1_Paradigm,2021.1.4,60.28887402339225,
R,left,Lure,0,20,20,20,2583.1273731325055,2585.1276105259312,left,1,4,0.7549207812407985,C18D18,2022-10-20_12h22.58.609,t1_Paradigm,2021.1.4,60.28887402339225,
F,right,Target,0,21,21,21,2586.6270032478496,2588.6276336236624,right,1,4,0.5035676384577528,C18D18,2022-10-20_12h22.58.609,t1_Paradigm,2021.1.4,60.28887402339225,
P,left,Distractor,0,22,22,22,2590.1273452226305,2592.1275903154165,left,1,4,0.7311323538888246,C18D18,2022-10-20_12h22.58.609,t1_Paradigm,2021.1.4,60.28887402339225,
L,left,Pretarget,0,23,23,23,2593.627337523387,2595.6272894031135,left,1,4,0.559076321311295,C18D18,2022-10-20_12h22.58.609,t1_Paradigm,2021.1.4,60.28887402339225,
T,left,Distractor,0,24,24,24,2597.127401042264,2599.1272586061386,left,1,4,0.46721019071992487,C18D18,2022-10-20_12h22.58.609,t1_Paradigm,2021.1.4,60.28887402339225,
F,left,Distractor,0,25,25,25,2600.627452370478,2602.628894375288,right,0,4,0.7895805450389162,C18D18,2022-10-20_12h22.58.609,t1_Paradigm,2021.1.4,60.28887402339225,
V,left,Distractor,0,26,26,26,2604.1274292727467,2606.128246676177,left,1,4,0.42656843282748014,C18D18,2022-10-20_12h22.58.609,t1_Paradigm,2021.1.4,60.28887402339225,
L,right,Target,0,27,27,27,2607.627499528462,2609.627957312856,right,1,4,0.3350689788348973,C18D18,2022-10-20_12h22.58.609,t1_Paradigm,2021.1.4,60.28887402339225,
S,left,Pretarget,0,28,28,28,2611.1270795986056,2613.127501773997,left,1,4,0.3870866948273033,C18D18,2022-10-20_12h22.58.609,t1_Paradigm,2021.1.4,60.28887402339225,
W,left,Distractor,0,29,29,29,2614.6271633279976,2616.6274414632935,left,1,4,0.43916792958043516,C18D18,2022-10-20_12h22.58.609,t1_Paradigm,2021.1.4,60.28887402339225,
Q,left,Distractor,0,30,30,30,2618.1272367916536,2620.127503698808,left,1,4,0.6189588180277497,C18D18,2022-10-20_12h22.58.609,t1_Paradigm,2021.1.4,60.28887402339225,
L,right,Target,0,31,31,31,2621.6270276287105,2623.6400111253606,right,1,4,0.38673669984564185,C18D18,2022-10-20_12h22.58.609,t1_Paradigm,2021.1.4,60.28887402339225,
S,right,Target,0,32,32,32,2625.127132210182,2627.127937102341,right,1,4,0.4665355442557484,C18D18,2022-10-20_12h22.58.609,t1_Paradigm,2021.1.4,60.28887402339225,
Z,left,Pretarget,0,33,33,33,2628.626871077344,2630.6269849620294,left,1,4,0.5353587912395597,C18D18,2022-10-20_12h22.58.609,t1_Paradigm,2021.1.4,60.28887402339225,
F,left,Distractor,0,34,34,34,2632.127023137524,2634.127876149956,left,1,4,0.5067310666199774,C18D18,2022-10-20_12h22.58.609,t1_Paradigm,2021.1.4,60.28887402339225,
V,left,Distractor,0,35,35,35,2635.6270491224714,2637.6292665055953,left,1,4,0.5251479858998209,C18D18,2022-10-20_12h22.58.609,t1_Paradigm,2021.1.4,60.28887402339225,
M,left,Distractor,0,36,36,36,2639.127408420667,2641.1272047114326,left,1,4,0.8033201718935743,C18D18,2022-10-20_12h22.58.609,t1_Paradigm,2021.1.4,60.28887402339225,
Z,right,Target,0,37,37,37,2642.6271187365055,2644.628193102195,right,1,4,0.5664679191540927,C18D18,2022-10-20_12h22.58.609,t1_Paradigm,2021.1.4,60.28887402339225,
H,left,Pretarget,0,38,38,38,2646.127193162567,2648.1279454431497,left,1,4,0.7788291884353384,C18D18,2022-10-20_12h22.58.609,t1_Paradigm,2021.1.4,60.28887402339225,
L,left,Distractor,0,39,39,39,2649.6275242301635,2651.6266580648953,right,0,4,0.8158962500747293,C18D18,2022-10-20_12h22.58.609,t1_Paradigm,2021.1.4,60.28887402339225,
G,left,Distractor,0,40,40,40,2653.126927538542,2655.127100129961,left,1,4,0.5957221700809896,C18D18,2022-10-20_12h22.58.609,t1_Paradigm,2021.1.4,60.28887402339225,
K,left,Distractor,0,41,41,41,2656.626633683918,2658.626916310517,left,1,4,0.439590104855597,C18D18,2022-10-20_12h22.58.609,t1_Paradigm,2021.1.4,60.28887402339225,
H,right,Target,0,42,42,42,2660.126842846861,2662.1280051122885,right,1,4,0.7146643063751981,C18D18,2022-10-20_12h22.58.609,t1_Paradigm,2021.1.4,60.28887402339225,
B,left,Distractor,0,43,43,43,2663.627183859353,2665.6281007112702,left,1,4,0.5263378403615206,C18D18,2022-10-20_12h22.58.609,t1_Paradigm,2021.1.4,60.28887402339225,
Z,left,Distractor,0,44,44,44,2667.1274000798585,2669.128495939309,left,1,4,1.0900426922598854,C18D18,2022-10-20_12h22.58.609,t1_Paradigm,2021.1.4,60.28887402339225,
T,left,Pretarget,0,45,45,45,2670.626989774173,2672.627350676339,left,1,4,0.8233135120244697,C18D18,2022-10-20_12h22.58.609,t1_Paradigm,2021.1.4,60.28887402339225,
H,right,Target,0,46,46,46,2674.1271075084805,2676.1278370120563,right,1,4,0.5227294600335881,C18D18,2022-10-20_12h22.58.609,t1_Paradigm,2021.1.4,60.28887402339225,
F,left,Distractor,0,47,47,47,2677.6272319796262,2679.6279711072566,left,1,4,0.5905611081980169,C18D18,2022-10-20_12h22.58.609,t1_Paradigm,2021.1.4,60.28887402339225,
R,left,Distractor,0,48,48,48,2681.127323728986,2683.128047458129,left,1,4,0.5787655411986634,C18D18,2022-10-20_12h22.58.609,t1_Paradigm,2021.1.4,60.28887402339225,
T,right,Target,0,49,49,49,2684.627409062232,2686.628669493133,right,1,4,0.5981243351707235,C18D18,2022-10-20_12h22.58.609,t1_Paradigm,2021.1.4,60.28887402339225,
H,right,Target,0,50,50,50,2688.1271581951296,2690.1268765310524,right,1,4,0.7318278525490314,C18D18,2022-10-20_12h22.58.609,t1_Paradigm,2021.1.4,60.28887402339225,
Y,left,Pretarget,0,51,51,51,2691.626870435779,2693.628834064584,left,1,4,0.605727662332356,C18D18,2022-10-20_12h22.58.609,t1_Paradigm,2021.1.4,60.28887402339225,
H,left,Distractor,0,52,52,52,2695.127063879394,2697.1268813430797,left,1,4,0.8675469686277211,C18D18,2022-10-20_12h22.58.609,t1_Paradigm,2021.1.4,60.28887402339225,
S,left,Distractor,0,53,53,53,2698.6270795986056,2700.627368962043,left,1,4,0.6473231643904,C18D18,2022-10-20_12h22.58.609,t1_Paradigm,2021.1.4,60.28887402339225,
Q,left,Distractor,0,54,54,54,2702.1269073280273,2704.127997413045,left,1,4,0.6185337554197758,C18D18,2022-10-20_12h22.58.609,t1_Paradigm,2021.1.4,60.28887402339225,
Y,right,Target,0,55,55,55,2705.626929463353,2707.62864094181,right,1,4,0.39832150004804134,C18D18,2022-10-20_12h22.58.609,t1_Paradigm,2021.1.4,60.28887402339225,
R,left,Distractor,0,56,56,56,2709.1271581951296,2711.12896912219,left,1,4,0.513511857483536,C18D18,2022-10-20_12h22.58.609,t1_Paradigm,2021.1.4,60.28887402339225,
H,left,Pretarget,0,57,57,57,2712.6269047616515,2714.6271068667993,left,1,4,0.8873892109841108,C18D18,2022-10-20_12h22.58.609,t1_Paradigm,2021.1.4,60.28887402339225,
J,left,Distractor,0,58,58,58,2716.1269461450865,2718.127273683902,left,1,4,0.6671204944141209,C18D18,2022-10-20_12h22.58.609,t1_Paradigm,2021.1.4,60.28887402339225,
V,left,Distractor,0,59,59,59,2719.6271633279976,2721.6277972325915,left,1,4,0.5585206924006343,C18D18,2022-10-20_12h22.58.609,t1_Paradigm,2021.1.4,60.28887402339225,
Y,left,Lure,0,60,60,60,2723.127143438207,2725.1284661047393,left,1,4,0.5621829674346372,C18D18,2022-10-20_12h22.58.609,t1_Paradigm,2021.1.4,60.28887402339225,
H,right,Target,0,61,61,61,2726.627115849289,2728.6285902550444,right,1,4,0.5178006588248536,C18D18,2022-10-20_12h22.58.609,t1_Paradigm,2021.1.4,60.28887402339225,
L,left,Distractor,0,62,62,62,2730.127189312945,2732.127854977036,left,1,4,0.5546887130476534,C18D18,2022-10-20_12h22.58.609,t1_Paradigm,2021.1.4,60.28887402339225,
P,left,Distractor,0,63,63,63,2733.6270866562845,2735.627090185182,left,1,4,0.7034798671957105,C18D18,2022-10-20_12h22.58.609,t1_Paradigm,2021.1.4,60.28887402339225,
