Letter,CorrAnswer,Stimulus,finaln_nback_run.thisRepN,finaln_nback_run.thisTrialN,finaln_nback_run.thisN,finaln_nback_run.thisIndex,finaln_fixcross.started,finaln_nback_trial.started,finaln_trial_resp.keys,finaln_trial_resp.corr,finaln_trial_resp.rt,finaln_level,finaln_money,Participant,date,expName,psychopyVersion,frameRate,
T,left,Distractor,0,0,0,0,3338.025141569902,3340.0266775696073,left,1,0.6078773561166599,0,3.0,C18D18,2022-10-20_12h22.58.609,t1_Paradigm,2021.1.4,60.28887402339225,
F,left,Distractor,0,1,1,1,3341.5269393440103,3343.52670291299,left,1,0.691700660972856,0,3.0,C18D18,2022-10-20_12h22.58.609,t1_Paradigm,2021.1.4,60.28887402339225,
G,left,Distractor,0,2,2,2,3345.0268979605753,3347.028182772454,left,1,0.5502440019045025,0,3.0,C18D18,2022-10-20_12h22.58.609,t1_Paradigm,2021.1.4,60.28887402339225,
V,left,Distractor,0,3,3,3,3348.5268257801654,3350.527217158582,left,1,0.6351580334594473,0,3.0,C18D18,2022-10-20_12h22.58.609,t1_Paradigm,2021.1.4,60.28887402339225,
H,left,Distractor,0,4,4,4,3352.0268437450286,3354.0286582008703,left,1,0.8139197892742231,0,3.0,C18D18,2022-10-20_12h22.58.609,t1_Paradigm,2021.1.4,60.28887402339225,
C,left,Pretarget,0,5,5,5,3355.527051303885,3357.526959554525,left,1,0.5476464685052633,0,3.0,C18D18,2022-10-20_12h22.58.609,t1_Paradigm,2021.1.4,60.28887402339225,
C,right,Target,0,6,6,6,3359.0269040558487,3361.0268854493042,right,1,1.0157510550925508,0,3.0,C18D18,2022-10-20_12h22.58.609,t1_Paradigm,2021.1.4,60.28887402339225,
C,right,Target,0,7,7,7,3362.5271825119853,3364.5268305921927,right,1,0.9076013381127268,0,3.0,C18D18,2022-10-20_12h22.58.609,t1_Paradigm,2021.1.4,60.28887402339225,
W,left,Distractor,0,8,8,8,3366.026754562161,3368.026935815229,left,1,0.7674609295791015,0,3.0,C18D18,2022-10-20_12h22.58.609,t1_Paradigm,2021.1.4,60.28887402339225,
R,left,Pretarget,0,9,9,9,3369.5270378302084,3371.527059965534,left,1,0.6119268392212689,0,3.0,C18D18,2022-10-20_12h22.58.609,t1_Paradigm,2021.1.4,60.28887402339225,
R,right,Target,0,10,10,10,3373.026806532056,3375.0272331986343,right,1,1.1111716714221984,0,3.0,C18D18,2022-10-20_12h22.58.609,t1_Paradigm,2021.1.4,60.28887402339225,
Z,left,Distractor,0,11,11,11,3376.5268437450286,3378.5271074442426,left,1,0.6993463339749724,0,3.0,C18D18,2022-10-20_12h22.58.609,t1_Paradigm,2021.1.4,60.28887402339225,
R,left,Lure,0,12,12,12,3380.0269066222245,3382.028704396449,left,1,0.8778559393249452,0,3.0,C18D18,2022-10-20_12h22.58.609,t1_Paradigm,2021.1.4,60.28887402339225,
H,left,Pretarget,0,13,13,13,3383.526709970669,3385.527578702313,left,1,0.5309859398985282,0,3.0,C18D18,2022-10-20_12h22.58.609,t1_Paradigm,2021.1.4,60.28887402339225,
H,right,Target,0,14,14,14,3387.0273121158825,3389.026699704933,right,1,0.871739529306069,0,3.0,C18D18,2022-10-20_12h22.58.609,t1_Paradigm,2021.1.4,60.28887402339225,
K,left,Distractor,0,15,15,15,3390.52717256709,3392.5272367274156,None,0,,0,3.0,C18D18,2022-10-20_12h22.58.609,t1_Paradigm,2021.1.4,60.28887402339225,
J,left,Distractor,0,16,16,16,3394.026989709935,3396.027183795115,left,1,0.8313791147666052,0,3.0,C18D18,2022-10-20_12h22.58.609,t1_Paradigm,2021.1.4,60.28887402339225,
H,left,Lure,0,17,17,17,3397.526775735081,3399.5271446573315,left,1,0.5635511878645048,0,3.0,C18D18,2022-10-20_12h22.58.609,t1_Paradigm,2021.1.4,60.28887402339225,
S,left,Distractor,0,18,18,18,3401.0269223415526,3403.0455728047527,left,1,0.7410034300992265,0,3.0,C18D18,2022-10-20_12h22.58.609,t1_Paradigm,2021.1.4,60.28887402339225,
T,left,Pretarget,0,19,19,19,3404.527131183655,3406.527345800074,left,1,0.634958173846826,0,3.0,C18D18,2022-10-20_12h22.58.609,t1_Paradigm,2021.1.4,60.28887402339225,
T,right,Target,0,20,20,20,3408.0268812788418,3410.027122201165,right,1,0.5753932711668313,0,3.0,C18D18,2022-10-20_12h22.58.609,t1_Paradigm,2021.1.4,60.28887402339225,
X,left,Pretarget,0,21,21,21,3411.5268418202177,3413.5267523165094,left,1,0.7396560618653893,0,3.0,C18D18,2022-10-20_12h22.58.609,t1_Paradigm,2021.1.4,60.28887402339225,
X,right,Target,0,22,22,22,3415.0266515846597,3417.0269476849353,right,1,0.7915919732768089,0,3.0,C18D18,2022-10-20_12h22.58.609,t1_Paradigm,2021.1.4,60.28887402339225,
W,left,Distractor,0,23,23,23,3418.5271703214385,3420.526914321468,left,1,0.795408554142341,0,3.0,C18D18,2022-10-20_12h22.58.609,t1_Paradigm,2021.1.4,60.28887402339225,
K,left,Distractor,0,24,24,24,3422.0268710132223,3424.027168717468,left,1,0.575306975399144,0,3.0,C18D18,2022-10-20_12h22.58.609,t1_Paradigm,2021.1.4,60.28887402339225,
F,left,Pretarget,0,25,25,25,3425.526656396687,3427.527097178623,left,1,0.5956785409944132,0,3.0,C18D18,2022-10-20_12h22.58.609,t1_Paradigm,2021.1.4,60.28887402339225,
F,right,Target,0,26,26,26,3429.0267972287256,3431.0272036849055,right,1,0.7593568306183442,0,3.0,C18D18,2022-10-20_12h22.58.609,t1_Paradigm,2021.1.4,60.28887402339225,
Z,left,Distractor,0,27,27,27,3432.5271026322152,3434.5273368177004,left,1,0.5071513172006235,0,3.0,C18D18,2022-10-20_12h22.58.609,t1_Paradigm,2021.1.4,60.28887402339225,
F,left,Lure,0,28,28,28,3436.0268828829285,3438.0272505219327,left,1,0.8634131146827713,0,3.0,C18D18,2022-10-20_12h22.58.609,t1_Paradigm,2021.1.4,60.28887402339225,
P,left,Distractor,0,29,29,29,3439.526735634776,3441.527151073329,left,1,0.6273150672204792,0,3.0,C18D18,2022-10-20_12h22.58.609,t1_Paradigm,2021.1.4,60.28887402339225,
F,left,Lure,0,30,30,30,3443.0266249581473,3445.0270047876984,left,1,0.9353738048812374,0,3.0,C18D18,2022-10-20_12h22.58.609,t1_Paradigm,2021.1.4,60.28887402339225,
R,left,Distractor,0,31,31,31,3446.5268645972246,3448.5271388828987,left,1,1.0994787609670311,0,3.0,C18D18,2022-10-20_12h22.58.609,t1_Paradigm,2021.1.4,60.28887402339225,
V,left,Distractor,0,32,32,32,3450.0268870532745,3452.027063815156,left,1,0.4475212915567681,0,3.0,C18D18,2022-10-20_12h22.58.609,t1_Paradigm,2021.1.4,60.28887402339225,
M,left,Pretarget,0,33,33,33,3453.527145940461,3455.52704905835,left,1,0.4996166416676715,0,3.0,C18D18,2022-10-20_12h22.58.609,t1_Paradigm,2021.1.4,60.28887402339225,
M,right,Target,0,34,34,34,3457.0269079054706,3459.027196306386,right,1,1.2232707812217996,0,3.0,C18D18,2022-10-20_12h22.58.609,t1_Paradigm,2021.1.4,60.28887402339225,
M,right,Target,0,35,35,35,3460.526663454366,3462.527018261375,right,1,0.6192950183758512,0,3.0,C18D18,2022-10-20_12h22.58.609,t1_Paradigm,2021.1.4,60.28887402339225,
D,left,Distractor,0,36,36,36,3464.0268289882224,3466.0263195546577,left,1,0.7200970874400809,0,3.0,C18D18,2022-10-20_12h22.58.609,t1_Paradigm,2021.1.4,60.28887402339225,
M,left,Lure,0,37,37,37,3467.526769318967,3469.5267250483157,left,1,1.0598305267049,0,3.0,C18D18,2022-10-20_12h22.58.609,t1_Paradigm,2021.1.4,60.28887402339225,
F,left,Distractor,0,38,38,38,3471.02684438671,3473.0270926874364,left,1,0.9995329123921692,0,3.0,C18D18,2022-10-20_12h22.58.609,t1_Paradigm,2021.1.4,60.28887402339225,
T,left,Pretarget,0,39,39,39,3474.5269310032018,3476.526719915564,left,1,1.1478524876292795,0,3.0,C18D18,2022-10-20_12h22.58.609,t1_Paradigm,2021.1.4,60.28887402339225,
T,right,Target,0,40,40,40,3478.0268620307324,3480.026820326573,left,0,1.4556356562534347,0,3.0,C18D18,2022-10-20_12h22.58.609,t1_Paradigm,2021.1.4,60.28887402339225,
Z,left,Distractor,0,41,41,41,3481.5271074442426,3483.5270718352403,left,1,0.8673038007691503,0,3.0,C18D18,2022-10-20_12h22.58.609,t1_Paradigm,2021.1.4,60.28887402339225,
S,left,Distractor,0,42,42,42,3485.02689571504,3487.027237689821,left,1,0.6793754498939961,0,3.0,C18D18,2022-10-20_12h22.58.609,t1_Paradigm,2021.1.4,60.28887402339225,
D,left,Distractor,0,43,43,43,3488.5267892087577,3490.5271504317643,left,1,0.6191336550982669,0,3.0,C18D18,2022-10-20_12h22.58.609,t1_Paradigm,2021.1.4,60.28887402339225,
Y,left,Pretarget,0,44,44,44,3492.026868126006,3494.0271860407665,left,1,0.6072902885498479,0,3.0,C18D18,2022-10-20_12h22.58.609,t1_Paradigm,2021.1.4,60.28887402339225,
Y,right,Target,0,45,45,45,3495.5266118053114,3497.5268973190105,right,1,0.3555271609220654,0,3.0,C18D18,2022-10-20_12h22.58.609,t1_Paradigm,2021.1.4,60.28887402339225,
Z,left,Pretarget,0,46,46,46,3499.026758411783,3501.0271565269213,left,1,0.6634216479724273,0,3.0,C18D18,2022-10-20_12h22.58.609,t1_Paradigm,2021.1.4,60.28887402339225,
Z,right,Target,0,47,47,47,3502.5268848077394,3504.5266028228216,right,1,0.6197986775077879,0,3.0,C18D18,2022-10-20_12h22.58.609,t1_Paradigm,2021.1.4,60.28887402339225,
H,left,Pretarget,0,48,48,48,3506.026803323999,3508.026768998243,left,1,0.5757294715149328,0,3.0,C18D18,2022-10-20_12h22.58.609,t1_Paradigm,2021.1.4,60.28887402339225,
H,right,Target,0,49,49,49,3509.526701629744,3511.5269117550924,right,1,0.8196294223889709,0,3.0,C18D18,2022-10-20_12h22.58.609,t1_Paradigm,2021.1.4,60.28887402339225,
Z,left,Lure,0,50,50,50,3513.026801078464,3515.027074401616,left,1,0.5997257785638794,0,3.0,C18D18,2022-10-20_12h22.58.609,t1_Paradigm,2021.1.4,60.28887402339225,
R,left,Distractor,0,51,51,51,3516.5271112938644,3518.5275369980372,left,1,0.5707888005999848,0,3.0,C18D18,2022-10-20_12h22.58.609,t1_Paradigm,2021.1.4,60.28887402339225,
H,left,Lure,0,52,52,52,3520.0268934693886,3522.027120597195,left,1,0.9913941667182371,0,3.0,C18D18,2022-10-20_12h22.58.609,t1_Paradigm,2021.1.4,60.28887402339225,
L,left,Distractor,0,53,53,53,3523.526635223767,3525.5265620809514,left,1,0.5480015962384641,0,3.0,C18D18,2022-10-20_12h22.58.609,t1_Paradigm,2021.1.4,60.28887402339225,
N,left,Pretarget,0,54,54,54,3527.0266284869285,3529.0272181209875,left,1,0.5191711247898638,0,3.0,C18D18,2022-10-20_12h22.58.609,t1_Paradigm,2021.1.4,60.28887402339225,
N,right,Target,0,55,55,55,3530.5266496598488,3532.52683540422,left,0,0.6834756197640672,0,3.0,C18D18,2022-10-20_12h22.58.609,t1_Paradigm,2021.1.4,60.28887402339225,
W,left,Distractor,0,56,56,56,3534.0267321059946,3536.026820326573,left,1,0.6236733235418797,0,3.0,C18D18,2022-10-20_12h22.58.609,t1_Paradigm,2021.1.4,60.28887402339225,
R,left,Pretarget,0,57,57,57,3537.5271947024157,3539.528979323688,left,1,0.481311040581204,0,3.0,C18D18,2022-10-20_12h22.58.609,t1_Paradigm,2021.1.4,60.28887402339225,
R,right,Target,0,58,58,58,3541.0266862312565,3543.026819043327,right,1,0.42368025286123157,0,3.0,C18D18,2022-10-20_12h22.58.609,t1_Paradigm,2021.1.4,60.28887402339225,
Q,left,Distractor,0,59,59,59,3544.526895073359,3546.5293357346673,left,1,0.42523517995141447,0,3.0,C18D18,2022-10-20_12h22.58.609,t1_Paradigm,2021.1.4,60.28887402339225,
R,left,Lure,0,60,60,60,3548.0267391636735,3550.0266512639355,left,1,0.5758173713693395,0,3.0,C18D18,2022-10-20_12h22.58.609,t1_Paradigm,2021.1.4,60.28887402339225,
Z,left,Distractor,0,61,61,61,3551.5267702813726,3553.5267308227485,left,1,0.8676056753611192,0,3.0,C18D18,2022-10-20_12h22.58.609,t1_Paradigm,2021.1.4,60.28887402339225,
K,left,Pretarget,0,62,62,62,3555.02676450694,3557.0272036849055,left,1,0.6153979162918404,0,3.0,C18D18,2022-10-20_12h22.58.609,t1_Paradigm,2021.1.4,60.28887402339225,
K,right,Target,0,63,63,63,3558.5269130383385,3560.5267860007007,right,1,0.6036539983469993,0,3.0,C18D18,2022-10-20_12h22.58.609,t1_Paradigm,2021.1.4,60.28887402339225,
