Letter,CorrAnswer,Stimulus,nback_run.thisRepN,nback_run.thisTrialN,nback_run.thisN,nback_run.thisIndex,fixcross.started,nback_trial.started,trial_resp.keys,trial_resp.corr,currentlevel,trial_resp.rt,Participant,date,expName,psychopyVersion,frameRate,
H,left,Distractor,0,0,0,0,310.11289380871096,312.0498173673308,None,0,1,,C23A08,2022-11-29_11h35.16.260,t1_Paradigm,2021.1.4,59.96964181962401,
Q,left,Pretarget,0,1,1,1,313.5504371571027,315.5504692373187,left,1,1,0.3926432365601613,C23A08,2022-11-29_11h35.16.260,t1_Paradigm,2021.1.4,59.96964181962401,
Q,right,Target,0,2,2,2,317.0458631599141,319.04588465365885,right,1,1,0.9449641439425704,C23A08,2022-11-29_11h35.16.260,t1_Paradigm,2021.1.4,59.96964181962401,
T,left,Distractor,0,3,3,3,320.5459423980475,322.5477992009461,left,1,1,0.5471620878574868,C23A08,2022-11-29_11h35.16.260,t1_Paradigm,2021.1.4,59.96964181962401,
Q,left,Lure,0,4,4,4,324.04592282911574,326.0477135467694,left,1,1,0.5352936911690449,C23A08,2022-11-29_11h35.16.260,t1_Paradigm,2021.1.4,59.96964181962401,
L,left,Distractor,0,5,5,5,327.54590743061215,329.5473837621497,left,1,1,0.5555764076959804,C23A08,2022-11-29_11h35.16.260,t1_Paradigm,2021.1.4,59.96964181962401,
V,left,Pretarget,0,6,6,6,331.04591480906186,333.04820918610574,left,1,1,0.6067889436176301,C23A08,2022-11-29_11h35.16.260,t1_Paradigm,2021.1.4,59.96964181962401,
V,right,Target,0,7,7,7,334.54599244318445,336.545947530882,right,1,1,0.43711251109175464,C23A08,2022-11-29_11h35.16.260,t1_Paradigm,2021.1.4,59.96964181962401,
K,left,Distractor,0,8,8,8,338.04507142018485,340.04845427895555,left,1,1,0.5823829569360441,C23A08,2022-11-29_11h35.16.260,t1_Paradigm,2021.1.4,59.96964181962401,
G,left,Pretarget,0,9,9,9,341.5460434507278,343.5456495056759,left,1,1,0.5890838724415062,C23A08,2022-11-29_11h35.16.260,t1_Paradigm,2021.1.4,59.96964181962401,
G,right,Target,0,10,10,10,345.04576884407936,347.045949455695,right,1,1,0.6889085219811477,C23A08,2022-11-29_11h35.16.260,t1_Paradigm,2021.1.4,59.96964181962401,
G,right,Target,0,11,11,11,348.5459972552168,350.54600623767726,right,1,1,0.43732295730819715,C23A08,2022-11-29_11h35.16.260,t1_Paradigm,2021.1.4,59.96964181962401,
P,left,Pretarget,0,12,12,12,352.04543103940557,354.04750245894854,left,1,1,0.471378993746157,C23A08,2022-11-29_11h35.16.260,t1_Paradigm,2021.1.4,59.96964181962401,
P,right,Target,0,13,13,13,355.545981535911,357.5460408843104,right,1,1,0.6367608477646627,C23A08,2022-11-29_11h35.16.260,t1_Paradigm,2021.1.4,59.96964181962401,
G,left,Lure,0,14,14,14,359.04593983163033,361.04776359190635,left,1,1,0.46331563147032284,C23A08,2022-11-29_11h35.16.260,t1_Paradigm,2021.1.4,59.96964181962401,
Y,left,Distractor,0,15,15,15,362.54596709981377,364.5476134564957,left,1,1,0.5793642086164255,C23A08,2022-11-29_11h35.16.260,t1_Paradigm,2021.1.4,59.96964181962401,
B,left,Distractor,0,16,16,16,366.0458949193279,368.04787779747505,left,1,1,0.9190462166839097,C23A08,2022-11-29_11h35.16.260,t1_Paradigm,2021.1.4,59.96964181962401,
T,left,Pretarget,0,17,17,17,369.54569024755017,371.548205657282,right,0,1,0.7309329632560093,C23A08,2022-11-29_11h35.16.260,t1_Paradigm,2021.1.4,59.96964181962401,
T,right,Target,0,18,18,18,373.046070398109,375.0457499167518,right,1,1,0.673126980552297,C23A08,2022-11-29_11h35.16.260,t1_Paradigm,2021.1.4,59.96964181962401,
S,left,Distractor,0,19,19,19,376.54593951082813,378.54746492509605,left,1,1,0.6914264981298857,C23A08,2022-11-29_11h35.16.260,t1_Paradigm,2021.1.4,59.96964181962401,
T,left,Lure,0,20,20,20,380.04585385665143,382.04766510564343,left,1,1,0.9831915708591623,C23A08,2022-11-29_11h35.16.260,t1_Paradigm,2021.1.4,59.96964181962401,
J,left,Distractor,0,21,21,21,383.5459860271411,385.5487930460357,left,1,1,0.6660099846465073,C23A08,2022-11-29_11h35.16.260,t1_Paradigm,2021.1.4,59.96964181962401,
P,left,Distractor,0,22,22,22,387.0456722826294,389.04823869990435,left,1,1,0.5748546926620293,C23A08,2022-11-29_11h35.16.260,t1_Paradigm,2021.1.4,59.96964181962401,
F,left,Distractor,0,23,23,23,390.5460200321701,392.5488119733633,left,1,1,0.6578911235967553,C23A08,2022-11-29_11h35.16.260,t1_Paradigm,2021.1.4,59.96964181962401,
L,left,Distractor,0,24,24,24,394.0456353903809,396.04718005277834,left,1,1,0.6317473516176051,C23A08,2022-11-29_11h35.16.260,t1_Paradigm,2021.1.4,59.96964181962401,
W,left,Pretarget,0,25,25,25,397.54559913973696,399.5479153313278,left,1,1,0.5709880642348253,C23A08,2022-11-29_11h35.16.260,t1_Paradigm,2021.1.4,59.96964181962401,
W,right,Target,0,26,26,26,401.0459812151088,403.0456729242336,right,1,1,0.5933345010532776,C23A08,2022-11-29_11h35.16.260,t1_Paradigm,2021.1.4,59.96964181962401,
V,left,Distractor,0,27,27,27,404.5459356612022,406.5454801221359,left,1,1,0.5497900991472306,C23A08,2022-11-29_11h35.16.260,t1_Paradigm,2021.1.4,59.96964181962401,
W,left,Lure,0,28,28,28,408.04564693925875,410.0460594908358,left,1,1,0.9048321146058242,C23A08,2022-11-29_11h35.16.260,t1_Paradigm,2021.1.4,59.96964181962401,
R,left,Pretarget,0,29,29,29,411.54541788651693,413.5486868605211,left,1,1,0.7143837422597699,C23A08,2022-11-29_11h35.16.260,t1_Paradigm,2021.1.4,59.96964181962401,
R,right,Target,0,30,30,30,415.04599950083195,417.04589973136024,right,1,1,0.6570275241838317,C23A08,2022-11-29_11h35.16.260,t1_Paradigm,2021.1.4,59.96964181962401,
G,left,Distractor,0,31,31,31,418.5457714104965,420.5478332059748,left,1,1,0.6117039535015465,C23A08,2022-11-29_11h35.16.260,t1_Paradigm,2021.1.4,59.96964181962401,
R,left,Lure,0,32,32,32,422.0459420772453,424.0468602130255,left,1,1,0.9359977235878887,C23A08,2022-11-29_11h35.16.260,t1_Paradigm,2021.1.4,59.96964181962401,
S,left,Distractor,0,33,33,33,425.54567035781645,427.54784090522674,left,1,1,0.5710653775552146,C23A08,2022-11-29_11h35.16.260,t1_Paradigm,2021.1.4,59.96964181962401,
R,left,Lure,0,34,34,34,429.0460203529723,431.0479586396192,left,1,1,0.5751597755154307,C23A08,2022-11-29_11h35.16.260,t1_Paradigm,2021.1.4,59.96964181962401,
P,left,Pretarget,0,35,35,35,432.546042167519,434.55439104371715,left,1,1,0.5408169419467868,C23A08,2022-11-29_11h35.16.260,t1_Paradigm,2021.1.4,59.96964181962401,
P,right,Target,0,36,36,36,436.04607007730704,438.0459629293856,right,1,1,0.7448188847247366,C23A08,2022-11-29_11h35.16.260,t1_Paradigm,2021.1.4,59.96964181962401,
Y,left,Pretarget,0,37,37,37,439.54566714979467,441.54784122602894,left,1,1,0.5071307903988327,C23A08,2022-11-29_11h35.16.260,t1_Paradigm,2021.1.4,59.96964181962401,
Y,right,Target,0,38,38,38,443.0459735158569,445.0458185684139,right,1,1,0.6092061878885033,C23A08,2022-11-29_11h35.16.260,t1_Paradigm,2021.1.4,59.96964181962401,
J,left,Distractor,0,39,39,39,446.54608290939325,448.5481835219331,left,1,1,0.5307184107718967,C23A08,2022-11-29_11h35.16.260,t1_Paradigm,2021.1.4,59.96964181962401,
Y,left,Lure,0,40,40,40,450.04557090914693,452.0483705495918,left,1,1,0.6466463663061859,C23A08,2022-11-29_11h35.16.260,t1_Paradigm,2021.1.4,59.96964181962401,
T,left,Distractor,0,41,41,41,453.54578424258295,455.54800868475616,left,1,1,0.7150972062622714,C23A08,2022-11-29_11h35.16.260,t1_Paradigm,2021.1.4,59.96964181962401,
V,left,Distractor,0,42,42,42,457.046011691314,459.04784090522674,left,1,1,0.5271331258386454,C23A08,2022-11-29_11h35.16.260,t1_Paradigm,2021.1.4,59.96964181962401,
N,left,Pretarget,0,43,43,43,460.5451567535591,462.54755603290926,left,1,1,0.5954764970713313,C23A08,2022-11-29_11h35.16.260,t1_Paradigm,2021.1.4,59.96964181962401,
N,right,Target,0,44,44,44,464.0458968441409,466.04596004216626,right,1,1,0.6810722876339241,C23A08,2022-11-29_11h35.16.260,t1_Paradigm,2021.1.4,59.96964181962401,
N,right,Target,0,45,45,45,467.5459969344146,469.54593662360855,right,1,1,0.5729680551626188,C23A08,2022-11-29_11h35.16.260,t1_Paradigm,2021.1.4,59.96964181962401,
X,left,Distractor,0,46,46,46,471.0460193905657,473.04875358737024,left,1,1,0.750138426131798,C23A08,2022-11-29_11h35.16.260,t1_Paradigm,2021.1.4,59.96964181962401,
Z,left,Distractor,0,47,47,47,474.54592860355467,476.55863301067063,left,1,1,0.6643116580146398,C23A08,2022-11-29_11h35.16.260,t1_Paradigm,2021.1.4,59.96964181962401,
H,left,Pretarget,0,48,48,48,478.04567741546396,480.0586862638289,left,1,1,0.4922102819657539,C23A08,2022-11-29_11h35.16.260,t1_Paradigm,2021.1.4,59.96964181962401,
H,right,Target,0,49,49,49,481.5457710896943,483.54548653817903,right,1,1,0.44540492610963156,C23A08,2022-11-29_11h35.16.260,t1_Paradigm,2021.1.4,59.96964181962401,
K,left,Distractor,0,50,50,50,485.045886899274,487.0482496071778,left,1,1,0.3026595140615882,C23A08,2022-11-29_11h35.16.260,t1_Paradigm,2021.1.4,59.96964181962401,
V,left,Pretarget,0,51,51,51,488.54599115997564,490.54869103094904,left,1,1,0.4022685845502565,C23A08,2022-11-29_11h35.16.260,t1_Paradigm,2021.1.4,59.96964181962401,
V,right,Target,0,52,52,52,492.04599918002975,494.0456264079206,left,0,1,0.3452030132305026,C23A08,2022-11-29_11h35.16.260,t1_Paradigm,2021.1.4,59.96964181962401,
R,left,Distractor,0,53,53,53,495.54570083402143,497.546299771653,left,1,1,0.5406635985148114,C23A08,2022-11-29_11h35.16.260,t1_Paradigm,2021.1.4,59.96964181962401,
V,left,Lure,0,54,54,54,499.04580894434923,501.0481652362099,left,1,1,0.9109145235479446,C23A08,2022-11-29_11h35.16.260,t1_Paradigm,2021.1.4,59.96964181962401,
Y,left,Distractor,0,55,55,55,502.5456758114532,504.5478428300397,left,1,1,0.7710980352151182,C23A08,2022-11-29_11h35.16.260,t1_Paradigm,2021.1.4,59.96964181962401,
Q,left,Distractor,0,56,56,56,506.0455500570066,508.0477299076796,left,1,1,0.6633726700943043,C23A08,2022-11-29_11h35.16.260,t1_Paradigm,2021.1.4,59.96964181962401,
Z,left,Pretarget,0,57,57,57,509.5458118315686,511.54747198274356,left,1,1,0.7636961669916218,C23A08,2022-11-29_11h35.16.260,t1_Paradigm,2021.1.4,59.96964181962401,
Z,right,Target,0,58,58,58,513.0459699870331,515.0460934958645,right,1,1,0.6888196597828937,C23A08,2022-11-29_11h35.16.260,t1_Paradigm,2021.1.4,59.96964181962401,
B,left,Distractor,0,59,59,59,516.5460270898176,518.5479666596733,left,1,1,0.8668831439638325,C23A08,2022-11-29_11h35.16.260,t1_Paradigm,2021.1.4,59.96964181962401,
S,left,Pretarget,0,60,60,60,520.0458573854752,522.0454836509597,left,1,1,0.5694260785207916,C23A08,2022-11-29_11h35.16.260,t1_Paradigm,2021.1.4,59.96964181962401,
S,right,Target,0,61,61,61,523.5459863479433,525.5461284632999,right,1,1,0.7166713824583439,C23A08,2022-11-29_11h35.16.260,t1_Paradigm,2021.1.4,59.96964181962401,
T,left,Distractor,0,62,62,62,527.0460043128643,529.048513627355,left,1,1,0.8785452648639875,C23A08,2022-11-29_11h35.16.260,t1_Paradigm,2021.1.4,59.96964181962401,
D,left,Distractor,0,63,63,63,530.5459128842489,532.547453055416,left,1,1,0.5955907026400382,C23A08,2022-11-29_11h35.16.260,t1_Paradigm,2021.1.4,59.96964181962401,
R,left,Distractor,0,0,0,0,542.0595902843141,544.0647924121307,None,0,1,,C23A08,2022-11-29_11h35.16.260,t1_Paradigm,2021.1.4,59.96964181962401,
V,left,Distractor,0,1,1,1,545.5625962005475,547.5628294237175,left,1,1,0.7000936100700983,C23A08,2022-11-29_11h35.16.260,t1_Paradigm,2021.1.4,59.96964181962401,
N,left,Pretarget,0,2,2,2,549.0626600401773,551.0622385061398,left,1,1,0.7366945700384804,C23A08,2022-11-29_11h35.16.260,t1_Paradigm,2021.1.4,59.96964181962401,
N,right,Target,0,3,3,3,552.5627055940839,554.5621345662402,right,1,1,0.5810262846041496,C23A08,2022-11-29_11h35.16.260,t1_Paradigm,2021.1.4,59.96964181962401,
S,left,Distractor,0,4,4,4,556.0625984461627,558.0622821352337,left,1,1,0.6328143395999177,C23A08,2022-11-29_11h35.16.260,t1_Paradigm,2021.1.4,59.96964181962401,
N,left,Lure,0,5,5,5,559.5626308471809,561.5651340664305,left,1,1,0.9378952683607622,C23A08,2022-11-29_11h35.16.260,t1_Paradigm,2021.1.4,59.96964181962401,
Z,left,Distractor,0,6,6,6,563.0627444111452,565.0648264171597,left,1,1,0.6060934445363273,C23A08,2022-11-29_11h35.16.260,t1_Paradigm,2021.1.4,59.96964181962401,
L,left,Pretarget,0,7,7,7,566.5626988572386,568.5644748179928,left,1,1,0.5466510500175445,C23A08,2022-11-29_11h35.16.260,t1_Paradigm,2021.1.4,59.96964181962401,
L,right,Target,0,8,8,8,570.0626966116234,572.0621483607332,right,1,1,0.536804027735343,C23A08,2022-11-29_11h35.16.260,t1_Paradigm,2021.1.4,59.96964181962401,
H,left,Distractor,0,9,9,9,573.5623437292483,575.5621836489705,left,1,1,0.3808572860266395,C23A08,2022-11-29_11h35.16.260,t1_Paradigm,2021.1.4,59.96964181962401,
L,left,Lure,0,10,10,10,577.0627309374546,579.0788573412045,left,1,1,0.6881357095792282,C23A08,2022-11-29_11h35.16.260,t1_Paradigm,2021.1.4,59.96964181962401,
X,left,Pretarget,0,11,11,11,580.5625875388893,582.5635640606625,left,1,1,0.643361352194006,C23A08,2022-11-29_11h35.16.260,t1_Paradigm,2021.1.4,59.96964181962401,
X,right,Target,0,12,12,12,584.0624165513383,586.0626889123718,right,1,1,0.5522278747564542,C23A08,2022-11-29_11h35.16.260,t1_Paradigm,2021.1.4,59.96964181962401,
X,right,Target,0,13,13,13,587.5626895539759,589.5627803409872,right,1,1,0.668066968092262,C23A08,2022-11-29_11h35.16.260,t1_Paradigm,2021.1.4,59.96964181962401,
R,left,Distractor,0,14,14,14,591.0626767218895,593.0645328831837,left,1,1,0.5586124793323961,C23A08,2022-11-29_11h35.16.260,t1_Paradigm,2021.1.4,59.96964181962401,
T,left,Distractor,0,15,15,15,594.5626780050983,596.5636378451592,left,1,1,0.6272455349151187,C23A08,2022-11-29_11h35.16.260,t1_Paradigm,2021.1.4,59.96964181962401,
V,left,Pretarget,0,16,16,16,598.0622965713306,600.0622564710608,left,1,1,0.6968827012569818,C23A08,2022-11-29_11h35.16.260,t1_Paradigm,2021.1.4,59.96964181962401,
V,right,Target,0,17,17,17,601.5627796993828,603.5627254838179,right,1,1,0.49216119923539736,C23A08,2022-11-29_11h35.16.260,t1_Paradigm,2021.1.4,59.96964181962401,
N,left,Distractor,0,18,18,18,605.0626741554723,607.0648665174296,left,1,1,0.47831666124511685,C23A08,2022-11-29_11h35.16.260,t1_Paradigm,2021.1.4,59.96964181962401,
B,left,Distractor,0,19,19,19,608.5628916593363,610.5646429183245,left,1,1,0.6262295544763674,C23A08,2022-11-29_11h35.16.260,t1_Paradigm,2021.1.4,59.96964181962401,
V,left,Lure,0,20,20,20,612.0620797090711,614.0632169527261,left,1,1,0.5517498795388747,C23A08,2022-11-29_11h35.16.260,t1_Paradigm,2021.1.4,59.96964181962401,
P,left,Distractor,0,21,21,21,615.5625695739683,617.5644831588492,left,1,1,0.5226075697762553,C23A08,2022-11-29_11h35.16.260,t1_Paradigm,2021.1.4,59.96964181962401,
K,left,Pretarget,0,22,22,22,619.0628095339836,621.0650740764266,left,1,1,0.5418277895512347,C23A08,2022-11-29_11h35.16.260,t1_Paradigm,2021.1.4,59.96964181962401,
K,right,Target,0,23,23,23,622.5623549573237,624.5626808923176,right,1,1,0.6443077185640504,C23A08,2022-11-29_11h35.16.260,t1_Paradigm,2021.1.4,59.96964181962401,
J,left,Pretarget,0,24,24,24,626.0626828171306,628.0638251936201,left,1,1,0.5671663481100495,C23A08,2022-11-29_11h35.16.260,t1_Paradigm,2021.1.4,59.96964181962401,
J,right,Target,0,25,25,25,629.5626959700193,631.5627360702891,right,1,1,0.6200332607679684,C23A08,2022-11-29_11h35.16.260,t1_Paradigm,2021.1.4,59.96964181962401,
H,left,Distractor,0,26,26,26,633.0627023860624,635.064587740353,left,1,1,0.6863809217670678,C23A08,2022-11-29_11h35.16.260,t1_Paradigm,2021.1.4,59.96964181962401,
J,left,Lure,0,27,27,27,636.5626866667566,638.5621897442117,left,1,1,1.2527584173674313,C23A08,2022-11-29_11h35.16.260,t1_Paradigm,2021.1.4,59.96964181962401,
V,left,Distractor,0,28,28,28,640.0624457443349,642.0644193192194,left,1,1,0.7587349615967014,C23A08,2022-11-29_11h35.16.260,t1_Paradigm,2021.1.4,59.96964181962401,
Z,left,Pretarget,0,29,29,29,643.5626443208715,645.5649082217102,left,1,1,0.5381626248802149,C23A08,2022-11-29_11h35.16.260,t1_Paradigm,2021.1.4,59.96964181962401,
Z,right,Target,0,30,30,30,647.0618012527967,649.0627181053682,right,1,1,0.5282806351626732,C23A08,2022-11-29_11h35.16.260,t1_Paradigm,2021.1.4,59.96964181962401,
T,left,Distractor,0,31,31,31,650.5626545865406,652.5634306069641,left,1,1,0.49951077670698396,C23A08,2022-11-29_11h35.16.260,t1_Paradigm,2021.1.4,59.96964181962401,
Z,left,Lure,0,32,32,32,654.0626780050983,656.0634270781403,left,1,1,0.7916277694048404,C23A08,2022-11-29_11h35.16.260,t1_Paradigm,2021.1.4,59.96964181962401,
F,left,Distractor,0,33,33,33,657.5622840600464,659.564245444449,left,1,1,0.5707631819211656,C23A08,2022-11-29_11h35.16.260,t1_Paradigm,2021.1.4,59.96964181962401,
Y,left,Pretarget,0,34,34,34,661.0622962505287,663.0638120407317,left,1,1,0.5913291667548037,C23A08,2022-11-29_11h35.16.260,t1_Paradigm,2021.1.4,59.96964181962401,
Y,right,Target,0,35,35,35,664.5625567418821,666.5627174637638,right,1,1,0.5004375741455078,C23A08,2022-11-29_11h35.16.260,t1_Paradigm,2021.1.4,59.96964181962401,
Y,right,Target,0,36,36,36,668.0627533936057,670.0628246116852,right,1,1,0.5041643328308965,C23A08,2022-11-29_11h35.16.260,t1_Paradigm,2021.1.4,59.96964181962401,
W,left,Distractor,0,37,37,37,671.5625047719321,673.5644918205074,left,1,1,0.6823741027965298,C23A08,2022-11-29_11h35.16.260,t1_Paradigm,2021.1.4,59.96964181962401,
Q,left,Distractor,0,38,38,38,675.0624736541228,677.0646118005151,left,1,1,0.6065040713001508,C23A08,2022-11-29_11h35.16.260,t1_Paradigm,2021.1.4,59.96964181962401,
P,left,Pretarget,0,39,39,39,678.5624819949788,680.5650259561027,left,1,1,0.4819750890706018,C23A08,2022-11-29_11h35.16.260,t1_Paradigm,2021.1.4,59.96964181962401,
P,right,Target,0,40,40,40,682.0627575640339,684.0623543157195,right,1,1,0.6327633320563564,C23A08,2022-11-29_11h35.16.260,t1_Paradigm,2021.1.4,59.96964181962401,
J,left,Distractor,0,41,41,41,685.5627229174005,687.564797224163,left,1,1,0.6661427967403597,C23A08,2022-11-29_11h35.16.260,t1_Paradigm,2021.1.4,59.96964181962401,
P,left,Lure,0,42,42,42,689.0626542657384,691.0647112491844,left,1,1,0.8946280395202848,C23A08,2022-11-29_11h35.16.260,t1_Paradigm,2021.1.4,59.96964181962401,
L,left,Distractor,0,43,43,43,692.5626946868105,694.564035960639,left,1,1,0.7230033754804026,C23A08,2022-11-29_11h35.16.260,t1_Paradigm,2021.1.4,59.96964181962401,
Z,left,Distractor,0,44,44,44,696.0624685212882,698.0626632481989,left,1,1,0.6004248703800386,C23A08,2022-11-29_11h35.16.260,t1_Paradigm,2021.1.4,59.96964181962401,
F,left,Pretarget,0,45,45,45,699.5627011028538,701.5645976852201,left,1,1,0.8425201447714699,C23A08,2022-11-29_11h35.16.260,t1_Paradigm,2021.1.4,59.96964181962401,
F,right,Target,0,46,46,46,703.0628342357498,705.0628582959117,right,1,1,0.6721584788331256,C23A08,2022-11-29_11h35.16.260,t1_Paradigm,2021.1.4,59.96964181962401,
G,left,Pretarget,0,47,47,47,706.5626703058464,708.5629115490702,left,1,1,0.5802053518782486,C23A08,2022-11-29_11h35.16.260,t1_Paradigm,2021.1.4,59.96964181962401,
G,right,Target,0,48,48,48,710.0626690226378,712.0625089423603,right,1,1,0.7446219121989088,C23A08,2022-11-29_11h35.16.260,t1_Paradigm,2021.1.4,59.96964181962401,
V,left,Distractor,0,49,49,49,713.5629141154876,715.5651914900169,left,1,1,0.5698383092956192,C23A08,2022-11-29_11h35.16.260,t1_Paradigm,2021.1.4,59.96964181962401,
G,left,Lure,0,50,50,50,717.0622093131434,719.0645344871947,left,1,1,0.6066051239804438,C23A08,2022-11-29_11h35.16.260,t1_Paradigm,2021.1.4,59.96964181962401,
Q,left,Pretarget,0,51,51,51,720.5627681505051,722.5637883013718,left,1,1,0.7392606665114272,C23A08,2022-11-29_11h35.16.260,t1_Paradigm,2021.1.4,59.96964181962401,
Q,right,Target,0,52,52,52,724.062427779414,726.0627806617891,right,1,1,0.4884180796398141,C23A08,2022-11-29_11h35.16.260,t1_Paradigm,2021.1.4,59.96964181962401,
Y,left,Distractor,0,53,53,53,727.5627148973466,729.5636513188498,left,1,1,0.6353531678894342,C23A08,2022-11-29_11h35.16.260,t1_Paradigm,2021.1.4,59.96964181962401,
V,left,Distractor,0,54,54,54,731.0623511076977,733.0624030776477,left,1,1,0.8170301675934297,C23A08,2022-11-29_11h35.16.260,t1_Paradigm,2021.1.4,59.96964181962401,
B,left,Distractor,0,55,55,55,734.5626529825298,736.5650298057286,left,1,1,0.5781839774720083,C23A08,2022-11-29_11h35.16.260,t1_Paradigm,2021.1.4,59.96964181962401,
J,left,Pretarget,0,56,56,56,738.0627274086308,740.0632791883448,left,1,1,0.6160206673582707,C23A08,2022-11-29_11h35.16.260,t1_Paradigm,2021.1.4,59.96964181962401,
J,right,Target,0,57,57,57,741.5624511979717,743.5627703961201,right,1,1,0.7001224822645327,C23A08,2022-11-29_11h35.16.260,t1_Paradigm,2021.1.4,59.96964181962401,
H,left,Distractor,0,58,58,58,745.0627604512532,747.0652485928014,left,1,1,0.8779367031675065,C23A08,2022-11-29_11h35.16.260,t1_Paradigm,2021.1.4,59.96964181962401,
J,left,Lure,0,59,59,59,748.5627909274584,750.5650140864228,left,1,1,0.4500228731938023,C23A08,2022-11-29_11h35.16.260,t1_Paradigm,2021.1.4,59.96964181962401,
D,left,Pretarget,0,60,60,60,752.0626680602312,754.064895710426,left,1,1,0.48626517634829725,C23A08,2022-11-29_11h35.16.260,t1_Paradigm,2021.1.4,59.96964181962401,
D,right,Target,0,61,61,61,755.5628005515231,757.5627944562822,right,1,1,0.6040050224785318,C23A08,2022-11-29_11h35.16.260,t1_Paradigm,2021.1.4,59.96964181962401,
R,left,Distractor,0,62,62,62,759.0624819949788,761.0622773232011,left,1,1,0.48088372012466607,C23A08,2022-11-29_11h35.16.260,t1_Paradigm,2021.1.4,59.96964181962401,
F,left,Distractor,0,63,63,63,762.5626866667566,764.5647314597205,left,1,1,0.7063575930342267,C23A08,2022-11-29_11h35.16.260,t1_Paradigm,2021.1.4,59.96964181962401,
F,left,Distractor,0,0,0,0,890.1059006424385,892.0961639760991,None,0,2,,C23A08,2022-11-29_11h35.16.260,t1_Paradigm,2021.1.4,59.96964181962401,
N,left,Pretarget,0,1,1,1,893.5960439960915,895.5978770596302,left,1,2,0.47328231295796286,C23A08,2022-11-29_11h35.16.260,t1_Paradigm,2021.1.4,59.96964181962401,
V,left,Distractor,0,2,2,2,897.0959625123429,899.0979136310763,left,1,2,0.8294195469889019,C23A08,2022-11-29_11h35.16.260,t1_Paradigm,2021.1.4,59.96964181962401,
N,right,Target,0,3,3,3,900.5958104521193,902.5960128782818,left,0,2,0.6109568052725081,C23A08,2022-11-29_11h35.16.260,t1_Paradigm,2021.1.4,59.96964181962401,
N,left,Lure,0,4,4,4,904.0961437655629,906.0961245174334,right,0,2,0.6790326275045118,C23A08,2022-11-29_11h35.16.260,t1_Paradigm,2021.1.4,59.96964181962401,
X,left,Distractor,0,5,5,5,907.5952978102686,909.597579034424,left,1,2,0.4896368070430981,C23A08,2022-11-29_11h35.16.260,t1_Paradigm,2021.1.4,59.96964181962401,
G,left,Pretarget,0,6,6,6,911.0958826326051,913.0977426435253,left,1,2,0.5894736470650059,C23A08,2022-11-29_11h35.16.260,t1_Paradigm,2021.1.4,59.96964181962401,
H,left,Pretarget,0,7,7,7,914.5960536201561,916.5986043181255,left,1,2,0.7844690692181757,C23A08,2022-11-29_11h35.16.260,t1_Paradigm,2021.1.4,59.96964181962401,
G,right,Target,0,8,8,8,918.0961450487715,920.0978834756733,left,0,2,0.6453801601828673,C23A08,2022-11-29_11h35.16.260,t1_Paradigm,2021.1.4,59.96964181962401,
H,right,Target,0,9,9,9,921.5956394645683,923.5970740918252,left,0,2,0.6506365035645558,C23A08,2022-11-29_11h35.16.260,t1_Paradigm,2021.1.4,59.96964181962401,
T,left,Pretarget,0,10,10,10,925.0961678257248,927.0983823230312,left,1,2,0.5248522224853787,C23A08,2022-11-29_11h35.16.260,t1_Paradigm,2021.1.4,59.96964181962401,
K,left,Distractor,0,11,11,11,928.5957950536157,930.5979903027925,left,1,2,0.5292770466696766,C23A08,2022-11-29_11h35.16.260,t1_Paradigm,2021.1.4,59.96964181962401,
T,right,Target,0,12,12,12,932.0961495400019,934.0979861323643,left,0,2,0.5490647654646637,C23A08,2022-11-29_11h35.16.260,t1_Paradigm,2021.1.4,59.96964181962401,
T,left,Lure,0,13,13,13,935.5960998156671,937.595405278992,right,0,2,0.6840143642375551,C23A08,2022-11-29_11h35.16.260,t1_Paradigm,2021.1.4,59.96964181962401,
J,left,Distractor,0,14,14,14,939.0962650287792,941.0982434156962,left,1,2,0.7328609842338665,C23A08,2022-11-29_11h35.16.260,t1_Paradigm,2021.1.4,59.96964181962401,
Q,left,Pretarget,0,15,15,15,942.5960847379657,944.5957292891729,left,1,2,0.5956343317338906,C23A08,2022-11-29_11h35.16.260,t1_Paradigm,2021.1.4,59.96964181962401,
M,left,Distractor,0,16,16,16,946.09617007134,948.0988000074427,left,1,2,0.5805768407788037,C23A08,2022-11-29_11h35.16.260,t1_Paradigm,2021.1.4,59.96964181962401,
Q,right,Target,0,17,17,17,949.5961177805881,951.597103926426,left,0,2,0.5539842665789365,C23A08,2022-11-29_11h35.16.260,t1_Paradigm,2021.1.4,59.96964181962401,
R,left,Distractor,0,18,18,18,953.0958948230872,955.0979514857312,left,1,2,0.5892741081217991,C23A08,2022-11-29_11h35.16.260,t1_Paradigm,2021.1.4,59.96964181962401,
W,left,Distractor,0,19,19,19,956.5961177805881,958.5955069732767,left,1,2,0.6435673071803194,C23A08,2022-11-29_11h35.16.260,t1_Paradigm,2021.1.4,59.96964181962401,
C,left,Pretarget,0,20,20,20,960.0956086675611,962.0984721476358,left,1,2,0.500671759721854,C23A08,2022-11-29_11h35.16.260,t1_Paradigm,2021.1.4,59.96964181962401,
T,left,Distractor,0,21,21,21,963.5961713545486,965.5961703921422,left,1,2,0.49097743926722615,C23A08,2022-11-29_11h35.16.260,t1_Paradigm,2021.1.4,59.96964181962401,
C,right,Target,0,22,22,22,967.0960905124044,969.0979700922563,left,0,2,0.5732410578000326,C23A08,2022-11-29_11h35.16.260,t1_Paradigm,2021.1.4,59.96964181962401,
F,left,Pretarget,0,23,23,23,970.5961707129444,972.5967921067271,left,1,2,0.6743636728765523,C23A08,2022-11-29_11h35.16.260,t1_Paradigm,2021.1.4,59.96964181962401,
C,right,Target,0,24,24,24,974.0961816202179,976.0980108341306,left,0,2,0.5972720267575369,C23A08,2022-11-29_11h35.16.260,t1_Paradigm,2021.1.4,59.96964181962401,
F,right,Target,0,25,25,25,977.5961636552969,979.5976813703129,left,0,2,0.6012400286670072,C23A08,2022-11-29_11h35.16.260,t1_Paradigm,2021.1.4,59.96964181962401,
H,left,Distractor,0,26,26,26,981.0961126477536,983.0981099619979,left,1,2,0.6210713765556193,C23A08,2022-11-29_11h35.16.260,t1_Paradigm,2021.1.4,59.96964181962401,
H,left,Lure,0,27,27,27,984.5962428934303,986.596182261822,right,0,2,0.5630985767293168,C23A08,2022-11-29_11h35.16.260,t1_Paradigm,2021.1.4,59.96964181962401,
P,left,Distractor,0,28,28,28,988.0960969284478,990.0980859018358,left,1,2,0.4852171156935583,C23A08,2022-11-29_11h35.16.260,t1_Paradigm,2021.1.4,59.96964181962401,
G,left,Pretarget,0,29,29,29,991.5961530688256,993.5979213303282,left,1,2,0.3773676001369495,C23A08,2022-11-29_11h35.16.260,t1_Paradigm,2021.1.4,59.96964181962401,
K,left,Distractor,0,30,30,30,995.0960930788218,997.097645440471,left,1,2,0.5576468648325772,C23A08,2022-11-29_11h35.16.260,t1_Paradigm,2021.1.4,59.96964181962401,
G,right,Target,0,31,31,31,998.5961161765773,1000.5984468042651,left,0,2,0.8166955709411923,C23A08,2022-11-29_11h35.16.260,t1_Paradigm,2021.1.4,59.96964181962401,
M,left,Pretarget,0,32,32,32,1002.0961530688256,1004.0980608792673,left,1,2,1.125225764519655,C23A08,2022-11-29_11h35.16.260,t1_Paradigm,2021.1.4,59.96964181962401,
B,left,Distractor,0,33,33,33,1005.5962868433261,1007.5981391549943,left,1,2,0.521026656734648,C23A08,2022-11-29_11h35.16.260,t1_Paradigm,2021.1.4,59.96964181962401,
M,right,Target,0,34,34,34,1009.0956904721119,1011.0979107438569,left,0,2,0.5414588670678313,C23A08,2022-11-29_11h35.16.260,t1_Paradigm,2021.1.4,59.96964181962401,
M,left,Lure,0,35,35,35,1012.5961482567933,1014.5960298807964,left,1,2,0.43504622438308616,C23A08,2022-11-29_11h35.16.260,t1_Paradigm,2021.1.4,59.96964181962401,
T,left,Distractor,0,36,36,36,1016.0958797453858,1018.0958688381123,left,1,2,0.7433823326550737,C23A08,2022-11-29_11h35.16.260,t1_Paradigm,2021.1.4,59.96964181962401,
F,left,Distractor,0,37,37,37,1019.5960584321887,1021.5973974604018,left,1,2,0.6497482023848988,C23A08,2022-11-29_11h35.16.260,t1_Paradigm,2021.1.4,59.96964181962401,
X,left,Distractor,0,38,38,38,1023.0961572392536,1025.0979963980335,left,1,2,1.069232634818718,C23A08,2022-11-29_11h35.16.260,t1_Paradigm,2021.1.4,59.96964181962401,
C,left,Distractor,0,39,39,39,1026.5961973395238,1028.5976585933595,left,1,2,0.5296565556241148,C23A08,2022-11-29_11h35.16.260,t1_Paradigm,2021.1.4,59.96964181962401,
R,left,Distractor,0,40,40,40,1030.0962788232719,1032.0971616708148,left,1,2,0.598176368044733,C23A08,2022-11-29_11h35.16.260,t1_Paradigm,2021.1.4,59.96964181962401,
B,left,Pretarget,0,41,41,41,1033.596131895883,1035.5975876960824,left,1,2,0.8896883278700898,C23A08,2022-11-29_11h35.16.260,t1_Paradigm,2021.1.4,59.96964181962401,
H,left,Distractor,0,42,42,42,1037.0959673243751,1039.0982642678364,left,1,2,0.5409802302463049,C23A08,2022-11-29_11h35.16.260,t1_Paradigm,2021.1.4,59.96964181962401,
B,right,Target,0,43,43,43,1040.596277219261,1042.5981551951022,left,0,2,0.8010202150273926,C23A08,2022-11-29_11h35.16.260,t1_Paradigm,2021.1.4,59.96964181962401,
W,left,Pretarget,0,44,44,44,1044.0962194748727,1046.1124716330692,left,1,2,0.502689926106541,C23A08,2022-11-29_11h35.16.260,t1_Paradigm,2021.1.4,59.96964181962401,
L,left,Pretarget,0,45,45,45,1047.5960824923504,1049.5977750445436,left,1,2,0.8415400941746611,C23A08,2022-11-29_11h35.16.260,t1_Paradigm,2021.1.4,59.96964181962401,
W,right,Target,0,46,46,46,1051.0959406977959,1053.0956317653167,left,0,2,0.9115615815032925,C23A08,2022-11-29_11h35.16.260,t1_Paradigm,2021.1.4,59.96964181962401,
L,right,Target,0,47,47,47,1054.5962393646064,1056.5968408686554,left,0,2,0.8023685465029757,C23A08,2022-11-29_11h35.16.260,t1_Paradigm,2021.1.4,59.96964181962401,
W,right,Target,0,48,48,48,1058.095847985972,1060.096192527491,left,0,2,0.6471240407213372,C23A08,2022-11-29_11h35.16.260,t1_Paradigm,2021.1.4,59.96964181962401,
X,left,Distractor,0,49,49,49,1061.5956529382593,1063.5978671147632,left,1,2,0.7775095871725171,C23A08,2022-11-29_11h35.16.260,t1_Paradigm,2021.1.4,59.96964181962401,
R,left,Distractor,0,50,50,50,1065.0963192443442,1067.0978494706446,left,1,2,0.5574396266374606,C23A08,2022-11-29_11h35.16.260,t1_Paradigm,2021.1.4,59.96964181962401,
V,left,Pretarget,0,51,51,51,1068.5963134699055,1070.5977468139536,left,1,2,0.6412796669817453,C23A08,2022-11-29_11h35.16.260,t1_Paradigm,2021.1.4,59.96964181962401,
Z,left,Distractor,0,52,52,52,1072.0962906929522,1074.0982267339837,left,1,2,0.6774510728587302,C23A08,2022-11-29_11h35.16.260,t1_Paradigm,2021.1.4,59.96964181962401,
V,right,Target,0,53,53,53,1075.5960500913325,1077.5972874252611,left,0,2,0.71407930101077,C23A08,2022-11-29_11h35.16.260,t1_Paradigm,2021.1.4,59.96964181962401,
V,left,Lure,0,54,54,54,1079.0960128782817,1081.096103665293,right,0,2,0.5591097226792954,C23A08,2022-11-29_11h35.16.260,t1_Paradigm,2021.1.4,59.96964181962401,
N,left,Distractor,0,55,55,55,1082.5956282364928,1084.5969557158282,left,1,2,0.49854195418561176,C23A08,2022-11-29_11h35.16.260,t1_Paradigm,2021.1.4,59.96964181962401,
B,left,Distractor,0,56,56,56,1086.096248988671,1088.09829153602,left,1,2,1.204974614925277,C23A08,2022-11-29_11h35.16.260,t1_Paradigm,2021.1.4,59.96964181962401,
V,left,Lure,0,57,57,57,1089.5961620512862,1091.5979803579253,left,1,2,0.8253395851256755,C23A08,2022-11-29_11h35.16.260,t1_Paradigm,2021.1.4,59.96964181962401,
J,left,Distractor,0,58,58,58,1093.0962031139625,1095.0977333402625,left,1,2,0.5575846292138067,C23A08,2022-11-29_11h35.16.260,t1_Paradigm,2021.1.4,59.96964181962401,
H,left,Distractor,0,59,59,59,1096.5961719961529,1098.5952233841676,left,1,2,0.8039882766058781,C23A08,2022-11-29_11h35.16.260,t1_Paradigm,2021.1.4,59.96964181962401,
X,left,Pretarget,0,60,60,60,1100.096196377117,1102.0977634956657,left,1,2,0.5494000037213027,C23A08,2022-11-29_11h35.16.260,t1_Paradigm,2021.1.4,59.96964181962401,
P,left,Distractor,0,61,61,61,1103.5961713545485,1105.6089017466393,left,1,2,0.5901280834702902,C23A08,2022-11-29_11h35.16.260,t1_Paradigm,2021.1.4,59.96964181962401,
X,right,Target,0,62,62,62,1107.0952407074842,1109.0980121173393,left,0,2,0.5732766668397744,C23A08,2022-11-29_11h35.16.260,t1_Paradigm,2021.1.4,59.96964181962401,
Q,left,Distractor,0,63,63,63,1110.5961155349728,1112.597590583302,left,1,2,0.5779777016834942,C23A08,2022-11-29_11h35.16.260,t1_Paradigm,2021.1.4,59.96964181962401,
B,left,Pretarget,0,0,0,0,1130.2126218968006,1132.2134546992065,None,0,2,,C23A08,2022-11-29_11h35.16.260,t1_Paradigm,2021.1.4,59.96964181962401,
F,left,Distractor,0,1,1,1,1133.7128371550493,1135.7145216871886,left,1,2,0.8846802853599911,C23A08,2022-11-29_11h35.16.260,t1_Paradigm,2021.1.4,59.96964181962401,
B,right,Target,0,2,2,2,1137.2129715711544,1139.2147109604625,left,0,2,0.9205193401996894,C23A08,2022-11-29_11h35.16.260,t1_Paradigm,2021.1.4,59.96964181962401,
V,left,Distractor,0,3,3,3,1140.7124345483394,1142.7127826186825,left,1,2,0.5102403257296828,C23A08,2022-11-29_11h35.16.260,t1_Paradigm,2021.1.4,59.96964181962401,
G,left,Pretarget,0,4,4,4,1144.2126902276605,1146.2291319799333,left,1,2,0.4821383773698926,C23A08,2022-11-29_11h35.16.260,t1_Paradigm,2021.1.4,59.96964181962401,
B,left,Lure,0,5,5,5,1147.7127989795927,1149.715124153644,left,1,2,0.32421356954637304,C23A08,2022-11-29_11h35.16.260,t1_Paradigm,2021.1.4,59.96964181962401,
G,right,Target,0,6,6,6,1151.2126979269124,1153.2152014669641,left,0,2,0.6480601414225475,C23A08,2022-11-29_11h35.16.260,t1_Paradigm,2021.1.4,59.96964181962401,
Y,left,Pretarget,0,7,7,7,1154.7124630997318,1156.715205637392,left,1,2,0.5239751493816129,C23A08,2022-11-29_11h35.16.260,t1_Paradigm,2021.1.4,59.96964181962401,
P,left,Distractor,0,8,8,8,1158.2127595209267,1160.2143882334904,left,1,2,0.5766800569485895,C23A08,2022-11-29_11h35.16.260,t1_Paradigm,2021.1.4,59.96964181962401,
Y,right,Target,0,9,9,9,1161.7129035610965,1163.7145075718936,left,0,2,0.7568483240975183,C23A08,2022-11-29_11h35.16.260,t1_Paradigm,2021.1.4,59.96964181962401,
X,left,Distractor,0,10,10,10,1165.2127787690565,1167.212372954325,left,1,2,0.5548982319310198,C23A08,2022-11-29_11h35.16.260,t1_Paradigm,2021.1.4,59.96964181962401,
Y,right,Target,0,11,11,11,1168.7129696463412,1170.7143580780871,left,0,2,0.8929104647588701,C23A08,2022-11-29_11h35.16.260,t1_Paradigm,2021.1.4,59.96964181962401,
N,left,Distractor,0,12,12,12,1172.2128268893803,1174.2123687838966,left,1,2,0.6429609910990166,C23A08,2022-11-29_11h35.16.260,t1_Paradigm,2021.1.4,59.96964181962401,
Y,right,Target,0,13,13,13,1175.7127800522653,1177.7151417977625,left,0,2,0.6282618361560708,C23A08,2022-11-29_11h35.16.260,t1_Paradigm,2021.1.4,59.96964181962401,
Y,left,Lure,0,14,14,14,1179.2127742778262,1181.2127912803408,right,0,2,0.6666519097673245,C23A08,2022-11-29_11h35.16.260,t1_Paradigm,2021.1.4,59.96964181962401,
K,left,Distractor,0,15,15,15,1182.7128743681,1184.7147956522326,left,1,2,0.7647824031032542,C23A08,2022-11-29_11h35.16.260,t1_Paradigm,2021.1.4,59.96964181962401,
T,left,Pretarget,0,16,16,16,1186.2129375661257,1188.2150474819277,left,1,2,0.8321826159876764,C23A08,2022-11-29_11h35.16.260,t1_Paradigm,2021.1.4,59.96964181962401,
J,left,Distractor,0,17,17,17,1189.713099250414,1191.7119584779352,left,1,2,0.7434031847956248,C23A08,2022-11-29_11h35.16.260,t1_Paradigm,2021.1.4,59.96964181962401,
T,right,Target,0,18,18,18,1193.213007180194,1195.21521269504,left,0,2,0.696192976614384,C23A08,2022-11-29_11h35.16.260,t1_Paradigm,2021.1.4,59.96964181962401,
S,left,Pretarget,0,19,19,19,1196.7129436613664,1198.7144446946704,left,1,2,0.5407877489506063,C23A08,2022-11-29_11h35.16.260,t1_Paradigm,2021.1.4,59.96964181962401,
R,left,Distractor,0,20,20,20,1200.212877896924,1202.2130222578958,left,1,2,0.59416569944824,C23A08,2022-11-29_11h35.16.260,t1_Paradigm,2021.1.4,59.96964181962401,
S,right,Target,0,21,21,21,1203.7125558115558,1205.714319261026,left,0,2,0.8529558390164311,C23A08,2022-11-29_11h35.16.260,t1_Paradigm,2021.1.4,59.96964181962401,
Q,left,Distractor,0,22,22,22,1207.212878217726,1209.214483832534,left,1,2,0.5687004240362512,C23A08,2022-11-29_11h35.16.260,t1_Paradigm,2021.1.4,59.96964181962401,
D,left,Distractor,0,23,23,23,1210.7128711600785,1212.7139278823915,left,1,2,0.8772662266546831,C23A08,2022-11-29_11h35.16.260,t1_Paradigm,2021.1.4,59.96964181962401,
F,left,Distractor,0,24,24,24,1214.2126167639663,1216.212757275312,None,0,2,,C23A08,2022-11-29_11h35.16.260,t1_Paradigm,2021.1.4,59.96964181962401,
Z,left,Distractor,0,25,25,25,1217.7129382077296,1219.7147892361895,left,1,2,0.5805505350017484,C23A08,2022-11-29_11h35.16.260,t1_Paradigm,2021.1.4,59.96964181962401,
P,left,Distractor,0,26,26,26,1221.212822077348,1223.215142439367,left,1,2,0.4242460988853054,C23A08,2022-11-29_11h35.16.260,t1_Paradigm,2021.1.4,59.96964181962401,
H,left,Distractor,0,27,27,27,1224.7124223578576,1226.7124076009582,left,1,2,0.43099641792287,C23A08,2022-11-29_11h35.16.260,t1_Paradigm,2021.1.4,59.96964181962401,
Z,left,Pretarget,0,28,28,28,1228.2127412352038,1230.214476454084,left,1,2,0.5289321843483776,C23A08,2022-11-29_11h35.16.260,t1_Paradigm,2021.1.4,59.96964181962401,
J,left,Pretarget,0,29,29,29,1231.7128426086865,1233.7150391410714,left,1,2,0.4521719268595916,C23A08,2022-11-29_11h35.16.260,t1_Paradigm,2021.1.4,59.96964181962401,
Z,right,Target,0,30,30,30,1235.2125112200556,1237.2144215969147,left,0,2,0.5847652337720319,C23A08,2022-11-29_11h35.16.260,t1_Paradigm,2021.1.4,59.96964181962401,
J,right,Target,0,31,31,31,1238.7129234508307,1240.715134419313,left,0,2,0.8760430080205879,C23A08,2022-11-29_11h35.16.260,t1_Paradigm,2021.1.4,59.96964181962401,
V,left,Pretarget,0,32,32,32,1242.2125631900053,1244.214490569379,left,1,2,0.6247997392520119,C23A08,2022-11-29_11h35.16.260,t1_Paradigm,2021.1.4,59.96964181962401,
Z,left,Lure,0,33,33,33,1245.7128201525352,1247.715142439367,left,1,2,0.6921284132549772,C23A08,2022-11-29_11h35.16.260,t1_Paradigm,2021.1.4,59.96964181962401,
V,right,Target,0,34,34,34,1249.212831701413,1251.2124813854548,left,0,2,0.938812120932198,C23A08,2022-11-29_11h35.16.260,t1_Paradigm,2021.1.4,59.96964181962401,
X,left,Distractor,0,35,35,35,1252.7127306487328,1254.7129167139851,left,1,2,0.7343934561490641,C23A08,2022-11-29_11h35.16.260,t1_Paradigm,2021.1.4,59.96964181962401,
S,left,Distractor,0,36,36,36,1256.2128772553197,1258.2144501483072,left,1,2,0.5129443671312401,C23A08,2022-11-29_11h35.16.260,t1_Paradigm,2021.1.4,59.96964181962401,
Q,left,Distractor,0,37,37,37,1259.7128474207188,1261.7151395521473,left,1,2,0.6921187891903173,C23A08,2022-11-29_11h35.16.260,t1_Paradigm,2021.1.4,59.96964181962401,
P,left,Distractor,0,38,38,38,1263.2129574558594,1265.2147292461855,left,1,2,0.408764828277981,C23A08,2022-11-29_11h35.16.260,t1_Paradigm,2021.1.4,59.96964181962401,
S,left,Lure,0,39,39,39,1266.7129093355356,1268.7147103188581,left,1,2,0.4607780863893822,C23A08,2022-11-29_11h35.16.260,t1_Paradigm,2021.1.4,59.96964181962401,
K,left,Pretarget,0,40,40,40,1270.2129218468199,1272.2151783692088,left,1,2,0.49628799821402936,C23A08,2022-11-29_11h35.16.260,t1_Paradigm,2021.1.4,59.96964181962401,
L,left,Distractor,0,41,41,41,1273.7129455861796,1275.714547030559,left,1,2,0.484481837144358,C23A08,2022-11-29_11h35.16.260,t1_Paradigm,2021.1.4,59.96964181962401,
K,right,Target,0,42,42,42,1277.2126029694732,1279.2146403839874,left,0,2,0.5366340025907448,C23A08,2022-11-29_11h35.16.260,t1_Paradigm,2021.1.4,59.96964181962401,
B,left,Distractor,0,43,43,43,1280.7127383479847,1282.726190544934,left,1,2,0.6410114763766614,C23A08,2022-11-29_11h35.16.260,t1_Paradigm,2021.1.4,59.96964181962401,
N,left,Distractor,0,44,44,44,1284.2128766137153,1286.2151363441258,left,1,2,0.5761151243459608,C23A08,2022-11-29_11h35.16.260,t1_Paradigm,2021.1.4,59.96964181962401,
S,left,Pretarget,0,45,45,45,1287.7129911400862,1289.7147555519628,left,1,2,0.5807892118086784,C23A08,2022-11-29_11h35.16.260,t1_Paradigm,2021.1.4,59.96964181962401,
Z,left,Distractor,0,46,46,46,1291.2129661175177,1293.2120579266043,left,1,2,0.5872668490105752,C23A08,2022-11-29_11h35.16.260,t1_Paradigm,2021.1.4,59.96964181962401,
S,right,Target,0,47,47,47,1294.712964192705,1296.7142441933206,left,0,2,0.6370572689597793,C23A08,2022-11-29_11h35.16.260,t1_Paradigm,2021.1.4,59.96964181962401,
C,left,Distractor,0,48,48,48,1298.2128159821073,1300.2151979381406,left,1,2,0.8000760942718443,C23A08,2022-11-29_11h35.16.260,t1_Paradigm,2021.1.4,59.96964181962401,
T,left,Pretarget,0,49,49,49,1301.7129013154813,1303.7144706796453,left,1,2,0.5327978503687518,C23A08,2022-11-29_11h35.16.260,t1_Paradigm,2021.1.4,59.96964181962401,
S,left,Lure,0,50,50,50,1305.2128634608266,1307.2148296572614,left,1,2,0.4885820095432791,C23A08,2022-11-29_11h35.16.260,t1_Paradigm,2021.1.4,59.96964181962401,
T,right,Target,0,51,51,51,1308.712640503326,1310.7125304681854,left,0,2,0.7669064342007914,C23A08,2022-11-29_11h35.16.260,t1_Paradigm,2021.1.4,59.96964181962401,
N,left,Pretarget,0,52,52,52,1312.2128997114705,1314.215172915572,left,1,2,0.4962366698682672,C23A08,2022-11-29_11h35.16.260,t1_Paradigm,2021.1.4,59.96964181962401,
B,left,Distractor,0,53,53,53,1315.712785505902,1317.7142993712919,left,1,2,0.6451430873871686,C23A08,2022-11-29_11h35.16.260,t1_Paradigm,2021.1.4,59.96964181962401,
N,right,Target,0,54,54,54,1319.2119998614135,1321.2151318528959,left,0,2,0.6804983725705824,C23A08,2022-11-29_11h35.16.260,t1_Paradigm,2021.1.4,59.96964181962401,
N,left,Lure,0,55,55,55,1322.7128974658558,1324.7130148794458,right,0,2,0.766453461551464,C23A08,2022-11-29_11h35.16.260,t1_Paradigm,2021.1.4,59.96964181962401,
X,left,Distractor,0,56,56,56,1326.2129571350574,1328.213048884475,left,1,2,0.6263877099409001,C23A08,2022-11-29_11h35.16.260,t1_Paradigm,2021.1.4,59.96964181962401,
W,left,Distractor,0,57,57,57,1329.729560571618,1331.7132221176407,left,1,2,0.7422114047735704,C23A08,2022-11-29_11h35.16.260,t1_Paradigm,2021.1.4,59.96964181962401,
S,left,Distractor,0,58,58,58,1333.2127438016214,1335.2148739279596,left,1,2,0.6649433174661681,C23A08,2022-11-29_11h35.16.260,t1_Paradigm,2021.1.4,59.96964181962401,
L,left,Distractor,0,59,59,59,1336.7128714808805,1338.7148934968914,left,1,2,0.6364021909503208,C23A08,2022-11-29_11h35.16.260,t1_Paradigm,2021.1.4,59.96964181962401,
K,left,Pretarget,0,60,60,60,1340.212757596114,1342.215060314014,left,1,2,0.49641856469224876,C23A08,2022-11-29_11h35.16.260,t1_Paradigm,2021.1.4,59.96964181962401,
V,left,Pretarget,0,61,61,61,1343.712864423233,1345.7142891056228,left,1,2,0.7891300037917972,C23A08,2022-11-29_11h35.16.260,t1_Paradigm,2021.1.4,59.96964181962401,
K,right,Target,0,62,62,62,1347.2127361023695,1349.215006098449,left,0,2,0.9043457785319333,C23A08,2022-11-29_11h35.16.260,t1_Paradigm,2021.1.4,59.96964181962401,
V,right,Target,0,63,63,63,1350.71288623778,1352.7148588502582,left,0,2,0.8609851962633002,C23A08,2022-11-29_11h35.16.260,t1_Paradigm,2021.1.4,59.96964181962401,
R,left,Distractor,0,0,0,0,1466.4951959876635,1468.4976847708158,None,0,3,,C23A08,2022-11-29_11h35.16.260,t1_Paradigm,2021.1.4,59.96964181962401,
P,left,Lure,0,1,1,1,1469.9963017927066,1471.997721663064,None,0,3,,C23A08,2022-11-29_11h35.16.260,t1_Paradigm,2021.1.4,59.96964181962401,
V,left,Distractor,0,2,2,2,1473.4962892814224,1475.49852623488,None,0,3,,C23A08,2022-11-29_11h35.16.260,t1_Paradigm,2021.1.4,59.96964181962401,
P,left,Pretarget,0,3,3,3,1476.9962305746276,1478.9975352770098,None,0,3,,C23A08,2022-11-29_11h35.16.260,t1_Paradigm,2021.1.4,59.96964181962401,
Z,left,Distractor,0,4,4,4,1480.4963364393402,1482.4962260833972,None,0,3,,C23A08,2022-11-29_11h35.16.260,t1_Paradigm,2021.1.4,59.96964181962401,
L,left,Pretarget,0,5,5,5,1483.996298584685,1485.998487738621,left,1,3,0.6329009561832208,C23A08,2022-11-29_11h35.16.260,t1_Paradigm,2021.1.4,59.96964181962401,
P,right,Target,0,6,6,6,1487.4962902438292,1489.4981595580116,None,0,3,,C23A08,2022-11-29_11h35.16.260,t1_Paradigm,2021.1.4,59.96964181962401,
S,left,Distractor,0,7,7,7,1490.9963412513725,1492.9978563999712,None,0,3,,C23A08,2022-11-29_11h35.16.260,t1_Paradigm,2021.1.4,59.96964181962401,
L,right,Target,0,8,8,8,1494.4964102238368,1496.4957336520824,left,0,3,1.1597870643586248,C23A08,2022-11-29_11h35.16.260,t1_Paradigm,2021.1.4,59.96964181962401,
D,left,Distractor,0,9,9,9,1497.996344459394,1499.9959902938099,left,1,3,1.0513726161993873,C23A08,2022-11-29_11h35.16.260,t1_Paradigm,2021.1.4,59.96964181962401,
G,left,Distractor,0,10,10,10,1501.4961083490048,1503.4981788061414,None,0,3,,C23A08,2022-11-29_11h35.16.260,t1_Paradigm,2021.1.4,59.96964181962401,
M,left,Pretarget,0,11,11,11,1504.9962270458036,1506.9981839389757,None,0,3,,C23A08,2022-11-29_11h35.16.260,t1_Paradigm,2021.1.4,59.96964181962401,
Y,left,Distractor,0,12,12,12,1508.4962992262895,1510.4982211520264,None,0,3,,C23A08,2022-11-29_11h35.16.260,t1_Paradigm,2021.1.4,59.96964181962401,
V,left,Distractor,0,13,13,13,1511.996398674959,1514.008998821373,left,1,3,0.3346213540030476,C23A08,2022-11-29_11h35.16.260,t1_Paradigm,2021.1.4,59.96964181962401,
M,right,Target,0,14,14,14,1515.4962443691202,1517.4980049313708,None,0,3,,C23A08,2022-11-29_11h35.16.260,t1_Paradigm,2021.1.4,59.96964181962401,
S,left,Pretarget,0,15,15,15,1518.9961798878862,1520.9978827057485,left,1,3,0.9616580467122731,C23A08,2022-11-29_11h35.16.260,t1_Paradigm,2021.1.4,59.96964181962401,
Q,left,Distractor,0,16,16,16,1522.4963900133007,1524.495843366421,left,1,3,0.5355211398996289,C23A08,2022-11-29_11h35.16.260,t1_Paradigm,2021.1.4,59.96964181962401,
R,left,Pretarget,0,17,17,17,1525.9963171912104,1527.9969270361153,left,1,3,0.874620250443968,C23A08,2022-11-29_11h35.16.260,t1_Paradigm,2021.1.4,59.96964181962401,
S,right,Target,0,18,18,18,1529.4961526197026,1531.4982981445446,left,0,3,0.9732380422597089,C23A08,2022-11-29_11h35.16.260,t1_Paradigm,2021.1.4,59.96964181962401,
F,left,Distractor,0,19,19,19,1532.9962350658575,1534.9988422250071,None,0,3,,C23A08,2022-11-29_11h35.16.260,t1_Paradigm,2021.1.4,59.96964181962401,
R,right,Target,0,20,20,20,1536.4963187952212,1538.4978493423237,left,0,3,0.6137465008505387,C23A08,2022-11-29_11h35.16.260,t1_Paradigm,2021.1.4,59.96964181962401,
P,left,Distractor,0,21,21,21,1539.996327777682,1541.998818164845,left,1,3,0.5046262879404821,C23A08,2022-11-29_11h35.16.260,t1_Paradigm,2021.1.4,59.96964181962401,
L,left,Distractor,0,22,22,22,1543.4962604092284,1545.4961898327533,left,1,3,0.751187449192912,C23A08,2022-11-29_11h35.16.260,t1_Paradigm,2021.1.4,59.96964181962401,
R,right,Target,0,23,23,23,1546.9963646699302,1549.0090296183803,None,0,3,,C23A08,2022-11-29_11h35.16.260,t1_Paradigm,2021.1.4,59.96964181962401,
H,left,Pretarget,0,24,24,24,1550.4961301635517,1552.4979170315792,left,1,3,1.0616771023605907,C23A08,2022-11-29_11h35.16.260,t1_Paradigm,2021.1.4,59.96964181962401,
G,left,Pretarget,0,25,25,25,1553.9964500033043,1555.9966941337475,left,1,3,0.827083144862172,C23A08,2022-11-29_11h35.16.260,t1_Paradigm,2021.1.4,59.96964181962401,
T,left,Distractor,0,26,26,26,1557.4960698527457,1559.4981926006344,left,1,3,1.0212695039690516,C23A08,2022-11-29_11h35.16.260,t1_Paradigm,2021.1.4,59.96964181962401,
H,right,Target,0,27,27,27,1560.996287998214,1562.9977405903915,left,0,3,0.8980202015536634,C23A08,2022-11-29_11h35.16.260,t1_Paradigm,2021.1.4,59.96964181962401,
G,right,Target,0,28,28,28,1564.4961240683106,1566.509618931947,left,0,3,0.5378001184403729,C23A08,2022-11-29_11h35.16.260,t1_Paradigm,2021.1.4,59.96964181962401,
D,left,Distractor,0,29,29,29,1567.9963226448472,1569.9958205894677,left,1,3,0.9715974600167101,C23A08,2022-11-29_11h35.16.260,t1_Paradigm,2021.1.4,59.96964181962401,
N,left,Pretarget,0,30,30,30,1571.496139146012,1573.4974691917646,left,1,3,0.8939229163743221,C23A08,2022-11-29_11h35.16.260,t1_Paradigm,2021.1.4,59.96964181962401,
V,left,Distractor,0,31,31,31,1574.996348629822,1576.996219988156,left,1,3,0.4832643929489677,C23A08,2022-11-29_11h35.16.260,t1_Paradigm,2021.1.4,59.96964181962401,
R,left,Distractor,0,32,32,32,1578.4960159579828,1580.4980370115868,left,1,3,0.5652822770280181,C23A08,2022-11-29_11h35.16.260,t1_Paradigm,2021.1.4,59.96964181962401,
N,right,Target,0,33,33,33,1581.9958741634282,1583.9970309760151,right,1,3,0.6183666935498877,C23A08,2022-11-29_11h35.16.260,t1_Paradigm,2021.1.4,59.96964181962401,
Z,left,Distractor,0,34,34,34,1585.4961121986307,1587.4961702638216,left,1,3,0.6233131420453901,C23A08,2022-11-29_11h35.16.260,t1_Paradigm,2021.1.4,59.96964181962401,
N,left,Lure,0,35,35,35,1588.9959306246083,1590.9971063645226,left,1,3,1.122409442362823,C23A08,2022-11-29_11h35.16.260,t1_Paradigm,2021.1.4,59.96964181962401,
Y,left,Pretarget,0,36,36,36,1592.4962446899226,1594.4962613716348,None,0,3,,C23A08,2022-11-29_11h35.16.260,t1_Paradigm,2021.1.4,59.96964181962401,
Y,left,Lure,0,37,37,37,1595.9960271860582,1597.996469251434,left,1,3,0.5070772164381196,C23A08,2022-11-29_11h35.16.260,t1_Paradigm,2021.1.4,59.96964181962401,
B,left,Distractor,0,38,38,38,1599.4964416624484,1601.4962504643613,None,0,3,,C23A08,2022-11-29_11h35.16.260,t1_Paradigm,2021.1.4,59.96964181962401,
Y,right,Target,0,39,39,39,1602.9963255320667,1604.9977165302298,right,1,3,1.0097148517925234,C23A08,2022-11-29_11h35.16.260,t1_Paradigm,2021.1.4,59.96964181962401,
J,left,Distractor,0,40,40,40,1606.4961016121592,1608.4961147650479,left,1,3,1.3673637055985637,C23A08,2022-11-29_11h35.16.260,t1_Paradigm,2021.1.4,59.96964181962401,
X,left,Distractor,0,41,41,41,1609.996310133563,1611.998534254934,left,1,3,0.7130893055464185,C23A08,2022-11-29_11h35.16.260,t1_Paradigm,2021.1.4,59.96964181962401,
W,left,Pretarget,0,42,42,42,1613.4958905243384,1615.495583837474,left,1,3,0.7837799861799795,C23A08,2022-11-29_11h35.16.260,t1_Paradigm,2021.1.4,59.96964181962401,
S,left,Pretarget,0,43,43,43,1616.9960554166482,1618.997889763396,left,1,3,0.5617204106524696,C23A08,2022-11-29_11h35.16.260,t1_Paradigm,2021.1.4,59.96964181962401,
R,left,Distractor,0,44,44,44,1620.4962754869298,1622.4972648407893,left,1,3,0.6947958832101904,C23A08,2022-11-29_11h35.16.260,t1_Paradigm,2021.1.4,59.96964181962401,
W,right,Target,0,45,45,45,1623.9963710859734,1625.99791414436,right,1,3,0.6335371068648783,C23A08,2022-11-29_11h35.16.260,t1_Paradigm,2021.1.4,59.96964181962401,
S,right,Target,0,46,46,46,1627.4964015621786,1629.4980376531912,right,1,3,0.6214479982904777,C23A08,2022-11-29_11h35.16.260,t1_Paradigm,2021.1.4,59.96964181962401,
D,left,Distractor,0,47,47,47,1630.996231857836,1632.996096479325,left,1,3,0.483521034676869,C23A08,2022-11-29_11h35.16.260,t1_Paradigm,2021.1.4,59.96964181962401,
T,left,Distractor,0,48,48,48,1634.496038414134,1636.5093924456228,left,1,3,0.7780254370445618,C23A08,2022-11-29_11h35.16.260,t1_Paradigm,2021.1.4,59.96964181962401,
S,right,Target,0,49,49,49,1637.9962129305086,1639.9968907854714,right,1,3,0.4105638867872585,C23A08,2022-11-29_11h35.16.260,t1_Paradigm,2021.1.4,59.96964181962401,
K,left,Distractor,0,50,50,50,1641.496338364153,1643.498758174841,left,1,3,0.9408120015937129,C23A08,2022-11-29_11h35.16.260,t1_Paradigm,2021.1.4,59.96964181962401,
S,left,Lure,0,51,51,51,1644.9963733315885,1646.9953047395952,left,1,3,1.4603183768949748,C23A08,2022-11-29_11h35.16.260,t1_Paradigm,2021.1.4,59.96964181962401,
T,left,Pretarget,0,52,52,52,1648.4965504143802,1650.4981114376878,left,1,3,0.9173292835271241,C23A08,2022-11-29_11h35.16.260,t1_Paradigm,2021.1.4,59.96964181962401,
V,left,Distractor,0,53,53,53,1651.9961821335014,1653.9982041495118,left,1,3,0.44141286403828417,C23A08,2022-11-29_11h35.16.260,t1_Paradigm,2021.1.4,59.96964181962401,
B,left,Distractor,0,54,54,54,1655.496348950624,1657.4983789866887,left,1,3,0.7008786129540567,C23A08,2022-11-29_11h35.16.260,t1_Paradigm,2021.1.4,59.96964181962401,
T,right,Target,0,55,55,55,1658.9965308454484,1660.9983279791454,right,1,3,0.5453152298259738,C23A08,2022-11-29_11h35.16.260,t1_Paradigm,2021.1.4,59.96964181962401,
Y,left,Pretarget,0,56,56,56,1662.496323928056,1664.4968445899603,left,1,3,0.5990130200766544,C23A08,2022-11-29_11h35.16.260,t1_Paradigm,2021.1.4,59.96964181962401,
T,left,Lure,0,57,57,57,1665.996171226228,1667.997964510299,None,0,3,,C23A08,2022-11-29_11h35.16.260,t1_Paradigm,2021.1.4,59.96964181962401,
P,left,Pretarget,0,58,58,58,1669.4960765895908,1671.4964005997717,left,1,3,1.1992014592651685,C23A08,2022-11-29_11h35.16.260,t1_Paradigm,2021.1.4,59.96964181962401,
Y,right,Target,0,59,59,59,1672.9964108654408,1674.9985634479303,left,0,3,0.897044321384783,C23A08,2022-11-29_11h35.16.260,t1_Paradigm,2021.1.4,59.96964181962401,
R,left,Distractor,0,60,60,60,1676.496352479448,1678.498127798598,left,1,3,0.8053436657291968,C23A08,2022-11-29_11h35.16.260,t1_Paradigm,2021.1.4,59.96964181962401,
P,right,Target,0,61,61,61,1680.0130373997576,1681.998655197348,right,1,3,0.6168043870338806,C23A08,2022-11-29_11h35.16.260,t1_Paradigm,2021.1.4,59.96964181962401,
L,left,Distractor,0,62,62,62,1683.4963313065055,1685.4964997276393,left,1,3,0.7027713456941456,C23A08,2022-11-29_11h35.16.260,t1_Paradigm,2021.1.4,59.96964181962401,
V,left,Distractor,0,63,63,63,1686.9961500532854,1688.9983472272752,left,1,3,0.721161650283193,C23A08,2022-11-29_11h35.16.260,t1_Paradigm,2021.1.4,59.96964181962401,
H,left,Lure,0,0,0,0,1697.0614470872129,1699.062046987251,None,0,3,,C23A08,2022-11-29_11h35.16.260,t1_Paradigm,2021.1.4,59.96964181962401,
B,left,Distractor,0,1,1,1,1700.562723559005,1702.5624832781878,None,0,3,,C23A08,2022-11-29_11h35.16.260,t1_Paradigm,2021.1.4,59.96964181962401,
T,left,Distractor,0,2,2,2,1704.0630652133045,1706.062947478912,None,0,3,,C23A08,2022-11-29_11h35.16.260,t1_Paradigm,2021.1.4,59.96964181962401,
R,left,Distractor,0,3,3,3,1707.5630212634087,1709.5647959409548,left,1,3,0.8748329422755887,C23A08,2022-11-29_11h35.16.260,t1_Paradigm,2021.1.4,59.96964181962401,
H,left,Pretarget,0,4,4,4,1711.0629888623907,1713.0629535741532,left,1,3,0.4487377397435921,C23A08,2022-11-29_11h35.16.260,t1_Paradigm,2021.1.4,59.96964181962401,
K,left,Distractor,0,5,5,5,1714.563019017794,1716.5640276197828,left,1,3,0.4674725858517377,C23A08,2022-11-29_11h35.16.260,t1_Paradigm,2021.1.4,59.96964181962401,
G,left,Distractor,0,6,6,6,1718.0626587569686,1720.0648905775915,left,1,3,0.8386843133516777,C23A08,2022-11-29_11h35.16.260,t1_Paradigm,2021.1.4,59.96964181962401,
H,right,Target,0,7,7,7,1721.5627825866022,1723.576082402526,left,0,3,0.49555528608198074,C23A08,2022-11-29_11h35.16.260,t1_Paradigm,2021.1.4,59.96964181962401,
Y,left,Pretarget,0,8,8,8,1725.0627543560122,1727.06541476832,left,1,3,0.4942024633755864,C23A08,2022-11-29_11h35.16.260,t1_Paradigm,2021.1.4,59.96964181962401,
S,left,Distractor,0,9,9,9,1728.5630944063014,1730.5640686824595,right,0,3,0.6115518932779196,C23A08,2022-11-29_11h35.16.260,t1_Paradigm,2021.1.4,59.96964181962401,
P,left,Distractor,0,10,10,10,1732.063001373675,1734.0646708281124,left,1,3,0.7592152024294592,C23A08,2022-11-29_11h35.16.260,t1_Paradigm,2021.1.4,59.96964181962401,
Y,right,Target,0,11,11,11,1735.563108200794,1737.5629365716386,right,1,3,0.6203980128229887,C23A08,2022-11-29_11h35.16.260,t1_Paradigm,2021.1.4,59.96964181962401,
H,left,Lure,0,12,12,12,1739.0631855141146,1741.0629824463476,None,0,3,,C23A08,2022-11-29_11h35.16.260,t1_Paradigm,2021.1.4,59.96964181962401,
Q,left,Distractor,0,13,13,13,1742.5627886818434,1744.5648864071636,left,1,3,0.6583604571555952,C23A08,2022-11-29_11h35.16.260,t1_Paradigm,2021.1.4,59.96964181962401,
V,left,Pretarget,0,14,14,14,1746.062961594207,1748.0652546880424,left,1,3,0.9342355573267014,C23A08,2022-11-29_11h35.16.260,t1_Paradigm,2021.1.4,59.96964181962401,
G,left,Distractor,0,15,15,15,1749.5630815742147,1751.5649130337429,left,1,3,0.7151979381401361,C23A08,2022-11-29_11h35.16.260,t1_Paradigm,2021.1.4,59.96964181962401,
Z,left,Pretarget,0,16,16,16,1753.063150225877,1755.0648017153935,left,1,3,0.6866725309305366,C23A08,2022-11-29_11h35.16.260,t1_Paradigm,2021.1.4,59.96964181962401,
V,right,Target,0,17,17,17,1756.5627755289547,1758.5637186873032,right,1,3,0.6119272318046569,C23A08,2022-11-29_11h35.16.260,t1_Paradigm,2021.1.4,59.96964181962401,
N,left,Distractor,0,18,18,18,1760.0631986670032,1762.0650073495776,left,1,3,0.4865182892517623,C23A08,2022-11-29_11h35.16.260,t1_Paradigm,2021.1.4,59.96964181962401,
Z,right,Target,0,19,19,19,1763.5630934438946,1765.5655709989715,right,1,3,0.9380361005087252,C23A08,2022-11-29_11h35.16.260,t1_Paradigm,2021.1.4,59.96964181962401,
R,left,Distractor,0,20,20,20,1767.0629846919628,1769.065392312169,left,1,3,0.6861448113781989,C23A08,2022-11-29_11h35.16.260,t1_Paradigm,2021.1.4,59.96964181962401,
P,left,Distractor,0,21,21,21,1770.5630315290782,1772.5645486024896,left,1,3,1.0593612315724386,C23A08,2022-11-29_11h35.16.260,t1_Paradigm,2021.1.4,59.96964181962401,
Z,right,Target,0,22,22,22,1774.0630507772075,1776.0627408823216,right,1,3,0.584794426767985,C23A08,2022-11-29_11h35.16.260,t1_Paradigm,2021.1.4,59.96964181962401,
D,left,Pretarget,0,23,23,23,1777.5630129225528,1779.5633651633239,left,1,3,0.6519537172312084,C23A08,2022-11-29_11h35.16.260,t1_Paradigm,2021.1.4,59.96964181962401,
K,left,Distractor,0,24,24,24,1781.062680892318,1783.064933885883,left,1,3,0.6546946508806286,C23A08,2022-11-29_11h35.16.260,t1_Paradigm,2021.1.4,59.96964181962401,
W,left,Distractor,0,25,25,25,1784.5628862056997,1786.5648572141672,left,1,3,0.6268932941443381,C23A08,2022-11-29_11h35.16.260,t1_Paradigm,2021.1.4,59.96964181962401,
D,right,Target,0,26,26,26,1788.0631893637405,1790.062958706988,right,1,3,0.4406708486435491,C23A08,2022-11-29_11h35.16.260,t1_Paradigm,2021.1.4,59.96964181962401,
G,left,Pretarget,0,27,27,27,1791.5630780453912,1793.5648751790882,left,1,3,0.762799845758309,C23A08,2022-11-29_11h35.16.260,t1_Paradigm,2021.1.4,59.96964181962401,
V,left,Distractor,0,28,28,28,1795.0631697948088,1797.0649008432606,left,1,3,0.622748851047163,C23A08,2022-11-29_11h35.16.260,t1_Paradigm,2021.1.4,59.96964181962401,
D,right,Target,0,29,29,29,1798.563075478974,1800.564919770588,right,1,3,0.41855955980827275,C23A08,2022-11-29_11h35.16.260,t1_Paradigm,2021.1.4,59.96964181962401,
G,right,Target,0,30,30,30,1802.0631489426682,1804.064698096296,left,0,3,0.39097025329920143,C23A08,2022-11-29_11h35.16.260,t1_Paradigm,2021.1.4,59.96964181962401,
B,left,Pretarget,0,31,31,31,1805.5630748373696,1807.5760567383531,left,1,3,0.6234340844594044,C23A08,2022-11-29_11h35.16.260,t1_Paradigm,2021.1.4,59.96964181962401,
N,left,Distractor,0,32,32,32,1809.0631999502116,1811.064865555023,left,1,3,0.7026799170789673,C23A08,2022-11-29_11h35.16.260,t1_Paradigm,2021.1.4,59.96964181962401,
F,left,Distractor,0,33,33,33,1812.5630424363512,1814.5637709780553,None,0,3,,C23A08,2022-11-29_11h35.16.260,t1_Paradigm,2021.1.4,59.96964181962401,
B,right,Target,0,34,34,34,1816.0630735541608,1818.0625692531662,right,1,3,0.6811332400438914,C23A08,2022-11-29_11h35.16.260,t1_Paradigm,2021.1.4,59.96964181962401,
Q,left,Pretarget,0,35,35,35,1819.5631524714922,1821.564905334491,left,1,3,0.5387041389253682,C23A08,2022-11-29_11h35.16.260,t1_Paradigm,2021.1.4,59.96964181962401,
S,left,Pretarget,0,36,36,36,1823.0630555892399,1825.0654978560792,left,1,3,0.7500271077824436,C23A08,2022-11-29_11h35.16.260,t1_Paradigm,2021.1.4,59.96964181962401,
W,left,Distractor,0,37,37,37,1826.5629603109987,1828.5632615442264,left,1,3,0.7563420982901334,C23A08,2022-11-29_11h35.16.260,t1_Paradigm,2021.1.4,59.96964181962401,
Q,right,Target,0,38,38,38,1830.0630132433548,1832.0653570239315,right,1,3,0.5661975255884499,C23A08,2022-11-29_11h35.16.260,t1_Paradigm,2021.1.4,59.96964181962401,
S,right,Target,0,39,39,39,1833.5631264865174,1835.56501216161,left,0,3,0.6985434940356754,C23A08,2022-11-29_11h35.16.260,t1_Paradigm,2021.1.4,59.96964181962401,
T,left,Distractor,0,40,40,40,1837.063055268438,1839.0648151890841,left,1,3,0.5907940687529845,C23A08,2022-11-29_11h35.16.260,t1_Paradigm,2021.1.4,59.96964181962401,
G,left,Distractor,0,41,41,41,1840.5627248422138,1842.5650509786715,left,1,3,0.6106398527390411,C23A08,2022-11-29_11h35.16.260,t1_Paradigm,2021.1.4,59.96964181962401,
D,left,Distractor,0,42,42,42,1844.0629779551173,1846.065197264456,left,1,3,0.8384517317863356,C23A08,2022-11-29_11h35.16.260,t1_Paradigm,2021.1.4,59.96964181962401,
S,left,Lure,0,43,43,43,1847.562948441319,1849.5650073495776,left,1,3,1.0025234297854695,C23A08,2022-11-29_11h35.16.260,t1_Paradigm,2021.1.4,59.96964181962401,
Z,left,Pretarget,0,44,44,44,1851.0631216744846,1853.0628361605627,left,1,3,0.576736518128655,C23A08,2022-11-29_11h35.16.260,t1_Paradigm,2021.1.4,59.96964181962401,
J,left,Distractor,0,45,45,45,1854.5627123309296,1856.5649884222503,left,1,3,0.5947370480939753,C23A08,2022-11-29_11h35.16.260,t1_Paradigm,2021.1.4,59.96964181962401,
M,left,Pretarget,0,46,46,46,1858.0630738749628,1860.0650288433221,left,1,3,0.7266707857666006,C23A08,2022-11-29_11h35.16.260,t1_Paradigm,2021.1.4,59.96964181962401,
Z,right,Target,0,47,47,47,1861.56310018074,1863.5649746277572,right,1,3,0.5067304293038433,C23A08,2022-11-29_11h35.16.260,t1_Paradigm,2021.1.4,59.96964181962401,
P,left,Distractor,0,48,48,48,1865.0630283210562,1867.065267840931,left,1,3,0.3822903092723209,C23A08,2022-11-29_11h35.16.260,t1_Paradigm,2021.1.4,59.96964181962401,
M,right,Target,0,49,49,49,1868.5630443611644,1870.5649961215022,right,1,3,0.674354690416294,C23A08,2022-11-29_11h35.16.260,t1_Paradigm,2021.1.4,59.96964181962401,
K,left,Distractor,0,50,50,50,1872.0631319401537,1874.0650962117757,left,1,3,0.6465780354460549,C23A08,2022-11-29_11h35.16.260,t1_Paradigm,2021.1.4,59.96964181962401,
Y,left,Distractor,0,51,51,51,1875.5630783661932,1877.562567007551,left,1,3,1.0689820883321772,C23A08,2022-11-29_11h35.16.260,t1_Paradigm,2021.1.4,59.96964181962401,
X,left,Distractor,0,52,52,52,1879.0628149876202,1881.0629696142614,left,1,3,0.9285486974472406,C23A08,2022-11-29_11h35.16.260,t1_Paradigm,2021.1.4,59.96964181962401,
F,left,Pretarget,0,53,53,53,1882.562826215696,1884.5627187469727,left,1,3,0.9168451930686388,C23A08,2022-11-29_11h35.16.260,t1_Paradigm,2021.1.4,59.96964181962401,
M,left,Lure,0,54,54,54,1886.0626112782493,1888.0652752193805,left,1,3,0.5822546360723209,C23A08,2022-11-29_11h35.16.260,t1_Paradigm,2021.1.4,59.96964181962401,
V,left,Distractor,0,55,55,55,1889.5632939452444,1891.5630235090239,left,1,3,0.7164304600369178,C23A08,2022-11-29_11h35.16.260,t1_Paradigm,2021.1.4,59.96964181962401,
F,right,Target,0,56,56,56,1893.063108200794,1895.0649005224586,right,1,3,0.462832824220186,C23A08,2022-11-29_11h35.16.260,t1_Paradigm,2021.1.4,59.96964181962401,
S,left,Distractor,0,57,57,57,1896.5629917496103,1898.5657374952925,left,1,3,0.753825405349744,C23A08,2022-11-29_11h35.16.260,t1_Paradigm,2021.1.4,59.96964181962401,
D,left,Distractor,0,58,58,58,1900.0630369827145,1902.0631845517082,left,1,3,0.6805416808620066,C23A08,2022-11-29_11h35.16.260,t1_Paradigm,2021.1.4,59.96964181962401,
F,right,Target,0,59,59,59,1903.563130015341,1905.5655074801443,right,1,3,0.8260652396102159,C23A08,2022-11-29_11h35.16.260,t1_Paradigm,2021.1.4,59.96964181962401,
V,left,Pretarget,0,60,60,60,1907.0631531130962,1909.0629821255457,left,1,3,0.8487995262394179,C23A08,2022-11-29_11h35.16.260,t1_Paradigm,2021.1.4,59.96964181962401,
J,left,Distractor,0,61,61,61,1910.563089915071,1912.5649935550846,left,1,3,0.8185462785986601,C23A08,2022-11-29_11h35.16.260,t1_Paradigm,2021.1.4,59.96964181962401,
V,left,Lure,0,62,62,62,1914.0630549476355,1916.0640937050275,left,1,3,0.6156754842345435,C23A08,2022-11-29_11h35.16.260,t1_Paradigm,2021.1.4,59.96964181962401,
V,right,Target,0,63,63,63,1917.5630892734666,1919.563257052996,left,0,3,1.2283136136247776,C23A08,2022-11-29_11h35.16.260,t1_Paradigm,2021.1.4,59.96964181962401,
R,left,Distractor,0,0,0,0,1987.0211212933718,1989.0148268342027,None,0,4,,C23A08,2022-11-29_11h35.16.260,t1_Paradigm,2021.1.4,59.96964181962401,
F,left,Distractor,0,1,1,1,1990.5128657706023,1992.5148945234582,None,0,4,,C23A08,2022-11-29_11h35.16.260,t1_Paradigm,2021.1.4,59.96964181962401,
P,left,Pretarget,0,2,2,2,1994.0129802969732,1996.014084818808,None,0,4,,C23A08,2022-11-29_11h35.16.260,t1_Paradigm,2021.1.4,59.96964181962401,
H,left,Distractor,0,3,3,3,1997.51313877324,1999.5138130993787,None,0,4,,C23A08,2022-11-29_11h35.16.260,t1_Paradigm,2021.1.4,59.96964181962401,
Z,left,Distractor,0,4,4,4,2001.0132590740495,2003.0149051099293,left,1,4,0.5129145325304307,C23A08,2022-11-29_11h35.16.260,t1_Paradigm,2021.1.4,59.96964181962401,
T,left,Distractor,0,5,5,5,2004.5122985923845,2006.5143459517658,left,1,4,0.5973474152647213,C23A08,2022-11-29_11h35.16.260,t1_Paradigm,2021.1.4,59.96964181962401,
P,right,Target,0,6,6,6,2008.0131099010455,2010.015077701491,right,1,4,0.44063235238445486,C23A08,2022-11-29_11h35.16.260,t1_Paradigm,2021.1.4,59.96964181962401,
G,left,Distractor,0,7,7,7,2011.5130791040383,2013.5142490695134,left,1,4,0.5254245335377163,C23A08,2022-11-29_11h35.16.260,t1_Paradigm,2021.1.4,59.96964181962401,
L,left,Distractor,0,8,8,8,2015.0130303421101,2017.0145592852018,left,1,4,0.4815548382421184,C23A08,2022-11-29_11h35.16.260,t1_Paradigm,2021.1.4,59.96964181962401,
P,left,Lure,0,9,9,9,2018.5128522969117,2020.5150565285485,left,1,4,0.8366084025788041,C23A08,2022-11-29_11h35.16.260,t1_Paradigm,2021.1.4,59.96964181962401,
Q,left,Pretarget,0,10,10,10,2022.013255866028,2024.0144826134856,left,1,4,0.585163349251161,C23A08,2022-11-29_11h35.16.260,t1_Paradigm,2021.1.4,59.96964181962401,
D,left,Distractor,0,11,11,11,2025.512295384363,2027.5152952053554,left,1,4,1.0683427296285117,C23A08,2022-11-29_11h35.16.260,t1_Paradigm,2021.1.4,59.96964181962401,
M,left,Pretarget,0,12,12,12,2029.0130457406135,2031.0142901321901,left,1,4,0.7533647334485067,C23A08,2022-11-29_11h35.16.260,t1_Paradigm,2021.1.4,59.96964181962401,
C,left,Distractor,0,13,13,13,2032.512159043445,2034.5126460211231,left,1,4,0.45491927655257314,C23A08,2022-11-29_11h35.16.260,t1_Paradigm,2021.1.4,59.96964181962401,
Q,right,Target,0,14,14,14,2036.0126649484505,2038.0150116162463,right,1,4,0.4088103821841287,C23A08,2022-11-29_11h35.16.260,t1_Paradigm,2021.1.4,59.96964181962401,
R,left,Distractor,0,15,15,15,2039.5130357957469,2041.5151046488727,left,1,4,0.6365394942745297,C23A08,2022-11-29_11h35.16.260,t1_Paradigm,2021.1.4,59.96964181962401,
M,right,Target,0,16,16,16,2043.0130903321137,2045.0133010991326,right,1,4,0.7703345260756578,C23A08,2022-11-29_11h35.16.260,t1_Paradigm,2021.1.4,59.96964181962401,
S,left,Distractor,0,17,17,17,2046.5126094496768,2048.513745089321,left,1,4,0.6620544940210493,C23A08,2022-11-29_11h35.16.260,t1_Paradigm,2021.1.4,59.96964181962401,
Z,left,Distractor,0,18,18,18,2050.0130932193333,2052.015633010029,left,1,4,0.7600541000761041,C23A08,2022-11-29_11h35.16.260,t1_Paradigm,2021.1.4,59.96964181962401,
L,left,Pretarget,0,19,19,19,2053.512909399696,2055.515305150222,left,1,4,0.972357119530443,C23A08,2022-11-29_11h35.16.260,t1_Paradigm,2021.1.4,59.96964181962401,
M,right,Target,0,20,20,20,2057.0127637555156,2059.0155932305615,right,1,4,0.6562069122596768,C23A08,2022-11-29_11h35.16.260,t1_Paradigm,2021.1.4,59.96964181962401,
P,left,Distractor,0,21,21,21,2060.5131538509413,2062.5151704133154,left,1,4,0.6446670169830213,C23A08,2022-11-29_11h35.16.260,t1_Paradigm,2021.1.4,59.96964181962401,
F,left,Distractor,0,22,22,22,2064.0131827231357,2066.014735405587,left,1,4,0.44108019219902417,C23A08,2022-11-29_11h35.16.260,t1_Paradigm,2021.1.4,59.96964181962401,
L,right,Target,0,23,23,23,2067.5121394745133,2069.515496027507,right,1,4,0.44432061481074925,C23A08,2022-11-29_11h35.16.260,t1_Paradigm,2021.1.4,59.96964181962401,
L,left,Lure,0,24,24,24,2071.012907474883,2073.0132885878484,left,1,4,0.7703595486441372,C23A08,2022-11-29_11h35.16.260,t1_Paradigm,2021.1.4,59.96964181962401,
V,left,Pretarget,0,25,25,25,2074.5131820815313,2076.5150238067285,left,1,4,0.7885570511352853,C23A08,2022-11-29_11h35.16.260,t1_Paradigm,2021.1.4,59.96964181962401,
Z,left,Distractor,0,26,26,26,2078.0131625125996,2080.0132269938335,left,1,4,0.7146281935051775,C23A08,2022-11-29_11h35.16.260,t1_Paradigm,2021.1.4,59.96964181962401,
H,left,Distractor,0,27,27,27,2081.5128628833827,2083.514457911719,left,1,4,0.5252814557748025,C23A08,2022-11-29_11h35.16.260,t1_Paradigm,2021.1.4,59.96964181962401,
X,left,Distractor,0,28,28,28,2085.012654361979,2087.0152714659953,left,1,4,0.6404305036658116,C23A08,2022-11-29_11h35.16.260,t1_Paradigm,2021.1.4,59.96964181962401,
V,right,Target,0,29,29,29,2088.512591163954,2090.526171040163,left,0,4,0.8576414753561039,C23A08,2022-11-29_11h35.16.260,t1_Paradigm,2021.1.4,59.96964181962401,
C,left,Distractor,0,30,30,30,2092.0131471140962,2094.0131541717437,left,1,4,0.6344510722169616,C23A08,2022-11-29_11h35.16.260,t1_Paradigm,2021.1.4,59.96964181962401,
S,left,Pretarget,0,31,31,31,2095.5129087580917,2097.514920508433,left,1,4,0.7005748133092311,C23A08,2022-11-29_11h35.16.260,t1_Paradigm,2021.1.4,59.96964181962401,
D,left,Distractor,0,32,32,32,2099.0128641665915,2101.014419094658,left,1,4,0.48157376556901,C23A08,2022-11-29_11h35.16.260,t1_Paradigm,2021.1.4,59.96964181962401,
V,left,Distractor,0,33,33,33,2102.5128526177136,2104.514930774102,right,0,4,0.40476346294417453,C23A08,2022-11-29_11h35.16.260,t1_Paradigm,2021.1.4,59.96964181962401,
R,left,Distractor,0,34,34,34,2106.013281851003,2108.0131718158623,left,1,4,0.5864850541483975,C23A08,2022-11-29_11h35.16.260,t1_Paradigm,2021.1.4,59.96964181962401,
S,right,Target,0,35,35,35,2109.513185289553,2111.5148229845768,right,1,4,0.7006967181296204,C23A08,2022-11-29_11h35.16.260,t1_Paradigm,2021.1.4,59.96964181962401,
Y,left,Distractor,0,36,36,36,2113.0130046779373,2115.014602272691,left,1,4,0.7691042497945091,C23A08,2022-11-29_11h35.16.260,t1_Paradigm,2021.1.4,59.96964181962401,
N,left,Pretarget,0,37,37,37,2116.5131034850024,2118.5150481876926,left,1,4,0.6447979042636689,C23A08,2022-11-29_11h35.16.260,t1_Paradigm,2021.1.4,59.96964181962401,
Z,left,Pretarget,0,38,38,38,2120.0132045376827,2122.0127252592565,left,1,4,0.4910839455842506,C23A08,2022-11-29_11h35.16.260,t1_Paradigm,2021.1.4,59.96964181962401,
P,left,Pretarget,0,39,39,39,2123.513038041362,2125.514525921777,left,1,4,0.7169427810849811,C23A08,2022-11-29_11h35.16.260,t1_Paradigm,2021.1.4,59.96964181962401,
M,left,Distractor,0,40,40,40,2127.0131378108335,2129.012783003645,left,1,4,0.5630565516462411,C23A08,2022-11-29_11h35.16.260,t1_Paradigm,2021.1.4,59.96964181962401,
N,right,Target,0,41,41,41,2130.513149359711,2132.5145307338094,right,1,4,0.43716800986521775,C23A08,2022-11-29_11h35.16.260,t1_Paradigm,2021.1.4,59.96964181962401,
Z,right,Target,0,42,42,42,2134.01319523442,2136.0147036461735,right,1,4,0.44111291401941344,C23A08,2022-11-29_11h35.16.260,t1_Paradigm,2021.1.4,59.96964181962401,
P,right,Target,0,43,43,43,2137.513046061416,2139.5151383330995,right,1,4,0.5246786685170264,C23A08,2022-11-29_11h35.16.260,t1_Paradigm,2021.1.4,59.96964181962401,
X,left,Pretarget,0,44,44,44,2141.013201650463,2143.0151412203186,left,1,4,0.5606181344328434,C23A08,2022-11-29_11h35.16.260,t1_Paradigm,2021.1.4,59.96964181962401,
Z,left,Lure,0,45,45,45,2144.51333189614,2146.5149532302535,left,1,4,1.2367766953911996,C23A08,2022-11-29_11h35.16.260,t1_Paradigm,2021.1.4,59.96964181962401,
R,left,Pretarget,0,46,46,46,2148.0133219512727,2150.0155653207735,left,1,4,0.888230602857675,C23A08,2022-11-29_11h35.16.260,t1_Paradigm,2021.1.4,59.96964181962401,
K,left,Distractor,0,47,47,47,2151.513265810895,2153.514658413069,left,1,4,0.6370980108340518,C23A08,2022-11-29_11h35.16.260,t1_Paradigm,2021.1.4,59.96964181962401,
X,right,Target,0,48,48,48,2155.0128269535408,2157.013201329661,right,1,4,0.9146983850178003,C23A08,2022-11-29_11h35.16.260,t1_Paradigm,2021.1.4,59.96964181962401,
B,left,Distractor,0,49,49,49,2158.513211916132,2160.514949059825,left,1,4,0.6926663984763763,C23A08,2022-11-29_11h35.16.260,t1_Paradigm,2021.1.4,59.96964181962401,
R,right,Target,0,50,50,50,2162.0128484472857,2164.0144649693666,right,1,4,0.7134245438032849,C23A08,2022-11-29_11h35.16.260,t1_Paradigm,2021.1.4,59.96964181962401,
Y,left,Pretarget,0,51,51,51,2165.5131313947904,2167.515004558599,left,1,4,0.5408172627489876,C23A08,2022-11-29_11h35.16.260,t1_Paradigm,2021.1.4,59.96964181962401,
W,left,Pretarget,0,52,52,52,2169.0128035349835,2171.0149702327676,left,1,4,0.6728482034754961,C23A08,2022-11-29_11h35.16.260,t1_Paradigm,2021.1.4,59.96964181962401,
Z,left,Distractor,0,53,53,53,2172.512996016279,2174.515606704252,left,1,4,0.4681687265369874,C23A08,2022-11-29_11h35.16.260,t1_Paradigm,2021.1.4,59.96964181962401,
Q,left,Distractor,0,54,54,54,2176.013191705596,2178.0123820009458,left,1,4,0.6032424757454464,C23A08,2022-11-29_11h35.16.260,t1_Paradigm,2021.1.4,59.96964181962401,
Y,right,Target,0,55,55,55,2179.5127092191483,2181.514871746505,left,0,4,0.8130746769684265,C23A08,2022-11-29_11h35.16.260,t1_Paradigm,2021.1.4,59.96964181962401,
W,right,Target,0,56,56,56,2183.012854863329,2185.012971635315,right,1,4,0.7068394378779885,C23A08,2022-11-29_11h35.16.260,t1_Paradigm,2021.1.4,59.96964181962401,
H,left,Pretarget,0,57,57,57,2186.512925439804,2188.5127316752996,left,1,4,0.6151605967688738,C23A08,2022-11-29_11h35.16.260,t1_Paradigm,2021.1.4,59.96964181962401,
M,left,Distractor,0,58,58,58,2190.0131227331317,2192.012637359465,left,1,4,1.0350174805098504,C23A08,2022-11-29_11h35.16.260,t1_Paradigm,2021.1.4,59.96964181962401,
R,left,Pretarget,0,59,59,59,2193.5129090788937,2195.514489671133,left,1,4,0.6854117784437221,C23A08,2022-11-29_11h35.16.260,t1_Paradigm,2021.1.4,59.96964181962401,
J,left,Distractor,0,60,60,60,2197.0131262619557,2199.014064608272,left,1,4,0.6577368177581775,C23A08,2022-11-29_11h35.16.260,t1_Paradigm,2021.1.4,59.96964181962401,
H,right,Target,0,61,61,61,2200.5128641665915,2202.513360768334,right,1,4,0.45433926624855303,C23A08,2022-11-29_11h35.16.260,t1_Paradigm,2021.1.4,59.96964181962401,
Z,left,Distractor,0,62,62,62,2204.0133902821326,2206.0154908946724,left,1,4,0.6641413120682955,C23A08,2022-11-29_11h35.16.260,t1_Paradigm,2021.1.4,59.96964181962401,
R,right,Target,0,63,63,63,2207.512633830641,2209.514813681314,right,1,4,1.1650729215384672,C23A08,2022-11-29_11h35.16.260,t1_Paradigm,2021.1.4,59.96964181962401,
J,left,Pretarget,0,0,0,0,2216.6211682588078,2218.61444167913,None,0,4,,C23A08,2022-11-29_11h35.16.260,t1_Paradigm,2021.1.4,59.96964181962401,
G,left,Pretarget,0,1,1,1,2220.112889638283,2222.1150127069736,None,0,4,,C23A08,2022-11-29_11h35.16.260,t1_Paradigm,2021.1.4,59.96964181962401,
Z,left,Distractor,0,2,2,2,2223.61321749809,2225.6151070228084,None,0,4,,C23A08,2022-11-29_11h35.16.260,t1_Paradigm,2021.1.4,59.96964181962401,
F,left,Distractor,0,3,3,3,2227.113181568248,2229.114274541205,None,0,4,,C23A08,2022-11-29_11h35.16.260,t1_Paradigm,2021.1.4,59.96964181962401,
J,right,Target,0,4,4,4,2230.613231613385,2232.6123776380364,left,0,4,0.7553999023480173,C23A08,2022-11-29_11h35.16.260,t1_Paradigm,2021.1.4,59.96964181962401,
G,right,Target,0,5,5,5,2234.1132142900683,2236.1152221907837,right,1,4,0.7405698601237418,C23A08,2022-11-29_11h35.16.260,t1_Paradigm,2021.1.4,59.96964181962401,
H,left,Distractor,0,6,6,6,2237.6128979791392,2239.6150627521106,left,1,4,0.488776094849527,C23A08,2022-11-29_11h35.16.260,t1_Paradigm,2021.1.4,59.96964181962401,
P,left,Distractor,0,7,7,7,2241.113248295097,2243.1149960252615,left,1,4,0.7007076254030835,C23A08,2022-11-29_11h35.16.260,t1_Paradigm,2021.1.4,59.96964181962401,
G,left,Lure,0,8,8,8,2244.6129451370566,2246.6131167662115,None,0,4,,C23A08,2022-11-29_11h35.16.260,t1_Paradigm,2021.1.4,59.96964181962401,
S,left,Distractor,0,9,9,9,2248.1132168564855,2250.115306561752,left,1,4,0.6125601744652158,C23A08,2022-11-29_11h35.16.260,t1_Paradigm,2021.1.4,59.96964181962401,
R,left,Pretarget,0,10,10,10,2251.6131950419385,2253.6143361352197,right,0,4,0.6977578495479975,C23A08,2022-11-29_11h35.16.260,t1_Paradigm,2021.1.4,59.96964181962401,
T,left,Pretarget,0,11,11,11,2255.1129929365784,2257.113129277496,left,1,4,0.5427369428712154,C23A08,2022-11-29_11h35.16.260,t1_Paradigm,2021.1.4,59.96964181962401,
X,left,Distractor,0,12,12,12,2258.6129775380746,2260.614961057826,left,1,4,0.6087253054515713,C23A08,2022-11-29_11h35.16.260,t1_Paradigm,2021.1.4,59.96964181962401,
F,left,Pretarget,0,13,13,13,2262.113224234935,2264.115123704521,left,1,4,0.7727463167102542,C23A08,2022-11-29_11h35.16.260,t1_Paradigm,2021.1.4,59.96964181962401,
R,right,Target,0,14,14,14,2265.612986199733,2267.615532727274,right,1,4,0.4084177203417312,C23A08,2022-11-29_11h35.16.260,t1_Paradigm,2021.1.4,59.96964181962401,
T,right,Target,0,15,15,15,2269.11323835023,2271.1151089476216,right,1,4,0.4447883443590399,C23A08,2022-11-29_11h35.16.260,t1_Paradigm,2021.1.4,59.96964181962401,
C,left,Distractor,0,16,16,16,2272.6132463702843,2274.612917548071,left,1,4,0.7868423635932231,C23A08,2022-11-29_11h35.16.260,t1_Paradigm,2021.1.4,59.96964181962401,
F,right,Target,0,17,17,17,2276.113253427932,2278.114830812149,right,1,4,0.5489200836909731,C23A08,2022-11-29_11h35.16.260,t1_Paradigm,2021.1.4,59.96964181962401,
M,left,Distractor,0,18,18,18,2279.613127673485,2281.6149921756355,left,1,4,0.600579817823018,C23A08,2022-11-29_11h35.16.260,t1_Paradigm,2021.1.4,59.96964181962401,
N,left,Distractor,0,19,19,19,2283.113185738676,2285.1149613786283,left,1,4,0.5249433302983562,C23A08,2022-11-29_11h35.16.260,t1_Paradigm,2021.1.4,59.96964181962401,
R,left,Lure,0,20,20,20,2286.6129980694127,2288.6156324967455,left,1,4,1.3442502308171242,C23A08,2022-11-29_11h35.16.260,t1_Paradigm,2021.1.4,59.96964181962401,
F,right,Target,0,21,21,21,2290.113228084561,2292.1150563360675,right,1,4,0.46868425560705873,C23A08,2022-11-29_11h35.16.260,t1_Paradigm,2021.1.4,59.96964181962401,
P,left,Distractor,0,22,22,22,2293.613369237511,2295.615512195936,left,1,4,0.4243019184609693,C23A08,2022-11-29_11h35.16.260,t1_Paradigm,2021.1.4,59.96964181962401,
L,left,Pretarget,0,23,23,23,2297.1130263000027,2299.1150451079916,left,1,4,0.7969007944984696,C23A08,2022-11-29_11h35.16.260,t1_Paradigm,2021.1.4,59.96964181962401,
T,left,Distractor,0,24,24,24,2300.613159432899,2302.612837026729,left,1,4,0.8833540892333076,C23A08,2022-11-29_11h35.16.260,t1_Paradigm,2021.1.4,59.96964181962401,
F,left,Distractor,0,25,25,25,2304.113123503057,2306.115220265971,right,0,4,0.4205616860849659,C23A08,2022-11-29_11h35.16.260,t1_Paradigm,2021.1.4,59.96964181962401,
V,left,Distractor,0,26,26,26,2307.613224234935,2309.613127673485,left,1,4,0.7467754570948273,C23A08,2022-11-29_11h35.16.260,t1_Paradigm,2021.1.4,59.96964181962401,
L,right,Target,0,27,27,27,2311.1133503101837,2313.113157508086,right,1,4,0.7988130961707611,C23A08,2022-11-29_11h35.16.260,t1_Paradigm,2021.1.4,59.96964181962401,
S,left,Pretarget,0,28,28,28,2314.6132617687877,2316.61319375873,left,1,4,0.5307466413619295,C23A08,2022-11-29_11h35.16.260,t1_Paradigm,2021.1.4,59.96964181962401,
W,left,Distractor,0,29,29,29,2318.113240595845,2320.112366730763,left,1,4,0.471431605300495,C23A08,2022-11-29_11h35.16.260,t1_Paradigm,2021.1.4,59.96964181962401,
Q,left,Distractor,0,30,30,30,2321.613352234997,2323.615393499137,left,1,4,0.5842089628272333,C23A08,2022-11-29_11h35.16.260,t1_Paradigm,2021.1.4,59.96964181962401,
L,right,Target,0,31,31,31,2325.1129592523516,2327.11272282116,right,1,4,0.7669975420135415,C23A08,2022-11-29_11h35.16.260,t1_Paradigm,2021.1.4,59.96964181962401,
S,right,Target,0,32,32,32,2328.6131806058415,2330.6147502908075,right,1,4,0.656810982726256,C23A08,2022-11-29_11h35.16.260,t1_Paradigm,2021.1.4,59.96964181962401,
Z,left,Pretarget,0,33,33,33,2332.113143713593,2334.1145956641667,left,1,4,0.5491735173968664,C23A08,2022-11-29_11h35.16.260,t1_Paradigm,2021.1.4,59.96964181962401,
F,left,Distractor,0,34,34,34,2335.6130436233193,2337.6140884759525,left,1,4,0.7297485616832091,C23A08,2022-11-29_11h35.16.260,t1_Paradigm,2021.1.4,59.96964181962401,
V,left,Distractor,0,35,35,35,2339.1132268013525,2341.1131347311325,left,1,4,0.6227183748414973,C23A08,2022-11-29_11h35.16.260,t1_Paradigm,2021.1.4,59.96964181962401,
M,left,Distractor,0,36,36,36,2342.6132229517266,2344.6155834140154,left,1,4,0.7842660014512148,C23A08,2022-11-29_11h35.16.260,t1_Paradigm,2021.1.4,59.96964181962401,
Z,right,Target,0,37,37,37,2346.113195362741,2348.1146348020297,left,0,4,0.7412098604318089,C23A08,2022-11-29_11h35.16.260,t1_Paradigm,2021.1.4,59.96964181962401,
H,left,Pretarget,0,38,38,38,2349.612881618229,2351.613810019678,left,1,4,0.7780260786489634,C23A08,2022-11-29_11h35.16.260,t1_Paradigm,2021.1.4,59.96964181962401,
L,left,Distractor,0,39,39,39,2353.113255994349,2355.114339343241,left,1,4,0.4616497058564164,C23A08,2022-11-29_11h35.16.260,t1_Paradigm,2021.1.4,59.96964181962401,
G,left,Distractor,0,40,40,40,2356.6132425206583,2358.6148349825776,left,1,4,0.8329348970510182,C23A08,2022-11-29_11h35.16.260,t1_Paradigm,2021.1.4,59.96964181962401,
K,left,Distractor,0,41,41,41,2360.113123823859,2362.1133734079394,left,1,4,0.5504246458185662,C23A08,2022-11-29_11h35.16.260,t1_Paradigm,2021.1.4,59.96964181962401,
H,right,Target,0,42,42,42,2363.6132373878236,2365.6127735079012,right,1,4,0.47509131633432844,C23A08,2022-11-29_11h35.16.260,t1_Paradigm,2021.1.4,59.96964181962401,
B,left,Distractor,0,43,43,43,2367.11314916723,2369.1151673336144,left,1,4,0.6686960611273207,C23A08,2022-11-29_11h35.16.260,t1_Paradigm,2021.1.4,59.96964181962401,
Z,left,Distractor,0,44,44,44,2370.6132014579816,2372.6128726357683,left,1,4,0.6426863844503714,C23A08,2022-11-29_11h35.16.260,t1_Paradigm,2021.1.4,59.96964181962401,
T,left,Pretarget,0,45,45,45,2374.113366671094,2376.1124417984684,left,1,4,0.5194101346537536,C23A08,2022-11-29_11h35.16.260,t1_Paradigm,2021.1.4,59.96964181962401,
H,right,Target,0,46,46,46,2377.6132466910863,2379.6154268625614,right,1,4,0.8404997327720594,C23A08,2022-11-29_11h35.16.260,t1_Paradigm,2021.1.4,59.96964181962401,
F,left,Distractor,0,47,47,47,2381.1133711623243,2383.1146518045443,left,1,4,0.6691968332975193,C23A08,2022-11-29_11h35.16.260,t1_Paradigm,2021.1.4,59.96964181962401,
R,left,Distractor,0,48,48,48,2384.613201778784,2386.6136008566705,left,1,4,0.88248888580938,C23A08,2022-11-29_11h35.16.260,t1_Paradigm,2021.1.4,59.96964181962401,
T,right,Target,0,49,49,49,2388.113285508148,2390.115612927814,right,1,4,0.692201876949639,C23A08,2022-11-29_11h35.16.260,t1_Paradigm,2021.1.4,59.96964181962401,
H,right,Target,0,50,50,50,2391.613177718622,2393.6149097294806,right,1,4,1.0168302436877639,C23A08,2022-11-29_11h35.16.260,t1_Paradigm,2021.1.4,59.96964181962401,
Y,left,Pretarget,0,51,51,51,2395.1128649365164,2397.1126416582138,left,1,4,0.7511024366208403,C23A08,2022-11-29_11h35.16.260,t1_Paradigm,2021.1.4,59.96964181962401,
H,left,Distractor,0,52,52,52,2398.612978500481,2400.612440836062,left,1,4,0.7233613906901155,C23A08,2022-11-29_11h35.16.260,t1_Paradigm,2021.1.4,59.96964181962401,
S,left,Distractor,0,53,53,53,2402.1129634227796,2404.114672656685,left,1,4,0.9330896520127681,C23A08,2022-11-29_11h35.16.260,t1_Paradigm,2021.1.4,59.96964181962401,
Q,left,Distractor,0,54,54,54,2405.6129249265205,2407.613259843975,left,1,4,0.7627167579989873,C23A08,2022-11-29_11h35.16.260,t1_Paradigm,2021.1.4,59.96964181962401,
Y,right,Target,0,55,55,55,2409.11339137286,2411.1152340604635,right,1,4,0.5886607343932155,C23A08,2022-11-29_11h35.16.260,t1_Paradigm,2021.1.4,59.96964181962401,
R,left,Distractor,0,56,56,56,2412.6129547611213,2414.6151775992835,left,1,4,0.7366557529771853,C23A08,2022-11-29_11h35.16.260,t1_Paradigm,2021.1.4,59.96964181962401,
H,left,Pretarget,0,57,57,57,2416.1133737287414,2418.1157207173396,left,1,4,1.0282068506662654,C23A08,2022-11-29_11h35.16.260,t1_Paradigm,2021.1.4,59.96964181962401,
J,left,Distractor,0,58,58,58,2419.6133153427486,2421.613187984291,left,1,4,1.0186661944458137,C23A08,2022-11-29_11h35.16.260,t1_Paradigm,2021.1.4,59.96964181962401,
V,left,Distractor,0,59,59,59,2423.113258560766,2425.1139547014523,left,1,4,0.7338513004997367,C23A08,2022-11-29_11h35.16.260,t1_Paradigm,2021.1.4,59.96964181962401,
Y,left,Lure,0,60,60,60,2426.6132537487338,2428.6159465620594,left,1,4,0.7998659688573753,C23A08,2022-11-29_11h35.16.260,t1_Paradigm,2021.1.4,59.96964181962401,
H,right,Target,0,61,61,61,2430.113115803805,2432.1143361352197,right,1,4,0.7098415044852118,C23A08,2022-11-29_11h35.16.260,t1_Paradigm,2021.1.4,59.96964181962401,
L,left,Distractor,0,62,62,62,2433.613308285101,2435.6131825306543,left,1,4,0.9387014441872452,C23A08,2022-11-29_11h35.16.260,t1_Paradigm,2021.1.4,59.96964181962401,
P,left,Distractor,0,63,63,63,2437.11331117232,2439.114763764498,left,1,4,1.0370901832616255,C23A08,2022-11-29_11h35.16.260,t1_Paradigm,2021.1.4,59.96964181962401,
