Letter,CorrAnswer,Stimulus,finaln_nback_run.thisRepN,finaln_nback_run.thisTrialN,finaln_nback_run.thisN,finaln_nback_run.thisIndex,finaln_fixcross.started,finaln_nback_trial.started,finaln_trial_resp.keys,finaln_trial_resp.corr,finaln_level,finaln_money,finaln_trial_resp.rt,Participant,date,expName,psychopyVersion,frameRate,
T,left,Distractor,0,0,0,0,2952.8036579192267,2954.804291183478,None,0,0,3.0,,D02R08,2022-11-03_11h58.31.966,t1_Paradigm,2021.1.4,60.07936875168714,
F,left,Distractor,0,1,1,1,2956.3022431798745,2958.3041144212475,left,1,0,3.0,0.6930050924420357,D02R08,2022-11-03_11h58.31.966,t1_Paradigm,2021.1.4,60.07936875168714,
G,left,Distractor,0,2,2,2,2959.8022438214975,2961.8037872026325,left,1,0,3.0,0.45746510790195316,D02R08,2022-11-03_11h58.31.966,t1_Paradigm,2021.1.4,60.07936875168714,
V,left,Distractor,0,3,3,3,2963.302369576064,2965.304503233987,left,1,0,3.0,0.4607510886271484,D02R08,2022-11-03_11h58.31.966,t1_Paradigm,2021.1.4,60.07936875168714,
H,left,Distractor,0,4,4,4,2966.802357706416,2968.8028895970783,left,1,0,3.0,0.5941610082518309,D02R08,2022-11-03_11h58.31.966,t1_Paradigm,2021.1.4,60.07936875168714,
C,left,Pretarget,0,5,5,5,2970.3020962523296,2972.3045975499554,left,1,0,3.0,0.4363877373980358,D02R08,2022-11-03_11h58.31.966,t1_Paradigm,2021.1.4,60.07936875168714,
C,right,Target,0,6,6,6,2973.802291300264,2975.8021870394587,right,1,0,3.0,0.44297092693159357,D02R08,2022-11-03_11h58.31.966,t1_Paradigm,2021.1.4,60.07936875168714,
C,right,Target,0,7,7,7,2977.3015287525486,2979.302114858874,right,1,0,3.0,0.5590911919716746,D02R08,2022-11-03_11h58.31.966,t1_Paradigm,2021.1.4,60.07936875168714,
W,left,Distractor,0,8,8,8,2980.8023076612153,2982.8046238557436,left,1,0,3.0,0.41654289030702785,D02R08,2022-11-03_11h58.31.966,t1_Paradigm,2021.1.4,60.07936875168714,
R,left,Pretarget,0,9,9,9,2984.3020988187054,2986.304087794677,left,1,0,3.0,0.6292452606139705,D02R08,2022-11-03_11h58.31.966,t1_Paradigm,2021.1.4,60.07936875168714,
R,right,Target,0,10,10,10,2987.802367009688,2989.802040432638,right,1,0,3.0,0.5712239452404901,D02R08,2022-11-03_11h58.31.966,t1_Paradigm,2021.1.4,60.07936875168714,
Z,left,Distractor,0,11,11,11,2991.3020439614775,2993.304359514441,left,1,0,3.0,0.6848669728497043,D02R08,2022-11-03_11h58.31.966,t1_Paradigm,2021.1.4,60.07936875168714,
R,left,Lure,0,12,12,12,2994.8020154100377,2996.8028511007433,left,1,0,3.0,1.042199332616292,D02R08,2022-11-03_11h58.31.966,t1_Paradigm,2021.1.4,60.07936875168714,
H,left,Pretarget,0,13,13,13,2998.3022746185306,3000.30323028937,left,1,0,3.0,0.9499586485908367,D02R08,2022-11-03_11h58.31.966,t1_Paradigm,2021.1.4,60.07936875168714,
H,right,Target,0,14,14,14,3001.8015130332205,3003.8025161828846,right,1,0,3.0,0.6346719569410197,D02R08,2022-11-03_11h58.31.966,t1_Paradigm,2021.1.4,60.07936875168714,
K,left,Distractor,0,15,15,15,3005.3014379654196,3007.3027834114037,left,1,0,3.0,0.5424575787037611,D02R08,2022-11-03_11h58.31.966,t1_Paradigm,2021.1.4,60.07936875168714,
J,left,Distractor,0,16,16,16,3008.8023057364044,3010.8030660384684,left,1,0,3.0,0.6422727322205901,D02R08,2022-11-03_11h58.31.966,t1_Paradigm,2021.1.4,60.07936875168714,
H,left,Lure,0,17,17,17,3012.3023628392257,3014.3042449878994,left,1,0,3.0,0.4367775125429034,D02R08,2022-11-03_11h58.31.966,t1_Paradigm,2021.1.4,60.07936875168714,
S,left,Distractor,0,18,18,18,3015.8023484031437,3017.804830452602,left,1,0,3.0,0.40842498128768057,D02R08,2022-11-03_11h58.31.966,t1_Paradigm,2021.1.4,60.07936875168714,
T,left,Pretarget,0,19,19,19,3019.302123199741,3021.3044794945745,left,1,0,3.0,0.5086793135851622,D02R08,2022-11-03_11h58.31.966,t1_Paradigm,2021.1.4,60.07936875168714,
T,right,Target,0,20,20,20,3022.8022967539146,3024.8023246637313,right,1,0,3.0,0.6109149224939756,D02R08,2022-11-03_11h58.31.966,t1_Paradigm,2021.1.4,60.07936875168714,
X,left,Pretarget,0,21,21,21,3026.302556924813,3028.304224456544,left,1,0,3.0,0.7087420625030063,D02R08,2022-11-03_11h58.31.966,t1_Paradigm,2021.1.4,60.07936875168714,
X,right,Target,0,22,22,22,3029.8025072003948,3031.8022993203485,right,1,0,3.0,0.715133412159048,D02R08,2022-11-03_11h58.31.966,t1_Paradigm,2021.1.4,60.07936875168714,
W,left,Distractor,0,23,23,23,3033.3024202628876,3035.304213228461,left,1,0,3.0,0.5570993287838064,D02R08,2022-11-03_11h58.31.966,t1_Paradigm,2021.1.4,60.07936875168714,
K,left,Distractor,0,24,24,24,3036.802432132594,3038.8048641369096,left,1,0,3.0,0.7044805211480707,D02R08,2022-11-03_11h58.31.966,t1_Paradigm,2021.1.4,60.07936875168714,
F,left,Pretarget,0,25,25,25,3040.3025219573174,3042.3045766977593,left,1,0,3.0,0.5326795163564384,D02R08,2022-11-03_11h58.31.966,t1_Paradigm,2021.1.4,60.07936875168714,
F,right,Target,0,26,26,26,3043.8022861673962,3045.8015162412776,right,1,0,3.0,0.4439166529336944,D02R08,2022-11-03_11h58.31.966,t1_Paradigm,2021.1.4,60.07936875168714,
Z,left,Distractor,0,27,27,27,3047.302509445988,3049.303835643863,left,1,0,3.0,0.7174399826908484,D02R08,2022-11-03_11h58.31.966,t1_Paradigm,2021.1.4,60.07936875168714,
F,left,Lure,0,28,28,28,3050.8024366238387,3052.804609740444,left,1,0,3.0,0.592670880316291,D02R08,2022-11-03_11h58.31.966,t1_Paradigm,2021.1.4,60.07936875168714,
P,left,Distractor,0,29,29,29,3054.302396844316,3056.3045086876373,left,1,0,3.0,0.8368170353933237,D02R08,2022-11-03_11h58.31.966,t1_Paradigm,2021.1.4,60.07936875168714,
F,left,Lure,0,30,30,30,3057.8023176060524,3059.804174090561,left,1,0,3.0,1.1453392840339802,D02R08,2022-11-03_11h58.31.966,t1_Paradigm,2021.1.4,60.07936875168714,
R,left,Distractor,0,31,31,31,3061.3024539471953,3063.3045330686145,left,1,0,3.0,0.7327698543085717,D02R08,2022-11-03_11h58.31.966,t1_Paradigm,2021.1.4,60.07936875168714,
V,left,Distractor,0,32,32,32,3064.8024770449265,3066.8030201637303,left,1,0,3.0,0.5624339547939599,D02R08,2022-11-03_11h58.31.966,t1_Paradigm,2021.1.4,60.07936875168714,
M,left,Pretarget,0,33,33,33,3068.302351931925,3070.3046806378406,left,1,0,3.0,0.8526598703465424,D02R08,2022-11-03_11h58.31.966,t1_Paradigm,2021.1.4,60.07936875168714,
M,right,Target,0,34,34,34,3071.8024228293216,3073.8024683832773,right,1,0,3.0,0.618881412781775,D02R08,2022-11-03_11h58.31.966,t1_Paradigm,2021.1.4,60.07936875168714,
M,right,Target,0,35,35,35,3075.3023978067213,3077.302549225511,right,1,0,3.0,0.7028906236519106,D02R08,2022-11-03_11h58.31.966,t1_Paradigm,2021.1.4,60.07936875168714,
D,left,Distractor,0,36,36,36,3078.802401656343,3080.804936959059,left,1,0,3.0,0.5126024081837386,D02R08,2022-11-03_11h58.31.966,t1_Paradigm,2021.1.4,60.07936875168714,
M,left,Lure,0,37,37,37,3082.302418658859,3084.304298241157,left,1,0,3.0,0.6611991215031594,D02R08,2022-11-03_11h58.31.966,t1_Paradigm,2021.1.4,60.07936875168714,
F,left,Distractor,0,38,38,38,3085.8023965235334,3087.8024385486497,left,1,0,3.0,0.650920286308974,D02R08,2022-11-03_11h58.31.966,t1_Paradigm,2021.1.4,60.07936875168714,
T,left,Pretarget,0,39,39,39,3089.302519711724,3091.304752176802,left,1,0,3.0,0.4931207096669823,D02R08,2022-11-03_11h58.31.966,t1_Paradigm,2021.1.4,60.07936875168714,
T,right,Target,0,40,40,40,3092.802319210081,3094.8025793809793,right,1,0,3.0,0.6269030810217373,D02R08,2022-11-03_11h58.31.966,t1_Paradigm,2021.1.4,60.07936875168714,
Z,left,Distractor,0,41,41,41,3096.3025363934576,3098.3034153924673,left,1,0,3.0,0.5339341751532629,D02R08,2022-11-03_11h58.31.966,t1_Paradigm,2021.1.4,60.07936875168714,
S,left,Distractor,0,42,42,42,3099.8024834609823,3101.80472330458,left,1,0,3.0,0.42483371193520725,D02R08,2022-11-03_11h58.31.966,t1_Paradigm,2021.1.4,60.07936875168714,
D,left,Distractor,0,43,43,43,3103.3023025283474,3105.3044567176257,left,1,0,3.0,0.5252028915565461,D02R08,2022-11-03_11h58.31.966,t1_Paradigm,2021.1.4,60.07936875168714,
Y,left,Pretarget,0,44,44,44,3106.8025325437775,3108.8045388431055,left,1,0,3.0,0.38483412261120975,D02R08,2022-11-03_11h58.31.966,t1_Paradigm,2021.1.4,60.07936875168714,
Y,right,Target,0,45,45,45,3110.302466137684,3112.3023269093246,right,1,0,3.0,0.5190810161293484,D02R08,2022-11-03_11h58.31.966,t1_Paradigm,2021.1.4,60.07936875168714,
Z,left,Pretarget,0,46,46,46,3113.8024914810667,3115.8014828778105,left,1,0,3.0,0.4760588249191642,D02R08,2022-11-03_11h58.31.966,t1_Paradigm,2021.1.4,60.07936875168714,
Z,right,Target,0,47,47,47,3117.285790178401,3119.285717677034,right,1,0,3.0,0.6558420393848792,D02R08,2022-11-03_11h58.31.966,t1_Paradigm,2021.1.4,60.07936875168714,
H,left,Pretarget,0,48,48,48,3120.785963732633,3122.7867859496037,left,1,0,3.0,0.4987742133671418,D02R08,2022-11-03_11h58.31.966,t1_Paradigm,2021.1.4,60.07936875168714,
H,right,Target,0,49,49,49,3124.2859210658935,3126.2858681334183,right,1,0,3.0,0.5515244217240252,D02R08,2022-11-03_11h58.31.966,t1_Paradigm,2021.1.4,60.07936875168714,
Z,left,Lure,0,50,50,50,3127.7855925640324,3129.788142623671,left,1,0,3.0,0.6332892978098243,D02R08,2022-11-03_11h58.31.966,t1_Paradigm,2021.1.4,60.07936875168714,
R,left,Distractor,0,51,51,51,3131.302415130078,3133.303764746466,left,1,0,3.0,0.47794995608273894,D02R08,2022-11-03_11h58.31.966,t1_Paradigm,2021.1.4,60.07936875168714,
H,left,Lure,0,52,52,52,3134.802558208001,3136.804589529871,left,1,0,3.0,0.4488570124958642,D02R08,2022-11-03_11h58.31.966,t1_Paradigm,2021.1.4,60.07936875168714,
L,left,Distractor,0,53,53,53,3138.3025678320555,3140.3045981915784,left,1,0,3.0,0.5168357189395465,D02R08,2022-11-03_11h58.31.966,t1_Paradigm,2021.1.4,60.07936875168714,
N,left,Pretarget,0,54,54,54,3141.80245298479,3143.804777520185,left,1,0,3.0,0.4249001181451604,D02R08,2022-11-03_11h58.31.966,t1_Paradigm,2021.1.4,60.07936875168714,
N,right,Target,0,55,55,55,3145.3023907490424,3147.3025258069392,right,1,0,3.0,0.6869868361973204,D02R08,2022-11-03_11h58.31.966,t1_Paradigm,2021.1.4,60.07936875168714,
W,left,Distractor,0,56,56,56,3148.8023490447085,3150.7879450093023,left,1,0,3.0,0.7695338289486244,D02R08,2022-11-03_11h58.31.966,t1_Paradigm,2021.1.4,60.07936875168714,
R,left,Pretarget,0,57,57,57,3152.302549225511,3154.2879693902796,left,1,0,3.0,0.46931972535094246,D02R08,2022-11-03_11h58.31.966,t1_Paradigm,2021.1.4,60.07936875168714,
R,right,Target,0,58,58,58,3155.8026220477186,3157.784922728257,right,1,0,3.0,0.6205848744139075,D02R08,2022-11-03_11h58.31.966,t1_Paradigm,2021.1.4,60.07936875168714,
Q,left,Distractor,0,59,59,59,3159.285864604637,3161.287845560466,left,1,0,3.0,0.44573528273031116,D02R08,2022-11-03_11h58.31.966,t1_Paradigm,2021.1.4,60.07936875168714,
R,left,Lure,0,60,60,60,3162.802641295886,3164.804620968527,left,1,0,3.0,0.704942797718104,D02R08,2022-11-03_11h58.31.966,t1_Paradigm,2021.1.4,60.07936875168714,
Z,left,Distractor,0,61,61,61,3166.3026560528087,3168.303190509847,left,1,0,3.0,0.454084811208304,D02R08,2022-11-03_11h58.31.966,t1_Paradigm,2021.1.4,60.07936875168714,
K,left,Pretarget,0,62,62,62,3169.8024555511656,3171.8042507623904,left,1,0,3.0,0.5213484486448579,D02R08,2022-11-03_11h58.31.966,t1_Paradigm,2021.1.4,60.07936875168714,
K,right,Target,0,63,63,63,3173.2859165746486,3175.2858623589855,right,1,0,3.0,0.6876990178716369,D02R08,2022-11-03_11h58.31.966,t1_Paradigm,2021.1.4,60.07936875168714,
