Letter,CorrAnswer,Stimulus,nback_run.thisRepN,nback_run.thisTrialN,nback_run.thisN,nback_run.thisIndex,fixcross.started,nback_trial.started,trial_resp.keys,trial_resp.corr,currentlevel,trial_resp.rt,Participant,date,expName,psychopyVersion,frameRate,
H,left,Distractor,0,0,0,0,359.10414951707935,361.05227734532673,None,0,1,,D02R08,2022-11-03_11h58.31.966,t1_Paradigm,2021.1.4,60.07936875168714,
Q,left,Pretarget,0,1,1,1,362.54823298734846,364.551579278952,left,1,1,0.5370812484179623,D02R08,2022-11-03_11h58.31.966,t1_Paradigm,2021.1.4,60.07936875168714,
Q,right,Target,0,2,2,2,366.0473944094265,368.0482089271536,right,1,1,0.6084627076634206,D02R08,2022-11-03_11h58.31.966,t1_Paradigm,2021.1.4,60.07936875168714,
T,left,Distractor,0,3,3,3,369.5480876637739,371.55016518122284,left,1,1,0.41851101408246905,D02R08,2022-11-03_11h58.31.966,t1_Paradigm,2021.1.4,60.07936875168714,
Q,left,Lure,0,4,4,4,373.04810113750864,375.0483828021679,left,1,1,0.8083275214303285,D02R08,2022-11-03_11h58.31.966,t1_Paradigm,2021.1.4,60.07936875168714,
L,left,Distractor,0,5,5,5,376.5472660883679,378.55012860975694,left,1,1,0.730633950792253,D02R08,2022-11-03_11h58.31.966,t1_Paradigm,2021.1.4,60.07936875168714,
V,left,Pretarget,0,6,6,6,380.04811910243006,382.0500067047542,left,1,1,0.4787586993770674,D02R08,2022-11-03_11h58.31.966,t1_Paradigm,2021.1.4,60.07936875168714,
V,right,Target,0,7,7,7,383.54824774427107,385.5481223104289,right,1,1,0.868469983455725,D02R08,2022-11-03_11h58.31.966,t1_Paradigm,2021.1.4,60.07936875168714,
K,left,Distractor,0,8,8,8,387.0481104407809,389.05001023359364,left,1,1,0.534540491993539,D02R08,2022-11-03_11h58.31.966,t1_Paradigm,2021.1.4,60.07936875168714,
G,left,Pretarget,0,9,9,9,390.5482756540878,392.55018442939036,left,1,1,0.7946712767588906,D02R08,2022-11-03_11h58.31.966,t1_Paradigm,2021.1.4,60.07936875168714,
G,right,Target,0,10,10,10,394.04814540821826,396.0480475634686,right,1,1,0.576531623781193,D02R08,2022-11-03_11h58.31.966,t1_Paradigm,2021.1.4,60.07936875168714,
G,right,Target,0,11,11,11,397.54818005493144,399.5481476538698,right,1,1,0.6607711708638817,D02R08,2022-11-03_11h58.31.966,t1_Paradigm,2021.1.4,60.07936875168714,
P,left,Pretarget,0,12,12,12,401.04819801985286,403.0504099535756,left,1,1,0.5022408059448935,D02R08,2022-11-03_11h58.31.966,t1_Paradigm,2021.1.4,60.07936875168714,
P,right,Target,0,13,13,13,404.5482207968598,406.5482949022553,right,1,1,0.5883329879725352,D02R08,2022-11-03_11h58.31.966,t1_Paradigm,2021.1.4,60.07936875168714,
G,left,Lure,0,14,14,14,408.04735013865866,410.0499364489806,left,1,1,0.70271321979817,D02R08,2022-11-03_11h58.31.966,t1_Paradigm,2021.1.4,60.07936875168714,
Y,left,Distractor,0,15,15,15,411.5483138295822,413.55046096118167,left,1,1,0.8981541661778465,D02R08,2022-11-03_11h58.31.966,t1_Paradigm,2021.1.4,60.07936875168714,
B,left,Distractor,0,16,16,16,415.0482191928313,417.05022228410235,left,1,1,0.7423509439104237,D02R08,2022-11-03_11h58.31.966,t1_Paradigm,2021.1.4,60.07936875168714,
T,left,Pretarget,0,17,17,17,418.5483356441837,420.5497815013514,left,1,1,0.6508891684934497,D02R08,2022-11-03_11h58.31.966,t1_Paradigm,2021.1.4,60.07936875168714,
T,right,Target,0,18,18,18,422.04812648089137,424.04836740362225,right,1,1,0.8325753837707452,D02R08,2022-11-03_11h58.31.966,t1_Paradigm,2021.1.4,60.07936875168714,
S,left,Distractor,0,19,19,19,425.5473138879752,427.55114619550295,left,1,1,0.5135529462131672,D02R08,2022-11-03_11h58.31.966,t1_Paradigm,2021.1.4,60.07936875168714,
T,left,Lure,0,20,20,20,429.0483962758444,431.04961147601716,left,1,1,0.4231113230343908,D02R08,2022-11-03_11h58.31.966,t1_Paradigm,2021.1.4,60.07936875168714,
J,left,Distractor,0,21,21,21,432.5481723556295,434.5498957070522,left,1,1,0.42684899375308305,D02R08,2022-11-03_11h58.31.966,t1_Paradigm,2021.1.4,60.07936875168714,
P,left,Distractor,0,22,22,22,436.0482990726596,438.05023992824135,left,1,1,0.4147143156733364,D02R08,2022-11-03_11h58.31.966,t1_Paradigm,2021.1.4,60.07936875168714,
F,left,Distractor,0,23,23,23,439.5483006766881,441.5497802181635,left,1,1,0.41924629360437393,D02R08,2022-11-03_11h58.31.966,t1_Paradigm,2021.1.4,60.07936875168714,
L,left,Distractor,0,24,24,24,443.048191603797,445.0474239232717,left,1,1,0.4573258796008304,D02R08,2022-11-03_11h58.31.966,t1_Paradigm,2021.1.4,60.07936875168714,
W,left,Pretarget,0,25,25,25,446.5484748724848,448.55018603341887,left,1,1,0.4264996397541836,D02R08,2022-11-03_11h58.31.966,t1_Paradigm,2021.1.4,60.07936875168714,
W,right,Target,0,26,26,26,450.04824293224374,452.04825800994877,right,1,1,0.38444338511908427,D02R08,2022-11-03_11h58.31.966,t1_Paradigm,2021.1.4,60.07936875168714,
V,left,Distractor,0,27,27,27,453.54754999867873,455.5498456618516,left,1,1,0.8508662632084452,D02R08,2022-11-03_11h58.31.966,t1_Paradigm,2021.1.4,60.07936875168714,
W,left,Lure,0,28,28,28,457.04751246474916,459.05013149697334,left,1,1,1.174582363164518,D02R08,2022-11-03_11h58.31.966,t1_Paradigm,2021.1.4,60.07936875168714,
R,left,Pretarget,0,29,29,29,460.5483561755391,462.551903931133,left,1,1,0.44085491314763203,D02R08,2022-11-03_11h58.31.966,t1_Paradigm,2021.1.4,60.07936875168714,
R,right,Target,0,30,30,30,464.04834398505045,466.0482365161879,right,1,1,0.7524488464114256,D02R08,2022-11-03_11h58.31.966,t1_Paradigm,2021.1.4,60.07936875168714,
G,left,Distractor,0,31,31,31,467.54814252100186,469.5502758580842,left,1,1,0.3864724613376893,D02R08,2022-11-03_11h58.31.966,t1_Paradigm,2021.1.4,60.07936875168714,
R,left,Lure,0,32,32,32,471.04814380424796,473.0498812709702,right,0,1,0.5508427163003944,D02R08,2022-11-03_11h58.31.966,t1_Paradigm,2021.1.4,60.07936875168714,
S,left,Distractor,0,33,33,33,474.5482573683257,476.5502447402687,left,1,1,0.5226059947744943,D02R08,2022-11-03_11h58.31.966,t1_Paradigm,2021.1.4,60.07936875168714,
R,left,Lure,0,34,34,34,478.04831030074274,480.04971188720083,left,1,1,0.767076802032534,D02R08,2022-11-03_11h58.31.966,t1_Paradigm,2021.1.4,60.07936875168714,
P,left,Pretarget,0,35,35,35,481.54835104267113,483.55034835950937,left,1,1,0.9946227073087357,D02R08,2022-11-03_11h58.31.966,t1_Paradigm,2021.1.4,60.07936875168714,
P,right,Target,0,36,36,36,485.0483401353704,487.0481572779245,right,1,1,0.8406406812136993,D02R08,2022-11-03_11h58.31.966,t1_Paradigm,2021.1.4,60.07936875168714,
Y,left,Pretarget,0,37,37,37,488.548302601499,490.5503544547246,left,1,1,0.41051501006586477,D02R08,2022-11-03_11h58.31.966,t1_Paradigm,2021.1.4,60.07936875168714,
Y,right,Target,0,38,38,38,492.0481810173369,494.0482746916823,right,1,1,0.6885401622275822,D02R08,2022-11-03_11h58.31.966,t1_Paradigm,2021.1.4,60.07936875168714,
J,left,Distractor,0,39,39,39,495.54832794488175,497.5500458426541,left,1,1,0.4187221022439189,D02R08,2022-11-03_11h58.31.966,t1_Paradigm,2021.1.4,60.07936875168714,
Y,left,Lure,0,40,40,40,499.04832922812784,501.05009364226134,left,1,1,0.4867165279574692,D02R08,2022-11-03_11h58.31.966,t1_Paradigm,2021.1.4,60.07936875168714,
T,left,Distractor,0,41,41,41,502.5483491178602,504.550345472293,left,1,1,0.7472820002003573,D02R08,2022-11-03_11h58.31.966,t1_Paradigm,2021.1.4,60.07936875168714,
V,left,Distractor,0,42,42,42,506.0480523754959,508.0487741812831,left,1,1,0.7201231753570028,D02R08,2022-11-03_11h58.31.966,t1_Paradigm,2021.1.4,60.07936875168714,
N,left,Pretarget,0,43,43,43,509.5484530578833,511.5513380354387,left,1,1,0.6095714013208635,D02R08,2022-11-03_11h58.31.966,t1_Paradigm,2021.1.4,60.07936875168714,
N,right,Target,0,44,44,44,513.0476529762964,515.0475118231843,right,1,1,0.7453488439205103,D02R08,2022-11-03_11h58.31.966,t1_Paradigm,2021.1.4,60.07936875168714,
N,right,Target,0,45,45,45,516.5483382105595,518.5485075943288,right,1,1,0.8283071055775508,D02R08,2022-11-03_11h58.31.966,t1_Paradigm,2021.1.4,60.07936875168714,
X,left,Distractor,0,46,46,46,520.0484152032295,522.0510050423327,left,1,1,0.8299637300660834,D02R08,2022-11-03_11h58.31.966,t1_Paradigm,2021.1.4,60.07936875168714,
Z,left,Distractor,0,47,47,47,523.548395313439,525.5504263145267,left,1,1,0.5945998661336489,D02R08,2022-11-03_11h58.31.966,t1_Paradigm,2021.1.4,60.07936875168714,
H,left,Pretarget,0,48,48,48,527.0484296393115,529.0502206800738,left,1,1,0.4866542922682129,D02R08,2022-11-03_11h58.31.966,t1_Paradigm,2021.1.4,60.07936875168714,
H,right,Target,0,49,49,49,530.5317228829954,532.5317106925067,right,1,1,0.47742576472228393,D02R08,2022-11-03_11h58.31.966,t1_Paradigm,2021.1.4,60.07936875168714,
K,left,Distractor,0,50,50,50,534.0315493288217,536.0339373831521,left,1,1,0.4950827381690033,D02R08,2022-11-03_11h58.31.966,t1_Paradigm,2021.1.4,60.07936875168714,
V,left,Pretarget,0,51,51,51,537.547665808408,539.550191487011,left,1,1,0.8826635724399239,D02R08,2022-11-03_11h58.31.966,t1_Paradigm,2021.1.4,60.07936875168714,
V,right,Target,0,52,52,52,541.0485881157801,543.0483760652714,right,1,1,1.1926284701912664,D02R08,2022-11-03_11h58.31.966,t1_Paradigm,2021.1.4,60.07936875168714,
R,left,Distractor,0,53,53,53,544.5484119951725,546.5501975822845,left,1,1,0.858945675950963,D02R08,2022-11-03_11h58.31.966,t1_Paradigm,2021.1.4,60.07936875168714,
V,left,Lure,0,54,54,54,548.0482772581163,550.0490577707533,left,1,1,0.5437491298071109,D02R08,2022-11-03_11h58.31.966,t1_Paradigm,2021.1.4,60.07936875168714,
Y,left,Distractor,0,55,55,55,551.5486821109662,553.55020913115,left,1,1,0.4666772744967602,D02R08,2022-11-03_11h58.31.966,t1_Paradigm,2021.1.4,60.07936875168714,
Q,left,Distractor,0,56,56,56,555.0484604363446,557.0474454170326,left,1,1,0.47358704113867134,D02R08,2022-11-03_11h58.31.966,t1_Paradigm,2021.1.4,60.07936875168714,
Z,left,Pretarget,0,57,57,57,558.5484771180782,560.5498350753915,left,1,1,0.4270729139097966,D02R08,2022-11-03_11h58.31.966,t1_Paradigm,2021.1.4,60.07936875168714,
Z,right,Target,0,58,58,58,562.0485454490408,564.0484248272842,right,1,1,0.8005390766193159,D02R08,2022-11-03_11h58.31.966,t1_Paradigm,2021.1.4,60.07936875168714,
B,left,Distractor,0,59,59,59,565.5484569075634,567.5499662836082,left,1,1,0.8669545120792463,D02R08,2022-11-03_11h58.31.966,t1_Paradigm,2021.1.4,60.07936875168714,
S,left,Pretarget,0,60,60,60,569.0484877045965,571.0497879174072,left,1,1,0.6793449981487356,D02R08,2022-11-03_11h58.31.966,t1_Paradigm,2021.1.4,60.07936875168714,
S,right,Target,0,61,61,61,572.5485492986627,574.5318787930883,right,1,1,0.7011884452076629,D02R08,2022-11-03_11h58.31.966,t1_Paradigm,2021.1.4,60.07936875168714,
T,left,Distractor,0,62,62,62,576.0317617001128,578.0338424256188,left,1,1,0.5112489421735518,D02R08,2022-11-03_11h58.31.966,t1_Paradigm,2021.1.4,60.07936875168714,
D,left,Distractor,0,63,63,63,579.5484386218013,581.5509283705615,left,1,1,0.5304704697919078,D02R08,2022-11-03_11h58.31.966,t1_Paradigm,2021.1.4,60.07936875168714,
R,left,Distractor,0,0,0,0,598.8495006065932,600.8502795152599,None,0,1,,D02R08,2022-11-03_11h58.31.966,t1_Paradigm,2021.1.4,60.07936875168714,
V,left,Distractor,0,1,1,1,602.3487043746281,604.3494685263722,left,1,1,0.4995903351227753,D02R08,2022-11-03_11h58.31.966,t1_Paradigm,2021.1.4,60.07936875168714,
N,left,Pretarget,0,2,2,2,605.848433938052,607.8500501414528,left,1,1,0.5829743017675355,D02R08,2022-11-03_11h58.31.966,t1_Paradigm,2021.1.4,60.07936875168714,
N,right,Target,0,3,3,3,609.3485545598087,611.3486456677783,right,1,1,0.46058074245229363,D02R08,2022-11-03_11h58.31.966,t1_Paradigm,2021.1.4,60.07936875168714,
S,left,Distractor,0,4,4,4,612.8485712415422,614.8506628743489,left,1,1,0.5744656551978551,D02R08,2022-11-03_11h58.31.966,t1_Paradigm,2021.1.4,60.07936875168714,
N,left,Lure,0,5,5,5,616.3486183995265,618.3508008194622,left,1,1,0.834225271421019,D02R08,2022-11-03_11h58.31.966,t1_Paradigm,2021.1.4,60.07936875168714,
Z,left,Distractor,0,6,6,6,619.8485045146081,621.8508261628449,left,1,1,0.4542137738317251,D02R08,2022-11-03_11h58.31.966,t1_Paradigm,2021.1.4,60.07936875168714,
L,left,Pretarget,0,7,7,7,623.3485648255446,625.3505865233019,left,1,1,0.49057289568008855,D02R08,2022-11-03_11h58.31.966,t1_Paradigm,2021.1.4,60.07936875168714,
L,right,Target,0,8,8,8,626.8485577678657,628.8484916825546,right,1,1,0.6406427343608811,D02R08,2022-11-03_11h58.31.966,t1_Paradigm,2021.1.4,60.07936875168714,
H,left,Distractor,0,9,9,9,630.3485786200035,632.3509057218907,left,1,1,0.6105549820349552,D02R08,2022-11-03_11h58.31.966,t1_Paradigm,2021.1.4,60.07936875168714,
L,left,Lure,0,10,10,10,633.8476681823377,635.8502509638201,left,1,1,0.45482939400244504,D02R08,2022-11-03_11h58.31.966,t1_Paradigm,2021.1.4,60.07936875168714,
X,left,Pretarget,0,11,11,11,637.3485519934329,639.3505618215422,left,1,1,0.36263137665810063,D02R08,2022-11-03_11h58.31.966,t1_Paradigm,2021.1.4,60.07936875168714,
X,right,Target,0,12,12,12,640.8486501590232,642.8487425501226,right,1,1,0.4644563583424315,D02R08,2022-11-03_11h58.31.966,t1_Paradigm,2021.1.4,60.07936875168714,
X,right,Target,0,13,13,13,644.3478417365113,646.3486825600849,right,1,1,0.5003714893828146,D02R08,2022-11-03_11h58.31.966,t1_Paradigm,2021.1.4,60.07936875168714,
R,left,Distractor,0,14,14,14,647.8486992418184,649.8503131995094,left,1,1,0.5667599774315022,D02R08,2022-11-03_11h58.31.966,t1_Paradigm,2021.1.4,60.07936875168714,
T,left,Distractor,0,15,15,15,651.3486379685346,653.3499147627153,left,1,1,0.44315410521812737,D02R08,2022-11-03_11h58.31.966,t1_Paradigm,2021.1.4,60.07936875168714,
V,left,Pretarget,0,16,16,16,654.8485458981595,656.8504405581625,left,1,1,0.41488241619663313,D02R08,2022-11-03_11h58.31.966,t1_Paradigm,2021.1.4,60.07936875168714,
V,right,Target,0,17,17,17,658.3485564846778,660.348529858049,left,0,1,0.40453621256165206,D02R08,2022-11-03_11h58.31.966,t1_Paradigm,2021.1.4,60.07936875168714,
N,left,Distractor,0,18,18,18,661.8486443845322,663.8500363469357,left,1,1,0.8870877606677823,D02R08,2022-11-03_11h58.31.966,t1_Paradigm,2021.1.4,60.07936875168714,
B,left,Distractor,0,19,19,19,665.3478574558394,667.3488769663963,left,1,1,0.6362608920317143,D02R08,2022-11-03_11h58.31.966,t1_Paradigm,2021.1.4,60.07936875168714,
V,left,Lure,0,20,20,20,668.8487893873244,670.8507020122488,left,1,1,0.8307589996256866,D02R08,2022-11-03_11h58.31.966,t1_Paradigm,2021.1.4,60.07936875168714,
P,left,Distractor,0,21,21,21,672.3485609758645,674.350225299655,left,1,1,0.674992669664789,D02R08,2022-11-03_11h58.31.966,t1_Paradigm,2021.1.4,60.07936875168714,
K,left,Pretarget,0,22,22,22,675.8484798128484,677.8503170491895,left,1,1,0.5507801597705111,D02R08,2022-11-03_11h58.31.966,t1_Paradigm,2021.1.4,60.07936875168714,
K,right,Target,0,23,23,23,679.3486639535404,681.3486623495119,right,1,1,0.7806191617855802,D02R08,2022-11-03_11h58.31.966,t1_Paradigm,2021.1.4,60.07936875168714,
J,left,Pretarget,0,24,24,24,682.8486097378773,684.850965391146,left,1,1,0.9261948773055337,D02R08,2022-11-03_11h58.31.966,t1_Paradigm,2021.1.4,60.07936875168714,
J,right,Target,0,25,25,25,686.3485314620775,688.3487005250063,right,1,1,0.6925697633414529,D02R08,2022-11-03_11h58.31.966,t1_Paradigm,2021.1.4,60.07936875168714,
H,left,Distractor,0,26,26,26,689.8486193619319,691.8503847385291,left,1,1,0.6471364200115204,D02R08,2022-11-03_11h58.31.966,t1_Paradigm,2021.1.4,60.07936875168714,
J,left,Lure,0,27,27,27,693.3487720639678,695.3505441774032,left,1,1,0.8107069141115062,D02R08,2022-11-03_11h58.31.966,t1_Paradigm,2021.1.4,60.07936875168714,
V,left,Distractor,0,28,28,28,696.8486318732612,698.850836749305,left,1,1,0.7023292191443034,D02R08,2022-11-03_11h58.31.966,t1_Paradigm,2021.1.4,60.07936875168714,
Z,left,Pretarget,0,29,29,29,700.348836224468,702.3504049490439,left,1,1,0.6113287578336895,D02R08,2022-11-03_11h58.31.966,t1_Paradigm,2021.1.4,60.07936875168714,
Z,right,Target,0,30,30,30,703.8486344396952,705.8485661087325,right,1,1,0.8726442665210925,D02R08,2022-11-03_11h58.31.966,t1_Paradigm,2021.1.4,60.07936875168714,
T,left,Distractor,0,31,31,31,707.3488189011696,709.350620528392,left,1,1,0.50666723982431,D02R08,2022-11-03_11h58.31.966,t1_Paradigm,2021.1.4,60.07936875168714,
Z,left,Lure,0,32,32,32,710.8486536878045,712.8504989442299,left,1,1,0.5908047716948204,D02R08,2022-11-03_11h58.31.966,t1_Paradigm,2021.1.4,60.07936875168714,
F,left,Distractor,0,33,33,33,714.3487999737845,716.3510125491302,left,1,1,0.49823045305674896,D02R08,2022-11-03_11h58.31.966,t1_Paradigm,2021.1.4,60.07936875168714,
Y,left,Pretarget,0,34,34,34,717.8485433317255,719.850587806548,left,1,1,0.43872767133871093,D02R08,2022-11-03_11h58.31.966,t1_Paradigm,2021.1.4,60.07936875168714,
Y,right,Target,0,35,35,35,721.3487842544564,723.348693146545,right,1,1,0.5565212426008657,D02R08,2022-11-03_11h58.31.966,t1_Paradigm,2021.1.4,60.07936875168714,
Y,right,Target,0,36,36,36,724.8487483246136,726.8486238531768,right,1,1,0.6086702669272199,D02R08,2022-11-03_11h58.31.966,t1_Paradigm,2021.1.4,60.07936875168714,
W,left,Distractor,0,37,37,37,728.3487553822342,730.3508053106489,left,1,1,0.7384300949051976,D02R08,2022-11-03_11h58.31.966,t1_Paradigm,2021.1.4,60.07936875168714,
Q,left,Distractor,0,38,38,38,731.8488025402185,733.8503019714262,left,1,1,0.6472477384959348,D02R08,2022-11-03_11h58.31.966,t1_Paradigm,2021.1.4,60.07936875168714,
P,left,Pretarget,0,39,39,39,735.3489821896655,737.3478054858278,left,1,1,0.6694373315549456,D02R08,2022-11-03_11h58.31.966,t1_Paradigm,2021.1.4,60.07936875168714,
P,right,Target,0,40,40,40,738.8480492957751,740.8488843448577,right,1,1,0.6084575747954659,D02R08,2022-11-03_11h58.31.966,t1_Paradigm,2021.1.4,60.07936875168714,
J,left,Distractor,0,41,41,41,742.3489010265912,744.3508527894737,left,1,1,0.6105508116306737,D02R08,2022-11-03_11h58.31.966,t1_Paradigm,2021.1.4,60.07936875168714,
P,left,Lure,0,42,42,42,745.8487521742354,747.8510808800929,left,1,1,0.8222474658396095,D02R08,2022-11-03_11h58.31.966,t1_Paradigm,2021.1.4,60.07936875168714,
L,left,Distractor,0,43,43,43,749.3487993322196,751.3478904985241,left,1,1,0.7175894766114652,D02R08,2022-11-03_11h58.31.966,t1_Paradigm,2021.1.4,60.07936875168714,
Z,left,Distractor,0,44,44,44,752.8487431917456,754.8510648399824,left,1,1,0.47834454325493425,D02R08,2022-11-03_11h58.31.966,t1_Paradigm,2021.1.4,60.07936875168714,
F,left,Pretarget,0,45,45,45,756.3486219283659,758.3508717168006,left,1,1,0.5466248040902428,D02R08,2022-11-03_11h58.31.966,t1_Paradigm,2021.1.4,60.07936875168714,
F,right,Target,0,46,46,46,759.8477987489896,761.8487329260679,right,1,1,0.6966991340159439,D02R08,2022-11-03_11h58.31.966,t1_Paradigm,2021.1.4,60.07936875168714,
G,left,Pretarget,0,47,47,47,763.3487380589359,765.3503831345006,left,1,1,0.586907341319602,D02R08,2022-11-03_11h58.31.966,t1_Paradigm,2021.1.4,60.07936875168714,
G,right,Target,0,48,48,48,766.8488647759077,768.8487874625134,right,1,1,0.7206002087332308,D02R08,2022-11-03_11h58.31.966,t1_Paradigm,2021.1.4,60.07936875168714,
V,left,Distractor,0,49,49,49,770.3487066202797,772.3506343229092,left,1,1,0.7226620069122873,D02R08,2022-11-03_11h58.31.966,t1_Paradigm,2021.1.4,60.07936875168714,
G,left,Lure,0,50,50,50,773.8488089562743,775.850531666074,left,1,1,0.7747276225709356,D02R08,2022-11-03_11h58.31.966,t1_Paradigm,2021.1.4,60.07936875168714,
Q,left,Pretarget,0,51,51,51,777.34880093619,779.3509137419169,left,1,1,0.6024005014915019,D02R08,2022-11-03_11h58.31.966,t1_Paradigm,2021.1.4,60.07936875168714,
Q,right,Target,0,52,52,52,780.8487836128916,782.8487739887787,right,1,1,0.6885391998221166,D02R08,2022-11-03_11h58.31.966,t1_Paradigm,2021.1.4,60.07936875168714,
Y,left,Distractor,0,53,53,53,784.3486562542384,786.3504758464405,left,1,1,0.6109283962287009,D02R08,2022-11-03_11h58.31.966,t1_Paradigm,2021.1.4,60.07936875168714,
V,left,Distractor,0,54,54,54,787.8488128058962,789.8489834728534,left,1,1,0.4882486810092814,D02R08,2022-11-03_11h58.31.966,t1_Paradigm,2021.1.4,60.07936875168714,
B,left,Distractor,0,55,55,55,791.3487906705122,793.3508431653609,left,1,1,0.5385829252190888,D02R08,2022-11-03_11h58.31.966,t1_Paradigm,2021.1.4,60.07936875168714,
J,left,Pretarget,0,56,56,56,794.8487922745408,796.8509204788134,left,1,1,0.6546512201894075,D02R08,2022-11-03_11h58.31.966,t1_Paradigm,2021.1.4,60.07936875168714,
J,right,Target,0,57,57,57,798.3488355829031,800.3487765552127,right,1,1,0.5967255040304735,D02R08,2022-11-03_11h58.31.966,t1_Paradigm,2021.1.4,60.07936875168714,
H,left,Distractor,0,58,58,58,801.8489456181997,803.8504524278687,left,1,1,0.6473468664917164,D02R08,2022-11-03_11h58.31.966,t1_Paradigm,2021.1.4,60.07936875168714,
J,left,Lure,0,59,59,59,805.3488333372516,807.3501428533928,left,1,1,1.259460307424888,D02R08,2022-11-03_11h58.31.966,t1_Paradigm,2021.1.4,60.07936875168714,
D,left,Pretarget,0,60,60,60,808.8488586806925,810.8507671351545,left,1,1,0.7025637258193456,D02R08,2022-11-03_11h58.31.966,t1_Paradigm,2021.1.4,60.07936875168714,
D,right,Target,0,61,61,61,812.3489404853317,814.3489529966027,right,1,1,0.6606110903667286,D02R08,2022-11-03_11h58.31.966,t1_Paradigm,2021.1.4,60.07936875168714,
R,left,Distractor,0,62,62,62,815.8488156931126,817.8505858817371,left,1,1,0.6789395036757924,D02R08,2022-11-03_11h58.31.966,t1_Paradigm,2021.1.4,60.07936875168714,
F,left,Distractor,0,63,63,63,819.3487890665419,821.3508938521845,left,1,1,0.6664307698374614,D02R08,2022-11-03_11h58.31.966,t1_Paradigm,2021.1.4,60.07936875168714,
F,left,Distractor,0,0,0,0,916.884020888072,918.8824733364745,None,0,2,,D02R08,2022-11-03_11h58.31.966,t1_Paradigm,2021.1.4,60.07936875168714,
N,left,Pretarget,0,1,1,1,920.3824755820679,922.3846320169978,None,0,2,,D02R08,2022-11-03_11h58.31.966,t1_Paradigm,2021.1.4,60.07936875168714,
V,left,Distractor,0,2,2,2,923.882419441652,925.8844815605553,left,1,2,1.1571951846126467,D02R08,2022-11-03_11h58.31.966,t1_Paradigm,2021.1.4,60.07936875168714,
N,right,Target,0,3,3,3,927.3823783789412,929.3951565869502,right,1,2,0.9103931050631218,D02R08,2022-11-03_11h58.31.966,t1_Paradigm,2021.1.4,60.07936875168714,
N,left,Lure,0,4,4,4,930.8823215968441,932.8824229704915,None,0,2,,D02R08,2022-11-03_11h58.31.966,t1_Paradigm,2021.1.4,60.07936875168714,
X,left,Distractor,0,5,5,5,934.3821846141363,936.3841732693254,left,1,2,0.833374182227999,D02R08,2022-11-03_11h58.31.966,t1_Paradigm,2021.1.4,60.07936875168714,
G,left,Pretarget,0,6,6,6,937.882346298662,939.883895454288,left,1,2,1.077741691027768,D02R08,2022-11-03_11h58.31.966,t1_Paradigm,2021.1.4,60.07936875168714,
H,left,Pretarget,0,7,7,7,941.3825333265704,943.3848963583005,left,1,2,0.6970362975844182,D02R08,2022-11-03_11h58.31.966,t1_Paradigm,2021.1.4,60.07936875168714,
G,right,Target,0,8,8,8,944.882384153374,946.8845887086354,right,1,2,0.9571253779577091,D02R08,2022-11-03_11h58.31.966,t1_Paradigm,2021.1.4,60.07936875168714,
H,right,Target,0,9,9,9,948.3823697172338,950.3839737300877,right,1,2,1.057752162043471,D02R08,2022-11-03_11h58.31.966,t1_Paradigm,2021.1.4,60.07936875168714,
T,left,Pretarget,0,10,10,10,951.8824264992727,953.884600899124,left,1,2,1.0452597891562618,D02R08,2022-11-03_11h58.31.966,t1_Paradigm,2021.1.4,60.07936875168714,
K,left,Distractor,0,11,11,11,955.3824358026031,957.3829012871138,left,1,2,1.1149204634712078,D02R08,2022-11-03_11h58.31.966,t1_Paradigm,2021.1.4,60.07936875168714,
T,right,Target,0,12,12,12,958.8824502386851,960.8845819717972,right,1,2,0.8291995783220045,D02R08,2022-11-03_11h58.31.966,t1_Paradigm,2021.1.4,60.07936875168714,
T,left,Lure,0,13,13,13,962.3823793413467,964.3825984494761,left,1,2,1.0431482666172087,D02R08,2022-11-03_11h58.31.966,t1_Paradigm,2021.1.4,60.07936875168714,
J,left,Distractor,0,14,14,14,965.882451521873,967.8835586115601,left,1,2,1.0622549469117075,D02R08,2022-11-03_11h58.31.966,t1_Paradigm,2021.1.4,60.07936875168714,
Q,left,Pretarget,0,15,15,15,969.3824046847294,971.3841062215506,left,1,2,1.161627072142437,D02R08,2022-11-03_11h58.31.966,t1_Paradigm,2021.1.4,60.07936875168714,
M,left,Distractor,0,16,16,16,972.8824483138742,974.8853721084888,left,1,2,0.5883881659829058,D02R08,2022-11-03_11h58.31.966,t1_Paradigm,2021.1.4,60.07936875168714,
Q,right,Target,0,17,17,17,976.3824316321407,978.3843898110208,right,1,2,0.7532306422945112,D02R08,2022-11-03_11h58.31.966,t1_Paradigm,2021.1.4,60.07936875168714,
R,left,Distractor,0,18,18,18,979.8825535371434,981.8817582675256,left,1,2,0.6641225953353569,D02R08,2022-11-03_11h58.31.966,t1_Paradigm,2021.1.4,60.07936875168714,
W,left,Distractor,0,19,19,19,983.3823636220186,985.3847054807702,left,1,2,0.985083642823156,D02R08,2022-11-03_11h58.31.966,t1_Paradigm,2021.1.4,60.07936875168714,
C,left,Pretarget,0,20,20,20,986.8817101471359,988.8841774397297,left,1,2,1.0056124409893528,D02R08,2022-11-03_11h58.31.966,t1_Paradigm,2021.1.4,60.07936875168714,
T,left,Distractor,0,21,21,21,990.3824508803082,992.3842480162857,left,1,2,0.929579344461672,D02R08,2022-11-03_11h58.31.966,t1_Paradigm,2021.1.4,60.07936875168714,
C,right,Target,0,22,22,22,993.8822632107767,995.8845043375622,right,1,2,0.6293363685254008,D02R08,2022-11-03_11h58.31.966,t1_Paradigm,2021.1.4,60.07936875168714,
F,left,Pretarget,0,23,23,23,997.382310368761,999.3842711140751,left,1,2,1.0654148522298783,D02R08,2022-11-03_11h58.31.966,t1_Paradigm,2021.1.4,60.07936875168714,
C,right,Target,0,24,24,24,1000.8825034919428,1002.8837709828513,right,1,2,0.8780709627899341,D02R08,2022-11-03_11h58.31.966,t1_Paradigm,2021.1.4,60.07936875168714,
F,right,Target,0,25,25,25,1004.3824973966694,1006.3849354962003,right,1,2,0.8007684504846111,D02R08,2022-11-03_11h58.31.966,t1_Paradigm,2021.1.4,60.07936875168714,
H,left,Distractor,0,26,26,26,1007.8824672412011,1009.8816623475868,left,1,2,0.6642242897651158,D02R08,2022-11-03_11h58.31.966,t1_Paradigm,2021.1.4,60.07936875168714,
H,left,Lure,0,27,27,27,1011.3823539979057,1013.3824313113582,left,1,2,0.7155786860967055,D02R08,2022-11-03_11h58.31.966,t1_Paradigm,2021.1.4,60.07936875168714,
P,left,Distractor,0,28,28,28,1014.8825535371434,1016.8815898462199,left,1,2,0.7361062010168098,D02R08,2022-11-03_11h58.31.966,t1_Paradigm,2021.1.4,60.07936875168714,
G,left,Pretarget,0,29,29,29,1018.3992343083955,1020.3842088783858,left,1,2,1.0257671833387576,D02R08,2022-11-03_11h58.31.966,t1_Paradigm,2021.1.4,60.07936875168714,
K,left,Distractor,0,30,30,30,1021.8826318129431,1023.8842335802037,left,1,2,0.7734675100655295,D02R08,2022-11-03_11h58.31.966,t1_Paradigm,2021.1.4,60.07936875168714,
G,right,Target,0,31,31,31,1025.3825602739817,1027.384931325796,right,1,2,1.097233976062853,D02R08,2022-11-03_11h58.31.966,t1_Paradigm,2021.1.4,60.07936875168714,
M,left,Pretarget,0,32,32,32,1028.8826039031264,1030.8845688188449,left,1,2,0.7331339651718736,D02R08,2022-11-03_11h58.31.966,t1_Paradigm,2021.1.4,60.07936875168714,
B,left,Distractor,0,33,33,33,1032.381706939137,1034.3842223521206,left,1,2,0.7056379768182524,D02R08,2022-11-03_11h58.31.966,t1_Paradigm,2021.1.4,60.07936875168714,
M,right,Target,0,34,34,34,1035.8824999631033,1037.8840321161551,right,1,2,0.8537358422181569,D02R08,2022-11-03_11h58.31.966,t1_Paradigm,2021.1.4,60.07936875168714,
M,left,Lure,0,35,35,35,1039.382416233595,1041.3823597723385,left,1,2,0.6033606635755859,D02R08,2022-11-03_11h58.31.966,t1_Paradigm,2021.1.4,60.07936875168714,
T,left,Distractor,0,36,36,36,1042.8825419882196,1044.8841921966523,left,1,2,0.8617247886140831,D02R08,2022-11-03_11h58.31.966,t1_Paradigm,2021.1.4,60.07936875168714,
F,left,Distractor,0,37,37,37,1046.382401797513,1048.3847475058865,left,1,2,0.6411435072077438,D02R08,2022-11-03_11h58.31.966,t1_Paradigm,2021.1.4,60.07936875168714,
X,left,Distractor,0,38,38,38,1049.8825391010032,1051.884943837067,left,1,2,0.5168501550797373,D02R08,2022-11-03_11h58.31.966,t1_Paradigm,2021.1.4,60.07936875168714,
C,left,Distractor,0,39,39,39,1053.3825060583185,1055.3817986886716,left,1,2,0.7803862591390498,D02R08,2022-11-03_11h58.31.966,t1_Paradigm,2021.1.4,60.07936875168714,
R,left,Distractor,0,40,40,40,1056.882457296364,1058.8849027743563,None,0,2,,D02R08,2022-11-03_11h58.31.966,t1_Paradigm,2021.1.4,60.07936875168714,
B,left,Pretarget,0,41,41,41,1060.3825528955203,1062.3845733100898,left,1,2,1.2813544412492774,D02R08,2022-11-03_11h58.31.966,t1_Paradigm,2021.1.4,60.07936875168714,
H,left,Distractor,0,42,42,42,1063.882549366681,1065.8848341226112,None,0,2,,D02R08,2022-11-03_11h58.31.966,t1_Paradigm,2021.1.4,60.07936875168714,
B,right,Target,0,43,43,43,1067.382762379595,1069.3844000766985,left,0,2,1.2415332181262784,D02R08,2022-11-03_11h58.31.966,t1_Paradigm,2021.1.4,60.07936875168714,
W,left,Pretarget,0,44,44,44,1070.882615451992,1072.8845206985134,None,0,2,,D02R08,2022-11-03_11h58.31.966,t1_Paradigm,2021.1.4,60.07936875168714,
L,left,Pretarget,0,45,45,45,1074.3826292465092,1076.3847978719277,left,1,2,1.1854880466125906,D02R08,2022-11-03_11h58.31.966,t1_Paradigm,2021.1.4,60.07936875168714,
W,right,Target,0,46,46,46,1077.882710088801,1079.8848437466659,right,1,2,0.9649404493975453,D02R08,2022-11-03_11h58.31.966,t1_Paradigm,2021.1.4,60.07936875168714,
L,right,Target,0,47,47,47,1081.3825034919428,1083.3844433850609,right,1,2,0.9534274867037311,D02R08,2022-11-03_11h58.31.966,t1_Paradigm,2021.1.4,60.07936875168714,
W,right,Target,0,48,48,48,1084.8825169656193,1086.8850035063806,right,1,2,0.6208469701232389,D02R08,2022-11-03_11h58.31.966,t1_Paradigm,2021.1.4,60.07936875168714,
X,left,Distractor,0,49,49,49,1088.3825105495634,1090.3848074959824,left,1,2,0.6411556976963766,D02R08,2022-11-03_11h58.31.966,t1_Paradigm,2021.1.4,60.07936875168714,
R,left,Distractor,0,50,50,50,1091.8826626099763,1093.8844299113844,left,1,2,1.0137710919370875,D02R08,2022-11-03_11h58.31.966,t1_Paradigm,2021.1.4,60.07936875168714,
V,left,Pretarget,0,51,51,51,1095.3825920334202,1097.3847430146416,left,1,2,1.0011106185265817,D02R08,2022-11-03_11h58.31.966,t1_Paradigm,2021.1.4,60.07936875168714,
Z,left,Distractor,0,52,52,52,1098.8818952502334,1100.885025320924,left,1,2,0.8450157866463996,D02R08,2022-11-03_11h58.31.966,t1_Paradigm,2021.1.4,60.07936875168714,
V,right,Target,0,53,53,53,1102.3826151312096,1104.3843805077486,right,1,2,0.8816180768772028,D02R08,2022-11-03_11h58.31.966,t1_Paradigm,2021.1.4,60.07936875168714,
V,left,Lure,0,54,54,54,1105.882633737754,1107.8827046351507,left,1,2,1.1433211150579154,D02R08,2022-11-03_11h58.31.966,t1_Paradigm,2021.1.4,60.07936875168714,
N,left,Distractor,0,55,55,55,1109.3827533971053,1111.3846499819192,left,1,2,0.9692452991148457,D02R08,2022-11-03_11h58.31.966,t1_Paradigm,2021.1.4,60.07936875168714,
B,left,Distractor,0,56,56,56,1112.8827659084345,1114.8838114039972,left,1,2,0.9581981417723,D02R08,2022-11-03_11h58.31.966,t1_Paradigm,2021.1.4,60.07936875168714,
V,left,Lure,0,57,57,57,1116.3826119232108,1118.3841966878972,left,1,2,1.1058119160006754,D02R08,2022-11-03_11h58.31.966,t1_Paradigm,2021.1.4,60.07936875168714,
J,left,Distractor,0,58,58,58,1119.8826292465092,1121.8845944830682,left,1,2,0.8533242524717934,D02R08,2022-11-03_11h58.31.966,t1_Paradigm,2021.1.4,60.07936875168714,
H,left,Distractor,0,59,59,59,1123.3826523442985,1125.3848264233093,left,1,2,0.809102259692736,D02R08,2022-11-03_11h58.31.966,t1_Paradigm,2021.1.4,60.07936875168714,
X,left,Pretarget,0,60,60,60,1126.8819501074613,1128.8949342707638,left,1,2,0.8511395870009437,D02R08,2022-11-03_11h58.31.966,t1_Paradigm,2021.1.4,60.07936875168714,
P,left,Distractor,0,61,61,61,1130.3819449746516,1132.3847253705026,left,1,2,1.2976139988168143,D02R08,2022-11-03_11h58.31.966,t1_Paradigm,2021.1.4,60.07936875168714,
X,right,Target,0,62,62,62,1133.882661006006,1135.8845470043016,right,1,2,0.597809495870024,D02R08,2022-11-03_11h58.31.966,t1_Paradigm,2021.1.4,60.07936875168714,
Q,left,Distractor,0,63,63,63,1137.3826587603544,1139.3847680372419,left,1,2,0.681324350007344,D02R08,2022-11-03_11h58.31.966,t1_Paradigm,2021.1.4,60.07936875168714,
B,left,Pretarget,0,0,0,0,1165.7537593248999,1167.7513151300955,None,0,2,,D02R08,2022-11-03_11h58.31.966,t1_Paradigm,2021.1.4,60.07936875168714,
F,left,Distractor,0,1,1,1,1169.249387427466,1171.2511066084262,None,0,2,,D02R08,2022-11-03_11h58.31.966,t1_Paradigm,2021.1.4,60.07936875168714,
B,right,Target,0,2,2,2,1172.749538204691,1174.7516551808221,right,1,2,0.7064727051183581,D02R08,2022-11-03_11h58.31.966,t1_Paradigm,2021.1.4,60.07936875168714,
V,left,Distractor,0,3,3,3,1176.2494714777567,1178.2512849746854,left,1,2,0.9507144594099373,D02R08,2022-11-03_11h58.31.966,t1_Paradigm,2021.1.4,60.07936875168714,
G,left,Pretarget,0,4,4,4,1179.7494028260116,1181.749990215525,left,1,2,0.9561158122960478,D02R08,2022-11-03_11h58.31.966,t1_Paradigm,2021.1.4,60.07936875168714,
B,left,Lure,0,5,5,5,1183.2494634576724,1185.2513632504852,left,1,2,1.0067583477357402,D02R08,2022-11-03_11h58.31.966,t1_Paradigm,2021.1.4,60.07936875168714,
G,right,Target,0,6,6,6,1186.749704701244,1188.7512262678356,right,1,2,1.0909151278319769,D02R08,2022-11-03_11h58.31.966,t1_Paradigm,2021.1.4,60.07936875168714,
Y,left,Pretarget,0,7,7,7,1190.2494541544002,1192.2509202221408,left,1,2,1.095333862467669,D02R08,2022-11-03_11h58.31.966,t1_Paradigm,2021.1.4,60.07936875168714,
P,left,Distractor,0,8,8,8,1193.7495321094175,1195.7516211757902,left,1,2,0.45858887932263315,D02R08,2022-11-03_11h58.31.966,t1_Paradigm,2021.1.4,60.07936875168714,
Y,right,Target,0,9,9,9,1197.2493842194672,1199.2513869898976,right,1,2,0.7986306221573614,D02R08,2022-11-03_11h58.31.966,t1_Paradigm,2021.1.4,60.07936875168714,
X,left,Distractor,0,10,10,10,1200.7486354662688,1202.7516231006011,left,1,2,0.5467829597764648,D02R08,2022-11-03_11h58.31.966,t1_Paradigm,2021.1.4,60.07936875168714,
Y,right,Target,0,11,11,11,1204.2495215229574,1206.248495275504,right,1,2,0.8096822706866078,D02R08,2022-11-03_11h58.31.966,t1_Paradigm,2021.1.4,60.07936875168714,
N,left,Distractor,0,12,12,12,1207.7494920091121,1209.751464944915,left,1,2,0.9385752900852822,D02R08,2022-11-03_11h58.31.966,t1_Paradigm,2021.1.4,60.07936875168714,
Y,right,Target,0,13,13,13,1211.2496071772184,1213.25131801737,right,1,2,0.6388484855997376,D02R08,2022-11-03_11h58.31.966,t1_Paradigm,2021.1.4,60.07936875168714,
Y,left,Lure,0,14,14,14,1214.7484936715337,1216.7495738137513,left,1,2,0.868433411931619,D02R08,2022-11-03_11h58.31.966,t1_Paradigm,2021.1.4,60.07936875168714,
K,left,Distractor,0,15,15,15,1218.249514144496,1220.2511640320881,left,1,2,0.9509050161577761,D02R08,2022-11-03_11h58.31.966,t1_Paradigm,2021.1.4,60.07936875168714,
T,left,Pretarget,0,16,16,16,1221.7495417335304,1223.751570809749,left,1,2,0.6024797396967188,D02R08,2022-11-03_11h58.31.966,t1_Paradigm,2021.1.4,60.07936875168714,
J,left,Distractor,0,17,17,17,1225.2495221645804,1227.2499658344896,left,1,2,0.5922647442203015,D02R08,2022-11-03_11h58.31.966,t1_Paradigm,2021.1.4,60.07936875168714,
T,right,Target,0,18,18,18,1228.7495779842138,1230.751498950005,right,1,2,0.6265787496813573,D02R08,2022-11-03_11h58.31.966,t1_Paradigm,2021.1.4,60.07936875168714,
S,left,Pretarget,0,19,19,19,1232.2488006795757,1234.2486505439738,left,1,2,0.6340136700309813,D02R08,2022-11-03_11h58.31.966,t1_Paradigm,2021.1.4,60.07936875168714,
R,left,Distractor,0,20,20,20,1235.749496500357,1237.7516240630066,left,1,2,0.5225751976831816,D02R08,2022-11-03_11h58.31.966,t1_Paradigm,2021.1.4,60.07936875168714,
S,right,Target,0,21,21,21,1239.2496873778873,1241.252031803073,right,1,2,0.7340719919884577,D02R08,2022-11-03_11h58.31.966,t1_Paradigm,2021.1.4,60.07936875168714,
Q,left,Distractor,0,22,22,22,1242.7495853626751,1244.7516304790624,left,1,2,0.5786498831002973,D02R08,2022-11-03_11h58.31.966,t1_Paradigm,2021.1.4,60.07936875168714,
D,left,Distractor,0,23,23,23,1246.249551999208,1248.2486537519726,left,1,2,0.5374998957267962,D02R08,2022-11-03_11h58.31.966,t1_Paradigm,2021.1.4,60.07936875168714,
F,left,Distractor,0,24,24,24,1249.749582154618,1251.7516757122357,left,1,2,0.746640715864487,D02R08,2022-11-03_11h58.31.966,t1_Paradigm,2021.1.4,60.07936875168714,
Z,left,Distractor,0,25,25,25,1253.2496373326867,1255.2516866194783,left,1,2,0.6385809362400323,D02R08,2022-11-03_11h58.31.966,t1_Paradigm,2021.1.4,60.07936875168714,
P,left,Distractor,0,26,26,26,1256.74940956285,1258.7516317622503,left,1,2,0.5626780855236575,D02R08,2022-11-03_11h58.31.966,t1_Paradigm,2021.1.4,60.07936875168714,
H,left,Distractor,0,27,27,27,1260.2495333926636,1262.25199202355,left,1,2,0.534094255650416,D02R08,2022-11-03_11h58.31.966,t1_Paradigm,2021.1.4,60.07936875168714,
Z,left,Pretarget,0,28,28,28,1263.7497422351153,1265.7515906995395,left,1,2,0.554670532583259,D02R08,2022-11-03_11h58.31.966,t1_Paradigm,2021.1.4,60.07936875168714,
J,left,Pretarget,0,29,29,29,1267.2496678089374,1269.2516561432276,left,1,2,0.36642550863325596,D02R08,2022-11-03_11h58.31.966,t1_Paradigm,2021.1.4,60.07936875168714,
Z,right,Target,0,30,30,30,1270.7495269766077,1272.7511813554447,left,0,2,0.41898323548957705,D02R08,2022-11-03_11h58.31.966,t1_Paradigm,2021.1.4,60.07936875168714,
J,right,Target,0,31,31,31,1274.249608139624,1276.2514309398248,right,1,2,0.9508427804685198,D02R08,2022-11-03_11h58.31.966,t1_Paradigm,2021.1.4,60.07936875168714,
V,left,Pretarget,0,32,32,32,1277.749601723568,1279.7517982588033,left,1,2,0.9063448974047787,D02R08,2022-11-03_11h58.31.966,t1_Paradigm,2021.1.4,60.07936875168714,
Z,left,Lure,0,33,33,33,1281.2494820642169,1283.2516163637629,left,1,2,0.6706281506340019,D02R08,2022-11-03_11h58.31.966,t1_Paradigm,2021.1.4,60.07936875168714,
V,right,Target,0,34,34,34,1284.7496119892458,1286.7512724633561,right,1,2,0.5791333325905725,D02R08,2022-11-03_11h58.31.966,t1_Paradigm,2021.1.4,60.07936875168714,
X,left,Distractor,0,35,35,35,1288.2495728513459,1290.251389235491,left,1,2,0.7749470515409485,D02R08,2022-11-03_11h58.31.966,t1_Paradigm,2021.1.4,60.07936875168714,
S,left,Distractor,0,36,36,36,1291.7496662049089,1293.7518540784367,left,1,2,0.7785557596362196,D02R08,2022-11-03_11h58.31.966,t1_Paradigm,2021.1.4,60.07936875168714,
Q,left,Distractor,0,37,37,37,1295.2495693225064,1297.2514485839638,left,1,2,0.8949419700074941,D02R08,2022-11-03_11h58.31.966,t1_Paradigm,2021.1.4,60.07936875168714,
P,left,Distractor,0,38,38,38,1298.7495901747025,1300.7516705793678,left,1,2,0.8505108139361255,D02R08,2022-11-03_11h58.31.966,t1_Paradigm,2021.1.4,60.07936875168714,
S,left,Lure,0,39,39,39,1302.2495837586466,1304.2513433607528,left,1,2,0.7112391897244379,D02R08,2022-11-03_11h58.31.966,t1_Paradigm,2021.1.4,60.07936875168714,
K,left,Pretarget,0,40,40,40,1305.7494884802727,1307.7516632009065,left,1,2,0.6665199529379606,D02R08,2022-11-03_11h58.31.966,t1_Paradigm,2021.1.4,60.07936875168714,
L,left,Distractor,0,41,41,41,1309.249642144714,1311.2513244333677,left,1,2,0.7669032478588633,D02R08,2022-11-03_11h58.31.966,t1_Paradigm,2021.1.4,60.07936875168714,
K,right,Target,0,42,42,42,1312.7495978739462,1314.7517488552257,right,1,2,1.0746283021289855,D02R08,2022-11-03_11h58.31.966,t1_Paradigm,2021.1.4,60.07936875168714,
B,left,Distractor,0,43,43,43,1316.2495805506478,1318.251304222853,left,1,2,0.6471514977165498,D02R08,2022-11-03_11h58.31.966,t1_Paradigm,2021.1.4,60.07936875168714,
N,left,Distractor,0,44,44,44,1319.749704701244,1321.751280804223,left,1,2,0.7151327705942094,D02R08,2022-11-03_11h58.31.966,t1_Paradigm,2021.1.4,60.07936875168714,
S,left,Pretarget,0,45,45,45,1323.2495991571923,1325.24893156701,left,1,2,0.5137309916317463,D02R08,2022-11-03_11h58.31.966,t1_Paradigm,2021.1.4,60.07936875168714,
Z,left,Distractor,0,46,46,46,1326.7497034179978,1328.7515977571602,left,1,2,0.6426378055475652,D02R08,2022-11-03_11h58.31.966,t1_Paradigm,2021.1.4,60.07936875168714,
S,right,Target,0,47,47,47,1330.249603648379,1332.2514890051098,right,1,2,0.9187958867987618,D02R08,2022-11-03_11h58.31.966,t1_Paradigm,2021.1.4,60.07936875168714,
C,left,Distractor,0,48,48,48,1333.7497351774364,1335.751991381927,left,1,2,0.6182741335360333,D02R08,2022-11-03_11h58.31.966,t1_Paradigm,2021.1.4,60.07936875168714,
T,left,Pretarget,0,49,49,49,1337.249680641049,1339.251575942617,left,1,2,0.7347148802946322,D02R08,2022-11-03_11h58.31.966,t1_Paradigm,2021.1.4,60.07936875168714,
S,left,Lure,0,50,50,50,1340.7487384438864,1342.7519487151876,left,1,2,0.7224756206269376,D02R08,2022-11-03_11h58.31.966,t1_Paradigm,2021.1.4,60.07936875168714,
T,right,Target,0,51,51,51,1344.249604931625,1346.2515570152318,right,1,2,0.806825844629202,D02R08,2022-11-03_11h58.31.966,t1_Paradigm,2021.1.4,60.07936875168714,
N,left,Pretarget,0,52,52,52,1347.7494390766951,1349.751372874598,left,1,2,0.8113299126853235,D02R08,2022-11-03_11h58.31.966,t1_Paradigm,2021.1.4,60.07936875168714,
B,left,Distractor,0,53,53,53,1351.2487240077462,1353.2515801130212,left,1,2,0.6388427111087367,D02R08,2022-11-03_11h58.31.966,t1_Paradigm,2021.1.4,60.07936875168714,
N,right,Target,0,54,54,54,1354.7496841698303,1356.750284070673,right,1,2,0.6921366798924282,D02R08,2022-11-03_11h58.31.966,t1_Paradigm,2021.1.4,60.07936875168714,
N,left,Lure,0,55,55,55,1358.249748009548,1360.249680641049,left,1,2,0.776770172524266,D02R08,2022-11-03_11h58.31.966,t1_Paradigm,2021.1.4,60.07936875168714,
X,left,Distractor,0,56,56,56,1361.749770144932,1363.75175302563,left,1,2,0.6186385652399622,D02R08,2022-11-03_11h58.31.966,t1_Paradigm,2021.1.4,60.07936875168714,
W,left,Distractor,0,57,57,57,1365.2489014116,1367.2517892763135,left,1,2,0.6386332270922139,D02R08,2022-11-03_11h58.31.966,t1_Paradigm,2021.1.4,60.07936875168714,
S,left,Distractor,0,58,58,58,1368.7663771316293,1370.751549315988,left,1,2,0.626762890315149,D02R08,2022-11-03_11h58.31.966,t1_Paradigm,2021.1.4,60.07936875168714,
L,left,Distractor,0,59,59,59,1372.2496918691322,1374.2512143981294,left,1,2,0.567111897864379,D02R08,2022-11-03_11h58.31.966,t1_Paradigm,2021.1.4,60.07936875168714,
K,left,Pretarget,0,60,60,60,1375.7498567616567,1377.7514466591529,left,1,2,1.25907694833586,D02R08,2022-11-03_11h58.31.966,t1_Paradigm,2021.1.4,60.07936875168714,
V,left,Pretarget,0,61,61,61,1379.2497448015492,1381.2518906499608,left,1,2,0.7024713346618228,D02R08,2022-11-03_11h58.31.966,t1_Paradigm,2021.1.4,60.07936875168714,
K,right,Target,0,62,62,62,1382.7497130421107,1384.7517979379627,right,1,2,0.8504383125691675,D02R08,2022-11-03_11h58.31.966,t1_Paradigm,2021.1.4,60.07936875168714,
V,right,Target,0,63,63,63,1386.2498529119766,1388.2515477119596,right,1,2,0.5668042481993325,D02R08,2022-11-03_11h58.31.966,t1_Paradigm,2021.1.4,60.07936875168714,
R,left,Distractor,0,0,0,0,1491.071124496404,1493.0685051433975,None,0,3,,D02R08,2022-11-03_11h58.31.966,t1_Paradigm,2021.1.4,60.07936875168714,
P,left,Lure,0,1,1,1,1494.5666339020245,1496.5687046826351,None,0,3,,D02R08,2022-11-03_11h58.31.966,t1_Paradigm,2021.1.4,60.07936875168714,
V,left,Distractor,0,2,2,2,1498.0665559470071,1500.0681766415946,None,0,3,,D02R08,2022-11-03_11h58.31.966,t1_Paradigm,2021.1.4,60.07936875168714,
P,left,Pretarget,0,3,3,3,1501.5666326187784,1503.5683149074903,left,1,3,0.8342637676978484,D02R08,2022-11-03_11h58.31.966,t1_Paradigm,2021.1.4,60.07936875168714,
Z,left,Distractor,0,4,4,4,1505.066487295262,1507.0663342723856,left,1,3,1.3362504980759695,D02R08,2022-11-03_11h58.31.966,t1_Paradigm,2021.1.4,60.07936875168714,
L,left,Pretarget,0,5,5,5,1508.5665790447965,1510.5692779567908,left,1,3,1.369311769376509,D02R08,2022-11-03_11h58.31.966,t1_Paradigm,2021.1.4,60.07936875168714,
P,right,Target,0,6,6,6,1512.0665504933568,1514.0688747079694,right,1,3,1.0697302884072997,D02R08,2022-11-03_11h58.31.966,t1_Paradigm,2021.1.4,60.07936875168714,
S,left,Distractor,0,7,7,7,1515.5668619926437,1517.5658065521857,None,0,3,,D02R08,2022-11-03_11h58.31.966,t1_Paradigm,2021.1.4,60.07936875168714,
L,right,Target,0,8,8,8,1519.0667991153314,1521.0691021569655,right,1,3,0.8855289809871465,D02R08,2022-11-03_11h58.31.966,t1_Paradigm,2021.1.4,60.07936875168714,
D,left,Distractor,0,9,9,9,1522.5666842680075,1524.5685859856312,left,1,3,1.1461894108215347,D02R08,2022-11-03_11h58.31.966,t1_Paradigm,2021.1.4,60.07936875168714,
G,left,Distractor,0,10,10,10,1526.0658761663362,1528.06799731293,left,1,3,0.6866066851653159,D02R08,2022-11-03_11h58.31.966,t1_Paradigm,2021.1.4,60.07936875168714,
M,left,Pretarget,0,11,11,11,1529.566537661245,1531.5659120962373,left,1,3,0.8047069436288439,D02R08,2022-11-03_11h58.31.966,t1_Paradigm,2021.1.4,60.07936875168714,
Y,left,Distractor,0,12,12,12,1533.0666515461635,1535.0655502309091,left,1,3,0.600988007732667,D02R08,2022-11-03_11h58.31.966,t1_Paradigm,2021.1.4,60.07936875168714,
V,left,Distractor,0,13,13,13,1536.5658206674852,1538.5690797007992,left,1,3,0.8736846292158589,D02R08,2022-11-03_11h58.31.966,t1_Paradigm,2021.1.4,60.07936875168714,
M,right,Target,0,14,14,14,1540.066806814575,1542.0687656350783,right,1,3,0.5736363806063309,D02R08,2022-11-03_11h58.31.966,t1_Paradigm,2021.1.4,60.07936875168714,
S,left,Pretarget,0,15,15,15,1543.5666791351978,1545.5689016553806,left,1,3,0.5941504217335023,D02R08,2022-11-03_11h58.31.966,t1_Paradigm,2021.1.4,60.07936875168714,
Q,left,Distractor,0,16,16,16,1547.0668539725593,1549.0683893336682,left,1,3,0.8543049459112808,D02R08,2022-11-03_11h58.31.966,t1_Paradigm,2021.1.4,60.07936875168714,
R,left,Pretarget,0,17,17,17,1550.5666800976032,1552.568526957999,left,1,3,0.7145848397631198,D02R08,2022-11-03_11h58.31.966,t1_Paradigm,2021.1.4,60.07936875168714,
S,right,Target,0,18,18,18,1554.0664026033483,1556.0659258907544,right,1,3,0.8489250868442468,D02R08,2022-11-03_11h58.31.966,t1_Paradigm,2021.1.4,60.07936875168714,
F,left,Distractor,0,19,19,19,1557.5667920576525,1559.5659833144164,left,1,3,0.9967631020699628,D02R08,2022-11-03_11h58.31.966,t1_Paradigm,2021.1.4,60.07936875168714,
R,right,Target,0,20,20,20,1561.0667750551365,1563.0691323124338,right,1,3,1.23757034400478,D02R08,2022-11-03_11h58.31.966,t1_Paradigm,2021.1.4,60.07936875168714,
P,left,Distractor,0,21,21,21,1564.565940006054,1566.5689353396301,None,0,3,,D02R08,2022-11-03_11h58.31.966,t1_Paradigm,2021.1.4,60.07936875168714,
L,left,Distractor,0,22,22,22,1568.0667731303256,1570.0688945977017,left,1,3,0.7817762966733426,D02R08,2022-11-03_11h58.31.966,t1_Paradigm,2021.1.4,60.07936875168714,
R,right,Target,0,23,23,23,1571.56585371017,1573.5687415748835,right,1,3,0.9781363423680887,D02R08,2022-11-03_11h58.31.966,t1_Paradigm,2021.1.4,60.07936875168714,
H,left,Pretarget,0,24,24,24,1575.0658636550652,1577.0691316708107,left,1,3,0.6456671442138031,D02R08,2022-11-03_11h58.31.966,t1_Paradigm,2021.1.4,60.07936875168714,
G,left,Pretarget,0,25,25,25,1578.5666977417422,1580.5683723311522,left,1,3,0.5863478616229258,D02R08,2022-11-03_11h58.31.966,t1_Paradigm,2021.1.4,60.07936875168714,
T,left,Distractor,0,26,26,26,1582.0668972809217,1584.0660054498003,left,1,3,0.8171515169669874,D02R08,2022-11-03_11h58.31.966,t1_Paradigm,2021.1.4,60.07936875168714,
H,right,Target,0,27,27,27,1585.5832787434338,1587.5662418812863,right,1,3,0.48445904022082686,D02R08,2022-11-03_11h58.31.966,t1_Paradigm,2021.1.4,60.07936875168714,
G,right,Target,0,28,28,28,1589.0667959073326,1591.0798484015395,right,1,3,0.7630186495371163,D02R08,2022-11-03_11h58.31.966,t1_Paradigm,2021.1.4,60.07936875168714,
D,left,Distractor,0,29,29,29,1592.5667837167857,1594.5686985873617,left,1,3,0.7303105817991309,D02R08,2022-11-03_11h58.31.966,t1_Paradigm,2021.1.4,60.07936875168714,
N,left,Pretarget,0,30,30,30,1596.0666245987522,1598.0690354300314,left,1,3,0.8300307777826674,D02R08,2022-11-03_11h58.31.966,t1_Paradigm,2021.1.4,60.07936875168714,
V,left,Distractor,0,31,31,31,1599.566830233205,1601.5688224171754,left,1,3,1.409875650482718,D02R08,2022-11-03_11h58.31.966,t1_Paradigm,2021.1.4,60.07936875168714,
R,left,Distractor,0,32,32,32,1603.0668953561108,1605.0683476293343,left,1,3,1.0148015098529868,D02R08,2022-11-03_11h58.31.966,t1_Paradigm,2021.1.4,60.07936875168714,
N,right,Target,0,33,33,33,1606.566944438906,1608.567357311782,left,0,3,1.3554803665610962,D02R08,2022-11-03_11h58.31.966,t1_Paradigm,2021.1.4,60.07936875168714,
Z,left,Distractor,0,34,34,34,1610.0669466844993,1612.065994221659,left,1,3,1.3929241218720563,D02R08,2022-11-03_11h58.31.966,t1_Paradigm,2021.1.4,60.07936875168714,
N,left,Lure,0,35,35,35,1613.5669652910437,1615.5689343772247,right,0,3,0.7858370156609453,D02R08,2022-11-03_11h58.31.966,t1_Paradigm,2021.1.4,60.07936875168714,
Y,left,Pretarget,0,36,36,36,1617.066795586492,1619.069142257329,left,1,3,1.0617981241084635,D02R08,2022-11-03_11h58.31.966,t1_Paradigm,2021.1.4,60.07936875168714,
Y,left,Lure,0,37,37,37,1620.5667121778242,1622.5667933408986,left,1,3,1.083977451431565,D02R08,2022-11-03_11h58.31.966,t1_Paradigm,2021.1.4,60.07936875168714,
B,left,Distractor,0,38,38,38,1624.0668020025478,1626.0687107778504,left,1,3,1.1981976028182544,D02R08,2022-11-03_11h58.31.966,t1_Paradigm,2021.1.4,60.07936875168714,
Y,right,Target,0,39,39,39,1627.5660368884564,1629.5687479909393,right,1,3,1.394115582574159,D02R08,2022-11-03_11h58.31.966,t1_Paradigm,2021.1.4,60.07936875168714,
J,left,Distractor,0,40,40,40,1631.0669123586267,1633.0676482797135,left,1,3,0.6471351367654279,D02R08,2022-11-03_11h58.31.966,t1_Paradigm,2021.1.4,60.07936875168714,
X,left,Distractor,0,41,41,41,1634.5668456316926,1636.5684297548141,left,1,3,0.6663864990696311,D02R08,2022-11-03_11h58.31.966,t1_Paradigm,2021.1.4,60.07936875168714,
W,left,Pretarget,0,42,42,42,1638.0667994361138,1640.06873932929,left,1,3,0.5738619047915563,D02R08,2022-11-03_11h58.31.966,t1_Paradigm,2021.1.4,60.07936875168714,
S,left,Pretarget,0,43,43,43,1641.5669482885278,1643.5684990481823,left,1,3,0.7223950991756283,D02R08,2022-11-03_11h58.31.966,t1_Paradigm,2021.1.4,60.07936875168714,
R,left,Distractor,0,44,44,44,1645.0667984737083,1647.0672190458863,left,1,3,0.8716193023137748,D02R08,2022-11-03_11h58.31.966,t1_Paradigm,2021.1.4,60.07936875168714,
W,right,Target,0,45,45,45,1648.5669736319105,1650.5689119210583,right,1,3,0.746097917901352,D02R08,2022-11-03_11h58.31.966,t1_Paradigm,2021.1.4,60.07936875168714,
S,right,Target,0,46,46,46,1652.0668555765878,1654.0688753495924,right,1,3,0.8461129314964637,D02R08,2022-11-03_11h58.31.966,t1_Paradigm,2021.1.4,60.07936875168714,
D,left,Distractor,0,47,47,47,1655.550231266534,1657.55219971115,left,1,3,0.9312128711026162,D02R08,2022-11-03_11h58.31.966,t1_Paradigm,2021.1.4,60.07936875168714,
T,left,Distractor,0,48,48,48,1659.06692358671,1661.0689164123032,left,1,3,1.1099239633767866,D02R08,2022-11-03_11h58.31.966,t1_Paradigm,2021.1.4,60.07936875168714,
S,right,Target,0,49,49,49,1662.5670785343973,1664.568649825349,right,1,3,0.9542968617170118,D02R08,2022-11-03_11h58.31.966,t1_Paradigm,2021.1.4,60.07936875168714,
K,left,Distractor,0,50,50,50,1666.0669883888331,1668.068962607882,left,1,3,1.1981196478009224,D02R08,2022-11-03_11h58.31.966,t1_Paradigm,2021.1.4,60.07936875168714,
S,left,Lure,0,51,51,51,1669.5501828253618,1671.5526796318009,left,1,3,1.1542867884854786,D02R08,2022-11-03_11h58.31.966,t1_Paradigm,2021.1.4,60.07936875168714,
T,left,Pretarget,0,52,52,52,1673.0669213411165,1675.0689055050025,right,0,3,1.094137589680031,D02R08,2022-11-03_11h58.31.966,t1_Paradigm,2021.1.4,60.07936875168714,
V,left,Distractor,0,53,53,53,1676.5670028249733,1678.5674766503507,left,1,3,1.0513864766107872,D02R08,2022-11-03_11h58.31.966,t1_Paradigm,2021.1.4,60.07936875168714,
B,left,Distractor,0,54,54,54,1680.0670153362444,1682.0520864677965,left,1,3,0.846922957978677,D02R08,2022-11-03_11h58.31.966,t1_Paradigm,2021.1.4,60.07936875168714,
T,right,Target,0,55,55,55,1683.5666457717307,1685.5832643072936,right,1,3,0.5001180553226732,D02R08,2022-11-03_11h58.31.966,t1_Paradigm,2021.1.4,60.07936875168714,
Y,left,Pretarget,0,56,56,56,1687.0669011305436,1689.0660975201172,left,1,3,1.272794787073508,D02R08,2022-11-03_11h58.31.966,t1_Paradigm,2021.1.4,60.07936875168714,
T,left,Lure,0,57,57,57,1690.5666351852124,1692.5524364634184,right,0,3,1.0984774068347178,D02R08,2022-11-03_11h58.31.966,t1_Paradigm,2021.1.4,60.07936875168714,
P,left,Pretarget,0,58,58,58,1694.066972669505,1696.0691464277334,left,1,3,1.21415303950198,D02R08,2022-11-03_11h58.31.966,t1_Paradigm,2021.1.4,60.07936875168714,
Y,right,Target,0,59,59,59,1697.5668645590777,1699.5686966625508,right,1,3,0.9305876269354485,D02R08,2022-11-03_11h58.31.966,t1_Paradigm,2021.1.4,60.07936875168714,
R,left,Distractor,0,60,60,60,1701.066889581678,1703.0688362116343,left,1,3,0.9820668154861778,D02R08,2022-11-03_11h58.31.966,t1_Paradigm,2021.1.4,60.07936875168714,
P,right,Target,0,61,61,61,1704.5494007086963,1706.5520742773078,left,0,3,0.9069399862200953,D02R08,2022-11-03_11h58.31.966,t1_Paradigm,2021.1.4,60.07936875168714,
L,left,Distractor,0,62,62,62,1708.0503204496927,1710.0524849045905,left,1,3,0.6384205349604599,D02R08,2022-11-03_11h58.31.966,t1_Paradigm,2021.1.4,60.07936875168714,
V,left,Distractor,0,63,63,63,1711.5502790661412,1713.5520672196872,left,1,3,0.7868610174627975,D02R08,2022-11-03_11h58.31.966,t1_Paradigm,2021.1.4,60.07936875168714,
H,left,Lure,0,0,0,0,1744.7959942665766,1746.8022255357355,None,0,3,,D02R08,2022-11-03_11h58.31.966,t1_Paradigm,2021.1.4,60.07936875168714,
B,left,Distractor,0,1,1,1,1748.3003116276232,1750.2994060019264,None,0,3,,D02R08,2022-11-03_11h58.31.966,t1_Paradigm,2021.1.4,60.07936875168714,
T,left,Distractor,0,2,2,2,1751.8001810609712,1753.8025248445338,None,0,3,,D02R08,2022-11-03_11h58.31.966,t1_Paradigm,2021.1.4,60.07936875168714,
R,left,Distractor,0,3,3,3,1755.300318043679,1757.2993748841109,left,1,3,0.5917822571936995,D02R08,2022-11-03_11h58.31.966,t1_Paradigm,2021.1.4,60.07936875168714,
H,left,Pretarget,0,4,4,4,1758.8003812417737,1760.8018720113323,left,1,3,1.377143201767467,D02R08,2022-11-03_11h58.31.966,t1_Paradigm,2021.1.4,60.07936875168714,
K,left,Distractor,0,5,5,5,1762.3004537431407,1764.302515862044,None,0,3,,D02R08,2022-11-03_11h58.31.966,t1_Paradigm,2021.1.4,60.07936875168714,
G,left,Distractor,0,6,6,6,1765.8001839481876,1767.8022736561252,left,1,3,0.6969115053070709,D02R08,2022-11-03_11h58.31.966,t1_Paradigm,2021.1.4,60.07936875168714,
H,right,Target,0,7,7,7,1769.3003998483182,1771.3019769137609,right,1,3,0.8454498325590976,D02R08,2022-11-03_11h58.31.966,t1_Paradigm,2021.1.4,60.07936875168714,
Y,left,Pretarget,0,8,8,8,1772.8004091515904,1774.801971139328,left,1,3,0.7371128795202821,D02R08,2022-11-03_11h58.31.966,t1_Paradigm,2021.1.4,60.07936875168714,
S,left,Distractor,0,9,9,9,1776.300428399758,1778.3023654056597,left,1,3,0.9969725861446932,D02R08,2022-11-03_11h58.31.966,t1_Paradigm,2021.1.4,60.07936875168714,
P,left,Distractor,0,10,10,10,1779.8004229461076,1781.80262942618,left,1,3,0.6484238007105887,D02R08,2022-11-03_11h58.31.966,t1_Paradigm,2021.1.4,60.07936875168714,
Y,right,Target,0,11,11,11,1783.3004899938242,1785.3020997811109,right,1,3,0.6210824392037466,D02R08,2022-11-03_11h58.31.966,t1_Paradigm,2021.1.4,60.07936875168714,
H,left,Lure,0,12,12,12,1786.8006532823201,1788.802156563208,left,1,3,0.8812206024304032,D02R08,2022-11-03_11h58.31.966,t1_Paradigm,2021.1.4,60.07936875168714,
Q,left,Distractor,0,13,13,13,1790.3002641487983,1792.3022916210466,left,1,3,0.8687757083098404,D02R08,2022-11-03_11h58.31.966,t1_Paradigm,2021.1.4,60.07936875168714,
V,left,Pretarget,0,14,14,14,1793.8003841289901,1795.802821586898,left,1,3,0.7284204130410217,D02R08,2022-11-03_11h58.31.966,t1_Paradigm,2021.1.4,60.07936875168714,
G,left,Distractor,0,15,15,15,1797.300443477463,1799.3023920322885,left,1,3,0.4128870242857374,D02R08,2022-11-03_11h58.31.966,t1_Paradigm,2021.1.4,60.07936875168714,
Z,left,Pretarget,0,16,16,16,1800.8003889410174,1802.8026813961915,left,1,3,0.9764919084263965,D02R08,2022-11-03_11h58.31.966,t1_Paradigm,2021.1.4,60.07936875168714,
V,right,Target,0,17,17,17,1804.3003036075388,1806.3025598120294,left,0,3,1.3325519651989453,D02R08,2022-11-03_11h58.31.966,t1_Paradigm,2021.1.4,60.07936875168714,
N,left,Distractor,0,18,18,18,1807.8004117180244,1809.8006086907699,left,1,3,0.6024592083413154,D02R08,2022-11-03_11h58.31.966,t1_Paradigm,2021.1.4,60.07936875168714,
Z,right,Target,0,19,19,19,1811.3005541543243,1813.3030021987506,right,1,3,0.4921252593048848,D02R08,2022-11-03_11h58.31.966,t1_Paradigm,2021.1.4,60.07936875168714,
R,left,Distractor,0,20,20,20,1814.80047684093,1816.8022508791182,left,1,3,0.6090574755799025,D02R08,2022-11-03_11h58.31.966,t1_Paradigm,2021.1.4,60.07936875168714,
P,left,Distractor,0,21,21,21,1818.3004152468056,1820.302352573548,left,1,3,0.6289161171880551,D02R08,2022-11-03_11h58.31.966,t1_Paradigm,2021.1.4,60.07936875168714,
Z,right,Target,0,22,22,22,1821.8004575927625,1823.8023169644875,right,1,3,0.6167907424387522,D02R08,2022-11-03_11h58.31.966,t1_Paradigm,2021.1.4,60.07936875168714,
D,left,Pretarget,0,23,23,23,1825.3005127708311,1827.313587400422,left,1,3,0.8017494647647254,D02R08,2022-11-03_11h58.31.966,t1_Paradigm,2021.1.4,60.07936875168714,
K,left,Distractor,0,24,24,24,1828.8005422846763,1830.802481215389,left,1,3,0.5288148077670485,D02R08,2022-11-03_11h58.31.966,t1_Paradigm,2021.1.4,60.07936875168714,
W,left,Distractor,0,25,25,25,1832.300491918635,1834.3022736561252,left,1,3,0.8370149706024677,D02R08,2022-11-03_11h58.31.966,t1_Paradigm,2021.1.4,60.07936875168714,
D,right,Target,0,26,26,26,1835.799585972156,1837.8025912506855,left,0,3,0.9045631599146873,D02R08,2022-11-03_11h58.31.966,t1_Paradigm,2021.1.4,60.07936875168714,
G,left,Pretarget,0,27,27,27,1839.3006109364214,1841.3027291957987,None,0,3,,D02R08,2022-11-03_11h58.31.966,t1_Paradigm,2021.1.4,60.07936875168714,
V,left,Distractor,0,28,28,28,1842.800483256986,1844.8022261773585,left,1,3,0.6730479645193554,D02R08,2022-11-03_11h58.31.966,t1_Paradigm,2021.1.4,60.07936875168714,
D,right,Target,0,29,29,29,1846.3004668960348,1848.3027850154322,right,1,3,0.8523980954196304,D02R08,2022-11-03_11h58.31.966,t1_Paradigm,2021.1.4,60.07936875168714,
G,right,Target,0,30,30,30,1849.800591688254,1851.8025620576227,right,1,3,0.5366257087443955,D02R08,2022-11-03_11h58.31.966,t1_Paradigm,2021.1.4,60.07936875168714,
B,left,Pretarget,0,31,31,31,1853.3005239989143,1855.3022091747844,left,1,3,0.5570771934580989,D02R08,2022-11-03_11h58.31.966,t1_Paradigm,2021.1.4,60.07936875168714,
N,left,Distractor,0,32,32,32,1856.8005570415407,1858.8022868090193,left,1,3,1.2814320755423978,D02R08,2022-11-03_11h58.31.966,t1_Paradigm,2021.1.4,60.07936875168714,
F,left,Distractor,0,33,33,33,1860.3005044299643,1862.313196983654,left,1,3,0.5541190729127266,D02R08,2022-11-03_11h58.31.966,t1_Paradigm,2021.1.4,60.07936875168714,
B,right,Target,0,34,34,34,1863.800348199089,1865.8011088219937,left,0,3,0.634065640042536,D02R08,2022-11-03_11h58.31.966,t1_Paradigm,2021.1.4,60.07936875168714,
Q,left,Pretarget,0,35,35,35,1867.300183627347,1869.3027134764707,left,1,3,0.41245907364645973,D02R08,2022-11-03_11h58.31.966,t1_Paradigm,2021.1.4,60.07936875168714,
S,left,Pretarget,0,36,36,36,1870.8005345853744,1872.802532222995,left,1,3,0.4811056909384206,D02R08,2022-11-03_11h58.31.966,t1_Paradigm,2021.1.4,60.07936875168714,
W,left,Distractor,0,37,37,37,1874.3002708856948,1876.3025816265726,left,1,3,0.5486420106608421,D02R08,2022-11-03_11h58.31.966,t1_Paradigm,2021.1.4,60.07936875168714,
Q,right,Target,0,38,38,38,1877.8005711568985,1879.8026364838588,right,1,3,0.712751453043893,D02R08,2022-11-03_11h58.31.966,t1_Paradigm,2021.1.4,60.07936875168714,
S,right,Target,0,39,39,39,1881.299568328017,1883.302790148242,right,1,3,0.636454977618996,D02R08,2022-11-03_11h58.31.966,t1_Paradigm,2021.1.4,60.07936875168714,
T,left,Distractor,0,40,40,40,1884.8005503047025,1886.8022640320705,left,1,3,0.5612806695280597,D02R08,2022-11-03_11h58.31.966,t1_Paradigm,2021.1.4,60.07936875168714,
G,left,Distractor,0,41,41,41,1888.300566344813,1890.3009003003244,left,1,3,0.6627168385311961,D02R08,2022-11-03_11h58.31.966,t1_Paradigm,2021.1.4,60.07936875168714,
D,left,Distractor,0,42,42,42,1891.8006545655662,1893.8007899442455,left,1,3,0.34662846120772883,D02R08,2022-11-03_11h58.31.966,t1_Paradigm,2021.1.4,60.07936875168714,
S,left,Lure,0,43,43,43,1895.300514695642,1897.3023650848772,left,1,3,0.5730005498626269,D02R08,2022-11-03_11h58.31.966,t1_Paradigm,2021.1.4,60.07936875168714,
Z,left,Pretarget,0,44,44,44,1898.800620560476,1900.802438869432,left,1,3,0.7848155802348629,D02R08,2022-11-03_11h58.31.966,t1_Paradigm,2021.1.4,60.07936875168714,
J,left,Distractor,0,45,45,45,1902.300438344595,1904.3023962026928,left,1,3,0.885011205682531,D02R08,2022-11-03_11h58.31.966,t1_Paradigm,2021.1.4,60.07936875168714,
M,left,Pretarget,0,46,46,46,1905.8006263349089,1907.8024051851826,left,1,3,0.5208877762197517,D02R08,2022-11-03_11h58.31.966,t1_Paradigm,2021.1.4,60.07936875168714,
Z,right,Target,0,47,47,47,1909.3006234476925,1911.3023535359534,left,0,3,1.2131162056466565,D02R08,2022-11-03_11h58.31.966,t1_Paradigm,2021.1.4,60.07936875168714,
P,left,Distractor,0,48,48,48,1912.8003228557063,1914.802426358161,left,1,3,0.7208744949311949,D02R08,2022-11-03_11h58.31.966,t1_Paradigm,2021.1.4,60.07936875168714,
M,right,Target,0,49,49,49,1916.300629542966,1918.3017642216291,right,1,3,0.7735371242742985,D02R08,2022-11-03_11h58.31.966,t1_Paradigm,2021.1.4,60.07936875168714,
K,left,Distractor,0,50,50,50,1919.8006260141265,1921.8027715416974,left,1,3,0.6485463472781703,D02R08,2022-11-03_11h58.31.966,t1_Paradigm,2021.1.4,60.07936875168714,
Y,left,Distractor,0,51,51,51,1923.300622485287,1925.3011072179652,left,1,3,0.6702723806374706,D02R08,2022-11-03_11h58.31.966,t1_Paradigm,2021.1.4,60.07936875168714,
X,left,Distractor,0,52,52,52,1926.8006314677768,1928.8026505991584,left,1,3,0.48121380142401904,D02R08,2022-11-03_11h58.31.966,t1_Paradigm,2021.1.4,60.07936875168714,
F,left,Pretarget,0,53,53,53,1930.3006722097052,1932.3135020668851,left,1,3,0.5862326935166493,D02R08,2022-11-03_11h58.31.966,t1_Paradigm,2021.1.4,60.07936875168714,
M,left,Lure,0,54,54,54,1933.800609332393,1935.8024183380767,left,1,3,0.4889945469913073,D02R08,2022-11-03_11h58.31.966,t1_Paradigm,2021.1.4,60.07936875168714,
V,left,Distractor,0,55,55,55,1937.3006240893155,1939.3024667792488,left,1,3,0.7492533320328221,D02R08,2022-11-03_11h58.31.966,t1_Paradigm,2021.1.4,60.07936875168714,
F,right,Target,0,56,56,56,1940.8005281693186,1942.8019236605032,right,1,3,0.7534311438794248,D02R08,2022-11-03_11h58.31.966,t1_Paradigm,2021.1.4,60.07936875168714,
S,left,Distractor,0,57,57,57,1944.3005034675589,1946.3021036307327,left,1,3,0.5332511864835396,D02R08,2022-11-03_11h58.31.966,t1_Paradigm,2021.1.4,60.07936875168714,
D,left,Distractor,0,58,58,58,1947.8006279389374,1949.8026428998564,left,1,3,0.9046526638558134,D02R08,2022-11-03_11h58.31.966,t1_Paradigm,2021.1.4,60.07936875168714,
F,right,Target,0,59,59,59,1951.3006885705981,1953.302647070319,right,1,3,0.7167168936575763,D02R08,2022-11-03_11h58.31.966,t1_Paradigm,2021.1.4,60.07936875168714,
V,left,Pretarget,0,60,60,60,1954.8008582752082,1956.8024337366223,left,1,3,0.5290884523419663,D02R08,2022-11-03_11h58.31.966,t1_Paradigm,2021.1.4,60.07936875168714,
J,left,Distractor,0,61,61,61,1958.3007443902898,1960.3009397590067,left,1,3,0.6627947934903204,D02R08,2022-11-03_11h58.31.966,t1_Paradigm,2021.1.4,60.07936875168714,
V,left,Lure,0,62,62,62,1961.8006568111596,1963.802955361607,left,1,3,1.2725166512536816,D02R08,2022-11-03_11h58.31.966,t1_Paradigm,2021.1.4,60.07936875168714,
V,right,Target,0,63,63,63,1965.3007033275208,1967.3007440694491,right,1,3,0.8468382661230862,D02R08,2022-11-03_11h58.31.966,t1_Paradigm,2021.1.4,60.07936875168714,
R,left,Distractor,0,0,0,0,2057.4360438369913,2059.436592088605,None,0,4,,D02R08,2022-11-03_11h58.31.966,t1_Paradigm,2021.1.4,60.07936875168714,
F,left,Distractor,0,1,1,1,2060.9341174175497,2062.9359536914853,None,0,4,,D02R08,2022-11-03_11h58.31.966,t1_Paradigm,2021.1.4,60.07936875168714,
P,left,Pretarget,0,2,2,2,2064.4341889565694,2066.433314769529,None,0,4,,D02R08,2022-11-03_11h58.31.966,t1_Paradigm,2021.1.4,60.07936875168714,
H,left,Distractor,0,3,3,3,2067.934211733518,2069.9331761828507,None,0,4,,D02R08,2022-11-03_11h58.31.966,t1_Paradigm,2021.1.4,60.07936875168714,
Z,left,Distractor,0,4,4,4,2071.4333628899185,2073.4359681276255,left,1,4,0.5036141618038528,D02R08,2022-11-03_11h58.31.966,t1_Paradigm,2021.1.4,60.07936875168714,
T,left,Distractor,0,5,5,5,2074.934198580624,2076.9360576315084,left,1,4,0.6674557341029868,D02R08,2022-11-03_11h58.31.966,t1_Paradigm,2021.1.4,60.07936875168714,
P,right,Target,0,6,6,6,2078.434141156962,2080.436551025894,right,1,4,0.7830248603131622,D02R08,2022-11-03_11h58.31.966,t1_Paradigm,2021.1.4,60.07936875168714,
G,left,Distractor,0,7,7,7,2081.934081487707,2083.936171516427,left,1,4,0.9796226206817664,D02R08,2022-11-03_11h58.31.966,t1_Paradigm,2021.1.4,60.07936875168714,
L,left,Distractor,0,8,8,8,2085.434121588012,2087.4364098727237,left,1,4,0.6313176452531479,D02R08,2022-11-03_11h58.31.966,t1_Paradigm,2021.1.4,60.07936875168714,
P,left,Lure,0,9,9,9,2088.9341950517846,2090.934548576246,left,1,4,0.8292027863208205,D02R08,2022-11-03_11h58.31.966,t1_Paradigm,2021.1.4,60.07936875168714,
Q,left,Pretarget,0,10,10,10,2092.4338925349875,2094.435839806567,left,1,4,0.47996459621936083,D02R08,2022-11-03_11h58.31.966,t1_Paradigm,2021.1.4,60.07936875168714,
D,left,Distractor,0,11,11,11,2095.9342653075582,2097.9333741180017,left,1,4,0.9022540230071172,D02R08,2022-11-03_11h58.31.966,t1_Paradigm,2021.1.4,60.07936875168714,
M,left,Pretarget,0,12,12,12,2099.43417644524,2101.436030684097,left,1,4,0.8237042302498594,D02R08,2022-11-03_11h58.31.966,t1_Paradigm,2021.1.4,60.07936875168714,
C,left,Distractor,0,13,13,13,2102.934325939219,2104.936065651593,left,1,4,0.6516369592864066,D02R08,2022-11-03_11h58.31.966,t1_Paradigm,2021.1.4,60.07936875168714,
Q,right,Target,0,14,14,14,2106.434090149356,2108.4363418626017,left,0,4,1.1672674229484983,D02R08,2022-11-03_11h58.31.966,t1_Paradigm,2021.1.4,60.07936875168714,
R,left,Distractor,0,15,15,15,2109.9339794724947,2111.936659457162,left,1,4,1.2189907422289252,D02R08,2022-11-03_11h58.31.966,t1_Paradigm,2021.1.4,60.07936875168714,
M,right,Target,0,16,16,16,2113.434109718306,2115.4360091903363,right,1,4,0.5675950265722349,D02R08,2022-11-03_11h58.31.966,t1_Paradigm,2021.1.4,60.07936875168714,
S,left,Distractor,0,17,17,17,2116.933982359711,2118.9365147752105,left,1,4,0.6191374132176861,D02R08,2022-11-03_11h58.31.966,t1_Paradigm,2021.1.4,60.07936875168714,
Z,left,Distractor,0,18,18,18,2120.4341725956183,2122.4360489698593,left,1,4,1.119641714845784,D02R08,2022-11-03_11h58.31.966,t1_Paradigm,2021.1.4,60.07936875168714,
L,left,Pretarget,0,19,19,19,2123.9343544906587,2125.936141361017,left,1,4,1.1236520677921362,D02R08,2022-11-03_11h58.31.966,t1_Paradigm,2021.1.4,60.07936875168714,
M,right,Target,0,20,20,20,2127.433928144048,2129.4470547436504,right,1,4,0.7328936841222458,D02R08,2022-11-03_11h58.31.966,t1_Paradigm,2021.1.4,60.07936875168714,
P,left,Distractor,0,21,21,21,2130.9343339593033,2132.936121471226,left,1,4,0.5236283925478347,D02R08,2022-11-03_11h58.31.966,t1_Paradigm,2021.1.4,60.07936875168714,
F,left,Distractor,0,22,22,22,2134.434149497829,2136.433255421056,left,1,4,0.56255714292638,D02R08,2022-11-03_11h58.31.966,t1_Paradigm,2021.1.4,60.07936875168714,
L,right,Target,0,23,23,23,2137.934353849094,2139.9359812805196,right,1,4,0.6438651961507276,D02R08,2022-11-03_11h58.31.966,t1_Paradigm,2021.1.4,60.07936875168714,
L,left,Lure,0,24,24,24,2141.4343079742976,2143.434145648207,left,1,4,0.9215307286940515,D02R08,2022-11-03_11h58.31.966,t1_Paradigm,2021.1.4,60.07936875168714,
V,left,Pretarget,0,25,25,25,2144.933290709334,2146.933418709552,left,1,4,0.7020921460352838,D02R08,2022-11-03_11h58.31.966,t1_Paradigm,2021.1.4,60.07936875168714,
Z,left,Distractor,0,26,26,26,2148.4343451873865,2150.447002773639,left,1,4,0.6607894566259347,D02R08,2022-11-03_11h58.31.966,t1_Paradigm,2021.1.4,60.07936875168714,
H,left,Distractor,0,27,27,27,2151.9341491770465,2153.936644379399,left,1,4,0.7388506670249626,D02R08,2022-11-03_11h58.31.966,t1_Paradigm,2021.1.4,60.07936875168714,
X,left,Distractor,0,28,28,28,2155.4343544906587,2157.436247225851,left,1,4,0.7594728186959401,D02R08,2022-11-03_11h58.31.966,t1_Paradigm,2021.1.4,60.07936875168714,
V,right,Target,0,29,29,29,2158.9343131071655,2160.936656249105,right,1,4,0.5711610679281875,D02R08,2022-11-03_11h58.31.966,t1_Paradigm,2021.1.4,60.07936875168714,
C,left,Distractor,0,30,30,30,2162.434404215077,2164.4356931998045,left,1,4,0.6241736927768216,D02R08,2022-11-03_11h58.31.966,t1_Paradigm,2021.1.4,60.07936875168714,
S,left,Pretarget,0,31,31,31,2165.934329788899,2167.936097731872,left,1,4,0.9957939574960619,D02R08,2022-11-03_11h58.31.966,t1_Paradigm,2021.1.4,60.07936875168714,
D,left,Distractor,0,32,32,32,2169.434478641255,2171.4355732196127,left,1,4,0.6487506985431537,D02R08,2022-11-03_11h58.31.966,t1_Paradigm,2021.1.4,60.07936875168714,
V,left,Distractor,0,33,33,33,2172.9343503202545,2174.9364579931134,right,0,4,0.7471944211283699,D02R08,2022-11-03_11h58.31.966,t1_Paradigm,2021.1.4,60.07936875168714,
R,left,Distractor,0,34,34,34,2176.4335358025273,2178.434877719672,left,1,4,0.6410004292847589,D02R08,2022-11-03_11h58.31.966,t1_Paradigm,2021.1.4,60.07936875168714,
S,right,Target,0,35,35,35,2179.9344221799984,2181.9348988926504,right,1,4,0.6609630107996054,D02R08,2022-11-03_11h58.31.966,t1_Paradigm,2021.1.4,60.07936875168714,
Y,left,Distractor,0,36,36,36,2183.4335034014657,2185.4336548202555,left,1,4,0.6181130906334147,D02R08,2022-11-03_11h58.31.966,t1_Paradigm,2021.1.4,60.07936875168714,
N,left,Pretarget,0,37,37,37,2186.9344077439164,2188.936128528905,left,1,4,0.63573637988884,D02R08,2022-11-03_11h58.31.966,t1_Paradigm,2021.1.4,60.07936875168714,
Z,left,Pretarget,0,38,38,38,2190.434253437852,2192.4360884285416,left,1,4,0.7036679282900877,D02R08,2022-11-03_11h58.31.966,t1_Paradigm,2021.1.4,60.07936875168714,
P,left,Pretarget,0,39,39,39,2193.934363793931,2195.936624168884,left,1,4,1.3475812448887154,D02R08,2022-11-03_11h58.31.966,t1_Paradigm,2021.1.4,60.07936875168714,
M,left,Distractor,0,40,40,40,2197.4343868917204,2199.436065651593,left,1,4,0.8399974720668979,D02R08,2022-11-03_11h58.31.966,t1_Paradigm,2021.1.4,60.07936875168714,
N,right,Target,0,41,41,41,2200.9343641147716,2202.9368792069145,right,1,4,0.5230410030344501,D02R08,2022-11-03_11h58.31.966,t1_Paradigm,2021.1.4,60.07936875168714,
Z,right,Target,0,42,42,42,2204.4343772676657,2206.4349592035287,right,1,4,0.6089750293758698,D02R08,2022-11-03_11h58.31.966,t1_Paradigm,2021.1.4,60.07936875168714,
P,right,Target,0,43,43,43,2207.9340628811624,2209.93503972498,right,1,4,0.5813244141754694,D02R08,2022-11-03_11h58.31.966,t1_Paradigm,2021.1.4,60.07936875168714,
X,left,Pretarget,0,44,44,44,2211.4343856085325,2213.4360393458046,left,1,4,0.8559160164440982,D02R08,2022-11-03_11h58.31.966,t1_Paradigm,2021.1.4,60.07936875168714,
Z,left,Lure,0,45,45,45,2214.9344455986284,2216.9360380625585,left,1,4,1.115793046366889,D02R08,2022-11-03_11h58.31.966,t1_Paradigm,2021.1.4,60.07936875168714,
R,left,Pretarget,0,46,46,46,2218.434269798803,2220.4365449306206,left,1,4,0.7192887678393163,D02R08,2022-11-03_11h58.31.966,t1_Paradigm,2021.1.4,60.07936875168714,
K,left,Distractor,0,47,47,47,2221.9344427113538,2223.936532740132,left,1,4,0.6114660613820888,D02R08,2022-11-03_11h58.31.966,t1_Paradigm,2021.1.4,60.07936875168714,
X,right,Target,0,48,48,48,2225.4342835933203,2227.4365227952367,right,1,4,0.5033280058414675,D02R08,2022-11-03_11h58.31.966,t1_Paradigm,2021.1.4,60.07936875168714,
B,left,Distractor,0,49,49,49,2228.9341944101616,2230.9354099311167,left,1,4,0.9565639735083096,D02R08,2022-11-03_11h58.31.966,t1_Paradigm,2021.1.4,60.07936875168714,
R,right,Target,0,50,50,50,2232.4344019694254,2234.4366905749775,right,1,4,0.4793704698677175,D02R08,2022-11-03_11h58.31.966,t1_Paradigm,2021.1.4,60.07936875168714,
Y,left,Pretarget,0,51,51,51,2235.934305728704,2237.9360961278435,right,0,4,1.0598049776745029,D02R08,2022-11-03_11h58.31.966,t1_Paradigm,2021.1.4,60.07936875168714,
W,left,Pretarget,0,52,52,52,2239.4345614083577,2241.4366427754285,left,1,4,0.6151892959605902,D02R08,2022-11-03_11h58.31.966,t1_Paradigm,2021.1.4,60.07936875168714,
Z,left,Distractor,0,53,53,53,2242.934439503355,2244.9362260528724,left,1,4,1.0517306977999397,D02R08,2022-11-03_11h58.31.966,t1_Paradigm,2021.1.4,60.07936875168714,
Q,left,Distractor,0,54,54,54,2246.4344770372263,2248.4365247200476,left,1,4,0.6394852786906995,D02R08,2022-11-03_11h58.31.966,t1_Paradigm,2021.1.4,60.07936875168714,
Y,right,Target,0,55,55,55,2249.9345764860627,2251.936334804923,right,1,4,0.5155451301834546,D02R08,2022-11-03_11h58.31.966,t1_Paradigm,2021.1.4,60.07936875168714,
W,right,Target,0,56,56,56,2253.434159442724,2255.4366969910334,right,1,4,0.5671827952610329,D02R08,2022-11-03_11h58.31.966,t1_Paradigm,2021.1.4,60.07936875168714,
H,left,Pretarget,0,57,57,57,2256.933472283592,2258.936884339724,left,1,4,0.4750883971573785,D02R08,2022-11-03_11h58.31.966,t1_Paradigm,2021.1.4,60.07936875168714,
M,left,Distractor,0,58,58,58,2260.4343522450654,2262.4349681860185,left,1,4,0.560961791779846,D02R08,2022-11-03_11h58.31.966,t1_Paradigm,2021.1.4,60.07936875168714,
R,left,Pretarget,0,59,59,59,2263.9344568267115,2265.9366029959056,left,1,4,0.515326342836488,D02R08,2022-11-03_11h58.31.966,t1_Paradigm,2021.1.4,60.07936875168714,
J,left,Distractor,0,60,60,60,2267.434594771825,2269.4507109305705,left,1,4,0.5212483583018184,D02R08,2022-11-03_11h58.31.966,t1_Paradigm,2021.1.4,60.07936875168714,
H,right,Target,0,61,61,61,2270.9345097591286,2272.933647441794,right,1,4,0.958403134602122,D02R08,2022-11-03_11h58.31.966,t1_Paradigm,2021.1.4,60.07936875168714,
Z,left,Distractor,0,62,62,62,2274.4344334080815,2276.436192368623,left,1,4,0.9279535170062445,D02R08,2022-11-03_11h58.31.966,t1_Paradigm,2021.1.4,60.07936875168714,
R,right,Target,0,63,63,63,2277.9344613179564,2279.935112226347,right,1,4,0.7245932383812033,D02R08,2022-11-03_11h58.31.966,t1_Paradigm,2021.1.4,60.07936875168714,
J,left,Pretarget,0,0,0,0,2306.3534698968288,2308.350266683148,None,0,4,,D02R08,2022-11-03_11h58.31.966,t1_Paradigm,2021.1.4,60.07936875168714,
G,left,Pretarget,0,1,1,1,2309.8512047098484,2311.853339330177,None,0,4,,D02R08,2022-11-03_11h58.31.966,t1_Paradigm,2021.1.4,60.07936875168714,
Z,left,Distractor,0,2,2,2,2313.3503667735495,2315.3537480326486,None,0,4,,D02R08,2022-11-03_11h58.31.966,t1_Paradigm,2021.1.4,60.07936875168714,
F,left,Distractor,0,3,3,3,2316.8512172211776,2318.853456423094,None,0,4,,D02R08,2022-11-03_11h58.31.966,t1_Paradigm,2021.1.4,60.07936875168714,
J,right,Target,0,4,4,4,2320.351056819898,2322.353176683304,right,1,4,0.5790451118955389,D02R08,2022-11-03_11h58.31.966,t1_Paradigm,2021.1.4,60.07936875168714,
G,right,Target,0,5,5,5,2323.8513497126405,2325.85030453786,right,1,4,0.537675695552025,D02R08,2022-11-03_11h58.31.966,t1_Paradigm,2021.1.4,60.07936875168714,
H,left,Distractor,0,6,6,6,2327.3512367901276,2329.3530002418556,left,1,4,0.4592365796561353,D02R08,2022-11-03_11h58.31.966,t1_Paradigm,2021.1.4,60.07936875168714,
P,left,Distractor,0,7,7,7,2330.8503388637328,2332.8522745864466,left,1,4,0.7357154635246843,D02R08,2022-11-03_11h58.31.966,t1_Paradigm,2021.1.4,60.07936875168714,
G,left,Lure,0,8,8,8,2334.3512451309944,2336.3531686632195,left,1,4,0.818960522650741,D02R08,2022-11-03_11h58.31.966,t1_Paradigm,2021.1.4,60.07936875168714,
S,left,Distractor,0,9,9,9,2337.85129068495,2339.853312703548,left,1,4,1.270751274714712,D02R08,2022-11-03_11h58.31.966,t1_Paradigm,2021.1.4,60.07936875168714,
R,left,Pretarget,0,10,10,10,2341.351271116,2343.3530255852966,left,1,4,1.0990535682649352,D02R08,2022-11-03_11h58.31.966,t1_Paradigm,2021.1.4,60.07936875168714,
T,left,Pretarget,0,11,11,11,2344.8515162091935,2346.853479200101,left,1,4,0.4947766925324686,D02R08,2022-11-03_11h58.31.966,t1_Paradigm,2021.1.4,60.07936875168714,
X,left,Distractor,0,12,12,12,2348.351336880529,2350.353410548356,left,1,4,0.7227877615368925,D02R08,2022-11-03_11h58.31.966,t1_Paradigm,2021.1.4,60.07936875168714,
F,left,Pretarget,0,13,13,13,2351.851324369258,2353.8505416109692,left,1,4,0.6657397610833868,D02R08,2022-11-03_11h58.31.966,t1_Paradigm,2021.1.4,60.07936875168714,
R,right,Target,0,14,14,14,2355.351321802824,2357.3536363933817,right,1,4,0.6984536032541655,D02R08,2022-11-03_11h58.31.966,t1_Paradigm,2021.1.4,60.07936875168714,
T,right,Target,0,15,15,15,2358.8513169907965,2360.853837857372,right,1,4,0.6703407116001472,D02R08,2022-11-03_11h58.31.966,t1_Paradigm,2021.1.4,60.07936875168714,
C,left,Distractor,0,16,16,16,2362.351109752315,2364.3535879521514,left,1,4,0.7386174435960129,D02R08,2022-11-03_11h58.31.966,t1_Paradigm,2021.1.4,60.07936875168714,
F,right,Target,0,17,17,17,2365.8509981130483,2367.8531516607036,right,1,4,0.7111371745704673,D02R08,2022-11-03_11h58.31.966,t1_Paradigm,2021.1.4,60.07936875168714,
M,left,Distractor,0,18,18,18,2369.3513429758023,2371.353592122614,left,1,4,0.9066198252257891,D02R08,2022-11-03_11h58.31.966,t1_Paradigm,2021.1.4,60.07936875168714,
N,left,Distractor,0,19,19,19,2372.851268549566,2374.8506914257887,left,1,4,0.5615793367032893,D02R08,2022-11-03_11h58.31.966,t1_Paradigm,2021.1.4,60.07936875168714,
R,left,Lure,0,20,20,20,2376.351359657536,2378.3533358013374,left,1,4,0.7708674052264541,D02R08,2022-11-03_11h58.31.966,t1_Paradigm,2021.1.4,60.07936875168714,
F,right,Target,0,21,21,21,2379.851410023519,2381.8538994514965,right,1,4,1.1104901799117215,D02R08,2022-11-03_11h58.31.966,t1_Paradigm,2021.1.4,60.07936875168714,
P,left,Distractor,0,22,22,22,2383.3513163491734,2385.353244051803,left,1,4,0.7630529754096642,D02R08,2022-11-03_11h58.31.966,t1_Paradigm,2021.1.4,60.07936875168714,
L,left,Pretarget,0,23,23,23,2386.850956087874,2388.853244051803,left,1,4,0.5110994481365196,D02R08,2022-11-03_11h58.31.966,t1_Paradigm,2021.1.4,60.07936875168714,
T,left,Distractor,0,24,24,24,2390.351496961026,2392.3532007434987,left,1,4,0.7070642650942318,D02R08,2022-11-03_11h58.31.966,t1_Paradigm,2021.1.4,60.07936875168714,
F,left,Distractor,0,25,25,25,2393.851403607463,2395.8531189388013,right,0,4,0.5352574857533909,D02R08,2022-11-03_11h58.31.966,t1_Paradigm,2021.1.4,60.07936875168714,
V,left,Distractor,0,26,26,26,2397.351342013397,2399.353268753621,left,1,4,0.6189199090586044,D02R08,2022-11-03_11h58.31.966,t1_Paradigm,2021.1.4,60.07936875168714,
L,right,Target,0,27,27,27,2400.851494394592,2402.868008348567,right,1,4,0.49645577324554324,D02R08,2022-11-03_11h58.31.966,t1_Paradigm,2021.1.4,60.07936875168714,
S,left,Pretarget,0,28,28,28,2404.3513615823467,2406.3532129339874,left,1,4,0.4989275570260361,D02R08,2022-11-03_11h58.31.966,t1_Paradigm,2021.1.4,60.07936875168714,
W,left,Distractor,0,29,29,29,2407.8513785848627,2409.85054353578,left,1,4,1.0977353905327618,D02R08,2022-11-03_11h58.31.966,t1_Paradigm,2021.1.4,60.07936875168714,
Q,left,Distractor,0,30,30,30,2411.3511007698253,2413.353339330177,left,1,4,0.5549432147527114,D02R08,2022-11-03_11h58.31.966,t1_Paradigm,2021.1.4,60.07936875168714,
L,right,Target,0,31,31,31,2414.8513965498423,2416.8532479014248,right,1,4,0.4149257245589979,D02R08,2022-11-03_11h58.31.966,t1_Paradigm,2021.1.4,60.07936875168714,
S,right,Target,0,32,32,32,2418.3514600687195,2420.3534169644117,right,1,4,0.6909234045306221,D02R08,2022-11-03_11h58.31.966,t1_Paradigm,2021.1.4,60.07936875168714,
Z,left,Pretarget,0,33,33,33,2421.85102153162,2423.853428192495,left,1,4,0.4069024522905238,D02R08,2022-11-03_11h58.31.966,t1_Paradigm,2021.1.4,60.07936875168714,
F,left,Distractor,0,34,34,34,2425.351482524886,2427.3534808041295,left,1,4,0.5867466192576103,D02R08,2022-11-03_11h58.31.966,t1_Paradigm,2021.1.4,60.07936875168714,
V,left,Distractor,0,35,35,35,2428.8514254220645,2430.852476050437,left,1,4,0.495837586640846,D02R08,2022-11-03_11h58.31.966,t1_Paradigm,2021.1.4,60.07936875168714,
M,left,Distractor,0,36,36,36,2432.3515874273726,2434.353293134598,left,1,4,0.6911396254436113,D02R08,2022-11-03_11h58.31.966,t1_Paradigm,2021.1.4,60.07936875168714,
Z,right,Target,0,37,37,37,2435.8514241388184,2437.8532809441094,right,1,4,0.8547226308728568,D02R08,2022-11-03_11h58.31.966,t1_Paradigm,2021.1.4,60.07936875168714,
H,left,Pretarget,0,38,38,38,2439.351481241698,2441.35326682881,left,1,4,0.5550635156687349,D02R08,2022-11-03_11h58.31.966,t1_Paradigm,2021.1.4,60.07936875168714,
L,left,Distractor,0,39,39,39,2442.851525833248,2444.853638638975,left,1,4,0.6706121105817147,D02R08,2022-11-03_11h58.31.966,t1_Paradigm,2021.1.4,60.07936875168714,
G,left,Distractor,0,40,40,40,2446.3514234972536,2448.3524321005098,left,1,4,0.5323064228869043,D02R08,2022-11-03_11h58.31.966,t1_Paradigm,2021.1.4,60.07936875168714,
K,left,Distractor,0,41,41,41,2449.8505477061844,2451.8534971650224,left,1,4,0.9506936072721146,D02R08,2022-11-03_11h58.31.966,t1_Paradigm,2021.1.4,60.07936875168714,
H,right,Target,0,42,42,42,2453.3514921489987,2455.3535427190363,right,1,4,0.7630119126988575,D02R08,2022-11-03_11h58.31.966,t1_Paradigm,2021.1.4,60.07936875168714,
B,left,Distractor,0,43,43,43,2456.8515559887164,2458.8539158123895,left,1,4,1.0064766831346788,D02R08,2022-11-03_11h58.31.966,t1_Paradigm,2021.1.4,60.07936875168714,
Z,left,Distractor,0,44,44,44,2460.351460389502,2462.3506378517486,left,1,4,0.6456225527217612,D02R08,2022-11-03_11h58.31.966,t1_Paradigm,2021.1.4,60.07936875168714,
T,left,Pretarget,0,45,45,45,2463.8512079179054,2465.853158397542,left,1,4,0.7431128500029445,D02R08,2022-11-03_11h58.31.966,t1_Paradigm,2021.1.4,60.07936875168714,
H,right,Target,0,46,46,46,2467.351445311797,2469.3507103531156,right,1,4,0.7978084051283076,D02R08,2022-11-03_11h58.31.966,t1_Paradigm,2021.1.4,60.07936875168714,
F,left,Distractor,0,47,47,47,2470.85147097602,2472.8521914985613,left,1,4,0.6081505667534657,D02R08,2022-11-03_11h58.31.966,t1_Paradigm,2021.1.4,60.07936875168714,
R,left,Distractor,0,48,48,48,2474.3515665751765,2476.3506651199423,left,1,4,0.4696928187040612,D02R08,2022-11-03_11h58.31.966,t1_Paradigm,2021.1.4,60.07936875168714,
T,right,Target,0,49,49,49,2477.85149952746,2479.8506397765595,right,1,4,1.161648565903306,D02R08,2022-11-03_11h58.31.966,t1_Paradigm,2021.1.4,60.07936875168714,
H,right,Target,0,50,50,50,2481.351143115782,2483.353543681442,right,1,4,1.0347047429531813,D02R08,2022-11-03_11h58.31.966,t1_Paradigm,2021.1.4,60.07936875168714,
Y,left,Pretarget,0,51,51,51,2484.8514671263983,2486.853642488597,left,1,4,0.558788995957002,D02R08,2022-11-03_11h58.31.966,t1_Paradigm,2021.1.4,60.07936875168714,
H,left,Distractor,0,52,52,52,2488.351640038949,2490.353402849112,left,1,4,0.6110262410365976,D02R08,2022-11-03_11h58.31.966,t1_Paradigm,2021.1.4,60.07936875168714,
S,left,Distractor,0,53,53,53,2491.851378905645,2493.850826162845,left,1,4,1.0656727775349282,D02R08,2022-11-03_11h58.31.966,t1_Paradigm,2021.1.4,60.07936875168714,
Q,left,Distractor,0,54,54,54,2495.351464239182,2497.352919399622,left,1,4,0.6674220497370698,D02R08,2022-11-03_11h58.31.966,t1_Paradigm,2021.1.4,60.07936875168714,
Y,right,Target,0,55,55,55,2498.85144595342,2500.8536357517587,right,1,4,0.6228247179533355,D02R08,2022-11-03_11h58.31.966,t1_Paradigm,2021.1.4,60.07936875168714,
R,left,Distractor,0,56,56,56,2502.3511399077834,2504.3533024378703,left,1,4,0.78708301280858,D02R08,2022-11-03_11h58.31.966,t1_Paradigm,2021.1.4,60.07936875168714,
H,left,Pretarget,0,57,57,57,2505.85166698636,2507.853720764455,left,1,4,1.302609215665143,D02R08,2022-11-03_11h58.31.966,t1_Paradigm,2021.1.4,60.07936875168714,
J,left,Distractor,0,58,58,58,2509.3516188659705,2511.354172133666,left,1,4,0.794289521756582,D02R08,2022-11-03_11h58.31.966,t1_Paradigm,2021.1.4,60.07936875168714,
V,left,Distractor,0,59,59,59,2512.8518161595566,2514.8536023882916,left,1,4,0.7826671654474922,D02R08,2022-11-03_11h58.31.966,t1_Paradigm,2021.1.4,60.07936875168714,
Y,left,Lure,0,60,60,60,2516.3516082795104,2518.3529877305846,left,1,4,1.0279261845862493,D02R08,2022-11-03_11h58.31.966,t1_Paradigm,2021.1.4,60.07936875168714,
H,right,Target,0,61,61,61,2519.8515174923814,2521.853316553228,right,1,4,0.6151636317372322,D02R08,2022-11-03_11h58.31.966,t1_Paradigm,2021.1.4,60.07936875168714,
L,left,Distractor,0,62,62,62,2523.3515540639055,2525.3534724632627,left,1,4,0.7148331409553066,D02R08,2022-11-03_11h58.31.966,t1_Paradigm,2021.1.4,60.07936875168714,
P,left,Distractor,0,63,63,63,2526.851532249304,2528.853903621901,left,1,4,0.622595023305621,D02R08,2022-11-03_11h58.31.966,t1_Paradigm,2021.1.4,60.07936875168714,
