Letter,CorrAnswer,Stimulus,nback_run.thisRepN,nback_run.thisTrialN,nback_run.thisN,nback_run.thisIndex,fixcross.started,nback_trial.started,trial_resp.keys,trial_resp.corr,currentlevel,trial_resp.rt,Participant,date,expName,psychopyVersion,frameRate,
H,left,Distractor,0,0,0,0,325.8907576315578,327.829651917049,None,0,1,,D06D03,2023-01-26_16h05.37.288,t1_Paradigm,2021.1.4,60.01644239661159,
Q,left,Pretarget,0,1,1,1,329.32862920042135,331.33202745551534,left,1,1,0.8950647185865819,D06D03,2023-01-26_16h05.37.288,t1_Paradigm,2021.1.4,60.01644239661159,
Q,right,Target,0,2,2,2,332.828602573858,334.82855637837747,right,1,1,0.710530131644191,D06D03,2023-01-26_16h05.37.288,t1_Paradigm,2021.1.4,60.01644239661159,
T,left,Distractor,0,3,3,3,336.3277790752436,338.33061688932503,left,1,1,0.6483089887424285,D06D03,2023-01-26_16h05.37.288,t1_Paradigm,2021.1.4,60.01644239661159,
Q,left,Lure,0,4,4,4,339.82860706508654,341.83043306980653,left,1,1,0.8286846991595667,D06D03,2023-01-26_16h05.37.288,t1_Paradigm,2021.1.4,60.01644239661159,
L,left,Distractor,0,5,5,5,343.3285566991799,345.3298456814282,left,1,1,0.7211079344597238,D06D03,2023-01-26_16h05.37.288,t1_Paradigm,2021.1.4,60.01644239661159,
V,left,Pretarget,0,6,6,6,346.8284976716204,348.83124405714443,left,1,1,0.5638216238476161,D06D03,2023-01-26_16h05.37.288,t1_Paradigm,2021.1.4,60.01644239661159,
V,right,Target,0,7,7,7,350.3286144435315,352.3286574309932,right,1,1,0.842383904981034,D06D03,2023-01-26_16h05.37.288,t1_Paradigm,2021.1.4,60.01644239661159,
K,left,Distractor,0,8,8,8,353.82854226309064,355.831348317779,left,1,1,0.5236816002125124,D06D03,2023-01-26_16h05.37.288,t1_Paradigm,2021.1.4,60.01644239661159,
G,left,Pretarget,0,9,9,9,357.3285371302609,359.3306646888159,left,1,1,0.5444070104222192,D06D03,2023-01-26_16h05.37.288,t1_Paradigm,2021.1.4,60.01644239661159,
G,right,Target,0,10,10,10,360.828555415972,362.8284915763834,right,1,1,0.47037939322217426,D06D03,2023-01-26_16h05.37.288,t1_Paradigm,2021.1.4,60.01644239661159,
G,right,Target,0,11,11,11,364.32848548114634,366.3286712254776,right,1,1,0.5062562796974817,D06D03,2023-01-26_16h05.37.288,t1_Paradigm,2021.1.4,60.01644239661159,
P,left,Pretarget,0,12,12,12,367.8285887793754,369.83059635800055,left,1,1,0.5724268154517631,D06D03,2023-01-26_16h05.37.288,t1_Paradigm,2021.1.4,60.01644239661159,
P,right,Target,0,13,13,13,371.3286616014175,373.3285550951696,right,1,1,0.5305085865857109,D06D03,2023-01-26_16h05.37.288,t1_Paradigm,2021.1.4,60.01644239661159,
G,left,Lure,0,14,14,14,374.8286532605671,376.82920696473957,left,1,1,0.5979209467004694,D06D03,2023-01-26_16h05.37.288,t1_Paradigm,2021.1.4,60.01644239661159,
Y,left,Distractor,0,15,15,15,378.3286038570659,380.33089759103495,left,1,1,0.5520222071954777,D06D03,2023-01-26_16h05.37.288,t1_Paradigm,2021.1.4,60.01644239661159,
B,left,Distractor,0,16,16,16,381.8286786039225,383.8299149746508,left,1,1,0.47698695106009836,D06D03,2023-01-26_16h05.37.288,t1_Paradigm,2021.1.4,60.01644239661159,
T,left,Pretarget,0,17,17,17,385.3285149949261,387.32971511503274,left,1,1,0.5133492108907376,D06D03,2023-01-26_16h05.37.288,t1_Paradigm,2021.1.4,60.01644239661159,
T,right,Target,0,18,18,18,388.8283472155035,390.82861412272905,right,1,1,0.5984406458646845,D06D03,2023-01-26_16h05.37.288,t1_Paradigm,2021.1.4,60.01644239661159,
S,left,Distractor,0,19,19,19,392.3286022530574,394.33079397200345,left,1,1,0.7122833143203025,D06D03,2023-01-26_16h05.37.288,t1_Paradigm,2021.1.4,60.01644239661159,
T,left,Lure,0,20,20,20,395.82832251375294,397.83059924521694,left,1,1,0.8124694436137361,D06D03,2023-01-26_16h05.37.288,t1_Paradigm,2021.1.4,60.01644239661159,
J,left,Distractor,0,21,21,21,399.3284575713751,401.33041414249055,left,1,1,0.5765125491307117,D06D03,2023-01-26_16h05.37.288,t1_Paradigm,2021.1.4,60.01644239661159,
P,left,Distractor,0,22,22,22,402.8285156365291,404.83011419266404,left,1,1,0.6130095457829157,D06D03,2023-01-26_16h05.37.288,t1_Paradigm,2021.1.4,60.01644239661159,
F,left,Distractor,0,23,23,23,406.3286089898975,408.33042248334095,left,1,1,0.6325062845098728,D06D03,2023-01-26_16h05.37.288,t1_Paradigm,2021.1.4,60.01644239661159,
L,left,Distractor,0,24,24,24,409.8286048194732,411.83034934049647,left,1,1,0.58866388552633,D06D03,2023-01-26_16h05.37.288,t1_Paradigm,2021.1.4,60.01644239661159,
W,left,Pretarget,0,25,25,25,413.3284296616057,415.33112953084674,left,1,1,0.7037833457598026,D06D03,2023-01-26_16h05.37.288,t1_Paradigm,2021.1.4,60.01644239661159,
W,right,Target,0,26,26,26,416.828511466103,418.828516278134,right,1,1,0.7744961163716653,D06D03,2023-01-26_16h05.37.288,t1_Paradigm,2021.1.4,60.01644239661159,
V,left,Distractor,0,27,27,27,420.3285676064461,422.33064479909444,left,1,1,0.5683353073345643,D06D03,2023-01-26_16h05.37.288,t1_Paradigm,2021.1.4,60.01644239661159,
W,left,Lure,0,28,28,28,423.8286728294861,425.83029127534246,left,1,1,1.0685903448884346,D06D03,2023-01-26_16h05.37.288,t1_Paradigm,2021.1.4,60.01644239661159,
R,left,Pretarget,0,29,29,29,427.3285454711113,429.32992812753037,left,1,1,0.784993718698388,D06D03,2023-01-26_16h05.37.288,t1_Paradigm,2021.1.4,60.01644239661159,
R,right,Target,0,30,30,30,430.8283472155035,432.82859487461246,right,1,1,0.47051830046802934,D06D03,2023-01-26_16h05.37.288,t1_Paradigm,2021.1.4,60.01644239661159,
G,left,Distractor,0,31,31,31,434.328491897184,436.33061175649345,left,1,1,0.600270500206534,D06D03,2023-01-26_16h05.37.288,t1_Paradigm,2021.1.4,60.01644239661159,
R,left,Lure,0,32,32,32,437.82859487461246,439.8306624432025,left,1,1,0.8284373608530586,D06D03,2023-01-26_16h05.37.288,t1_Paradigm,2021.1.4,60.01644239661159,
S,left,Distractor,0,33,33,33,441.3286259924007,443.33006992199444,left,1,1,0.5290585617549368,D06D03,2023-01-26_16h05.37.288,t1_Paradigm,2021.1.4,60.01644239661159,
R,left,Lure,0,34,34,34,444.8286644886357,446.8309726586922,left,1,1,0.5639063155649637,D06D03,2023-01-26_16h05.37.288,t1_Paradigm,2021.1.4,60.01644239661159,
P,left,Pretarget,0,35,35,35,448.3286664134466,450.3299021425719,left,1,1,0.5694873071497568,D06D03,2023-01-26_16h05.37.288,t1_Paradigm,2021.1.4,60.01644239661159,
P,right,Target,0,36,36,36,451.8276372807795,453.8286952856233,right,1,1,0.5423025496056653,D06D03,2023-01-26_16h05.37.288,t1_Paradigm,2021.1.4,60.01644239661159,
Y,left,Pretarget,0,37,37,37,455.3284893307682,457.32972056866674,left,1,1,0.6889071175683057,D06D03,2023-01-26_16h05.37.288,t1_Paradigm,2021.1.4,60.01644239661159,
Y,right,Target,0,38,38,38,458.8284764986911,460.8285666440406,right,1,1,0.47026871654816205,D06D03,2023-01-26_16h05.37.288,t1_Paradigm,2021.1.4,60.01644239661159,
J,left,Distractor,0,39,39,39,462.32849959643136,464.33055529534977,left,1,1,0.6485207180321595,D06D03,2023-01-26_16h05.37.288,t1_Paradigm,2021.1.4,60.01644239661159,
Y,left,Lure,0,40,40,40,465.82849670921314,467.83053283921254,left,1,1,0.6205057250317623,D06D03,2023-01-26_16h05.37.288,t1_Paradigm,2021.1.4,60.01644239661159,
T,left,Distractor,0,41,41,41,469.32852686459773,471.34114079741084,left,1,1,0.5339302602205862,D06D03,2023-01-26_16h05.37.288,t1_Paradigm,2021.1.4,60.01644239661159,
V,left,Distractor,0,42,42,42,472.82858813777057,474.8303855911163,left,1,1,0.5165004484806559,D06D03,2023-01-26_16h05.37.288,t1_Paradigm,2021.1.4,60.01644239661159,
N,left,Pretarget,0,43,43,43,476.3286227843819,478.3312353954916,left,1,1,0.5679009414889151,D06D03,2023-01-26_16h05.37.288,t1_Paradigm,2021.1.4,60.01644239661159,
N,right,Target,0,44,44,44,479.82843190721906,481.8287029848707,right,1,1,0.5583153791176301,D06D03,2023-01-26_16h05.37.288,t1_Paradigm,2021.1.4,60.01644239661159,
N,right,Target,0,45,45,45,483.32845660896965,485.32845083453503,right,1,1,0.6107369847431983,D06D03,2023-01-26_16h05.37.288,t1_Paradigm,2021.1.4,60.01644239661159,
X,left,Distractor,0,46,46,46,486.8285377718639,488.82794268424004,left,1,1,0.48698442313980195,D06D03,2023-01-26_16h05.37.288,t1_Paradigm,2021.1.4,60.01644239661159,
Z,left,Distractor,0,47,47,47,490.32772582211874,492.33090176145924,left,1,1,0.5199856409053609,D06D03,2023-01-26_16h05.37.288,t1_Paradigm,2021.1.4,60.01644239661159,
H,left,Pretarget,0,48,48,48,493.828524939785,495.8300019119797,left,1,1,0.6369086497179524,D06D03,2023-01-26_16h05.37.288,t1_Paradigm,2021.1.4,60.01644239661159,
H,right,Target,0,49,49,49,497.32848131072024,499.3285515663483,right,1,1,0.43433504812674073,D06D03,2023-01-26_16h05.37.288,t1_Paradigm,2021.1.4,60.01644239661159,
K,left,Distractor,0,50,50,50,500.82858396734446,502.83023192698056,left,1,1,0.42077025832259096,D06D03,2023-01-26_16h05.37.288,t1_Paradigm,2021.1.4,60.01644239661159,
V,left,Pretarget,0,51,51,51,504.3284463433065,506.32982867892497,left,1,1,0.4890965832018992,D06D03,2023-01-26_16h05.37.288,t1_Paradigm,2021.1.4,60.01644239661159,
V,right,Target,0,52,52,52,507.8286580725962,509.8285929497997,right,1,1,0.6063859478472295,D06D03,2023-01-26_16h05.37.288,t1_Paradigm,2021.1.4,60.01644239661159,
R,left,Distractor,0,53,53,53,511.32856022800115,513.330475094861,left,1,1,0.4965911584422429,D06D03,2023-01-26_16h05.37.288,t1_Paradigm,2021.1.4,60.01644239661159,
V,left,Lure,0,54,54,54,514.8276433760184,516.8307468141156,left,1,1,0.5642906363045768,D06D03,2023-01-26_16h05.37.288,t1_Paradigm,2021.1.4,60.01644239661159,
Y,left,Distractor,0,55,55,55,518.328478423502,520.3274306843232,left,1,1,0.5074660238642537,D06D03,2023-01-26_16h05.37.288,t1_Paradigm,2021.1.4,60.01644239661159,
Q,left,Distractor,0,56,56,56,521.8286240675898,523.8414587121479,left,1,1,0.5135654314071871,D06D03,2023-01-26_16h05.37.288,t1_Paradigm,2021.1.4,60.01644239661159,
Z,left,Pretarget,0,57,57,57,525.3285008796393,527.3306544231527,left,1,1,0.4482629857429856,D06D03,2023-01-26_16h05.37.288,t1_Paradigm,2021.1.4,60.01644239661159,
Z,right,Target,0,58,58,58,528.8284938219967,530.8283080776655,right,1,1,0.502552941947215,D06D03,2023-01-26_16h05.37.288,t1_Paradigm,2021.1.4,60.01644239661159,
B,left,Distractor,0,59,59,59,532.3285047292629,534.3303089194487,left,1,1,0.3765862052587181,D06D03,2023-01-26_16h05.37.288,t1_Paradigm,2021.1.4,60.01644239661159,
S,left,Pretarget,0,60,60,60,535.8285239773795,537.8275092808017,left,1,1,0.39955177551019005,D06D03,2023-01-26_16h05.37.288,t1_Paradigm,2021.1.4,60.01644239661159,
S,right,Target,0,61,61,61,539.3284181127347,541.328574984891,right,1,1,0.578301020022991,D06D03,2023-01-26_16h05.37.288,t1_Paradigm,2021.1.4,60.01644239661159,
T,left,Distractor,0,62,62,62,542.8286041778683,544.8307657414316,left,1,1,0.6283211022237083,D06D03,2023-01-26_16h05.37.288,t1_Paradigm,2021.1.4,60.01644239661159,
D,left,Distractor,0,63,63,63,546.3284264535869,548.3313252200387,left,1,1,0.5035929818786826,D06D03,2023-01-26_16h05.37.288,t1_Paradigm,2021.1.4,60.01644239661159,
R,left,Distractor,0,0,0,0,572.5571646625103,574.5470834611206,None,0,1,,D06D03,2023-01-26_16h05.37.288,t1_Paradigm,2021.1.4,60.01644239661159,
V,left,Distractor,0,1,1,1,576.0451249651942,578.0471883633581,left,1,1,0.45198653401712363,D06D03,2023-01-26_16h05.37.288,t1_Paradigm,2021.1.4,60.01644239661159,
N,left,Pretarget,0,2,2,2,579.5451628198243,581.5474857467689,left,1,1,0.5674316082313453,D06D03,2023-01-26_16h05.37.288,t1_Paradigm,2021.1.4,60.01644239661159,
N,right,Target,0,3,3,3,583.0452455867271,585.0450595215952,right,1,1,0.5579204719124391,D06D03,2023-01-26_16h05.37.288,t1_Paradigm,2021.1.4,60.01644239661159,
S,left,Distractor,0,4,4,4,586.5450819777325,588.5470468896965,left,1,1,0.44791395321772143,D06D03,2023-01-26_16h05.37.288,t1_Paradigm,2021.1.4,60.01644239661159,
N,left,Lure,0,5,5,5,590.0452850453676,592.0466580777302,left,1,1,0.3882573011323984,D06D03,2023-01-26_16h05.37.288,t1_Paradigm,2021.1.4,60.01644239661159,
Z,left,Distractor,0,6,6,6,593.5450967346223,595.5475768545239,left,1,1,0.599297187080083,D06D03,2023-01-26_16h05.37.288,t1_Paradigm,2021.1.4,60.01644239661159,
L,left,Pretarget,0,7,7,7,597.0450543887637,599.0465894261106,left,1,1,0.5883135697931721,D06D03,2023-01-26_16h05.37.288,t1_Paradigm,2021.1.4,60.01644239661159,
L,right,Target,0,8,8,8,600.5441689753716,602.5450803737222,right,1,1,0.5459378773430217,D06D03,2023-01-26_16h05.37.288,t1_Paradigm,2021.1.4,60.01644239661159,
H,left,Distractor,0,9,9,9,604.0451721230802,606.0468993207978,left,1,1,0.37205680247643613,D06D03,2023-01-26_16h05.37.288,t1_Paradigm,2021.1.4,60.01644239661159,
L,left,Lure,0,10,10,10,607.5450720328718,609.5457155615895,left,1,1,0.44127495678731066,D06D03,2023-01-26_16h05.37.288,t1_Paradigm,2021.1.4,60.01644239661159,
X,left,Pretarget,0,11,11,11,611.0451188699572,613.0471684736367,left,1,1,0.5238484172277822,D06D03,2023-01-26_16h05.37.288,t1_Paradigm,2021.1.4,60.01644239661159,
X,right,Target,0,12,12,12,614.5451397220841,616.5451406844895,right,1,1,0.5460645941147959,D06D03,2023-01-26_16h05.37.288,t1_Paradigm,2021.1.4,60.01644239661159,
X,right,Target,0,13,13,13,618.0451044338679,620.0451795015251,right,1,1,0.5659318590987823,D06D03,2023-01-26_16h05.37.288,t1_Paradigm,2021.1.4,60.01644239661159,
R,left,Distractor,0,14,14,14,621.5451865591676,623.5472291052065,left,1,1,0.47141173390809854,D06D03,2023-01-26_16h05.37.288,t1_Paradigm,2021.1.4,60.01644239661159,
T,left,Distractor,0,15,15,15,625.0451323436391,627.0470253959666,left,1,1,0.49196936469707,D06D03,2023-01-26_16h05.37.288,t1_Paradigm,2021.1.4,60.01644239661159,
V,left,Pretarget,0,16,16,16,628.5450386694683,630.5470353408273,left,1,1,0.5921715340882656,D06D03,2023-01-26_16h05.37.288,t1_Paradigm,2021.1.4,60.01644239661159,
V,right,Target,0,17,17,17,632.0452119025231,634.0451134163231,right,1,1,0.5499671498782845,D06D03,2023-01-26_16h05.37.288,t1_Paradigm,2021.1.4,60.01644239661159,
N,left,Distractor,0,18,18,18,635.5452526443714,637.5470982180104,left,1,1,0.45631800199407735,D06D03,2023-01-26_16h05.37.288,t1_Paradigm,2021.1.4,60.01644239661159,
B,left,Distractor,0,19,19,19,639.0451965040284,641.0469147192925,left,1,1,0.5400126652602921,D06D03,2023-01-26_16h05.37.288,t1_Paradigm,2021.1.4,60.01644239661159,
V,left,Lure,0,20,20,20,642.5441420280076,644.5469663684071,left,1,1,0.5922767571282748,D06D03,2023-01-26_16h05.37.288,t1_Paradigm,2021.1.4,60.01644239661159,
P,left,Distractor,0,21,21,21,646.0452298674318,648.0610691430866,left,1,1,0.5499940972440527,D06D03,2023-01-26_16h05.37.288,t1_Paradigm,2021.1.4,60.01644239661159,
K,left,Pretarget,0,22,22,22,649.5451868799701,651.5442161332594,left,1,1,0.5545459561635653,D06D03,2023-01-26_16h05.37.288,t1_Paradigm,2021.1.4,60.01644239661159,
K,right,Target,0,23,23,23,653.0450688248511,655.0451195115602,right,1,1,0.4939108581202163,D06D03,2023-01-26_16h05.37.288,t1_Paradigm,2021.1.4,60.01644239661159,
J,left,Pretarget,0,24,24,24,656.5451268900051,658.5441404239973,left,1,1,0.6109079721863964,D06D03,2023-01-26_16h05.37.288,t1_Paradigm,2021.1.4,60.01644239661159,
J,right,Target,0,25,25,25,660.0451519125581,662.0451374764689,right,1,1,0.4697326564837567,D06D03,2023-01-26_16h05.37.288,t1_Paradigm,2021.1.4,60.01644239661159,
H,left,Distractor,0,26,26,26,663.5450396318738,665.5458830202097,left,1,1,0.44110557335625344,D06D03,2023-01-26_16h05.37.288,t1_Paradigm,2021.1.4,60.01644239661159,
J,left,Lure,0,27,27,27,667.0448619075923,669.0468159122902,left,1,1,0.5401499684976443,D06D03,2023-01-26_16h05.37.288,t1_Paradigm,2021.1.4,60.01644239661159,
V,left,Distractor,0,28,28,28,670.5451426093005,672.5469994110081,left,1,1,0.48006536660614074,D06D03,2023-01-26_16h05.37.288,t1_Paradigm,2021.1.4,60.01644239661159,
Z,left,Pretarget,0,29,29,29,674.0450553511691,676.0469718220393,left,1,1,0.46791274700262875,D06D03,2023-01-26_16h05.37.288,t1_Paradigm,2021.1.4,60.01644239661159,
Z,right,Target,0,30,30,30,677.5451127747183,679.5450357822501,right,1,1,0.5857885376171907,D06D03,2023-01-26_16h05.37.288,t1_Paradigm,2021.1.4,60.01644239661159,
T,left,Distractor,0,31,31,31,681.0449238223682,683.0471813057156,left,1,1,0.4756540189428051,D06D03,2023-01-26_16h05.37.288,t1_Paradigm,2021.1.4,60.01644239661159,
Z,left,Lure,0,32,32,32,684.5448468299,686.5475835913658,left,1,1,0.5115013916383759,D06D03,2023-01-26_16h05.37.288,t1_Paradigm,2021.1.4,60.01644239661159,
F,left,Distractor,0,33,33,33,688.0452080528994,690.0441144390388,left,1,1,0.598957457810684,D06D03,2023-01-26_16h05.37.288,t1_Paradigm,2021.1.4,60.01644239661159,
Y,left,Pretarget,0,34,34,34,691.5450787697118,693.5474190199639,left,1,1,0.6637222394019773,D06D03,2023-01-26_16h05.37.288,t1_Paradigm,2021.1.4,60.01644239661159,
Y,right,Target,0,35,35,35,695.0450592007928,697.0448638324033,right,1,1,0.4779503193258279,D06D03,2023-01-26_16h05.37.288,t1_Paradigm,2021.1.4,60.01644239661159,
Y,right,Target,0,36,36,36,698.5449180479336,700.5450357822501,right,1,1,0.46626318335620454,D06D03,2023-01-26_16h05.37.288,t1_Paradigm,2021.1.4,60.01644239661159,
W,left,Distractor,0,37,37,37,702.0450649752274,704.0471107292851,left,1,1,0.4677603660729801,D06D03,2023-01-26_16h05.37.288,t1_Paradigm,2021.1.4,60.01644239661159,
Q,left,Distractor,0,38,38,38,705.5450428398926,707.5459269700768,left,1,1,0.5528113799991843,D06D03,2023-01-26_16h05.37.288,t1_Paradigm,2021.1.4,60.01644239661159,
P,left,Pretarget,0,39,39,39,709.0442706695903,711.046537776996,left,1,1,0.5563844721582427,D06D03,2023-01-26_16h05.37.288,t1_Paradigm,2021.1.4,60.01644239661159,
P,right,Target,0,40,40,40,712.5448307898023,714.5450325742313,right,1,1,0.5778695413937385,D06D03,2023-01-26_16h05.37.288,t1_Paradigm,2021.1.4,60.01644239661159,
J,left,Distractor,0,41,41,41,716.0449488449212,718.0477449547489,left,1,1,0.43505717332482163,D06D03,2023-01-26_16h05.37.288,t1_Paradigm,2021.1.4,60.01644239661159,
P,left,Lure,0,42,42,42,719.5451538373691,721.5471155413161,left,1,1,1.0157122380824148,D06D03,2023-01-26_16h05.37.288,t1_Paradigm,2021.1.4,60.01644239661159,
L,left,Distractor,0,43,43,43,723.0451547997745,725.0460312307114,left,1,1,0.5888425722150714,D06D03,2023-01-26_16h05.37.288,t1_Paradigm,2021.1.4,60.01644239661159,
Z,left,Distractor,0,44,44,44,726.5450592007928,728.5469942781765,left,1,1,0.5599011031736154,D06D03,2023-01-26_16h05.37.288,t1_Paradigm,2021.1.4,60.01644239661159,
F,left,Pretarget,0,45,45,45,730.0441314415439,732.0471662280233,left,1,1,0.49966829078039154,D06D03,2023-01-26_16h05.37.288,t1_Paradigm,2021.1.4,60.01644239661159,
F,right,Target,0,46,46,46,733.5450627296141,735.5450136469153,right,1,1,0.4099553828655189,D06D03,2023-01-26_16h05.37.288,t1_Paradigm,2021.1.4,60.01644239661159,
G,left,Pretarget,0,47,47,47,737.0451907295937,739.0441853362718,left,1,1,0.3988553144681646,D06D03,2023-01-26_16h05.37.288,t1_Paradigm,2021.1.4,60.01644239661159,
G,right,Target,0,48,48,48,740.5448625491954,742.5451798223276,right,1,1,0.4336478903423995,D06D03,2023-01-26_16h05.37.288,t1_Paradigm,2021.1.4,60.01644239661159,
V,left,Distractor,0,49,49,49,744.0450611256038,746.0468803934837,left,1,1,0.49997112782511977,D06D03,2023-01-26_16h05.37.288,t1_Paradigm,2021.1.4,60.01644239661159,
G,left,Lure,0,50,50,50,747.5449138775075,749.5475726840996,left,1,1,0.5832266132165387,D06D03,2023-01-26_16h05.37.288,t1_Paradigm,2021.1.4,60.01644239661159,
Q,left,Pretarget,0,51,51,51,751.0449693762457,753.0467459774645,left,1,1,0.5881416199463274,D06D03,2023-01-26_16h05.37.288,t1_Paradigm,2021.1.4,60.01644239661159,
Q,right,Target,0,52,52,52,754.5450434814975,756.5450967346223,right,1,1,0.4656183714287181,D06D03,2023-01-26_16h05.37.288,t1_Paradigm,2021.1.4,60.01644239661159,
Y,left,Distractor,0,53,53,53,758.045095130612,760.0456199626078,left,1,1,0.42125306526213535,D06D03,2023-01-26_16h05.37.288,t1_Paradigm,2021.1.4,60.01644239661159,
V,left,Distractor,0,54,54,54,761.5450322534289,763.5471094460772,left,1,1,0.47151118251349544,D06D03,2023-01-26_16h05.37.288,t1_Paradigm,2021.1.4,60.01644239661159,
B,left,Distractor,0,55,55,55,765.0451487045375,767.0456937470572,left,1,1,0.5891983415822324,D06D03,2023-01-26_16h05.37.288,t1_Paradigm,2021.1.4,60.01644239661159,
J,left,Pretarget,0,56,56,56,768.5450146093208,770.5474119623195,left,1,1,0.511565552029424,D06D03,2023-01-26_16h05.37.288,t1_Paradigm,2021.1.4,60.01644239661159,
J,right,Target,0,57,57,57,772.0451823887433,774.0451663486456,right,1,1,0.4856498870140058,D06D03,2023-01-26_16h05.37.288,t1_Paradigm,2021.1.4,60.01644239661159,
H,left,Distractor,0,58,58,58,775.5450803737222,777.5471800225077,left,1,1,0.47144285169815703,D06D03,2023-01-26_16h05.37.288,t1_Paradigm,2021.1.4,60.01644239661159,
J,left,Lure,0,59,59,59,779.0451268900051,781.0468749398497,left,1,1,0.5879934094446071,D06D03,2023-01-26_16h05.37.288,t1_Paradigm,2021.1.4,60.01644239661159,
D,left,Pretarget,0,60,60,60,782.5451429301029,784.5577985671698,left,1,1,0.4533723984568496,D06D03,2023-01-26_16h05.37.288,t1_Paradigm,2021.1.4,60.01644239661159,
D,right,Target,0,61,61,61,786.0450893561774,788.045056634377,right,1,1,0.6139587987618143,D06D03,2023-01-26_16h05.37.288,t1_Paradigm,2021.1.4,60.01644239661159,
R,left,Distractor,0,62,62,62,789.5451143787286,791.5463616567249,left,1,1,0.45661666861269623,D06D03,2023-01-26_16h05.37.288,t1_Paradigm,2021.1.4,60.01644239661159,
F,left,Distractor,0,63,63,63,793.045055992774,795.046793456153,left,1,1,0.49231839722233417,D06D03,2023-01-26_16h05.37.288,t1_Paradigm,2021.1.4,60.01644239661159,
F,left,Distractor,0,0,0,0,936.6755498866296,938.677398347485,None,0,2,,D06D03,2023-01-26_16h05.37.288,t1_Paradigm,2021.1.4,60.01644239661159,
N,left,Pretarget,0,1,1,1,940.1784066280252,942.1796802117806,None,0,2,,D06D03,2023-01-26_16h05.37.288,t1_Paradigm,2021.1.4,60.01644239661159,
V,left,Distractor,0,2,2,2,943.6783591493368,945.6809547579433,left,1,2,0.5940969874136499,D06D03,2023-01-26_16h05.37.288,t1_Paradigm,2021.1.4,60.01644239661159,
N,right,Target,0,3,3,3,947.1784425578444,949.1800687029463,None,0,2,,D06D03,2023-01-26_16h05.37.288,t1_Paradigm,2021.1.4,60.01644239661159,
N,left,Lure,0,4,4,4,950.6783052546089,952.6784906781377,left,1,2,0.7805467620182753,D06D03,2023-01-26_16h05.37.288,t1_Paradigm,2021.1.4,60.01644239661159,
X,left,Distractor,0,5,5,5,954.1784255553412,956.1804793294468,None,0,2,,D06D03,2023-01-26_16h05.37.288,t1_Paradigm,2021.1.4,60.01644239661159,
G,left,Pretarget,0,6,6,6,957.6781137358412,959.6804857454863,left,1,2,0.5945034434880654,D06D03,2023-01-26_16h05.37.288,t1_Paradigm,2021.1.4,60.01644239661159,
H,left,Pretarget,0,7,7,7,961.1784181768962,963.1798868082387,None,0,2,,D06D03,2023-01-26_16h05.37.288,t1_Paradigm,2021.1.4,60.01644239661159,
G,right,Target,0,8,8,8,964.6783187282908,966.6801537154643,right,1,2,0.8266463235449919,D06D03,2023-01-26_16h05.37.288,t1_Paradigm,2021.1.4,60.01644239661159,
H,right,Target,0,9,9,9,968.1784005327881,970.1794466679585,None,0,2,,D06D03,2023-01-26_16h05.37.288,t1_Paradigm,2021.1.4,60.01644239661159,
T,left,Pretarget,0,10,10,10,971.6783777558503,973.6803567831012,left,1,2,0.8504520741134911,D06D03,2023-01-26_16h05.37.288,t1_Paradigm,2021.1.4,60.01644239661159,
K,left,Distractor,0,11,11,11,975.1783851342952,977.1802544472775,None,0,2,,D06D03,2023-01-26_16h05.37.288,t1_Paradigm,2021.1.4,60.01644239661159,
T,right,Target,0,12,12,12,978.6783139162617,980.6804267179268,right,1,2,0.5543881216017326,D06D03,2023-01-26_16h05.37.288,t1_Paradigm,2021.1.4,60.01644239661159,
T,left,Lure,0,13,13,13,982.1783113498459,984.1784005327881,None,0,2,,D06D03,2023-01-26_16h05.37.288,t1_Paradigm,2021.1.4,60.01644239661159,
J,left,Distractor,0,14,14,14,985.6783476004657,987.6804677805776,left,1,2,1.042350028294095,D06D03,2023-01-26_16h05.37.288,t1_Paradigm,2021.1.4,60.01644239661159,
Q,left,Pretarget,0,15,15,15,989.1779478812314,991.1805319409668,None,0,2,,D06D03,2023-01-26_16h05.37.288,t1_Paradigm,2021.1.4,60.01644239661159,
M,left,Distractor,0,16,16,16,992.678421384915,994.6809589283675,left,1,2,0.7460605520100216,D06D03,2023-01-26_16h05.37.288,t1_Paradigm,2021.1.4,60.01644239661159,
Q,right,Target,0,17,17,17,996.1784380666177,998.1802833194542,None,0,2,,D06D03,2023-01-26_16h05.37.288,t1_Paradigm,2021.1.4,60.01644239661159,
R,left,Distractor,0,18,18,18,999.6783482420706,1001.6803016051654,left,1,2,0.5627142155044567,D06D03,2023-01-26_16h05.37.288,t1_Paradigm,2021.1.4,60.01644239661159,
W,left,Distractor,0,19,19,19,1003.1783328435758,1005.1805595299356,None,0,2,,D06D03,2023-01-26_16h05.37.288,t1_Paradigm,2021.1.4,60.01644239661159,
C,left,Pretarget,0,20,20,20,1006.6784926029486,1008.6808950887789,left,1,2,0.5700496729750739,D06D03,2023-01-26_16h05.37.288,t1_Paradigm,2021.1.4,60.01644239661159,
T,left,Distractor,0,21,21,21,1010.1782940265402,1012.1797225576393,None,0,2,,D06D03,2023-01-26_16h05.37.288,t1_Paradigm,2021.1.4,60.01644239661159,
C,right,Target,0,22,22,22,1013.678310066638,1015.680249314446,right,1,2,0.5309317243609257,D06D03,2023-01-26_16h05.37.288,t1_Paradigm,2021.1.4,60.01644239661159,
F,left,Pretarget,0,23,23,23,1017.1783206531018,1019.1805406026197,None,0,2,,D06D03,2023-01-26_16h05.37.288,t1_Paradigm,2021.1.4,60.01644239661159,
C,right,Target,0,24,24,24,1020.6784085528379,1022.6912489718306,right,1,2,0.6075655366312276,D06D03,2023-01-26_16h05.37.288,t1_Paradigm,2021.1.4,60.01644239661159,
F,right,Target,0,25,25,25,1024.1783257859333,1026.1805653043702,None,0,2,,D06D03,2023-01-26_16h05.37.288,t1_Paradigm,2021.1.4,60.01644239661159,
H,left,Distractor,0,26,26,26,1027.6783844926904,1029.6804613645381,left,1,2,0.6104142579788459,D06D03,2023-01-26_16h05.37.288,t1_Paradigm,2021.1.4,60.01644239661159,
H,left,Lure,0,27,27,27,1031.1782818360662,1033.178075239608,None,0,2,,D06D03,2023-01-26_16h05.37.288,t1_Paradigm,2021.1.4,60.01644239661159,
P,left,Distractor,0,28,28,28,1034.678380322266,1036.6804568733114,left,1,2,0.5704670363156765,D06D03,2023-01-26_16h05.37.288,t1_Paradigm,2021.1.4,60.01644239661159,
G,left,Pretarget,0,29,29,29,1038.1783825678795,1040.1791592294085,None,0,2,,D06D03,2023-01-26_16h05.37.288,t1_Paradigm,2021.1.4,60.01644239661159,
K,left,Distractor,0,30,30,30,1041.67840726963,1043.680712873269,left,1,2,0.4500424741781899,D06D03,2023-01-26_16h05.37.288,t1_Paradigm,2021.1.4,60.01644239661159,
G,right,Target,0,31,31,31,1045.178329635557,1047.180256692891,None,0,2,,D06D03,2023-01-26_16h05.37.288,t1_Paradigm,2021.1.4,60.01644239661159,
M,left,Pretarget,0,32,32,32,1048.6784775252563,1050.6808488932984,left,1,2,0.5539880815667857,D06D03,2023-01-26_16h05.37.288,t1_Paradigm,2021.1.4,60.01644239661159,
B,left,Distractor,0,33,33,33,1052.1783556205155,1054.1802849234628,None,0,2,,D06D03,2023-01-26_16h05.37.288,t1_Paradigm,2021.1.4,60.01644239661159,
M,right,Target,0,34,34,34,1055.678245906247,1057.6797456553795,right,1,2,0.531353899732494,D06D03,2023-01-26_16h05.37.288,t1_Paradigm,2021.1.4,60.01644239661159,
M,left,Lure,0,35,35,35,1059.1783719814139,1061.1784101568464,None,0,2,,D06D03,2023-01-26_16h05.37.288,t1_Paradigm,2021.1.4,60.01644239661159,
T,left,Distractor,0,36,36,36,1062.6783408636256,1064.6801896452835,left,1,2,0.4747150316234183,D06D03,2023-01-26_16h05.37.288,t1_Paradigm,2021.1.4,60.01644239661159,
F,left,Distractor,0,37,37,37,1066.1784431994474,1068.1806054046156,None,0,2,,D06D03,2023-01-26_16h05.37.288,t1_Paradigm,2021.1.4,60.01644239661159,
X,left,Distractor,0,38,38,38,1069.6783697358005,1071.6802374447743,left,1,2,0.40260420609774883,D06D03,2023-01-26_16h05.37.288,t1_Paradigm,2021.1.4,60.01644239661159,
C,left,Distractor,0,39,39,39,1073.178378076651,1075.1805168632764,None,0,2,,D06D03,2023-01-26_16h05.37.288,t1_Paradigm,2021.1.4,60.01644239661159,
R,left,Distractor,0,40,40,40,1076.6779947183168,1078.6798197606313,left,1,2,0.7951689150613674,D06D03,2023-01-26_16h05.37.288,t1_Paradigm,2021.1.4,60.01644239661159,
B,left,Pretarget,0,41,41,41,1080.1783219363097,1082.1807834496994,None,0,2,,D06D03,2023-01-26_16h05.37.288,t1_Paradigm,2021.1.4,60.01644239661159,
H,left,Distractor,0,42,42,42,1083.6783206531018,1085.6807292341691,left,1,2,0.5140655616523873,D06D03,2023-01-26_16h05.37.288,t1_Paradigm,2021.1.4,60.01644239661159,
B,right,Target,0,43,43,43,1087.1783710190084,1089.1802477104375,None,0,2,,D06D03,2023-01-26_16h05.37.288,t1_Paradigm,2021.1.4,60.01644239661159,
W,left,Pretarget,0,44,44,44,1090.6783556205155,1092.6802188382608,left,1,2,0.44241476612842234,D06D03,2023-01-26_16h05.37.288,t1_Paradigm,2021.1.4,60.01644239661159,
L,left,Pretarget,0,45,45,45,1094.1783065378168,1096.1802242918948,None,0,2,,D06D03,2023-01-26_16h05.37.288,t1_Paradigm,2021.1.4,60.01644239661159,
W,right,Target,0,46,46,46,1097.6783546581082,1099.680195419718,right,1,2,0.3866260231989145,D06D03,2023-01-26_16h05.37.288,t1_Paradigm,2021.1.4,60.01644239661159,
L,right,Target,0,47,47,47,1101.1782619463447,1103.1807298757722,None,0,2,,D06D03,2023-01-26_16h05.37.288,t1_Paradigm,2021.1.4,60.01644239661159,
W,right,Target,0,48,48,48,1104.6782895353117,1106.6808905975522,right,1,2,0.5859271240624366,D06D03,2023-01-26_16h05.37.288,t1_Paradigm,2021.1.4,60.01644239661159,
X,left,Distractor,0,49,49,49,1108.1782998009749,1110.180109765597,None,0,2,,D06D03,2023-01-26_16h05.37.288,t1_Paradigm,2021.1.4,60.01644239661159,
R,left,Distractor,0,50,50,50,1111.678305896212,1113.68028588587,left,1,2,0.6105640724908881,D06D03,2023-01-26_16h05.37.288,t1_Paradigm,2021.1.4,60.01644239661159,
V,left,Pretarget,0,51,51,51,1115.1784829788903,1117.1798332343133,None,0,2,,D06D03,2023-01-26_16h05.37.288,t1_Paradigm,2021.1.4,60.01644239661159,
Z,left,Distractor,0,52,52,52,1118.6782215252988,1120.6790719712772,left,1,2,0.5718054220651538,D06D03,2023-01-26_16h05.37.288,t1_Paradigm,2021.1.4,60.01644239661159,
V,right,Target,0,53,53,53,1122.1782895353117,1124.1803333645585,None,0,2,,D06D03,2023-01-26_16h05.37.288,t1_Paradigm,2021.1.4,60.01644239661159,
V,left,Lure,0,54,54,54,1125.6783023673906,1127.6783665277817,left,1,2,0.5646040598130639,D06D03,2023-01-26_16h05.37.288,t1_Paradigm,2021.1.4,60.01644239661159,
N,left,Distractor,0,55,55,55,1129.1783783974533,1131.1804716302013,None,0,2,,D06D03,2023-01-26_16h05.37.288,t1_Paradigm,2021.1.4,60.01644239661159,
B,left,Distractor,0,56,56,56,1132.6784130440647,1134.6802265375081,left,1,2,0.5226912845810148,D06D03,2023-01-26_16h05.37.288,t1_Paradigm,2021.1.4,60.01644239661159,
V,left,Lure,0,57,57,57,1136.1783549789106,1138.1801877204707,None,0,2,,D06D03,2023-01-26_16h05.37.288,t1_Paradigm,2021.1.4,60.01644239661159,
J,left,Distractor,0,58,58,58,1139.6782462270494,1141.6801591690983,left,1,2,0.46659874219949415,D06D03,2023-01-26_16h05.37.288,t1_Paradigm,2021.1.4,60.01644239661159,
H,left,Distractor,0,59,59,59,1143.1780652947473,1145.1803420262113,None,0,2,,D06D03,2023-01-26_16h05.37.288,t1_Paradigm,2021.1.4,60.01644239661159,
X,left,Pretarget,0,60,60,60,1146.678369414998,1148.6775504076122,left,1,2,0.4933773644697794,D06D03,2023-01-26_16h05.37.288,t1_Paradigm,2021.1.4,60.01644239661159,
P,left,Distractor,0,61,61,61,1150.1782510390785,1152.1802076101922,None,0,2,,D06D03,2023-01-26_16h05.37.288,t1_Paradigm,2021.1.4,60.01644239661159,
X,right,Target,0,62,62,62,1153.6782888937087,1155.6788130841014,right,1,2,0.6279887513992435,D06D03,2023-01-26_16h05.37.288,t1_Paradigm,2021.1.4,60.01644239661159,
Q,left,Distractor,0,63,63,63,1157.178297234559,1159.1802146678365,None,0,2,,D06D03,2023-01-26_16h05.37.288,t1_Paradigm,2021.1.4,60.01644239661159,
B,left,Pretarget,0,0,0,0,1248.2066413703633,1250.1966111764832,None,0,2,,D06D03,2023-01-26_16h05.37.288,t1_Paradigm,2021.1.4,60.01644239661159,
F,left,Distractor,0,1,1,1,1251.695026094032,1253.6968524195527,left,1,2,0.9939727728960861,D06D03,2023-01-26_16h05.37.288,t1_Paradigm,2021.1.4,60.01644239661159,
B,right,Target,0,2,2,2,1255.1949872769947,1257.1968395874756,right,1,2,0.46995368903117196,D06D03,2023-01-26_16h05.37.288,t1_Paradigm,2021.1.4,60.01644239661159,
V,left,Distractor,0,3,3,3,1258.694976048926,1260.6963442692577,left,1,2,0.6024683143914444,D06D03,2023-01-26_16h05.37.288,t1_Paradigm,2021.1.4,60.01644239661159,
G,left,Pretarget,0,4,4,4,1262.195134525091,1264.196795316806,left,1,2,0.5901161559704633,D06D03,2023-01-26_16h05.37.288,t1_Paradigm,2021.1.4,60.01644239661159,
B,left,Lure,0,5,5,5,1265.6950507957808,1267.696912088717,left,1,2,0.7059840471592906,D06D03,2023-01-26_16h05.37.288,t1_Paradigm,2021.1.4,60.01644239661159,
G,right,Target,0,6,6,6,1269.1949375526929,1271.1963766702556,right,1,2,0.694481372313021,D06D03,2023-01-26_16h05.37.288,t1_Paradigm,2021.1.4,60.01644239661159,
Y,left,Pretarget,0,7,7,7,1272.6950629862567,1274.6976194570234,left,1,2,0.6331219034600508,D06D03,2023-01-26_16h05.37.288,t1_Paradigm,2021.1.4,60.01644239661159,
P,left,Distractor,0,8,8,8,1276.1949920890238,1278.1957511064466,left,1,2,0.9269748889055336,D06D03,2023-01-26_16h05.37.288,t1_Paradigm,2021.1.4,60.01644239661159,
Y,right,Target,0,9,9,9,1279.694675136694,1281.696875517293,right,1,2,0.4338708476989268,D06D03,2023-01-26_16h05.37.288,t1_Paradigm,2021.1.4,60.01644239661159,
X,left,Distractor,0,10,10,10,1283.1948932820233,1285.1951444699516,left,1,2,0.6316195879098814,D06D03,2023-01-26_16h05.37.288,t1_Paradigm,2021.1.4,60.01644239661159,
Y,right,Target,0,11,11,11,1286.6950001090736,1288.696782484727,left,0,2,0.6179851840824995,D06D03,2023-01-26_16h05.37.288,t1_Paradigm,2021.1.4,60.01644239661159,
N,left,Distractor,0,12,12,12,1290.1949882394001,1292.1969736826904,left,1,2,0.5578986573800648,D06D03,2023-01-26_16h05.37.288,t1_Paradigm,2021.1.4,60.01644239661159,
Y,right,Target,0,13,13,13,1293.6948980940524,1295.696834454644,right,1,2,0.5620944261299883,D06D03,2023-01-26_16h05.37.288,t1_Paradigm,2021.1.4,60.01644239661159,
Y,left,Lure,0,14,14,14,1297.19488301636,1299.1949616128386,left,1,2,0.6479926780157257,D06D03,2023-01-26_16h05.37.288,t1_Paradigm,2021.1.4,60.01644239661159,
K,left,Distractor,0,15,15,15,1300.6948137231375,1302.6967465549078,left,1,2,0.4900766331702471,D06D03,2023-01-26_16h05.37.288,t1_Paradigm,2021.1.4,60.01644239661159,
T,left,Pretarget,0,16,16,16,1304.1945756880887,1306.196698113814,left,1,2,0.7340291955442808,D06D03,2023-01-26_16h05.37.288,t1_Paradigm,2021.1.4,60.01644239661159,
J,left,Distractor,0,17,17,17,1307.6947585452017,1309.6968322090306,left,1,2,0.609941395900023,D06D03,2023-01-26_16h05.37.288,t1_Paradigm,2021.1.4,60.01644239661159,
T,right,Target,0,18,18,18,1311.1945185853401,1313.1973496625815,right,1,2,0.4215119524378679,D06D03,2023-01-26_16h05.37.288,t1_Paradigm,2021.1.4,60.01644239661159,
S,left,Pretarget,0,19,19,19,1314.6949016228737,1316.6966182341275,left,1,2,0.5381773572844395,D06D03,2023-01-26_16h05.37.288,t1_Paradigm,2021.1.4,60.01644239661159,
R,left,Distractor,0,20,20,20,1318.194982785768,1320.1951948358583,left,1,2,0.6396665841148206,D06D03,2023-01-26_16h05.37.288,t1_Paradigm,2021.1.4,60.01644239661159,
S,right,Target,0,21,21,21,1321.6950639486622,1323.6939366505976,right,1,2,0.4207564638400072,D06D03,2023-01-26_16h05.37.288,t1_Paradigm,2021.1.4,60.01644239661159,
Q,left,Distractor,0,22,22,22,1325.1945545151593,1327.1966432566787,left,1,2,0.6144640618404082,D06D03,2023-01-26_16h05.37.288,t1_Paradigm,2021.1.4,60.01644239661159,
D,left,Distractor,0,23,23,23,1328.6950094123295,1330.6967872967562,left,1,2,0.6980018529520748,D06D03,2023-01-26_16h05.37.288,t1_Paradigm,2021.1.4,60.01644239661159,
F,left,Distractor,0,24,24,24,1332.1950052419052,1334.1956577530782,left,1,2,0.607231902598869,D06D03,2023-01-26_16h05.37.288,t1_Paradigm,2021.1.4,60.01644239661159,
Z,left,Distractor,0,25,25,25,1335.694957763215,1337.6958592167048,left,1,2,0.5150757670053281,D06D03,2023-01-26_16h05.37.288,t1_Paradigm,2021.1.4,60.01644239661159,
P,left,Distractor,0,26,26,26,1339.1951489611802,1341.196442434657,left,1,2,0.6785019062062929,D06D03,2023-01-26_16h05.37.288,t1_Paradigm,2021.1.4,60.01644239661159,
H,left,Distractor,0,27,27,27,1342.6948705050836,1344.6971947152379,left,1,2,0.6334991665571579,D06D03,2023-01-26_16h05.37.288,t1_Paradigm,2021.1.4,60.01644239661159,
Z,left,Pretarget,0,28,28,28,1346.1949580840173,1348.1970439383185,left,1,2,0.6538254991355643,D06D03,2023-01-26_16h05.37.288,t1_Paradigm,2021.1.4,60.01644239661159,
J,left,Pretarget,0,29,29,29,1349.694963216849,1351.7078283375922,left,1,2,0.6630139086901181,D06D03,2023-01-26_16h05.37.288,t1_Paradigm,2021.1.4,60.01644239661159,
Z,right,Target,0,30,30,30,1353.19494364793,1355.1969300536257,left,0,2,0.9178281836066162,D06D03,2023-01-26_16h05.37.288,t1_Paradigm,2021.1.4,60.01644239661159,
J,right,Target,0,31,31,31,1356.6940851819018,1358.6967847303404,left,0,2,1.1302247410167183,D06D03,2023-01-26_16h05.37.288,t1_Paradigm,2021.1.4,60.01644239661159,
V,left,Pretarget,0,32,32,32,1360.194787738179,1362.1972781237455,left,1,2,1.2456351686196285,D06D03,2023-01-26_16h05.37.288,t1_Paradigm,2021.1.4,60.01644239661159,
Z,left,Lure,0,33,33,33,1363.6948409913039,1365.6970471463392,left,1,2,1.1377379227687925,D06D03,2023-01-26_16h05.37.288,t1_Paradigm,2021.1.4,60.01644239661159,
V,right,Target,0,34,34,34,1367.1949798985497,1369.1963952767692,right,1,2,0.7426314999283932,D06D03,2023-01-26_16h05.37.288,t1_Paradigm,2021.1.4,60.01644239661159,
X,left,Distractor,0,35,35,35,1370.6949725201048,1372.6966249709676,left,1,2,0.5542716704912891,D06D03,2023-01-26_16h05.37.288,t1_Paradigm,2021.1.4,60.01644239661159,
S,left,Distractor,0,36,36,36,1374.1950007506766,1376.1968386250683,left,1,2,0.6059968150784698,D06D03,2023-01-26_16h05.37.288,t1_Paradigm,2021.1.4,60.01644239661159,
Q,left,Distractor,0,37,37,37,1377.6949446103354,1379.6955162794166,left,1,2,0.6593410471232346,D06D03,2023-01-26_16h05.37.288,t1_Paradigm,2021.1.4,60.01644239661159,
P,left,Distractor,0,38,38,38,1381.1949529511858,1383.1967077378722,left,1,2,0.8700460158324859,D06D03,2023-01-26_16h05.37.288,t1_Paradigm,2021.1.4,60.01644239661159,
S,left,Lure,0,39,39,39,1384.6948974524475,1386.6967542541552,left,1,2,0.7301757224777248,D06D03,2023-01-26_16h05.37.288,t1_Paradigm,2021.1.4,60.01644239661159,
K,left,Pretarget,0,40,40,40,1388.1949292118406,1390.1966673168263,left,1,2,0.8462242251680436,D06D03,2023-01-26_16h05.37.288,t1_Paradigm,2021.1.4,60.01644239661159,
L,left,Distractor,0,41,41,41,1391.6949474975536,1393.6969217127753,left,1,2,0.7697947637407196,D06D03,2023-01-26_16h05.37.288,t1_Paradigm,2021.1.4,60.01644239661159,
K,right,Target,0,42,42,42,1395.1950392469116,1397.1965627353893,right,1,2,0.4222318320225895,D06D03,2023-01-26_16h05.37.288,t1_Paradigm,2021.1.4,60.01644239661159,
B,left,Distractor,0,43,43,43,1398.694857352204,1400.6967654822238,left,1,2,0.8901201980770566,D06D03,2023-01-26_16h05.37.288,t1_Paradigm,2021.1.4,60.01644239661159,
N,left,Distractor,0,44,44,44,1402.194963216849,1404.1966329910174,left,1,2,0.49414985557450564,D06D03,2023-01-26_16h05.37.288,t1_Paradigm,2021.1.4,60.01644239661159,
S,left,Pretarget,0,45,45,45,1405.6946700038625,1407.6973426049371,left,1,2,0.6575323657089029,D06D03,2023-01-26_16h05.37.288,t1_Paradigm,2021.1.4,60.01644239661159,
Z,left,Distractor,0,46,46,46,1409.1949022644767,1411.1963554973263,left,1,2,0.5823521070906281,D06D03,2023-01-26_16h05.37.288,t1_Paradigm,2021.1.4,60.01644239661159,
S,right,Target,0,47,47,47,1412.6949539135912,1414.6966098932753,right,1,2,0.4259345281698188,D06D03,2023-01-26_16h05.37.288,t1_Paradigm,2021.1.4,60.01644239661159,
C,left,Distractor,0,48,48,48,1416.1951066153215,1418.1968190561493,left,1,2,0.5740699630568997,D06D03,2023-01-26_16h05.37.288,t1_Paradigm,2021.1.4,60.01644239661159,
T,left,Pretarget,0,49,49,49,1419.6949420439196,1421.696617913325,left,1,2,0.578301020022991,D06D03,2023-01-26_16h05.37.288,t1_Paradigm,2021.1.4,60.01644239661159,
S,left,Lure,0,50,50,50,1423.1946311868269,1425.195159547644,left,1,2,0.6961428056310979,D06D03,2023-01-26_16h05.37.288,t1_Paradigm,2021.1.4,60.01644239661159,
T,right,Target,0,51,51,51,1426.6946430564985,1428.697221020997,right,1,2,0.6815472791495267,D06D03,2023-01-26_16h05.37.288,t1_Paradigm,2021.1.4,60.01644239661159,
N,left,Pretarget,0,52,52,52,1430.1944945251944,1432.1971048906908,left,1,2,0.6697276519735169,D06D03,2023-01-26_16h05.37.288,t1_Paradigm,2021.1.4,60.01644239661159,
B,left,Distractor,0,53,53,53,1433.6948551065907,1435.6967350060386,left,1,2,0.8339981419157994,D06D03,2023-01-26_16h05.37.288,t1_Paradigm,2021.1.4,60.01644239661159,
N,right,Target,0,54,54,54,1437.1949208709902,1439.1966721288554,right,1,2,0.40618050627563207,D06D03,2023-01-26_16h05.37.288,t1_Paradigm,2021.1.4,60.01644239661159,
N,left,Lure,0,55,55,55,1440.6949256830194,1442.694892319616,left,1,2,0.4759607056093955,D06D03,2023-01-26_16h05.37.288,t1_Paradigm,2021.1.4,60.01644239661159,
X,left,Distractor,0,56,56,56,1444.194865372252,1446.1969951764222,left,1,2,0.4618553645141219,D06D03,2023-01-26_16h05.37.288,t1_Paradigm,2021.1.4,60.01644239661159,
W,left,Distractor,0,57,57,57,1447.6949446103354,1449.6969723994844,left,1,2,0.625737363290682,D06D03,2023-01-26_16h05.37.288,t1_Paradigm,2021.1.4,60.01644239661159,
S,left,Distractor,0,58,58,58,1451.1948483697488,1453.1964770812665,left,1,2,1.0306551930771093,D06D03,2023-01-26_16h05.37.288,t1_Paradigm,2021.1.4,60.01644239661159,
L,left,Distractor,0,59,59,59,1454.6939943949492,1456.6968636476213,left,1,2,1.1780479714416288,D06D03,2023-01-26_16h05.37.288,t1_Paradigm,2021.1.4,60.01644239661159,
K,left,Pretarget,0,60,60,60,1458.1940027357996,1460.1971700134873,left,1,2,0.813666676503999,D06D03,2023-01-26_16h05.37.288,t1_Paradigm,2021.1.4,60.01644239661159,
V,left,Pretarget,0,61,61,61,1461.69506523187,1463.697090775404,left,1,2,0.929818477423396,D06D03,2023-01-26_16h05.37.288,t1_Paradigm,2021.1.4,60.01644239661159,
K,right,Target,0,62,62,62,1465.194793833416,1467.1964767604659,right,1,2,0.40637427065667,D06D03,2023-01-26_16h05.37.288,t1_Paradigm,2021.1.4,60.01644239661159,
V,right,Target,0,63,63,63,1468.6948563897986,1470.696756820571,right,1,2,0.6980031361599686,D06D03,2023-01-26_16h05.37.288,t1_Paradigm,2021.1.4,60.01644239661159,
R,left,Distractor,0,0,0,0,1558.976765597712,1560.9800528553296,None,0,3,,D06D03,2023-01-26_16h05.37.288,t1_Paradigm,2021.1.4,60.01644239661159,
P,left,Lure,0,1,1,1,1562.4782493067469,1564.479023401862,left,1,3,0.9159328856640059,D06D03,2023-01-26_16h05.37.288,t1_Paradigm,2021.1.4,60.01644239661159,
V,left,Distractor,0,2,2,2,1565.9782127353246,1567.9799655971983,left,1,3,1.2228547010945476,D06D03,2023-01-26_16h05.37.288,t1_Paradigm,2021.1.4,60.01644239661159,
P,left,Pretarget,0,3,3,3,1569.4782316626406,1571.48002334155,left,1,3,1.0346562350441673,D06D03,2023-01-26_16h05.37.288,t1_Paradigm,2021.1.4,60.01644239661159,
Z,left,Distractor,0,4,4,4,1572.9779445448912,1574.980079481893,left,1,3,0.8308744932946865,D06D03,2023-01-26_16h05.37.288,t1_Paradigm,2021.1.4,60.01644239661159,
L,left,Pretarget,0,5,5,5,1576.478096284216,1578.4802132563073,left,1,3,0.8664376354590786,D06D03,2023-01-26_16h05.37.288,t1_Paradigm,2021.1.4,60.01644239661159,
P,right,Target,0,6,6,6,1579.9782486651438,1581.979949877903,right,1,3,0.8068862064137647,D06D03,2023-01-26_16h05.37.288,t1_Paradigm,2021.1.4,60.01644239661159,
S,left,Distractor,0,7,7,7,1583.4781456877172,1585.480758298827,left,1,3,1.0339395634782704,D06D03,2023-01-26_16h05.37.288,t1_Paradigm,2021.1.4,60.01644239661159,
L,right,Target,0,8,8,8,1586.9780959634136,1588.979530910552,right,1,3,0.9594548034947366,D06D03,2023-01-26_16h05.37.288,t1_Paradigm,2021.1.4,60.01644239661159,
D,left,Distractor,0,9,9,9,1590.4779920235815,1592.4803245745843,left,1,3,1.3146030974057794,D06D03,2023-01-26_16h05.37.288,t1_Paradigm,2021.1.4,60.01644239661159,
G,left,Distractor,0,10,10,10,1593.9771605049173,1595.98039450941,left,1,3,1.0784880475603131,D06D03,2023-01-26_16h05.37.288,t1_Paradigm,2021.1.4,60.01644239661159,
M,left,Pretarget,0,11,11,11,1597.478169747863,1599.480139471858,left,1,3,0.8270223034360242,D06D03,2023-01-26_16h05.37.288,t1_Paradigm,2021.1.4,60.01644239661159,
Y,left,Distractor,0,12,12,12,1600.9777584797594,1602.9804907499965,left,1,3,0.7822072329290677,D06D03,2023-01-26_16h05.37.288,t1_Paradigm,2021.1.4,60.01644239661159,
V,left,Distractor,0,13,13,13,1604.4782079232955,1606.4771325951479,left,1,3,0.853659452044667,D06D03,2023-01-26_16h05.37.288,t1_Paradigm,2021.1.4,60.01644239661159,
M,right,Target,0,14,14,14,1607.9782486651438,1609.9804609154144,right,1,3,0.9182519629866874,D06D03,2023-01-26_16h05.37.288,t1_Paradigm,2021.1.4,60.01644239661159,
S,left,Pretarget,0,15,15,15,1611.4780702992575,1613.4798889255326,left,1,3,0.9708439144505974,D06D03,2023-01-26_16h05.37.288,t1_Paradigm,2021.1.4,60.01644239661159,
Q,left,Distractor,0,16,16,16,1614.9779127854981,1616.9801872713488,left,1,3,0.894671736194141,D06D03,2023-01-26_16h05.37.288,t1_Paradigm,2021.1.4,60.01644239661159,
R,left,Pretarget,0,17,17,17,1618.4781254771933,1620.4798029506092,left,1,3,1.026897318994088,D06D03,2023-01-26_16h05.37.288,t1_Paradigm,2021.1.4,60.01644239661159,
S,right,Target,0,18,18,18,1621.9781386300729,1623.9797503390873,right,1,3,0.7911017878923303,D06D03,2023-01-26_16h05.37.288,t1_Paradigm,2021.1.4,60.01644239661159,
F,left,Distractor,0,19,19,19,1625.4781411964887,1627.479935121013,left,1,3,0.874899428588833,D06D03,2023-01-26_16h05.37.288,t1_Paradigm,2021.1.4,60.01644239661159,
R,right,Target,0,20,20,20,1628.9781296476194,1630.9795876924982,left,0,3,0.7990881525256555,D06D03,2023-01-26_16h05.37.288,t1_Paradigm,2021.1.4,60.01644239661159,
P,left,Distractor,0,21,21,21,1632.47822845462,1634.4794699581798,right,0,3,0.9476165698051773,D06D03,2023-01-26_16h05.37.288,t1_Paradigm,2021.1.4,60.01644239661159,
L,left,Distractor,0,22,22,22,1635.978103662661,1637.9804410256947,left,1,3,1.1103366239058232,D06D03,2023-01-26_16h05.37.288,t1_Paradigm,2021.1.4,60.01644239661159,
R,right,Target,0,23,23,23,1639.4780812065237,1641.478904063535,right,1,3,1.211867875790631,D06D03,2023-01-26_16h05.37.288,t1_Paradigm,2021.1.4,60.01644239661159,
H,left,Pretarget,0,24,24,24,1642.97807062006,1644.9807951910516,left,1,3,1.1819091437537281,D06D03,2023-01-26_16h05.37.288,t1_Paradigm,2021.1.4,60.01644239661159,
G,left,Pretarget,0,25,25,25,1646.4781286852121,1648.4795998829723,left,1,3,1.2031414210505318,D06D03,2023-01-26_16h05.37.288,t1_Paradigm,2021.1.4,60.01644239661159,
T,left,Distractor,0,26,26,26,1649.9781286852121,1651.9806758527247,left,1,3,0.8221364896817249,D06D03,2023-01-26_16h05.37.288,t1_Paradigm,2021.1.4,60.01644239661159,
H,right,Target,0,27,27,27,1653.4780295574092,1655.4777828607075,left,0,3,1.1170997706922208,D06D03,2023-01-26_16h05.37.288,t1_Paradigm,2021.1.4,60.01644239661159,
G,right,Target,0,28,28,28,1656.9781411964887,1658.9800900683567,right,1,3,1.3107409626882145,D06D03,2023-01-26_16h05.37.288,t1_Paradigm,2021.1.4,60.01644239661159,
D,left,Distractor,0,29,29,29,1660.4780526551494,1662.4802254467813,left,1,3,1.17056045384561,D06D03,2023-01-26_16h05.37.288,t1_Paradigm,2021.1.4,60.01644239661159,
N,left,Pretarget,0,30,30,30,1663.9781129659168,1665.980332594634,None,0,3,,D06D03,2023-01-26_16h05.37.288,t1_Paradigm,2021.1.4,60.01644239661159,
V,left,Distractor,0,31,31,31,1667.4780257077855,1669.4804307600316,right,0,3,1.242277334571554,D06D03,2023-01-26_16h05.37.288,t1_Paradigm,2021.1.4,60.01644239661159,
R,left,Distractor,0,32,32,32,1670.978181938337,1672.9800124342837,left,1,3,0.9748144802306342,D06D03,2023-01-26_16h05.37.288,t1_Paradigm,2021.1.4,60.01644239661159,
N,right,Target,0,33,33,33,1674.4780988506318,1676.4802161435255,left,0,3,1.058802677283893,D06D03,2023-01-26_16h05.37.288,t1_Paradigm,2021.1.4,60.01644239661159,
Z,left,Distractor,0,34,34,34,1677.9781748806945,1679.9802389204633,left,1,3,1.0146080377580802,D06D03,2023-01-26_16h05.37.288,t1_Paradigm,2021.1.4,60.01644239661159,
N,left,Lure,0,35,35,35,1681.4780622792077,1683.4788838530112,right,0,3,0.9558611800130166,D06D03,2023-01-26_16h05.37.288,t1_Paradigm,2021.1.4,60.01644239661159,
Y,left,Pretarget,0,36,36,36,1684.978090830582,1686.9805792913357,left,1,3,0.8942777913944155,D06D03,2023-01-26_16h05.37.288,t1_Paradigm,2021.1.4,60.01644239661159,
Y,left,Lure,0,37,37,37,1688.478167823052,1690.4782005448506,left,1,3,1.1405879273243045,D06D03,2023-01-26_16h05.37.288,t1_Paradigm,2021.1.4,60.01644239661159,
B,left,Distractor,0,38,38,38,1691.9780581087834,1693.9787196024117,None,0,3,,D06D03,2023-01-26_16h05.37.288,t1_Paradigm,2021.1.4,60.01644239661159,
Y,right,Target,0,39,39,39,1695.4781835423473,1697.479256945684,right,1,3,0.955482954510444,D06D03,2023-01-26_16h05.37.288,t1_Paradigm,2021.1.4,60.01644239661159,
J,left,Distractor,0,40,40,40,1698.9782505899548,1700.9796781586483,left,1,3,1.1030069408698182,D06D03,2023-01-26_16h05.37.288,t1_Paradigm,2021.1.4,60.01644239661159,
X,left,Distractor,0,41,41,41,1702.4781768055054,1704.4804307600316,left,1,3,1.0423468202752701,D06D03,2023-01-26_16h05.37.288,t1_Paradigm,2021.1.4,60.01644239661159,
W,left,Pretarget,0,42,42,42,1705.9781145699271,1707.9797198629021,left,1,3,0.6311714275816485,D06D03,2023-01-26_16h05.37.288,t1_Paradigm,2021.1.4,60.01644239661159,
S,left,Pretarget,0,43,43,43,1709.4780972466215,1711.4789136875934,left,1,3,1.2437915197915572,D06D03,2023-01-26_16h05.37.288,t1_Paradigm,2021.1.4,60.01644239661159,
R,left,Distractor,0,44,44,44,1712.9781206651642,1714.9801548703508,left,1,3,1.294748343700121,D06D03,2023-01-26_16h05.37.288,t1_Paradigm,2021.1.4,60.01644239661159,
W,right,Target,0,45,45,45,1716.4781639734283,1718.4794908103067,right,1,3,1.0913355241955287,D06D03,2023-01-26_16h05.37.288,t1_Paradigm,2021.1.4,60.01644239661159,
S,right,Target,0,46,46,46,1719.9780776777025,1721.980562609635,right,1,3,1.142145420808447,D06D03,2023-01-26_16h05.37.288,t1_Paradigm,2021.1.4,60.01644239661159,
D,left,Distractor,0,47,47,47,1723.4780446351015,1725.4800284743815,left,1,3,1.0986542999653466,D06D03,2023-01-26_16h05.37.288,t1_Paradigm,2021.1.4,60.01644239661159,
T,left,Distractor,0,48,48,48,1726.9778707604419,1728.980393226204,left,1,3,1.358592744487396,D06D03,2023-01-26_16h05.37.288,t1_Paradigm,2021.1.4,60.01644239661159,
S,right,Target,0,49,49,49,1730.478260214013,1732.4772160036555,None,0,3,,D06D03,2023-01-26_16h05.37.288,t1_Paradigm,2021.1.4,60.01644239661159,
K,left,Distractor,0,50,50,50,1733.9780831313346,1735.979976825267,left,1,3,0.6309651519241015,D06D03,2023-01-26_16h05.37.288,t1_Paradigm,2021.1.4,60.01644239661159,
S,left,Lure,0,51,51,51,1737.478149537339,1739.4802017074362,right,0,3,0.8906158370937192,D06D03,2023-01-26_16h05.37.288,t1_Paradigm,2021.1.4,60.01644239661159,
T,left,Pretarget,0,52,52,52,1740.9781296476194,1742.979284534651,left,1,3,0.8795744754570478,D06D03,2023-01-26_16h05.37.288,t1_Paradigm,2021.1.4,60.01644239661159,
V,left,Distractor,0,53,53,53,1744.4782098481064,1746.4805703088805,left,1,3,1.0261171286438184,D06D03,2023-01-26_16h05.37.288,t1_Paradigm,2021.1.4,60.01644239661159,
B,left,Distractor,0,54,54,54,1747.978084093742,1749.9805863489782,left,1,3,1.270142192257481,D06D03,2023-01-26_16h05.37.288,t1_Paradigm,2021.1.4,60.01644239661159,
T,right,Target,0,55,55,55,1751.4780924345923,1753.4799838829094,right,1,3,0.6024509910857887,D06D03,2023-01-26_16h05.37.288,t1_Paradigm,2021.1.4,60.01644239661159,
Y,left,Pretarget,0,56,56,56,1754.9781033418585,1756.9800101886703,right,0,3,1.1187717904722376,D06D03,2023-01-26_16h05.37.288,t1_Paradigm,2021.1.4,60.01644239661159,
T,left,Lure,0,57,57,57,1758.4781585197943,1760.479689386717,right,0,3,1.0910990931570268,D06D03,2023-01-26_16h05.37.288,t1_Paradigm,2021.1.4,60.01644239661159,
P,left,Pretarget,0,58,58,58,1761.978090830582,1763.9797997425885,left,1,3,0.5349420695820299,D06D03,2023-01-26_16h05.37.288,t1_Paradigm,2021.1.4,60.01644239661159,
Y,right,Target,0,59,59,59,1765.4780006852343,1767.4800445144792,left,0,3,1.1787328836107918,D06D03,2023-01-26_16h05.37.288,t1_Paradigm,2021.1.4,60.01644239661159,
R,left,Distractor,0,60,60,60,1768.9779702090473,1770.9801195821365,left,1,3,1.0226723572668561,D06D03,2023-01-26_16h05.37.288,t1_Paradigm,2021.1.4,60.01644239661159,
P,right,Target,0,61,61,61,1772.4781540285676,1774.4806845143776,left,0,3,1.410145939224094,D06D03,2023-01-26_16h05.37.288,t1_Paradigm,2021.1.4,60.01644239661159,
L,left,Distractor,0,62,62,62,1775.9775406552326,1777.9801375470452,None,0,3,,D06D03,2023-01-26_16h05.37.288,t1_Paradigm,2021.1.4,60.01644239661159,
V,left,Distractor,0,63,63,63,1779.4781402340832,1781.4796524944923,right,0,3,0.843038661769242,D06D03,2023-01-26_16h05.37.288,t1_Paradigm,2021.1.4,60.01644239661159,
H,left,Lure,0,0,0,0,1815.120679278889,1817.1131413953863,None,0,3,,D06D03,2023-01-26_16h05.37.288,t1_Paradigm,2021.1.4,60.01644239661159,
B,left,Distractor,0,1,1,1,1818.6115242327378,1820.6136941371515,left,1,3,0.9570783026247227,D06D03,2023-01-26_16h05.37.288,t1_Paradigm,2021.1.4,60.01644239661159,
T,left,Distractor,0,2,2,2,1822.1113356011901,1824.1131462074154,left,1,3,0.7376032501088048,D06D03,2023-01-26_16h05.37.288,t1_Paradigm,2021.1.4,60.01644239661159,
R,left,Distractor,0,3,3,3,1825.6114767540494,1827.6240403209558,left,1,3,0.746788772445143,D06D03,2023-01-26_16h05.37.288,t1_Paradigm,2021.1.4,60.01644239661159,
H,left,Pretarget,0,4,4,4,1829.1114995309872,1831.1131474906233,left,1,3,0.873652471394962,D06D03,2023-01-26_16h05.37.288,t1_Paradigm,2021.1.4,60.01644239661159,
K,left,Distractor,0,5,5,5,1832.611481245276,1834.613627731147,left,1,3,1.213278762781556,D06D03,2023-01-26_16h05.37.288,t1_Paradigm,2021.1.4,60.01644239661159,
G,left,Distractor,0,6,6,6,1836.1112762528282,1838.1132860770667,left,1,3,1.2978209848115512,D06D03,2023-01-26_16h05.37.288,t1_Paradigm,2021.1.4,60.01644239661159,
H,right,Target,0,7,7,7,1839.6114700172075,1841.6135847436854,left,0,3,1.0452327546481683,D06D03,2023-01-26_16h05.37.288,t1_Paradigm,2021.1.4,60.01644239661159,
Y,left,Pretarget,0,8,8,8,1843.1114125936583,1845.1132665081477,left,1,3,0.7616040482625976,D06D03,2023-01-26_16h05.37.288,t1_Paradigm,2021.1.4,60.01644239661159,
S,left,Distractor,0,9,9,9,1846.6113680021863,1848.6134176058677,left,1,3,0.7332554212316609,D06D03,2023-01-26_16h05.37.288,t1_Paradigm,2021.1.4,60.01644239661159,
P,left,Distractor,0,10,10,10,1850.1114741876336,1852.1132151798356,right,0,3,0.9138062895144685,D06D03,2023-01-26_16h05.37.288,t1_Paradigm,2021.1.4,60.01644239661159,
Y,right,Target,0,11,11,11,1853.6113279019428,1855.6117725334498,None,0,3,,D06D03,2023-01-26_16h05.37.288,t1_Paradigm,2021.1.4,60.01644239661159,
H,left,Lure,0,12,12,12,1857.1113801926604,1859.113727500555,left,1,3,1.097356335261793,D06D03,2023-01-26_16h05.37.288,t1_Paradigm,2021.1.4,60.01644239661159,
Q,left,Distractor,0,13,13,13,1860.6114841324943,1862.6127644530916,left,1,3,0.7018925390457298,D06D03,2023-01-26_16h05.37.288,t1_Paradigm,2021.1.4,60.01644239661159,
V,left,Pretarget,0,14,14,14,1864.1115296863718,1866.113731670981,left,1,3,0.945127146645973,D06D03,2023-01-26_16h05.37.288,t1_Paradigm,2021.1.4,60.01644239661159,
G,left,Distractor,0,15,15,15,1867.611481886881,1869.6121590998046,right,0,3,0.6945375126560975,D06D03,2023-01-26_16h05.37.288,t1_Paradigm,2021.1.4,60.01644239661159,
Z,left,Pretarget,0,16,16,16,1871.110510177763,1873.1138667286032,left,1,3,0.6487857004449324,D06D03,2023-01-26_16h05.37.288,t1_Paradigm,2021.1.4,60.01644239661159,
V,right,Target,0,17,17,17,1874.6115101174528,1876.613459630924,right,1,3,1.0213169690105133,D06D03,2023-01-26_16h05.37.288,t1_Paradigm,2021.1.4,60.01644239661159,
N,left,Distractor,0,18,18,18,1878.1114215761136,1880.1131320921304,left,1,3,0.833524317429692,D06D03,2023-01-26_16h05.37.288,t1_Paradigm,2021.1.4,60.01644239661159,
Z,right,Target,0,19,19,19,1881.6112945385394,1883.613457064508,right,1,3,1.1573446965667245,D06D03,2023-01-26_16h05.37.288,t1_Paradigm,2021.1.4,60.01644239661159,
R,left,Distractor,0,20,20,20,1885.1114068192237,1887.1135436810364,left,1,3,0.8412017497812485,D06D03,2023-01-26_16h05.37.288,t1_Paradigm,2021.1.4,60.01644239661159,
P,left,Distractor,0,21,21,21,1888.6114850948998,1890.612898869109,left,1,3,0.9578552849561675,D06D03,2023-01-26_16h05.37.288,t1_Paradigm,2021.1.4,60.01644239661159,
Z,right,Target,0,22,22,22,1892.1113272603397,1894.113158077087,right,1,3,0.6896343755979615,D06D03,2023-01-26_16h05.37.288,t1_Paradigm,2021.1.4,60.01644239661159,
D,left,Pretarget,0,23,23,23,1895.6114337665877,1897.6106561426514,left,1,3,0.6481453797459835,D06D03,2023-01-26_16h05.37.288,t1_Paradigm,2021.1.4,60.01644239661159,
K,left,Distractor,0,24,24,24,1899.111351641288,1901.1129508390259,right,0,3,0.7937137573990185,D06D03,2023-01-26_16h05.37.288,t1_Paradigm,2021.1.4,60.01644239661159,
W,left,Distractor,0,25,25,25,1902.6112858768865,1904.6130743477788,left,1,3,0.6376407197767548,D06D03,2023-01-26_16h05.37.288,t1_Paradigm,2021.1.4,60.01644239661159,
D,right,Target,0,26,26,26,1906.111467129991,1908.112929986899,left,0,3,0.7857216183292621,D06D03,2023-01-26_16h05.37.288,t1_Paradigm,2021.1.4,60.01644239661159,
G,left,Pretarget,0,27,27,27,1909.6114254257373,1911.6138272699627,left,1,3,1.0289828524946643,D06D03,2023-01-26_16h05.37.288,t1_Paradigm,2021.1.4,60.01644239661159,
V,left,Distractor,0,28,28,28,1913.1114029696,1915.113589876517,right,0,3,0.6650208457103872,D06D03,2023-01-26_16h05.37.288,t1_Paradigm,2021.1.4,60.01644239661159,
D,right,Target,0,29,29,29,1916.6113333555768,1918.6137002323885,right,1,3,1.0050734828946588,D06D03,2023-01-26_16h05.37.288,t1_Paradigm,2021.1.4,60.01644239661159,
G,right,Target,0,30,30,30,1920.1113811550676,1922.1135934053382,left,0,3,1.0891027425986977,D06D03,2023-01-26_16h05.37.288,t1_Paradigm,2021.1.4,60.01644239661159,
B,left,Pretarget,0,31,31,31,1923.6113439420405,1925.6134230595017,left,1,3,1.0293726268664614,D06D03,2023-01-26_16h05.37.288,t1_Paradigm,2021.1.4,60.01644239661159,
N,left,Distractor,0,32,32,32,1927.1110510498565,1929.1126050145194,left,1,3,1.2100482871101121,D06D03,2023-01-26_16h05.37.288,t1_Paradigm,2021.1.4,60.01644239661159,
F,left,Distractor,0,33,33,33,1930.6113663981778,1932.613153265058,left,1,3,0.8296682779491675,D06D03,2023-01-26_16h05.37.288,t1_Paradigm,2021.1.4,60.01644239661159,
B,right,Target,0,34,34,34,1934.1113471500594,1936.1134811246557,right,1,3,0.8491630918651936,D06D03,2023-01-26_16h05.37.288,t1_Paradigm,2021.1.4,60.01644239661159,
Q,left,Pretarget,0,35,35,35,1937.6112938969363,1939.613393545722,left,1,3,0.6294169616976433,D06D03,2023-01-26_16h05.37.288,t1_Paradigm,2021.1.4,60.01644239661159,
S,left,Pretarget,0,36,36,36,1941.1112948593418,1943.1135767236374,left,1,3,0.6331032969446824,D06D03,2023-01-26_16h05.37.288,t1_Paradigm,2021.1.4,60.01644239661159,
W,left,Distractor,0,37,37,37,1944.6113407340217,1946.6134060569984,left,1,3,0.9092858691874426,D06D03,2023-01-26_16h05.37.288,t1_Paradigm,2021.1.4,60.01644239661159,
Q,right,Target,0,38,38,38,1948.1112948593418,1950.1139950493853,right,1,3,0.6727820073738258,D06D03,2023-01-26_16h05.37.288,t1_Paradigm,2021.1.4,60.01644239661159,
S,right,Target,0,39,39,39,1951.6113692853942,1953.6135985381698,right,1,3,0.7090810692188825,D06D03,2023-01-26_16h05.37.288,t1_Paradigm,2021.1.4,60.01644239661159,
T,left,Distractor,0,40,40,40,1955.111401044789,1957.11338680888,left,1,3,0.7134272940857045,D06D03,2023-01-26_16h05.37.288,t1_Paradigm,2021.1.4,60.01644239661159,
G,left,Distractor,0,41,41,41,1958.6113946287496,1960.613587951706,left,1,3,0.749060691880004,D06D03,2023-01-26_16h05.37.288,t1_Paradigm,2021.1.4,60.01644239661159,
D,left,Distractor,0,42,42,42,1962.1113221275082,1964.1132549592785,left,1,3,0.6414075763150322,D06D03,2023-01-26_16h05.37.288,t1_Paradigm,2021.1.4,60.01644239661159,
S,left,Lure,0,43,43,43,1965.6112512302752,1967.6128356711251,left,1,3,1.0938823709075223,D06D03,2023-01-26_16h05.37.288,t1_Paradigm,2021.1.4,60.01644239661159,
Z,left,Pretarget,0,44,44,44,1969.1114655259807,1971.1130727437685,left,1,3,0.7617756773088331,D06D03,2023-01-26_16h05.37.288,t1_Paradigm,2021.1.4,60.01644239661159,
J,left,Distractor,0,45,45,45,1972.6113561325146,1974.6129046435453,left,1,3,0.7017058323071979,D06D03,2023-01-26_16h05.37.288,t1_Paradigm,2021.1.4,60.01644239661159,
M,left,Pretarget,0,46,46,46,1976.1113487540697,1978.1132440520105,left,1,3,0.6735317215388932,D06D03,2023-01-26_16h05.37.288,t1_Paradigm,2021.1.4,60.01644239661159,
Z,right,Target,0,47,47,47,1979.6114870197125,1981.612968483134,right,1,3,0.7418160213637748,D06D03,2023-01-26_16h05.37.288,t1_Paradigm,2021.1.4,60.01644239661159,
P,left,Distractor,0,48,48,48,1983.1113433004357,1985.1136299767622,left,1,3,0.553074116800417,D06D03,2023-01-26_16h05.37.288,t1_Paradigm,2021.1.4,60.01644239661159,
M,right,Target,0,49,49,49,1986.6114055360158,1988.6104476213823,right,1,3,0.6560948521564569,D06D03,2023-01-26_16h05.37.288,t1_Paradigm,2021.1.4,60.01644239661159,
K,left,Distractor,0,50,50,50,1990.1113378468035,1992.1132963427299,left,1,3,0.6256327818537102,D06D03,2023-01-26_16h05.37.288,t1_Paradigm,2021.1.4,60.01644239661159,
Y,left,Distractor,0,51,51,51,1993.6113439420405,1995.6131311297231,left,1,3,0.7576055727149651,D06D03,2023-01-26_16h05.37.288,t1_Paradigm,2021.1.4,60.01644239661159,
X,left,Distractor,0,52,52,52,1997.1113349595853,1999.1121440221123,left,1,3,1.018375535899395,D06D03,2023-01-26_16h05.37.288,t1_Paradigm,2021.1.4,60.01644239661159,
F,left,Pretarget,0,53,53,53,2000.6112525134831,2002.6130749893819,left,1,3,0.7495852030733658,D06D03,2023-01-26_16h05.37.288,t1_Paradigm,2021.1.4,60.01644239661159,
M,left,Lure,0,54,54,54,2004.111241606217,2006.1131725131763,left,1,3,0.977605457226673,D06D03,2023-01-26_16h05.37.288,t1_Paradigm,2021.1.4,60.01644239661159,
V,left,Distractor,0,55,55,55,2007.611422538519,2009.6131561522761,left,1,3,0.7576344448916643,D06D03,2023-01-26_16h05.37.288,t1_Paradigm,2021.1.4,60.01644239661159,
F,right,Target,0,56,56,56,2011.1113141074584,2013.1128103277697,right,1,3,0.7938048651540157,D06D03,2023-01-26_16h05.37.288,t1_Paradigm,2021.1.4,60.01644239661159,
S,left,Distractor,0,57,57,57,2014.6113439420405,2016.6136511496898,left,1,3,0.7810812180723588,D06D03,2023-01-26_16h05.37.288,t1_Paradigm,2021.1.4,60.01644239661159,
D,left,Distractor,0,58,58,58,2018.1113965535606,2020.1130977663197,left,1,3,0.8978765477095294,D06D03,2023-01-26_16h05.37.288,t1_Paradigm,2021.1.4,60.01644239661159,
F,right,Target,0,59,59,59,2021.611303841797,2023.6132488640415,right,1,3,0.9494127399429999,D06D03,2023-01-26_16h05.37.288,t1_Paradigm,2021.1.4,60.01644239661159,
V,left,Pretarget,0,60,60,60,2025.1113125034499,2027.113165455532,right,0,3,0.8896098021687067,D06D03,2023-01-26_16h05.37.288,t1_Paradigm,2021.1.4,60.01644239661159,
J,left,Distractor,0,61,61,61,2028.61135709492,2030.6136822674798,left,1,3,0.6689638225216186,D06D03,2023-01-26_16h05.37.288,t1_Paradigm,2021.1.4,60.01644239661159,
V,left,Lure,0,62,62,62,2032.111144403225,2034.1132966635323,right,0,3,0.9773953319472639,D06D03,2023-01-26_16h05.37.288,t1_Paradigm,2021.1.4,60.01644239661159,
V,right,Target,0,63,63,63,2035.6113628693565,2037.6113378468035,left,0,3,1.2553134427562327,D06D03,2023-01-26_16h05.37.288,t1_Paradigm,2021.1.4,60.01644239661159,
R,left,Distractor,0,0,0,0,2130.070140139125,2132.0632608620344,None,0,4,,D06D03,2023-01-26_16h05.37.288,t1_Paradigm,2021.1.4,60.01644239661159,
F,left,Distractor,0,1,1,1,2133.5613889826345,2135.5632124209387,left,1,4,0.40753685693744046,D06D03,2023-01-26_16h05.37.288,t1_Paradigm,2021.1.4,60.01644239661159,
P,left,Pretarget,0,2,2,2,2137.061309744553,2139.0633115487417,left,1,4,0.6033068906981498,D06D03,2023-01-26_16h05.37.288,t1_Paradigm,2021.1.4,60.01644239661159,
H,left,Distractor,0,3,3,3,2140.5613193686113,2142.563226857026,left,1,4,0.7993945183916367,D06D03,2023-01-26_16h05.37.288,t1_Paradigm,2021.1.4,60.01644239661159,
Z,left,Distractor,0,4,4,4,2144.0612953084637,2146.063589042433,left,1,4,0.6111752002125286,D06D03,2023-01-26_16h05.37.288,t1_Paradigm,2021.1.4,60.01644239661159,
T,left,Distractor,0,5,5,5,2147.561361072865,2149.5632197993837,left,1,4,0.6154239012867038,D06D03,2023-01-26_16h05.37.288,t1_Paradigm,2021.1.4,60.01644239661159,
P,right,Target,0,6,6,6,2151.061288892426,2153.063346836958,right,1,4,1.003013613551957,D06D03,2023-01-26_16h05.37.288,t1_Paradigm,2021.1.4,60.01644239661159,
G,left,Distractor,0,7,7,7,2154.561279909971,2156.563606044936,left,1,4,0.6230766318876704,D06D03,2023-01-26_16h05.37.288,t1_Paradigm,2021.1.4,60.01644239661159,
L,left,Distractor,0,8,8,8,2158.0612824763866,2160.0631941352276,left,1,4,0.6435290396348137,D06D03,2023-01-26_16h05.37.288,t1_Paradigm,2021.1.4,60.01644239661159,
P,left,Lure,0,9,9,9,2161.5612526418045,2163.5628726916693,left,1,4,0.9517347044838971,D06D03,2023-01-26_16h05.37.288,t1_Paradigm,2021.1.4,60.01644239661159,
Q,left,Pretarget,0,10,10,10,2165.0612965916716,2167.061894887316,left,1,4,0.7808951529386832,D06D03,2023-01-26_16h05.37.288,t1_Paradigm,2021.1.4,60.01644239661159,
D,left,Distractor,0,11,11,11,2168.5613443911625,2170.5742194567665,left,1,4,0.9646533991544857,D06D03,2023-01-26_16h05.37.288,t1_Paradigm,2021.1.4,60.01644239661159,
M,left,Pretarget,0,12,12,12,2172.061331238283,2174.0632493131634,left,1,4,0.8353467933266074,D06D03,2023-01-26_16h05.37.288,t1_Paradigm,2021.1.4,60.01644239661159,
C,left,Distractor,0,13,13,13,2175.5613774337653,2177.563623689044,left,1,4,0.8231107652154606,D06D03,2023-01-26_16h05.37.288,t1_Paradigm,2021.1.4,60.01644239661159,
Q,right,Target,0,14,14,14,2179.061448010194,2181.0632117793357,right,1,4,0.6194310384871642,D06D03,2023-01-26_16h05.37.288,t1_Paradigm,2021.1.4,60.01644239661159,
R,left,Distractor,0,15,15,15,2182.561257133031,2184.5633465161554,right,0,4,1.3432587319093727,D06D03,2023-01-26_16h05.37.288,t1_Paradigm,2021.1.4,60.01644239661159,
M,right,Target,0,16,16,16,2186.061240130528,2188.063649994803,right,1,4,1.1550824011901568,D06D03,2023-01-26_16h05.37.288,t1_Paradigm,2021.1.4,60.01644239661159,
S,left,Distractor,0,17,17,17,2189.5612151079768,2191.5742066246894,left,1,4,0.57235367260364,D06D03,2023-01-26_16h05.37.288,t1_Paradigm,2021.1.4,60.01644239661159,
Z,left,Distractor,0,18,18,18,2193.0612680402974,2195.0634126013574,left,1,4,0.779364927619099,D06D03,2023-01-26_16h05.37.288,t1_Paradigm,2021.1.4,60.01644239661159,
L,left,Pretarget,0,19,19,19,2196.5612937044552,2198.561968350963,right,0,4,0.8006594404942007,D06D03,2023-01-26_16h05.37.288,t1_Paradigm,2021.1.4,60.01644239661159,
M,right,Target,0,20,20,20,2200.0604307472004,2202.063180340743,right,1,4,1.3315433653660875,D06D03,2023-01-26_16h05.37.288,t1_Paradigm,2021.1.4,60.01644239661159,
P,left,Distractor,0,21,21,21,2203.5612763811496,2205.5633484409664,left,1,4,0.9672576694138115,D06D03,2023-01-26_16h05.37.288,t1_Paradigm,2021.1.4,60.01644239661159,
F,left,Distractor,0,22,22,22,2207.0612837595945,2209.062907017478,left,1,4,1.0035878490489267,D06D03,2023-01-26_16h05.37.288,t1_Paradigm,2021.1.4,60.01644239661159,
L,right,Target,0,23,23,23,2210.561359789657,2212.5620819148553,left,0,4,1.0725888204360672,D06D03,2023-01-26_16h05.37.288,t1_Paradigm,2021.1.4,60.01644239661159,
L,left,Lure,0,24,24,24,2214.0612568122306,2216.061320651819,left,1,4,1.1414207291963976,D06D03,2023-01-26_16h05.37.288,t1_Paradigm,2021.1.4,60.01644239661159,
V,left,Pretarget,0,25,25,25,2217.5611945766505,2219.5633012830804,left,1,4,0.919309647028058,D06D03,2023-01-26_16h05.37.288,t1_Paradigm,2021.1.4,60.01644239661159,
Z,left,Distractor,0,26,26,26,2221.0613322006884,2223.0632297442444,right,0,4,1.083373219709756,D06D03,2023-01-26_16h05.37.288,t1_Paradigm,2021.1.4,60.01644239661159,
H,left,Distractor,0,27,27,27,2224.561402777119,2226.562979197919,left,1,4,0.7196444359469751,D06D03,2023-01-26_16h05.37.288,t1_Paradigm,2021.1.4,60.01644239661159,
X,left,Distractor,0,28,28,28,2228.06127670195,2230.0628861653513,left,1,4,0.7238998738594091,D06D03,2023-01-26_16h05.37.288,t1_Paradigm,2021.1.4,60.01644239661159,
V,right,Target,0,29,29,29,2231.5612195992035,2233.562394696759,left,0,4,0.7764514042773953,D06D03,2023-01-26_16h05.37.288,t1_Paradigm,2021.1.4,60.01644239661159,
C,left,Distractor,0,30,30,30,2235.061248792181,2237.063053303169,left,1,4,0.6675638427968806,D06D03,2023-01-26_16h05.37.288,t1_Paradigm,2021.1.4,60.01644239661159,
S,left,Pretarget,0,31,31,31,2238.561314556582,2240.5632117793357,right,0,4,0.6555154838279122,D06D03,2023-01-26_16h05.37.288,t1_Paradigm,2021.1.4,60.01644239661159,
D,left,Distractor,0,32,32,32,2242.0613161605906,2244.062431268181,left,1,4,1.1403235865145689,D06D03,2023-01-26_16h05.37.288,t1_Paradigm,2021.1.4,60.01644239661159,
V,left,Distractor,0,33,33,33,2245.5612690027046,2247.563492801846,left,1,4,1.2712111043674668,D06D03,2023-01-26_16h05.37.288,t1_Paradigm,2021.1.4,60.01644239661159,
R,left,Distractor,0,34,34,34,2249.0610713887,2251.0628996390333,left,1,4,1.1798659561118257,D06D03,2023-01-26_16h05.37.288,t1_Paradigm,2021.1.4,60.01644239661159,
S,right,Target,0,35,35,35,2252.5612423761413,2254.5622756792345,right,1,4,0.9765099185533472,D06D03,2023-01-26_16h05.37.288,t1_Paradigm,2021.1.4,60.01644239661159,
Y,left,Distractor,0,36,36,36,2256.0613081405427,2258.0626853433296,left,1,4,0.7719624225428561,D06D03,2023-01-26_16h05.37.288,t1_Paradigm,2021.1.4,60.01644239661159,
N,left,Pretarget,0,37,37,37,2259.560968090471,2261.563142486113,left,1,4,0.6153161118290882,D06D03,2023-01-26_16h05.37.288,t1_Paradigm,2021.1.4,60.01644239661159,
Z,left,Pretarget,0,38,38,38,2263.0612677194968,2265.063409072536,right,0,4,0.9393270473246957,D06D03,2023-01-26_16h05.37.288,t1_Paradigm,2021.1.4,60.01644239661159,
P,left,Pretarget,0,39,39,39,2266.561302366108,2268.562877182898,left,1,4,0.7037567191982816,D06D03,2023-01-26_16h05.37.288,t1_Paradigm,2021.1.4,60.01644239661159,
M,left,Distractor,0,40,40,40,2270.061227940054,2272.0621245815146,left,1,4,1.044668143211311,D06D03,2023-01-26_16h05.37.288,t1_Paradigm,2021.1.4,60.01644239661159,
N,right,Target,0,41,41,41,2273.5613200102143,2275.56343441589,left,0,4,1.047480934739724,D06D03,2023-01-26_16h05.37.288,t1_Paradigm,2021.1.4,60.01644239661159,
Z,right,Target,0,42,42,42,2277.061334125501,2279.0618579950915,right,1,4,0.9248409143110621,D06D03,2023-01-26_16h05.37.288,t1_Paradigm,2021.1.4,60.01644239661159,
P,right,Target,0,43,43,43,2280.561293383653,2282.562627598978,left,0,4,0.9761753221173421,D06D03,2023-01-26_16h05.37.288,t1_Paradigm,2021.1.4,60.01644239661159,
X,left,Pretarget,0,44,44,44,2284.0612702859125,2286.0622121604483,right,0,4,0.9163890660420293,D06D03,2023-01-26_16h05.37.288,t1_Paradigm,2021.1.4,60.01644239661159,
Z,left,Lure,0,45,45,45,2287.5612545666154,2289.561947498836,left,1,4,1.368658547382438,D06D03,2023-01-26_16h05.37.288,t1_Paradigm,2021.1.4,60.01644239661159,
R,left,Pretarget,0,46,46,46,2291.0612574538336,2293.0634841401934,left,1,4,0.6513440960261505,D06D03,2023-01-26_16h05.37.288,t1_Paradigm,2021.1.4,60.01644239661159,
K,left,Distractor,0,47,47,47,2294.561207087927,2296.562949363337,left,1,4,0.9596588335389242,D06D03,2023-01-26_16h05.37.288,t1_Paradigm,2021.1.4,60.01644239661159,
X,right,Target,0,48,48,48,2298.061180140563,2300.0633978444675,right,1,4,0.6113792302548973,D06D03,2023-01-26_16h05.37.288,t1_Paradigm,2021.1.4,60.01644239661159,
B,left,Distractor,0,49,49,49,2301.5612484713783,2303.5621354887808,left,1,4,0.5525139965902781,D06D03,2023-01-26_16h05.37.288,t1_Paradigm,2021.1.4,60.01644239661159,
R,right,Target,0,50,50,50,2305.0612404513304,2307.063014165331,left,0,4,0.9874797413576744,D06D03,2023-01-26_16h05.37.288,t1_Paradigm,2021.1.4,60.01644239661159,
Y,left,Pretarget,0,51,51,51,2308.5612561706257,2310.563189644001,right,0,4,0.9116039841046586,D06D03,2023-01-26_16h05.37.288,t1_Paradigm,2021.1.4,60.01644239661159,
W,left,Pretarget,0,52,52,52,2312.0612025967002,2314.0626574335583,left,1,4,0.6599319643210038,D06D03,2023-01-26_16h05.37.288,t1_Paradigm,2021.1.4,60.01644239661159,
Z,left,Distractor,0,53,53,53,2315.5611541556045,2317.5620511178677,left,1,4,0.4724277136956516,D06D03,2023-01-26_16h05.37.288,t1_Paradigm,2021.1.4,60.01644239661159,
Q,left,Distractor,0,54,54,54,2319.0612673986943,2321.063525844447,left,1,4,0.7952346794609184,D06D03,2023-01-26_16h05.37.288,t1_Paradigm,2021.1.4,60.01644239661159,
Y,right,Target,0,55,55,55,2322.5612378849146,2324.562438646626,left,0,4,0.8963325279073615,D06D03,2023-01-26_16h05.37.288,t1_Paradigm,2021.1.4,60.01644239661159,
W,right,Target,0,56,56,56,2326.0612276192514,2328.063508841944,right,1,4,1.1711786392097565,D06D03,2023-01-26_16h05.37.288,t1_Paradigm,2021.1.4,60.01644239661159,
H,left,Pretarget,0,57,57,57,2329.561271889921,2331.5627366716417,left,1,4,0.6482980814762414,D06D03,2023-01-26_16h05.37.288,t1_Paradigm,2021.1.4,60.01644239661159,
M,left,Distractor,0,58,58,58,2333.0612568122306,2335.063344270542,left,1,4,0.7313315719165985,D06D03,2023-01-26_16h05.37.288,t1_Paradigm,2021.1.4,60.01644239661159,
R,left,Pretarget,0,59,59,59,2336.561224732035,2338.5627286515937,left,1,4,0.7838263203884708,D06D03,2023-01-26_16h05.37.288,t1_Paradigm,2021.1.4,60.01644239661159,
J,left,Distractor,0,60,60,60,2340.0612837595945,2342.0634077893283,left,1,4,0.8672322618967883,D06D03,2023-01-26_16h05.37.288,t1_Paradigm,2021.1.4,60.01644239661159,
H,right,Target,0,61,61,61,2343.5612398097255,2345.563151789369,left,0,4,1.223522610764121,D06D03,2023-01-26_16h05.37.288,t1_Paradigm,2021.1.4,60.01644239661159,
Z,left,Distractor,0,62,62,62,2347.0612818347818,2349.0633041702968,right,0,4,0.8592763734504842,D06D03,2023-01-26_16h05.37.288,t1_Paradigm,2021.1.4,60.01644239661159,
R,right,Target,0,63,63,63,2350.5613395791333,2352.562386676711,right,1,4,1.1681897274083894,D06D03,2023-01-26_16h05.37.288,t1_Paradigm,2021.1.4,60.01644239661159,
J,left,Pretarget,0,0,0,0,2398.260103657527,2400.263033541769,None,0,4,,D06D03,2023-01-26_16h05.37.288,t1_Paradigm,2021.1.4,60.01644239661159,
G,left,Pretarget,0,1,1,1,2401.761221973138,2403.7602592464755,left,1,4,0.5145166092006548,D06D03,2023-01-26_16h05.37.288,t1_Paradigm,2021.1.4,60.01644239661159,
Z,left,Distractor,0,2,2,2,2405.261225181157,2407.2632587447406,left,1,4,0.46726568945996405,D06D03,2023-01-26_16h05.37.288,t1_Paradigm,2021.1.4,60.01644239661159,
F,left,Distractor,0,3,3,3,2408.7612235771467,2410.760433762738,left,1,4,0.7783357949538185,D06D03,2023-01-26_16h05.37.288,t1_Paradigm,2021.1.4,60.01644239661159,
J,right,Target,0,4,4,4,2412.261462574603,2414.260225241467,right,1,4,0.44636640459430055,D06D03,2023-01-26_16h05.37.288,t1_Paradigm,2021.1.4,60.01644239661159,
G,right,Target,0,5,5,5,2415.7611417726494,2417.7632295517633,right,1,4,0.7833435134489264,D06D03,2023-01-26_16h05.37.288,t1_Paradigm,2021.1.4,60.01644239661159,
H,left,Distractor,0,6,6,6,2419.2612168403066,2421.263182714678,left,1,4,0.8352794249167346,D06D03,2023-01-26_16h05.37.288,t1_Paradigm,2021.1.4,60.01644239661159,
P,left,Distractor,0,7,7,7,2422.7612540533337,2424.762580248609,left,1,4,0.680188682877997,D06D03,2023-01-26_16h05.37.288,t1_Paradigm,2021.1.4,60.01644239661159,
G,left,Lure,0,8,8,8,2426.2611581335495,2428.2632619527612,left,1,4,1.0832702422831062,D06D03,2023-01-26_16h05.37.288,t1_Paradigm,2021.1.4,60.01644239661159,
S,left,Distractor,0,9,9,9,2429.761208499456,2431.763278634462,left,1,4,0.6714012757638557,D06D03,2023-01-26_16h05.37.288,t1_Paradigm,2021.1.4,60.01644239661159,
R,left,Pretarget,0,10,10,10,2433.261274584658,2435.262922865095,left,1,4,0.7874841042630578,D06D03,2023-01-26_16h05.37.288,t1_Paradigm,2021.1.4,60.01644239661159,
T,left,Pretarget,0,11,11,11,2436.7609361385967,2438.763149030472,left,1,4,0.7594415222956741,D06D03,2023-01-26_16h05.37.288,t1_Paradigm,2021.1.4,60.01644239661159,
X,left,Distractor,0,12,12,12,2440.2612065746434,2442.2625914766777,left,1,4,0.7321515417097544,D06D03,2023-01-26_16h05.37.288,t1_Paradigm,2021.1.4,60.01644239661159,
F,left,Pretarget,0,13,13,13,2443.7611318277886,2445.760175837968,right,0,4,1.0585348076547234,D06D03,2023-01-26_16h05.37.288,t1_Paradigm,2021.1.4,60.01644239661159,
R,right,Target,0,14,14,14,2447.2612194067224,2449.2623701233297,left,0,4,1.156317488712375,D06D03,2023-01-26_16h05.37.288,t1_Paradigm,2021.1.4,60.01644239661159,
T,right,Target,0,15,15,15,2450.7611876473293,2452.7620961584616,right,1,4,1.0488725736140623,D06D03,2023-01-26_16h05.37.288,t1_Paradigm,2021.1.4,60.01644239661159,
C,left,Distractor,0,16,16,16,2454.2612992864088,2456.2625879478564,left,1,4,0.876000741693133,D06D03,2023-01-26_16h05.37.288,t1_Paradigm,2021.1.4,60.01644239661159,
F,right,Target,0,17,17,17,2457.761139527036,2459.762568699738,left,0,4,1.296180403620383,D06D03,2023-01-26_16h05.37.288,t1_Paradigm,2021.1.4,60.01644239661159,
M,left,Distractor,0,18,18,18,2461.261215877901,2463.2633578725454,left,1,4,0.6912460846124304,D06D03,2023-01-26_16h05.37.288,t1_Paradigm,2021.1.4,60.01644239661159,
N,left,Distractor,0,19,19,19,2464.761109050851,2466.76318945152,left,1,4,0.6479814499471104,D06D03,2023-01-26_16h05.37.288,t1_Paradigm,2021.1.4,60.01644239661159,
R,left,Lure,0,20,20,20,2468.261194063367,2470.262916128255,right,0,4,0.891613531170151,D06D03,2023-01-26_16h05.37.288,t1_Paradigm,2021.1.4,60.01644239661159,
F,right,Target,0,21,21,21,2471.761229993186,2473.7637810103206,right,1,4,0.9588128787854657,D06D03,2023-01-26_16h05.37.288,t1_Paradigm,2021.1.4,60.01644239661159,
P,left,Distractor,0,22,22,22,2475.261290624756,2477.262437812542,left,1,4,0.708279705939276,D06D03,2023-01-26_16h05.37.288,t1_Paradigm,2021.1.4,60.01644239661159,
L,left,Pretarget,0,23,23,23,2478.761259506966,2480.763081662062,left,1,4,0.7117337805739226,D06D03,2023-01-26_16h05.37.288,t1_Paradigm,2021.1.4,60.01644239661159,
T,left,Distractor,0,24,24,24,2482.261172569637,2484.2623842386147,left,1,4,0.5083283395160834,D06D03,2023-01-26_16h05.37.288,t1_Paradigm,2021.1.4,60.01644239661159,
F,left,Distractor,0,25,25,25,2485.7611148252854,2487.7634287697765,left,1,4,1.2635022334234236,D06D03,2023-01-26_16h05.37.288,t1_Paradigm,2021.1.4,60.01644239661159,
V,left,Distractor,0,26,26,26,2489.2611376022232,2491.2631602585407,left,1,4,1.0435498276019644,D06D03,2023-01-26_16h05.37.288,t1_Paradigm,2021.1.4,60.01644239661159,
L,right,Target,0,27,27,27,2492.7610317375784,2494.76337840387,right,1,4,1.0151899725005933,D06D03,2023-01-26_16h05.37.288,t1_Paradigm,2021.1.4,60.01644239661159,
S,left,Pretarget,0,28,28,28,2496.261252770126,2498.2634659828036,left,1,4,0.6670996423708857,D06D03,2023-01-26_16h05.37.288,t1_Paradigm,2021.1.4,60.01644239661159,
W,left,Distractor,0,29,29,29,2499.7601877076395,2501.763151596888,left,1,4,0.6875097042593552,D06D03,2023-01-26_16h05.37.288,t1_Paradigm,2021.1.4,60.01644239661159,
Q,left,Distractor,0,30,30,30,2503.2610878779215,2505.2631567297194,left,1,4,0.611601225205959,D06D03,2023-01-26_16h05.37.288,t1_Paradigm,2021.1.4,60.01644239661159,
L,right,Target,0,31,31,31,2506.76123384281,2508.7629174114627,right,1,4,0.903661248536082,D06D03,2023-01-26_16h05.37.288,t1_Paradigm,2021.1.4,60.01644239661159,
S,right,Target,0,32,32,32,2510.2612174819096,2512.2628686495646,right,1,4,1.0037171322364884,D06D03,2023-01-26_16h05.37.288,t1_Paradigm,2021.1.4,60.01644239661159,
Z,left,Pretarget,0,33,33,33,2513.761101030801,2515.762953341282,left,1,4,0.6876845413244155,D06D03,2023-01-26_16h05.37.288,t1_Paradigm,2021.1.4,60.01644239661159,
F,left,Distractor,0,34,34,34,2517.2613624843925,2519.26234060955,left,1,4,0.6124199117912212,D06D03,2023-01-26_16h05.37.288,t1_Paradigm,2021.1.4,60.01644239661159,
V,left,Distractor,0,35,35,35,2520.7610837074953,2522.762541110771,right,0,4,1.1921905255640013,D06D03,2023-01-26_16h05.37.288,t1_Paradigm,2021.1.4,60.01644239661159,
M,left,Distractor,0,36,36,36,2524.2610792162686,2526.2626668651374,left,1,4,1.0839047885456239,D06D03,2023-01-26_16h05.37.288,t1_Paradigm,2021.1.4,60.01644239661159,
Z,right,Target,0,37,37,37,2527.761114504483,2529.7633431156555,left,0,4,1.1352841086263652,D06D03,2023-01-26_16h05.37.288,t1_Paradigm,2021.1.4,60.01644239661159,
H,left,Pretarget,0,38,38,38,2531.261093010753,2533.2630643387565,left,1,4,0.9154215273520094,D06D03,2023-01-26_16h05.37.288,t1_Paradigm,2021.1.4,60.01644239661159,
L,left,Distractor,0,39,39,39,2534.76118123129,2536.762660449098,right,0,4,0.7599541638173832,D06D03,2023-01-26_16h05.37.288,t1_Paradigm,2021.1.4,60.01644239661159,
G,left,Distractor,0,40,40,40,2538.2611831561007,2540.263535596827,left,1,4,0.7953075015047943,D06D03,2023-01-26_16h05.37.288,t1_Paradigm,2021.1.4,60.01644239661159,
K,left,Distractor,0,41,41,41,2541.761223256346,2543.7627605393063,left,1,4,1.0079619836851634,D06D03,2023-01-26_16h05.37.288,t1_Paradigm,2021.1.4,60.01644239661159,
H,right,Target,0,42,42,42,2545.2611225245328,2547.263305581826,right,1,4,0.9636140008242364,D06D03,2023-01-26_16h05.37.288,t1_Paradigm,2021.1.4,60.01644239661159,
B,left,Distractor,0,43,43,43,2548.761253411729,2550.7630717172015,left,1,4,0.8716051133269502,D06D03,2023-01-26_16h05.37.288,t1_Paradigm,2021.1.4,60.01644239661159,
Z,left,Distractor,0,44,44,44,2552.2611571711423,2554.2631830354803,left,1,4,1.0993145103857387,D06D03,2023-01-26_16h05.37.288,t1_Paradigm,2021.1.4,60.01644239661159,
T,left,Pretarget,0,45,45,45,2555.761190213745,2557.7632276269505,left,1,4,0.8153197689716762,D06D03,2023-01-26_16h05.37.288,t1_Paradigm,2021.1.4,60.01644239661159,
H,right,Target,0,46,46,46,2559.261229993186,2561.2629895919017,right,1,4,1.1876075488544302,D06D03,2023-01-26_16h05.37.288,t1_Paradigm,2021.1.4,60.01644239661159,
F,left,Distractor,0,47,47,47,2562.7611215621255,2564.761697722435,right,0,4,1.0810573504077183,D06D03,2023-01-26_16h05.37.288,t1_Paradigm,2021.1.4,60.01644239661159,
R,left,Distractor,0,48,48,48,2566.261255015739,2568.26015979787,left,1,4,0.7344840927144105,D06D03,2023-01-26_16h05.37.288,t1_Paradigm,2021.1.4,60.01644239661159,
T,right,Target,0,49,49,49,2569.760278494592,2571.763240138227,left,0,4,1.039450299436794,D06D03,2023-01-26_16h05.37.288,t1_Paradigm,2021.1.4,60.01644239661159,
H,right,Target,0,50,50,50,2573.261144980668,2575.263475606862,right,1,4,0.7710118863542448,D06D03,2023-01-26_16h05.37.288,t1_Paradigm,2021.1.4,60.01644239661159,
Y,left,Pretarget,0,51,51,51,2576.761277792677,2578.763366213396,left,1,4,0.6477738910853077,D06D03,2023-01-26_16h05.37.288,t1_Paradigm,2021.1.4,60.01644239661159,
H,left,Distractor,0,52,52,52,2580.261236088423,2582.2629854214756,left,1,4,0.9553466136785573,D06D03,2023-01-26_16h05.37.288,t1_Paradigm,2021.1.4,60.01644239661159,
S,left,Distractor,0,53,53,53,2583.7612344844147,2585.7630900029126,right,0,4,0.8957002272563841,D06D03,2023-01-26_16h05.37.288,t1_Paradigm,2021.1.4,60.01644239661159,
Q,left,Distractor,0,54,54,54,2587.2612271059697,2589.263009481623,left,1,4,0.675591590883414,D06D03,2023-01-26_16h05.37.288,t1_Paradigm,2021.1.4,60.01644239661159,
Y,right,Target,0,55,55,55,2590.7612976823984,2592.7630293713446,right,1,4,1.1276503053395572,D06D03,2023-01-26_16h05.37.288,t1_Paradigm,2021.1.4,60.01644239661159,
R,left,Distractor,0,56,56,56,2594.2612168403066,2596.262648258624,right,0,4,1.2120946827726584,D06D03,2023-01-26_16h05.37.288,t1_Paradigm,2021.1.4,60.01644239661159,
H,left,Pretarget,0,57,57,57,2597.7612136322878,2599.7778731985363,right,0,4,1.2006712460079143,D06D03,2023-01-26_16h05.37.288,t1_Paradigm,2021.1.4,60.01644239661159,
J,left,Distractor,0,58,58,58,2601.26120432903,2603.2615806297217,left,1,4,0.6609533977425599,D06D03,2023-01-26_16h05.37.288,t1_Paradigm,2021.1.4,60.01644239661159,
V,left,Distractor,0,59,59,59,2604.76113696062,2606.774111795632,left,1,4,0.6527549830152566,D06D03,2023-01-26_16h05.37.288,t1_Paradigm,2021.1.4,60.01644239661159,
Y,left,Lure,0,60,60,60,2608.2611376022232,2610.2629430756188,right,0,4,0.8597428194898384,D06D03,2023-01-26_16h05.37.288,t1_Paradigm,2021.1.4,60.01644239661159,
H,right,Target,0,61,61,61,2611.7611931009615,2613.7630643387565,right,1,4,0.9594942621370137,D06D03,2023-01-26_16h05.37.288,t1_Paradigm,2021.1.4,60.01644239661159,
L,left,Distractor,0,62,62,62,2615.261124770146,2617.2630858324883,left,1,4,1.1076075616856542,D06D03,2023-01-26_16h05.37.288,t1_Paradigm,2021.1.4,60.01644239661159,
P,left,Distractor,0,63,63,63,2618.7612149154957,2620.762796148323,left,1,4,0.7597475673592271,D06D03,2023-01-26_16h05.37.288,t1_Paradigm,2021.1.4,60.01644239661159,
