Letter,CorrAnswer,Stimulus,nback_run.thisRepN,nback_run.thisTrialN,nback_run.thisN,nback_run.thisIndex,fixcross.started,nback_trial.started,trial_resp.keys,trial_resp.corr,currentlevel,trial_resp.rt,Participant,date,expName,psychopyVersion,frameRate,
H,left,Distractor,0,0,0,0,225.94574030361946,227.8937060061071,None,0,1,,D07I03,2023-01-25_12h11.39.756,t1_Paradigm,2021.1.4,59.97544949926295,
Q,left,Pretarget,0,1,1,1,229.39214691161396,231.39566738547546,left,1,1,0.5137476204563427,D07I03,2023-01-25_12h11.39.756,t1_Paradigm,2021.1.4,59.97544949926295,
Q,right,Target,0,2,2,2,232.8918950825646,234.89235158286647,right,1,1,0.6812123339132086,D07I03,2023-01-25_12h11.39.756,t1_Paradigm,2021.1.4,59.97544949926295,
T,left,Distractor,0,3,3,3,236.39225983368397,238.39413106787742,left,1,1,0.44331440391579235,D07I03,2023-01-25_12h11.39.756,t1_Paradigm,2021.1.4,59.97544949926295,
Q,left,Lure,0,4,4,4,239.89216615969417,241.89444320757684,left,1,1,1.2791388665582417,D07I03,2023-01-25_12h11.39.756,t1_Paradigm,2021.1.4,59.97544949926295,
L,left,Distractor,0,5,5,5,243.3921398539842,245.3916044365542,left,1,1,0.7578960436858324,D07I03,2023-01-25_12h11.39.756,t1_Paradigm,2021.1.4,59.97544949926295,
V,left,Pretarget,0,6,6,6,246.89229608423466,248.89360527448753,left,1,1,0.9037794888608914,D07I03,2023-01-25_12h11.39.756,t1_Paradigm,2021.1.4,59.97544949926295,
V,right,Target,0,7,7,7,250.3920885257703,252.39210616984383,right,1,1,0.9253970076933911,D07I03,2023-01-25_12h11.39.756,t1_Paradigm,2021.1.4,59.97544949926295,
K,left,Distractor,0,8,8,8,253.89220658066188,255.8946183651069,left,1,1,0.8471234065000317,D07I03,2023-01-25_12h11.39.756,t1_Paradigm,2021.1.4,59.97544949926295,
G,left,Pretarget,0,9,9,9,257.39228036496934,259.39392126380335,left,1,1,0.6275342503540742,D07I03,2023-01-25_12h11.39.756,t1_Paradigm,2021.1.4,59.97544949926295,
G,right,Target,0,10,10,10,260.8920888465718,262.892216204702,right,1,1,0.7291923441398467,D07I03,2023-01-25_12h11.39.756,t1_Paradigm,2021.1.4,59.97544949926295,
G,right,Target,0,11,11,11,264.3920638240679,266.3919027817965,right,1,1,0.669428980037992,D07I03,2023-01-25_12h11.39.756,t1_Paradigm,2021.1.4,59.97544949926295,
P,left,Pretarget,0,12,12,12,267.8922030518479,269.89398029124914,left,1,1,0.7353526921970115,D07I03,2023-01-25_12h11.39.756,t1_Paradigm,2021.1.4,59.97544949926295,
P,right,Target,0,13,13,13,271.39213536276566,273.3922280743518,right,1,1,0.6610939197244079,D07I03,2023-01-25_12h11.39.756,t1_Paradigm,2021.1.4,59.97544949926295,
G,left,Lure,0,14,14,14,274.8920580496433,276.89398029124914,left,1,1,0.8393436532987835,D07I03,2023-01-25_12h11.39.756,t1_Paradigm,2021.1.4,59.97544949926295,
Y,left,Distractor,0,15,15,15,278.3922187711132,280.3943184158579,left,1,1,0.7474032735854053,D07I03,2023-01-25_12h11.39.756,t1_Paradigm,2021.1.4,59.97544949926295,
B,left,Distractor,0,16,16,16,281.892182199761,283.8940370730861,left,1,1,0.8794021161338605,D07I03,2023-01-25_12h11.39.756,t1_Paradigm,2021.1.4,59.97544949926295,
T,left,Pretarget,0,17,17,17,285.3919932477738,287.3938949580943,left,1,1,0.819415795102941,D07I03,2023-01-25_12h11.39.756,t1_Paradigm,2021.1.4,59.97544949926295,
T,right,Target,0,18,18,18,288.8921879741847,290.8920503504114,right,1,1,0.9212605952661761,D07I03,2023-01-25_12h11.39.756,t1_Paradigm,2021.1.4,59.97544949926295,
S,left,Distractor,0,19,19,19,292.39205259602113,294.3946241395306,left,1,1,0.8270701149813249,D07I03,2023-01-25_12h11.39.756,t1_Paradigm,2021.1.4,59.97544949926295,
T,left,Lure,0,20,20,20,295.89200896703915,297.8926136775581,left,1,1,0.5446808892866102,D07I03,2023-01-25_12h11.39.756,t1_Paradigm,2021.1.4,59.97544949926295,
J,left,Distractor,0,21,21,21,299.3920615784582,301.3945763401316,left,1,1,0.4986853561249518,D07I03,2023-01-25_12h11.39.756,t1_Paradigm,2021.1.4,59.97544949926295,
P,left,Distractor,0,22,22,22,302.8920314231327,304.8934763123507,left,1,1,0.5517965837225347,D07I03,2023-01-25_12h11.39.756,t1_Paradigm,2021.1.4,59.97544949926295,
F,left,Distractor,0,23,23,23,306.39203559354974,308.3944140146559,left,1,1,0.5869028363331381,D07I03,2023-01-25_12h11.39.756,t1_Paradigm,2021.1.4,59.97544949926295,
L,left,Distractor,0,24,24,24,309.89204489678923,311.8932264081095,left,1,1,0.7361338434502613,D07I03,2023-01-25_12h11.39.756,t1_Paradigm,2021.1.4,59.97544949926295,
W,left,Pretarget,0,25,25,25,313.39188481692236,315.3944172226693,left,1,1,0.6588537639945571,D07I03,2023-01-25_12h11.39.756,t1_Paradigm,2021.1.4,59.97544949926295,
W,right,Target,0,26,26,26,316.8920785809287,318.89221909191474,right,1,1,0.9850140863863999,D07I03,2023-01-25_12h11.39.756,t1_Paradigm,2021.1.4,59.97544949926295,
V,left,Distractor,0,27,27,27,320.39210873625507,322.3935302069749,left,1,1,0.5878318770019177,D07I03,2023-01-25_12h11.39.756,t1_Paradigm,2021.1.4,59.97544949926295,
W,left,Lure,0,28,28,28,323.8919525060037,325.89351224209986,left,1,1,0.47987549058507284,D07I03,2023-01-25_12h11.39.756,t1_Paradigm,2021.1.4,59.97544949926295,
R,left,Pretarget,0,29,29,29,327.3919393531496,329.39370921412046,left,1,1,1.0116579205532616,D07I03,2023-01-25_12h11.39.756,t1_Paradigm,2021.1.4,59.97544949926295,
R,right,Target,0,30,30,30,330.89194448597027,332.8920516336166,right,1,1,0.6813024790881173,D07I03,2023-01-25_12h11.39.756,t1_Paradigm,2021.1.4,59.97544949926295,
G,left,Distractor,0,31,31,31,334.3920349519476,336.3944672676771,left,1,1,0.47493547081103316,D07I03,2023-01-25_12h11.39.756,t1_Paradigm,2021.1.4,59.97544949926295,
R,left,Lure,0,32,32,32,337.8919082354196,339.89323667375265,left,1,1,0.6560448274949522,D07I03,2023-01-25_12h11.39.756,t1_Paradigm,2021.1.4,59.97544949926295,
S,left,Distractor,0,33,33,33,341.39195956363346,343.3940598499803,left,1,1,0.43508873685732397,D07I03,2023-01-25_12h11.39.756,t1_Paradigm,2021.1.4,59.97544949926295,
R,left,Lure,0,34,34,34,344.8918411879404,346.89368034200015,left,1,1,0.7756196759009981,D07I03,2023-01-25_12h11.39.756,t1_Paradigm,2021.1.4,59.97544949926295,
P,left,Pretarget,0,35,35,35,348.3919011777898,350.39399376490564,left,1,1,0.5232523224412944,D07I03,2023-01-25_12h11.39.756,t1_Paradigm,2021.1.4,59.97544949926295,
P,right,Target,0,36,36,36,351.89208210974357,353.8919942101775,right,1,1,0.7690894439037947,D07I03,2023-01-25_12h11.39.756,t1_Paradigm,2021.1.4,59.97544949926295,
Y,left,Pretarget,0,37,37,37,355.391929408308,357.3924706001617,left,1,1,0.5968531313737913,D07I03,2023-01-25_12h11.39.756,t1_Paradigm,2021.1.4,59.97544949926295,
Y,right,Target,0,38,38,38,358.8916711632319,360.89188289211415,right,1,1,0.8093753548864697,D07I03,2023-01-25_12h11.39.756,t1_Paradigm,2021.1.4,59.97544949926295,
J,left,Distractor,0,39,39,39,362.39191753865816,364.39317123028013,left,1,1,0.4121928247004689,D07I03,2023-01-25_12h11.39.756,t1_Paradigm,2021.1.4,59.97544949926295,
Y,left,Lure,0,40,40,40,365.89183284710543,367.8937769032027,left,1,1,0.7192991517367773,D07I03,2023-01-25_12h11.39.756,t1_Paradigm,2021.1.4,59.97544949926295,
T,left,Distractor,0,41,41,41,369.3917844061043,371.3928571657716,left,1,1,0.7722997028740792,D07I03,2023-01-25_12h11.39.756,t1_Paradigm,2021.1.4,59.97544949926295,
V,left,Distractor,0,42,42,42,372.891881608909,374.89373423662437,left,1,1,0.4554288247700242,D07I03,2023-01-25_12h11.39.756,t1_Paradigm,2021.1.4,59.97544949926295,
N,left,Pretarget,0,43,43,43,376.3919695084751,378.3933996408314,left,1,1,0.5718193991133376,D07I03,2023-01-25_12h11.39.756,t1_Paradigm,2021.1.4,59.97544949926295,
N,right,Target,0,44,44,44,379.8914992137161,381.8918630024309,right,1,1,0.609346739407556,D07I03,2023-01-25_12h11.39.756,t1_Paradigm,2021.1.4,59.97544949926295,
N,right,Target,0,45,45,45,383.3918517743841,385.39186556884215,right,1,1,0.7253523521476382,D07I03,2023-01-25_12h11.39.756,t1_Paradigm,2021.1.4,59.97544949926295,
X,left,Distractor,0,46,46,46,386.89186204002726,388.8945766609331,left,1,1,0.6626915103779538,D07I03,2023-01-25_12h11.39.756,t1_Paradigm,2021.1.4,59.97544949926295,
Z,left,Distractor,0,47,47,47,390.3907398769534,392.39323827775934,left,1,1,0.5238608825757183,D07I03,2023-01-25_12h11.39.756,t1_Paradigm,2021.1.4,59.97544949926295,
H,left,Pretarget,0,48,48,48,393.8917459099439,395.89323442814293,left,1,1,0.5597829329835804,D07I03,2023-01-25_12h11.39.756,t1_Paradigm,2021.1.4,59.97544949926295,
H,right,Target,0,49,49,49,397.39177799007757,399.39195154360004,right,1,1,0.42113772835455165,D07I03,2023-01-25_12h11.39.756,t1_Paradigm,2021.1.4,59.97544949926295,
K,left,Distractor,0,50,50,50,400.8917821604946,402.8938955996964,left,1,1,0.8071878105756696,D07I03,2023-01-25_12h11.39.756,t1_Paradigm,2021.1.4,59.97544949926295,
V,left,Pretarget,0,51,51,51,404.39176259161286,406.3938818052393,left,1,1,0.8431826828873454,D07I03,2023-01-25_12h11.39.756,t1_Paradigm,2021.1.4,59.97544949926295,
V,right,Target,0,52,52,52,407.8918418295434,409.89157139401686,right,1,1,0.5935485568106742,D07I03,2023-01-25_12h11.39.756,t1_Paradigm,2021.1.4,59.97544949926295,
R,left,Distractor,0,53,53,53,411.3917648372226,413.3933906583934,left,1,1,0.5958063566140481,D07I03,2023-01-25_12h11.39.756,t1_Paradigm,2021.1.4,59.97544949926295,
V,left,Lure,0,54,54,54,414.8915819804606,416.8938208529853,left,1,1,0.4392774399029804,D07I03,2023-01-25_12h11.39.756,t1_Paradigm,2021.1.4,59.97544949926295,
Y,left,Distractor,0,55,55,55,418.3918665312458,420.3938554995293,left,1,1,0.6511259806093221,D07I03,2023-01-25_12h11.39.756,t1_Paradigm,2021.1.4,59.97544949926295,
Q,left,Distractor,0,56,56,56,421.8918565864042,423.8924664297447,left,1,1,0.7046013177241548,D07I03,2023-01-25_12h11.39.756,t1_Paradigm,2021.1.4,59.97544949926295,
Z,left,Pretarget,0,57,57,57,425.39171094259837,427.39423115789396,left,1,1,0.5948609550769106,D07I03,2023-01-25_12h11.39.756,t1_Paradigm,2021.1.4,59.97544949926295,
Z,right,Target,0,58,58,58,428.891711263399,430.8916977897434,right,1,1,0.6654917852401923,D07I03,2023-01-25_12h11.39.756,t1_Paradigm,2021.1.4,59.97544949926295,
B,left,Distractor,0,59,59,59,432.3918742304777,434.3919217090761,left,1,1,0.46087699386043823,D07I03,2023-01-25_12h11.39.756,t1_Paradigm,2021.1.4,59.97544949926295,
S,left,Pretarget,0,60,60,60,435.89175842119585,437.891175845969,left,1,1,0.49794238023059734,D07I03,2023-01-25_12h11.39.756,t1_Paradigm,2021.1.4,59.97544949926295,
S,right,Target,0,61,61,61,439.39145269752225,441.39180076697176,left,0,1,0.4851010235488502,D07I03,2023-01-25_12h11.39.756,t1_Paradigm,2021.1.4,59.97544949926295,
T,left,Distractor,0,62,62,62,442.89169394012697,444.89301339602207,left,1,1,1.4159202154241939,D07I03,2023-01-25_12h11.39.756,t1_Paradigm,2021.1.4,59.97544949926295,
D,left,Distractor,0,63,63,63,446.39172762426733,448.3931481325835,left,1,1,0.6997617087672552,D07I03,2023-01-25_12h11.39.756,t1_Paradigm,2021.1.4,59.97544949926295,
R,left,Distractor,0,0,0,0,465.0904765632167,467.09320594098426,None,0,1,,D07I03,2023-01-25_12h11.39.756,t1_Paradigm,2021.1.4,59.97544949926295,
V,left,Distractor,0,1,1,1,468.5917363500639,470.59358416575924,left,1,1,0.6756980797472352,D07I03,2023-01-25_12h11.39.756,t1_Paradigm,2021.1.4,59.97544949926295,
N,left,Pretarget,0,2,2,2,472.09072358024605,474.0920934019505,left,1,1,0.7130361472527511,D07I03,2023-01-25_12h11.39.756,t1_Paradigm,2021.1.4,59.97544949926295,
N,right,Target,0,3,3,3,475.59164171366956,477.59136037089775,right,1,1,0.7656215814604366,D07I03,2023-01-25_12h11.39.756,t1_Paradigm,2021.1.4,59.97544949926295,
S,left,Distractor,0,4,4,4,479.0916064255225,481.0934013089982,left,1,1,0.719420735444146,D07I03,2023-01-25_12h11.39.756,t1_Paradigm,2021.1.4,59.97544949926295,
N,left,Lure,0,5,5,5,482.5912599600797,484.59249889484,left,1,1,0.9164889961930385,D07I03,2023-01-25_12h11.39.756,t1_Paradigm,2021.1.4,59.97544949926295,
Z,left,Distractor,0,6,6,6,486.09161091674105,488.09274494946476,left,1,1,0.7283361253739713,D07I03,2023-01-25_12h11.39.756,t1_Paradigm,2021.1.4,59.97544949926295,
L,left,Pretarget,0,7,7,7,489.5916304856228,491.59303719948184,left,1,1,0.6998120745774941,D07I03,2023-01-25_12h11.39.756,t1_Paradigm,2021.1.4,59.97544949926295,
L,right,Target,0,8,8,8,493.0916385056562,495.0913898846211,right,1,1,0.6575731250604804,D07I03,2023-01-25_12h11.39.756,t1_Paradigm,2021.1.4,59.97544949926295,
H,left,Distractor,0,9,9,9,496.5913513884607,498.59332046706095,left,1,1,0.6758559140043872,D07I03,2023-01-25_12h11.39.756,t1_Paradigm,2021.1.4,59.97544949926295,
L,left,Lure,0,10,10,10,500.0915473980767,502.0931854096989,left,1,1,0.6156161599183179,D07I03,2023-01-25_12h11.39.756,t1_Paradigm,2021.1.4,59.97544949926295,
X,left,Pretarget,0,11,11,11,503.59185344255184,505.5929849088634,left,1,1,0.5878966788723119,D07I03,2023-01-25_12h11.39.756,t1_Paradigm,2021.1.4,59.97544949926295,
X,right,Target,0,12,12,12,507.09149061624066,509.09157274138215,right,1,1,0.7371960166738063,D07I03,2023-01-25_12h11.39.756,t1_Paradigm,2021.1.4,59.97544949926295,
X,right,Target,0,13,13,13,510.59127824575626,512.5917013827184,right,1,1,0.6133172975432899,D07I03,2023-01-25_12h11.39.756,t1_Paradigm,2021.1.4,59.97544949926295,
R,left,Distractor,0,14,14,14,514.0916487712993,516.0933143718357,left,1,1,0.679638803359012,D07I03,2023-01-25_12h11.39.756,t1_Paradigm,2021.1.4,59.97544949926295,
T,left,Distractor,0,15,15,15,517.5915435484612,519.5934250482969,left,1,1,0.5554877238955669,D07I03,2023-01-25_12h11.39.756,t1_Paradigm,2021.1.4,59.97544949926295,
V,left,Pretarget,0,16,16,16,521.0915053731014,523.0934683564774,left,1,1,0.6234687350224704,D07I03,2023-01-25_12h11.39.756,t1_Paradigm,2021.1.4,59.97544949926295,
V,right,Target,0,17,17,17,524.59165871614,526.5914918994458,right,1,1,0.8535160147230272,D07I03,2023-01-25_12h11.39.756,t1_Paradigm,2021.1.4,59.97544949926295,
N,left,Distractor,0,18,18,18,528.0914720097626,530.0935799953422,left,1,1,0.535161430440894,D07I03,2023-01-25_12h11.39.756,t1_Paradigm,2021.1.4,59.97544949926295,
B,left,Distractor,0,19,19,19,531.5915172427513,533.5926410098318,left,1,1,0.49228825668251375,D07I03,2023-01-25_12h11.39.756,t1_Paradigm,2021.1.4,59.97544949926295,
V,left,Lure,0,20,20,20,535.0916266360073,537.0933358655257,left,1,1,0.9434468948675203,D07I03,2023-01-25_12h11.39.756,t1_Paradigm,2021.1.4,59.97544949926295,
P,left,Distractor,0,21,21,21,538.5915085811148,540.5929047085301,left,1,1,0.5959693236927706,D07I03,2023-01-25_12h11.39.756,t1_Paradigm,2021.1.4,59.97544949926295,
K,left,Pretarget,0,22,22,22,542.0914325511985,544.0924071456575,left,1,1,0.5842806062119053,D07I03,2023-01-25_12h11.39.756,t1_Paradigm,2021.1.4,59.97544949926295,
K,right,Target,0,23,23,23,545.5915117891282,547.5913773733691,right,1,1,0.79747137970935,D07I03,2023-01-25_12h11.39.756,t1_Paradigm,2021.1.4,59.97544949926295,
J,left,Pretarget,0,24,24,24,549.0914245311651,551.0935969978127,left,1,1,0.5431670277821468,D07I03,2023-01-25_12h11.39.756,t1_Paradigm,2021.1.4,59.97544949926295,
J,right,Target,0,25,25,25,552.59114960442,554.5914777841872,right,1,1,0.5813735045039721,D07I03,2023-01-25_12h11.39.756,t1_Paradigm,2021.1.4,59.97544949926295,
H,left,Distractor,0,26,26,26,556.0911386971748,558.0933102014187,left,1,1,0.4235543248187241,D07I03,2023-01-25_12h11.39.756,t1_Paradigm,2021.1.4,59.97544949926295,
J,left,Lure,0,27,27,27,559.5914928618495,561.593639022788,left,1,1,0.923235769092571,D07I03,2023-01-25_12h11.39.756,t1_Paradigm,2021.1.4,59.97544949926295,
V,left,Distractor,0,28,28,28,563.0914976738695,565.0933788529046,left,1,1,0.5592879365221961,D07I03,2023-01-25_12h11.39.756,t1_Paradigm,2021.1.4,59.97544949926295,
Z,left,Pretarget,0,29,29,29,566.5915015234859,568.591467518544,left,1,1,0.5813731837033629,D07I03,2023-01-25_12h11.39.756,t1_Paradigm,2021.1.4,59.97544949926295,
Z,right,Target,0,30,30,30,570.091332461182,572.091388601415,right,1,1,0.5533107660285168,D07I03,2023-01-25_12h11.39.756,t1_Paradigm,2021.1.4,59.97544949926295,
T,left,Distractor,0,31,31,31,573.5910613840524,575.5935350831551,left,1,1,0.5711944781105558,D07I03,2023-01-25_12h11.39.756,t1_Paradigm,2021.1.4,59.97544949926295,
Z,left,Lure,0,32,32,32,577.0913735237527,579.1073417310572,left,1,1,0.6573225792171797,D07I03,2023-01-25_12h11.39.756,t1_Paradigm,2021.1.4,59.97544949926295,
F,left,Distractor,0,33,33,33,580.5913558796792,582.592372178312,left,1,1,0.6285014663826587,D07I03,2023-01-25_12h11.39.756,t1_Paradigm,2021.1.4,59.97544949926295,
Y,left,Pretarget,0,34,34,34,584.0914216439533,586.0923054516343,left,1,1,0.7601352370111272,D07I03,2023-01-25_12h11.39.756,t1_Paradigm,2021.1.4,59.97544949926295,
Y,right,Target,0,35,35,35,587.5914688017492,589.5915159595461,right,1,1,0.7972798613109262,D07I03,2023-01-25_12h11.39.756,t1_Paradigm,2021.1.4,59.97544949926295,
Y,right,Target,0,36,36,36,591.0913404812154,593.0914331928016,right,1,1,0.5774988659677547,D07I03,2023-01-25_12h11.39.756,t1_Paradigm,2021.1.4,59.97544949926295,
W,left,Distractor,0,37,37,37,594.591383789395,596.5931401767102,left,1,1,0.5154995165521541,D07I03,2023-01-25_12h11.39.756,t1_Paradigm,2021.1.4,59.97544949926295,
Q,left,Distractor,0,38,38,38,598.091070687291,600.0928982925034,left,1,1,0.6157188163460887,D07I03,2023-01-25_12h11.39.756,t1_Paradigm,2021.1.4,59.97544949926295,
P,left,Pretarget,0,39,39,39,601.591414907125,603.5925373909995,left,1,1,0.668148661905434,D07I03,2023-01-25_12h11.39.756,t1_Paradigm,2021.1.4,59.97544949926295,
P,right,Target,0,40,40,40,605.0910604216488,607.0913478596458,right,1,1,0.7050963141855391,D07I03,2023-01-25_12h11.39.756,t1_Paradigm,2021.1.4,59.97544949926295,
J,left,Distractor,0,41,41,41,608.5913725613491,610.5939598241239,left,1,1,0.5306904222188678,D07I03,2023-01-25_12h11.39.756,t1_Paradigm,2021.1.4,59.97544949926295,
P,left,Lure,0,42,42,42,612.0911415843866,614.093086282086,left,1,1,0.6956795117666843,D07I03,2023-01-25_12h11.39.756,t1_Paradigm,2021.1.4,59.97544949926295,
L,left,Distractor,0,43,43,43,615.5914068870916,617.5924459626194,left,1,1,0.7803014505998362,D07I03,2023-01-25_12h11.39.756,t1_Paradigm,2021.1.4,59.97544949926295,
Z,left,Distractor,0,44,44,44,619.0911242611146,621.0930808284629,left,1,1,0.607591956098986,D07I03,2023-01-25_12h11.39.756,t1_Paradigm,2021.1.4,59.97544949926295,
F,left,Pretarget,0,45,45,45,622.5912516192448,624.5932187730377,left,1,1,0.9476234074618333,D07I03,2023-01-25_12h11.39.756,t1_Paradigm,2021.1.4,59.97544949926295,
F,right,Target,0,46,46,46,626.0913051930684,628.091266696908,right,1,1,0.761234623189921,D07I03,2023-01-25_12h11.39.756,t1_Paradigm,2021.1.4,59.97544949926295,
G,left,Pretarget,0,47,47,47,629.5914084910983,631.5931635952084,left,1,1,0.5235208331596368,D07I03,2023-01-25_12h11.39.756,t1_Paradigm,2021.1.4,59.97544949926295,
G,right,Target,0,48,48,48,633.0912692633183,635.0911820053552,right,1,1,0.5935270631216554,D07I03,2023-01-25_12h11.39.756,t1_Paradigm,2021.1.4,59.97544949926295,
V,left,Distractor,0,49,49,49,636.5913882806144,638.5927343630201,left,1,1,0.5639777312544538,D07I03,2023-01-25_12h11.39.756,t1_Paradigm,2021.1.4,59.97544949926295,
G,left,Lure,0,50,50,50,640.091383789395,642.0925098020853,left,1,1,0.599928653783536,D07I03,2023-01-25_12h11.39.756,t1_Paradigm,2021.1.4,59.97544949926295,
Q,left,Pretarget,0,51,51,51,643.5912933234185,645.5926891300323,left,1,1,0.8761671554611894,D07I03,2023-01-25_12h11.39.756,t1_Paradigm,2021.1.4,59.97544949926295,
Q,right,Target,0,52,52,52,647.0911948374087,649.091228521549,right,1,1,0.7051235822991657,D07I03,2023-01-25_12h11.39.756,t1_Paradigm,2021.1.4,59.97544949926295,
Y,left,Distractor,0,53,53,53,650.5912760001465,652.5929871544731,left,1,1,0.4996253040399097,D07I03,2023-01-25_12h11.39.756,t1_Paradigm,2021.1.4,59.97544949926295,
V,left,Distractor,0,54,54,54,654.0912448824165,656.0930699212176,left,1,1,0.7116162805396016,D07I03,2023-01-25_12h11.39.756,t1_Paradigm,2021.1.4,59.97544949926295,
B,left,Distractor,0,55,55,55,657.590966747659,659.593307955809,left,1,1,0.603232265942097,D07I03,2023-01-25_12h11.39.756,t1_Paradigm,2021.1.4,59.97544949926295,
J,left,Pretarget,0,56,56,56,661.091245203218,663.093229680283,left,1,1,0.5755220881346759,D07I03,2023-01-25_12h11.39.756,t1_Paradigm,2021.1.4,59.97544949926295,
J,right,Target,0,57,57,57,664.5911560204468,666.591206386257,right,1,1,0.7254126627985897,D07I03,2023-01-25_12h11.39.756,t1_Paradigm,2021.1.4,59.97544949926295,
H,left,Distractor,0,58,58,58,668.0910267375084,670.0936848973788,left,1,1,0.6147734148080417,D07I03,2023-01-25_12h11.39.756,t1_Paradigm,2021.1.4,59.97544949926295,
J,left,Lure,0,59,59,59,671.5909144570405,673.59312092863,left,1,1,0.587386604747735,D07I03,2023-01-25_12h11.39.756,t1_Paradigm,2021.1.4,59.97544949926295,
D,left,Pretarget,0,60,60,60,675.0911694941033,677.0910216046868,left,1,1,0.5135634804892106,D07I03,2023-01-25_12h11.39.756,t1_Paradigm,2021.1.4,59.97544949926295,
D,right,Target,0,61,61,61,678.5910196798786,680.5911370931681,right,1,1,0.6296438399403996,D07I03,2023-01-25_12h11.39.756,t1_Paradigm,2021.1.4,59.97544949926295,
R,left,Distractor,0,62,62,62,682.090957765221,684.0924196569094,left,1,1,0.6483433498206068,D07I03,2023-01-25_12h11.39.756,t1_Paradigm,2021.1.4,59.97544949926295,
F,left,Distractor,0,63,63,63,685.591275679345,687.5913417644206,left,1,1,0.5891689769705408,D07I03,2023-01-25_12h11.39.756,t1_Paradigm,2021.1.4,59.97544949926295,
F,left,Distractor,0,0,0,0,938.7616227928074,940.7739361104896,left,1,2,1.2779939265892608,D07I03,2023-01-25_12h11.39.756,t1_Paradigm,2021.1.4,59.97544949926295,
N,left,Pretarget,0,1,1,1,942.2740727718583,944.2754496511925,left,1,2,0.8966637944249669,D07I03,2023-01-25_12h11.39.756,t1_Paradigm,2021.1.4,59.97544949926295,
V,left,Distractor,0,2,2,2,945.7739848722931,947.7751211506247,left,1,2,1.1729202609767526,D07I03,2023-01-25_12h11.39.756,t1_Paradigm,2021.1.4,59.97544949926295,
N,right,Target,0,3,3,3,949.2739078799723,951.2756568888553,right,1,2,1.2723651463475107,D07I03,2023-01-25_12h11.39.756,t1_Paradigm,2021.1.4,59.97544949926295,
N,left,Lure,0,4,4,4,952.7740548069842,954.7740147068171,None,0,2,,D07I03,2023-01-25_12h11.39.756,t1_Paradigm,2021.1.4,59.97544949926295,
X,left,Distractor,0,5,5,5,956.2738905566994,958.2752010301583,None,0,2,,D07I03,2023-01-25_12h11.39.756,t1_Paradigm,2021.1.4,59.97544949926295,
G,left,Pretarget,0,6,6,6,959.773914295999,961.7762099503589,left,1,2,1.0919506453556096,D07I03,2023-01-25_12h11.39.756,t1_Paradigm,2021.1.4,59.97544949926295,
H,left,Pretarget,0,7,7,7,963.2739867971004,965.2752690400403,left,1,2,1.0650386212728336,D07I03,2023-01-25_12h11.39.756,t1_Paradigm,2021.1.4,59.97544949926295,
G,right,Target,0,8,8,8,966.7740506365672,968.7760072039155,right,1,2,0.6039033823362843,D07I03,2023-01-25_12h11.39.756,t1_Paradigm,2021.1.4,59.97544949926295,
H,right,Target,0,9,9,9,970.2736704869831,972.2756353951672,right,1,2,1.3284299918450415,D07I03,2023-01-25_12h11.39.756,t1_Paradigm,2021.1.4,59.97544949926295,
T,left,Pretarget,0,10,10,10,973.7737808426418,975.7756735705252,left,1,2,1.2042625515132386,D07I03,2023-01-25_12h11.39.756,t1_Paradigm,2021.1.4,59.97544949926295,
K,left,Distractor,0,11,11,11,977.2738645717918,979.2759154547321,None,0,2,,D07I03,2023-01-25_12h11.39.756,t1_Paradigm,2021.1.4,59.97544949926295,
T,right,Target,0,12,12,12,980.773913012793,982.7749456722931,None,0,2,,D07I03,2023-01-25_12h11.39.756,t1_Paradigm,2021.1.4,59.97544949926295,
T,left,Lure,0,13,13,13,984.273769614595,986.2737962411074,left,1,2,0.9625416319940996,D07I03,2023-01-25_12h11.39.756,t1_Paradigm,2021.1.4,59.97544949926295,
J,left,Distractor,0,14,14,14,987.7735251639779,989.7752128998063,left,1,2,0.996767926539178,D07I03,2023-01-25_12h11.39.756,t1_Paradigm,2021.1.4,59.97544949926295,
Q,left,Pretarget,0,15,15,15,991.2737702561981,993.2737680105884,left,1,2,1.002044146114713,D07I03,2023-01-25_12h11.39.756,t1_Paradigm,2021.1.4,59.97544949926295,
M,left,Distractor,0,16,16,16,994.773792391491,996.7770883044168,left,1,2,0.8588458081212593,D07I03,2023-01-25_12h11.39.756,t1_Paradigm,2021.1.4,59.97544949926295,
Q,right,Target,0,17,17,17,998.2738581557651,1000.275054423947,right,1,2,0.6728795192084362,D07I03,2023-01-25_12h11.39.756,t1_Paradigm,2021.1.4,59.97544949926295,
R,left,Distractor,0,18,18,18,1001.7738992183358,1003.7752042381717,left,1,2,1.316426889054128,D07I03,2023-01-25_12h11.39.756,t1_Paradigm,2021.1.4,59.97544949926295,
W,left,Distractor,0,19,19,19,1005.273400372259,1007.2756151846816,None,0,2,,D07I03,2023-01-25_12h11.39.756,t1_Paradigm,2021.1.4,59.97544949926295,
C,left,Pretarget,0,20,20,20,1008.7735065575007,1010.7752728896567,None,0,2,,D07I03,2023-01-25_12h11.39.756,t1_Paradigm,2021.1.4,59.97544949926295,
T,left,Distractor,0,21,21,21,1012.2734064674833,1014.272716103008,left,1,2,1.1390638503726223,D07I03,2023-01-25_12h11.39.756,t1_Paradigm,2021.1.4,59.97544949926295,
C,right,Target,0,22,22,22,1015.7735338256143,1017.7756899313945,right,1,2,1.236079948825136,D07I03,2023-01-25_12h11.39.756,t1_Paradigm,2021.1.4,59.97544949926295,
F,left,Pretarget,0,23,23,23,1019.2738356996715,1021.2864188112771,left,1,2,1.0695077046857477,D07I03,2023-01-25_12h11.39.756,t1_Paradigm,2021.1.4,59.97544949926295,
C,right,Target,0,24,24,24,1022.7737378552638,1024.7754031349987,right,1,2,0.5564514111083554,D07I03,2023-01-25_12h11.39.756,t1_Paradigm,2021.1.4,59.97544949926295,
F,right,Target,0,25,25,25,1026.273699679904,1028.2743268465174,right,1,2,0.7214036085006228,D07I03,2023-01-25_12h11.39.756,t1_Paradigm,2021.1.4,59.97544949926295,
H,left,Distractor,0,26,26,26,1029.7737494041112,1031.7746377030116,left,1,2,0.4531014110780234,D07I03,2023-01-25_12h11.39.756,t1_Paradigm,2021.1.4,59.97544949926295,
H,left,Lure,0,27,27,27,1033.273426036364,1035.2738302460484,left,1,2,1.3379042177039082,D07I03,2023-01-25_12h11.39.756,t1_Paradigm,2021.1.4,59.97544949926295,
P,left,Distractor,0,28,28,28,1036.7735829082185,1038.7749164793722,left,1,2,1.4368091944234038,D07I03,2023-01-25_12h11.39.756,t1_Paradigm,2021.1.4,59.97544949926295,
G,left,Pretarget,0,29,29,29,1040.2734491340607,1042.2743999892218,left,1,2,0.8814568486923235,D07I03,2023-01-25_12h11.39.756,t1_Paradigm,2021.1.4,59.97544949926295,
K,left,Distractor,0,30,30,30,1043.7736714493867,1045.774832108621,left,1,2,0.6449640285463829,D07I03,2023-01-25_12h11.39.756,t1_Paradigm,2021.1.4,59.97544949926295,
G,right,Target,0,31,31,31,1047.2734924422411,1049.275398643781,right,1,2,0.9202715647461446,D07I03,2023-01-25_12h11.39.756,t1_Paradigm,2021.1.4,59.97544949926295,
M,left,Pretarget,0,32,32,32,1050.7733407032092,1052.7742453629771,left,1,2,1.0854027692839736,D07I03,2023-01-25_12h11.39.756,t1_Paradigm,2021.1.4,59.97544949926295,
B,left,Distractor,0,33,33,33,1054.2736894142627,1056.275279626484,left,1,2,1.1044862783637655,D07I03,2023-01-25_12h11.39.756,t1_Paradigm,2021.1.4,59.97544949926295,
M,right,Target,0,34,34,34,1057.7736092139285,1059.7755625732634,right,1,2,0.6601311949143565,D07I03,2023-01-25_12h11.39.756,t1_Paradigm,2021.1.4,59.97544949926295,
M,left,Lure,0,35,35,35,1061.2736104971327,1063.273670486983,left,1,2,1.226097573651714,D07I03,2023-01-25_12h11.39.756,t1_Paradigm,2021.1.4,59.97544949926295,
T,left,Distractor,0,36,36,36,1064.773599910689,1066.7757059714613,None,0,2,,D07I03,2023-01-25_12h11.39.756,t1_Paradigm,2021.1.4,59.97544949926295,
F,left,Distractor,0,37,37,37,1068.2736201211728,1070.2761717750009,left,1,2,1.1675388185667543,D07I03,2023-01-25_12h11.39.756,t1_Paradigm,2021.1.4,59.97544949926295,
X,left,Distractor,0,38,38,38,1071.7733516104554,1073.7736624669496,left,1,2,1.0942568861610198,D07I03,2023-01-25_12h11.39.756,t1_Paradigm,2021.1.4,59.97544949926295,
C,left,Distractor,0,39,39,39,1075.273604081106,1077.2740339548973,left,1,2,1.066005837301418,D07I03,2023-01-25_12h11.39.756,t1_Paradigm,2021.1.4,59.97544949926295,
R,left,Distractor,0,40,40,40,1078.7735123319244,1080.774845261475,left,1,2,0.8129388161269162,D07I03,2023-01-25_12h11.39.756,t1_Paradigm,2021.1.4,59.97544949926295,
B,left,Pretarget,0,41,41,41,1082.2733695753295,1084.2746935224432,left,1,2,0.8169494744306576,D07I03,2023-01-25_12h11.39.756,t1_Paradigm,2021.1.4,59.97544949926295,
H,left,Distractor,0,42,42,42,1085.7735854746288,1087.7752606992062,left,1,2,1.0446337314915581,D07I03,2023-01-25_12h11.39.756,t1_Paradigm,2021.1.4,59.97544949926295,
B,right,Target,0,43,43,43,1089.2733355703886,1091.2756402071873,right,1,2,1.0480162607782404,D07I03,2023-01-25_12h11.39.756,t1_Paradigm,2021.1.4,59.97544949926295,
W,left,Pretarget,0,44,44,44,1092.7734898758308,1094.77574927964,left,1,2,0.9879593634541379,D07I03,2023-01-25_12h11.39.756,t1_Paradigm,2021.1.4,59.97544949926295,
L,left,Pretarget,0,45,45,45,1096.2735027078843,1098.2753248594736,left,1,2,0.784266555112481,D07I03,2023-01-25_12h11.39.756,t1_Paradigm,2021.1.4,59.97544949926295,
W,right,Target,0,46,46,46,1099.7733339663819,1101.7743114480518,left,0,2,0.9493278249592549,D07I03,2023-01-25_12h11.39.756,t1_Paradigm,2021.1.4,59.97544949926295,
L,right,Target,0,47,47,47,1103.273256332458,1105.2754884681553,None,0,2,,D07I03,2023-01-25_12h11.39.756,t1_Paradigm,2021.1.4,59.97544949926295,
W,right,Target,0,48,48,48,1106.7732191195037,1108.7757220115263,right,1,2,1.164112660297178,D07I03,2023-01-25_12h11.39.756,t1_Paradigm,2021.1.4,59.97544949926295,
X,left,Distractor,0,49,49,49,1110.2733147183017,1112.2741282704892,left,1,2,1.1214348545527173,D07I03,2023-01-25_12h11.39.756,t1_Paradigm,2021.1.4,59.97544949926295,
R,left,Distractor,0,50,50,50,1113.7733285127588,1115.7735293343949,left,1,2,1.0620875697841257,D07I03,2023-01-25_12h11.39.756,t1_Paradigm,2021.1.4,59.97544949926295,
V,left,Pretarget,0,51,51,51,1117.2735325424082,1119.275358543614,left,1,2,0.6482907384015562,D07I03,2023-01-25_12h11.39.756,t1_Paradigm,2021.1.4,59.97544949926295,
Z,left,Distractor,0,52,52,52,1120.773544412058,1122.7749812812426,left,1,2,1.0845491169311572,D07I03,2023-01-25_12h11.39.756,t1_Paradigm,2021.1.4,59.97544949926295,
V,right,Target,0,53,53,53,1124.2733862569994,1126.275118905015,right,1,2,0.5606195828677301,D07I03,2023-01-25_12h11.39.756,t1_Paradigm,2021.1.4,59.97544949926295,
V,left,Lure,0,54,54,54,1127.7735116903214,1129.7736396900555,left,1,2,0.869900301360758,D07I03,2023-01-25_12h11.39.756,t1_Paradigm,2021.1.4,59.97544949926295,
N,left,Distractor,0,55,55,55,1131.2734670989366,1133.2750152861836,left,1,2,0.744869263831788,D07I03,2023-01-25_12h11.39.756,t1_Paradigm,2021.1.4,59.97544949926295,
B,left,Distractor,0,56,56,56,1134.7732024378338,1136.7748831160343,left,1,2,0.9247807483261568,D07I03,2023-01-25_12h11.39.756,t1_Paradigm,2021.1.4,59.97544949926295,
V,left,Lure,0,57,57,57,1138.273199550621,1140.2741321201056,left,1,2,0.9454961738028942,D07I03,2023-01-25_12h11.39.756,t1_Paradigm,2021.1.4,59.97544949926295,
J,left,Distractor,0,58,58,58,1141.7731633000703,1143.7749758276195,left,1,2,0.820559131065238,D07I03,2023-01-25_12h11.39.756,t1_Paradigm,2021.1.4,59.97544949926295,
H,left,Distractor,0,59,59,59,1145.273452342074,1147.2745424250143,left,1,2,0.8410897749708965,D07I03,2023-01-25_12h11.39.756,t1_Paradigm,2021.1.4,59.97544949926295,
X,left,Pretarget,0,60,60,60,1148.7732948286184,1150.774888890458,left,1,2,1.4366154304170777,D07I03,2023-01-25_12h11.39.756,t1_Paradigm,2021.1.4,59.97544949926295,
P,left,Distractor,0,61,61,61,1152.2731453351962,1154.274045824547,left,1,2,1.009509514004094,D07I03,2023-01-25_12h11.39.756,t1_Paradigm,2021.1.4,59.97544949926295,
X,right,Target,0,62,62,62,1155.773561735331,1157.7756915354012,right,1,2,0.72392959822173,D07I03,2023-01-25_12h11.39.756,t1_Paradigm,2021.1.4,59.97544949926295,
Q,left,Distractor,0,63,63,63,1159.273399730656,1161.2752610200068,left,1,2,0.6482208037105011,D07I03,2023-01-25_12h11.39.756,t1_Paradigm,2021.1.4,59.97544949926295,
B,left,Pretarget,0,0,0,0,1192.2180807482628,1194.2251111095438,left,1,2,0.8822999146032089,D07I03,2023-01-25_12h11.39.756,t1_Paradigm,2021.1.4,59.97544949926295,
F,left,Distractor,0,1,1,1,1195.7231522965858,1197.7234416593901,left,1,2,0.6162568001873296,D07I03,2023-01-25_12h11.39.756,t1_Paradigm,2021.1.4,59.97544949926295,
B,right,Target,0,2,2,2,1199.223148126167,1201.2253135351866,right,1,2,0.6500246696232352,D07I03,2023-01-25_12h11.39.756,t1_Paradigm,2021.1.4,59.97544949926295,
V,left,Distractor,0,3,3,3,1202.7231073843986,1204.725133244835,left,1,2,0.7502410822035017,D07I03,2023-01-25_12h11.39.756,t1_Paradigm,2021.1.4,59.97544949926295,
G,left,Pretarget,0,4,4,4,1206.2234060504425,1208.2239109917455,left,1,2,0.9159003257409495,D07I03,2023-01-25_12h11.39.756,t1_Paradigm,2021.1.4,59.97544949926295,
B,left,Lure,0,5,5,5,1209.7232812587217,1211.7243860985227,left,1,2,1.126942692690136,D07I03,2023-01-25_12h11.39.756,t1_Paradigm,2021.1.4,59.97544949926295,
G,right,Target,0,6,6,6,1213.223362100659,1215.2232196648647,right,1,2,0.5719313587796933,D07I03,2023-01-25_12h11.39.756,t1_Paradigm,2021.1.4,59.97544949926295,
Y,left,Pretarget,0,7,7,7,1216.723428506536,1218.7252673397934,left,1,2,1.022204264476386,D07I03,2023-01-25_12h11.39.756,t1_Paradigm,2021.1.4,59.97544949926295,
P,left,Distractor,0,8,8,8,1220.2232514241978,1222.2253699962212,left,1,2,1.122081269242699,D07I03,2023-01-25_12h11.39.756,t1_Paradigm,2021.1.4,59.97544949926295,
Y,right,Target,0,9,9,9,1223.7233133388554,1225.7253452945179,right,1,2,0.6941412693595339,D07I03,2023-01-25_12h11.39.756,t1_Paradigm,2021.1.4,59.97544949926295,
X,left,Distractor,0,10,10,10,1227.223357930242,1229.2248130851012,left,1,2,0.9865760680931999,D07I03,2023-01-25_12h11.39.756,t1_Paradigm,2021.1.4,59.97544949926295,
Y,right,Target,0,11,11,11,1230.7232039456003,1232.7232430833637,right,1,2,0.5607995524187572,D07I03,2023-01-25_12h11.39.756,t1_Paradigm,2021.1.4,59.97544949926295,
N,left,Distractor,0,12,12,12,1234.2232244768848,1236.2237996736812,left,1,2,0.9637269929298782,D07I03,2023-01-25_12h11.39.756,t1_Paradigm,2021.1.4,59.97544949926295,
Y,right,Target,0,13,13,13,1237.7232440457674,1239.7236306113764,left,0,2,1.0638388242768997,D07I03,2023-01-25_12h11.39.756,t1_Paradigm,2021.1.4,59.97544949926295,
Y,left,Lure,0,14,14,14,1241.2230294296724,1243.22320137919,left,1,2,1.32421337908454,D07I03,2023-01-25_12h11.39.756,t1_Paradigm,2021.1.4,59.97544949926295,
K,left,Distractor,0,15,15,15,1244.7233457397897,1246.7251104679408,None,0,2,,D07I03,2023-01-25_12h11.39.756,t1_Paradigm,2021.1.4,59.97544949926295,
T,left,Pretarget,0,16,16,16,1248.2232571986215,1250.2242253770537,left,1,2,0.9632284676536074,D07I03,2023-01-25_12h11.39.756,t1_Paradigm,2021.1.4,59.97544949926295,
J,left,Distractor,0,17,17,17,1251.7232546322111,1253.7250379668376,left,1,2,1.0943258584484283,D07I03,2023-01-25_12h11.39.756,t1_Paradigm,2021.1.4,59.97544949926295,
T,right,Target,0,18,18,18,1255.2229238860336,1257.2238923852665,right,1,2,1.2755179818777833,D07I03,2023-01-25_12h11.39.756,t1_Paradigm,2021.1.4,59.97544949926295,
S,left,Pretarget,0,19,19,19,1258.7231872639304,1260.7246013562208,left,1,2,0.6067812911223882,D07I03,2023-01-25_12h11.39.756,t1_Paradigm,2021.1.4,59.97544949926295,
R,left,Distractor,0,20,20,20,1262.2230910235294,1264.2245933361874,left,1,2,0.9787507611017645,D07I03,2023-01-25_12h11.39.756,t1_Paradigm,2021.1.4,59.97544949926295,
S,right,Target,0,21,21,21,1265.7231121964187,1267.7251483224982,right,1,2,0.4860685603780439,D07I03,2023-01-25_12h11.39.756,t1_Paradigm,2021.1.4,59.97544949926295,
Q,left,Distractor,0,22,22,22,1269.2229713646311,1271.2255355297102,left,1,2,0.8417217536025419,D07I03,2023-01-25_12h11.39.756,t1_Paradigm,2021.1.4,59.97544949926295,
D,left,Distractor,0,23,23,23,1272.7233085268354,1274.725112392748,left,1,2,0.71811090358824,D07I03,2023-01-25_12h11.39.756,t1_Paradigm,2021.1.4,59.97544949926295,
F,left,Distractor,0,24,24,24,1276.2231221412594,1278.2256163716474,left,1,2,0.8816182117643621,D07I03,2023-01-25_12h11.39.756,t1_Paradigm,2021.1.4,59.97544949926295,
Z,left,Distractor,0,25,25,25,1279.7231705822605,1281.7249096463047,left,1,2,0.7744596582706436,D07I03,2023-01-25_12h11.39.756,t1_Paradigm,2021.1.4,59.97544949926295,
P,left,Distractor,0,26,26,26,1283.2232148528446,1285.2226704529776,left,1,2,0.7647108264682174,D07I03,2023-01-25_12h11.39.756,t1_Paradigm,2021.1.4,59.97544949926295,
H,left,Distractor,0,27,27,27,1286.723275484298,1288.7247091454692,left,1,2,0.6226003258052515,D07I03,2023-01-25_12h11.39.756,t1_Paradigm,2021.1.4,59.97544949926295,
Z,left,Pretarget,0,28,28,28,1290.2230797954826,1292.2251226583912,left,1,2,0.7541744273858058,D07I03,2023-01-25_12h11.39.756,t1_Paradigm,2021.1.4,59.97544949926295,
J,left,Pretarget,0,29,29,29,1293.7230698506419,1295.7250225683738,left,1,2,0.582171337426189,D07I03,2023-01-25_12h11.39.756,t1_Paradigm,2021.1.4,59.97544949926295,
Z,right,Target,0,30,30,30,1297.2231170084387,1299.2237550822947,right,1,2,0.9395530082510959,D07I03,2023-01-25_12h11.39.756,t1_Paradigm,2021.1.4,59.97544949926295,
J,right,Target,0,31,31,31,1300.7230865323118,1302.7236870724128,right,1,2,0.6235486145560571,D07I03,2023-01-25_12h11.39.756,t1_Paradigm,2021.1.4,59.97544949926295,
V,left,Pretarget,0,32,32,32,1304.2227695805914,1306.2246411355854,left,1,2,0.898558126315038,D07I03,2023-01-25_12h11.39.756,t1_Paradigm,2021.1.4,59.97544949926295,
Z,left,Lure,0,33,33,33,1307.723082361893,1309.7254187580247,left,1,2,0.7257373137508694,D07I03,2023-01-25_12h11.39.756,t1_Paradigm,2021.1.4,59.97544949926295,
V,right,Target,0,34,34,34,1311.2230813994893,1313.2236636539137,right,1,2,0.7956415288863354,D07I03,2023-01-25_12h11.39.756,t1_Paradigm,2021.1.4,59.97544949926295,
X,left,Distractor,0,35,35,35,1314.7231721862672,1316.7247178071057,left,1,2,0.9584636054096336,D07I03,2023-01-25_12h11.39.756,t1_Paradigm,2021.1.4,59.97544949926295,
S,left,Distractor,0,36,36,36,1318.2230085775855,1320.22374642066,left,1,2,0.8673656500050129,D07I03,2023-01-25_12h11.39.756,t1_Paradigm,2021.1.4,59.97544949926295,
Q,left,Distractor,0,37,37,37,1321.722986763095,1323.7254405725153,left,1,2,0.5977189741788607,D07I03,2023-01-25_12h11.39.756,t1_Paradigm,2021.1.4,59.97544949926295,
P,left,Distractor,0,38,38,38,1325.2230984019598,1327.2236610875034,left,1,2,0.6993966368463589,D07I03,2023-01-25_12h11.39.756,t1_Paradigm,2021.1.4,59.97544949926295,
S,left,Lure,0,39,39,39,1328.7229598157837,1330.725158908942,left,1,2,0.7339174270182411,D07I03,2023-01-25_12h11.39.756,t1_Paradigm,2021.1.4,59.97544949926295,
K,left,Pretarget,0,40,40,40,1332.2229752142475,1334.224759190477,left,1,2,0.8023725825205474,D07I03,2023-01-25_12h11.39.756,t1_Paradigm,2021.1.4,59.97544949926295,
L,left,Distractor,0,41,41,41,1335.7231715446642,1337.724115021395,left,1,2,0.7109634498192463,D07I03,2023-01-25_12h11.39.756,t1_Paradigm,2021.1.4,59.97544949926295,
K,right,Target,0,42,42,42,1339.222857800959,1341.2249195911454,right,1,2,0.5062832149669703,D07I03,2023-01-25_12h11.39.756,t1_Paradigm,2021.1.4,59.97544949926295,
B,left,Distractor,0,43,43,43,1342.722927094047,1344.723714661327,left,1,2,0.9435508344995469,D07I03,2023-01-25_12h11.39.756,t1_Paradigm,2021.1.4,59.97544949926295,
N,left,Distractor,0,44,44,44,1346.2230236552487,1348.2251874602616,left,1,2,0.8338682160956523,D07I03,2023-01-25_12h11.39.756,t1_Paradigm,2021.1.4,59.97544949926295,
S,left,Pretarget,0,45,45,45,1349.722962382194,1351.7237316637975,left,1,2,0.6634726616302942,D07I03,2023-01-25_12h11.39.756,t1_Paradigm,2021.1.4,59.97544949926295,
Z,left,Distractor,0,46,46,46,1353.2227801670351,1355.2249327439995,left,1,2,0.6661109318192757,D07I03,2023-01-25_12h11.39.756,t1_Paradigm,2021.1.4,59.97544949926295,
S,right,Target,0,47,47,47,1356.7230114647982,1358.7246238123143,right,1,2,0.8149534485182812,D07I03,2023-01-25_12h11.39.756,t1_Paradigm,2021.1.4,59.97544949926295,
C,left,Distractor,0,48,48,48,1360.2229408885041,1362.221877752877,left,1,2,0.8691958216259081,D07I03,2023-01-25_12h11.39.756,t1_Paradigm,2021.1.4,59.97544949926295,
T,left,Pretarget,0,49,49,49,1363.7231118756163,1365.724863771712,left,1,2,0.6945169277241803,D07I03,2023-01-25_12h11.39.756,t1_Paradigm,2021.1.4,59.97544949926295,
S,left,Lure,0,50,50,50,1367.222740708471,1369.2245801833315,left,1,2,0.810430149680542,D07I03,2023-01-25_12h11.39.756,t1_Paradigm,2021.1.4,59.97544949926295,
T,right,Target,0,51,51,51,1370.7230451489386,1372.7247572656697,right,1,2,0.574425268365303,D07I03,2023-01-25_12h11.39.756,t1_Paradigm,2021.1.4,59.97544949926295,
N,left,Pretarget,0,52,52,52,1374.2229643070013,1376.2251184879742,left,1,2,0.7059721018340497,D07I03,2023-01-25_12h11.39.756,t1_Paradigm,2021.1.4,59.97544949926295,
B,left,Distractor,0,53,53,53,1377.7230165976189,1379.7391529048246,left,1,2,0.7119633875863656,D07I03,2023-01-25_12h11.39.756,t1_Paradigm,2021.1.4,59.97544949926295,
N,right,Target,0,54,54,54,1381.2230156352152,1383.2237156237306,right,1,2,0.5393931208636786,D07I03,2023-01-25_12h11.39.756,t1_Paradigm,2021.1.4,59.97544949926295,
N,left,Lure,0,55,55,55,1384.722749049305,1386.7227397460674,left,1,2,1.424381671464289,D07I03,2023-01-25_12h11.39.756,t1_Paradigm,2021.1.4,59.97544949926295,
X,left,Distractor,0,56,56,56,1388.2229559661673,1390.2250280219969,left,1,2,1.0420493559267925,D07I03,2023-01-25_12h11.39.756,t1_Paradigm,2021.1.4,59.97544949926295,
W,left,Distractor,0,57,57,57,1391.722682643428,1393.7243652464358,left,1,2,0.8067624280047312,D07I03,2023-01-25_12h11.39.756,t1_Paradigm,2021.1.4,59.97544949926295,
S,left,Distractor,0,58,58,58,1395.2228452897061,1397.2248041026642,left,1,2,0.6661330671104224,D07I03,2023-01-25_12h11.39.756,t1_Paradigm,2021.1.4,59.97544949926295,
L,left,Distractor,0,59,59,59,1398.7228841066672,1400.7252561117466,left,1,2,0.8618478670250624,D07I03,2023-01-25_12h11.39.756,t1_Paradigm,2021.1.4,59.97544949926295,
K,left,Pretarget,0,60,60,60,1402.2225976310756,1404.2252176155862,left,1,2,0.7857541109096928,D07I03,2023-01-25_12h11.39.756,t1_Paradigm,2021.1.4,59.97544949926295,
V,left,Pretarget,0,61,61,61,1405.7226489592895,1407.7248310499772,left,1,2,0.7742707062825502,D07I03,2023-01-25_12h11.39.756,t1_Paradigm,2021.1.4,59.97544949926295,
K,right,Target,0,62,62,62,1409.2225908942464,1411.2249340272056,right,1,2,0.6017799982928409,D07I03,2023-01-25_12h11.39.756,t1_Paradigm,2021.1.4,59.97544949926295,
V,right,Target,0,63,63,63,1412.7229392844974,1414.7247880625973,right,1,2,0.7180412896996131,D07I03,2023-01-25_12h11.39.756,t1_Paradigm,2021.1.4,59.97544949926295,
R,left,Distractor,0,0,0,0,1549.005174846353,1551.00782979821,left,1,3,0.9789676228047028,D07I03,2023-01-25_12h11.39.756,t1_Paradigm,2021.1.4,59.97544949926295,
P,left,Lure,0,1,1,1,1552.5060002681903,1554.5076957032516,left,1,3,0.7110234396695887,D07I03,2023-01-25_12h11.39.756,t1_Paradigm,2021.1.4,59.97544949926295,
V,left,Distractor,0,2,2,2,1556.0058969701595,1558.0077890564398,left,1,3,0.71472003346571,D07I03,2023-01-25_12h11.39.756,t1_Paradigm,2021.1.4,59.97544949926295,
P,left,Pretarget,0,3,3,3,1559.5058122786077,1561.507838139044,left,1,3,1.1828070373539958,D07I03,2023-01-25_12h11.39.756,t1_Paradigm,2021.1.4,59.97544949926295,
Z,left,Distractor,0,4,4,4,1563.0058818924963,1565.007198781982,None,0,3,,D07I03,2023-01-25_12h11.39.756,t1_Paradigm,2021.1.4,59.97544949926295,
L,left,Pretarget,0,5,5,5,1566.5056294218457,1568.5074105108642,left,1,3,0.711639699036823,D07I03,2023-01-25_12h11.39.756,t1_Paradigm,2021.1.4,59.97544949926295,
P,right,Target,0,6,6,6,1570.0058068249846,1572.00759914205,left,0,3,1.0509939387793565,D07I03,2023-01-25_12h11.39.756,t1_Paradigm,2021.1.4,59.97544949926295,
S,left,Distractor,0,7,7,7,1573.5057776320637,1575.5065363272233,left,1,3,1.1200993585898686,D07I03,2023-01-25_12h11.39.756,t1_Paradigm,2021.1.4,59.97544949926295,
L,right,Target,0,8,8,8,1577.0058225442508,1579.0070030931665,right,1,3,0.6917288433123758,D07I03,2023-01-25_12h11.39.756,t1_Paradigm,2021.1.4,59.97544949926295,
D,left,Distractor,0,9,9,9,1580.5058000881572,1582.5081258978435,left,1,3,1.0466320030136558,D07I03,2023-01-25_12h11.39.756,t1_Paradigm,2021.1.4,59.97544949926295,
G,left,Distractor,0,10,10,10,1584.0057048101598,1586.006872527022,left,1,3,0.8118211442724714,D07I03,2023-01-25_12h11.39.756,t1_Paradigm,2021.1.4,59.97544949926295,
M,left,Pretarget,0,11,11,11,1587.5058087497919,1589.5058283186745,left,1,3,0.9288446596510767,D07I03,2023-01-25_12h11.39.756,t1_Paradigm,2021.1.4,59.97544949926295,
Y,left,Distractor,0,12,12,12,1591.005654765152,1593.0075981796444,left,1,3,0.9149449793640088,D07I03,2023-01-25_12h11.39.756,t1_Paradigm,2021.1.4,59.97544949926295,
V,left,Distractor,0,13,13,13,1594.5056348754688,1596.5075542298628,left,1,3,1.2711213995662547,D07I03,2023-01-25_12h11.39.756,t1_Paradigm,2021.1.4,59.97544949926295,
M,right,Target,0,14,14,14,1598.0057205294243,1600.0081162738034,right,1,3,0.5544919565491,D07I03,2023-01-25_12h11.39.756,t1_Paradigm,2021.1.4,59.97544949926295,
S,left,Pretarget,0,15,15,15,1601.5057352862868,1603.5079978981094,left,1,3,0.8465857434603095,D07I03,2023-01-25_12h11.39.756,t1_Paradigm,2021.1.4,59.97544949926295,
Q,left,Distractor,0,16,16,16,1605.0055819432482,1607.0074836535687,left,1,3,0.8510018946526543,D07I03,2023-01-25_12h11.39.756,t1_Paradigm,2021.1.4,59.97544949926295,
R,left,Pretarget,0,17,17,17,1608.505537672664,1610.5182831097454,left,1,3,0.8123414840392797,D07I03,2023-01-25_12h11.39.756,t1_Paradigm,2021.1.4,59.97544949926295,
S,right,Target,0,18,18,18,1612.0057141133975,1614.0069180808123,right,1,3,0.731820669485387,D07I03,2023-01-25_12h11.39.756,t1_Paradigm,2021.1.4,59.97544949926295,
F,left,Distractor,0,19,19,19,1615.5056913365033,1617.5071875539352,left,1,3,0.7513395059795585,D07I03,2023-01-25_12h11.39.756,t1_Paradigm,2021.1.4,59.97544949926295,
R,right,Target,0,20,20,20,1619.0059011405765,1621.0063521872553,right,1,3,0.9482717469618365,D07I03,2023-01-25_12h11.39.756,t1_Paradigm,2021.1.4,59.97544949926295,
P,left,Distractor,0,21,21,21,1622.505701281344,1624.5066020914974,left,1,3,0.824003895811984,D07I03,2023-01-25_12h11.39.756,t1_Paradigm,2021.1.4,59.97544949926295,
L,left,Distractor,0,22,22,22,1626.0057224542334,1628.0060159874547,left,1,3,1.2926279211369547,D07I03,2023-01-25_12h11.39.756,t1_Paradigm,2021.1.4,59.97544949926295,
R,right,Target,0,23,23,23,1629.5055790560355,1631.5077531266897,left,0,3,0.7987241089249437,D07I03,2023-01-25_12h11.39.756,t1_Paradigm,2021.1.4,59.97544949926295,
H,left,Pretarget,0,24,24,24,1633.00571924622,1635.0058777220793,left,1,3,0.6926819440814143,D07I03,2023-01-25_12h11.39.756,t1_Paradigm,2021.1.4,59.97544949926295,
G,left,Pretarget,0,25,25,25,1636.5054119185397,1638.5077303497956,left,1,3,0.9987450251737755,D07I03,2023-01-25_12h11.39.756,t1_Paradigm,2021.1.4,59.97544949926295,
T,left,Distractor,0,26,26,26,1640.0056955069203,1642.006249210027,left,1,3,0.9882512926687923,D07I03,2023-01-25_12h11.39.756,t1_Paradigm,2021.1.4,59.97544949926295,
H,right,Target,0,27,27,27,1643.5055206701918,1645.506815103584,right,1,3,0.7357912276238494,D07I03,2023-01-25_12h11.39.756,t1_Paradigm,2021.1.4,59.97544949926295,
G,right,Target,0,28,28,28,1647.0057766696582,1649.0066563069222,left,0,3,0.835960803209673,D07I03,2023-01-25_12h11.39.756,t1_Paradigm,2021.1.4,59.97544949926295,
D,left,Distractor,0,29,29,29,1650.5055764896251,1652.5065931090585,left,1,3,0.6959647041549033,D07I03,2023-01-25_12h11.39.756,t1_Paradigm,2021.1.4,59.97544949926295,
N,left,Pretarget,0,30,30,30,1654.0054080689233,1656.00749873123,left,1,3,1.2910781298814982,D07I03,2023-01-25_12h11.39.756,t1_Paradigm,2021.1.4,59.97544949926295,
V,left,Distractor,0,31,31,31,1657.5056752964365,1659.5062822525642,left,1,3,0.6402421536804468,D07I03,2023-01-25_12h11.39.756,t1_Paradigm,2021.1.4,59.97544949926295,
R,left,Distractor,0,32,32,32,1661.0055565999419,1663.006624547591,left,1,3,0.8517483993618953,D07I03,2023-01-25_12h11.39.756,t1_Paradigm,2021.1.4,59.97544949926295,
N,right,Target,0,33,33,33,1664.5056111361691,1666.5070361357039,right,1,3,0.45543620320131595,D07I03,2023-01-25_12h11.39.756,t1_Paradigm,2021.1.4,59.97544949926295,
Z,left,Distractor,0,34,34,34,1668.0055719984057,1670.0071804963054,left,1,3,1.1152623160451185,D07I03,2023-01-25_12h11.39.756,t1_Paradigm,2021.1.4,59.97544949926295,
N,left,Lure,0,35,35,35,1671.505432449826,1673.5058976117625,left,1,3,0.864677976411258,D07I03,2023-01-25_12h11.39.756,t1_Paradigm,2021.1.4,59.97544949926295,
Y,left,Pretarget,0,36,36,36,1675.0056294218457,1677.0074518942356,left,1,3,1.3312039609991189,D07I03,2023-01-25_12h11.39.756,t1_Paradigm,2021.1.4,59.97544949926295,
Y,left,Lure,0,37,37,37,1678.505465171561,1680.5056858828802,left,1,3,0.9367790390988375,D07I03,2023-01-25_12h11.39.756,t1_Paradigm,2021.1.4,59.97544949926295,
B,left,Distractor,0,38,38,38,1682.005384008823,1684.0081169154064,left,1,3,0.8902737526113924,D07I03,2023-01-25_12h11.39.756,t1_Paradigm,2021.1.4,59.97544949926295,
Y,right,Target,0,39,39,39,1685.50575517597,1687.5074044156381,right,1,3,0.6070507642434677,D07I03,2023-01-25_12h11.39.756,t1_Paradigm,2021.1.4,59.97544949926295,
J,left,Distractor,0,40,40,40,1689.005339096636,1691.0074842951717,left,1,3,1.1549403084954974,D07I03,2023-01-25_12h11.39.756,t1_Paradigm,2021.1.4,59.97544949926295,
X,left,Distractor,0,41,41,41,1692.505507196537,1694.5054462442831,left,1,3,1.1289454554334952,D07I03,2023-01-25_12h11.39.756,t1_Paradigm,2021.1.4,59.97544949926295,
W,left,Pretarget,0,42,42,42,1696.0054170513604,1698.0055222741985,left,1,3,1.0527644413541566,D07I03,2023-01-25_12h11.39.756,t1_Paradigm,2021.1.4,59.97544949926295,
S,left,Pretarget,0,43,43,43,1699.5053419838487,1701.5069363664888,left,1,3,0.8955236664769473,D07I03,2023-01-25_12h11.39.756,t1_Paradigm,2021.1.4,59.97544949926295,
R,left,Distractor,0,44,44,44,1703.0056345546664,1705.0050561498583,left,1,3,1.0135695757144276,D07I03,2023-01-25_12h11.39.756,t1_Paradigm,2021.1.4,59.97544949926295,
W,right,Target,0,45,45,45,1706.5052855228141,1708.5060846389415,right,1,3,0.5364045356163842,D07I03,2023-01-25_12h11.39.756,t1_Paradigm,2021.1.4,59.97544949926295,
S,right,Target,0,46,46,46,1710.0055774520288,1712.006407044285,right,1,3,0.5879284382044716,D07I03,2023-01-25_12h11.39.756,t1_Paradigm,2021.1.4,59.97544949926295,
D,left,Distractor,0,47,47,47,1713.5055347854513,1715.5060592956352,left,1,3,0.5764071790217713,D07I03,2023-01-25_12h11.39.756,t1_Paradigm,2021.1.4,59.97544949926295,
T,left,Distractor,0,48,48,48,1717.0053143949344,1719.0069732586426,left,1,3,0.8831763438538474,D07I03,2023-01-25_12h11.39.756,t1_Paradigm,2021.1.4,59.97544949926295,
S,right,Target,0,49,49,49,1720.505523236604,1722.5076443750377,left,0,3,0.8706804902103613,D07I03,2023-01-25_12h11.39.756,t1_Paradigm,2021.1.4,59.97544949926295,
K,left,Distractor,0,50,50,50,1724.0054696627803,1726.0076106908973,left,1,3,1.2266204798288527,D07I03,2023-01-25_12h11.39.756,t1_Paradigm,2021.1.4,59.97544949926295,
S,left,Lure,0,51,51,51,1727.5055258030143,1729.5073915835846,left,1,3,1.311215150548378,D07I03,2023-01-25_12h11.39.756,t1_Paradigm,2021.1.4,59.97544949926295,
T,left,Pretarget,0,52,52,52,1731.0055325398416,1733.007829156607,left,1,3,1.282395000118413,D07I03,2023-01-25_12h11.39.756,t1_Paradigm,2021.1.4,59.97544949926295,
V,left,Distractor,0,53,53,53,1734.5053240189745,1736.5073133080596,left,1,3,0.998962207677323,D07I03,2023-01-25_12h11.39.756,t1_Paradigm,2021.1.4,59.97544949926295,
B,left,Distractor,0,54,54,54,1738.0054484898928,1740.0071047871907,left,1,3,0.7952482264499849,D07I03,2023-01-25_12h11.39.756,t1_Paradigm,2021.1.4,59.97544949926295,
T,right,Target,0,55,55,55,1741.5054180137658,1743.5071339801116,right,1,3,1.1991156148760638,D07I03,2023-01-25_12h11.39.756,t1_Paradigm,2021.1.4,59.97544949926295,
Y,left,Pretarget,0,56,56,56,1745.005404219307,1747.0069581809794,left,1,3,1.4114338087401848,D07I03,2023-01-25_12h11.39.756,t1_Paradigm,2021.1.4,59.97544949926295,
T,left,Lure,0,57,57,57,1748.505471266787,1750.507455743852,left,1,3,0.98279478274344,D07I03,2023-01-25_12h11.39.756,t1_Paradigm,2021.1.4,59.97544949926295,
P,left,Pretarget,0,58,58,58,1752.005496289291,1754.0070797646868,left,1,3,1.0990737182219164,D07I03,2023-01-25_12h11.39.756,t1_Paradigm,2021.1.4,59.97544949926295,
Y,right,Target,0,59,59,59,1755.505140199809,1757.507369127491,right,1,3,0.6549079075612099,D07I03,2023-01-25_12h11.39.756,t1_Paradigm,2021.1.4,59.97544949926295,
R,left,Distractor,0,60,60,60,1759.0051652223128,1761.0076604151045,left,1,3,0.8984182569329278,D07I03,2023-01-25_12h11.39.756,t1_Paradigm,2021.1.4,59.97544949926295,
P,right,Target,0,61,61,61,1762.5053801592067,1764.5074727463225,right,1,3,0.726690735320517,D07I03,2023-01-25_12h11.39.756,t1_Paradigm,2021.1.4,59.97544949926295,
L,left,Distractor,0,62,62,62,1766.0052040392738,1768.0075308113637,left,1,3,1.0186677505480475,D07I03,2023-01-25_12h11.39.756,t1_Paradigm,2021.1.4,59.97544949926295,
V,left,Distractor,0,63,63,63,1769.505465171561,1771.5075885556043,left,1,3,0.7506173821711855,D07I03,2023-01-25_12h11.39.756,t1_Paradigm,2021.1.4,59.97544949926295,
H,left,Lure,0,0,0,0,1811.0061747841164,1813.007394149995,left,1,3,1.0108931301674602,D07I03,2023-01-25_12h11.39.756,t1_Paradigm,2021.1.4,59.97544949926295,
B,left,Distractor,0,1,1,1,1814.505248309858,1816.5059476567703,left,1,3,0.4881890572105476,D07I03,2023-01-25_12h11.39.756,t1_Paradigm,2021.1.4,59.97544949926295,
T,left,Distractor,0,2,2,2,1818.0053256229812,1820.0066601565386,left,1,3,0.9075431301353092,D07I03,2023-01-25_12h11.39.756,t1_Paradigm,2021.1.4,59.97544949926295,
R,left,Distractor,0,3,3,3,1821.5052444602416,1823.507238882149,left,1,3,0.9269410245233303,D07I03,2023-01-25_12h11.39.756,t1_Paradigm,2021.1.4,59.97544949926295,
H,left,Pretarget,0,4,4,4,1825.004991347988,1827.0070188124328,right,0,3,1.17106314204284,D07I03,2023-01-25_12h11.39.756,t1_Paradigm,2021.1.4,59.97544949926295,
K,left,Distractor,0,5,5,5,1828.5054369410436,1830.5076010668572,left,1,3,1.078668828440641,D07I03,2023-01-25_12h11.39.756,t1_Paradigm,2021.1.4,59.97544949926295,
G,left,Distractor,0,6,6,6,1832.0051549566697,1834.005876438875,left,1,3,0.7963790511603293,D07I03,2023-01-25_12h11.39.756,t1_Paradigm,2021.1.4,59.97544949926295,
H,right,Target,0,7,7,7,1835.5053631567362,1837.5060483883908,left,0,3,0.8482843865349423,D07I03,2023-01-25_12h11.39.756,t1_Paradigm,2021.1.4,59.97544949926295,
Y,left,Pretarget,0,8,8,8,1839.005231628188,1841.0072231628828,left,1,3,0.9468172337037686,D07I03,2023-01-25_12h11.39.756,t1_Paradigm,2021.1.4,59.97544949926295,
S,left,Distractor,0,9,9,9,1842.5048671978702,1844.5074669718988,left,1,3,1.142597156287593,D07I03,2023-01-25_12h11.39.756,t1_Paradigm,2021.1.4,59.97544949926295,
P,left,Distractor,0,10,10,10,1846.0051572022794,1848.0062001274227,left,1,3,1.0359050479364669,D07I03,2023-01-25_12h11.39.756,t1_Paradigm,2021.1.4,59.97544949926295,
Y,right,Target,0,11,11,11,1849.5049823655509,1851.5058254314617,right,1,3,0.6563428519366425,D07I03,2023-01-25_12h11.39.756,t1_Paradigm,2021.1.4,59.97544949926295,
H,left,Lure,0,12,12,12,1853.005332039008,1855.0067843066563,left,1,3,1.1073497510897141,D07I03,2023-01-25_12h11.39.756,t1_Paradigm,2021.1.4,59.97544949926295,
Q,left,Distractor,0,13,13,13,1856.5052001896574,1858.5181733956879,left,1,3,0.9718455123420426,D07I03,2023-01-25_12h11.39.756,t1_Paradigm,2021.1.4,59.97544949926295,
V,left,Pretarget,0,14,14,14,1860.0052062848836,1862.0075218289267,left,1,3,1.1308192560372845,D07I03,2023-01-25_12h11.39.756,t1_Paradigm,2021.1.4,59.97544949926295,
G,left,Distractor,0,15,15,15,1863.5051462950332,1865.5074364957718,left,1,3,1.0386777338844695,D07I03,2023-01-25_12h11.39.756,t1_Paradigm,2021.1.4,59.97544949926295,
Z,left,Pretarget,0,16,16,16,1867.004970495901,1869.0069918651197,left,1,3,0.8670073149114614,D07I03,2023-01-25_12h11.39.756,t1_Paradigm,2021.1.4,59.97544949926295,
V,right,Target,0,17,17,17,1870.505127046953,1872.5058687396422,right,1,3,0.6161300836593,D07I03,2023-01-25_12h11.39.756,t1_Paradigm,2021.1.4,59.97544949926295,
N,left,Distractor,0,18,18,18,1874.0051206309263,1876.0075718739363,left,1,3,1.322430686059306,D07I03,2023-01-25_12h11.39.756,t1_Paradigm,2021.1.4,59.97544949926295,
Z,right,Target,0,19,19,19,1877.5051559190733,1879.5070634038175,right,1,3,1.1988811090996023,D07I03,2023-01-25_12h11.39.756,t1_Paradigm,2021.1.4,59.97544949926295,
R,left,Distractor,0,20,20,20,1881.005113894099,1883.0061180022813,left,1,3,1.219879481353928,D07I03,2023-01-25_12h11.39.756,t1_Paradigm,2021.1.4,59.97544949926295,
P,left,Distractor,0,21,21,21,1884.5051392374035,1886.5056310258524,left,1,3,1.016301519892295,D07I03,2023-01-25_12h11.39.756,t1_Paradigm,2021.1.4,59.97544949926295,
Z,right,Target,0,22,22,22,1888.00521975854,1890.0063136910949,right,1,3,0.6196717304082995,D07I03,2023-01-25_12h11.39.756,t1_Paradigm,2021.1.4,59.97544949926295,
D,left,Pretarget,0,23,23,23,1891.5052200793407,1893.5073142704632,left,1,3,1.1346432079626538,D07I03,2023-01-25_12h11.39.756,t1_Paradigm,2021.1.4,59.97544949926295,
K,left,Distractor,0,24,24,24,1895.005174846353,1897.0057519679567,left,1,3,1.0442041785008769,D07I03,2023-01-25_12h11.39.756,t1_Paradigm,2021.1.4,59.97544949926295,
W,left,Distractor,0,25,25,25,1898.5051511070533,1900.5062530596433,left,1,3,1.2077939326209162,D07I03,2023-01-25_12h11.39.756,t1_Paradigm,2021.1.4,59.97544949926295,
D,right,Target,0,26,26,26,1902.005082776369,1904.0070258700607,left,0,3,1.163090587240731,D07I03,2023-01-25_12h11.39.756,t1_Paradigm,2021.1.4,59.97544949926295,
G,left,Pretarget,0,27,27,27,1905.5051655431134,1907.506868356605,None,0,3,,D07I03,2023-01-25_12h11.39.756,t1_Paradigm,2021.1.4,59.97544949926295,
V,left,Distractor,0,28,28,28,1909.0050304857514,1911.005510725351,left,1,3,1.3327431658090063,D07I03,2023-01-25_12h11.39.756,t1_Paradigm,2021.1.4,59.97544949926295,
D,right,Target,0,29,29,29,1912.505113894099,1914.5071083160046,right,1,3,0.9348426822343754,D07I03,2023-01-25_12h11.39.756,t1_Paradigm,2021.1.4,59.97544949926295,
G,right,Target,0,30,30,30,1916.0048681602757,1918.0055389558684,left,0,3,1.4043328711650247,D07I03,2023-01-25_12h11.39.756,t1_Paradigm,2021.1.4,59.97544949926295,
B,left,Pretarget,0,31,31,31,1919.5050843803756,1921.506833710061,left,1,3,1.0711097865569172,D07I03,2023-01-25_12h11.39.756,t1_Paradigm,2021.1.4,59.97544949926295,
N,left,Distractor,0,32,32,32,1923.004901202813,1925.006416668325,left,1,3,1.3636206152077648,D07I03,2023-01-25_12h11.39.756,t1_Paradigm,2021.1.4,59.97544949926295,
F,left,Distractor,0,33,33,33,1926.5048136240484,1928.5063188239174,left,1,3,0.9995672389977699,D07I03,2023-01-25_12h11.39.756,t1_Paradigm,2021.1.4,59.97544949926295,
B,right,Target,0,34,34,34,1930.0049098644495,1932.0060554460206,right,1,3,0.6837367196258128,D07I03,2023-01-25_12h11.39.756,t1_Paradigm,2021.1.4,59.97544949926295,
Q,left,Pretarget,0,35,35,35,1933.5049817239478,1935.5056746548335,left,1,3,0.92819984896596,D07I03,2023-01-25_12h11.39.756,t1_Paradigm,2021.1.4,59.97544949926295,
S,left,Pretarget,0,36,36,36,1937.0048094536314,1939.0065215703607,left,1,3,1.0114304724047543,D07I03,2023-01-25_12h11.39.756,t1_Paradigm,2021.1.4,59.97544949926295,
W,left,Distractor,0,37,37,37,1940.5049255837139,1942.506797780311,left,1,3,1.04711384662005,D07I03,2023-01-25_12h11.39.756,t1_Paradigm,2021.1.4,59.97544949926295,
Q,right,Target,0,38,38,38,1944.0049881399746,1946.0065289487911,right,1,3,0.5233796805732709,D07I03,2023-01-25_12h11.39.756,t1_Paradigm,2021.1.4,59.97544949926295,
S,right,Target,0,39,39,39,1947.5050821347659,1949.5074717839188,right,1,3,1.358587242244539,D07I03,2023-01-25_12h11.39.756,t1_Paradigm,2021.1.4,59.97544949926295,
T,left,Distractor,0,40,40,40,1951.0050686611094,1953.0054026153002,left,1,3,0.9965372703791218,D07I03,2023-01-25_12h11.39.756,t1_Paradigm,2021.1.4,59.97544949926295,
G,left,Distractor,0,41,41,41,1954.504944831794,1956.5061176814788,left,1,3,1.223809297722255,D07I03,2023-01-25_12h11.39.756,t1_Paradigm,2021.1.4,59.97544949926295,
D,left,Distractor,0,42,42,42,1958.0050131624785,1960.0039166635115,left,1,3,1.2139882856172335,D07I03,2023-01-25_12h11.39.756,t1_Paradigm,2021.1.4,59.97544949926295,
S,left,Lure,0,43,43,43,1961.504653864983,1963.506893379109,left,1,3,1.1828833880717866,D07I03,2023-01-25_12h11.39.756,t1_Paradigm,2021.1.4,59.97544949926295,
Z,left,Pretarget,0,44,44,44,1965.0049188468865,1967.0063451296255,left,1,3,1.3636392216831155,D07I03,2023-01-25_12h11.39.756,t1_Paradigm,2021.1.4,59.97544949926295,
J,left,Distractor,0,45,45,45,1968.5050324105587,1970.5067095599434,left,1,3,1.4314412256662763,D07I03,2023-01-25_12h11.39.756,t1_Paradigm,2021.1.4,59.97544949926295,
M,left,Pretarget,0,46,46,46,1972.0049082604428,1974.005532860644,left,1,3,1.4521845608578587,D07I03,2023-01-25_12h11.39.756,t1_Paradigm,2021.1.4,59.97544949926295,
Z,right,Target,0,47,47,47,1975.5046820955004,1977.5065475552701,None,0,3,,D07I03,2023-01-25_12h11.39.756,t1_Paradigm,2021.1.4,59.97544949926295,
P,left,Distractor,0,48,48,48,1979.0048123408424,1981.0060605788412,left,1,3,0.979874848982945,D07I03,2023-01-25_12h11.39.756,t1_Paradigm,2021.1.4,59.97544949926295,
M,right,Target,0,49,49,49,1982.5048501953997,1984.505785652097,right,1,3,1.0322973161109985,D07I03,2023-01-25_12h11.39.756,t1_Paradigm,2021.1.4,59.97544949926295,
K,left,Distractor,0,50,50,50,1986.0049480398075,1988.0056034369381,left,1,3,0.8282987840975693,D07I03,2023-01-25_12h11.39.756,t1_Paradigm,2021.1.4,59.97544949926295,
Y,left,Distractor,0,51,51,51,1989.5050089920614,1991.5050144456845,left,1,3,0.7046776684401266,D07I03,2023-01-25_12h11.39.756,t1_Paradigm,2021.1.4,59.97544949926295,
X,left,Distractor,0,52,52,52,1993.0046846619107,1995.005370855969,left,1,3,0.8842503867253981,D07I03,2023-01-25_12h11.39.756,t1_Paradigm,2021.1.4,59.97544949926295,
F,left,Pretarget,0,53,53,53,1996.5046317296901,1998.5068513541346,left,1,3,1.3349361637410766,D07I03,2023-01-25_12h11.39.756,t1_Paradigm,2021.1.4,59.97544949926295,
M,left,Lure,0,54,54,54,2000.0050048216444,2002.0067522265226,left,1,3,0.9390913751285552,D07I03,2023-01-25_12h11.39.756,t1_Paradigm,2021.1.4,59.97544949926295,
V,left,Distractor,0,55,55,55,2003.5049429069868,2005.5049666462846,left,1,3,1.1846795547535294,D07I03,2023-01-25_12h11.39.756,t1_Paradigm,2021.1.4,59.97544949926295,
F,right,Target,0,56,56,56,2007.0045816846823,2009.0070893887269,right,1,3,1.2346360220108181,D07I03,2023-01-25_12h11.39.756,t1_Paradigm,2021.1.4,59.97544949926295,
S,left,Distractor,0,57,57,57,2010.5048543658186,2012.5065064926976,left,1,3,0.9511300868671242,D07I03,2023-01-25_12h11.39.756,t1_Paradigm,2021.1.4,59.97544949926295,
D,left,Distractor,0,58,58,58,2014.0049255837139,2016.004845062579,left,1,3,0.588837909992435,D07I03,2023-01-25_12h11.39.756,t1_Paradigm,2021.1.4,59.97544949926295,
F,right,Target,0,59,59,59,2017.5047812231123,2019.506386192198,right,1,3,0.6713800937632186,D07I03,2023-01-25_12h11.39.756,t1_Paradigm,2021.1.4,59.97544949926295,
V,left,Pretarget,0,60,60,60,2021.004653864983,2023.00644939006,left,1,3,0.8191373395420669,D07I03,2023-01-25_12h11.39.756,t1_Paradigm,2021.1.4,59.97544949926295,
J,left,Distractor,0,61,61,61,2024.50490056121,2026.5058071457852,left,1,3,0.8719261617989105,D07I03,2023-01-25_12h11.39.756,t1_Paradigm,2021.1.4,59.97544949926295,
V,left,Lure,0,62,62,62,2028.004665734633,2030.0037148794718,right,0,3,0.9259924149737344,D07I03,2023-01-25_12h11.39.756,t1_Paradigm,2021.1.4,59.97544949926295,
V,right,Target,0,63,63,63,2031.5043009835126,2033.5045117499913,left,0,3,1.0572187679044873,D07I03,2023-01-25_12h11.39.756,t1_Paradigm,2021.1.4,59.97544949926295,
R,left,Distractor,0,0,0,0,2148.4167995318867,2150.4221261172706,left,1,4,0.939410251656227,D07I03,2023-01-25_12h11.39.756,t1_Paradigm,2021.1.4,59.97544949926295,
F,left,Distractor,0,1,1,1,2151.9209686660497,2153.923028531429,left,1,4,0.5263028223471338,D07I03,2023-01-25_12h11.39.756,t1_Paradigm,2021.1.4,59.97544949926295,
P,left,Pretarget,0,2,2,2,2155.4211710916943,2157.4230965413126,left,1,4,0.8662499029560422,D07I03,2023-01-25_12h11.39.756,t1_Paradigm,2021.1.4,59.97544949926295,
H,left,Distractor,0,3,3,3,2158.9211399739643,2160.922581655169,left,1,4,0.5187476300798153,D07I03,2023-01-25_12h11.39.756,t1_Paradigm,2021.1.4,59.97544949926295,
Z,left,Distractor,0,4,4,4,2162.4211759037144,2164.4223490741997,left,1,4,0.85910694040831,D07I03,2023-01-25_12h11.39.756,t1_Paradigm,2021.1.4,59.97544949926295,
T,left,Distractor,0,5,5,5,2165.920879162478,2167.9232524507615,left,1,4,0.6860737573606457,D07I03,2023-01-25_12h11.39.756,t1_Paradigm,2021.1.4,59.97544949926295,
P,right,Target,0,6,6,6,2169.4210443751663,2171.4225444422127,right,1,4,0.5790120858691807,D07I03,2023-01-25_12h11.39.756,t1_Paradigm,2021.1.4,59.97544949926295,
G,left,Distractor,0,7,7,7,2172.9211412571685,2174.9230570827485,left,1,4,1.0304607284633676,D07I03,2023-01-25_12h11.39.756,t1_Paradigm,2021.1.4,59.97544949926295,
L,left,Distractor,0,8,8,8,2176.4212172870857,2178.4228228977727,left,1,4,1.2425450581504265,D07I03,2023-01-25_12h11.39.756,t1_Paradigm,2021.1.4,59.97544949926295,
P,left,Lure,0,9,9,9,2179.920901939372,2181.9227895344347,right,0,4,1.2626862492361397,D07I03,2023-01-25_12h11.39.756,t1_Paradigm,2021.1.4,59.97544949926295,
Q,left,Pretarget,0,10,10,10,2183.4208304006743,2185.4219086139647,left,1,4,1.3476046085052076,D07I03,2023-01-25_12h11.39.756,t1_Paradigm,2021.1.4,59.97544949926295,
D,left,Distractor,0,11,11,11,2186.921042450357,2188.9226053944667,left,1,4,1.1108766409779491,D07I03,2023-01-25_12h11.39.756,t1_Paradigm,2021.1.4,59.97544949926295,
M,left,Pretarget,0,12,12,12,2190.421072926484,2192.4236069362387,left,1,4,0.7298047538897663,D07I03,2023-01-25_12h11.39.756,t1_Paradigm,2021.1.4,59.97544949926295,
C,left,Distractor,0,13,13,13,2193.921065548054,2195.9229338950345,left,1,4,0.7343694361024973,D07I03,2023-01-25_12h11.39.756,t1_Paradigm,2021.1.4,59.97544949926295,
Q,right,Target,0,14,14,14,2197.4211621092554,2199.422906626921,right,1,4,0.8184835464198841,D07I03,2023-01-25_12h11.39.756,t1_Paradigm,2021.1.4,59.97544949926295,
R,left,Distractor,0,15,15,15,2200.921104365015,2202.9229765616137,left,1,4,0.934123445636942,D07I03,2023-01-25_12h11.39.756,t1_Paradigm,2021.1.4,59.97544949926295,
M,right,Target,0,16,16,16,2204.4211447859843,2206.4224289537315,left,0,4,0.9868667141035985,D07I03,2023-01-25_12h11.39.756,t1_Paradigm,2021.1.4,59.97544949926295,
S,left,Distractor,0,17,17,17,2207.921048866384,2209.921452755266,left,1,4,0.9280679996190884,D07I03,2023-01-25_12h11.39.756,t1_Paradigm,2021.1.4,59.97544949926295,
Z,left,Distractor,0,18,18,18,2211.420780034864,2213.4221052651837,left,1,4,0.8511472176578536,D07I03,2023-01-25_12h11.39.756,t1_Paradigm,2021.1.4,59.97544949926295,
L,left,Pretarget,0,19,19,19,2214.9209728364685,2216.9220571449832,left,1,4,0.8233270049913699,D07I03,2023-01-25_12h11.39.756,t1_Paradigm,2021.1.4,59.97544949926295,
M,right,Target,0,20,20,20,2218.4210764553,2220.422948651897,left,0,4,1.194528476571577,D07I03,2023-01-25_12h11.39.756,t1_Paradigm,2021.1.4,59.97544949926295,
P,left,Distractor,0,21,21,21,2221.9209340195057,2223.9228646019465,left,1,4,0.9106106325125438,D07I03,2023-01-25_12h11.39.756,t1_Paradigm,2021.1.4,59.97544949926295,
F,left,Distractor,0,22,22,22,2225.420733518672,2227.4227972336657,left,1,4,0.6904478835767804,D07I03,2023-01-25_12h11.39.756,t1_Paradigm,2021.1.4,59.97544949926295,
L,right,Target,0,23,23,23,2228.92099753817,2230.9228437498596,right,1,4,0.6465702808345668,D07I03,2023-01-25_12h11.39.756,t1_Paradigm,2021.1.4,59.97544949926295,
L,left,Lure,0,24,24,24,2232.4209792524953,2234.42099272615,left,1,4,1.116627325729496,D07I03,2023-01-25_12h11.39.756,t1_Paradigm,2021.1.4,59.97544949926295,
V,left,Pretarget,0,25,25,25,2235.921100836201,2237.922806216103,left,1,4,1.3104433025346225,D07I03,2023-01-25_12h11.39.756,t1_Paradigm,2021.1.4,59.97544949926295,
Z,left,Distractor,0,26,26,26,2239.4209972173694,2241.4224106680567,left,1,4,1.4590583710869396,D07I03,2023-01-25_12h11.39.756,t1_Paradigm,2021.1.4,59.97544949926295,
H,left,Distractor,0,27,27,27,2242.9208955233453,2244.9229412734667,None,0,4,,D07I03,2023-01-25_12h11.39.756,t1_Paradigm,2021.1.4,59.97544949926295,
X,left,Distractor,0,28,28,28,2246.420128166549,2248.4225806927634,left,1,4,0.7309496938596567,D07I03,2023-01-25_12h11.39.756,t1_Paradigm,2021.1.4,59.97544949926295,
V,right,Target,0,29,29,29,2249.9206183509914,2251.9216038526965,left,0,4,0.9277151181486261,D07I03,2023-01-25_12h11.39.756,t1_Paradigm,2021.1.4,59.97544949926295,
C,left,Distractor,0,30,30,30,2253.4209423603415,2255.422081525886,left,1,4,0.6432602526510891,D07I03,2023-01-25_12h11.39.756,t1_Paradigm,2021.1.4,59.97544949926295,
S,left,Pretarget,0,31,31,31,2256.9209632124284,2258.9226961812446,left,1,4,1.062604380733319,D07I03,2023-01-25_12h11.39.756,t1_Paradigm,2021.1.4,59.97544949926295,
D,left,Distractor,0,32,32,32,2260.420715553796,2262.422625925753,left,1,4,0.8264984470006311,D07I03,2023-01-25_12h11.39.756,t1_Paradigm,2021.1.4,59.97544949926295,
V,left,Distractor,0,33,33,33,2263.920750841943,2265.9225640110953,left,1,4,0.4947625973873073,D07I03,2023-01-25_12h11.39.756,t1_Paradigm,2021.1.4,59.97544949926295,
R,left,Distractor,0,34,34,34,2267.4209298490887,2269.4216532561013,left,1,4,0.5155854913118674,D07I03,2023-01-25_12h11.39.756,t1_Paradigm,2021.1.4,59.97544949926295,
S,right,Target,0,35,35,35,2270.920890069724,2272.92157850939,right,1,4,0.5195663150898326,D07I03,2023-01-25_12h11.39.756,t1_Paradigm,2021.1.4,59.97544949926295,
Y,left,Distractor,0,36,36,36,2274.420382562009,2276.4211438235807,left,1,4,0.6839478069050529,D07I03,2023-01-25_12h11.39.756,t1_Paradigm,2021.1.4,59.97544949926295,
N,left,Pretarget,0,37,37,37,2277.920818210224,2279.9231318294596,left,1,4,1.0700302900622773,D07I03,2023-01-25_12h11.39.756,t1_Paradigm,2021.1.4,59.97544949926295,
Z,left,Pretarget,0,38,38,38,2281.4209166962346,2283.4227324317953,left,1,4,0.9465516101990943,D07I03,2023-01-25_12h11.39.756,t1_Paradigm,2021.1.4,59.97544949926295,
P,left,Pretarget,0,39,39,39,2284.920859593597,2286.92216172622,left,1,4,0.9027532453874301,D07I03,2023-01-25_12h11.39.756,t1_Paradigm,2021.1.4,59.97544949926295,
M,left,Distractor,0,40,40,40,2288.420622842211,2290.4227497550683,left,1,4,0.9065082250253909,D07I03,2023-01-25_12h11.39.756,t1_Paradigm,2021.1.4,59.97544949926295,
N,right,Target,0,41,41,41,2291.9209301698893,2293.922704201278,right,1,4,1.27862750922759,D07I03,2023-01-25_12h11.39.756,t1_Paradigm,2021.1.4,59.97544949926295,
Z,right,Target,0,42,42,42,2295.4208932777374,2297.423054516338,None,0,4,,D07I03,2023-01-25_12h11.39.756,t1_Paradigm,2021.1.4,59.97544949926295,
P,right,Target,0,43,43,43,2298.920585950057,2300.9211973974025,right,1,4,1.048066305786051,D07I03,2023-01-25_12h11.39.756,t1_Paradigm,2021.1.4,59.97544949926295,
X,left,Pretarget,0,44,44,44,2302.420958079606,2304.4217097171377,left,1,4,0.8594476314283384,D07I03,2023-01-25_12h11.39.756,t1_Paradigm,2021.1.4,59.97544949926295,
Z,left,Lure,0,45,45,45,2305.920611614164,2307.921327963547,left,1,4,1.2318216318890336,D07I03,2023-01-25_12h11.39.756,t1_Paradigm,2021.1.4,59.97544949926295,
R,left,Pretarget,0,46,46,46,2309.420808265383,2311.4227260157704,left,1,4,0.7703784236728097,D07I03,2023-01-25_12h11.39.756,t1_Paradigm,2021.1.4,59.97544949926295,
K,left,Distractor,0,47,47,47,2312.9207983205406,2314.9213157730965,left,1,4,0.599690619192188,D07I03,2023-01-25_12h11.39.756,t1_Paradigm,2021.1.4,59.97544949926295,
X,right,Target,0,48,48,48,2316.420744746719,2318.421397256635,left,0,4,0.6197544971546449,D07I03,2023-01-25_12h11.39.756,t1_Paradigm,2021.1.4,59.97544949926295,
B,left,Distractor,0,49,49,49,2319.9208932777374,2321.922070297839,left,1,4,0.6710050770016096,D07I03,2023-01-25_12h11.39.756,t1_Paradigm,2021.1.4,59.97544949926295,
R,right,Target,0,50,50,50,2323.4207745812428,2325.421847982513,left,0,4,0.5952879416545329,D07I03,2023-01-25_12h11.39.756,t1_Paradigm,2021.1.4,59.97544949926295,
Y,left,Pretarget,0,51,51,51,2326.92073576428,2328.9204159253486,right,0,4,0.792733143975056,D07I03,2023-01-25_12h11.39.756,t1_Paradigm,2021.1.4,59.97544949926295,
W,left,Pretarget,0,52,52,52,2330.4204784816093,2332.42216653824,left,1,4,0.6189406241646793,D07I03,2023-01-25_12h11.39.756,t1_Paradigm,2021.1.4,59.97544949926295,
Z,left,Distractor,0,53,53,53,2333.920919904248,2335.922574597539,left,1,4,0.5905371946701052,D07I03,2023-01-25_12h11.39.756,t1_Paradigm,2021.1.4,59.97544949926295,
Q,left,Distractor,0,54,54,54,2337.4207886965005,2339.4229351782406,left,1,4,0.7381350021842081,D07I03,2023-01-25_12h11.39.756,t1_Paradigm,2021.1.4,59.97544949926295,
Y,right,Target,0,55,55,55,2340.9204791232123,2342.921315452294,right,1,4,0.5516169349757547,D07I03,2023-01-25_12h11.39.756,t1_Paradigm,2021.1.4,59.97544949926295,
W,right,Target,0,56,56,56,2344.4208502903575,2346.421656784917,right,1,4,0.49129633895063307,D07I03,2023-01-25_12h11.39.756,t1_Paradigm,2021.1.4,59.97544949926295,
H,left,Pretarget,0,57,57,57,2347.9207784308574,2349.921156655634,left,1,4,0.7998494800121989,D07I03,2023-01-25_12h11.39.756,t1_Paradigm,2021.1.4,59.97544949926295,
M,left,Distractor,0,58,58,58,2351.42083392949,2353.4219724534314,left,1,4,1.4111694684397662,D07I03,2023-01-25_12h11.39.756,t1_Paradigm,2021.1.4,59.97544949926295,
R,left,Pretarget,0,59,59,59,2354.920780676467,2356.9214312615777,left,1,4,0.7275074955232412,D07I03,2023-01-25_12h11.39.756,t1_Paradigm,2021.1.4,59.97544949926295,
J,left,Distractor,0,60,60,60,2358.420642090291,2360.421851511327,left,1,4,0.6191241225278645,D07I03,2023-01-25_12h11.39.756,t1_Paradigm,2021.1.4,59.97544949926295,
H,right,Target,0,61,61,61,2361.9204431934622,2363.9392800063133,right,1,4,0.8619405786103016,D07I03,2023-01-25_12h11.39.756,t1_Paradigm,2021.1.4,59.97544949926295,
Z,left,Distractor,0,62,62,62,2365.4203687675517,2367.4217437220786,left,1,4,0.8032034579828178,D07I03,2023-01-25_12h11.39.756,t1_Paradigm,2021.1.4,59.97544949926295,
R,right,Target,0,63,63,63,2368.920485539239,2370.921291712996,right,1,4,0.5355627529115736,D07I03,2023-01-25_12h11.39.756,t1_Paradigm,2021.1.4,59.97544949926295,
J,left,Pretarget,0,0,0,0,2411.53588868707,2413.5391271765575,left,1,4,0.5578760898424662,D07I03,2023-01-25_12h11.39.756,t1_Paradigm,2021.1.4,59.97544949926295,
G,left,Pretarget,0,1,1,1,2415.0372902681074,2417.039186524805,left,1,4,0.49780251084848715,D07I03,2023-01-25_12h11.39.756,t1_Paradigm,2021.1.4,59.97544949926295,
Z,left,Distractor,0,2,2,2,2418.537269736821,2420.5389600390617,left,1,4,0.5018827830426744,D07I03,2023-01-25_12h11.39.756,t1_Paradigm,2021.1.4,59.97544949926295,
F,left,Distractor,0,3,3,3,2422.037282889675,2424.038650144971,left,1,4,0.5222626503200445,D07I03,2023-01-25_12h11.39.756,t1_Paradigm,2021.1.4,59.97544949926295,
J,right,Target,0,4,4,4,2425.537212313383,2427.5373056665712,right,1,4,0.7195179382488277,D07I03,2023-01-25_12h11.39.756,t1_Paradigm,2021.1.4,59.97544949926295,
G,right,Target,0,5,5,5,2429.037246318324,2431.0389055028345,right,1,4,0.5621536548569566,D07I03,2023-01-25_12h11.39.756,t1_Paradigm,2021.1.4,59.97544949926295,
H,left,Distractor,0,6,6,6,2432.537245035118,2434.5377974550183,left,1,4,0.8871128970477002,D07I03,2023-01-25_12h11.39.756,t1_Paradigm,2021.1.4,59.97544949926295,
P,left,Distractor,0,7,7,7,2436.0371324338494,2438.0382337448364,left,1,4,1.0505666314002156,D07I03,2023-01-25_12h11.39.756,t1_Paradigm,2021.1.4,59.97544949926295,
G,left,Lure,0,8,8,8,2439.5372530551513,2441.5393337726173,left,1,4,1.133441806958217,D07I03,2023-01-25_12h11.39.756,t1_Paradigm,2021.1.4,59.97544949926295,
S,left,Distractor,0,9,9,9,2443.0369425194576,2445.0500738805486,left,1,4,0.6628438910138357,D07I03,2023-01-25_12h11.39.756,t1_Paradigm,2021.1.4,59.97544949926295,
R,left,Pretarget,0,10,10,10,2446.537107090543,2448.5394258426013,left,1,4,0.853394431016568,D07I03,2023-01-25_12h11.39.756,t1_Paradigm,2021.1.4,59.97544949926295,
T,left,Pretarget,0,11,11,11,2450.036988073248,2452.0378969034327,left,1,4,0.9548128862043086,D07I03,2023-01-25_12h11.39.756,t1_Paradigm,2021.1.4,59.97544949926295,
X,left,Distractor,0,12,12,12,2453.5369800532144,2455.5375542876054,left,1,4,1.3271618641647365,D07I03,2023-01-25_12h11.39.756,t1_Paradigm,2021.1.4,59.97544949926295,
F,left,Pretarget,0,13,13,13,2457.0371343586567,2459.0377121218635,left,1,4,1.4110655288059206,D07I03,2023-01-25_12h11.39.756,t1_Paradigm,2021.1.4,59.97544949926295,
R,right,Target,0,14,14,14,2460.5371844036663,2462.537809966271,right,1,4,0.9669202494296769,D07I03,2023-01-25_12h11.39.756,t1_Paradigm,2021.1.4,59.97544949926295,
T,right,Target,0,15,15,15,2464.037314969809,2466.03878456073,right,1,4,0.938037542739039,D07I03,2023-01-25_12h11.39.756,t1_Paradigm,2021.1.4,59.97544949926295,
C,left,Distractor,0,16,16,16,2467.53712313061,2469.538511879594,left,1,4,0.7823475215209328,D07I03,2023-01-25_12h11.39.756,t1_Paradigm,2021.1.4,59.97544949926295,
F,right,Target,0,17,17,17,2471.036820294149,2473.0377875101776,left,0,4,0.9312744089729676,D07I03,2023-01-25_12h11.39.756,t1_Paradigm,2021.1.4,59.97544949926295,
M,left,Distractor,0,18,18,18,2474.536951181094,2476.538870535488,left,1,4,0.8379462426782993,D07I03,2023-01-25_12h11.39.756,t1_Paradigm,2021.1.4,59.97544949926295,
N,left,Distractor,0,19,19,19,2478.0369107601264,2480.0388721394947,left,1,4,0.6499993263169017,D07I03,2023-01-25_12h11.39.756,t1_Paradigm,2021.1.4,59.97544949926295,
R,left,Lure,0,20,20,20,2481.537150077923,2483.5389465654052,left,1,4,0.7978755893927882,D07I03,2023-01-25_12h11.39.756,t1_Paradigm,2021.1.4,59.97544949926295,
F,right,Target,0,21,21,21,2485.0371587395593,2487.0389244301123,right,1,4,0.4820014410379372,D07I03,2023-01-25_12h11.39.756,t1_Paradigm,2021.1.4,59.97544949926295,
P,left,Distractor,0,22,22,22,2488.5372142381902,2490.538646936958,left,1,4,0.8061788903742126,D07I03,2023-01-25_12h11.39.756,t1_Paradigm,2021.1.4,59.97544949926295,
L,left,Pretarget,0,23,23,23,2492.0370493463042,2494.0394463738858,left,1,4,0.8571574306897674,D07I03,2023-01-25_12h11.39.756,t1_Paradigm,2021.1.4,59.97544949926295,
T,left,Distractor,0,24,24,24,2495.5368032916786,2497.5389247509147,left,1,4,0.8299730462713342,D07I03,2023-01-25_12h11.39.756,t1_Paradigm,2021.1.4,59.97544949926295,
F,left,Distractor,0,25,25,25,2499.0370714815954,2501.0390280489437,left,1,4,0.977942341734888,D07I03,2023-01-25_12h11.39.756,t1_Paradigm,2021.1.4,59.97544949926295,
V,left,Distractor,0,26,26,26,2502.537075972815,2504.5375706484747,left,1,4,0.8870920449608093,D07I03,2023-01-25_12h11.39.756,t1_Paradigm,2021.1.4,59.97544949926295,
L,right,Target,0,27,27,27,2506.0368289557855,2508.037141737089,right,1,4,0.5555345608918287,D07I03,2023-01-25_12h11.39.756,t1_Paradigm,2021.1.4,59.97544949926295,
S,left,Pretarget,0,28,28,28,2509.5370692359857,2511.5376630392593,left,1,4,0.7832467276657553,D07I03,2023-01-25_12h11.39.756,t1_Paradigm,2021.1.4,59.97544949926295,
W,left,Distractor,0,29,29,29,2513.03720685976,2515.0388897835683,left,1,4,0.946214447993043,D07I03,2023-01-25_12h11.39.756,t1_Paradigm,2021.1.4,59.97544949926295,
Q,left,Distractor,0,30,30,30,2516.537015662164,2518.5391114572913,left,1,4,0.7736512389037671,D07I03,2023-01-25_12h11.39.756,t1_Paradigm,2021.1.4,59.97544949926295,
L,right,Target,0,31,31,31,2520.0370220781906,2522.0497482671917,left,0,4,0.9909139437586418,D07I03,2023-01-25_12h11.39.756,t1_Paradigm,2021.1.4,59.97544949926295,
S,right,Target,0,32,32,32,2523.537022719792,2525.538705643602,right,1,4,1.1662382899503427,D07I03,2023-01-25_12h11.39.756,t1_Paradigm,2021.1.4,59.97544949926295,
Z,left,Pretarget,0,33,33,33,2527.036816123732,2529.0374801824973,left,1,4,1.0111244279305538,D07I03,2023-01-25_12h11.39.756,t1_Paradigm,2021.1.4,59.97544949926295,
F,left,Distractor,0,34,34,34,2530.53692615859,2532.538845512984,left,1,4,0.7257379553539067,D07I03,2023-01-25_12h11.39.756,t1_Paradigm,2021.1.4,59.97544949926295,
V,left,Distractor,0,35,35,35,2534.036773136352,2536.037362127606,left,1,4,0.859234298539377,D07I03,2023-01-25_12h11.39.756,t1_Paradigm,2021.1.4,59.97544949926295,
M,left,Distractor,0,36,36,36,2537.5370698775887,2539.5376883825656,left,1,4,0.7348795102261647,D07I03,2023-01-25_12h11.39.756,t1_Paradigm,2021.1.4,59.97544949926295,
Z,right,Target,0,37,37,37,2541.0370657071717,2543.037305024968,right,1,4,0.4995348380634823,D07I03,2023-01-25_12h11.39.756,t1_Paradigm,2021.1.4,59.97544949926295,
H,left,Pretarget,0,38,38,38,2544.536961767538,2546.539013933686,left,1,4,0.8697305974528717,D07I03,2023-01-25_12h11.39.756,t1_Paradigm,2021.1.4,59.97544949926295,
L,left,Distractor,0,39,39,39,2548.037028173415,2550.0383514789273,left,1,4,1.0985216191220388,D07I03,2023-01-25_12h11.39.756,t1_Paradigm,2021.1.4,59.97544949926295,
G,left,Distractor,0,40,40,40,2551.5369662587573,2553.538926034119,left,1,4,0.6217264629667625,D07I03,2023-01-25_12h11.39.756,t1_Paradigm,2021.1.4,59.97544949926295,
K,left,Distractor,0,41,41,41,2555.036776023565,2557.038725854086,left,1,4,0.9297573394542269,D07I03,2023-01-25_12h11.39.756,t1_Paradigm,2021.1.4,59.97544949926295,
H,right,Target,0,42,42,42,2558.536973316387,2560.538442586506,right,1,4,0.5981953641639848,D07I03,2023-01-25_12h11.39.756,t1_Paradigm,2021.1.4,59.97544949926295,
B,left,Distractor,0,43,43,43,2562.037058007939,2564.053074335444,left,1,4,0.6998743100357387,D07I03,2023-01-25_12h11.39.756,t1_Paradigm,2021.1.4,59.97544949926295,
Z,left,Distractor,0,44,44,44,2565.536920063364,2567.5386796586927,left,1,4,0.6219840664398362,D07I03,2023-01-25_12h11.39.756,t1_Paradigm,2021.1.4,59.97544949926295,
T,left,Pretarget,0,45,45,45,2569.0368482038657,2571.0375603828315,left,1,4,0.8513836482434272,D07I03,2023-01-25_12h11.39.756,t1_Paradigm,2021.1.4,59.97544949926295,
H,right,Target,0,46,46,46,2572.5370596119456,2574.5374240422634,left,0,4,0.807245234014772,D07I03,2023-01-25_12h11.39.756,t1_Paradigm,2021.1.4,59.97544949926295,
F,left,Distractor,0,47,47,47,2576.036997697288,2578.037513545837,left,1,4,0.5710148293619568,D07I03,2023-01-25_12h11.39.756,t1_Paradigm,2021.1.4,59.97544949926295,
R,left,Distractor,0,48,48,48,2579.5369300082066,2581.5381705469727,left,1,4,0.7503257737571403,D07I03,2023-01-25_12h11.39.756,t1_Paradigm,2021.1.4,59.97544949926295,
T,right,Target,0,49,49,49,2583.0368559030985,2585.038042226438,right,1,4,0.5145550774195726,D07I03,2023-01-25_12h11.39.756,t1_Paradigm,2021.1.4,59.97544949926295,
H,right,Target,0,50,50,50,2586.536987752447,2588.5386215936514,right,1,4,0.5498441867912334,D07I03,2023-01-25_12h11.39.756,t1_Paradigm,2021.1.4,59.97544949926295,
Y,left,Pretarget,0,51,51,51,2590.0368093869047,2592.0391480286444,left,1,4,0.8411362911647302,D07I03,2023-01-25_12h11.39.756,t1_Paradigm,2021.1.4,59.97544949926295,
H,left,Distractor,0,52,52,52,2593.5366390413938,2595.5387656334506,left,1,4,0.6378085547439696,D07I03,2023-01-25_12h11.39.756,t1_Paradigm,2021.1.4,59.97544949926295,
S,left,Distractor,0,53,53,53,2597.036486339958,2599.037432062297,left,1,4,0.850837323567248,D07I03,2023-01-25_12h11.39.756,t1_Paradigm,2021.1.4,59.97544949926295,
Q,left,Distractor,0,54,54,54,2600.536651873447,2602.537498468174,left,1,4,0.8549990792998869,D07I03,2023-01-25_12h11.39.756,t1_Paradigm,2021.1.4,59.97544949926295,
Y,right,Target,0,55,55,55,2604.036881246403,2606.037453235186,left,0,4,1.2751096017764212,D07I03,2023-01-25_12h11.39.756,t1_Paradigm,2021.1.4,59.97544949926295,
R,left,Distractor,0,56,56,56,2607.5368366550183,2609.5386639394283,left,1,4,0.989888662688827,D07I03,2023-01-25_12h11.39.756,t1_Paradigm,2021.1.4,59.97544949926295,
H,left,Pretarget,0,57,57,57,2611.036781477188,2613.0372245038334,left,1,4,0.8030151475977618,D07I03,2023-01-25_12h11.39.756,t1_Paradigm,2021.1.4,59.97544949926295,
J,left,Distractor,0,58,58,58,2614.5368164445326,2616.5383922206956,left,1,4,0.6941730286907841,D07I03,2023-01-25_12h11.39.756,t1_Paradigm,2021.1.4,59.97544949926295,
V,left,Distractor,0,59,59,59,2618.0368398630317,2620.0391242893447,left,1,4,0.8571769995705836,D07I03,2023-01-25_12h11.39.756,t1_Paradigm,2021.1.4,59.97544949926295,
Y,left,Lure,0,60,60,60,2621.536857507105,2623.538597533551,left,1,4,0.9899525021537556,D07I03,2023-01-25_12h11.39.756,t1_Paradigm,2021.1.4,59.97544949926295,
H,right,Target,0,61,61,61,2625.036897928073,2627.037425004667,left,0,4,0.9638899600104196,D07I03,2023-01-25_12h11.39.756,t1_Paradigm,2021.1.4,59.97544949926295,
L,left,Distractor,0,62,62,62,2628.536811311712,2630.5373698268386,left,1,4,0.8870211478661076,D07I03,2023-01-25_12h11.39.756,t1_Paradigm,2021.1.4,59.97544949926295,
P,left,Distractor,0,63,63,63,2632.036560445068,2634.0385397893106,left,1,4,0.53800180547114,D07I03,2023-01-25_12h11.39.756,t1_Paradigm,2021.1.4,59.97544949926295,
