Letter,CorrAnswer,Stimulus,finaln_nback_run.thisRepN,finaln_nback_run.thisTrialN,finaln_nback_run.thisN,finaln_nback_run.thisIndex,finaln_fixcross.started,finaln_nback_trial.started,finaln_trial_resp.keys,finaln_trial_resp.corr,finaln_trial_resp.rt,finaln_level,finaln_money,Participant,date,expName,psychopyVersion,frameRate,
F,left,Distractor,0,0,0,0,3077.8344440544925,3079.837899405683,left,1,0.8814687183403294,1,2.9699999999999998,D07I03,2023-01-25_12h11.39.756,t1_Paradigm,2021.1.4,59.97544949926295,
T,left,Pretarget,0,1,1,1,3081.3348469809707,3083.338005911727,left,1,0.7575919240189251,1,2.9699999999999998,D07I03,2023-01-25_12h11.39.756,t1_Paradigm,2021.1.4,59.97544949926295,
B,left,Distractor,0,2,2,2,3084.835745866315,3086.8377377218103,left,1,1.2418793953784188,1,2.9699999999999998,D07I03,2023-01-25_12h11.39.756,t1_Paradigm,2021.1.4,59.97544949926295,
T,right,Target,0,3,3,3,3088.33556236795,3090.3373290209083,right,1,1.0701294176760712,1,2.9699999999999998,D07I03,2023-01-25_12h11.39.756,t1_Paradigm,2021.1.4,59.97544949926295,
Z,left,Distractor,0,4,4,4,3091.8355132853458,3093.8374146748656,left,1,0.9142969606637052,1,2.9699999999999998,D07I03,2023-01-25_12h11.39.756,t1_Paradigm,2021.1.4,59.97544949926295,
T,right,Target,0,5,5,5,3095.3357712096195,3097.3378512854824,left,0,0.8535718341572647,1,2.9699999999999998,D07I03,2023-01-25_12h11.39.756,t1_Paradigm,2021.1.4,59.97544949926295,
L,left,Distractor,0,6,6,6,3098.8355411950624,3100.837543957804,left,1,1.3378766287878534,1,2.9699999999999998,D07I03,2023-01-25_12h11.39.756,t1_Paradigm,2021.1.4,59.97544949926295,
T,right,Target,0,7,7,7,3102.33580970578,3104.3376219125284,right,1,0.8779915526592958,1,2.9699999999999998,D07I03,2023-01-25_12h11.39.756,t1_Paradigm,2021.1.4,59.97544949926295,
Z,left,Lure,0,8,8,8,3105.8357044829418,3107.83744483019,left,1,0.882026271063296,1,2.9699999999999998,D07I03,2023-01-25_12h11.39.756,t1_Paradigm,2021.1.4,59.97544949926295,
J,left,Distractor,0,9,9,9,3109.3352835915894,3111.335622678601,left,1,0.9517864464014565,1,2.9699999999999998,D07I03,2023-01-25_12h11.39.756,t1_Paradigm,2021.1.4,59.97544949926295,
D,left,Pretarget,0,10,10,10,3112.835745224712,3114.8380678263848,left,1,0.8734628001984674,1,2.9699999999999998,D07I03,2023-01-25_12h11.39.756,t1_Paradigm,2021.1.4,59.97544949926295,
H,left,Distractor,0,11,11,11,3116.3356188289863,3118.3376004188385,left,1,0.637875602224085,1,2.9699999999999998,D07I03,2023-01-25_12h11.39.756,t1_Paradigm,2021.1.4,59.97544949926295,
D,right,Target,0,12,12,12,3119.835739771089,3121.837255236601,right,1,0.5942026707343757,1,2.9699999999999998,D07I03,2023-01-25_12h11.39.756,t1_Paradigm,2021.1.4,59.97544949926295,
S,left,Distractor,0,13,13,13,3123.3356910092853,3125.3372584446142,left,1,0.8381178713934787,1,2.9699999999999998,D07I03,2023-01-25_12h11.39.756,t1_Paradigm,2021.1.4,59.97544949926295,
R,left,Pretarget,0,14,14,14,3126.8356477011066,3128.837375537102,left,1,0.8740970244380151,1,2.9699999999999998,D07I03,2023-01-25_12h11.39.756,t1_Paradigm,2021.1.4,59.97544949926295,
Z,left,Distractor,0,15,15,15,3130.3356823476506,3132.3377422130297,left,1,0.8777477436433401,1,2.9699999999999998,D07I03,2023-01-25_12h11.39.756,t1_Paradigm,2021.1.4,59.97544949926295,
R,right,Target,0,16,16,16,3133.8354491250784,3135.837622874932,right,1,0.801691521284738,1,2.9699999999999998,D07I03,2023-01-25_12h11.39.756,t1_Paradigm,2021.1.4,59.97544949926295,
T,left,Distractor,0,17,17,17,3137.3355504983,3139.337824658972,left,1,1.013751790873357,1,2.9699999999999998,D07I03,2023-01-25_12h11.39.756,t1_Paradigm,2021.1.4,59.97544949926295,
M,left,Distractor,0,18,18,18,3140.835436934628,3142.837734513797,left,1,0.7937170416716981,1,2.9699999999999998,D07I03,2023-01-25_12h11.39.756,t1_Paradigm,2021.1.4,59.97544949926295,
R,left,Lure,0,19,19,19,3144.3356486635103,3146.3378634759347,None,0,,1,2.9699999999999998,D07I03,2023-01-25_12h11.39.756,t1_Paradigm,2021.1.4,59.97544949926295,
J,left,Distractor,0,20,20,20,3147.8356242826076,3149.837573150725,left,1,1.0898596622464538,1,2.9699999999999998,D07I03,2023-01-25_12h11.39.756,t1_Paradigm,2021.1.4,59.97544949926295,
K,left,Distractor,0,21,21,21,3151.335350318267,3153.337530804948,left,1,0.693904197170923,1,2.9699999999999998,D07I03,2023-01-25_12h11.39.756,t1_Paradigm,2021.1.4,59.97544949926295,
Z,left,Distractor,0,22,22,22,3154.835569104779,3156.8374230156996,left,1,0.31414663315808866,1,2.9699999999999998,D07I03,2023-01-25_12h11.39.756,t1_Paradigm,2021.1.4,59.97544949926295,
W,left,Pretarget,0,23,23,23,3158.335710578168,3160.3365757793717,left,1,0.5109906537745701,1,2.9699999999999998,D07I03,2023-01-25_12h11.39.756,t1_Paradigm,2021.1.4,59.97544949926295,
Q,left,Distractor,0,24,24,24,3161.8355411950624,3163.8376626542968,left,1,0.5777240685038123,1,2.9699999999999998,D07I03,2023-01-25_12h11.39.756,t1_Paradigm,2021.1.4,59.97544949926295,
W,right,Target,0,25,25,25,3165.3356845932585,3167.337499045617,right,1,0.5976384530458745,1,2.9699999999999998,D07I03,2023-01-25_12h11.39.756,t1_Paradigm,2021.1.4,59.97544949926295,
D,left,Pretarget,0,26,26,26,3168.8355633303536,3170.837543957804,left,1,0.7458971113137522,1,2.9699999999999998,D07I03,2023-01-25_12h11.39.756,t1_Paradigm,2021.1.4,59.97544949926295,
W,right,Target,0,27,27,27,3172.335585786447,3174.337282183914,right,1,0.7339623392053909,1,2.9699999999999998,D07I03,2023-01-25_12h11.39.756,t1_Paradigm,2021.1.4,59.97544949926295,
D,right,Target,0,28,28,28,3175.835227772156,3177.836917753596,right,1,0.7863703702751081,1,2.9699999999999998,D07I03,2023-01-25_12h11.39.756,t1_Paradigm,2021.1.4,59.97544949926295,
L,left,Pretarget,0,29,29,29,3179.3355504983,3181.3368959391037,left,1,0.8384608080214093,1,2.9699999999999998,D07I03,2023-01-25_12h11.39.756,t1_Paradigm,2021.1.4,59.97544949926295,
P,left,Distractor,0,30,30,30,3182.8352280929585,3184.8367878290546,left,1,0.7625823096022941,1,2.9699999999999998,D07I03,2023-01-25_12h11.39.756,t1_Paradigm,2021.1.4,59.97544949926295,
L,right,Target,0,31,31,31,3186.3355004532923,3188.337525992928,right,1,0.7017378449963871,1,2.9699999999999998,D07I03,2023-01-25_12h11.39.756,t1_Paradigm,2021.1.4,59.97544949926295,
R,left,Distractor,0,32,32,32,3189.8355309294193,3191.8373206800725,left,1,0.9143059431025904,1,2.9699999999999998,D07I03,2023-01-25_12h11.39.756,t1_Paradigm,2021.1.4,59.97544949926295,
V,left,Distractor,0,33,33,33,3193.33563903947,3195.3370268260487,left,1,0.9181998297190148,1,2.9699999999999998,D07I03,2023-01-25_12h11.39.756,t1_Paradigm,2021.1.4,59.97544949926295,
L,left,Lure,0,34,34,34,3196.835509756532,3198.837337682545,left,1,0.7142715531990689,1,2.9699999999999998,D07I03,2023-01-25_12h11.39.756,t1_Paradigm,2021.1.4,59.97544949926295,
H,left,Distractor,0,35,35,35,3200.335509756532,3202.3377139825106,left,1,0.7495048431374016,1,2.9699999999999998,D07I03,2023-01-25_12h11.39.756,t1_Paradigm,2021.1.4,59.97544949926295,
K,left,Pretarget,0,36,36,36,3203.835544403076,3205.8361410935604,left,1,0.5154786644652631,1,2.9699999999999998,D07I03,2023-01-25_12h11.39.756,t1_Paradigm,2021.1.4,59.97544949926295,
F,left,Distractor,0,37,37,37,3207.3355007740947,3209.3375551858508,left,1,0.517505166506453,1,2.9699999999999998,D07I03,2023-01-25_12h11.39.756,t1_Paradigm,2021.1.4,59.97544949926295,
K,right,Target,0,38,38,38,3210.835472864378,3212.8376504638463,right,1,0.5855294858138222,1,2.9699999999999998,D07I03,2023-01-25_12h11.39.756,t1_Paradigm,2021.1.4,59.97544949926295,
S,left,Pretarget,0,39,39,39,3214.3354969244783,3216.3370075779685,left,1,0.7661637357177824,1,2.9699999999999998,D07I03,2023-01-25_12h11.39.756,t1_Paradigm,2021.1.4,59.97544949926295,
W,left,Distractor,0,40,40,40,3217.835468693961,3219.8369880090877,left,1,0.7701269154240435,1,2.9699999999999998,D07I03,2023-01-25_12h11.39.756,t1_Paradigm,2021.1.4,59.97544949926295,
S,right,Target,0,41,41,41,3221.335452653894,3223.348249098389,right,1,0.858932424480372,1,2.9699999999999998,D07I03,2023-01-25_12h11.39.756,t1_Paradigm,2021.1.4,59.97544949926295,
F,left,Pretarget,0,42,42,42,3224.8355161725585,3226.83743745176,left,1,0.6979196674947161,1,2.9699999999999998,D07I03,2023-01-25_12h11.39.756,t1_Paradigm,2021.1.4,59.97544949926295,
Y,left,Distractor,0,43,43,43,3228.3354677315556,3230.3369126207735,left,1,0.7342523436145711,1,2.9699999999999998,D07I03,2023-01-25_12h11.39.756,t1_Paradigm,2021.1.4,59.97544949926295,
F,right,Target,0,44,44,44,3231.8354135161308,3233.8375340129614,right,1,0.5457417793040804,1,2.9699999999999998,D07I03,2023-01-25_12h11.39.756,t1_Paradigm,2021.1.4,59.97544949926295,
F,left,Lure,0,45,45,45,3235.3354199321575,3237.335085015563,left,1,0.9200242269162118,1,2.9699999999999998,D07I03,2023-01-25_12h11.39.756,t1_Paradigm,2021.1.4,59.97544949926295,
B,left,Pretarget,0,46,46,46,3238.8354289145946,3240.837696338437,left,1,0.9055467834205047,1,2.9699999999999998,D07I03,2023-01-25_12h11.39.756,t1_Paradigm,2021.1.4,59.97544949926295,
W,left,Distractor,0,47,47,47,3242.3353432606373,3244.3360275298883,left,1,1.1511070533306338,1,2.9699999999999998,D07I03,2023-01-25_12h11.39.756,t1_Paradigm,2021.1.4,59.97544949926295,
B,right,Target,0,48,48,48,3245.835457786715,3247.837314905649,right,1,0.6258933515200624,1,2.9699999999999998,D07I03,2023-01-25_12h11.39.756,t1_Paradigm,2021.1.4,59.97544949926295,
R,left,Pretarget,0,49,49,49,3249.335330107783,3251.336679398203,left,1,0.8225330216864677,1,2.9699999999999998,D07I03,2023-01-25_12h11.39.756,t1_Paradigm,2021.1.4,59.97544949926295,
N,left,Distractor,0,50,50,50,3252.835302518869,3254.8358514099536,left,1,0.8913757052014262,1,2.9699999999999998,D07I03,2023-01-25_12h11.39.756,t1_Paradigm,2021.1.4,59.97544949926295,
R,right,Target,0,51,51,51,3256.3351809351616,3258.3369264152307,right,1,0.9261810461593996,1,2.9699999999999998,D07I03,2023-01-25_12h11.39.756,t1_Paradigm,2021.1.4,59.97544949926295,
V,left,Distractor,0,52,52,52,3259.8353888144275,3261.8369042799395,left,1,0.7222530904400628,1,2.9699999999999998,D07I03,2023-01-25_12h11.39.756,t1_Paradigm,2021.1.4,59.97544949926295,
G,left,Distractor,0,53,53,53,3263.3356217161972,3265.337005653161,left,1,0.7742087916249147,1,2.9699999999999998,D07I03,2023-01-25_12h11.39.756,t1_Paradigm,2021.1.4,59.97544949926295,
H,left,Distractor,0,54,54,54,3266.835368924744,3268.8354263481842,left,1,0.7478001048366423,1,2.9699999999999998,D07I03,2023-01-25_12h11.39.756,t1_Paradigm,2021.1.4,59.97544949926295,
V,left,Lure,0,55,55,55,3270.3353653959302,3272.3371391065166,left,1,1.1179743705397414,1,2.9699999999999998,D07I03,2023-01-25_12h11.39.756,t1_Paradigm,2021.1.4,59.97544949926295,
L,left,Distractor,0,56,56,56,3273.835775700839,3275.8372096828107,left,1,1.0100584050924226,1,2.9699999999999998,D07I03,2023-01-25_12h11.39.756,t1_Paradigm,2021.1.4,59.97544949926295,
K,left,Distractor,0,57,57,57,3277.3353483934598,3279.337238554931,left,1,0.981856438836985,1,2.9699999999999998,D07I03,2023-01-25_12h11.39.756,t1_Paradigm,2021.1.4,59.97544949926295,
D,left,Pretarget,0,58,58,58,3280.8351616870814,3282.8353297869826,left,1,0.8597957008787489,1,2.9699999999999998,D07I03,2023-01-25_12h11.39.756,t1_Paradigm,2021.1.4,59.97544949926295,
T,left,Pretarget,0,59,59,59,3284.3350506898196,3286.337146484949,left,1,0.6858694069087505,1,2.9699999999999998,D07I03,2023-01-25_12h11.39.756,t1_Paradigm,2021.1.4,59.97544949926295,
D,right,Target,0,60,60,60,3287.835085015563,3289.8370332420754,right,1,0.6100011741327762,1,2.9699999999999998,D07I03,2023-01-25_12h11.39.756,t1_Paradigm,2021.1.4,59.97544949926295,
T,right,Target,0,61,61,61,3291.3350956020067,3293.348277328906,right,1,1.3227473169790755,1,2.9699999999999998,D07I03,2023-01-25_12h11.39.756,t1_Paradigm,2021.1.4,59.97544949926295,
T,left,Lure,0,62,62,62,3294.8352681931256,3296.835260173092,left,1,1.1478541277829208,1,2.9699999999999998,D07I03,2023-01-25_12h11.39.756,t1_Paradigm,2021.1.4,59.97544949926295,
F,left,Distractor,0,63,63,63,3298.3353131053127,3300.3359835801048,left,1,1.3270306564172643,1,2.9699999999999998,D07I03,2023-01-25_12h11.39.756,t1_Paradigm,2021.1.4,59.97544949926295,
