Letter,CorrAnswer,Stimulus,nback_run.thisRepN,nback_run.thisTrialN,nback_run.thisN,nback_run.thisIndex,fixcross.started,nback_trial.started,trial_resp.keys,trial_resp.corr,currentlevel,trial_resp.rt,Participant,date,expName,psychopyVersion,frameRate,
H,left,Distractor,0,0,0,0,227.85733895894373,229.8039930886589,None,0,1,,D08C04,2022-12-02_14h32.28.997,t1_Paradigm,2021.1.4,59.98649086257707,
Q,left,Pretarget,0,1,1,1,231.30258990003495,233.30541199661093,None,0,1,,D08C04,2022-12-02_14h32.28.997,t1_Paradigm,2021.1.4,59.98649086257707,
Q,right,Target,0,2,2,2,234.8028471833677,236.8028324264451,right,1,1,1.1460708472295664,D08C04,2022-12-02_14h32.28.997,t1_Paradigm,2021.1.4,59.98649086257707,
T,left,Distractor,0,3,3,3,238.30260914814426,240.3045718157664,left,1,1,0.7481481695431285,D08C04,2022-12-02_14h32.28.997,t1_Paradigm,2021.1.4,59.98649086257707,
Q,left,Lure,0,4,4,4,241.80270089756232,243.8021731780027,left,1,1,1.1547023501479998,D08C04,2022-12-02_14h32.28.997,t1_Paradigm,2021.1.4,59.98649086257707,
L,left,Distractor,0,5,5,5,245.30314392532455,247.30451407138025,left,1,1,0.628436352533754,D08C04,2022-12-02_14h32.28.997,t1_Paradigm,2021.1.4,59.98649086257707,
V,left,Pretarget,0,6,6,6,248.80243142374093,250.80510017689085,left,1,1,0.823733007942792,D08C04,2022-12-02_14h32.28.997,t1_Paradigm,2021.1.4,59.98649086257707,
V,right,Target,0,7,7,7,252.3024426518241,254.3025190027547,right,1,1,0.7823636446264572,D08C04,2022-12-02_14h32.28.997,t1_Paradigm,2021.1.4,59.98649086257707,
K,left,Distractor,0,8,8,8,255.80260946892668,257.802555895003,left,1,1,0.5303215784952044,D08C04,2022-12-02_14h32.28.997,t1_Paradigm,2021.1.4,59.98649086257707,
G,left,Pretarget,0,9,9,9,259.3026611180976,261.305020297179,left,1,1,0.6279378259787336,D08C04,2022-12-02_14h32.28.997,t1_Paradigm,2021.1.4,59.98649086257707,
G,right,Target,0,10,10,10,262.802755113109,264.80273522337666,right,1,1,0.5540570886805654,D08C04,2022-12-02_14h32.28.997,t1_Paradigm,2021.1.4,59.98649086257707,
G,right,Target,0,11,11,11,266.3024692783947,268.3028311432572,right,1,1,0.6379417204880156,D08C04,2022-12-02_14h32.28.997,t1_Paradigm,2021.1.4,59.98649086257707,
P,left,Pretarget,0,12,12,12,269.80291519343155,271.8042410687194,left,1,1,0.576366312452592,D08C04,2022-12-02_14h32.28.997,t1_Paradigm,2021.1.4,59.98649086257707,
P,right,Target,0,13,13,13,273.30251226591645,275.3030460806913,right,1,1,0.7099239506642334,D08C04,2022-12-02_14h32.28.997,t1_Paradigm,2021.1.4,59.98649086257707,
G,left,Lure,0,14,14,14,276.8028635442606,278.8032911735354,left,1,1,1.0173698329599574,D08C04,2022-12-02_14h32.28.997,t1_Paradigm,2021.1.4,59.98649086257707,
Y,left,Distractor,0,15,15,15,280.30246093752794,282.30373580532614,left,1,1,0.6530325748608448,D08C04,2022-12-02_14h32.28.997,t1_Paradigm,2021.1.4,59.98649086257707,
B,left,Distractor,0,16,16,16,283.8022129574674,285.80399950471474,left,1,1,0.704838273988571,D08C04,2022-12-02_14h32.28.997,t1_Paradigm,2021.1.4,59.98649086257707,
T,left,Pretarget,0,17,17,17,287.3027942510089,289.3028603362618,left,1,1,0.5499694275204092,D08C04,2022-12-02_14h32.28.997,t1_Paradigm,2021.1.4,59.98649086257707,
T,right,Target,0,18,18,18,290.8024064011988,292.8029174390249,right,1,1,0.3939636582508683,D08C04,2022-12-02_14h32.28.997,t1_Paradigm,2021.1.4,59.98649086257707,
S,left,Distractor,0,19,19,19,294.3032661509933,296.3045365275466,left,1,1,0.6202700127614662,D08C04,2022-12-02_14h32.28.997,t1_Paradigm,2021.1.4,59.98649086257707,
T,left,Lure,0,20,20,20,297.8024606167455,299.80232491745846,left,1,1,0.9629512001993135,D08C04,2022-12-02_14h32.28.997,t1_Paradigm,2021.1.4,59.98649086257707,
J,left,Distractor,0,21,21,21,301.30231304775225,303.3036912138341,left,1,1,0.6611880073905922,D08C04,2022-12-02_14h32.28.997,t1_Paradigm,2021.1.4,59.98649086257707,
P,left,Distractor,0,22,22,22,304.80223092238884,306.80382402590476,left,1,1,0.44102597661549225,D08C04,2022-12-02_14h32.28.997,t1_Paradigm,2021.1.4,59.98649086257707,
F,left,Distractor,0,23,23,23,308.30290941899875,310.3048955051345,left,1,1,0.5719780597137287,D08C04,2022-12-02_14h32.28.997,t1_Paradigm,2021.1.4,59.98649086257707,
L,left,Distractor,0,24,24,24,311.8027769276523,313.8027515843278,left,1,1,0.6742776978644542,D08C04,2022-12-02_14h32.28.997,t1_Paradigm,2021.1.4,59.98649086257707,
W,left,Pretarget,0,25,25,25,315.30272752413293,317.30418107873993,left,1,1,0.5325934994034469,D08C04,2022-12-02_14h32.28.997,t1_Paradigm,2021.1.4,59.98649086257707,
W,right,Target,0,26,26,26,318.8024968673708,320.80289787007496,right,1,1,0.6980205865111202,D08C04,2022-12-02_14h32.28.997,t1_Paradigm,2021.1.4,59.98649086257707,
V,left,Distractor,0,27,27,27,322.30291808064794,324.30289754929254,left,1,1,0.6379507029778324,D08C04,2022-12-02_14h32.28.997,t1_Paradigm,2021.1.4,59.98649086257707,
W,left,Lure,0,28,28,28,325.80270282237325,327.8041541313287,left,1,1,0.8010170069755986,D08C04,2022-12-02_14h32.28.997,t1_Paradigm,2021.1.4,59.98649086257707,
R,left,Pretarget,0,29,29,29,329.30234833597206,331.3038609181531,left,1,1,0.9490511635085568,D08C04,2022-12-02_14h32.28.997,t1_Paradigm,2021.1.4,59.98649086257707,
R,right,Target,0,30,30,30,332.8027884765761,334.80283499287907,right,1,1,0.47409907524706796,D08C04,2022-12-02_14h32.28.997,t1_Paradigm,2021.1.4,59.98649086257707,
G,left,Distractor,0,31,31,31,336.3026213386329,338.30255493259756,left,1,1,0.47817133786156774,D08C04,2022-12-02_14h32.28.997,t1_Paradigm,2021.1.4,59.98649086257707,
R,left,Lure,0,32,32,32,339.80242436612025,341.8034352136892,left,1,1,0.7373653673566878,D08C04,2022-12-02_14h32.28.997,t1_Paradigm,2021.1.4,59.98649086257707,
S,left,Distractor,0,33,33,33,343.3030585919623,345.3023124061292,left,1,1,0.6946858480805531,D08C04,2022-12-02_14h32.28.997,t1_Paradigm,2021.1.4,59.98649086257707,
R,left,Lure,0,34,34,34,346.8027060304303,348.80280130862957,left,1,1,0.746107226179447,D08C04,2022-12-02_14h32.28.997,t1_Paradigm,2021.1.4,59.98649086257707,
P,left,Pretarget,0,35,35,35,350.3026595140691,352.3049336805707,left,1,1,0.5399860643665306,D08C04,2022-12-02_14h32.28.997,t1_Paradigm,2021.1.4,59.98649086257707,
P,right,Target,0,36,36,36,353.8027855893597,355.8021690075984,right,1,1,0.4026638128561899,D08C04,2022-12-02_14h32.28.997,t1_Paradigm,2021.1.4,59.98649086257707,
Y,left,Pretarget,0,37,37,37,357.3025716142729,359.30449386080727,left,1,1,0.46830731304362416,D08C04,2022-12-02_14h32.28.997,t1_Paradigm,2021.1.4,59.98649086257707,
Y,right,Target,0,38,38,38,360.802540817298,362.8025202859426,right,1,1,0.41037653834791854,D08C04,2022-12-02_14h32.28.997,t1_Paradigm,2021.1.4,59.98649086257707,
J,left,Distractor,0,39,39,39,364.30243046133546,366.30323182512075,left,1,1,0.5096952828462236,D08C04,2022-12-02_14h32.28.997,t1_Paradigm,2021.1.4,59.98649086257707,
Y,left,Lure,0,40,40,40,367.80277917330386,369.8036864018068,left,1,1,0.8490359574207105,D08C04,2022-12-02_14h32.28.997,t1_Paradigm,2021.1.4,59.98649086257707,
T,left,Distractor,0,41,41,41,371.3033046472119,373.3022042958182,left,1,1,0.8706124690943398,D08C04,2022-12-02_14h32.28.997,t1_Paradigm,2021.1.4,59.98649086257707,
V,left,Distractor,0,42,42,42,374.80246542877285,376.8038403868559,left,1,1,0.5529631533427164,D08C04,2022-12-02_14h32.28.997,t1_Paradigm,2021.1.4,59.98649086257707,
N,left,Pretarget,0,43,43,43,378.3025478749187,380.30443611642113,left,1,1,0.6842681186972186,D08C04,2022-12-02_14h32.28.997,t1_Paradigm,2021.1.4,59.98649086257707,
N,right,Target,0,44,44,44,381.8026989727514,383.80279777984833,right,1,1,0.5302227714564651,D08C04,2022-12-02_14h32.28.997,t1_Paradigm,2021.1.4,59.98649086257707,
N,right,Target,0,45,45,45,385.30248563934583,387.3023666217341,right,1,1,0.47044128901325166,D08C04,2022-12-02_14h32.28.997,t1_Paradigm,2021.1.4,59.98649086257707,
X,left,Distractor,0,46,46,46,388.802506170643,390.802526381216,left,1,1,0.426366601139307,D08C04,2022-12-02_14h32.28.997,t1_Paradigm,2021.1.4,59.98649086257707,
Z,left,Distractor,0,47,47,47,392.3027676244383,394.3053455905756,left,1,1,0.7475793872727081,D08C04,2022-12-02_14h32.28.997,t1_Paradigm,2021.1.4,59.98649086257707,
H,left,Pretarget,0,48,48,48,395.8028385217185,397.8041454696795,left,1,1,0.7526438909699209,D08C04,2022-12-02_14h32.28.997,t1_Paradigm,2021.1.4,59.98649086257707,
H,right,Target,0,49,49,49,399.3026598349097,401.3023316542967,right,1,1,0.5827813931973651,D08C04,2022-12-02_14h32.28.997,t1_Paradigm,2021.1.4,59.98649086257707,
K,left,Distractor,0,50,50,50,402.8024574087467,404.8029132686206,left,1,1,0.5379252312704921,D08C04,2022-12-02_14h32.28.997,t1_Paradigm,2021.1.4,59.98649086257707,
V,left,Pretarget,0,51,51,51,406.30355551454704,408.30289947410347,left,1,1,0.8778391793021001,D08C04,2022-12-02_14h32.28.997,t1_Paradigm,2021.1.4,59.98649086257707,
V,right,Target,0,52,52,52,409.80223830085015,411.80257963435724,right,1,1,0.8182065490982495,D08C04,2022-12-02_14h32.28.997,t1_Paradigm,2021.1.4,59.98649086257707,
R,left,Distractor,0,53,53,53,413.3022578698001,415.3021542506758,left,1,1,0.47064018639503047,D08C04,2022-12-02_14h32.28.997,t1_Paradigm,2021.1.4,59.98649086257707,
V,left,Lure,0,54,54,54,416.80231625575107,418.8019399548648,left,1,1,0.6187753955018707,D08C04,2022-12-02_14h32.28.997,t1_Paradigm,2021.1.4,59.98649086257707,
Y,left,Distractor,0,55,55,55,420.3025161155383,422.3029200054589,left,1,1,0.7018153552780859,D08C04,2022-12-02_14h32.28.997,t1_Paradigm,2021.1.4,59.98649086257707,
Q,left,Distractor,0,56,56,56,423.8024468222284,425.8023326167022,left,1,1,0.5944874639972113,D08C04,2022-12-02_14h32.28.997,t1_Paradigm,2021.1.4,59.98649086257707,
Z,left,Pretarget,0,57,57,57,427.3024545215303,429.3030476847198,left,1,1,0.5662385882460512,D08C04,2022-12-02_14h32.28.997,t1_Paradigm,2021.1.4,59.98649086257707,
Z,right,Target,0,58,58,58,430.80275382992113,432.80222065671114,right,1,1,0.5706306906649843,D08C04,2022-12-02_14h32.28.997,t1_Paradigm,2021.1.4,59.98649086257707,
B,left,Distractor,0,59,59,59,434.3022726266645,436.30421540455427,left,1,1,0.4927450591349043,D08C04,2022-12-02_14h32.28.997,t1_Paradigm,2021.1.4,59.98649086257707,
S,left,Pretarget,0,60,60,60,437.80244650144596,439.80231721815653,left,1,1,0.5467902781674638,D08C04,2022-12-02_14h32.28.997,t1_Paradigm,2021.1.4,59.98649086257707,
S,right,Target,0,61,61,61,441.3027419602149,443.3025016793981,right,1,1,0.4224014864885248,D08C04,2022-12-02_14h32.28.997,t1_Paradigm,2021.1.4,59.98649086257707,
T,left,Distractor,0,62,62,62,444.8024323861464,446.8030290781753,left,1,1,0.7777697577257641,D08C04,2022-12-02_14h32.28.997,t1_Paradigm,2021.1.4,59.98649086257707,
D,left,Distractor,0,63,63,63,448.3026726669632,450.30445857258746,left,1,1,0.6204358674585819,D08C04,2022-12-02_14h32.28.997,t1_Paradigm,2021.1.4,59.98649086257707,
R,left,Distractor,0,0,0,0,466.95157908450346,468.95390907058027,None,0,1,,D08C04,2022-12-02_14h32.28.997,t1_Paradigm,2021.1.4,59.98649086257707,
V,left,Distractor,0,1,1,1,470.45239680918166,472.45336787734414,left,1,1,0.5673764735111035,D08C04,2022-12-02_14h32.28.997,t1_Paradigm,2021.1.4,59.98649086257707,
N,left,Pretarget,0,2,2,2,473.95237916510087,475.95318790734746,left,1,1,0.6835732612526044,D08C04,2022-12-02_14h32.28.997,t1_Paradigm,2021.1.4,59.98649086257707,
N,right,Target,0,3,3,3,477.45242568140384,479.4524320974597,right,1,1,0.6245584960561246,D08C04,2022-12-02_14h32.28.997,t1_Paradigm,2021.1.4,59.98649086257707,
S,left,Distractor,0,4,4,4,480.95225758105516,482.95278497983236,left,1,1,0.6441553375334479,D08C04,2022-12-02_14h32.28.997,t1_Paradigm,2021.1.4,59.98649086257707,
N,left,Lure,0,5,5,5,484.45254630298587,486.4538818023866,left,1,1,0.7591818390064873,D08C04,2022-12-02_14h32.28.997,t1_Paradigm,2021.1.4,59.98649086257707,
Z,left,Distractor,0,6,6,6,487.95257228799164,489.95232494949596,left,1,1,0.8926939233206213,D08C04,2022-12-02_14h32.28.997,t1_Paradigm,2021.1.4,59.98649086257707,
L,left,Pretarget,0,7,7,7,491.4527265938232,493.4537162684719,left,1,1,0.623269192117732,D08C04,2022-12-02_14h32.28.997,t1_Paradigm,2021.1.4,59.98649086257707,
L,right,Target,0,8,8,8,494.952311155037,496.9525687591522,right,1,1,0.40431979356799275,D08C04,2022-12-02_14h32.28.997,t1_Paradigm,2021.1.4,59.98649086257707,
H,left,Distractor,0,9,9,9,498.4528619723278,500.45239969639806,left,1,1,0.4725441471673548,D08C04,2022-12-02_14h32.28.997,t1_Paradigm,2021.1.4,59.98649086257707,
L,left,Lure,0,10,10,10,501.95229543570895,503.95388212322723,left,1,1,0.7151716323569417,D08C04,2022-12-02_14h32.28.997,t1_Paradigm,2021.1.4,59.98649086257707,
X,left,Pretarget,0,11,11,11,505.4524850298185,507.452216839185,left,1,1,0.5927323554060422,D08C04,2022-12-02_14h32.28.997,t1_Paradigm,2021.1.4,59.98649086257707,
X,right,Target,0,12,12,12,508.95243145583663,510.9524965786841,right,1,1,0.43631275126244873,D08C04,2022-12-02_14h32.28.997,t1_Paradigm,2021.1.4,59.98649086257707,
X,right,Target,0,13,13,13,512.4525116563891,514.4528270048904,right,1,1,0.5360382730141282,D08C04,2022-12-02_14h32.28.997,t1_Paradigm,2021.1.4,59.98649086257707,
R,left,Distractor,0,14,14,14,515.9525437366101,517.9538750655483,left,1,1,0.47510158200748265,D08C04,2022-12-02_14h32.28.997,t1_Paradigm,2021.1.4,59.98649086257707,
T,left,Distractor,0,15,15,15,519.4524070748594,521.4536177822156,left,1,1,0.7991278030676767,D08C04,2022-12-02_14h32.28.997,t1_Paradigm,2021.1.4,59.98649086257707,
V,left,Pretarget,0,16,16,16,522.9528225136455,524.9532738823327,left,1,1,0.6596933901309967,D08C04,2022-12-02_14h32.28.997,t1_Paradigm,2021.1.4,59.98649086257707,
V,right,Target,0,17,17,17,526.4525058819563,528.4525363581488,right,1,1,0.6002679981174879,D08C04,2022-12-02_14h32.28.997,t1_Paradigm,2021.1.4,59.98649086257707,
N,left,Distractor,0,18,18,18,529.9521667940426,531.9531215012539,left,1,1,0.7159720337949693,D08C04,2022-12-02_14h32.28.997,t1_Paradigm,2021.1.4,59.98649086257707,
B,left,Distractor,0,19,19,19,533.4525440573925,535.453963286127,left,1,1,0.5110619000042789,D08C04,2022-12-02_14h32.28.997,t1_Paradigm,2021.1.4,59.98649086257707,
V,left,Lure,0,20,20,20,536.9527477667434,538.9523749946384,left,1,1,0.6765945311053656,D08C04,2022-12-02_14h32.28.997,t1_Paradigm,2021.1.4,59.98649086257707,
P,left,Distractor,0,21,21,21,540.4528683883836,542.4546555771958,left,1,1,0.838305766810663,D08C04,2022-12-02_14h32.28.997,t1_Paradigm,2021.1.4,59.98649086257707,
K,left,Pretarget,0,22,22,22,543.9523159670644,545.9545349556138,left,1,1,0.6822300626663491,D08C04,2022-12-02_14h32.28.997,t1_Paradigm,2021.1.4,59.98649086257707,
K,right,Target,0,23,23,23,547.4524997866829,549.4526306740008,right,1,1,0.4165282405447215,D08C04,2022-12-02_14h32.28.997,t1_Paradigm,2021.1.4,59.98649086257707,
J,left,Pretarget,0,24,24,24,550.9523169294698,552.9537534815609,left,1,1,0.4191498358268291,D08C04,2022-12-02_14h32.28.997,t1_Paradigm,2021.1.4,59.98649086257707,
J,right,Target,0,25,25,25,554.4523817314766,556.4523146838765,right,1,1,0.3926480485824868,D08C04,2022-12-02_14h32.28.997,t1_Paradigm,2021.1.4,59.98649086257707,
H,left,Distractor,0,26,26,26,557.9525841576396,559.9522479570005,left,1,1,0.42916239198530093,D08C04,2022-12-02_14h32.28.997,t1_Paradigm,2021.1.4,59.98649086257707,
J,left,Lure,0,27,27,27,561.4525395661476,563.4528594058938,left,1,1,0.7999750415910967,D08C04,2022-12-02_14h32.28.997,t1_Paradigm,2021.1.4,59.98649086257707,
V,left,Distractor,0,28,28,28,564.9526130298618,566.9524122077273,left,1,1,0.6607260523014702,D08C04,2022-12-02_14h32.28.997,t1_Paradigm,2021.1.4,59.98649086257707,
Z,left,Pretarget,0,29,29,29,568.452998954861,570.453717551718,left,1,1,0.8870760358986445,D08C04,2022-12-02_14h32.28.997,t1_Paradigm,2021.1.4,59.98649086257707,
Z,right,Target,0,30,30,30,571.9524054708309,573.9530884586275,right,1,1,0.42816822609165683,D08C04,2022-12-02_14h32.28.997,t1_Paradigm,2021.1.4,59.98649086257707,
T,left,Distractor,0,31,31,31,575.4525052403333,577.4521613403922,left,1,1,0.6408732106210664,D08C04,2022-12-02_14h32.28.997,t1_Paradigm,2021.1.4,59.98649086257707,
Z,left,Lure,0,32,32,32,578.9519669343135,580.9523127590073,left,1,1,0.5005026969593018,D08C04,2022-12-02_14h32.28.997,t1_Paradigm,2021.1.4,59.98649086257707,
F,left,Distractor,0,33,33,33,582.4524712353013,584.454243025626,left,1,1,0.9027687151101418,D08C04,2022-12-02_14h32.28.997,t1_Paradigm,2021.1.4,59.98649086257707,
Y,left,Pretarget,0,34,34,34,585.9530454711639,587.9534009199706,left,1,1,0.8115932125947438,D08C04,2022-12-02_14h32.28.997,t1_Paradigm,2021.1.4,59.98649086257707,
Y,right,Target,0,35,35,35,589.4524856713833,591.4526913056034,right,1,1,0.4484464513952844,D08C04,2022-12-02_14h32.28.997,t1_Paradigm,2021.1.4,59.98649086257707,
Y,right,Target,0,36,36,36,592.9522392953513,594.9525318669039,right,1,1,0.708441523835063,D08C04,2022-12-02_14h32.28.997,t1_Paradigm,2021.1.4,59.98649086257707,
W,left,Distractor,0,37,37,37,596.4524789345451,598.4541252912604,left,1,1,0.4388493339647539,D08C04,2022-12-02_14h32.28.997,t1_Paradigm,2021.1.4,59.98649086257707,
Q,left,Distractor,0,38,38,38,599.95289084455,601.95319881459,left,1,1,0.5717984104994684,D08C04,2022-12-02_14h32.28.997,t1_Paradigm,2021.1.4,59.98649086257707,
P,left,Pretarget,0,39,39,39,603.4529004686046,605.4523592753685,left,1,1,0.640629080182407,D08C04,2022-12-02_14h32.28.997,t1_Paradigm,2021.1.4,59.98649086257707,
P,right,Target,0,40,40,40,606.9527099120896,608.9526762278983,right,1,1,0.4681603857316077,D08C04,2022-12-02_14h32.28.997,t1_Paradigm,2021.1.4,59.98649086257707,
J,left,Distractor,0,41,41,41,610.4525604182854,612.4519691799069,left,1,1,0.6009769709198736,D08C04,2022-12-02_14h32.28.997,t1_Paradigm,2021.1.4,59.98649086257707,
P,left,Lure,0,42,42,42,613.9528568395181,615.9538856520085,left,1,1,0.5231776352156885,D08C04,2022-12-02_14h32.28.997,t1_Paradigm,2021.1.4,59.98649086257707,
L,left,Distractor,0,43,43,43,617.4526213707286,619.4528879573336,left,1,1,0.9761210912838578,D08C04,2022-12-02_14h32.28.997,t1_Paradigm,2021.1.4,59.98649086257707,
Z,left,Distractor,0,44,44,44,620.9523220622796,622.952588969667,left,1,1,0.7883135622832924,D08C04,2022-12-02_14h32.28.997,t1_Paradigm,2021.1.4,59.98649086257707,
F,left,Pretarget,0,45,45,45,624.4525819120463,626.4522970397375,left,1,1,0.6167681363876909,D08C04,2022-12-02_14h32.28.997,t1_Paradigm,2021.1.4,59.98649086257707,
F,right,Target,0,46,46,46,627.9523615209619,629.9526248995098,right,1,1,0.41236839891644195,D08C04,2022-12-02_14h32.28.997,t1_Paradigm,2021.1.4,59.98649086257707,
G,left,Pretarget,0,47,47,47,631.4526640374097,633.4541471058037,left,1,1,0.49490084970602766,D08C04,2022-12-02_14h32.28.997,t1_Paradigm,2021.1.4,59.98649086257707,
G,right,Target,0,48,48,48,634.9528597267345,636.9525966689689,right,1,1,0.6444777437136509,D08C04,2022-12-02_14h32.28.997,t1_Paradigm,2021.1.4,59.98649086257707,
V,left,Distractor,0,49,49,49,638.4527217817958,640.4528398370021,left,1,1,0.424174239160493,D08C04,2022-12-02_14h32.28.997,t1_Paradigm,2021.1.4,59.98649086257707,
G,left,Lure,0,50,50,50,641.9524032252375,643.9522004782921,left,1,1,0.5088153225369751,D08C04,2022-12-02_14h32.28.997,t1_Paradigm,2021.1.4,59.98649086257707,
Q,left,Pretarget,0,51,51,51,645.4522874156828,647.4545833967277,left,1,1,0.702341791591607,D08C04,2022-12-02_14h32.28.997,t1_Paradigm,2021.1.4,59.98649086257707,
Q,right,Target,0,52,52,52,648.9525251300656,650.9527833758038,right,1,1,0.5325052787666209,D08C04,2022-12-02_14h32.28.997,t1_Paradigm,2021.1.4,59.98649086257707,
Y,left,Distractor,0,53,53,53,652.4529489097185,654.4523422728525,left,1,1,0.4566811220138334,D08C04,2022-12-02_14h32.28.997,t1_Paradigm,2021.1.4,59.98649086257707,
V,left,Distractor,0,54,54,54,655.9524304934312,657.9525049195508,left,1,1,0.5404983854386955,D08C04,2022-12-02_14h32.28.997,t1_Paradigm,2021.1.4,59.98649086257707,
B,left,Distractor,0,55,55,55,659.4529222831479,661.4550899433088,left,1,1,1.165863698872272,D08C04,2022-12-02_14h32.28.997,t1_Paradigm,2021.1.4,59.98649086257707,
J,left,Pretarget,0,56,56,56,662.9529158670921,664.9534410202177,left,1,1,0.6915070194518194,D08C04,2022-12-02_14h32.28.997,t1_Paradigm,2021.1.4,59.98649086257707,
J,right,Target,0,57,57,57,666.4525523982593,668.4529161878745,right,1,1,0.3922002087929286,D08C04,2022-12-02_14h32.28.997,t1_Paradigm,2021.1.4,59.98649086257707,
H,left,Distractor,0,58,58,58,669.9524397967034,671.9522402577568,left,1,1,0.4447912315954454,D08C04,2022-12-02_14h32.28.997,t1_Paradigm,2021.1.4,59.98649086257707,
J,left,Lure,0,59,59,59,673.4529902932118,675.4537775416975,left,1,1,0.4793534938362427,D08C04,2022-12-02_14h32.28.997,t1_Paradigm,2021.1.4,59.98649086257707,
D,left,Pretarget,0,60,60,60,676.9523733906681,678.952764448477,left,1,1,0.9163129823282361,D08C04,2022-12-02_14h32.28.997,t1_Paradigm,2021.1.4,59.98649086257707,
D,right,Target,0,61,61,61,680.4530008796719,682.4527740725316,right,1,1,0.6323029809864238,D08C04,2022-12-02_14h32.28.997,t1_Paradigm,2021.1.4,59.98649086257707,
R,left,Distractor,0,62,62,62,683.9521414506598,685.9536787346005,left,1,1,0.39553398481803015,D08C04,2022-12-02_14h32.28.997,t1_Paradigm,2021.1.4,59.98649086257707,
F,left,Distractor,0,63,63,63,687.4525087691727,689.4540245593525,left,1,1,0.6709894757368602,D08C04,2022-12-02_14h32.28.997,t1_Paradigm,2021.1.4,59.98649086257707,
F,left,Distractor,0,0,0,0,791.5680366844172,793.569212424336,None,0,2,,D08C04,2022-12-02_14h32.28.997,t1_Paradigm,2021.1.4,59.98649086257707,
N,left,Pretarget,0,1,1,1,795.069382770278,797.0693481236231,None,0,2,,D08C04,2022-12-02_14h32.28.997,t1_Paradigm,2021.1.4,59.98649086257707,
V,left,Distractor,0,2,2,2,798.569320534647,800.5697359734331,left,1,2,0.6753764452878386,D08C04,2022-12-02_14h32.28.997,t1_Paradigm,2021.1.4,59.98649086257707,
N,right,Target,0,3,3,3,802.069305456942,804.070317587757,right,1,2,0.7427631844766438,D08C04,2022-12-02_14h32.28.997,t1_Paradigm,2021.1.4,59.98649086257707,
N,left,Lure,0,4,4,4,805.5691768152756,807.5689237023471,left,1,2,0.7803300797822885,D08C04,2022-12-02_14h32.28.997,t1_Paradigm,2021.1.4,59.98649086257707,
X,left,Distractor,0,5,5,5,809.0695957829012,811.069365126139,left,1,2,0.5277269306243397,D08C04,2022-12-02_14h32.28.997,t1_Paradigm,2021.1.4,59.98649086257707,
G,left,Pretarget,0,6,6,6,812.5693189306185,814.5695787803852,left,1,2,0.4513436156557873,D08C04,2022-12-02_14h32.28.997,t1_Paradigm,2021.1.4,59.98649086257707,
H,left,Pretarget,0,7,7,7,816.0693439532188,818.085888682981,left,1,2,0.5670264783548191,D08C04,2022-12-02_14h32.28.997,t1_Paradigm,2021.1.4,59.98649086257707,
G,right,Target,0,8,8,8,819.5695980284945,821.5697391814319,right,1,2,0.6511857168516144,D08C04,2022-12-02_14h32.28.997,t1_Paradigm,2021.1.4,59.98649086257707,
H,right,Target,0,9,9,9,823.0694748404785,825.0690051860875,right,1,2,0.4963438177946955,D08C04,2022-12-02_14h32.28.997,t1_Paradigm,2021.1.4,59.98649086257707,
T,left,Pretarget,0,10,10,10,826.5692720935331,828.5698027003091,left,1,2,0.7232946638250723,D08C04,2022-12-02_14h32.28.997,t1_Paradigm,2021.1.4,59.98649086257707,
K,left,Distractor,0,11,11,11,830.0691562839202,832.0699047153466,left,1,2,0.8071760876919143,D08C04,2022-12-02_14h32.28.997,t1_Paradigm,2021.1.4,59.98649086257707,
T,right,Target,0,12,12,12,833.5690799329896,835.5705585101969,right,1,2,0.5545485575567,D08C04,2022-12-02_14h32.28.997,t1_Paradigm,2021.1.4,59.98649086257707,
T,left,Lure,0,13,13,13,837.0690847450751,839.0692990408861,left,1,2,0.5117365469923243,D08C04,2022-12-02_14h32.28.997,t1_Paradigm,2021.1.4,59.98649086257707,
J,left,Distractor,0,14,14,14,840.5694725948852,842.5695730059524,left,1,2,0.8673014699597843,D08C04,2022-12-02_14h32.28.997,t1_Paradigm,2021.1.4,59.98649086257707,
Q,left,Pretarget,0,15,15,15,844.0690780081786,846.071407673473,left,1,2,0.5979152350919321,D08C04,2022-12-02_14h32.28.997,t1_Paradigm,2021.1.4,59.98649086257707,
M,left,Distractor,0,16,16,16,847.569414850499,849.5714134479058,left,1,2,0.7137973158969544,D08C04,2022-12-02_14h32.28.997,t1_Paradigm,2021.1.4,59.98649086257707,
Q,right,Target,0,17,17,17,851.0690500984201,853.0702585601248,right,1,2,1.0548616604646668,D08C04,2022-12-02_14h32.28.997,t1_Paradigm,2021.1.4,59.98649086257707,
R,left,Distractor,0,18,18,18,854.5696394119877,856.5696634721244,left,1,2,0.6754678738652728,D08C04,2022-12-02_14h32.28.997,t1_Paradigm,2021.1.4,59.98649086257707,
W,left,Distractor,0,19,19,19,858.0692140283063,860.0689272311865,left,1,2,0.7601493782713078,D08C04,2022-12-02_14h32.28.997,t1_Paradigm,2021.1.4,59.98649086257707,
C,left,Pretarget,0,20,20,20,861.5697231413214,863.5708260591491,left,1,2,0.9701936297933571,D08C04,2022-12-02_14h32.28.997,t1_Paradigm,2021.1.4,59.98649086257707,
T,left,Distractor,0,21,21,21,865.0693102689693,867.0699900487671,left,1,2,0.6231344552361406,D08C04,2022-12-02_14h32.28.997,t1_Paradigm,2021.1.4,59.98649086257707,
C,right,Target,0,22,22,22,868.5697224997566,870.5704606655054,right,1,2,0.5787537221331149,D08C04,2022-12-02_14h32.28.997,t1_Paradigm,2021.1.4,59.98649086257707,
F,left,Pretarget,0,23,23,23,872.0695893668453,874.0718330571544,left,1,2,1.4453985100844875,D08C04,2022-12-02_14h32.28.997,t1_Paradigm,2021.1.4,59.98649086257707,
C,right,Target,0,24,24,24,875.5693182889954,877.5697587503819,right,1,2,1.0994220428401604,D08C04,2022-12-02_14h32.28.997,t1_Paradigm,2021.1.4,59.98649086257707,
F,right,Target,0,25,25,25,879.0695717227063,881.0707875629305,right,1,2,0.8624044250464067,D08C04,2022-12-02_14h32.28.997,t1_Paradigm,2021.1.4,59.98649086257707,
H,left,Distractor,0,26,26,26,882.5696249759058,884.5696878531016,None,0,2,,D08C04,2022-12-02_14h32.28.997,t1_Paradigm,2021.1.4,59.98649086257707,
H,left,Lure,0,27,27,27,886.0693757125991,888.0690661385306,left,1,2,0.5678778873407282,D08C04,2022-12-02_14h32.28.997,t1_Paradigm,2021.1.4,59.98649086257707,
P,left,Distractor,0,28,28,28,889.5696301087155,891.5697834521416,left,1,2,0.8271633454132825,D08C04,2022-12-02_14h32.28.997,t1_Paradigm,2021.1.4,59.98649086257707,
G,left,Pretarget,0,29,29,29,893.0690699881525,895.069614710228,left,1,2,0.6715133456746116,D08C04,2022-12-02_14h32.28.997,t1_Paradigm,2021.1.4,59.98649086257707,
K,left,Distractor,0,30,30,30,896.5693744294113,898.5709842146607,left,1,2,0.9142636980977841,D08C04,2022-12-02_14h32.28.997,t1_Paradigm,2021.1.4,59.98649086257707,
G,right,Target,0,31,31,31,900.0690972563461,902.070191833307,right,1,2,0.6309722936130129,D08C04,2022-12-02_14h32.28.997,t1_Paradigm,2021.1.4,59.98649086257707,
M,left,Pretarget,0,32,32,32,903.5691007851856,905.5693930358975,left,1,2,0.5557236559106968,D08C04,2022-12-02_14h32.28.997,t1_Paradigm,2021.1.4,59.98649086257707,
B,left,Distractor,0,33,33,33,907.069101105968,909.0717650470906,left,1,2,0.6053822261746973,D08C04,2022-12-02_14h32.28.997,t1_Paradigm,2021.1.4,59.98649086257707,
M,right,Target,0,34,34,34,910.5696670009638,912.5716784304823,right,1,2,0.4334171910304576,D08C04,2022-12-02_14h32.28.997,t1_Paradigm,2021.1.4,59.98649086257707,
M,left,Lure,0,35,35,35,914.0694703492336,916.0692804343416,left,1,2,1.0959297905210406,D08C04,2022-12-02_14h32.28.997,t1_Paradigm,2021.1.4,59.98649086257707,
T,left,Distractor,0,36,36,36,917.5690090357675,919.569535472081,left,1,2,0.6674410831183195,D08C04,2022-12-02_14h32.28.997,t1_Paradigm,2021.1.4,59.98649086257707,
F,left,Distractor,0,37,37,37,921.0693875823054,923.071501347702,None,0,2,,D08C04,2022-12-02_14h32.28.997,t1_Paradigm,2021.1.4,59.98649086257707,
X,left,Distractor,0,38,38,38,924.5694164544693,926.5687318627024,left,1,2,0.72449767193757,D08C04,2022-12-02_14h32.28.997,t1_Paradigm,2021.1.4,59.98649086257707,
C,left,Distractor,0,39,39,39,928.0693137978087,930.0696955523454,left,1,2,0.48740306159015745,D08C04,2022-12-02_14h32.28.997,t1_Paradigm,2021.1.4,59.98649086257707,
R,left,Distractor,0,40,40,40,931.5692374468781,933.5692849255865,left,1,2,0.5398628762923181,D08C04,2022-12-02_14h32.28.997,t1_Paradigm,2021.1.4,59.98649086257707,
B,left,Pretarget,0,41,41,41,935.0692255771719,937.0698113619583,left,1,2,0.46334482450038195,D08C04,2022-12-02_14h32.28.997,t1_Paradigm,2021.1.4,59.98649086257707,
H,left,Distractor,0,42,42,42,938.5690494567971,940.5693237426458,left,1,2,0.43591271102195606,D08C04,2022-12-02_14h32.28.997,t1_Paradigm,2021.1.4,59.98649086257707,
B,right,Target,0,43,43,43,942.0692021586583,944.0692996825092,right,1,2,0.4398393294541165,D08C04,2022-12-02_14h32.28.997,t1_Paradigm,2021.1.4,59.98649086257707,
W,left,Pretarget,0,44,44,44,945.5692368052551,947.5696406951756,left,1,2,0.5395176932215691,D08C04,2022-12-02_14h32.28.997,t1_Paradigm,2021.1.4,59.98649086257707,
L,left,Pretarget,0,45,45,45,949.069334970729,951.0710332973395,left,1,2,0.6221874472685158,D08C04,2022-12-02_14h32.28.997,t1_Paradigm,2021.1.4,59.98649086257707,
W,right,Target,0,46,46,46,952.5697494471096,954.5708623098326,right,1,2,0.40216849429998547,D08C04,2022-12-02_14h32.28.997,t1_Paradigm,2021.1.4,59.98649086257707,
L,right,Target,0,47,47,47,956.06931732659,958.0701722643571,right,1,2,0.5991487193969078,D08C04,2022-12-02_14h32.28.997,t1_Paradigm,2021.1.4,59.98649086257707,
W,right,Target,0,48,48,48,959.5693346499465,961.5691344693769,right,1,2,0.39619387488346547,D08C04,2022-12-02_14h32.28.997,t1_Paradigm,2021.1.4,59.98649086257707,
X,left,Distractor,0,49,49,49,963.0694427602575,965.0714362248546,left,1,2,0.6696966430172324,D08C04,2022-12-02_14h32.28.997,t1_Paradigm,2021.1.4,59.98649086257707,
R,left,Distractor,0,50,50,50,966.5691511511104,968.5699050361873,left,1,2,0.5952442362904549,D08C04,2022-12-02_14h32.28.997,t1_Paradigm,2021.1.4,59.98649086257707,
V,left,Pretarget,0,51,51,51,970.0693067401298,972.0695428505423,left,1,2,0.5996116368914954,D08C04,2022-12-02_14h32.28.997,t1_Paradigm,2021.1.4,59.98649086257707,
Z,left,Distractor,0,52,52,52,973.5692493165843,975.56911554205,left,1,2,0.4440431208931841,D08C04,2022-12-02_14h32.28.997,t1_Paradigm,2021.1.4,59.98649086257707,
V,right,Target,0,53,53,53,977.069320534647,979.0692348804441,right,1,2,0.4480656592058949,D08C04,2022-12-02_14h32.28.997,t1_Paradigm,2021.1.4,59.98649086257707,
V,left,Lure,0,54,54,54,980.5694061887916,982.5693051361595,left,1,2,0.8518105753464624,D08C04,2022-12-02_14h32.28.997,t1_Paradigm,2021.1.4,59.98649086257707,
N,left,Distractor,0,55,55,55,984.069243862934,986.0702675426146,left,1,2,0.6789989433018491,D08C04,2022-12-02_14h32.28.997,t1_Paradigm,2021.1.4,59.98649086257707,
B,left,Distractor,0,56,56,56,987.5693766750046,989.5696227302542,left,1,2,0.5075747806113213,D08C04,2022-12-02_14h32.28.997,t1_Paradigm,2021.1.4,59.98649086257707,
V,left,Lure,0,57,57,57,991.0691598127596,993.0703438935452,left,1,2,0.5748559758649208,D08C04,2022-12-02_14h32.28.997,t1_Paradigm,2021.1.4,59.98649086257707,
J,left,Distractor,0,58,58,58,994.5696644345298,996.5698318932555,left,1,2,0.5154248094186187,D08C04,2022-12-02_14h32.28.997,t1_Paradigm,2021.1.4,59.98649086257707,
H,left,Distractor,0,59,59,59,998.0694648955832,1000.0692002338474,left,1,2,0.551903543761,D08C04,2022-12-02_14h32.28.997,t1_Paradigm,2021.1.4,59.98649086257707,
X,left,Pretarget,0,60,60,60,1001.5696018781164,1003.5699294171645,left,1,2,0.4592613337445073,D08C04,2022-12-02_14h32.28.997,t1_Paradigm,2021.1.4,59.98649086257707,
P,left,Distractor,0,61,61,61,1005.0692226899555,1007.0691072011832,left,1,2,0.4641631907434203,D08C04,2022-12-02_14h32.28.997,t1_Paradigm,2021.1.4,59.98649086257707,
X,right,Target,0,62,62,62,1008.5692104995251,1010.5691351109999,right,1,2,0.4678251474397257,D08C04,2022-12-02_14h32.28.997,t1_Paradigm,2021.1.4,59.98649086257707,
Q,left,Distractor,0,63,63,63,1012.069083461829,1014.0697449559229,left,1,2,0.5672340373275802,D08C04,2022-12-02_14h32.28.997,t1_Paradigm,2021.1.4,59.98649086257707,
B,left,Pretarget,0,0,0,0,1025.0344669840415,1027.0376750056166,None,0,2,,D08C04,2022-12-02_14h32.28.997,t1_Paradigm,2021.1.4,59.98649086257707,
F,left,Distractor,0,1,1,1,1028.535946523596,1030.5358951952658,None,0,2,,D08C04,2022-12-02_14h32.28.997,t1_Paradigm,2021.1.4,59.98649086257707,
B,right,Target,0,2,2,2,1032.0357681575697,1034.0355596361915,right,1,2,0.5854289734270424,D08C04,2022-12-02_14h32.28.997,t1_Paradigm,2021.1.4,59.98649086257707,
V,left,Distractor,0,3,3,3,1035.5355817715172,1037.536456919799,left,1,2,0.7807756739202887,D08C04,2022-12-02_14h32.28.997,t1_Paradigm,2021.1.4,59.98649086257707,
G,left,Pretarget,0,4,4,4,1039.0363353358116,1041.035639836744,left,1,2,0.8657224817434326,D08C04,2022-12-02_14h32.28.997,t1_Paradigm,2021.1.4,59.98649086257707,
B,left,Lure,0,5,5,5,1042.5361807091394,1044.5363228245405,left,1,2,0.5810221142019145,D08C04,2022-12-02_14h32.28.997,t1_Paradigm,2021.1.4,59.98649086257707,
G,right,Target,0,6,6,6,1046.0362878571032,1048.0358599069878,right,1,2,0.4733554558479227,D08C04,2022-12-02_14h32.28.997,t1_Paradigm,2021.1.4,59.98649086257707,
Y,left,Pretarget,0,7,7,7,1049.5358114658738,1051.5367677771137,left,1,2,0.46057950984686613,D08C04,2022-12-02_14h32.28.997,t1_Paradigm,2021.1.4,59.98649086257707,
P,left,Distractor,0,8,8,8,1053.0360469346633,1055.0367296016775,left,1,2,0.5286611064802855,D08C04,2022-12-02_14h32.28.997,t1_Paradigm,2021.1.4,59.98649086257707,
Y,right,Target,0,9,9,9,1056.5359285586746,1058.537210163311,right,1,2,0.6120411165757105,D08C04,2022-12-02_14h32.28.997,t1_Paradigm,2021.1.4,59.98649086257707,
X,left,Distractor,0,10,10,10,1060.0359269546461,1062.0356578016654,left,1,2,0.6013779736240394,D08C04,2022-12-02_14h32.28.997,t1_Paradigm,2021.1.4,59.98649086257707,
Y,right,Target,0,11,11,11,1063.5363966090372,1065.5363905137638,right,1,2,0.44471744704060256,D08C04,2022-12-02_14h32.28.997,t1_Paradigm,2021.1.4,59.98649086257707,
N,left,Distractor,0,12,12,12,1067.0359667341108,1069.0376419629902,left,1,2,0.5434747878462076,D08C04,2022-12-02_14h32.28.997,t1_Paradigm,2021.1.4,59.98649086257707,
Y,right,Target,0,13,13,13,1070.536024478497,1072.5371841783053,right,1,2,0.5640850433846936,D08C04,2022-12-02_14h32.28.997,t1_Paradigm,2021.1.4,59.98649086257707,
Y,left,Lure,0,14,14,14,1074.0361479873536,1076.0359535812167,left,1,2,0.48915143334306777,D08C04,2022-12-02_14h32.28.997,t1_Paradigm,2021.1.4,59.98649086257707,
K,left,Distractor,0,15,15,15,1077.5358926288318,1079.5366397770704,left,1,2,0.8286229951772839,D08C04,2022-12-02_14h32.28.997,t1_Paradigm,2021.1.4,59.98649086257707,
T,left,Pretarget,0,16,16,16,1081.0364716767217,1083.0371107146493,None,0,2,,D08C04,2022-12-02_14h32.28.997,t1_Paradigm,2021.1.4,59.98649086257707,
J,left,Distractor,0,17,17,17,1084.5358178819297,1086.5365339123528,left,1,2,0.6927231804584153,D08C04,2022-12-02_14h32.28.997,t1_Paradigm,2021.1.4,59.98649086257707,
T,right,Target,0,18,18,18,1088.0359914358705,1090.0356860322645,None,0,2,,D08C04,2022-12-02_14h32.28.997,t1_Paradigm,2021.1.4,59.98649086257707,
S,left,Pretarget,0,19,19,19,1091.5363202581066,1093.5357870848966,None,0,2,,D08C04,2022-12-02_14h32.28.997,t1_Paradigm,2021.1.4,59.98649086257707,
R,left,Distractor,0,20,20,20,1095.0363763984642,1097.0372897222405,None,0,2,,D08C04,2022-12-02_14h32.28.997,t1_Paradigm,2021.1.4,59.98649086257707,
S,right,Target,0,21,21,21,1098.5360058720107,1100.5372470555594,left,0,2,0.40395760792307556,D08C04,2022-12-02_14h32.28.997,t1_Paradigm,2021.1.4,59.98649086257707,
Q,left,Distractor,0,22,22,22,1102.0362022029003,1104.0364832255873,left,1,2,0.8887580016162246,D08C04,2022-12-02_14h32.28.997,t1_Paradigm,2021.1.4,59.98649086257707,
D,left,Distractor,0,23,23,23,1105.5360575211234,1107.5363712656545,left,1,2,0.7810063306824304,D08C04,2022-12-02_14h32.28.997,t1_Paradigm,2021.1.4,59.98649086257707,
F,left,Distractor,0,24,24,24,1109.0363497718936,1111.0379675771692,left,1,2,0.9753813214483671,D08C04,2022-12-02_14h32.28.997,t1_Paradigm,2021.1.4,59.98649086257707,
Z,left,Distractor,0,25,25,25,1112.5360478970688,1114.5365810702788,left,1,2,0.5327324067475274,D08C04,2022-12-02_14h32.28.997,t1_Paradigm,2021.1.4,59.98649086257707,
P,left,Distractor,0,26,26,26,1116.0363805689267,1118.0363180125132,left,1,2,0.45692846045130864,D08C04,2022-12-02_14h32.28.997,t1_Paradigm,2021.1.4,59.98649086257707,
H,left,Distractor,0,27,27,27,1119.5360588043695,1121.536387305765,left,1,2,0.5088900694390759,D08C04,2022-12-02_14h32.28.997,t1_Paradigm,2021.1.4,59.98649086257707,
Z,left,Pretarget,0,28,28,28,1123.0362551352591,1125.0358339220402,left,1,2,0.44975500338478014,D08C04,2022-12-02_14h32.28.997,t1_Paradigm,2021.1.4,59.98649086257707,
J,left,Pretarget,0,29,29,29,1126.536089280562,1128.5368405992049,left,1,2,0.5325200357474387,D08C04,2022-12-02_14h32.28.997,t1_Paradigm,2021.1.4,59.98649086257707,
Z,right,Target,0,30,30,30,1130.0361072454834,1132.0374475569115,right,1,2,0.4877889866475016,D08C04,2022-12-02_14h32.28.997,t1_Paradigm,2021.1.4,59.98649086257707,
J,right,Target,0,31,31,31,1133.5364678270998,1135.537462313776,right,1,2,0.6516771857859567,D08C04,2022-12-02_14h32.28.997,t1_Paradigm,2021.1.4,59.98649086257707,
V,left,Pretarget,0,32,32,32,1137.0360719572636,1139.0374594265595,left,1,2,0.4316056212410331,D08C04,2022-12-02_14h32.28.997,t1_Paradigm,2021.1.4,59.98649086257707,
Z,left,Lure,0,33,33,33,1140.5361415712978,1142.535871135071,left,1,2,0.5334298306261189,D08C04,2022-12-02_14h32.28.997,t1_Paradigm,2021.1.4,59.98649086257707,
V,right,Target,0,34,34,34,1144.0363202581066,1146.0378001184436,left,0,2,0.5993120076600462,D08C04,2022-12-02_14h32.28.997,t1_Paradigm,2021.1.4,59.98649086257707,
X,left,Distractor,0,35,35,35,1147.5363670952502,1149.5357851600857,left,1,2,0.5574460426578298,D08C04,2022-12-02_14h32.28.997,t1_Paradigm,2021.1.4,59.98649086257707,
S,left,Distractor,0,36,36,36,1151.0359940023045,1153.0372226745822,left,1,2,0.5285318232490681,D08C04,2022-12-02_14h32.28.997,t1_Paradigm,2021.1.4,59.98649086257707,
Q,left,Distractor,0,37,37,37,1154.5362824034528,1156.5358682478545,left,1,2,0.5011734943254851,D08C04,2022-12-02_14h32.28.997,t1_Paradigm,2021.1.4,59.98649086257707,
P,left,Distractor,0,38,38,38,1158.0361220023478,1160.036008117604,left,1,2,0.6653577938559465,D08C04,2022-12-02_14h32.28.997,t1_Paradigm,2021.1.4,59.98649086257707,
S,left,Lure,0,39,39,39,1161.5358589445823,1163.5380958980531,left,1,2,0.555062803439796,D08C04,2022-12-02_14h32.28.997,t1_Paradigm,2021.1.4,59.98649086257707,
K,left,Pretarget,0,40,40,40,1165.0365621429519,1167.0371312459465,left,1,2,0.6081282926024869,D08C04,2022-12-02_14h32.28.997,t1_Paradigm,2021.1.4,59.98649086257707,
L,left,Distractor,0,41,41,41,1168.5363183332956,1170.5379685395746,left,1,2,0.48312484403140843,D08C04,2022-12-02_14h32.28.997,t1_Paradigm,2021.1.4,59.98649086257707,
K,right,Target,0,42,42,42,1172.0359102729708,1174.0365268546739,right,1,2,0.4086932893842459,D08C04,2022-12-02_14h32.28.997,t1_Paradigm,2021.1.4,59.98649086257707,
B,left,Distractor,0,43,43,43,1175.5359436363797,1177.5362686089356,left,1,2,0.5250046034925617,D08C04,2022-12-02_14h32.28.997,t1_Paradigm,2021.1.4,59.98649086257707,
N,left,Distractor,0,44,44,44,1179.0362647593138,1181.0378370106919,left,1,2,0.6393256610026583,D08C04,2022-12-02_14h32.28.997,t1_Paradigm,2021.1.4,59.98649086257707,
S,left,Pretarget,0,45,45,45,1182.536340147839,1184.5369397270842,left,1,2,0.7244235666585155,D08C04,2022-12-02_14h32.28.997,t1_Paradigm,2021.1.4,59.98649086257707,
Z,left,Distractor,0,46,46,46,1186.0364710350987,1188.0364437669632,left,1,2,0.5527571982820518,D08C04,2022-12-02_14h32.28.997,t1_Paradigm,2021.1.4,59.98649086257707,
S,right,Target,0,47,47,47,1189.536479696806,1191.5378915470792,right,1,2,0.37949933047639206,D08C04,2022-12-02_14h32.28.997,t1_Paradigm,2021.1.4,59.98649086257707,
C,left,Distractor,0,48,48,48,1193.0361524785985,1195.0371886695502,left,1,2,0.35193472576793283,D08C04,2022-12-02_14h32.28.997,t1_Paradigm,2021.1.4,59.98649086257707,
T,left,Pretarget,0,49,49,49,1196.5359789245995,1198.5369528799783,left,1,2,0.3883043873938732,D08C04,2022-12-02_14h32.28.997,t1_Paradigm,2021.1.4,59.98649086257707,
S,left,Lure,0,50,50,50,1200.03594909003,1202.0375229453784,left,1,2,0.5996469251113012,D08C04,2022-12-02_14h32.28.997,t1_Paradigm,2021.1.4,59.98649086257707,
T,right,Target,0,51,51,51,1203.536093771807,1205.5363645288162,right,1,2,0.5409459043876268,D08C04,2022-12-02_14h32.28.997,t1_Paradigm,2021.1.4,59.98649086257707,
N,left,Pretarget,0,52,52,52,1207.0359394659172,1209.0365473860293,left,1,2,0.5129562367801555,D08C04,2022-12-02_14h32.28.997,t1_Paradigm,2021.1.4,59.98649086257707,
B,left,Distractor,0,53,53,53,1210.5364030250348,1212.5358127490617,left,1,2,0.45335055398754776,D08C04,2022-12-02_14h32.28.997,t1_Paradigm,2021.1.4,59.98649086257707,
N,right,Target,0,54,54,54,1214.0359401075402,1216.0377821535221,right,1,2,0.4714928785106167,D08C04,2022-12-02_14h32.28.997,t1_Paradigm,2021.1.4,59.98649086257707,
N,left,Lure,0,55,55,55,1217.5358072954696,1219.5360392354196,left,1,2,0.46121116931317374,D08C04,2022-12-02_14h32.28.997,t1_Paradigm,2021.1.4,59.98649086257707,
X,left,Distractor,0,56,56,56,1221.0359895110596,1223.0377702838741,left,1,2,0.4315449896384962,D08C04,2022-12-02_14h32.28.997,t1_Paradigm,2021.1.4,59.98649086257707,
W,left,Distractor,0,57,57,57,1224.5360681075836,1226.5358278267668,left,1,2,0.4852732560830191,D08C04,2022-12-02_14h32.28.997,t1_Paradigm,2021.1.4,59.98649086257707,
S,left,Distractor,0,58,58,58,1228.0363927594153,1230.0360770900734,left,1,2,0.5851120208972134,D08C04,2022-12-02_14h32.28.997,t1_Paradigm,2021.1.4,59.98649086257707,
L,left,Distractor,0,59,59,59,1231.536202523741,1233.5360068344162,left,1,2,0.461146688030567,D08C04,2022-12-02_14h32.28.997,t1_Paradigm,2021.1.4,59.98649086257707,
K,left,Pretarget,0,60,60,60,1235.0358441877179,1237.0364302932285,left,1,2,0.43272746639559045,D08C04,2022-12-02_14h32.28.997,t1_Paradigm,2021.1.4,59.98649086257707,
V,left,Pretarget,0,61,61,61,1238.5360581627465,1240.5365692005726,left,1,2,0.48454824317013845,D08C04,2022-12-02_14h32.28.997,t1_Paradigm,2021.1.4,59.98649086257707,
K,right,Target,0,62,62,62,1242.0362031653058,1244.0359231050243,right,1,2,0.4253358637797646,D08C04,2022-12-02_14h32.28.997,t1_Paradigm,2021.1.4,59.98649086257707,
V,right,Target,0,63,63,63,1245.535806974629,1247.5363962881966,right,1,2,0.4448290861910209,D08C04,2022-12-02_14h32.28.997,t1_Paradigm,2021.1.4,59.98649086257707,
R,left,Distractor,0,0,0,0,1336.902109466726,1338.9037696179003,None,0,3,,D08C04,2022-12-02_14h32.28.997,t1_Paradigm,2021.1.4,59.98649086257707,
P,left,Lure,0,1,1,1,1340.4030263192835,1342.4032752617495,None,0,3,,D08C04,2022-12-02_14h32.28.997,t1_Paradigm,2021.1.4,59.98649086257707,
V,left,Distractor,0,2,2,2,1343.9028514820966,1345.9032791113714,None,0,3,,D08C04,2022-12-02_14h32.28.997,t1_Paradigm,2021.1.4,59.98649086257707,
P,left,Pretarget,0,3,3,3,1347.4025826498982,1349.4027905297116,left,1,3,0.6265333541086875,D08C04,2022-12-02_14h32.28.997,t1_Paradigm,2021.1.4,59.98649086257707,
Z,left,Distractor,0,4,4,4,1350.903130900755,1352.904463192157,left,1,3,0.59688193135662,D08C04,2022-12-02_14h32.28.997,t1_Paradigm,2021.1.4,59.98649086257707,
L,left,Pretarget,0,5,5,5,1354.4025659681647,1356.4030064295512,left,1,3,0.36241019947919995,D08C04,2022-12-02_14h32.28.997,t1_Paradigm,2021.1.4,59.98649086257707,
P,right,Target,0,6,6,6,1357.9027244444587,1359.9035296578659,right,1,3,0.46194195665884763,D08C04,2022-12-02_14h32.28.997,t1_Paradigm,2021.1.4,59.98649086257707,
S,left,Distractor,0,7,7,7,1361.402864955773,1363.405067904212,left,1,3,0.49627901578787714,D08C04,2022-12-02_14h32.28.997,t1_Paradigm,2021.1.4,59.98649086257707,
L,right,Target,0,8,8,8,1364.9028219683096,1366.9025701386272,right,1,3,0.3747934835846536,D08C04,2022-12-02_14h32.28.997,t1_Paradigm,2021.1.4,59.98649086257707,
D,left,Distractor,0,9,9,9,1368.4028540485306,1370.4025239431066,left,1,3,0.4269430826534517,D08C04,2022-12-02_14h32.28.997,t1_Paradigm,2021.1.4,59.98649086257707,
G,left,Distractor,0,10,10,10,1371.90300963755,1373.9025836123037,left,1,3,0.5106968272011727,D08C04,2022-12-02_14h32.28.997,t1_Paradigm,2021.1.4,59.98649086257707,
M,left,Pretarget,0,11,11,11,1375.4026907602092,1377.4045815681457,left,1,3,0.3846636036178097,D08C04,2022-12-02_14h32.28.997,t1_Paradigm,2021.1.4,59.98649086257707,
Y,left,Distractor,0,12,12,12,1378.9027048755088,1380.9044182798243,left,1,3,0.5168777224025689,D08C04,2022-12-02_14h32.28.997,t1_Paradigm,2021.1.4,59.98649086257707,
V,left,Distractor,0,13,13,13,1382.4032495975844,1384.4032948306995,left,1,3,0.5380349456099793,D08C04,2022-12-02_14h32.28.997,t1_Paradigm,2021.1.4,59.98649086257707,
M,right,Target,0,14,14,14,1385.9025245847297,1387.9026359030395,right,1,3,0.6866385259199888,D08C04,2022-12-02_14h32.28.997,t1_Paradigm,2021.1.4,59.98649086257707,
S,left,Pretarget,0,15,15,15,1389.4028007953311,1391.4027526750579,left,1,3,0.562717784603592,D08C04,2022-12-02_14h32.28.997,t1_Paradigm,2021.1.4,59.98649086257707,
Q,left,Distractor,0,16,16,16,1392.902960554813,1394.9048205657746,left,1,3,0.6446208215202205,D08C04,2022-12-02_14h32.28.997,t1_Paradigm,2021.1.4,59.98649086257707,
R,left,Pretarget,0,17,17,17,1396.4028646349907,1398.4027748103836,left,1,3,0.6024581144447438,D08C04,2022-12-02_14h32.28.997,t1_Paradigm,2021.1.4,59.98649086257707,
S,right,Target,0,18,18,18,1399.9025948403869,1401.9194462570013,right,1,3,0.6218490009778179,D08C04,2022-12-02_14h32.28.997,t1_Paradigm,2021.1.4,59.98649086257707,
F,left,Distractor,0,19,19,19,1403.4026278830133,1405.4032746201265,left,1,3,0.4339708955376409,D08C04,2022-12-02_14h32.28.997,t1_Paradigm,2021.1.4,59.98649086257707,
R,right,Target,0,20,20,20,1406.9027347101364,1408.9032091764966,right,1,3,0.9180745069752447,D08C04,2022-12-02_14h32.28.997,t1_Paradigm,2021.1.4,59.98649086257707,
P,left,Distractor,0,21,21,21,1410.4021492461907,1412.4032107805251,left,1,3,0.7622111738310196,D08C04,2022-12-02_14h32.28.997,t1_Paradigm,2021.1.4,59.98649086257707,
L,left,Distractor,0,22,22,22,1413.903061928344,1415.9040846456192,right,0,3,1.0692903791787103,D08C04,2022-12-02_14h32.28.997,t1_Paradigm,2021.1.4,59.98649086257707,
R,right,Target,0,23,23,23,1417.402938098705,1419.4046938489191,None,0,3,,D08C04,2022-12-02_14h32.28.997,t1_Paradigm,2021.1.4,59.98649086257707,
H,left,Pretarget,0,24,24,24,1420.9026817777776,1422.903352254245,left,1,3,0.7101908580516465,D08C04,2022-12-02_14h32.28.997,t1_Paradigm,2021.1.4,59.98649086257707,
G,left,Pretarget,0,25,25,25,1424.403113898239,1426.4031543193269,left,1,3,0.8102913974435069,D08C04,2022-12-02_14h32.28.997,t1_Paradigm,2021.1.4,59.98649086257707,
T,left,Distractor,0,26,26,26,1427.9027228404302,1429.9025326047558,left,1,3,0.7347886844072491,D08C04,2022-12-02_14h32.28.997,t1_Paradigm,2021.1.4,59.98649086257707,
H,right,Target,0,27,27,27,1431.4032386902836,1433.404729137139,right,1,3,0.44849232607521117,D08C04,2022-12-02_14h32.28.997,t1_Paradigm,2021.1.4,59.98649086257707,
G,right,Target,0,28,28,28,1434.9026339782286,1436.9027375973528,left,0,3,0.5185539136873558,D08C04,2022-12-02_14h32.28.997,t1_Paradigm,2021.1.4,59.98649086257707,
D,left,Distractor,0,29,29,29,1438.4027520334348,1440.4044109014212,left,1,3,0.5688810356659815,D08C04,2022-12-02_14h32.28.997,t1_Paradigm,2021.1.4,59.98649086257707,
N,left,Pretarget,0,30,30,30,1441.9025916323299,1443.9034866704023,left,1,3,0.6059083417057991,D08C04,2022-12-02_14h32.28.997,t1_Paradigm,2021.1.4,59.98649086257707,
V,left,Distractor,0,31,31,31,1445.4031007454032,1447.4025823291158,left,1,3,0.6109651461010799,D08C04,2022-12-02_14h32.28.997,t1_Paradigm,2021.1.4,59.98649086257707,
R,left,Distractor,0,32,32,32,1448.9026981386705,1450.9031126150512,left,1,3,0.5342337608453818,D08C04,2022-12-02_14h32.28.997,t1_Paradigm,2021.1.4,59.98649086257707,
N,right,Target,0,33,33,33,1452.4032210462028,1454.403574890981,right,1,3,0.6017680690274574,D08C04,2022-12-02_14h32.28.997,t1_Paradigm,2021.1.4,59.98649086257707,
Z,left,Distractor,0,34,34,34,1455.9026018980076,1457.9030564746936,left,1,3,0.5903394920751452,D08C04,2022-12-02_14h32.28.997,t1_Paradigm,2021.1.4,59.98649086257707,
N,left,Lure,0,35,35,35,1459.4028954320238,1461.4027093667537,right,0,3,0.7546514709247276,D08C04,2022-12-02_14h32.28.997,t1_Paradigm,2021.1.4,59.98649086257707,
Y,left,Pretarget,0,36,36,36,1462.9032078933087,1464.9050794530776,left,1,3,0.7403517146594822,D08C04,2022-12-02_14h32.28.997,t1_Paradigm,2021.1.4,59.98649086257707,
Y,left,Lure,0,37,37,37,1466.4031947404146,1468.4033176076482,left,1,3,0.7142326444154605,D08C04,2022-12-02_14h32.28.997,t1_Paradigm,2021.1.4,59.98649086257707,
B,left,Distractor,0,38,38,38,1469.9031382792164,1471.904243763478,left,1,3,1.0051806340343319,D08C04,2022-12-02_14h32.28.997,t1_Paradigm,2021.1.4,59.98649086257707,
Y,right,Target,0,39,39,39,1473.4031321840012,1475.4048273026128,right,1,3,0.6725928449304774,D08C04,2022-12-02_14h32.28.997,t1_Paradigm,2021.1.4,59.98649086257707,
J,left,Distractor,0,40,40,40,1476.90323099104,1478.9155424155178,left,1,3,0.5058235215838067,D08C04,2022-12-02_14h32.28.997,t1_Paradigm,2021.1.4,59.98649086257707,
X,left,Distractor,0,41,41,41,1480.4029214169714,1482.4046081947163,left,1,3,0.696747001959011,D08C04,2022-12-02_14h32.28.997,t1_Paradigm,2021.1.4,59.98649086257707,
W,left,Pretarget,0,42,42,42,1483.9029098681058,1485.9048872925923,left,1,3,0.5885927242925391,D08C04,2022-12-02_14h32.28.997,t1_Paradigm,2021.1.4,59.98649086257707,
S,left,Pretarget,0,43,43,43,1487.4030144495773,1489.4039296981646,left,1,3,0.7695004404522479,D08C04,2022-12-02_14h32.28.997,t1_Paradigm,2021.1.4,59.98649086257707,
R,left,Distractor,0,44,44,44,1490.9027776976,1492.904473136994,left,1,3,1.0769347738823853,D08C04,2022-12-02_14h32.28.997,t1_Paradigm,2021.1.4,59.98649086257707,
W,right,Target,0,45,45,45,1494.403167472221,1496.4035033520777,right,1,3,0.6822759373462759,D08C04,2022-12-02_14h32.28.997,t1_Paradigm,2021.1.4,59.98649086257707,
S,right,Target,0,46,46,46,1497.9030045047402,1499.9050457688863,left,0,3,1.1003180432599038,D08C04,2022-12-02_14h32.28.997,t1_Paradigm,2021.1.4,59.98649086257707,
D,left,Distractor,0,47,47,47,1501.4029364946764,1503.403617557662,left,1,3,1.4418372852960601,D08C04,2022-12-02_14h32.28.997,t1_Paradigm,2021.1.4,59.98649086257707,
T,left,Distractor,0,48,48,48,1504.9026772865327,1506.904495272378,left,1,3,0.7570042339502834,D08C04,2022-12-02_14h32.28.997,t1_Paradigm,2021.1.4,59.98649086257707,
S,right,Target,0,49,49,49,1508.4030138080125,1510.4044740993995,right,1,3,0.7927993388730101,D08C04,2022-12-02_14h32.28.997,t1_Paradigm,2021.1.4,59.98649086257707,
K,left,Distractor,0,50,50,50,1511.9028598229634,1513.9045777185238,left,1,3,1.132772314536851,D08C04,2022-12-02_14h32.28.997,t1_Paradigm,2021.1.4,59.98649086257707,
S,left,Lure,0,51,51,51,1515.4032528055832,1517.4038267206633,right,0,3,1.4417307790135965,D08C04,2022-12-02_14h32.28.997,t1_Paradigm,2021.1.4,59.98649086257707,
T,left,Pretarget,0,52,52,52,1518.90274754219,1520.9045010468108,left,1,3,0.9327707746997476,D08C04,2022-12-02_14h32.28.997,t1_Paradigm,2021.1.4,59.98649086257707,
V,left,Distractor,0,53,53,53,1522.4026413566899,1524.402746900625,left,1,3,1.0985517065855674,D08C04,2022-12-02_14h32.28.997,t1_Paradigm,2021.1.4,59.98649086257707,
B,left,Distractor,0,54,54,54,1525.9027205948369,1527.902995843091,left,1,3,1.4224220177857205,D08C04,2022-12-02_14h32.28.997,t1_Paradigm,2021.1.4,59.98649086257707,
T,right,Target,0,55,55,55,1529.403195061197,1531.4037051366759,right,1,3,0.8977176851476543,D08C04,2022-12-02_14h32.28.997,t1_Paradigm,2021.1.4,59.98649086257707,
Y,left,Pretarget,0,56,56,56,1532.9027254068642,1534.9042941294028,left,1,3,0.629285195027478,D08C04,2022-12-02_14h32.28.997,t1_Paradigm,2021.1.4,59.98649086257707,
T,left,Lure,0,57,57,57,1536.4031462993007,1538.4032479935559,left,1,3,1.1781542711541988,D08C04,2022-12-02_14h32.28.997,t1_Paradigm,2021.1.4,59.98649086257707,
P,left,Pretarget,0,58,58,58,1539.902898960805,1541.9030019383063,left,1,3,0.8464903922867961,D08C04,2022-12-02_14h32.28.997,t1_Paradigm,2021.1.4,59.98649086257707,
Y,right,Target,0,59,59,59,1543.4029522140045,1545.4027744896011,left,0,3,0.7386139293666929,D08C04,2022-12-02_14h32.28.997,t1_Paradigm,2021.1.4,59.98649086257707,
R,left,Distractor,0,60,60,60,1546.902524263889,1548.9051894882577,left,1,3,0.5805646502994932,D08C04,2022-12-02_14h32.28.997,t1_Paradigm,2021.1.4,59.98649086257707,
P,right,Target,0,61,61,61,1550.402699101076,1552.3877259810688,right,1,3,0.8737810319871642,D08C04,2022-12-02_14h32.28.997,t1_Paradigm,2021.1.4,59.98649086257707,
L,left,Distractor,0,62,62,62,1553.9028797126957,1555.9025518528651,left,1,3,0.6227305653155781,D08C04,2022-12-02_14h32.28.997,t1_Paradigm,2021.1.4,59.98649086257707,
V,left,Distractor,0,63,63,63,1557.402735672542,1559.4038469311781,left,1,3,0.7056037079892121,D08C04,2022-12-02_14h32.28.997,t1_Paradigm,2021.1.4,59.98649086257707,
H,left,Lure,0,0,0,0,1573.9190260061878,1575.9215077316621,None,0,3,,D08C04,2022-12-02_14h32.28.997,t1_Paradigm,2021.1.4,59.98649086257707,
B,left,Distractor,0,1,1,1,1577.4193330138223,1579.4206810244941,None,0,3,,D08C04,2022-12-02_14h32.28.997,t1_Paradigm,2021.1.4,59.98649086257707,
T,left,Distractor,0,2,2,2,1580.919425084081,1582.921732934774,None,0,3,,D08C04,2022-12-02_14h32.28.997,t1_Paradigm,2021.1.4,59.98649086257707,
R,left,Distractor,0,3,3,3,1584.4199316306622,1586.420236713544,left,1,3,0.553150501800701,D08C04,2022-12-02_14h32.28.997,t1_Paradigm,2021.1.4,59.98649086257707,
H,left,Pretarget,0,4,4,4,1587.9198706782772,1589.9214673106326,left,1,3,0.7480904251569882,D08C04,2022-12-02_14h32.28.997,t1_Paradigm,2021.1.4,59.98649086257707,
K,left,Distractor,0,5,5,5,1591.4200243424857,1593.4216812856612,left,1,3,0.4959351157885976,D08C04,2022-12-02_14h32.28.997,t1_Paradigm,2021.1.4,59.98649086257707,
G,left,Distractor,0,6,6,6,1594.91951875831,1596.9219222080428,left,1,3,0.5795999981928617,D08C04,2022-12-02_14h32.28.997,t1_Paradigm,2021.1.4,59.98649086257707,
H,right,Target,0,7,7,7,1598.4193872294272,1600.4193211441743,right,1,3,0.6019586255424656,D08C04,2022-12-02_14h32.28.997,t1_Paradigm,2021.1.4,59.98649086257707,
Y,left,Pretarget,0,8,8,8,1601.9195421768236,1603.9215622680495,left,1,3,0.5718827814562246,D08C04,2022-12-02_14h32.28.997,t1_Paradigm,2021.1.4,59.98649086257707,
S,left,Distractor,0,9,9,9,1605.41932371055,1607.4211272603134,left,1,3,0.5124493693583645,D08C04,2022-12-02_14h32.28.997,t1_Paradigm,2021.1.4,59.98649086257707,
P,left,Distractor,0,10,10,10,1608.919582918752,1610.9213681827532,left,1,3,0.6440908563090488,D08C04,2022-12-02_14h32.28.997,t1_Paradigm,2021.1.4,59.98649086257707,
Y,right,Target,0,11,11,11,1612.4198552797316,1614.4212533355458,right,1,3,0.7760874711675569,D08C04,2022-12-02_14h32.28.997,t1_Paradigm,2021.1.4,59.98649086257707,
H,left,Lure,0,12,12,12,1615.9196217358112,1617.9198880015756,left,1,3,1.1335772071033716,D08C04,2022-12-02_14h32.28.997,t1_Paradigm,2021.1.4,59.98649086257707,
Q,left,Distractor,0,13,13,13,1619.419937405095,1621.4211930247839,left,1,3,1.3444231431931257,D08C04,2022-12-02_14h32.28.997,t1_Paradigm,2021.1.4,59.98649086257707,
V,left,Pretarget,0,14,14,14,1622.9199534452055,1624.920606277592,left,1,3,1.0129960163030773,D08C04,2022-12-02_14h32.28.997,t1_Paradigm,2021.1.4,59.98649086257707,
G,left,Distractor,0,15,15,15,1626.4197590391268,1628.4214798219036,left,1,3,1.2720180958276615,D08C04,2022-12-02_14h32.28.997,t1_Paradigm,2021.1.4,59.98649086257707,
Z,left,Pretarget,0,16,16,16,1629.919345845934,1631.9196974451188,left,1,3,1.4218862781999633,D08C04,2022-12-02_14h32.28.997,t1_Paradigm,2021.1.4,59.98649086257707,
V,right,Target,0,17,17,17,1633.419612432539,1635.4362466660677,right,1,3,1.1212574418168515,D08C04,2022-12-02_14h32.28.997,t1_Paradigm,2021.1.4,59.98649086257707,
N,left,Distractor,0,18,18,18,1636.9199155905517,1638.920361826371,left,1,3,0.8850139196147211,D08C04,2022-12-02_14h32.28.997,t1_Paradigm,2021.1.4,59.98649086257707,
Z,right,Target,0,19,19,19,1640.419549555285,1642.421610388381,right,1,3,0.5518172479933128,D08C04,2022-12-02_14h32.28.997,t1_Paradigm,2021.1.4,59.98649086257707,
R,left,Distractor,0,20,20,20,1643.9197994601564,1645.9198982672533,left,1,3,1.1661055837175809,D08C04,2022-12-02_14h32.28.997,t1_Paradigm,2021.1.4,59.98649086257707,
P,left,Distractor,0,21,21,21,1647.4194385577575,1649.4208109494066,left,1,3,1.280746480973903,D08C04,2022-12-02_14h32.28.997,t1_Paradigm,2021.1.4,59.98649086257707,
Z,right,Target,0,22,22,22,1650.9200102271861,1652.9206771748723,right,1,3,0.9166764511610381,D08C04,2022-12-02_14h32.28.997,t1_Paradigm,2021.1.4,59.98649086257707,
D,left,Pretarget,0,23,23,23,1654.4198992296588,1656.4194770540344,None,0,3,,D08C04,2022-12-02_14h32.28.997,t1_Paradigm,2021.1.4,59.98649086257707,
K,left,Distractor,0,24,24,24,1657.9199264978524,1659.9211737766163,left,1,3,0.8924478680128232,D08C04,2022-12-02_14h32.28.997,t1_Paradigm,2021.1.4,59.98649086257707,
W,left,Distractor,0,25,25,25,1661.419408081565,1663.420705084689,left,1,3,0.6408170702634379,D08C04,2022-12-02_14h32.28.997,t1_Paradigm,2021.1.4,59.98649086257707,
D,right,Target,0,26,26,26,1664.9196008836734,1666.9205305682844,right,1,3,0.8689070847467519,D08C04,2022-12-02_14h32.28.997,t1_Paradigm,2021.1.4,59.98649086257707,
G,left,Pretarget,0,27,27,27,1668.4193051040638,1670.4202614153037,left,1,3,0.6492034803377464,D08C04,2022-12-02_14h32.28.997,t1_Paradigm,2021.1.4,59.98649086257707,
V,left,Distractor,0,28,28,28,1671.9194202720537,1673.9194818660617,left,1,3,0.7019523377530277,D08C04,2022-12-02_14h32.28.997,t1_Paradigm,2021.1.4,59.98649086257707,
D,right,Target,0,29,29,29,1675.419792723318,1677.419313765713,left,0,3,0.6582770485547371,D08C04,2022-12-02_14h32.28.997,t1_Paradigm,2021.1.4,59.98649086257707,
G,right,Target,0,30,30,30,1678.919391079049,1680.9200333249755,None,0,3,,D08C04,2022-12-02_14h32.28.997,t1_Paradigm,2021.1.4,59.98649086257707,
B,left,Pretarget,0,31,31,31,1682.4193962118588,1684.42114073399,left,1,3,0.9681164358044043,D08C04,2022-12-02_14h32.28.997,t1_Paradigm,2021.1.4,59.98649086257707,
N,left,Distractor,0,32,32,32,1685.9195688034524,1687.9217508996953,left,1,3,0.683701261295937,D08C04,2022-12-02_14h32.28.997,t1_Paradigm,2021.1.4,59.98649086257707,
F,left,Distractor,0,33,33,33,1689.4194112895639,1691.4215924234595,left,1,3,0.9440851460094564,D08C04,2022-12-02_14h32.28.997,t1_Paradigm,2021.1.4,59.98649086257707,
B,right,Target,0,34,34,34,1692.9193968534819,1694.9211311099352,right,1,3,0.6284652247559279,D08C04,2022-12-02_14h32.28.997,t1_Paradigm,2021.1.4,59.98649086257707,
Q,left,Pretarget,0,35,35,35,1696.420021134487,1698.4201545881806,left,1,3,0.5693343291059136,D08C04,2022-12-02_14h32.28.997,t1_Paradigm,2021.1.4,59.98649086257707,
S,left,Pretarget,0,36,36,36,1699.919660873653,1701.9195078510093,left,1,3,0.5579955768189393,D08C04,2022-12-02_14h32.28.997,t1_Paradigm,2021.1.4,59.98649086257707,
W,left,Distractor,0,37,37,37,1703.4194254048634,1705.4202489040326,left,1,3,0.6092206240282394,D08C04,2022-12-02_14h32.28.997,t1_Paradigm,2021.1.4,59.98649086257707,
Q,right,Target,0,38,38,38,1706.9195595001802,1708.9199181569857,right,1,3,0.9657428205828182,D08C04,2022-12-02_14h32.28.997,t1_Paradigm,2021.1.4,59.98649086257707,
S,right,Target,0,39,39,39,1710.4195883723442,1712.4213749195915,left,0,3,0.6962767060031183,D08C04,2022-12-02_14h32.28.997,t1_Paradigm,2021.1.4,59.98649086257707,
T,left,Distractor,0,40,40,40,1713.919980071776,1715.9201866684016,left,1,3,1.4052494782372378,D08C04,2022-12-02_14h32.28.997,t1_Paradigm,2021.1.4,59.98649086257707,
G,left,Distractor,0,41,41,41,1717.4196977659012,1719.4213986589457,left,1,3,1.3122778043616563,D08C04,2022-12-02_14h32.28.997,t1_Paradigm,2021.1.4,59.98649086257707,
D,left,Distractor,0,42,42,42,1720.920360543183,1722.9215741377557,left,1,3,0.8359462668886408,D08C04,2022-12-02_14h32.28.997,t1_Paradigm,2021.1.4,59.98649086257707,
S,left,Lure,0,43,43,43,1724.4199136657408,1726.419703540334,right,0,3,0.8098419535672292,D08C04,2022-12-02_14h32.28.997,t1_Paradigm,2021.1.4,59.98649086257707,
Z,left,Pretarget,0,44,44,44,1727.9197943273466,1729.9204205331625,left,1,3,1.0850119306123815,D08C04,2022-12-02_14h32.28.997,t1_Paradigm,2021.1.4,59.98649086257707,
J,left,Distractor,0,45,45,45,1731.419641946326,1733.4214461376541,left,1,3,0.7359968253877014,D08C04,2022-12-02_14h32.28.997,t1_Paradigm,2021.1.4,59.98649086257707,
M,left,Pretarget,0,46,46,46,1734.9193442419055,1736.93244483968,left,1,3,0.825127855699975,D08C04,2022-12-02_14h32.28.997,t1_Paradigm,2021.1.4,59.98649086257707,
Z,right,Target,0,47,47,47,1738.4199191193911,1740.4215709296986,right,1,3,0.9042825804790482,D08C04,2022-12-02_14h32.28.997,t1_Paradigm,2021.1.4,59.98649086257707,
P,left,Distractor,0,48,48,48,1741.9199027584982,1743.9214913707692,None,0,3,,D08C04,2022-12-02_14h32.28.997,t1_Paradigm,2021.1.4,59.98649086257707,
M,right,Target,0,49,49,49,1745.4194725627895,1747.4214323431952,None,0,3,,D08C04,2022-12-02_14h32.28.997,t1_Paradigm,2021.1.4,59.98649086257707,
K,left,Distractor,0,50,50,50,1748.9200057359412,1750.9212514107348,left,1,3,0.8203036328195594,D08C04,2022-12-02_14h32.28.997,t1_Paradigm,2021.1.4,59.98649086257707,
Y,left,Distractor,0,51,51,51,1752.42006251798,1754.4200872197398,left,1,3,1.4173915191204287,D08C04,2022-12-02_14h32.28.997,t1_Paradigm,2021.1.4,59.98649086257707,
X,left,Distractor,0,52,52,52,1755.9198341068113,1757.9195210039034,left,1,3,0.8941757084685378,D08C04,2022-12-02_14h32.28.997,t1_Paradigm,2021.1.4,59.98649086257707,
F,left,Pretarget,0,53,53,53,1759.419735620555,1761.4213024182827,left,1,3,0.6402566288597882,D08C04,2022-12-02_14h32.28.997,t1_Paradigm,2021.1.4,59.98649086257707,
M,left,Lure,0,54,54,54,1762.9198847935768,1764.9202906083083,left,1,3,0.5657265880145133,D08C04,2022-12-02_14h32.28.997,t1_Paradigm,2021.1.4,59.98649086257707,
V,left,Distractor,0,55,55,55,1766.419350337179,1768.4212931150105,left,1,3,0.8243688378133811,D08C04,2022-12-02_14h32.28.997,t1_Paradigm,2021.1.4,59.98649086257707,
F,right,Target,0,56,56,56,1769.9195768234786,1771.9211330347462,right,1,3,0.7645167788723484,D08C04,2022-12-02_14h32.28.997,t1_Paradigm,2021.1.4,59.98649086257707,
S,left,Distractor,0,57,57,57,1773.419062898436,1775.4200554603012,left,1,3,1.2014329591183923,D08C04,2022-12-02_14h32.28.997,t1_Paradigm,2021.1.4,59.98649086257707,
D,left,Distractor,0,58,58,58,1776.9193743973156,1778.9205664981273,left,1,3,0.7570905297179706,D08C04,2022-12-02_14h32.28.997,t1_Paradigm,2021.1.4,59.98649086257707,
F,right,Target,0,59,59,59,1780.4199088537134,1782.4213938469184,right,1,3,0.4881835732376203,D08C04,2022-12-02_14h32.28.997,t1_Paradigm,2021.1.4,59.98649086257707,
V,left,Pretarget,0,60,60,60,1783.9199220066075,1785.9215853657806,left,1,3,0.764132778684143,D08C04,2022-12-02_14h32.28.997,t1_Paradigm,2021.1.4,59.98649086257707,
J,left,Distractor,0,61,61,61,1787.4200070191873,1789.4195007933886,left,1,3,0.6740711012971587,D08C04,2022-12-02_14h32.28.997,t1_Paradigm,2021.1.4,59.98649086257707,
V,left,Lure,0,62,62,62,1790.9199062872794,1792.9205215858528,right,0,3,1.0290990014909767,D08C04,2022-12-02_14h32.28.997,t1_Paradigm,2021.1.4,59.98649086257707,
V,right,Target,0,63,63,63,1794.4197417157702,1796.4193843422108,left,0,3,0.7780007352703251,D08C04,2022-12-02_14h32.28.997,t1_Paradigm,2021.1.4,59.98649086257707,
R,left,Distractor,0,0,0,0,1815.3792904883157,1817.3715854620677,None,0,4,,D08C04,2022-12-02_14h32.28.997,t1_Paradigm,2021.1.4,59.98649086257707,
F,left,Distractor,0,1,1,1,1818.8867026222288,1820.8872909733327,None,0,4,,D08C04,2022-12-02_14h32.28.997,t1_Paradigm,2021.1.4,59.98649086257707,
P,left,Pretarget,0,2,2,2,1822.3862345718662,1824.3712431661552,None,0,4,,D08C04,2022-12-02_14h32.28.997,t1_Paradigm,2021.1.4,59.98649086257707,
H,left,Distractor,0,3,3,3,1825.8867497800966,1827.88834256283,None,0,4,,D08C04,2022-12-02_14h32.28.997,t1_Paradigm,2021.1.4,59.98649086257707,
Z,left,Distractor,0,4,4,4,1829.3862284765928,1831.3863070731168,left,1,4,0.48355054849525914,D08C04,2022-12-02_14h32.28.997,t1_Paradigm,2021.1.4,59.98649086257707,
T,left,Distractor,0,5,5,5,1832.8862778801122,1834.8862676144927,left,1,4,0.8872345121926628,D08C04,2022-12-02_14h32.28.997,t1_Paradigm,2021.1.4,59.98649086257707,
P,right,Target,0,6,6,6,1836.3700709550758,1838.3702271857182,right,1,4,0.8111575632938184,D08C04,2022-12-02_14h32.28.997,t1_Paradigm,2021.1.4,59.98649086257707,
G,left,Distractor,0,7,7,7,1839.869856979989,1841.8707167297835,left,1,4,0.8952529621310532,D08C04,2022-12-02_14h32.28.997,t1_Paradigm,2021.1.4,59.98649086257707,
L,left,Distractor,0,8,8,8,1843.3699605991133,1845.3709874867927,left,1,4,0.9306922974647023,D08C04,2022-12-02_14h32.28.997,t1_Paradigm,2021.1.4,59.98649086257707,
P,left,Lure,0,9,9,9,1846.8859814589377,1848.888218733191,right,0,4,0.8856728472746909,D08C04,2022-12-02_14h32.28.997,t1_Paradigm,2021.1.4,59.98649086257707,
Q,left,Pretarget,0,10,10,10,1850.370046894881,1852.3719932016102,left,1,4,0.8419128662790172,D08C04,2022-12-02_14h32.28.997,t1_Paradigm,2021.1.4,59.98649086257707,
D,left,Distractor,0,11,11,11,1853.8862191733206,1855.8710147549864,left,1,4,0.6065797806368209,D08C04,2022-12-02_14h32.28.997,t1_Paradigm,2021.1.4,59.98649086257707,
M,left,Pretarget,0,12,12,12,1857.3699339725426,1859.3712669055094,left,1,4,0.6743809962063096,D08C04,2022-12-02_14h32.28.997,t1_Paradigm,2021.1.4,59.98649086257707,
C,left,Distractor,0,13,13,13,1860.8861049677944,1862.8718523694552,left,1,4,0.5977227537659928,D08C04,2022-12-02_14h32.28.997,t1_Paradigm,2021.1.4,59.98649086257707,
Q,right,Target,0,14,14,14,1864.369963807112,1866.3701094512944,left,0,4,1.0994444989482872,D08C04,2022-12-02_14h32.28.997,t1_Paradigm,2021.1.4,59.98649086257707,
R,left,Distractor,0,15,15,15,1867.8696013006847,1869.8715206600027,left,1,4,1.182027636503335,D08C04,2022-12-02_14h32.28.997,t1_Paradigm,2021.1.4,59.98649086257707,
M,right,Target,0,16,16,16,1871.3700703134527,1873.3692047892255,right,1,4,0.7243869951926172,D08C04,2022-12-02_14h32.28.997,t1_Paradigm,2021.1.4,59.98649086257707,
S,left,Distractor,0,17,17,17,1874.8699666943285,1876.8709101735149,left,1,4,1.0308480148669332,D08C04,2022-12-02_14h32.28.997,t1_Paradigm,2021.1.4,59.98649086257707,
Z,left,Distractor,0,18,18,18,1878.3699057419435,1880.3697177518625,left,1,4,0.9716465427773073,D08C04,2022-12-02_14h32.28.997,t1_Paradigm,2021.1.4,59.98649086257707,
L,left,Pretarget,0,19,19,19,1881.8695512555423,1883.8709935820661,left,1,4,1.262782522419002,D08C04,2022-12-02_14h32.28.997,t1_Paradigm,2021.1.4,59.98649086257707,
M,right,Target,0,20,20,20,1885.36976330576,1887.3716470560757,None,0,4,,D08C04,2022-12-02_14h32.28.997,t1_Paradigm,2021.1.4,59.98649086257707,
P,left,Distractor,0,21,21,21,1888.8865078953095,1890.8870837351424,left,1,4,0.6466203813324682,D08C04,2022-12-02_14h32.28.997,t1_Paradigm,2021.1.4,59.98649086257707,
F,left,Distractor,0,22,22,22,1892.3863413989893,1894.3873070134432,left,1,4,0.6181533601484261,D08C04,2022-12-02_14h32.28.997,t1_Paradigm,2021.1.4,59.98649086257707,
L,right,Target,0,23,23,23,1895.8699849800905,1897.8699554662453,left,0,4,1.0876258266507648,D08C04,2022-12-02_14h32.28.997,t1_Paradigm,2021.1.4,59.98649086257707,
L,left,Lure,0,24,24,24,1899.3696173407952,1901.369486774318,left,1,4,0.6279570741462521,D08C04,2022-12-02_14h32.28.997,t1_Paradigm,2021.1.4,59.98649086257707,
V,left,Pretarget,0,25,25,25,1902.8702082583914,1904.8694755462348,left,1,4,0.776211942487862,D08C04,2022-12-02_14h32.28.997,t1_Paradigm,2021.1.4,59.98649086257707,
Z,left,Distractor,0,26,26,26,1906.3699811304687,1908.3714109456632,left,1,4,0.730264411540702,D08C04,2022-12-02_14h32.28.997,t1_Paradigm,2021.1.4,59.98649086257707,
H,left,Distractor,0,27,27,27,1909.8697556065163,1911.871725331759,left,1,4,0.5256968945614062,D08C04,2022-12-02_14h32.28.997,t1_Paradigm,2021.1.4,59.98649086257707,
X,left,Distractor,0,28,28,28,1913.3699445590028,1915.371414153662,left,1,4,1.2021428942680359,D08C04,2022-12-02_14h32.28.997,t1_Paradigm,2021.1.4,59.98649086257707,
V,right,Target,0,29,29,29,1916.8701213210006,1918.869779666711,left,0,4,1.1441607911838219,D08C04,2022-12-02_14h32.28.997,t1_Paradigm,2021.1.4,59.98649086257707,
C,left,Distractor,0,30,30,30,1920.3698245789856,1922.3696362681221,left,1,4,1.0677957619773224,D08C04,2022-12-02_14h32.28.997,t1_Paradigm,2021.1.4,59.98649086257707,
S,left,Pretarget,0,31,31,31,1923.869917290809,1925.8709258927847,left,1,4,0.7346042232238688,D08C04,2022-12-02_14h32.28.997,t1_Paradigm,2021.1.4,59.98649086257707,
D,left,Distractor,0,32,32,32,1927.369718714268,1929.370128699462,left,1,4,0.6595474251662381,D08C04,2022-12-02_14h32.28.997,t1_Paradigm,2021.1.4,59.98649086257707,
V,left,Distractor,0,33,33,33,1930.8699429549742,1932.87139971758,right,0,4,0.8701639876817353,D08C04,2022-12-02_14h32.28.997,t1_Paradigm,2021.1.4,59.98649086257707,
R,left,Distractor,0,34,34,34,1934.386209549266,1936.3707908351207,left,1,4,0.7629464523051865,D08C04,2022-12-02_14h32.28.997,t1_Paradigm,2021.1.4,59.98649086257707,
S,right,Target,0,35,35,35,1937.8860651883297,1939.8882517758175,right,1,4,0.6213915371336043,D08C04,2022-12-02_14h32.28.997,t1_Paradigm,2021.1.4,59.98649086257707,
Y,left,Distractor,0,36,36,36,1941.3695547843818,1943.3698935514549,left,1,4,1.05949372285977,D08C04,2022-12-02_14h32.28.997,t1_Paradigm,2021.1.4,59.98649086257707,
N,left,Pretarget,0,37,37,37,1944.869967656734,1946.8696442881483,left,1,4,1.016237401345279,D08C04,2022-12-02_14h32.28.997,t1_Paradigm,2021.1.4,59.98649086257707,
Z,left,Pretarget,0,38,38,38,1948.369889701833,1950.3700735214516,left,1,4,0.6834167097695172,D08C04,2022-12-02_14h32.28.997,t1_Paradigm,2021.1.4,59.98649086257707,
P,left,Pretarget,0,39,39,39,1951.8695676164352,1953.8694562981254,left,1,4,0.7839416704373434,D08C04,2022-12-02_14h32.28.997,t1_Paradigm,2021.1.4,59.98649086257707,
M,left,Distractor,0,40,40,40,1955.3696731603704,1957.3694084985764,left,1,4,0.9005923933000304,D08C04,2022-12-02_14h32.28.997,t1_Paradigm,2021.1.4,59.98649086257707,
N,right,Target,0,41,41,41,1958.8696856716415,1960.8699188948376,left,0,4,0.6638096026144922,D08C04,2022-12-02_14h32.28.997,t1_Paradigm,2021.1.4,59.98649086257707,
Z,right,Target,0,42,42,42,1962.3696837468306,1964.369484207884,right,1,4,0.7963470899849199,D08C04,2022-12-02_14h32.28.997,t1_Paradigm,2021.1.4,59.98649086257707,
P,right,Target,0,43,43,43,1965.869218262902,1967.8695531803533,left,0,4,1.1201513159903698,D08C04,2022-12-02_14h32.28.997,t1_Paradigm,2021.1.4,59.98649086257707,
X,left,Pretarget,0,44,44,44,1969.3694274259033,1971.3714542539674,left,1,4,0.7701882402761839,D08C04,2022-12-02_14h32.28.997,t1_Paradigm,2021.1.4,59.98649086257707,
Z,left,Lure,0,45,45,45,1972.8700603685575,1974.871652509668,left,1,4,0.9178762511583045,D08C04,2022-12-02_14h32.28.997,t1_Paradigm,2021.1.4,59.98649086257707,
R,left,Pretarget,0,46,46,46,1976.386514311307,1978.3862650480587,left,1,4,0.7953240518691018,D08C04,2022-12-02_14h32.28.997,t1_Paradigm,2021.1.4,59.98649086257707,
K,left,Distractor,0,47,47,47,1979.8863657799084,1981.887755494914,left,1,4,0.5097023405251093,D08C04,2022-12-02_14h32.28.997,t1_Paradigm,2021.1.4,59.98649086257707,
X,right,Target,0,48,48,48,1983.3865749429679,1985.3866403865977,left,0,4,1.1390289190458134,D08C04,2022-12-02_14h32.28.997,t1_Paradigm,2021.1.4,59.98649086257707,
B,left,Distractor,0,49,49,49,1986.8863166972296,1988.887346151343,left,1,4,1.0144149242551066,D08C04,2022-12-02_14h32.28.997,t1_Paradigm,2021.1.4,59.98649086257707,
R,right,Target,0,50,50,50,1990.3694421828259,1992.3716287703137,right,1,4,0.858040232444182,D08C04,2022-12-02_14h32.28.997,t1_Paradigm,2021.1.4,59.98649086257707,
Y,left,Pretarget,0,51,51,51,1993.8699804888456,1995.869798594038,left,1,4,0.6558155335951596,D08C04,2022-12-02_14h32.28.997,t1_Paradigm,2021.1.4,59.98649086257707,
W,left,Pretarget,0,52,52,52,1997.3694447492599,1999.3716037477716,left,1,4,0.8020002656267025,D08C04,2022-12-02_14h32.28.997,t1_Paradigm,2021.1.4,59.98649086257707,
Z,left,Distractor,0,53,53,53,2000.886112025415,2002.8711648904136,left,1,4,0.726469321991317,D08C04,2022-12-02_14h32.28.997,t1_Paradigm,2021.1.4,59.98649086257707,
Q,left,Distractor,0,54,54,54,2004.3695390650537,2006.3704231958254,left,1,4,0.6191481676069088,D08C04,2022-12-02_14h32.28.997,t1_Paradigm,2021.1.4,59.98649086257707,
Y,right,Target,0,55,55,55,2007.870092769619,2009.8712662638864,right,1,4,0.7342593608191237,D08C04,2022-12-02_14h32.28.997,t1_Paradigm,2021.1.4,59.98649086257707,
W,right,Target,0,56,56,56,2011.3862939202227,2013.3874218606506,right,1,4,0.8985963622108102,D08C04,2022-12-02_14h32.28.997,t1_Paradigm,2021.1.4,59.98649086257707,
H,left,Pretarget,0,57,57,57,2014.886376045586,2016.8867013389827,left,1,4,0.5991310752579011,D08C04,2022-12-02_14h32.28.997,t1_Paradigm,2021.1.4,59.98649086257707,
M,left,Distractor,0,58,58,58,2018.3694575813133,2020.3695031352108,left,1,4,0.6839947953121737,D08C04,2022-12-02_14h32.28.997,t1_Paradigm,2021.1.4,59.98649086257707,
R,left,Pretarget,0,59,59,59,2021.8693148243474,2023.8700459324755,left,1,4,0.8637351123616099,D08C04,2022-12-02_14h32.28.997,t1_Paradigm,2021.1.4,59.98649086257707,
J,left,Distractor,0,60,60,60,2025.3698172005243,2027.3709291008417,left,1,4,0.7387056787847541,D08C04,2022-12-02_14h32.28.997,t1_Paradigm,2021.1.4,59.98649086257707,
H,right,Target,0,61,61,61,2028.8859715141007,2030.8866516146809,right,1,4,0.4709016401320696,D08C04,2022-12-02_14h32.28.997,t1_Paradigm,2021.1.4,59.98649086257707,
Z,left,Distractor,0,62,62,62,2032.3864084466477,2034.3712585646426,left,1,4,0.634462621062994,D08C04,2022-12-02_14h32.28.997,t1_Paradigm,2021.1.4,59.98649086257707,
R,right,Target,0,63,63,63,2035.8699830552796,2037.8720179033699,right,1,4,0.5734681857284158,D08C04,2022-12-02_14h32.28.997,t1_Paradigm,2021.1.4,59.98649086257707,
J,left,Pretarget,0,0,0,0,2045.6037904058467,2047.605112431571,None,0,4,,D08C04,2022-12-02_14h32.28.997,t1_Paradigm,2021.1.4,59.98649086257707,
G,left,Pretarget,0,1,1,1,2049.10352542327,2051.1046825566445,None,0,4,,D08C04,2022-12-02_14h32.28.997,t1_Paradigm,2021.1.4,59.98649086257707,
Z,left,Distractor,0,2,2,2,2052.6034327114467,2054.6032132827677,None,0,4,,D08C04,2022-12-02_14h32.28.997,t1_Paradigm,2021.1.4,59.98649086257707,
F,left,Distractor,0,3,3,3,2056.102912049566,2058.1048403913155,None,0,4,,D08C04,2022-12-02_14h32.28.997,t1_Paradigm,2021.1.4,59.98649086257707,
J,right,Target,0,4,4,4,2059.603446505964,2061.60399828566,right,1,4,0.5057189401122741,D08C04,2022-12-02_14h32.28.997,t1_Paradigm,2021.1.4,59.98649086257707,
G,right,Target,0,5,5,5,2063.1029608114623,2065.1032751976163,right,1,4,0.7023138818331063,D08C04,2022-12-02_14h32.28.997,t1_Paradigm,2021.1.4,59.98649086257707,
H,left,Distractor,0,6,6,6,2066.603062826558,2068.6054409329663,left,1,4,1.2001706025912426,D08C04,2022-12-02_14h32.28.997,t1_Paradigm,2021.1.4,59.98649086257707,
P,left,Distractor,0,7,7,7,2070.102864250017,2072.1030304255546,left,1,4,0.8546214438392781,D08C04,2022-12-02_14h32.28.997,t1_Paradigm,2021.1.4,59.98649086257707,
G,left,Lure,0,8,8,8,2073.6032492126105,2075.603833072528,right,0,4,0.9857461184728891,D08C04,2022-12-02_14h32.28.997,t1_Paradigm,2021.1.4,59.98649086257707,
S,left,Distractor,0,9,9,9,2077.103016310255,2079.1051429077634,left,1,4,0.732428222137969,D08C04,2022-12-02_14h32.28.997,t1_Paradigm,2021.1.4,59.98649086257707,
R,left,Pretarget,0,10,10,10,2080.6029300144874,2082.603325563541,left,1,4,1.0422730629798025,D08C04,2022-12-02_14h32.28.997,t1_Paradigm,2021.1.4,59.98649086257707,
T,left,Pretarget,0,11,11,11,2084.10289504705,2086.1047938750125,left,1,4,1.1409646392567083,D08C04,2022-12-02_14h32.28.997,t1_Paradigm,2021.1.4,59.98649086257707,
X,left,Distractor,0,12,12,12,2087.603276160022,2089.6048981357017,left,1,4,0.7925757397897542,D08C04,2022-12-02_14h32.28.997,t1_Paradigm,2021.1.4,59.98649086257707,
F,left,Pretarget,0,13,13,13,2091.1025338238105,2093.105119810032,left,1,4,0.8764709580573253,D08C04,2022-12-02_14h32.28.997,t1_Paradigm,2021.1.4,59.98649086257707,
R,right,Target,0,14,14,14,2094.6029537538416,2096.6035093831597,left,0,4,0.5463074708823115,D08C04,2022-12-02_14h32.28.997,t1_Paradigm,2021.1.4,59.98649086257707,
T,right,Target,0,15,15,15,2098.103067959426,2100.103322355484,left,0,4,1.0304957740590908,D08C04,2022-12-02_14h32.28.997,t1_Paradigm,2021.1.4,59.98649086257707,
C,left,Distractor,0,16,16,16,2101.6029864756274,2103.6030695633963,left,1,4,0.6666124510811642,D08C04,2022-12-02_14h32.28.997,t1_Paradigm,2021.1.4,59.98649086257707,
F,right,Target,0,17,17,17,2105.1030240094988,2107.1035260648932,right,1,4,0.6700610743137076,D08C04,2022-12-02_14h32.28.997,t1_Paradigm,2021.1.4,59.98649086257707,
M,left,Distractor,0,18,18,18,2108.603279688803,2110.6027664053836,left,1,4,1.1708444731775671,D08C04,2022-12-02_14h32.28.997,t1_Paradigm,2021.1.4,59.98649086257707,
N,left,Distractor,0,19,19,19,2112.1028995382367,2114.103390365548,left,1,4,0.9342265748418868,D08C04,2022-12-02_14h32.28.997,t1_Paradigm,2021.1.4,59.98649086257707,
R,left,Lure,0,20,20,20,2115.6030605809647,2117.6029406009475,left,1,4,1.050669738673605,D08C04,2022-12-02_14h32.28.997,t1_Paradigm,2021.1.4,59.98649086257707,
F,right,Target,0,21,21,21,2119.1030403703917,2121.10350425035,None,0,4,,D08C04,2022-12-02_14h32.28.997,t1_Paradigm,2021.1.4,59.98649086257707,
P,left,Distractor,0,22,22,22,2122.6028854229953,2124.602874836477,left,1,4,1.0589336022967473,D08C04,2022-12-02_14h32.28.997,t1_Paradigm,2021.1.4,59.98649086257707,
L,left,Pretarget,0,23,23,23,2126.1033800998703,2128.1044624864007,left,1,4,0.8212657184922136,D08C04,2022-12-02_14h32.28.997,t1_Paradigm,2021.1.4,59.98649086257707,
T,left,Distractor,0,24,24,24,2129.6034246914205,2131.60276031011,right,0,4,0.92292471480323,D08C04,2022-12-02_14h32.28.997,t1_Paradigm,2021.1.4,59.98649086257707,
F,left,Distractor,0,25,25,25,2133.1029335432686,2135.104715599271,right,0,4,0.925091412558686,D08C04,2022-12-02_14h32.28.997,t1_Paradigm,2021.1.4,59.98649086257707,
V,left,Distractor,0,26,26,26,2136.6033926111995,2138.6027558189235,left,1,4,0.5631300153327174,D08C04,2022-12-02_14h32.28.997,t1_Paradigm,2021.1.4,59.98649086257707,
L,right,Target,0,27,27,27,2140.10295150819,2142.104390626715,left,0,4,0.9973671766929328,D08C04,2022-12-02_14h32.28.997,t1_Paradigm,2021.1.4,59.98649086257707,
S,left,Pretarget,0,28,28,28,2143.6027984856046,2145.605041855073,left,1,4,0.5686160530894995,D08C04,2022-12-02_14h32.28.997,t1_Paradigm,2021.1.4,59.98649086257707,
W,left,Distractor,0,29,29,29,2147.103343849245,2149.103806445957,left,1,4,0.6539256880641915,D08C04,2022-12-02_14h32.28.997,t1_Paradigm,2021.1.4,59.98649086257707,
Q,left,Distractor,0,30,30,30,2150.603350265301,2152.6196004986996,left,1,4,0.5142413702560589,D08C04,2022-12-02_14h32.28.997,t1_Paradigm,2021.1.4,59.98649086257707,
L,right,Target,0,31,31,31,2154.102933222486,2156.105085163377,right,1,4,0.6287417561979964,D08C04,2022-12-02_14h32.28.997,t1_Paradigm,2021.1.4,59.98649086257707,
S,right,Target,0,32,32,32,2157.6033043905627,2159.6049812234705,None,0,4,,D08C04,2022-12-02_14h32.28.997,t1_Paradigm,2021.1.4,59.98649086257707,
Z,left,Pretarget,0,33,33,33,2161.103199809091,2163.1043213334633,left,1,4,1.0373631858965382,D08C04,2022-12-02_14h32.28.997,t1_Paradigm,2021.1.4,59.98649086257707,
F,left,Distractor,0,34,34,34,2164.603153292788,2166.60466779978,left,1,4,0.8648569575161673,D08C04,2022-12-02_14h32.28.997,t1_Paradigm,2021.1.4,59.98649086257707,
V,left,Distractor,0,35,35,35,2168.1028206209303,2170.1052378651802,left,1,4,0.6286105480976403,D08C04,2022-12-02_14h32.28.997,t1_Paradigm,2021.1.4,59.98649086257707,
M,left,Distractor,0,36,36,36,2171.6033592477324,2173.6045946568483,left,1,4,0.7453918373794295,D08C04,2022-12-02_14h32.28.997,t1_Paradigm,2021.1.4,59.98649086257707,
Z,right,Target,0,37,37,37,2175.1032479294227,2177.103478586185,right,1,4,0.8144146675476804,D08C04,2022-12-02_14h32.28.997,t1_Paradigm,2021.1.4,59.98649086257707,
H,left,Pretarget,0,38,38,38,2178.6029617738677,2180.6046321907197,left,1,4,0.8489252806757577,D08C04,2022-12-02_14h32.28.997,t1_Paradigm,2021.1.4,59.98649086257707,
L,left,Distractor,0,39,39,39,2182.102917503158,2184.105174025579,left,1,4,1.4127023539622314,D08C04,2022-12-02_14h32.28.997,t1_Paradigm,2021.1.4,59.98649086257707,
G,left,Distractor,0,40,40,40,2185.60288446059,2187.6027179642697,left,1,4,0.715138268948067,D08C04,2022-12-02_14h32.28.997,t1_Paradigm,2021.1.4,59.98649086257707,
K,left,Distractor,0,41,41,41,2189.1029556786525,2191.104824992828,left,1,4,0.6049340655445121,D08C04,2022-12-02_14h32.28.997,t1_Paradigm,2021.1.4,59.98649086257707,
H,right,Target,0,42,42,42,2192.603035879205,2194.604050576396,right,1,4,1.0100362955708988,D08C04,2022-12-02_14h32.28.997,t1_Paradigm,2021.1.4,59.98649086257707,
B,left,Distractor,0,43,43,43,2196.103416671336,2198.1036912779673,left,1,4,0.8220552126294933,D08C04,2022-12-02_14h32.28.997,t1_Paradigm,2021.1.4,59.98649086257707,
Z,left,Distractor,0,44,44,44,2199.6029274480534,2201.6028039391967,left,1,4,0.8428358141100034,D08C04,2022-12-02_14h32.28.997,t1_Paradigm,2021.1.4,59.98649086257707,
T,left,Pretarget,0,45,45,45,2203.103367588599,2205.1041317393538,left,1,4,0.7014990443130955,D08C04,2022-12-02_14h32.28.997,t1_Paradigm,2021.1.4,59.98649086257707,
H,right,Target,0,46,46,46,2206.6033345459728,2208.604361754493,right,1,4,0.6894753794185817,D08C04,2022-12-02_14h32.28.997,t1_Paradigm,2021.1.4,59.98649086257707,
F,left,Distractor,0,47,47,47,2210.103060901747,2212.104741584277,left,1,4,0.7569089556927793,D08C04,2022-12-02_14h32.28.997,t1_Paradigm,2021.1.4,59.98649086257707,
R,left,Distractor,0,48,48,48,2213.60336951341,2215.6033534732996,left,1,4,0.4584073584410362,D08C04,2022-12-02_14h32.28.997,t1_Paradigm,2021.1.4,59.98649086257707,
T,right,Target,0,49,49,49,2217.1032957289135,2219.105168251146,left,0,4,0.7324615855468437,D08C04,2022-12-02_14h32.28.997,t1_Paradigm,2021.1.4,59.98649086257707,
H,right,Target,0,50,50,50,2220.602947979409,2222.603392290359,left,0,4,0.898189905914478,D08C04,2022-12-02_14h32.28.997,t1_Paradigm,2021.1.4,59.98649086257707,
Y,left,Pretarget,0,51,51,51,2224.1029758891673,2226.1050636696164,left,1,4,0.5646705072722398,D08C04,2022-12-02_14h32.28.997,t1_Paradigm,2021.1.4,59.98649086257707,
H,left,Distractor,0,52,52,52,2227.6030512776924,2229.6033252427587,left,1,4,0.666434726677835,D08C04,2022-12-02_14h32.28.997,t1_Paradigm,2021.1.4,59.98649086257707,
S,left,Distractor,0,53,53,53,2231.1029928916832,2233.105517283897,left,1,4,0.636223504145164,D08C04,2022-12-02_14h32.28.997,t1_Paradigm,2021.1.4,59.98649086257707,
Q,left,Distractor,0,54,54,54,2234.6029406009475,2236.604672291025,left,1,4,0.5451958914054558,D08C04,2022-12-02_14h32.28.997,t1_Paradigm,2021.1.4,59.98649086257707,
Y,right,Target,0,55,55,55,2238.103041653638,2240.10281516728,left,0,4,0.4869022894417867,D08C04,2022-12-02_14h32.28.997,t1_Paradigm,2021.1.4,59.98649086257707,
R,left,Distractor,0,56,56,56,2241.6031497639487,2243.6051477197907,left,1,4,0.5366240577423014,D08C04,2022-12-02_14h32.28.997,t1_Paradigm,2021.1.4,59.98649086257707,
H,left,Pretarget,0,57,57,57,2245.1033409620286,2247.102501422807,left,1,4,0.6072563523193821,D08C04,2022-12-02_14h32.28.997,t1_Paradigm,2021.1.4,59.98649086257707,
J,left,Distractor,0,58,58,58,2248.603311769024,2250.6050755393226,left,1,4,0.6727580580627546,D08C04,2022-12-02_14h32.28.997,t1_Paradigm,2021.1.4,59.98649086257707,
V,left,Distractor,0,59,59,59,2252.1031096637016,2254.105106657138,left,1,4,0.756758178700693,D08C04,2022-12-02_14h32.28.997,t1_Paradigm,2021.1.4,59.98649086257707,
Y,left,Lure,0,60,60,60,2255.603499117482,2257.6042626266135,right,0,4,0.9055744507932104,D08C04,2022-12-02_14h32.28.997,t1_Paradigm,2021.1.4,59.98649086257707,
H,right,Target,0,61,61,61,2259.102953433001,2261.1159536197083,left,0,4,0.6897480612387881,D08C04,2022-12-02_14h32.28.997,t1_Paradigm,2021.1.4,59.98649086257707,
L,left,Distractor,0,62,62,62,2262.6034968718886,2264.6050107372575,left,1,4,0.9448781689861789,D08C04,2022-12-02_14h32.28.997,t1_Paradigm,2021.1.4,59.98649086257707,
P,left,Distractor,0,63,63,63,2266.103207508335,2268.104876000376,left,1,4,0.740911835222505,D08C04,2022-12-02_14h32.28.997,t1_Paradigm,2021.1.4,59.98649086257707,
