Letter,CorrAnswer,Stimulus,nback_run.thisRepN,nback_run.thisTrialN,nback_run.thisN,nback_run.thisIndex,fixcross.started,nback_trial.started,trial_resp.keys,trial_resp.corr,currentlevel,trial_resp.rt,Participant,date,expName,psychopyVersion,frameRate,
H,left,Distractor,0,0,0,0,223.3355141422153,225.2738804667788,None,0,1,,D08E08,2022-11-24_10h52.59.157,t1_Paradigm,2021.1.4,60.01501726997434,
Q,left,Pretarget,0,1,1,1,226.7718651914929,228.77436070668773,left,1,1,0.5755519711328816,D08E08,2022-11-24_10h52.59.157,t1_Paradigm,2021.1.4,60.01501726997434,
Q,right,Target,0,2,2,2,230.27153861552324,232.27154086113387,right,1,1,0.8063635477055868,D08E08,2022-11-24_10h52.59.157,t1_Paradigm,2021.1.4,60.01501726997434,
T,left,Distractor,0,3,3,3,233.7715617132344,235.7733039864088,left,1,1,0.7127196528153945,D08E08,2022-11-24_10h52.59.157,t1_Paradigm,2021.1.4,60.01501726997434,
Q,left,Lure,0,4,4,4,237.27154021953083,239.27201179779786,left,1,1,0.9579762812172703,D08E08,2022-11-24_10h52.59.157,t1_Paradigm,2021.1.4,60.01501726997434,
L,left,Distractor,0,5,5,5,240.77186775790506,242.77325779098646,left,1,1,0.8485425344351825,D08E08,2022-11-24_10h52.59.157,t1_Paradigm,2021.1.4,60.01501726997434,
V,left,Pretarget,0,6,6,6,244.27177408385523,246.27326292381076,left,1,1,0.7567012234085269,D08E08,2022-11-24_10h52.59.157,t1_Paradigm,2021.1.4,60.01501726997434,
V,right,Target,0,7,7,7,247.77155786361618,249.77181739206299,right,1,1,0.953974602784001,D08E08,2022-11-24_10h52.59.157,t1_Paradigm,2021.1.4,60.01501726997434,
K,left,Distractor,0,8,8,8,251.2715767909067,253.27451661623672,left,1,1,0.907481156117683,D08E08,2022-11-24_10h52.59.157,t1_Paradigm,2021.1.4,60.01501726997434,
G,left,Pretarget,0,9,9,9,254.77175387335774,256.77317983621197,left,1,1,1.0566458530629461,D08E08,2022-11-24_10h52.59.157,t1_Paradigm,2021.1.4,60.01501726997434,
G,right,Target,0,10,10,10,258.27151648021663,260.2716143246871,right,1,1,0.9181583938361655,D08E08,2022-11-24_10h52.59.157,t1_Paradigm,2021.1.4,60.01501726997434,
G,right,Target,0,11,11,11,261.7717853119093,263.77187609874545,right,1,1,0.8740943772472747,D08E08,2022-11-24_10h52.59.157,t1_Paradigm,2021.1.4,60.01501726997434,
P,left,Pretarget,0,12,12,12,265.27156556285263,267.27288951081664,left,1,1,0.6849026303161736,D08E08,2022-11-24_10h52.59.157,t1_Paradigm,2021.1.4,60.01501726997434,
P,right,Target,0,13,13,13,268.77175772297596,270.77158416934253,right,1,1,0.7382528891384936,D08E08,2022-11-24_10h52.59.157,t1_Paradigm,2021.1.4,60.01501726997434,
G,left,Lure,0,14,14,14,272.2712720294421,274.2735125074105,left,1,1,0.804341214786291,D08E08,2022-11-24_10h52.59.157,t1_Paradigm,2021.1.4,60.01501726997434,
Y,left,Distractor,0,15,15,15,275.77178467030626,277.7732131995717,left,1,1,0.7446795064270191,D08E08,2022-11-24_10h52.59.157,t1_Paradigm,2021.1.4,60.01501726997434,
B,left,Distractor,0,16,16,16,279.27136281627827,281.2730467035717,left,1,1,0.9249006798427217,D08E08,2022-11-24_10h52.59.157,t1_Paradigm,2021.1.4,60.01501726997434,
T,left,Pretarget,0,17,17,17,282.77184209378174,284.77266270412656,left,1,1,0.6572658982831854,D08E08,2022-11-24_10h52.59.157,t1_Paradigm,2021.1.4,60.01501726997434,
T,right,Target,0,18,18,18,286.27188636439496,288.27179333194726,right,1,1,0.998168864798572,D08E08,2022-11-24_10h52.59.157,t1_Paradigm,2021.1.4,60.01501726997434,
S,left,Distractor,0,19,19,19,289.7717310964481,291.77301205700496,left,1,1,0.8408837184233562,D08E08,2022-11-24_10h52.59.157,t1_Paradigm,2021.1.4,60.01501726997434,
T,left,Lure,0,20,20,20,293.2717971815664,295.27295110471186,left,1,1,0.9249568201121292,D08E08,2022-11-24_10h52.59.157,t1_Paradigm,2021.1.4,60.01501726997434,
J,left,Distractor,0,21,21,21,296.7716399888104,298.77440529810156,left,1,1,0.8312603137701444,D08E08,2022-11-24_10h52.59.157,t1_Paradigm,2021.1.4,60.01501726997434,
P,left,Distractor,0,22,22,22,300.2717923695427,302.2734804272568,left,1,1,0.6603382146495278,D08E08,2022-11-24_10h52.59.157,t1_Paradigm,2021.1.4,60.01501726997434,
F,left,Distractor,0,23,23,23,303.7717262844253,305.77359463260564,left,1,1,1.1761996052855466,D08E08,2022-11-24_10h52.59.157,t1_Paradigm,2021.1.4,60.01501726997434,
L,left,Distractor,0,24,24,24,307.2716265151457,309.2731342823927,left,1,1,1.452658674858867,D08E08,2022-11-24_10h52.59.157,t1_Paradigm,2021.1.4,60.01501726997434,
W,left,Pretarget,0,25,25,25,310.77178274549624,312.774326060121,left,1,1,0.9914153507388619,D08E08,2022-11-24_10h52.59.157,t1_Paradigm,2021.1.4,60.01501726997434,
W,right,Target,0,26,26,26,314.27139104681373,316.2717179435849,right,1,1,0.7101535612819134,D08E08,2022-11-24_10h52.59.157,t1_Paradigm,2021.1.4,60.01501726997434,
V,left,Distractor,0,27,27,27,317.77174392850975,319.7732228236182,left,1,1,0.584466404379782,D08E08,2022-11-24_10h52.59.157,t1_Paradigm,2021.1.4,60.01501726997434,
W,left,Lure,0,28,28,28,321.27166789854437,323.27163710159675,left,1,1,0.8941544184635859,D08E08,2022-11-24_10h52.59.157,t1_Paradigm,2021.1.4,60.01501726997434,
R,left,Pretarget,0,29,29,29,324.7715174426212,326.77381566486747,left,1,1,0.896287748717441,D08E08,2022-11-24_10h52.59.157,t1_Paradigm,2021.1.4,60.01501726997434,
R,right,Target,0,30,30,30,328.27140355807387,330.2717394372885,right,1,1,0.6620224227444851,D08E08,2022-11-24_10h52.59.157,t1_Paradigm,2021.1.4,60.01501726997434,
G,left,Distractor,0,31,31,31,331.77165731209425,333.7732122371672,left,1,1,0.8085982512466217,D08E08,2022-11-24_10h52.59.157,t1_Paradigm,2021.1.4,60.01501726997434,
R,left,Lure,0,32,32,32,335.27144526227494,337.2738092488371,left,1,1,1.435905776736945,D08E08,2022-11-24_10h52.59.157,t1_Paradigm,2021.1.4,60.01501726997434,
S,left,Distractor,0,33,33,33,338.7714619439548,340.77345957515627,left,1,1,0.9604021824770825,D08E08,2022-11-24_10h52.59.157,t1_Paradigm,2021.1.4,60.01501726997434,
R,left,Lure,0,34,34,34,342.27130635520734,344.27224598292287,left,1,1,0.6136676855321639,D08E08,2022-11-24_10h52.59.157,t1_Paradigm,2021.1.4,60.01501726997434,
P,left,Pretarget,0,35,35,35,345.77137789395056,347.77378454711834,left,1,1,0.8400980754468037,D08E08,2022-11-24_10h52.59.157,t1_Paradigm,2021.1.4,60.01501726997434,
P,right,Target,0,36,36,36,349.27140612448693,351.2716582744988,right,1,1,0.8941640425100559,D08E08,2022-11-24_10h52.59.157,t1_Paradigm,2021.1.4,60.01501726997434,
Y,left,Pretarget,0,37,37,37,352.77160309663304,354.77156941247176,left,1,1,0.7860991559064132,D08E08,2022-11-24_10h52.59.157,t1_Paradigm,2021.1.4,60.01501726997434,
Y,right,Target,0,38,38,38,356.2716986954929,358.2713993876541,right,1,1,0.5984799781344918,D08E08,2022-11-24_10h52.59.157,t1_Paradigm,2021.1.4,60.01501726997434,
J,left,Distractor,0,39,39,39,359.77159443499113,361.7736825322281,left,1,1,0.7441809808315156,D08E08,2022-11-24_10h52.59.157,t1_Paradigm,2021.1.4,60.01501726997434,
Y,left,Lure,0,40,40,40,363.271260159785,365.27317149537157,left,1,1,0.972567297747446,D08E08,2022-11-24_10h52.59.157,t1_Paradigm,2021.1.4,60.01501726997434,
T,left,Distractor,0,41,41,41,366.7715020441474,368.7735503619924,left,1,1,0.9283383891652193,D08E08,2022-11-24_10h52.59.157,t1_Paradigm,2021.1.4,60.01501726997434,
V,left,Distractor,0,42,42,42,370.27157582850214,372.27319491388425,left,1,1,0.9004328254404754,D08E08,2022-11-24_10h52.59.157,t1_Paradigm,2021.1.4,60.01501726997434,
N,left,Pretarget,0,43,43,43,373.7716175327023,375.78455513808603,left,1,1,0.7497962910210845,D08E08,2022-11-24_10h52.59.157,t1_Paradigm,2021.1.4,60.01501726997434,
N,right,Target,0,44,44,44,377.2715597884253,379.2714722096043,right,1,1,0.6541730506178283,D08E08,2022-11-24_10h52.59.157,t1_Paradigm,2021.1.4,60.01501726997434,
N,right,Target,0,45,45,45,380.77145713193204,382.77164255522257,right,1,1,0.7380344232888092,D08E08,2022-11-24_10h52.59.157,t1_Paradigm,2021.1.4,60.01501726997434,
X,left,Distractor,0,46,46,46,384.27171666037884,386.2730450995641,left,1,1,0.836630210779731,D08E08,2022-11-24_10h52.59.157,t1_Paradigm,2021.1.4,60.01501726997434,
Z,left,Distractor,0,47,47,47,387.77158481094557,389.77327318946027,None,0,1,,D08E08,2022-11-24_10h52.59.157,t1_Paradigm,2021.1.4,60.01501726997434,
H,left,Pretarget,0,48,48,48,391.2713089216195,393.2721770105918,left,1,1,0.8774849287437974,D08E08,2022-11-24_10h52.59.157,t1_Paradigm,2021.1.4,60.01501726997434,
H,right,Target,0,49,49,49,394.77163710159675,396.7715886605638,right,1,1,0.9621547213000667,D08E08,2022-11-24_10h52.59.157,t1_Paradigm,2021.1.4,60.01501726997434,
K,left,Distractor,0,50,50,50,398.27129320234417,400.2717808206871,left,1,1,0.7739536095305084,D08E08,2022-11-24_10h52.59.157,t1_Paradigm,2021.1.4,60.01501726997434,
V,left,Pretarget,0,51,51,51,401.7712566309683,403.77289688925157,left,1,1,0.5207905063271028,D08E08,2022-11-24_10h52.59.157,t1_Paradigm,2021.1.4,60.01501726997434,
V,right,Target,0,52,52,52,405.27157262048695,407.27140163326476,left,0,1,1.0062841814042258,D08E08,2022-11-24_10h52.59.157,t1_Paradigm,2021.1.4,60.01501726997434,
R,left,Distractor,0,53,53,53,408.77160149262545,410.7714189565486,left,1,1,0.7543077231048301,D08E08,2022-11-24_10h52.59.157,t1_Paradigm,2021.1.4,60.01501726997434,
V,left,Lure,0,54,54,54,412.27146258555786,414.27314037762244,left,1,1,0.7245617209327975,D08E08,2022-11-24_10h52.59.157,t1_Paradigm,2021.1.4,60.01501726997434,
Y,left,Distractor,0,55,55,55,415.7711956786752,417.7728943228394,left,1,1,0.7766011846561014,D08E08,2022-11-24_10h52.59.157,t1_Paradigm,2021.1.4,60.01501726997434,
Q,left,Distractor,0,56,56,56,419.27110489183906,421.27363377039364,left,1,1,0.7478557624945097,D08E08,2022-11-24_10h52.59.157,t1_Paradigm,2021.1.4,60.01501726997434,
Z,left,Pretarget,0,57,57,57,422.7715957181981,424.77153669071413,left,1,1,0.6900941616686396,D08E08,2022-11-24_10h52.59.157,t1_Paradigm,2021.1.4,60.01501726997434,
Z,right,Target,0,58,58,58,426.2715325202944,428.27156556285263,right,1,1,0.7740841757586168,D08E08,2022-11-24_10h52.59.157,t1_Paradigm,2021.1.4,60.01501726997434,
B,left,Distractor,0,59,59,59,429.77157614930366,431.772229942846,left,1,1,0.5533342187454764,D08E08,2022-11-24_10h52.59.157,t1_Paradigm,2021.1.4,60.01501726997434,
S,left,Pretarget,0,60,60,60,433.2717718382446,435.2719399382522,left,1,1,0.9257937913353089,D08E08,2022-11-24_10h52.59.157,t1_Paradigm,2021.1.4,60.01501726997434,
S,right,Target,0,61,61,61,436.7714975529261,438.77121653077484,right,1,1,0.7384646181562857,D08E08,2022-11-24_10h52.59.157,t1_Paradigm,2021.1.4,60.01501726997434,
T,left,Distractor,0,62,62,62,440.27159122697594,442.2731570593023,left,1,1,0.6125933211678785,D08E08,2022-11-24_10h52.59.157,t1_Paradigm,2021.1.4,60.01501726997434,
D,left,Distractor,0,63,63,63,443.7714324302133,445.7728769995565,left,1,1,0.7128482942334813,D08E08,2022-11-24_10h52.59.157,t1_Paradigm,2021.1.4,60.01501726997434,
R,left,Distractor,0,0,0,0,456.8280612807939,458.82362074585035,None,0,1,,D08E08,2022-11-24_10h52.59.157,t1_Paradigm,2021.1.4,60.01501726997434,
V,left,Distractor,0,1,1,1,460.32139855356945,462.32347317714084,left,1,1,0.8180487438694399,D08E08,2022-11-24_10h52.59.157,t1_Paradigm,2021.1.4,60.01501726997434,
N,left,Pretarget,0,2,2,2,463.8214399369699,465.82355818954966,left,1,1,0.5978088613082946,D08E08,2022-11-24_10h52.59.157,t1_Paradigm,2021.1.4,60.01501726997434,
N,right,Target,0,3,3,3,467.3213741726522,469.3215098717046,right,1,1,0.6359053276155464,D08E08,2022-11-24_10h52.59.157,t1_Paradigm,2021.1.4,60.01501726997434,
S,left,Distractor,0,4,4,4,470.8214604682671,472.8214623930762,left,1,1,0.7360226768196299,D08E08,2022-11-24_10h52.59.157,t1_Paradigm,2021.1.4,60.01501726997434,
N,left,Lure,0,5,5,5,474.32152911979756,476.3235588311527,left,1,1,0.7380308944721037,D08E08,2022-11-24_10h52.59.157,t1_Paradigm,2021.1.4,60.01501726997434,
Z,left,Distractor,0,6,6,6,477.8215047388803,479.82387482067134,left,1,1,0.5656058401291375,D08E08,2022-11-24_10h52.59.157,t1_Paradigm,2021.1.4,60.01501726997434,
L,left,Pretarget,0,7,7,7,481.3214229344867,483.3228556341728,left,1,1,0.5547861665254459,D08E08,2022-11-24_10h52.59.157,t1_Paradigm,2021.1.4,60.01501726997434,
L,right,Target,0,8,8,8,484.821400799181,486.8214822827722,left,0,1,0.5761323011211061,D08E08,2022-11-24_10h52.59.157,t1_Paradigm,2021.1.4,60.01501726997434,
H,left,Distractor,0,9,9,9,488.32111015298324,490.32181399156616,left,1,1,0.6117832972740871,D08E08,2022-11-24_10h52.59.157,t1_Paradigm,2021.1.4,60.01501726997434,
L,left,Lure,0,10,10,10,491.82122852875364,493.82126798734316,left,1,1,0.4882050897085719,D08E08,2022-11-24_10h52.59.157,t1_Paradigm,2021.1.4,60.01501726997434,
X,left,Pretarget,0,11,11,11,495.32144763620636,497.32209822173354,left,1,1,0.6194074667200766,D08E08,2022-11-24_10h52.59.157,t1_Paradigm,2021.1.4,60.01501726997434,
X,right,Target,0,12,12,12,498.82113774191566,500.8213773806692,right,1,1,0.4642736154837621,D08E08,2022-11-24_10h52.59.157,t1_Paradigm,2021.1.4,60.01501726997434,
X,right,Target,0,13,13,13,502.3211114361893,504.3214056112047,right,1,1,0.4679698908494174,D08E08,2022-11-24_10h52.59.157,t1_Paradigm,2021.1.4,60.01501726997434,
R,left,Distractor,0,14,14,14,505.8211210602367,507.8227468824516,left,1,1,0.7266273620607535,D08E08,2022-11-24_10h52.59.157,t1_Paradigm,2021.1.4,60.01501726997434,
T,left,Distractor,0,15,15,15,509.3210193661471,511.32304619028946,left,1,1,0.8108518820790778,D08E08,2022-11-24_10h52.59.157,t1_Paradigm,2021.1.4,60.01501726997434,
V,left,Pretarget,0,16,16,16,512.8214739419327,514.8220180213484,left,1,1,0.8796699080448889,D08E08,2022-11-24_10h52.59.157,t1_Paradigm,2021.1.4,60.01501726997434,
V,right,Target,0,17,17,17,516.3212102430643,518.3209843987788,right,1,1,0.6766060608388216,D08E08,2022-11-24_10h52.59.157,t1_Paradigm,2021.1.4,60.01501726997434,
N,left,Distractor,0,18,18,18,519.8214745835357,521.8221716852859,left,1,1,0.8720640242881927,D08E08,2022-11-24_10h52.59.157,t1_Paradigm,2021.1.4,60.01501726997434,
B,left,Distractor,0,19,19,19,523.321303275512,525.3227577897032,left,1,1,0.6987525952845317,D08E08,2022-11-24_10h52.59.157,t1_Paradigm,2021.1.4,60.01501726997434,
V,left,Lure,0,20,20,20,526.8212856314276,528.8216160570155,left,1,1,0.8488636567781214,D08E08,2022-11-24_10h52.59.157,t1_Paradigm,2021.1.4,60.01501726997434,
P,left,Distractor,0,21,21,21,530.3214165184563,532.3214835659783,left,1,1,0.8038985086568573,D08E08,2022-11-24_10h52.59.157,t1_Paradigm,2021.1.4,60.01501726997434,
K,left,Pretarget,0,22,22,22,533.8214595058635,535.8233551221747,left,1,1,0.7421814248209557,D08E08,2022-11-24_10h52.59.157,t1_Paradigm,2021.1.4,60.01501726997434,
K,right,Target,0,23,23,23,537.3209962684359,539.3214659218938,right,1,1,0.5561373826185445,D08E08,2022-11-24_10h52.59.157,t1_Paradigm,2021.1.4,60.01501726997434,
J,left,Pretarget,0,24,24,24,540.8211130401978,542.82199781085,left,1,1,0.7034035760389088,D08E08,2022-11-24_10h52.59.157,t1_Paradigm,2021.1.4,60.01501726997434,
J,right,Target,0,25,25,25,544.321343696507,546.3214068944108,right,1,1,0.5164035452417011,D08E08,2022-11-24_10h52.59.157,t1_Paradigm,2021.1.4,60.01501726997434,
H,left,Distractor,0,26,26,26,547.821261571311,549.8234196032845,left,1,1,0.6461844506211492,D08E08,2022-11-24_10h52.59.157,t1_Paradigm,2021.1.4,60.01501726997434,
J,left,Lure,0,27,27,27,551.3211611604293,553.322193499791,left,1,1,1.32330700194143,D08E08,2022-11-24_10h52.59.157,t1_Paradigm,2021.1.4,60.01501726997434,
V,left,Distractor,0,28,28,28,554.8214498818161,556.8224536698417,left,1,1,0.8951896450398635,D08E08,2022-11-24_10h52.59.157,t1_Paradigm,2021.1.4,60.01501726997434,
Z,left,Pretarget,0,29,29,29,558.3209773411454,560.322174251698,left,1,1,0.8192921706449852,D08E08,2022-11-24_10h52.59.157,t1_Paradigm,2021.1.4,60.01501726997434,
Z,right,Target,0,30,30,30,561.8213950247537,563.8209548850373,left,0,1,0.7765017361780338,D08E08,2022-11-24_10h52.59.157,t1_Paradigm,2021.1.4,60.01501726997434,
T,left,Distractor,0,31,31,31,565.3211181730221,567.323283262629,left,1,1,0.9221636010861403,D08E08,2022-11-24_10h52.59.157,t1_Paradigm,2021.1.4,60.01501726997434,
Z,left,Lure,0,32,32,32,568.8209343537383,570.8222502816643,left,1,1,0.8152016301846743,D08E08,2022-11-24_10h52.59.157,t1_Paradigm,2021.1.4,60.01501726997434,
F,left,Distractor,0,33,33,33,572.3210267445829,574.3215839768618,left,1,1,0.5160772900744632,D08E08,2022-11-24_10h52.59.157,t1_Paradigm,2021.1.4,60.01501726997434,
Y,left,Pretarget,0,34,34,34,575.821085772066,577.8219958860409,left,1,1,0.5672393615786859,D08E08,2022-11-24_10h52.59.157,t1_Paradigm,2021.1.4,60.01501726997434,
Y,right,Target,0,35,35,35,579.3209991556505,581.3213735310492,right,1,1,0.5720000564615475,D08E08,2022-11-24_10h52.59.157,t1_Paradigm,2021.1.4,60.01501726997434,
Y,right,Target,0,36,36,36,582.8210710151961,584.8214194056709,right,1,1,0.544127535295047,D08E08,2022-11-24_10h52.59.157,t1_Paradigm,2021.1.4,60.01501726997434,
W,left,Distractor,0,37,37,37,586.3211159274124,588.3236204250497,left,1,1,0.5618842214407778,D08E08,2022-11-24_10h52.59.157,t1_Paradigm,2021.1.4,60.01501726997434,
Q,left,Distractor,0,38,38,38,589.821292689061,591.8229011879921,left,1,1,0.8225688375950995,D08E08,2022-11-24_10h52.59.157,t1_Paradigm,2021.1.4,60.01501726997434,
P,left,Pretarget,0,39,39,39,593.3209744539308,595.3226673236677,left,1,1,0.8106083937072981,D08E08,2022-11-24_10h52.59.157,t1_Paradigm,2021.1.4,60.01501726997434,
P,right,Target,0,40,40,40,596.8210758272198,598.8209815115661,right,1,1,1.4084701872707228,D08E08,2022-11-24_10h52.59.157,t1_Paradigm,2021.1.4,60.01501726997434,
J,left,Distractor,0,41,41,41,600.3213613405915,602.3234240945058,left,1,1,0.8497991140739032,D08E08,2022-11-24_10h52.59.157,t1_Paradigm,2021.1.4,60.01501726997434,
P,left,Lure,0,42,42,42,603.8210671655779,605.8218528085526,left,1,1,0.8712613788302406,D08E08,2022-11-24_10h52.59.157,t1_Paradigm,2021.1.4,60.01501726997434,
L,left,Distractor,0,43,43,43,607.3207078678497,609.3233310620581,left,1,1,1.1141671735331329,D08E08,2022-11-24_10h52.59.157,t1_Paradigm,2021.1.4,60.01501726997434,
Z,left,Distractor,0,44,44,44,610.8209308249225,612.8220000564615,left,1,1,0.6872582760370278,D08E08,2022-11-24_10h52.59.157,t1_Paradigm,2021.1.4,60.01501726997434,
F,left,Pretarget,0,45,45,45,614.3208557573616,616.321695294997,left,1,1,0.4995653139121714,D08E08,2022-11-24_10h52.59.157,t1_Paradigm,2021.1.4,60.01501726997434,
F,right,Target,0,46,46,46,617.8212923682604,619.8211749548955,right,1,1,0.7601142310122668,D08E08,2022-11-24_10h52.59.157,t1_Paradigm,2021.1.4,60.01501726997434,
G,left,Pretarget,0,47,47,47,621.3209555266403,623.3230064108975,left,1,1,0.6983977887794026,D08E08,2022-11-24_10h52.59.157,t1_Paradigm,2021.1.4,60.01501726997434,
G,right,Target,0,48,48,48,624.8212923682604,626.821183295735,right,1,1,0.5922111952040723,D08E08,2022-11-24_10h52.59.157,t1_Paradigm,2021.1.4,60.01501726997434,
V,left,Distractor,0,49,49,49,628.3212596465019,630.3224661811018,left,1,1,0.6267355363415845,D08E08,2022-11-24_10h52.59.157,t1_Paradigm,2021.1.4,60.01501726997434,
G,left,Lure,0,50,50,50,631.8209895316049,633.8218454301186,left,1,1,1.1435516323672346,D08E08,2022-11-24_10h52.59.157,t1_Paradigm,2021.1.4,60.01501726997434,
Q,left,Pretarget,0,51,51,51,635.3211906741708,637.3219050992047,left,1,1,0.9394685986608238,D08E08,2022-11-24_10h52.59.157,t1_Paradigm,2021.1.4,60.01501726997434,
Q,right,Target,0,52,52,52,638.8211893909647,640.8213145035661,right,1,1,1.0879711612251413,D08E08,2022-11-24_10h52.59.157,t1_Paradigm,2021.1.4,60.01501726997434,
Y,left,Distractor,0,53,53,53,642.3211098321826,644.3215708239986,left,1,1,0.8515763546165545,D08E08,2022-11-24_10h52.59.157,t1_Paradigm,2021.1.4,60.01501726997434,
V,left,Distractor,0,54,54,54,645.8211492907722,647.8219006079835,left,1,1,0.8074183431745041,D08E08,2022-11-24_10h52.59.157,t1_Paradigm,2021.1.4,60.01501726997434,
B,left,Distractor,0,55,55,55,649.3212888394428,651.3230564559381,left,1,1,0.5382584710841911,D08E08,2022-11-24_10h52.59.157,t1_Paradigm,2021.1.4,60.01501726997434,
J,left,Pretarget,0,56,56,56,652.8212378319968,654.8229268521154,left,1,1,0.7822861087788624,D08E08,2022-11-24_10h52.59.157,t1_Paradigm,2021.1.4,60.01501726997434,
J,right,Target,0,57,57,57,656.3212035062334,658.3209417321741,right,1,1,0.5485019851184916,D08E08,2022-11-24_10h52.59.157,t1_Paradigm,2021.1.4,60.01501726997434,
H,left,Distractor,0,58,58,58,659.8210633159597,661.8234475130175,left,1,1,0.6619579416346824,D08E08,2022-11-24_10h52.59.157,t1_Paradigm,2021.1.4,60.01501726997434,
J,left,Lure,0,59,59,59,663.3210745440119,665.3206414619308,left,1,1,0.9406590931848768,D08E08,2022-11-24_10h52.59.157,t1_Paradigm,2021.1.4,60.01501726997434,
D,left,Pretarget,0,60,60,60,666.8209420529765,668.8212747241741,left,1,1,0.9599870652818936,D08E08,2022-11-24_10h52.59.157,t1_Paradigm,2021.1.4,60.01501726997434,
D,right,Target,0,61,61,61,670.3208108451454,672.3208175819782,right,1,1,0.7084619747511169,D08E08,2022-11-24_10h52.59.157,t1_Paradigm,2021.1.4,60.01501726997434,
R,left,Distractor,0,62,62,62,673.8206318378852,675.8211294010762,left,1,1,0.7123946808533219,D08E08,2022-11-24_10h52.59.157,t1_Paradigm,2021.1.4,60.01501726997434,
F,left,Distractor,0,63,63,63,677.3209256920982,679.3221983118146,left,1,1,0.6190035775798606,D08E08,2022-11-24_10h52.59.157,t1_Paradigm,2021.1.4,60.01501726997434,
F,left,Distractor,0,0,0,0,760.3293406373432,762.3206565396031,None,0,2,,D08E08,2022-11-24_10h52.59.157,t1_Paradigm,2021.1.4,60.01501726997434,
N,left,Pretarget,0,1,1,1,763.8209388449613,765.8212551552806,None,0,2,,D08E08,2022-11-24_10h52.59.157,t1_Paradigm,2021.1.4,60.01501726997434,
V,left,Distractor,0,2,2,2,767.3210674863785,769.3212519472654,left,1,2,0.7960160939728667,D08E08,2022-11-24_10h52.59.157,t1_Paradigm,2021.1.4,60.01501726997434,
N,right,Target,0,3,3,3,770.820722945522,772.8220956553214,right,1,2,0.9590111869911198,D08E08,2022-11-24_10h52.59.157,t1_Paradigm,2021.1.4,60.01501726997434,
N,left,Lure,0,4,4,4,774.3209186344629,776.3209590554579,None,0,2,,D08E08,2022-11-24_10h52.59.157,t1_Paradigm,2021.1.4,60.01501726997434,
X,left,Distractor,0,5,5,5,777.820762724914,779.8228691078384,left,1,2,0.9821785119420383,D08E08,2022-11-24_10h52.59.157,t1_Paradigm,2021.1.4,60.01501726997434,
G,left,Pretarget,0,6,6,6,781.3208836670947,783.3216423627418,left,1,2,1.0674122736108984,D08E08,2022-11-24_10h52.59.157,t1_Paradigm,2021.1.4,60.01501726997434,
H,left,Pretarget,0,7,7,7,784.8209593762585,786.8216891997672,left,1,2,0.9914506389086455,D08E08,2022-11-24_10h52.59.157,t1_Paradigm,2021.1.4,60.01501726997434,
G,right,Target,0,8,8,8,788.3207425144174,790.3218451093162,right,1,2,0.8831923089765041,D08E08,2022-11-24_10h52.59.157,t1_Paradigm,2021.1.4,60.01501726997434,
H,right,Target,0,9,9,9,791.8209452609917,793.8205872464714,left,0,2,0.8565311344318616,D08E08,2022-11-24_10h52.59.157,t1_Paradigm,2021.1.4,60.01501726997434,
T,left,Pretarget,0,10,10,10,795.3206899029647,797.321106944968,left,1,2,0.9720257847438916,D08E08,2022-11-24_10h52.59.157,t1_Paradigm,2021.1.4,60.01501726997434,
K,left,Distractor,0,11,11,11,798.8206773917045,800.8232742801847,left,1,2,1.0059203924556641,D08E08,2022-11-24_10h52.59.157,t1_Paradigm,2021.1.4,60.01501726997434,
T,right,Target,0,12,12,12,802.3209330705322,804.3337705858357,right,1,2,1.1433193720495183,D08E08,2022-11-24_10h52.59.157,t1_Paradigm,2021.1.4,60.01501726997434,
T,left,Lure,0,13,13,13,805.8205548455153,807.8209529602282,left,1,2,1.0482790280475456,D08E08,2022-11-24_10h52.59.157,t1_Paradigm,2021.1.4,60.01501726997434,
J,left,Distractor,0,14,14,14,809.3208384340778,811.321173350887,left,1,2,1.2440613218568615,D08E08,2022-11-24_10h52.59.157,t1_Paradigm,2021.1.4,60.01501726997434,
Q,left,Pretarget,0,15,15,15,812.8208018627029,814.8204425649747,None,0,2,,D08E08,2022-11-24_10h52.59.157,t1_Paradigm,2021.1.4,60.01501726997434,
M,left,Distractor,0,16,16,16,816.3208326596505,818.3222220511288,None,0,2,,D08E08,2022-11-24_10h52.59.157,t1_Paradigm,2021.1.4,60.01501726997434,
Q,right,Target,0,17,17,17,819.8206626348328,821.8232922450716,right,1,2,1.0619028279306804,D08E08,2022-11-24_10h52.59.157,t1_Paradigm,2021.1.4,60.01501726997434,
R,left,Distractor,0,18,18,18,823.3209237672872,825.3227558648941,left,1,2,1.418311095370882,D08E08,2022-11-24_10h52.59.157,t1_Paradigm,2021.1.4,60.01501726997434,
W,left,Distractor,0,19,19,19,826.8208557573616,828.8228145715766,left,1,2,1.2623608042104024,D08E08,2022-11-24_10h52.59.157,t1_Paradigm,2021.1.4,60.01501726997434,
C,left,Pretarget,0,20,20,20,830.3204406401655,832.3239453970109,left,1,2,0.8171171361918823,D08E08,2022-11-24_10h52.59.157,t1_Paradigm,2021.1.4,60.01501726997434,
T,left,Distractor,0,21,21,21,833.8209946644292,835.8215801272436,left,1,2,0.9353626597276161,D08E08,2022-11-24_10h52.59.157,t1_Paradigm,2021.1.4,60.01501726997434,
C,right,Target,0,22,22,22,837.3205689607821,839.3211181730221,left,0,2,1.1640162043277087,D08E08,2022-11-24_10h52.59.157,t1_Paradigm,2021.1.4,60.01501726997434,
F,left,Pretarget,0,23,23,23,840.8206632764359,842.8216564780105,left,1,2,0.9753829728797427,D08E08,2022-11-24_10h52.59.157,t1_Paradigm,2021.1.4,60.01501726997434,
C,right,Target,0,24,24,24,844.3201515979763,846.3220449686778,right,1,2,0.7869419015569292,D08E08,2022-11-24_10h52.59.157,t1_Paradigm,2021.1.4,60.01501726997434,
F,right,Target,0,25,25,25,847.8208413212924,849.8217472648466,right,1,2,0.951226937577303,D08E08,2022-11-24_10h52.59.157,t1_Paradigm,2021.1.4,60.01501726997434,
H,left,Distractor,0,26,26,26,851.3207547048751,853.3220728784108,left,1,2,0.6349801359683624,D08E08,2022-11-24_10h52.59.157,t1_Paradigm,2021.1.4,60.01501726997434,
H,left,Lure,0,27,27,27,854.8208756470576,856.8209285793109,left,1,2,1.3761507151302794,D08E08,2022-11-24_10h52.59.157,t1_Paradigm,2021.1.4,60.01501726997434,
P,left,Distractor,0,28,28,28,858.320695035789,860.3227372584042,left,1,2,0.7383536208235455,D08E08,2022-11-24_10h52.59.157,t1_Paradigm,2021.1.4,60.01501726997434,
G,left,Pretarget,0,29,29,29,861.8208907247299,863.8212580424952,left,1,2,0.695835226062627,D08E08,2022-11-24_10h52.59.157,t1_Paradigm,2021.1.4,60.01501726997434,
K,left,Distractor,0,30,30,30,865.3205378430339,867.3209186344629,left,1,2,0.6519450839077763,D08E08,2022-11-24_10h52.59.157,t1_Paradigm,2021.1.4,60.01501726997434,
G,right,Target,0,31,31,31,868.8206064945625,870.8208952159512,right,1,2,0.848260870679951,D08E08,2022-11-24_10h52.59.157,t1_Paradigm,2021.1.4,60.01501726997434,
M,left,Pretarget,0,32,32,32,872.3205195573446,874.3216118865948,left,1,2,1.443547590268281,D08E08,2022-11-24_10h52.59.157,t1_Paradigm,2021.1.4,60.01501726997434,
B,left,Distractor,0,33,33,33,875.8208320180474,877.8208284892298,left,1,2,1.0482960305289453,D08E08,2022-11-24_10h52.59.157,t1_Paradigm,2021.1.4,60.01501726997434,
M,right,Target,0,34,34,34,879.3207059430406,881.3226939501965,right,1,2,0.5862680258396722,D08E08,2022-11-24_10h52.59.157,t1_Paradigm,2021.1.4,60.01501726997434,
M,left,Lure,0,35,35,35,882.8205070460845,884.8209763787418,left,1,2,1.087910850534172,D08E08,2022-11-24_10h52.59.157,t1_Paradigm,2021.1.4,60.01501726997434,
T,left,Distractor,0,36,36,36,886.3207678577382,888.3224469330089,left,1,2,0.7065968345887086,D08E08,2022-11-24_10h52.59.157,t1_Paradigm,2021.1.4,60.01501726997434,
F,left,Distractor,0,37,37,37,889.8205638279578,891.8218088587419,left,1,2,0.6952314775608102,D08E08,2022-11-24_10h52.59.157,t1_Paradigm,2021.1.4,60.01501726997434,
X,left,Distractor,0,38,38,38,893.3206860533464,895.3226618700428,left,1,2,0.6022413762111682,D08E08,2022-11-24_10h52.59.157,t1_Paradigm,2021.1.4,60.01501726997434,
C,left,Distractor,0,39,39,39,896.8205833968514,898.8224607274751,left,1,2,1.07046309627367,D08E08,2022-11-24_10h52.59.157,t1_Paradigm,2021.1.4,60.01501726997434,
R,left,Distractor,0,40,40,40,900.320773952968,902.3217353951895,left,1,2,0.5953319526033738,D08E08,2022-11-24_10h52.59.157,t1_Paradigm,2021.1.4,60.01501726997434,
B,left,Pretarget,0,41,41,41,903.820452189022,905.8208259228177,left,1,2,0.7126099386878195,D08E08,2022-11-24_10h52.59.157,t1_Paradigm,2021.1.4,60.01501726997434,
H,left,Distractor,0,42,42,42,907.3208002586944,909.3216106033888,left,1,2,0.6352573085005133,D08E08,2022-11-24_10h52.59.157,t1_Paradigm,2021.1.4,60.01501726997434,
B,right,Target,0,43,43,43,910.8207174918971,912.8209645090847,left,0,2,1.0719278761134774,D08E08,2022-11-24_10h52.59.157,t1_Paradigm,2021.1.4,60.01501726997434,
W,left,Pretarget,0,44,44,44,914.3207521384629,916.3225473438924,left,1,2,1.3147403175680665,D08E08,2022-11-24_10h52.59.157,t1_Paradigm,2021.1.4,60.01501726997434,
L,left,Pretarget,0,45,45,45,917.8207861434257,919.8216388339242,left,1,2,1.0633842894494592,D08E08,2022-11-24_10h52.59.157,t1_Paradigm,2021.1.4,60.01501726997434,
W,right,Target,0,46,46,46,921.3204897228024,923.3213164283752,right,1,2,0.8597754004258604,D08E08,2022-11-24_10h52.59.157,t1_Paradigm,2021.1.4,60.01501726997434,
L,right,Target,0,47,47,47,924.8205535623092,926.8227103110748,right,1,2,1.0702388559948304,D08E08,2022-11-24_10h52.59.157,t1_Paradigm,2021.1.4,60.01501726997434,
W,right,Target,0,48,48,48,928.3207498928532,930.3224405169785,right,1,2,1.138548732320487,D08E08,2022-11-24_10h52.59.157,t1_Paradigm,2021.1.4,60.01501726997434,
X,left,Distractor,0,49,49,49,931.8206472363581,933.8232543904905,left,1,2,0.7737027427247085,D08E08,2022-11-24_10h52.59.157,t1_Paradigm,2021.1.4,60.01501726997434,
R,left,Distractor,0,50,50,50,935.3205234069646,937.3203437580996,left,1,2,1.0844590259439428,D08E08,2022-11-24_10h52.59.157,t1_Paradigm,2021.1.4,60.01501726997434,
V,left,Pretarget,0,51,51,51,938.8207652913261,940.822547664693,left,1,2,0.8624723789871496,D08E08,2022-11-24_10h52.59.157,t1_Paradigm,2021.1.4,60.01501726997434,
Z,left,Distractor,0,52,52,52,942.3206462739545,944.321888417524,left,1,2,0.5950628001100995,D08E08,2022-11-24_10h52.59.157,t1_Paradigm,2021.1.4,60.01501726997434,
V,right,Target,0,53,53,53,945.8203768006588,947.8228950927623,right,1,2,1.110115129258702,D08E08,2022-11-24_10h52.59.157,t1_Paradigm,2021.1.4,60.01501726997434,
V,left,Lure,0,54,54,54,949.3205336726132,951.3206725796808,left,1,2,1.3401901454908511,D08E08,2022-11-24_10h52.59.157,t1_Paradigm,2021.1.4,60.01501726997434,
N,left,Distractor,0,55,55,55,952.820722945522,954.8226089377877,left,1,2,0.9742973804641224,D08E08,2022-11-24_10h52.59.157,t1_Paradigm,2021.1.4,60.01501726997434,
B,left,Distractor,0,56,56,56,956.3204534722281,958.3220215501642,None,0,2,,D08E08,2022-11-24_10h52.59.157,t1_Paradigm,2021.1.4,60.01501726997434,
V,left,Lure,0,57,57,57,959.8204691915034,961.8220497806997,None,0,2,,D08E08,2022-11-24_10h52.59.157,t1_Paradigm,2021.1.4,60.01501726997434,
J,left,Distractor,0,58,58,58,963.3205647903633,965.3206876573531,left,1,2,1.1002546522649936,D08E08,2022-11-24_10h52.59.157,t1_Paradigm,2021.1.4,60.01501726997434,
H,left,Distractor,0,59,59,59,966.8206972813987,968.8214793955594,left,1,2,0.7831821074869367,D08E08,2022-11-24_10h52.59.157,t1_Paradigm,2021.1.4,60.01501726997434,
X,left,Pretarget,0,60,60,60,970.3205041588717,972.3226910629819,left,1,2,0.8021315337646229,D08E08,2022-11-24_10h52.59.157,t1_Paradigm,2021.1.4,60.01501726997434,
P,left,Distractor,0,61,61,61,973.8206292714731,975.8207697825474,left,1,2,1.032206549998591,D08E08,2022-11-24_10h52.59.157,t1_Paradigm,2021.1.4,60.01501726997434,
X,right,Target,0,62,62,62,977.3205477878819,979.3214139520442,right,1,2,1.0994696508896595,D08E08,2022-11-24_10h52.59.157,t1_Paradigm,2021.1.4,60.01501726997434,
Q,left,Distractor,0,63,63,63,980.8204977428413,982.822048176693,left,1,2,0.974798793273294,D08E08,2022-11-24_10h52.59.157,t1_Paradigm,2021.1.4,60.01501726997434,
B,left,Pretarget,0,0,0,0,1012.1451527528625,1014.1390892829186,None,0,2,,D08E08,2022-11-24_10h52.59.157,t1_Paradigm,2021.1.4,60.01501726997434,
F,left,Distractor,0,1,1,1,1015.6371080125955,1017.637981875996,None,0,2,,D08E08,2022-11-24_10h52.59.157,t1_Paradigm,2021.1.4,60.01501726997434,
B,right,Target,0,2,2,2,1019.1371041629773,1021.1382635397495,right,1,2,0.738510813578614,D08E08,2022-11-24_10h52.59.157,t1_Paradigm,2021.1.4,60.01501726997434,
V,left,Distractor,0,3,3,3,1022.6372196515331,1024.6499974977487,left,1,2,0.7148828176123061,D08E08,2022-11-24_10h52.59.157,t1_Paradigm,2021.1.4,60.01501726997434,
G,left,Pretarget,0,4,4,4,1026.137276112604,1028.1394039892311,left,1,2,0.7777403509317082,D08E08,2022-11-24_10h52.59.157,t1_Paradigm,2021.1.4,60.01501726997434,
B,left,Lure,0,5,5,5,1029.6372745085955,1031.6371757017205,left,1,2,1.119555677032622,D08E08,2022-11-24_10h52.59.157,t1_Paradigm,2021.1.4,60.01501726997434,
G,right,Target,0,6,6,6,1033.1369315717475,1035.1390786964675,right,1,2,1.1536376328440383,D08E08,2022-11-24_10h52.59.157,t1_Paradigm,2021.1.4,60.01501726997434,
Y,left,Pretarget,0,7,7,7,1036.6372212555398,1038.6383767826937,left,1,2,1.4305281804900005,D08E08,2022-11-24_10h52.59.157,t1_Paradigm,2021.1.4,60.01501726997434,
P,left,Distractor,0,8,8,8,1040.137219651533,1042.1391011525757,left,1,2,1.22561010037316,D08E08,2022-11-24_10h52.59.157,t1_Paradigm,2021.1.4,60.01501726997434,
Y,right,Target,0,9,9,9,1043.636925155717,1045.6388881403527,right,1,2,1.005920071653236,D08E08,2022-11-24_10h52.59.157,t1_Paradigm,2021.1.4,60.01501726997434,
X,left,Distractor,0,10,10,10,1047.1372045738608,1049.1381024973762,left,1,2,0.6425478443416068,D08E08,2022-11-24_10h52.59.157,t1_Paradigm,2021.1.4,60.01501726997434,
Y,right,Target,0,11,11,11,1050.636668514484,1052.639479698395,right,1,2,1.1092114313123602,D08E08,2022-11-24_10h52.59.157,t1_Paradigm,2021.1.4,60.01501726997434,
N,left,Distractor,0,12,12,12,1054.137228954778,1056.1381955298239,left,1,2,1.3705187232608296,D08E08,2022-11-24_10h52.59.157,t1_Paradigm,2021.1.4,60.01501726997434,
Y,right,Target,0,13,13,13,1057.6372594309232,1059.6384771935773,right,1,2,0.750163287984833,D08E08,2022-11-24_10h52.59.157,t1_Paradigm,2021.1.4,60.01501726997434,
Y,left,Lure,0,14,14,14,1061.137100954962,1063.1372315211902,left,1,2,1.1235419569911755,D08E08,2022-11-24_10h52.59.157,t1_Paradigm,2021.1.4,60.01501726997434,
K,left,Distractor,0,15,15,15,1064.6371987994316,1066.6380373746633,None,0,2,,D08E08,2022-11-24_10h52.59.157,t1_Paradigm,2021.1.4,60.01501726997434,
T,left,Pretarget,0,16,16,16,1068.1372915110787,1070.138892631574,left,1,2,0.7779668368202692,D08E08,2022-11-24_10h52.59.157,t1_Paradigm,2021.1.4,60.01501726997434,
J,left,Distractor,0,17,17,17,1071.6370063185077,1073.6379189988947,left,1,2,0.6867064973848755,D08E08,2022-11-24_10h52.59.157,t1_Paradigm,2021.1.4,60.01501726997434,
T,right,Target,0,18,18,18,1075.136943762207,1077.1373672202426,right,1,2,0.7872450590148219,D08E08,2022-11-24_10h52.59.157,t1_Paradigm,2021.1.4,60.01501726997434,
S,left,Pretarget,0,19,19,19,1078.6362768158015,1080.6391614632666,left,1,2,0.5334368239109608,D08E08,2022-11-24_10h52.59.157,t1_Paradigm,2021.1.4,60.01501726997434,
R,left,Distractor,0,20,20,20,1082.1370034312931,1084.1391059645994,left,1,2,0.7135970450344757,D08E08,2022-11-24_10h52.59.157,t1_Paradigm,2021.1.4,60.01501726997434,
S,right,Target,0,21,21,21,1085.6370444938912,1087.6389965712733,right,1,2,0.685657476344204,D08E08,2022-11-24_10h52.59.157,t1_Paradigm,2021.1.4,60.01501726997434,
Q,left,Distractor,0,22,22,22,1089.1370887645044,1091.1386507472107,left,1,2,0.7060466599414212,D08E08,2022-11-24_10h52.59.157,t1_Paradigm,2021.1.4,60.01501726997434,
D,left,Distractor,0,23,23,23,1092.6368401433083,1094.639146706395,left,1,2,0.6616182128018409,D08E08,2022-11-24_10h52.59.157,t1_Paradigm,2021.1.4,60.01501726997434,
F,left,Distractor,0,24,24,24,1096.1370252457982,1098.1396962394356,left,1,2,0.8570485873169673,D08E08,2022-11-24_10h52.59.157,t1_Paradigm,2021.1.4,60.01501726997434,
Z,left,Distractor,0,25,25,25,1099.6370967845414,1101.6390655436044,left,1,2,0.6376065381937224,D08E08,2022-11-24_10h52.59.157,t1_Paradigm,2021.1.4,60.01501726997434,
P,left,Distractor,0,26,26,26,1103.136844313729,1105.1371304687036,left,1,2,0.7716460840401851,D08E08,2022-11-24_10h52.59.157,t1_Paradigm,2021.1.4,60.01501726997434,
H,left,Distractor,0,27,27,27,1106.6371442631698,1108.63656168757,left,1,2,0.7281681718686741,D08E08,2022-11-24_10h52.59.157,t1_Paradigm,2021.1.4,60.01501726997434,
Z,left,Pretarget,0,28,28,28,1110.1372475612661,1112.1383485521583,left,1,2,0.5223245793022215,D08E08,2022-11-24_10h52.59.157,t1_Paradigm,2021.1.4,60.01501726997434,
J,left,Pretarget,0,29,29,29,1113.6369498574368,1115.637922848513,left,1,2,0.6547129596128798,D08E08,2022-11-24_10h52.59.157,t1_Paradigm,2021.1.4,60.01501726997434,
Z,right,Target,0,30,30,30,1117.1368972459823,1119.1378102471717,right,1,2,0.7867625734961621,D08E08,2022-11-24_10h52.59.157,t1_Paradigm,2021.1.4,60.01501726997434,
J,right,Target,0,31,31,31,1120.636870940256,1122.6393911571704,right,1,2,0.917159417835137,D08E08,2022-11-24_10h52.59.157,t1_Paradigm,2021.1.4,60.01501726997434,
V,left,Pretarget,0,32,32,32,1124.137099030153,1126.137804151942,left,1,2,0.6026141476049816,D08E08,2022-11-24_10h52.59.157,t1_Paradigm,2021.1.4,60.01501726997434,
Z,left,Lure,0,33,33,33,1127.6367907398708,1129.6386218750722,left,1,2,0.6060585937611904,D08E08,2022-11-24_10h52.59.157,t1_Paradigm,2021.1.4,60.01501726997434,
V,right,Target,0,34,34,34,1131.137063100381,1133.1394357485842,right,1,2,0.833026647058432,D08E08,2022-11-24_10h52.59.157,t1_Paradigm,2021.1.4,60.01501726997434,
X,left,Distractor,0,35,35,35,1134.6368391809046,1136.637010809729,left,1,2,0.6317531932581915,D08E08,2022-11-24_10h52.59.157,t1_Paradigm,2021.1.4,60.01501726997434,
S,left,Distractor,0,36,36,36,1138.1372058570669,1140.1390462955114,left,1,2,0.7616370759315032,D08E08,2022-11-24_10h52.59.157,t1_Paradigm,2021.1.4,60.01501726997434,
Q,left,Distractor,0,37,37,37,1141.6370034312931,1143.639019348182,left,1,2,0.6056691406884056,D08E08,2022-11-24_10h52.59.157,t1_Paradigm,2021.1.4,60.01501726997434,
P,left,Distractor,0,38,38,38,1145.1371529248117,1147.137460573491,left,1,2,0.6112571827452484,D08E08,2022-11-24_10h52.59.157,t1_Paradigm,2021.1.4,60.01501726997434,
S,left,Lure,0,39,39,39,1148.636992203239,1150.63761648304,left,1,2,1.0954891453584423,D08E08,2022-11-24_10h52.59.157,t1_Paradigm,2021.1.4,60.01501726997434,
K,left,Pretarget,0,40,40,40,1152.1370974261445,1154.1376280318946,left,1,2,0.6026882527603448,D08E08,2022-11-24_10h52.59.157,t1_Paradigm,2021.1.4,60.01501726997434,
L,left,Distractor,0,41,41,41,1155.636825707239,1157.6388887819558,left,1,2,0.5577112349819799,D08E08,2022-11-24_10h52.59.157,t1_Paradigm,2021.1.4,60.01501726997434,
K,right,Target,0,42,42,42,1159.1368295568573,1161.1390799796736,right,1,2,0.8174251056716457,D08E08,2022-11-24_10h52.59.157,t1_Paradigm,2021.1.4,60.01501726997434,
B,left,Distractor,0,43,43,43,1162.6370887645044,1164.6388711378695,left,1,2,0.613774191644552,D08E08,2022-11-24_10h52.59.157,t1_Paradigm,2021.1.4,60.01501726997434,
N,left,Distractor,0,44,44,44,1166.1367230507458,1168.139546104314,left,1,2,0.8570967075502267,D08E08,2022-11-24_10h52.59.157,t1_Paradigm,2021.1.4,60.01501726997434,
S,left,Pretarget,0,45,45,45,1169.637059250761,1171.6382449332614,left,1,2,0.6223495376616484,D08E08,2022-11-24_10h52.59.157,t1_Paradigm,2021.1.4,60.01501726997434,
Z,left,Distractor,0,46,46,46,1173.1370496267155,1175.1384261861313,left,1,2,0.6101517006336508,D08E08,2022-11-24_10h52.59.157,t1_Paradigm,2021.1.4,60.01501726997434,
S,right,Target,0,47,47,47,1176.637000223278,1178.6387909374844,right,1,2,0.901663740956792,D08E08,2022-11-24_10h52.59.157,t1_Paradigm,2021.1.4,60.01501726997434,
C,left,Distractor,0,48,48,48,1180.1369071908302,1182.1393680594592,left,1,2,0.6330822740455915,D08E08,2022-11-24_10h52.59.157,t1_Paradigm,2021.1.4,60.01501726997434,
T,left,Pretarget,0,49,49,49,1183.6368991707914,1185.6392522501028,left,1,2,0.8939401230327348,D08E08,2022-11-24_10h52.59.157,t1_Paradigm,2021.1.4,60.01501726997434,
S,left,Lure,0,50,50,50,1187.1367493564721,1189.1383488729607,left,1,2,0.8180939768863027,D08E08,2022-11-24_10h52.59.157,t1_Paradigm,2021.1.4,60.01501726997434,
T,right,Target,0,51,51,51,1190.6367856070465,1192.639568560422,right,1,2,0.8050367125288176,D08E08,2022-11-24_10h52.59.157,t1_Paradigm,2021.1.4,60.01501726997434,
N,left,Pretarget,0,52,52,52,1194.1367243339519,1196.139364851444,left,1,2,0.5371552345823147,D08E08,2022-11-24_10h52.59.157,t1_Paradigm,2021.1.4,60.01501726997434,
B,left,Distractor,0,53,53,53,1197.636724975555,1199.6388114687834,left,1,2,0.4938197582960129,D08E08,2022-11-24_10h52.59.157,t1_Paradigm,2021.1.4,60.01501726997434,
N,right,Target,0,54,54,54,1201.1367512812812,1203.138824300846,right,1,2,0.5938174485236232,D08E08,2022-11-24_10h52.59.157,t1_Paradigm,2021.1.4,60.01501726997434,
N,left,Lure,0,55,55,55,1204.636681025744,1206.6369774463692,left,1,2,0.9513552581938711,D08E08,2022-11-24_10h52.59.157,t1_Paradigm,2021.1.4,60.01501726997434,
X,left,Distractor,0,56,56,56,1208.1367496772746,1210.138089986116,left,1,2,0.5701448611434898,D08E08,2022-11-24_10h52.59.157,t1_Paradigm,2021.1.4,60.01501726997434,
W,left,Distractor,0,57,57,57,1211.653501612991,1213.6387973535166,left,1,2,0.52579116076231,D08E08,2022-11-24_10h52.59.157,t1_Paradigm,2021.1.4,60.01501726997434,
S,left,Distractor,0,58,58,58,1215.1369992608725,1217.1393452825487,left,1,2,0.6891471555172757,D08E08,2022-11-24_10h52.59.157,t1_Paradigm,2021.1.4,60.01501726997434,
L,left,Distractor,0,59,59,59,1218.6369893160263,1220.638549053123,left,1,2,0.790001706664043,D08E08,2022-11-24_10h52.59.157,t1_Paradigm,2021.1.4,60.01501726997434,
K,left,Pretarget,0,60,60,60,1222.1366332263133,1224.139000100091,left,1,2,0.5532973265690089,D08E08,2022-11-24_10h52.59.157,t1_Paradigm,2021.1.4,60.01501726997434,
V,left,Pretarget,0,61,61,61,1225.6371137870246,1227.6389866264253,left,1,2,0.5895851137811405,D08E08,2022-11-24_10h52.59.157,t1_Paradigm,2021.1.4,60.01501726997434,
K,right,Target,0,62,62,62,1229.1370393610669,1231.1369107196479,right,1,2,0.9316407202386472,D08E08,2022-11-24_10h52.59.157,t1_Paradigm,2021.1.4,60.01501726997434,
V,right,Target,0,63,63,63,1232.6369941280482,1234.6387357596195,right,1,2,0.8538447423179605,D08E08,2022-11-24_10h52.59.157,t1_Paradigm,2021.1.4,60.01501726997434,
R,left,Distractor,0,0,0,0,1343.544920235905,1345.537972636912,None,0,3,,D08E08,2022-11-24_10h52.59.157,t1_Paradigm,2021.1.4,60.01501726997434,
P,left,Lure,0,1,1,1,1347.0366178920012,1349.0375536700976,None,0,3,,D08E08,2022-11-24_10h52.59.157,t1_Paradigm,2021.1.4,60.01501726997434,
V,left,Distractor,0,2,2,2,1350.5364507543964,1352.5384060397955,None,0,3,,D08E08,2022-11-24_10h52.59.157,t1_Paradigm,2021.1.4,60.01501726997434,
P,left,Pretarget,0,3,3,3,1354.036681089905,1356.0374378607412,left,1,3,0.9589617835536046,D08E08,2022-11-24_10h52.59.157,t1_Paradigm,2021.1.4,60.01501726997434,
Z,left,Distractor,0,4,4,4,1357.5366323280705,1359.5367356261668,left,1,3,0.7874834145604837,D08E08,2022-11-24_10h52.59.157,t1_Paradigm,2021.1.4,60.01501726997434,
L,left,Pretarget,0,5,5,5,1361.0364205990518,1363.0384929770134,left,1,3,0.6299114716057375,D08E08,2022-11-24_10h52.59.157,t1_Paradigm,2021.1.4,60.01501726997434,
P,right,Target,0,6,6,6,1364.536590303067,1366.5387239541233,right,1,3,0.7296865255648299,D08E08,2022-11-24_10h52.59.157,t1_Paradigm,2021.1.4,60.01501726997434,
S,left,Distractor,0,7,7,7,1368.0366644082242,1370.0384291375067,left,1,3,0.9578155596445868,D08E08,2022-11-24_10h52.59.157,t1_Paradigm,2021.1.4,60.01501726997434,
L,right,Target,0,8,8,8,1371.5363942933254,1373.538246601429,left,0,3,1.0579322672456328,D08E08,2022-11-24_10h52.59.157,t1_Paradigm,2021.1.4,60.01501726997434,
D,left,Distractor,0,9,9,9,1375.0367725183442,1377.0375770886112,left,1,3,1.4627892667504057,D08E08,2022-11-24_10h52.59.157,t1_Paradigm,2021.1.4,60.01501726997434,
G,left,Distractor,0,10,10,10,1378.5366159671903,1380.5386636434323,left,1,3,0.8095850367899402,D08E08,2022-11-24_10h52.59.157,t1_Paradigm,2021.1.4,60.01501726997434,
M,left,Pretarget,0,11,11,11,1382.0366644082242,1384.036485400964,left,1,3,0.8478775128387497,D08E08,2022-11-24_10h52.59.157,t1_Paradigm,2021.1.4,60.01501726997434,
Y,left,Distractor,0,12,12,12,1385.5366913555536,1387.5377596246872,left,1,3,0.6586055655225209,D08E08,2022-11-24_10h52.59.157,t1_Paradigm,2021.1.4,60.01501726997434,
V,left,Distractor,0,13,13,13,1389.0366515761616,1391.0388721644358,left,1,3,0.9814130794638913,D08E08,2022-11-24_10h52.59.157,t1_Paradigm,2021.1.4,60.01501726997434,
M,right,Target,0,14,14,14,1392.5365919070755,1394.5356214824114,left,0,3,1.2447208898265671,D08E08,2022-11-24_10h52.59.157,t1_Paradigm,2021.1.4,60.01501726997434,
S,left,Pretarget,0,15,15,15,1396.0363073561075,1398.038631242478,left,1,3,1.294106362392995,D08E08,2022-11-24_10h52.59.157,t1_Paradigm,2021.1.4,60.01501726997434,
Q,left,Distractor,0,16,16,16,1399.5364234862664,1401.5374827729574,left,1,3,0.8186601916095242,D08E08,2022-11-24_10h52.59.157,t1_Paradigm,2021.1.4,60.01501726997434,
R,left,Pretarget,0,17,17,17,1403.0368440570874,1405.0376550433848,left,1,3,0.7745769269258744,D08E08,2022-11-24_10h52.59.157,t1_Paradigm,2021.1.4,60.01501726997434,
S,right,Target,0,18,18,18,1406.5363683084015,1408.537211695655,right,1,3,1.402954004757703,D08E08,2022-11-24_10h52.59.157,t1_Paradigm,2021.1.4,60.01501726997434,
F,left,Distractor,0,19,19,19,1410.0362563486633,1412.038217408488,left,1,3,1.0060262569641054,D08E08,2022-11-24_10h52.59.157,t1_Paradigm,2021.1.4,60.01501726997434,
R,right,Target,0,20,20,20,1413.5365675261583,1415.5374288782987,None,0,3,,D08E08,2022-11-24_10h52.59.157,t1_Paradigm,2021.1.4,60.01501726997434,
P,left,Distractor,0,21,21,21,1417.0363602883626,1419.0379630128664,left,1,3,1.1424054084582167,D08E08,2022-11-24_10h52.59.157,t1_Paradigm,2021.1.4,60.01501726997434,
L,left,Distractor,0,22,22,22,1420.5365447492495,1422.5388375178682,left,1,3,1.2893742188480246,D08E08,2022-11-24_10h52.59.157,t1_Paradigm,2021.1.4,60.01501726997434,
R,right,Target,0,23,23,23,1424.0363529099268,1426.0373720964253,right,1,3,1.2148626071139006,D08E08,2022-11-24_10h52.59.157,t1_Paradigm,2021.1.4,60.01501726997434,
H,left,Pretarget,0,24,24,24,1427.5362399877831,1429.5381946315792,left,1,3,1.10606853860736,D08E08,2022-11-24_10h52.59.157,t1_Paradigm,2021.1.4,60.01501726997434,
G,left,Pretarget,0,25,25,25,1431.0363015816802,1433.036807806513,left,1,3,1.3352802778917976,D08E08,2022-11-24_10h52.59.157,t1_Paradigm,2021.1.4,60.01501726997434,
T,left,Distractor,0,26,26,26,1434.536661841812,1436.5383033833023,None,0,3,,D08E08,2022-11-24_10h52.59.157,t1_Paradigm,2021.1.4,60.01501726997434,
H,right,Target,0,27,27,27,1438.0365251803541,1440.0375729181906,left,0,3,1.1990852664839622,D08E08,2022-11-24_10h52.59.157,t1_Paradigm,2021.1.4,60.01501726997434,
G,right,Target,0,28,28,28,1441.5365681677613,1443.538279002385,right,1,3,0.6258632769495307,D08E08,2022-11-24_10h52.59.157,t1_Paradigm,2021.1.4,60.01501726997434,
D,left,Distractor,0,29,29,29,1445.036579716616,1447.03842368388,left,1,3,0.7737251988328353,D08E08,2022-11-24_10h52.59.157,t1_Paradigm,2021.1.4,60.01501726997434,
N,left,Pretarget,0,30,30,30,1448.5362848999994,1450.537227094128,None,0,3,,D08E08,2022-11-24_10h52.59.157,t1_Paradigm,2021.1.4,60.01501726997434,
V,left,Distractor,0,31,31,31,1452.036600889518,1454.0385674029712,left,1,3,0.797584492711394,D08E08,2022-11-24_10h52.59.157,t1_Paradigm,2021.1.4,60.01501726997434,
R,left,Distractor,0,32,32,32,1455.536592227876,1457.5355226755364,left,1,3,0.9487574073064025,D08E08,2022-11-24_10h52.59.157,t1_Paradigm,2021.1.4,60.01501726997434,
N,right,Target,0,33,33,33,1459.0364594160383,1461.038384546091,left,0,3,1.1418812187384901,D08E08,2022-11-24_10h52.59.157,t1_Paradigm,2021.1.4,60.01501726997434,
Z,left,Distractor,0,34,34,34,1462.536592869481,1464.538481428157,left,1,3,0.809574129538305,D08E08,2022-11-24_10h52.59.157,t1_Paradigm,2021.1.4,60.01501726997434,
N,left,Lure,0,35,35,35,1466.0362390253795,1468.0387954928665,right,0,3,0.7970882127247023,D08E08,2022-11-24_10h52.59.157,t1_Paradigm,2021.1.4,60.01501726997434,
Y,left,Pretarget,0,36,36,36,1469.5364969498187,1471.5384679544932,left,1,3,0.721715890456835,D08E08,2022-11-24_10h52.59.157,t1_Paradigm,2021.1.4,60.01501726997434,
Y,left,Lure,0,37,37,37,1473.036493421003,1475.036534483599,left,1,3,1.096053756071342,D08E08,2022-11-24_10h52.59.157,t1_Paradigm,2021.1.4,60.01501726997434,
B,left,Distractor,0,38,38,38,1476.5364844385585,1478.538622580836,left,1,3,1.1138418807695416,D08E08,2022-11-24_10h52.59.157,t1_Paradigm,2021.1.4,60.01501726997434,
Y,right,Target,0,39,39,39,1480.0365178019201,1482.0384095686113,right,1,3,1.0696363907009072,D08E08,2022-11-24_10h52.59.157,t1_Paradigm,2021.1.4,60.01501726997434,
J,left,Distractor,0,40,40,40,1483.5361982835839,1485.5379928474085,left,1,3,0.7700687028591346,D08E08,2022-11-24_10h52.59.157,t1_Paradigm,2021.1.4,60.01501726997434,
X,left,Distractor,0,41,41,41,1487.0363352658424,1489.0364911753913,left,1,3,0.6156707703612483,D08E08,2022-11-24_10h52.59.157,t1_Paradigm,2021.1.4,60.01501726997434,
W,left,Pretarget,0,42,42,42,1490.5360856822426,1492.5373194849726,left,1,3,0.7788779131988122,D08E08,2022-11-24_10h52.59.157,t1_Paradigm,2021.1.4,60.01501726997434,
S,left,Pretarget,0,43,43,43,1494.0365267843626,1496.0383803756722,left,1,3,1.3578114533847838,D08E08,2022-11-24_10h52.59.157,t1_Paradigm,2021.1.4,60.01501726997434,
R,left,Distractor,0,44,44,44,1497.5362249101108,1499.5383107617363,left,1,3,1.3140461030325241,D08E08,2022-11-24_10h52.59.157,t1_Paradigm,2021.1.4,60.01501726997434,
W,right,Target,0,45,45,45,1501.036495345812,1503.037199825998,right,1,3,0.8708648681240447,D08E08,2022-11-24_10h52.59.157,t1_Paradigm,2021.1.4,60.01501726997434,
S,right,Target,0,46,46,46,1504.5365315963863,1506.5367128492562,right,1,3,1.4192301917883015,D08E08,2022-11-24_10h52.59.157,t1_Paradigm,2021.1.4,60.01501726997434,
D,left,Distractor,0,47,47,47,1508.0362646895028,1510.0390521340996,None,0,3,,D08E08,2022-11-24_10h52.59.157,t1_Paradigm,2021.1.4,60.01501726997434,
T,left,Distractor,0,48,48,48,1511.53637857405,1513.5375061914692,left,1,3,0.9307302854613226,D08E08,2022-11-24_10h52.59.157,t1_Paradigm,2021.1.4,60.01501726997434,
S,right,Target,0,49,49,49,1515.036102684724,1517.0371237960317,right,1,3,0.8708834746157663,D08E08,2022-11-24_10h52.59.157,t1_Paradigm,2021.1.4,60.01501726997434,
K,left,Distractor,0,50,50,50,1518.536418353442,1520.538621939233,left,1,3,0.729591889110452,D08E08,2022-11-24_10h52.59.157,t1_Paradigm,2021.1.4,60.01501726997434,
S,left,Lure,0,51,51,51,1522.03612257442,1524.049120490492,left,1,3,0.978991348623822,D08E08,2022-11-24_10h52.59.157,t1_Paradigm,2021.1.4,60.01501726997434,
T,left,Pretarget,0,52,52,52,1525.5364382431362,1527.5387861896215,left,1,3,1.3453819976439263,D08E08,2022-11-24_10h52.59.157,t1_Paradigm,2021.1.4,60.01501726997434,
V,left,Distractor,0,53,53,53,1529.0362720679386,1531.037992526608,left,1,3,1.2539821095397201,D08E08,2022-11-24_10h52.59.157,t1_Paradigm,2021.1.4,60.01501726997434,
B,left,Distractor,0,54,54,54,1532.5361540129707,1534.5377865720184,left,1,3,0.9701869503060152,D08E08,2022-11-24_10h52.59.157,t1_Paradigm,2021.1.4,60.01501726997434,
T,right,Target,0,55,55,55,1536.0361235368237,1538.0370622021364,right,1,3,1.0070541051045439,D08E08,2022-11-24_10h52.59.157,t1_Paradigm,2021.1.4,60.01501726997434,
Y,left,Pretarget,0,56,56,56,1539.536144388925,1541.5367744431533,left,1,3,0.8511439141384471,D08E08,2022-11-24_10h52.59.157,t1_Paradigm,2021.1.4,60.01501726997434,
T,left,Lure,0,57,57,57,1543.0364645488626,1545.0380592533274,None,0,3,,D08E08,2022-11-24_10h52.59.157,t1_Paradigm,2021.1.4,60.01501726997434,
P,left,Pretarget,0,58,58,58,1546.5360471860567,1548.5366018519235,None,0,3,,D08E08,2022-11-24_10h52.59.157,t1_Paradigm,2021.1.4,60.01501726997434,
Y,right,Target,0,59,59,59,1550.036297732062,1552.0382494886417,left,0,3,1.0537640928123437,D08E08,2022-11-24_10h52.59.157,t1_Paradigm,2021.1.4,60.01501726997434,
R,left,Distractor,0,60,60,60,1553.536158504192,1555.538160305814,left,1,3,0.898329650530286,D08E08,2022-11-24_10h52.59.157,t1_Paradigm,2021.1.4,60.01501726997434,
P,right,Target,0,61,61,61,1557.0363804988592,1559.0372614198932,right,1,3,0.8867009154400876,D08E08,2022-11-24_10h52.59.157,t1_Paradigm,2021.1.4,60.01501726997434,
L,left,Distractor,0,62,62,62,1560.536507215469,1562.5489748465934,left,1,3,0.6873926918833604,D08E08,2022-11-24_10h52.59.157,t1_Paradigm,2021.1.4,60.01501726997434,
V,left,Distractor,0,63,63,63,1564.0364837969555,1566.0370480868678,left,1,3,0.6229600229962671,D08E08,2022-11-24_10h52.59.157,t1_Paradigm,2021.1.4,60.01501726997434,
H,left,Lure,0,0,0,0,1585.8968526802328,1587.8869687847273,None,0,3,,D08E08,2022-11-24_10h52.59.157,t1_Paradigm,2021.1.4,60.01501726997434,
B,left,Distractor,0,1,1,1,1589.3863015175193,1591.3876049341852,None,0,3,,D08E08,2022-11-24_10h52.59.157,t1_Paradigm,2021.1.4,60.01501726997434,
T,left,Distractor,0,2,2,2,1592.8863384096967,1594.8863342392779,None,0,3,,D08E08,2022-11-24_10h52.59.157,t1_Paradigm,2021.1.4,60.01501726997434,
R,left,Distractor,0,3,3,3,1596.386072144418,1598.3992189124056,left,1,3,0.8688348359683005,D08E08,2022-11-24_10h52.59.157,t1_Paradigm,2021.1.4,60.01501726997434,
H,left,Pretarget,0,4,4,4,1599.8863419385143,1601.887405395626,left,1,3,0.7725735212989093,D08E08,2022-11-24_10h52.59.157,t1_Paradigm,2021.1.4,60.01501726997434,
K,left,Distractor,0,5,5,5,1603.3863563745836,1605.3881547880264,left,1,3,0.6319212932648952,D08E08,2022-11-24_10h52.59.157,t1_Paradigm,2021.1.4,60.01501726997434,
G,left,Distractor,0,6,6,6,1606.8862476228605,1608.8878962219842,left,1,3,0.5560677686844429,D08E08,2022-11-24_10h52.59.157,t1_Paradigm,2021.1.4,60.01501726997434,
H,right,Target,0,7,7,7,1610.3858504705513,1612.38686741144,left,0,3,0.7210207135140081,D08E08,2022-11-24_10h52.59.157,t1_Paradigm,2021.1.4,60.01501726997434,
Y,left,Pretarget,0,8,8,8,1613.8863566953842,1615.8883039607445,left,1,3,0.6117425554784859,D08E08,2022-11-24_10h52.59.157,t1_Paradigm,2021.1.4,60.01501726997434,
S,left,Distractor,0,9,9,9,1617.38603108182,1619.3868950003725,left,1,3,0.952938734604686,D08E08,2022-11-24_10h52.59.157,t1_Paradigm,2021.1.4,60.01501726997434,
P,left,Distractor,0,10,10,10,1620.8861443247642,1622.8872308795872,left,1,3,1.2606490071830194,D08E08,2022-11-24_10h52.59.157,t1_Paradigm,2021.1.4,60.01501726997434,
Y,right,Target,0,11,11,11,1624.3862720037778,1626.3886067974,right,1,3,0.8151942517506541,D08E08,2022-11-24_10h52.59.157,t1_Paradigm,2021.1.4,60.01501726997434,
H,left,Lure,0,12,12,12,1627.8860220993774,1629.8877210643423,left,1,3,0.88398212237189,D08E08,2022-11-24_10h52.59.157,t1_Paradigm,2021.1.4,60.01501726997434,
Q,left,Distractor,0,13,13,13,1631.3862848358403,1633.386372735462,left,1,3,1.0976404404973437,D08E08,2022-11-24_10h52.59.157,t1_Paradigm,2021.1.4,60.01501726997434,
V,left,Pretarget,0,14,14,14,1634.8864667303133,1636.8884653239202,right,0,3,1.1795786079255777,D08E08,2022-11-24_10h52.59.157,t1_Paradigm,2021.1.4,60.01501726997434,
G,left,Distractor,0,15,15,15,1638.3861847457592,1640.388484572013,right,0,3,1.135383062704932,D08E08,2022-11-24_10h52.59.157,t1_Paradigm,2021.1.4,60.01501726997434,
Z,left,Pretarget,0,16,16,16,1641.886337447293,1643.886433687754,left,1,3,1.1415238458193926,D08E08,2022-11-24_10h52.59.157,t1_Paradigm,2021.1.4,60.01501726997434,
V,right,Target,0,17,17,17,1645.3862941390835,1647.3876870593795,right,1,3,1.0160923677467508,D08E08,2022-11-24_10h52.59.157,t1_Paradigm,2021.1.4,60.01501726997434,
N,left,Distractor,0,18,18,18,1648.8859672423132,1650.8868686946462,left,1,3,1.1009004257684865,D08E08,2022-11-24_10h52.59.157,t1_Paradigm,2021.1.4,60.01501726997434,
Z,right,Target,0,19,19,19,1652.3861347007187,1654.386876073082,right,1,3,0.8493506335198617,D08E08,2022-11-24_10h52.59.157,t1_Paradigm,2021.1.4,60.01501726997434,
R,left,Distractor,0,20,20,20,1655.886220033928,1657.8885156897613,left,1,3,0.7874028933729278,D08E08,2022-11-24_10h52.59.157,t1_Paradigm,2021.1.4,60.01501726997434,
P,left,Distractor,0,21,21,21,1659.3862007858352,1661.386736845212,left,1,3,0.793212930098889,D08E08,2022-11-24_10h52.59.157,t1_Paradigm,2021.1.4,60.01501726997434,
Z,right,Target,0,22,22,22,1662.8862501892727,1664.8881089134065,left,0,3,0.8595216464054829,D08E08,2022-11-24_10h52.59.157,t1_Paradigm,2021.1.4,60.01501726997434,
D,left,Pretarget,0,23,23,23,1666.3860095881173,1668.3882734845974,left,1,3,1.119536108139073,D08E08,2022-11-24_10h52.59.157,t1_Paradigm,2021.1.4,60.01501726997434,
K,left,Distractor,0,24,24,24,1669.886131813504,1671.8877021370517,left,1,3,1.0601124345248536,D08E08,2022-11-24_10h52.59.157,t1_Paradigm,2021.1.4,60.01501726997434,
W,left,Distractor,0,25,25,25,1673.386010550521,1675.3880457155028,left,1,3,1.063871907792418,D08E08,2022-11-24_10h52.59.157,t1_Paradigm,2021.1.4,60.01501726997434,
D,right,Target,0,26,26,26,1676.8862415276308,1678.8884816847985,right,1,3,1.3554218026984017,D08E08,2022-11-24_10h52.59.157,t1_Paradigm,2021.1.4,60.01501726997434,
G,left,Pretarget,0,27,27,27,1680.3864981688657,1682.3884563414758,left,1,3,0.7513438376590784,D08E08,2022-11-24_10h52.59.157,t1_Paradigm,2021.1.4,60.01501726997434,
V,left,Distractor,0,28,28,28,1683.8861465703758,1685.8879684023323,left,1,3,0.980016630352111,D08E08,2022-11-24_10h52.59.157,t1_Paradigm,2021.1.4,60.01501726997434,
D,right,Target,0,29,29,29,1687.3862421692338,1689.3882574445215,right,1,3,1.399411072528892,D08E08,2022-11-24_10h52.59.157,t1_Paradigm,2021.1.4,60.01501726997434,
G,right,Target,0,30,30,30,1690.885922330097,1692.8879841216076,left,0,3,1.4197627223475138,D08E08,2022-11-24_10h52.59.157,t1_Paradigm,2021.1.4,60.01501726997434,
B,left,Pretarget,0,31,31,31,1694.3860577083487,1696.3879943872562,left,1,3,0.8641511334553797,D08E08,2022-11-24_10h52.59.157,t1_Paradigm,2021.1.4,60.01501726997434,
N,left,Distractor,0,32,32,32,1697.885857207384,1699.8868439929265,left,1,3,1.236883066554583,D08E08,2022-11-24_10h52.59.157,t1_Paradigm,2021.1.4,60.01501726997434,
F,left,Distractor,0,33,33,33,1701.3858588113926,1703.387862537822,left,1,3,1.335755064174009,D08E08,2022-11-24_10h52.59.157,t1_Paradigm,2021.1.4,60.01501726997434,
B,right,Target,0,34,34,34,1704.8857744405868,1706.886786569452,None,0,3,,D08E08,2022-11-24_10h52.59.157,t1_Paradigm,2021.1.4,60.01501726997434,
Q,left,Pretarget,0,35,35,35,1708.3860419890716,1710.3877868286581,left,1,3,1.0720456102790195,D08E08,2022-11-24_10h52.59.157,t1_Paradigm,2021.1.4,60.01501726997434,
S,left,Pretarget,0,36,36,36,1711.8861648560633,1713.8863233320244,left,1,3,0.8532547882841754,D08E08,2022-11-24_10h52.59.157,t1_Paradigm,2021.1.4,60.01501726997434,
W,left,Distractor,0,37,37,37,1715.3859261797152,1717.386865486631,left,1,3,0.9208839237362554,D08E08,2022-11-24_10h52.59.157,t1_Paradigm,2021.1.4,60.01501726997434,
Q,right,Target,0,38,38,38,1718.8861446455649,1720.887676793729,right,1,3,1.0200549083911028,D08E08,2022-11-24_10h52.59.157,t1_Paradigm,2021.1.4,60.01501726997434,
S,right,Target,0,39,39,39,1722.3861260390768,1724.3882263267715,right,1,3,0.9277044853188272,D08E08,2022-11-24_10h52.59.157,t1_Paradigm,2021.1.4,60.01501726997434,
T,left,Distractor,0,40,40,40,1725.886148495185,1727.8874814255905,left,1,3,1.0923536310874624,D08E08,2022-11-24_10h52.59.157,t1_Paradigm,2021.1.4,60.01501726997434,
G,left,Distractor,0,41,41,41,1729.3858841547135,1731.3883710082664,left,1,3,0.9832932973004063,D08E08,2022-11-24_10h52.59.157,t1_Paradigm,2021.1.4,60.01501726997434,
D,left,Distractor,0,42,42,42,1732.886156515222,1734.8883366825012,left,1,3,1.1475369499221415,D08E08,2022-11-24_10h52.59.157,t1_Paradigm,2021.1.4,60.01501726997434,
S,left,Lure,0,43,43,43,1736.385727924362,1738.3876312399116,right,0,3,1.2962496374948387,D08E08,2022-11-24_10h52.59.157,t1_Paradigm,2021.1.4,60.01501726997434,
Z,left,Pretarget,0,44,44,44,1739.88576898696,1741.8857821398233,left,1,3,0.9503556405907148,D08E08,2022-11-24_10h52.59.157,t1_Paradigm,2021.1.4,60.01501726997434,
J,left,Distractor,0,45,45,45,1743.3860342898352,1745.4022710182762,left,1,3,0.9373711981806991,D08E08,2022-11-24_10h52.59.157,t1_Paradigm,2021.1.4,60.01501726997434,
M,left,Pretarget,0,46,46,46,1746.886161006445,1748.8885731132377,left,1,3,0.7795204786871182,D08E08,2022-11-24_10h52.59.157,t1_Paradigm,2021.1.4,60.01501726997434,
Z,right,Target,0,47,47,47,1750.3857709117692,1752.3867041234553,right,1,3,1.0889807236762863,D08E08,2022-11-24_10h52.59.157,t1_Paradigm,2021.1.4,60.01501726997434,
P,left,Distractor,0,48,48,48,1753.8860156833452,1755.8868789602948,left,1,3,1.1249021555304353,D08E08,2022-11-24_10h52.59.157,t1_Paradigm,2021.1.4,60.01501726997434,
M,right,Target,0,49,49,49,1757.3860451970886,1759.3873062679486,None,0,3,,D08E08,2022-11-24_10h52.59.157,t1_Paradigm,2021.1.4,60.01501726997434,
K,left,Distractor,0,50,50,50,1760.8860978085413,1762.8885439202968,None,0,3,,D08E08,2022-11-24_10h52.59.157,t1_Paradigm,2021.1.4,60.01501726997434,
Y,left,Distractor,0,51,51,51,1764.3855168369482,1766.3865661787913,left,1,3,1.2493401112278661,D08E08,2022-11-24_10h52.59.157,t1_Paradigm,2021.1.4,60.01501726997434,
X,left,Distractor,0,52,52,52,1767.8858754930716,1769.8879741767596,left,1,3,0.8355346735133935,D08E08,2022-11-24_10h52.59.157,t1_Paradigm,2021.1.4,60.01501726997434,
F,left,Pretarget,0,53,53,53,1771.386071502815,1773.386617507038,left,1,3,0.8091728068066004,D08E08,2022-11-24_10h52.59.157,t1_Paradigm,2021.1.4,60.01501726997434,
M,left,Lure,0,54,54,54,1774.8857702701662,1776.8876216158642,None,0,3,,D08E08,2022-11-24_10h52.59.157,t1_Paradigm,2021.1.4,60.01501726997434,
V,left,Distractor,0,55,55,55,1778.385639062335,1780.3874240021141,left,1,3,1.26452493141187,D08E08,2022-11-24_10h52.59.157,t1_Paradigm,2021.1.4,60.01501726997434,
F,right,Target,0,56,56,56,1781.8858331472693,1783.8885958901483,left,0,3,0.8188892439102347,D08E08,2022-11-24_10h52.59.157,t1_Paradigm,2021.1.4,60.01501726997434,
S,left,Distractor,0,57,57,57,1785.386071502815,1787.3881714697072,left,1,3,0.9354512009522296,D08E08,2022-11-24_10h52.59.157,t1_Paradigm,2021.1.4,60.01501726997434,
D,left,Distractor,0,58,58,58,1788.8860192121629,1790.8851293086864,left,1,3,0.6864235504253884,D08E08,2022-11-24_10h52.59.157,t1_Paradigm,2021.1.4,60.01501726997434,
F,right,Target,0,59,59,59,1792.3859479942203,1794.387325195239,right,1,3,0.9602228544154059,D08E08,2022-11-24_10h52.59.157,t1_Paradigm,2021.1.4,60.01501726997434,
V,left,Pretarget,0,60,60,60,1795.8859954728487,1797.8863271816426,left,1,3,0.8052664064325654,D08E08,2022-11-24_10h52.59.157,t1_Paradigm,2021.1.4,60.01501726997434,
J,left,Distractor,0,61,61,61,1799.3858716434534,1801.3868532961715,left,1,3,1.096954566803106,D08E08,2022-11-24_10h52.59.157,t1_Paradigm,2021.1.4,60.01501726997434,
V,left,Lure,0,62,62,62,1802.8858668314297,1804.886590238908,right,0,3,1.2930996871527896,D08E08,2022-11-24_10h52.59.157,t1_Paradigm,2021.1.4,60.01501726997434,
V,right,Target,0,63,63,63,1806.3860355730412,1808.3860358938437,left,0,3,1.31369995816749,D08E08,2022-11-24_10h52.59.157,t1_Paradigm,2021.1.4,60.01501726997434,
R,left,Distractor,0,0,0,0,1878.0786246083007,1880.0697659945236,None,0,4,,D08E08,2022-11-24_10h52.59.157,t1_Paradigm,2021.1.4,60.01501726997434,
F,left,Distractor,0,1,1,1,1881.5689306273089,1883.5706135521978,None,0,4,,D08E08,2022-11-24_10h52.59.157,t1_Paradigm,2021.1.4,60.01501726997434,
P,left,Pretarget,0,2,2,2,1885.0693277796163,1887.071008138093,None,0,4,,D08E08,2022-11-24_10h52.59.157,t1_Paradigm,2021.1.4,60.01501726997434,
H,left,Distractor,0,3,3,3,1888.5692424464069,1890.570694394186,None,0,4,,D08E08,2022-11-24_10h52.59.157,t1_Paradigm,2021.1.4,60.01501726997434,
Z,left,Distractor,0,4,4,4,1892.0688584469608,1894.0704897228024,left,1,4,1.1329632566739747,D08E08,2022-11-24_10h52.59.157,t1_Paradigm,2021.1.4,60.01501726997434,
T,left,Distractor,0,5,5,5,1895.569156150792,1897.5710623535542,left,1,4,1.0565451213788037,D08E08,2022-11-24_10h52.59.157,t1_Paradigm,2021.1.4,60.01501726997434,
P,right,Target,0,6,6,6,1899.0688982263528,1901.07001718213,right,1,4,1.269393415612285,D08E08,2022-11-24_10h52.59.157,t1_Paradigm,2021.1.4,60.01501726997434,
G,left,Distractor,0,7,7,7,1902.5688738454355,1904.5705173117349,left,1,4,1.320952960228169,D08E08,2022-11-24_10h52.59.157,t1_Paradigm,2021.1.4,60.01501726997434,
L,left,Distractor,0,8,8,8,1906.0689441009727,1908.071172067681,left,1,4,1.1322039194255922,D08E08,2022-11-24_10h52.59.157,t1_Paradigm,2021.1.4,60.01501726997434,
P,left,Lure,0,9,9,9,1909.569213895069,1911.5681462675384,left,1,4,1.171278188830911,D08E08,2022-11-24_10h52.59.157,t1_Paradigm,2021.1.4,60.01501726997434,
Q,left,Pretarget,0,10,10,10,1913.069304040304,1915.069659488412,left,1,4,0.7417634204120986,D08E08,2022-11-24_10h52.59.157,t1_Paradigm,2021.1.4,60.01501726997434,
D,left,Distractor,0,11,11,11,1916.5691975341906,1918.5696251626468,left,1,4,0.7139662876070361,D08E08,2022-11-24_10h52.59.157,t1_Paradigm,2021.1.4,60.01501726997434,
M,left,Pretarget,0,12,12,12,1920.0688173843646,1922.070863456598,left,1,4,0.8127478191909177,D08E08,2022-11-24_10h52.59.157,t1_Paradigm,2021.1.4,60.01501726997434,
C,left,Distractor,0,13,13,13,1923.5690409830386,1925.570381933483,left,1,4,0.8972074867378979,D08E08,2022-11-24_10h52.59.157,t1_Paradigm,2021.1.4,60.01501726997434,
Q,right,Target,0,14,14,14,1927.0688212339828,1929.0702581040878,right,1,4,0.917099748747205,D08E08,2022-11-24_10h52.59.157,t1_Paradigm,2021.1.4,60.01501726997434,
R,left,Distractor,0,15,15,15,1930.5688388780673,1932.570487477191,left,1,4,1.4168668468282704,D08E08,2022-11-24_10h52.59.157,t1_Paradigm,2021.1.4,60.01501726997434,
M,right,Target,0,16,16,16,1934.0689973540284,1936.0709000279749,right,1,4,0.7648678682598984,D08E08,2022-11-24_10h52.59.157,t1_Paradigm,2021.1.4,60.01501726997434,
S,left,Distractor,0,17,17,17,1937.5691385067075,1939.5816366139788,left,1,4,0.7737383516960108,D08E08,2022-11-24_10h52.59.157,t1_Paradigm,2021.1.4,60.01501726997434,
Z,left,Distractor,0,18,18,18,1941.068835670052,1943.0696335034863,left,1,4,1.1257484299985663,D08E08,2022-11-24_10h52.59.157,t1_Paradigm,2021.1.4,60.01501726997434,
L,left,Pretarget,0,19,19,19,1944.5688305372278,1946.5706793165136,left,1,4,1.1766968476749753,D08E08,2022-11-24_10h52.59.157,t1_Paradigm,2021.1.4,60.01501726997434,
M,right,Target,0,20,20,20,1948.069136261096,1950.0705724895997,left,0,4,1.4529111456722603,D08E08,2022-11-24_10h52.59.157,t1_Paradigm,2021.1.4,60.01501726997434,
P,left,Distractor,0,21,21,21,1951.5691721908697,1953.570354665353,left,1,4,1.4092603214703558,D08E08,2022-11-24_10h52.59.157,t1_Paradigm,2021.1.4,60.01501726997434,
F,left,Distractor,0,22,22,22,1955.0689540458206,1957.070457001044,None,0,4,,D08E08,2022-11-24_10h52.59.157,t1_Paradigm,2021.1.4,60.01501726997434,
L,right,Target,0,23,23,23,1958.5688853942902,1960.569499729243,left,0,4,1.3858742098655057,D08E08,2022-11-24_10h52.59.157,t1_Paradigm,2021.1.4,60.01501726997434,
L,left,Lure,0,24,24,24,1962.0688526725335,1964.0689819555555,left,1,4,1.3744395597059338,D08E08,2022-11-24_10h52.59.157,t1_Paradigm,2021.1.4,60.01501726997434,
V,left,Pretarget,0,25,25,25,1965.569097764912,1967.569751879255,left,1,4,1.313771817713132,D08E08,2022-11-24_10h52.59.157,t1_Paradigm,2021.1.4,60.01501726997434,
Z,left,Distractor,0,26,26,26,1969.0685055652648,1971.0696309370742,left,1,4,1.0138913483679062,D08E08,2022-11-24_10h52.59.157,t1_Paradigm,2021.1.4,60.01501726997434,
H,left,Distractor,0,27,27,27,1972.5687429584068,1974.5707437976234,left,1,4,0.8088189627069369,D08E08,2022-11-24_10h52.59.157,t1_Paradigm,2021.1.4,60.01501726997434,
X,left,Distractor,0,28,28,28,1976.0691609628157,1978.070265803326,left,1,4,1.0531086952614714,D08E08,2022-11-24_10h52.59.157,t1_Paradigm,2021.1.4,60.01501726997434,
V,right,Target,0,29,29,29,1979.569087178461,1981.5704332617297,None,0,4,,D08E08,2022-11-24_10h52.59.157,t1_Paradigm,2021.1.4,60.01501726997434,
C,left,Distractor,0,30,30,30,1983.0689935044102,1985.0698343252516,left,1,4,1.4615727873024298,D08E08,2022-11-24_10h52.59.157,t1_Paradigm,2021.1.4,60.01501726997434,
S,left,Pretarget,0,31,31,31,1986.568497545226,1988.5703703846284,left,1,4,1.1450802517138072,D08E08,2022-11-24_10h52.59.157,t1_Paradigm,2021.1.4,60.01501726997434,
D,left,Distractor,0,32,32,32,1990.0687182566871,1992.0701679588547,left,1,4,0.781254731822628,D08E08,2022-11-24_10h52.59.157,t1_Paradigm,2021.1.4,60.01501726997434,
V,left,Distractor,0,33,33,33,1993.5686832893189,1995.5853758767498,right,0,4,0.8981201671249437,D08E08,2022-11-24_10h52.59.157,t1_Paradigm,2021.1.4,60.01501726997434,
R,left,Distractor,0,34,34,34,1997.0687464872226,1999.0695151277178,left,1,4,0.8538588575884205,D08E08,2022-11-24_10h52.59.157,t1_Paradigm,2021.1.4,60.01501726997434,
S,right,Target,0,35,35,35,2000.5689466673848,2002.570557732728,right,1,4,0.6969330089377763,D08E08,2022-11-24_10h52.59.157,t1_Paradigm,2021.1.4,60.01501726997434,
Y,left,Distractor,0,36,36,36,2004.069032642199,2006.0818188292542,left,1,4,0.9615333287147223,D08E08,2022-11-24_10h52.59.157,t1_Paradigm,2021.1.4,60.01501726997434,
N,left,Pretarget,0,37,37,37,2007.568792682645,2009.5699369817448,right,0,4,1.2975238612179965,D08E08,2022-11-24_10h52.59.157,t1_Paradigm,2021.1.4,60.01501726997434,
Z,left,Pretarget,0,38,38,38,2011.0687663769186,2013.0704332617297,None,0,4,,D08E08,2022-11-24_10h52.59.157,t1_Paradigm,2021.1.4,60.01501726997434,
P,left,Pretarget,0,39,39,39,2014.5690271885724,2016.5689453841787,left,1,4,1.4183107745684538,D08E08,2022-11-24_10h52.59.157,t1_Paradigm,2021.1.4,60.01501726997434,
M,left,Distractor,0,40,40,40,2018.069000241243,2020.0693354788546,left,1,4,1.182130263390718,D08E08,2022-11-24_10h52.59.157,t1_Paradigm,2021.1.4,60.01501726997434,
N,right,Target,0,41,41,41,2021.56898099315,2023.5705169909324,left,0,4,1.008857651373546,D08E08,2022-11-24_10h52.59.157,t1_Paradigm,2021.1.4,60.01501726997434,
Z,right,Target,0,42,42,42,2025.0688077603172,2027.070312319549,right,1,4,0.965059900065171,D08E08,2022-11-24_10h52.59.157,t1_Paradigm,2021.1.4,60.01501726997434,
P,right,Target,0,43,43,43,2028.5687259559254,2030.569571267988,right,1,4,0.969812574907337,D08E08,2022-11-24_10h52.59.157,t1_Paradigm,2021.1.4,60.01501726997434,
X,left,Pretarget,0,44,44,44,2032.0686986877936,2034.0692684313326,left,1,4,1.0060807932277385,D08E08,2022-11-24_10h52.59.157,t1_Paradigm,2021.1.4,60.01501726997434,
Z,left,Lure,0,45,45,45,2035.5686762316855,2037.5695638895522,left,1,4,1.2495932236452063,D08E08,2022-11-24_10h52.59.157,t1_Paradigm,2021.1.4,60.01501726997434,
R,left,Pretarget,0,46,46,46,2039.0686528131737,2041.0706709756723,left,1,4,1.3968064848104405,D08E08,2022-11-24_10h52.59.157,t1_Paradigm,2021.1.4,60.01501726997434,
K,left,Distractor,0,47,47,47,2042.5690336046027,2044.569676811694,left,1,4,0.9056583617566503,D08E08,2022-11-24_10h52.59.157,t1_Paradigm,2021.1.4,60.01501726997434,
X,right,Target,0,48,48,48,2046.0690509278866,2048.0710780728296,right,1,4,1.0361793562933599,D08E08,2022-11-24_10h52.59.157,t1_Paradigm,2021.1.4,60.01501726997434,
B,left,Distractor,0,49,49,49,2049.5688154595555,2051.56954271665,left,1,4,0.866125025344445,D08E08,2022-11-24_10h52.59.157,t1_Paradigm,2021.1.4,60.01501726997434,
R,right,Target,0,50,50,50,2053.0689171536433,2055.0694541754237,right,1,4,1.1099409340204147,D08E08,2022-11-24_10h52.59.157,t1_Paradigm,2021.1.4,60.01501726997434,
Y,left,Pretarget,0,51,51,51,2056.5686345274844,2058.570028410184,left,1,4,1.0813924840040272,D08E08,2022-11-24_10h52.59.157,t1_Paradigm,2021.1.4,60.01501726997434,
W,left,Pretarget,0,52,52,52,2060.069059910329,2062.0704082392094,left,1,4,0.8129544153835013,D08E08,2022-11-24_10h52.59.157,t1_Paradigm,2021.1.4,60.01501726997434,
Z,left,Distractor,0,53,53,53,2063.5687968530656,2065.570358194169,left,1,4,1.1689032950162073,D08E08,2022-11-24_10h52.59.157,t1_Paradigm,2021.1.4,60.01501726997434,
Q,left,Distractor,0,54,54,54,2067.068863579785,2069.070661672429,left,1,4,0.6286953129620088,D08E08,2022-11-24_10h52.59.157,t1_Paradigm,2021.1.4,60.01501726997434,
Y,right,Target,0,55,55,55,2070.5684869587767,2072.5688074395166,left,0,4,0.7145726025210024,D08E08,2022-11-24_10h52.59.157,t1_Paradigm,2021.1.4,60.01501726997434,
W,right,Target,0,56,56,56,2074.068947950591,2076.070541051049,left,0,4,1.3409437083118974,D08E08,2022-11-24_10h52.59.157,t1_Paradigm,2021.1.4,60.01501726997434,
H,left,Pretarget,0,57,57,57,2077.5688693542143,2079.570201643017,left,1,4,1.3292383016523672,D08E08,2022-11-24_10h52.59.157,t1_Paradigm,2021.1.4,60.01501726997434,
M,left,Distractor,0,58,58,58,2081.0688760910452,2083.0692851130116,left,1,4,1.4459953060322732,D08E08,2022-11-24_10h52.59.157,t1_Paradigm,2021.1.4,60.01501726997434,
R,left,Pretarget,0,59,59,59,2084.568716331878,2086.5705721687973,left,1,4,1.016575494868448,D08E08,2022-11-24_10h52.59.157,t1_Paradigm,2021.1.4,60.01501726997434,
J,left,Distractor,0,60,60,60,2088.068837915662,2090.070676429299,left,1,4,0.9406626220006729,D08E08,2022-11-24_10h52.59.157,t1_Paradigm,2021.1.4,60.01501726997434,
H,right,Target,0,61,61,61,2091.5689155496366,2093.57027927699,None,0,4,,D08E08,2022-11-24_10h52.59.157,t1_Paradigm,2021.1.4,60.01501726997434,
Z,left,Distractor,0,62,62,62,2095.0685238509523,2097.0702070966436,left,1,4,0.836976997246893,D08E08,2022-11-24_10h52.59.157,t1_Paradigm,2021.1.4,60.01501726997434,
R,right,Target,0,63,63,63,2098.5684750891196,2100.5707181335,right,1,4,0.9684257498411171,D08E08,2022-11-24_10h52.59.157,t1_Paradigm,2021.1.4,60.01501726997434,
J,left,Pretarget,0,0,0,0,2129.4780716106034,2131.4697541890273,None,0,4,,D08E08,2022-11-24_10h52.59.157,t1_Paradigm,2021.1.4,60.01501726997434,
G,left,Pretarget,0,1,1,1,2132.9686820702736,2134.9695126254665,None,0,4,,D08E08,2022-11-24_10h52.59.157,t1_Paradigm,2021.1.4,60.01501726997434,
Z,left,Distractor,0,2,2,2,2136.4685396343884,2138.470090709845,None,0,4,,D08E08,2022-11-24_10h52.59.157,t1_Paradigm,2021.1.4,60.01501726997434,
F,left,Distractor,0,3,3,3,2139.9687577794375,2141.970515771887,None,0,4,,D08E08,2022-11-24_10h52.59.157,t1_Paradigm,2021.1.4,60.01501726997434,
J,right,Target,0,4,4,4,2143.468738210544,2145.4705937266626,right,1,4,1.0446918252055184,D08E08,2022-11-24_10h52.59.157,t1_Paradigm,2021.1.4,60.01501726997434,
G,right,Target,0,5,5,5,2146.968433128277,2148.969059332887,right,1,4,1.3060866959749546,D08E08,2022-11-24_10h52.59.157,t1_Paradigm,2021.1.4,60.01501726997434,
H,left,Distractor,0,6,6,6,2150.4688180901267,2152.469586089019,left,1,4,0.989390451406507,D08E08,2022-11-24_10h52.59.157,t1_Paradigm,2021.1.4,60.01501726997434,
P,left,Distractor,0,7,7,7,2153.9684433939256,2155.969473808478,left,1,4,0.7693805835515377,D08E08,2022-11-24_10h52.59.157,t1_Paradigm,2021.1.4,60.01501726997434,
G,left,Lure,0,8,8,8,2157.4687869723784,2159.469901757737,left,1,4,0.9011055462742661,D08E08,2022-11-24_10h52.59.157,t1_Paradigm,2021.1.4,60.01501726997434,
S,left,Distractor,0,9,9,9,2160.9685110830524,2162.970226729698,left,1,4,0.8086325770109397,D08E08,2022-11-24_10h52.59.157,t1_Paradigm,2021.1.4,60.01501726997434,
R,left,Pretarget,0,10,10,10,2164.4684950429746,2166.4704413459294,left,1,4,1.2765694253030233,D08E08,2022-11-24_10h52.59.157,t1_Paradigm,2021.1.4,60.01501726997434,
T,left,Pretarget,0,11,11,11,2167.968441789919,2169.9812475458675,left,1,4,0.9020294547153753,D08E08,2022-11-24_10h52.59.157,t1_Paradigm,2021.1.4,60.01501726997434,
X,left,Distractor,0,12,12,12,2171.4687657994764,2173.469665006198,None,0,4,,D08E08,2022-11-24_10h52.59.157,t1_Paradigm,2021.1.4,60.01501726997434,
F,left,Pretarget,0,13,13,13,2174.9687446265743,2176.9685794137804,left,1,4,1.0826548380719032,D08E08,2022-11-24_10h52.59.157,t1_Paradigm,2021.1.4,60.01501726997434,
R,right,Target,0,14,14,14,2178.468619513973,2180.469768304294,right,1,4,1.3254095352494915,D08E08,2022-11-24_10h52.59.157,t1_Paradigm,2021.1.4,60.01501726997434,
T,right,Target,0,15,15,15,2181.9684812485084,2183.97111150035,right,1,4,1.0560578238346352,D08E08,2022-11-24_10h52.59.157,t1_Paradigm,2021.1.4,60.01501726997434,
C,left,Distractor,0,16,16,16,2185.468498571792,2187.4690558040693,None,0,4,,D08E08,2022-11-24_10h52.59.157,t1_Paradigm,2021.1.4,60.01501726997434,
F,right,Target,0,17,17,17,2188.968510120647,2190.971095781075,right,1,4,1.2560686027682095,D08E08,2022-11-24_10h52.59.157,t1_Paradigm,2021.1.4,60.01501726997434,
M,left,Distractor,0,18,18,18,2192.468707734397,2194.4705574760883,left,1,4,1.0524796034387691,D08E08,2022-11-24_10h52.59.157,t1_Paradigm,2021.1.4,60.01501726997434,
N,left,Distractor,0,19,19,19,2195.9687022807702,2197.9681241963917,left,1,4,0.8507509322480473,D08E08,2022-11-24_10h52.59.157,t1_Paradigm,2021.1.4,60.01501726997434,
R,left,Lure,0,20,20,20,2199.4685575992753,2201.4701150907604,left,1,4,0.9651702557930548,D08E08,2022-11-24_10h52.59.157,t1_Paradigm,2021.1.4,60.01501726997434,
F,right,Target,0,21,21,21,2202.9687067719915,2204.9702799827537,None,0,4,,D08E08,2022-11-24_10h52.59.157,t1_Paradigm,2021.1.4,60.01501726997434,
P,left,Distractor,0,22,22,22,2206.4685880754223,2208.470523150323,left,1,4,1.4045410099843139,D08E08,2022-11-24_10h52.59.157,t1_Paradigm,2021.1.4,60.01501726997434,
L,left,Pretarget,0,23,23,23,2209.968751363407,2211.969612394745,left,1,4,0.8973329201398883,D08E08,2022-11-24_10h52.59.157,t1_Paradigm,2021.1.4,60.01501726997434,
T,left,Distractor,0,24,24,24,2213.4686371580574,2215.4699171562097,left,1,4,1.1732267373972718,D08E08,2022-11-24_10h52.59.157,t1_Paradigm,2021.1.4,60.01501726997434,
F,left,Distractor,0,25,25,25,2216.968686561495,2218.9705452856288,right,0,4,0.8082434447405831,D08E08,2022-11-24_10h52.59.157,t1_Paradigm,2021.1.4,60.01501726997434,
V,left,Distractor,0,26,26,26,2220.468807182875,2222.470718839264,left,1,4,1.0522595335805818,D08E08,2022-11-24_10h52.59.157,t1_Paradigm,2021.1.4,60.01501726997434,
L,right,Target,0,27,27,27,2223.9685097998463,2225.9700457976287,left,0,4,0.9130733685960877,D08E08,2022-11-24_10h52.59.157,t1_Paradigm,2021.1.4,60.01501726997434,
S,left,Pretarget,0,28,28,28,2227.468611493934,2229.470444233144,left,1,4,1.2685978277895629,D08E08,2022-11-24_10h52.59.157,t1_Paradigm,2021.1.4,60.01501726997434,
W,left,Distractor,0,29,29,29,2230.9686621805777,2232.9701474917165,left,1,4,1.2569549774270854,D08E08,2022-11-24_10h52.59.157,t1_Paradigm,2021.1.4,60.01501726997434,
Q,left,Distractor,0,30,30,30,2234.4686583309594,2236.4696152819597,None,0,4,,D08E08,2022-11-24_10h52.59.157,t1_Paradigm,2021.1.4,60.01501726997434,
L,right,Target,0,31,31,31,2237.9686490277145,2239.96998580774,None,0,4,,D08E08,2022-11-24_10h52.59.157,t1_Paradigm,2021.1.4,60.01501726997434,
S,right,Target,0,32,32,32,2241.4683433038444,2243.469016024679,left,0,4,1.0300677661161899,D08E08,2022-11-24_10h52.59.157,t1_Paradigm,2021.1.4,60.01501726997434,
Z,left,Pretarget,0,33,33,33,2244.968402010527,2246.9704971653973,left,1,4,0.824227060764315,D08E08,2022-11-24_10h52.59.157,t1_Paradigm,2021.1.4,60.01501726997434,
F,left,Distractor,0,34,34,34,2248.468316998118,2250.470019812703,left,1,4,0.9410764559906966,D08E08,2022-11-24_10h52.59.157,t1_Paradigm,2021.1.4,60.01501726997434,
V,left,Distractor,0,35,35,35,2251.968737568941,2253.9701779678635,left,1,4,0.7847011027879489,D08E08,2022-11-24_10h52.59.157,t1_Paradigm,2021.1.4,60.01501726997434,
M,left,Distractor,0,36,36,36,2255.468599624277,2257.470196895154,left,1,4,0.8048641212990333,D08E08,2022-11-24_10h52.59.157,t1_Paradigm,2021.1.4,60.01501726997434,
Z,right,Target,0,37,37,37,2258.968620797179,2260.9695379687873,right,1,4,0.9853659960626828,D08E08,2022-11-24_10h52.59.157,t1_Paradigm,2021.1.4,60.01501726997434,
H,left,Pretarget,0,38,38,38,2262.4685454088176,2264.4702382785526,left,1,4,0.8287824426588486,D08E08,2022-11-24_10h52.59.157,t1_Paradigm,2021.1.4,60.01501726997434,
L,left,Distractor,0,39,39,39,2265.9684806069054,2267.9705395112014,left,1,4,1.312560471091274,D08E08,2022-11-24_10h52.59.157,t1_Paradigm,2021.1.4,60.01501726997434,
G,left,Distractor,0,40,40,40,2269.4686143811487,2271.4700692161405,left,1,4,0.8368525262467301,D08E08,2022-11-24_10h52.59.157,t1_Paradigm,2021.1.4,60.01501726997434,
K,left,Distractor,0,41,41,41,2272.9683105820877,2274.9704015665375,left,1,4,0.9205060195199621,D08E08,2022-11-24_10h52.59.157,t1_Paradigm,2021.1.4,60.01501726997434,
H,right,Target,0,42,42,42,2276.4685030630135,2278.4699046449496,left,0,4,1.00504588745207,D08E08,2022-11-24_10h52.59.157,t1_Paradigm,2021.1.4,60.01501726997434,
B,left,Distractor,0,43,43,43,2279.9686066819104,2281.97108647783,left,1,4,0.639870755474476,D08E08,2022-11-24_10h52.59.157,t1_Paradigm,2021.1.4,60.01501726997434,
Z,left,Distractor,0,44,44,44,2283.4685900002314,2285.4687131880237,left,1,4,0.9501153602341219,D08E08,2022-11-24_10h52.59.157,t1_Paradigm,2021.1.4,60.01501726997434,
T,left,Pretarget,0,45,45,45,2286.9683445870523,2288.9699380083093,left,1,4,1.0970912282591598,D08E08,2022-11-24_10h52.59.157,t1_Paradigm,2021.1.4,60.01501726997434,
H,right,Target,0,46,46,46,2290.4684308826654,2292.4700448352232,None,0,4,,D08E08,2022-11-24_10h52.59.157,t1_Paradigm,2021.1.4,60.01501726997434,
F,left,Distractor,0,47,47,47,2293.9683112236908,2295.970270358708,left,1,4,0.8645656090484408,D08E08,2022-11-24_10h52.59.157,t1_Paradigm,2021.1.4,60.01501726997434,
R,left,Distractor,0,48,48,48,2297.4685688273294,2299.47111759558,left,1,4,1.0602295270873583,D08E08,2022-11-24_10h52.59.157,t1_Paradigm,2021.1.4,60.01501726997434,
T,right,Target,0,49,49,49,2300.9686066819104,2302.969680725473,left,0,4,1.1932117110536637,D08E08,2022-11-24_10h52.59.157,t1_Paradigm,2021.1.4,60.01501726997434,
H,right,Target,0,50,50,50,2304.468567223321,2306.469368264772,left,0,4,1.245684577657812,D08E08,2022-11-24_10h52.59.157,t1_Paradigm,2021.1.4,60.01501726997434,
Y,left,Pretarget,0,51,51,51,2307.9685155742736,2309.9686939399307,left,1,4,0.9622252976405434,D08E08,2022-11-24_10h52.59.157,t1_Paradigm,2021.1.4,60.01501726997434,
H,left,Distractor,0,52,52,52,2311.468227494488,2313.4700114718635,left,1,4,0.9969475733287254,D08E08,2022-11-24_10h52.59.157,t1_Paradigm,2021.1.4,60.01501726997434,
S,left,Distractor,0,53,53,53,2314.968223324069,2316.9704022081405,left,1,4,0.8564066634335177,D08E08,2022-11-24_10h52.59.157,t1_Paradigm,2021.1.4,60.01501726997434,
Q,left,Distractor,0,54,54,54,2318.4683285469746,2320.470094880264,left,1,4,0.7166465844893537,D08E08,2022-11-24_10h52.59.157,t1_Paradigm,2021.1.4,60.01501726997434,
Y,right,Target,0,55,55,55,2321.9684620004155,2323.9683862912516,right,1,4,1.1384460758272326,D08E08,2022-11-24_10h52.59.157,t1_Paradigm,2021.1.4,60.01501726997434,
R,left,Distractor,0,56,56,56,2325.468589037826,2327.468777989934,left,1,4,1.0462900584880117,D08E08,2022-11-24_10h52.59.157,t1_Paradigm,2021.1.4,60.01501726997434,
H,left,Pretarget,0,57,57,57,2328.9684857397297,2330.9708696159887,right,0,4,1.3359700012060785,D08E08,2022-11-24_10h52.59.157,t1_Paradigm,2021.1.4,60.01501726997434,
J,left,Distractor,0,58,58,58,2332.468213700022,2334.4698815472384,left,1,4,0.8451596821760177,D08E08,2022-11-24_10h52.59.157,t1_Paradigm,2021.1.4,60.01501726997434,
V,left,Distractor,0,59,59,59,2335.9685024214104,2337.9697747203245,left,1,4,0.7529013291459705,D08E08,2022-11-24_10h52.59.157,t1_Paradigm,2021.1.4,60.01501726997434,
Y,left,Lure,0,60,60,60,2339.468446922743,2341.4705706289515,right,0,4,1.2523376808367175,D08E08,2022-11-24_10h52.59.157,t1_Paradigm,2021.1.4,60.01501726997434,
H,right,Target,0,61,61,61,2342.9685316143496,2344.9700194919023,left,0,4,1.3367793834968325,D08E08,2022-11-24_10h52.59.157,t1_Paradigm,2021.1.4,60.01501726997434,
L,left,Distractor,0,62,62,62,2346.468214983228,2348.470704403193,left,1,4,1.3562494706766302,D08E08,2022-11-24_10h52.59.157,t1_Paradigm,2021.1.4,60.01501726997434,
P,left,Distractor,0,63,63,63,2349.968336887814,2351.970369486384,left,1,4,1.3286538012416713,D08E08,2022-11-24_10h52.59.157,t1_Paradigm,2021.1.4,60.01501726997434,
