Letter,CorrAnswer,Stimulus,nback_run.thisRepN,nback_run.thisTrialN,nback_run.thisN,nback_run.thisIndex,fixcross.started,nback_trial.started,trial_resp.keys,trial_resp.corr,currentlevel,trial_resp.rt,Participant,date,expName,psychopyVersion,frameRate,
H,left,Distractor,0,0,0,0,452.5766944930656,454.5078878834611,None,0,1,,D09A11,2022-12-06_14h41.05.665,t1_Paradigm,2021.1.4,60.00508193125537,
Q,left,Pretarget,0,1,1,1,456.0094825910637,458.0102162655676,left,1,1,0.8026338499039412,D09A11,2022-12-06_14h41.05.665,t1_Paradigm,2021.1.4,60.00508193125537,
Q,right,Target,0,2,2,2,459.505618529045,461.50657291547395,right,1,1,0.7143962534610182,D09A11,2022-12-06_14h41.05.665,t1_Paradigm,2021.1.4,60.00508193125537,
T,left,Distractor,0,3,3,3,463.00657868990675,465.00853654544335,left,1,1,0.46077199117280543,D09A11,2022-12-06_14h41.05.665,t1_Paradigm,2021.1.4,60.00508193125537,
Q,left,Lure,0,4,4,4,466.506790419342,468.5085593224503,left,1,1,0.5609299540519714,D09A11,2022-12-06_14h41.05.665,t1_Paradigm,2021.1.4,60.00508193125537,
L,left,Distractor,0,5,5,5,470.0065732363146,472.0081458084751,left,1,1,0.6449910271912813,D09A11,2022-12-06_14h41.05.665,t1_Paradigm,2021.1.4,60.00508193125537,
V,left,Pretarget,0,6,6,6,473.5066046748543,475.5091393326875,left,1,1,0.4877893073717132,D09A11,2022-12-06_14h41.05.665,t1_Paradigm,2021.1.4,60.00508193125537,
V,right,Target,0,7,7,7,477.0066746097291,479.00652158714365,right,1,1,0.5424100453965366,D09A11,2022-12-06_14h41.05.665,t1_Paradigm,2021.1.4,60.00508193125537,
K,left,Distractor,0,8,8,8,480.50658638915047,482.5085971771041,left,1,1,0.480449995608069,D09A11,2022-12-06_14h41.05.665,t1_Paradigm,2021.1.4,60.00508193125537,
G,left,Pretarget,0,9,9,9,484.00668455462437,486.008536866284,left,1,1,0.4523586337454617,D09A11,2022-12-06_14h41.05.665,t1_Paradigm,2021.1.4,60.00508193125537,
G,right,Target,0,10,10,10,487.50662713102065,489.5065953716403,right,1,1,0.5862197506939992,D09A11,2022-12-06_14h41.05.665,t1_Paradigm,2021.1.4,60.00508193125537,
G,right,Target,0,11,11,11,491.0066248853691,493.0067288252758,right,1,1,0.494235826889053,D09A11,2022-12-06_14h41.05.665,t1_Paradigm,2021.1.4,60.00508193125537,
P,left,Pretarget,0,12,12,12,494.50668423378374,496.507100955816,left,1,1,0.49787596880923957,D09A11,2022-12-06_14h41.05.665,t1_Paradigm,2021.1.4,60.00508193125537,
P,right,Target,0,13,13,13,498.0065571961459,500.00650811346713,right,1,1,0.3744329019682482,D09A11,2022-12-06_14h41.05.665,t1_Paradigm,2021.1.4,60.00508193125537,
G,left,Lure,0,14,14,14,501.506570990663,503.5085403950652,left,1,1,0.47235711954999715,D09A11,2022-12-06_14h41.05.665,t1_Paradigm,2021.1.4,60.00508193125537,
Y,left,Distractor,0,15,15,15,505.006772775203,507.0082048360491,left,1,1,0.6046485515544191,D09A11,2022-12-06_14h41.05.665,t1_Paradigm,2021.1.4,60.00508193125537,
B,left,Distractor,0,16,16,16,508.50663739664014,510.5086148212431,left,1,1,0.528408314450644,D09A11,2022-12-06_14h41.05.665,t1_Paradigm,2021.1.4,60.00508193125537,
T,left,Pretarget,0,17,17,17,512.0066117325332,514.0078872418962,left,1,1,0.48502752161584795,D09A11,2022-12-06_14h41.05.665,t1_Paradigm,2021.1.4,60.00508193125537,
T,right,Target,0,18,18,18,515.5066046748543,517.5066114116926,right,1,1,0.45825850625988096,D09A11,2022-12-06_14h41.05.665,t1_Paradigm,2021.1.4,60.00508193125537,
S,left,Distractor,0,19,19,19,519.0067522438476,521.0104642456863,left,1,1,0.4105510546360165,D09A11,2022-12-06_14h41.05.665,t1_Paradigm,2021.1.4,60.00508193125537,
T,left,Lure,0,20,20,20,522.5066428503487,524.5080919136526,left,1,1,0.5289260890567675,D09A11,2022-12-06_14h41.05.665,t1_Paradigm,2021.1.4,60.00508193125537,
J,left,Distractor,0,21,21,21,526.0067269004649,528.0085824201815,left,1,1,0.46843787957914174,D09A11,2022-12-06_14h41.05.665,t1_Paradigm,2021.1.4,60.00508193125537,
P,left,Distractor,0,22,22,22,529.5066072413465,531.5085660592886,left,1,1,0.4563221443677321,D09A11,2022-12-06_14h41.05.665,t1_Paradigm,2021.1.4,60.00508193125537,
F,left,Distractor,0,23,23,23,533.0066005043918,535.0083273825003,left,1,1,0.4126741234213114,D09A11,2022-12-06_14h41.05.665,t1_Paradigm,2021.1.4,60.00508193125537,
L,left,Distractor,0,24,24,24,536.5066284142667,538.5082487859763,left,1,1,0.46446378238033503,D09A11,2022-12-06_14h41.05.665,t1_Paradigm,2021.1.4,60.00508193125537,
W,left,Pretarget,0,25,25,25,540.0066024292028,542.0099208067404,left,1,1,0.40296408359427005,D09A11,2022-12-06_14h41.05.665,t1_Paradigm,2021.1.4,60.00508193125537,
W,right,Target,0,26,26,26,543.5065934468294,545.5064692964079,right,1,1,0.44229025789536536,D09A11,2022-12-06_14h41.05.665,t1_Paradigm,2021.1.4,60.00508193125537,
V,left,Distractor,0,27,27,27,547.0067345997086,549.0083469514502,left,1,1,0.5086359941633418,D09A11,2022-12-06_14h41.05.665,t1_Paradigm,2021.1.4,60.00508193125537,
W,left,Lure,0,28,28,28,550.5065498177428,552.5077374272514,left,1,1,0.5612546058837324,D09A11,2022-12-06_14h41.05.665,t1_Paradigm,2021.1.4,60.00508193125537,
R,left,Pretarget,0,29,29,29,554.0066296973964,556.009644596139,left,1,1,0.45121529477182776,D09A11,2022-12-06_14h41.05.665,t1_Paradigm,2021.1.4,60.00508193125537,
R,right,Target,0,30,30,30,557.5067403741414,559.5065690658521,right,1,1,0.5062870808178559,D09A11,2022-12-06_14h41.05.665,t1_Paradigm,2021.1.4,60.00508193125537,
G,left,Distractor,0,31,31,31,561.0065642538248,563.0084714225959,left,1,1,0.4125275168335065,D09A11,2022-12-06_14h41.05.665,t1_Paradigm,2021.1.4,60.00508193125537,
R,left,Lure,0,32,32,32,564.5066178278066,566.5085410367465,left,1,1,0.6724234614521265,D09A11,2022-12-06_14h41.05.665,t1_Paradigm,2021.1.4,60.00508193125537,
S,left,Distractor,0,33,33,33,568.006620715023,570.0084765554639,left,1,1,0.43639808474108577,D09A11,2022-12-06_14h41.05.665,t1_Paradigm,2021.1.4,60.00508193125537,
R,left,Lure,0,34,34,34,571.5066492663464,573.5083398937713,left,1,1,0.5366266240598634,D09A11,2022-12-06_14h41.05.665,t1_Paradigm,2021.1.4,60.00508193125537,
P,left,Pretarget,0,35,35,35,575.0065485344967,577.0084608361358,left,1,1,0.5404133728006855,D09A11,2022-12-06_14h41.05.665,t1_Paradigm,2021.1.4,60.00508193125537,
P,right,Target,0,36,36,36,578.5065790107474,580.506749998196,left,0,1,0.9302653097547591,D09A11,2022-12-06_14h41.05.665,t1_Paradigm,2021.1.4,60.00508193125537,
Y,left,Pretarget,0,37,37,37,582.0065511008725,584.0090023501543,left,1,1,0.6605348541634157,D09A11,2022-12-06_14h41.05.665,t1_Paradigm,2021.1.4,60.00508193125537,
Y,right,Target,0,38,38,38,585.506667231326,587.5066290558316,right,1,1,0.5062408851226792,D09A11,2022-12-06_14h41.05.665,t1_Paradigm,2021.1.4,60.00508193125537,
J,left,Distractor,0,39,39,39,589.0065883139614,591.0086430518422,left,1,1,0.4603786877123639,D09A11,2022-12-06_14h41.05.665,t1_Paradigm,2021.1.4,60.00508193125537,
Y,left,Lure,0,40,40,40,592.506590559613,594.5084874627646,left,1,1,0.6565014086663723,D09A11,2022-12-06_14h41.05.665,t1_Paradigm,2021.1.4,60.00508193125537,
T,left,Distractor,0,41,41,41,596.0065106798429,598.0088884654688,left,1,1,0.6121453773230314,D09A11,2022-12-06_14h41.05.665,t1_Paradigm,2021.1.4,60.00508193125537,
V,left,Distractor,0,42,42,42,599.5067718127975,601.5081936080242,left,1,1,0.42469233472365886,D09A11,2022-12-06_14h41.05.665,t1_Paradigm,2021.1.4,60.00508193125537,
N,left,Pretarget,0,43,43,43,603.0065491760615,605.006023381371,left,1,1,0.4150531922932714,D09A11,2022-12-06_14h41.05.665,t1_Paradigm,2021.1.4,60.00508193125537,
N,right,Target,0,44,44,44,606.5065270407358,608.506728183711,right,1,1,0.49810983368661255,D09A11,2022-12-06_14h41.05.665,t1_Paradigm,2021.1.4,60.00508193125537,
N,right,Target,0,45,45,45,610.0066364342347,612.0065658577951,right,1,1,0.5343030540971085,D09A11,2022-12-06_14h41.05.665,t1_Paradigm,2021.1.4,60.00508193125537,
X,left,Distractor,0,46,46,46,613.506644454319,615.5101761652622,left,1,1,0.45473321131430566,D09A11,2022-12-06_14h41.05.665,t1_Paradigm,2021.1.4,60.00508193125537,
Z,left,Distractor,0,47,47,47,617.0066566448659,619.0086982297944,left,1,1,0.4283668026328087,D09A11,2022-12-06_14h41.05.665,t1_Paradigm,2021.1.4,60.00508193125537,
H,left,Pretarget,0,48,48,48,620.5066017876379,622.5087283852044,left,1,1,0.5444840313866735,D09A11,2022-12-06_14h41.05.665,t1_Paradigm,2021.1.4,60.00508193125537,
H,right,Target,0,49,49,49,624.0065780483419,626.0067400534172,right,1,1,0.6142694083973765,D09A11,2022-12-06_14h41.05.665,t1_Paradigm,2021.1.4,60.00508193125537,
K,left,Distractor,0,50,50,50,627.5065562337404,629.5087238939013,left,1,1,0.504163691191934,D09A11,2022-12-06_14h41.05.665,t1_Paradigm,2021.1.4,60.00508193125537,
V,left,Pretarget,0,51,51,51,631.0064962437609,633.0084579489194,left,1,1,0.4925878661451861,D09A11,2022-12-06_14h41.05.665,t1_Paradigm,2021.1.4,60.00508193125537,
V,right,Target,0,52,52,52,634.5065924844239,636.5067413365468,right,1,1,0.530358470743522,D09A11,2022-12-06_14h41.05.665,t1_Paradigm,2021.1.4,60.00508193125537,
R,left,Distractor,0,53,53,53,638.0065847851802,640.008624766022,left,1,1,0.452262713923119,D09A11,2022-12-06_14h41.05.665,t1_Paradigm,2021.1.4,60.00508193125537,
V,left,Lure,0,54,54,54,641.506620715023,643.5086420894368,left,1,1,0.5202339546522126,D09A11,2022-12-06_14h41.05.665,t1_Paradigm,2021.1.4,60.00508193125537,
Y,left,Distractor,0,55,55,55,645.0065748402849,647.0084476832999,left,1,1,0.5245622172951698,D09A11,2022-12-06_14h41.05.665,t1_Paradigm,2021.1.4,60.00508193125537,
Q,left,Distractor,0,56,56,56,648.5066633817041,650.5077602042584,left,1,1,0.4654656475177035,D09A11,2022-12-06_14h41.05.665,t1_Paradigm,2021.1.4,60.00508193125537,
Z,left,Pretarget,0,57,57,57,652.0067233716836,654.0087867712136,left,1,1,0.4521052000345662,D09A11,2022-12-06_14h41.05.665,t1_Paradigm,2021.1.4,60.00508193125537,
Z,right,Target,0,58,58,58,655.5066098077223,657.5065950507997,right,1,1,0.4263364457292482,D09A11,2022-12-06_14h41.05.665,t1_Paradigm,2021.1.4,60.00508193125537,
B,left,Distractor,0,59,59,59,659.0065793314716,661.0056910302956,left,1,1,0.46380710031371564,D09A11,2022-12-06_14h41.05.665,t1_Paradigm,2021.1.4,60.00508193125537,
S,left,Pretarget,0,60,60,60,662.5066537576495,664.5081887958804,left,1,1,0.4809812438907102,D09A11,2022-12-06_14h41.05.665,t1_Paradigm,2021.1.4,60.00508193125537,
S,right,Target,0,61,61,61,666.0067525646882,668.0064869404305,right,1,1,0.598594052484259,D09A11,2022-12-06_14h41.05.665,t1_Paradigm,2021.1.4,60.00508193125537,
T,left,Distractor,0,62,62,62,669.5065809355583,671.5084672522498,left,1,1,0.47239882382564247,D09A11,2022-12-06_14h41.05.665,t1_Paradigm,2021.1.4,60.00508193125537,
D,left,Distractor,0,63,63,63,673.0066707601072,675.0092083051568,left,1,1,0.4757265045773238,D09A11,2022-12-06_14h41.05.665,t1_Paradigm,2021.1.4,60.00508193125537,
R,left,Distractor,0,0,0,0,711.3476279567694,713.3420402246993,None,0,1,,D09A11,2022-12-06_14h41.05.665,t1_Paradigm,2021.1.4,60.00508193125537,
V,left,Distractor,0,1,1,1,714.8400528554339,716.8417604853166,left,1,1,1.4593149076681584,D09A11,2022-12-06_14h41.05.665,t1_Paradigm,2021.1.4,60.00508193125537,
N,left,Pretarget,0,2,2,2,718.3399274217663,720.3419385304442,left,1,1,0.5987814009422436,D09A11,2022-12-06_14h41.05.665,t1_Paradigm,2021.1.4,60.00508193125537,
N,right,Target,0,3,3,3,721.8398982287617,723.8399126648437,right,1,1,0.49312681367155164,D09A11,2022-12-06_14h41.05.665,t1_Paradigm,2021.1.4,60.00508193125537,
S,left,Distractor,0,4,4,4,725.340101617272,727.3416321644327,left,1,1,0.7193224914371967,D09A11,2022-12-06_14h41.05.665,t1_Paradigm,2021.1.4,60.00508193125537,
N,left,Lure,0,5,5,5,728.8400233415887,730.8421961346176,left,1,1,0.5469673608895391,D09A11,2022-12-06_14h41.05.665,t1_Paradigm,2021.1.4,60.00508193125537,
Z,left,Distractor,0,6,6,6,732.3399360834155,734.3418701996561,left,1,1,0.5350793952820823,D09A11,2022-12-06_14h41.05.665,t1_Paradigm,2021.1.4,60.00508193125537,
L,left,Pretarget,0,7,7,7,735.8401430008234,737.8417450867128,left,1,1,0.4753052913583815,D09A11,2022-12-06_14h41.05.665,t1_Paradigm,2021.1.4,60.00508193125537,
L,right,Target,0,8,8,8,739.3400210959371,741.339969126042,right,1,1,0.46516890556085855,D09A11,2022-12-06_14h41.05.665,t1_Paradigm,2021.1.4,60.00508193125537,
H,left,Distractor,0,9,9,9,742.8399424994132,744.838925556629,left,1,1,0.5020595497917384,D09A11,2022-12-06_14h41.05.665,t1_Paradigm,2021.1.4,60.00508193125537,
L,left,Lure,0,10,10,10,746.3398562036455,748.3419160742778,left,1,1,0.6309963538078591,D09A11,2022-12-06_14h41.05.665,t1_Paradigm,2021.1.4,60.00508193125537,
X,left,Pretarget,0,11,11,11,749.839931912953,751.8416321644327,left,1,1,0.5234195200027898,D09A11,2022-12-06_14h41.05.665,t1_Paradigm,2021.1.4,60.00508193125537,
X,right,Target,0,12,12,12,753.3401038629236,755.340015642345,right,1,1,0.5132468835217878,D09A11,2022-12-06_14h41.05.665,t1_Paradigm,2021.1.4,60.00508193125537,
X,right,Target,0,13,13,13,756.8400233415887,758.8400419481331,right,1,1,0.5169893616111949,D09A11,2022-12-06_14h41.05.665,t1_Paradigm,2021.1.4,60.00508193125537,
R,left,Distractor,0,14,14,14,760.3400236624293,762.3418673124397,left,1,1,0.759096184745431,D09A11,2022-12-06_14h41.05.665,t1_Paradigm,2021.1.4,60.00508193125537,
T,left,Distractor,0,15,15,15,763.8399668803904,765.8417999439407,left,1,1,0.4752369604539126,D09A11,2022-12-06_14h41.05.665,t1_Paradigm,2021.1.4,60.00508193125537,
V,left,Pretarget,0,16,16,16,767.3400044142036,769.3422086458886,left,1,1,0.6546882347902283,D09A11,2022-12-06_14h41.05.665,t1_Paradigm,2021.1.4,60.00508193125537,
V,right,Target,0,17,17,17,770.84008718119,772.8400323240785,right,1,1,0.5490031713852659,D09A11,2022-12-06_14h41.05.665,t1_Paradigm,2021.1.4,60.00508193125537,
N,left,Distractor,0,18,18,18,774.3400522137526,776.3390442533419,left,1,1,0.45803907758090645,D09A11,2022-12-06_14h41.05.665,t1_Paradigm,2021.1.4,60.00508193125537,
B,left,Distractor,0,19,19,19,777.8399453866296,779.842009748565,left,1,1,0.475039025535807,D09A11,2022-12-06_14h41.05.665,t1_Paradigm,2021.1.4,60.00508193125537,
V,left,Lure,0,20,20,20,781.3398042337503,783.3390413661255,left,1,1,0.48205015680287033,D09A11,2022-12-06_14h41.05.665,t1_Paradigm,2021.1.4,60.00508193125537,
P,left,Distractor,0,21,21,21,784.8399700884474,786.842152505531,left,1,1,0.4668316231109202,D09A11,2022-12-06_14h41.05.665,t1_Paradigm,2021.1.4,60.00508193125537,
K,left,Pretarget,0,22,22,22,788.3401051461697,790.3423783502076,left,1,1,0.4067197145195678,D09A11,2022-12-06_14h41.05.665,t1_Paradigm,2021.1.4,60.00508193125537,
K,right,Target,0,23,23,23,791.8400342488894,793.8400470808847,right,1,1,0.4610850941389799,D09A11,2022-12-06_14h41.05.665,t1_Paradigm,2021.1.4,60.00508193125537,
J,left,Pretarget,0,24,24,24,795.3401994620217,797.3419282648247,left,1,1,0.47917512780986726,D09A11,2022-12-06_14h41.05.665,t1_Paradigm,2021.1.4,60.00508193125537,
J,right,Target,0,25,25,25,798.8399598227115,800.8400583090261,right,1,1,0.5810371917905286,D09A11,2022-12-06_14h41.05.665,t1_Paradigm,2021.1.4,60.00508193125537,
H,left,Distractor,0,26,26,26,802.3400996924611,804.3390843536472,left,1,1,0.6501767940353602,D09A11,2022-12-06_14h41.05.665,t1_Paradigm,2021.1.4,60.00508193125537,
J,left,Lure,0,27,27,27,805.8400082638254,807.8419000342255,left,1,1,0.45932581508532166,D09A11,2022-12-06_14h41.05.665,t1_Paradigm,2021.1.4,60.00508193125537,
V,left,Distractor,0,28,28,28,809.3399771461263,811.3420196934603,left,1,1,0.6071055753855035,D09A11,2022-12-06_14h41.05.665,t1_Paradigm,2021.1.4,60.00508193125537,
Z,left,Pretarget,0,29,29,29,812.8395504791988,814.8422506710049,left,1,1,0.450712276971899,D09A11,2022-12-06_14h41.05.665,t1_Paradigm,2021.1.4,60.00508193125537,
Z,right,Target,0,30,30,30,816.3399832412833,818.3399007951375,right,1,1,0.4730821324046701,D09A11,2022-12-06_14h41.05.665,t1_Paradigm,2021.1.4,60.00508193125537,
T,left,Distractor,0,31,31,31,819.8400217376184,821.8418759740889,left,1,1,0.5391943246359006,D09A11,2022-12-06_14h41.05.665,t1_Paradigm,2021.1.4,60.00508193125537,
Z,left,Lure,0,32,32,32,823.3399922237732,825.3390638222918,left,1,1,0.6579241662984714,D09A11,2022-12-06_14h41.05.665,t1_Paradigm,2021.1.4,60.00508193125537,
F,left,Distractor,0,33,33,33,826.839216524153,828.8411147105508,left,1,1,0.5159194864099845,D09A11,2022-12-06_14h41.05.665,t1_Paradigm,2021.1.4,60.00508193125537,
Y,left,Pretarget,0,34,34,34,830.3400608754018,832.3421967761824,left,1,1,0.47080828668549657,D09A11,2022-12-06_14h41.05.665,t1_Paradigm,2021.1.4,60.00508193125537,
Y,right,Target,0,35,35,35,833.8399694467662,835.8401622489328,right,1,1,0.5089077134616673,D09A11,2022-12-06_14h41.05.665,t1_Paradigm,2021.1.4,60.00508193125537,
Y,right,Target,0,36,36,36,837.3400127551286,839.3400117927231,right,1,1,0.5449642722960562,D09A11,2022-12-06_14h41.05.665,t1_Paradigm,2021.1.4,60.00508193125537,
W,left,Distractor,0,37,37,37,840.8400534969987,842.8420424703509,left,1,1,0.5313118947669864,D09A11,2022-12-06_14h41.05.665,t1_Paradigm,2021.1.4,60.00508193125537,
Q,left,Distractor,0,38,38,38,844.3400028102333,846.3420427911915,left,1,1,0.4870444047264755,D09A11,2022-12-06_14h41.05.665,t1_Paradigm,2021.1.4,60.00508193125537,
P,left,Pretarget,0,39,39,39,847.8398943791399,849.8420251470525,left,1,1,0.5230682416586205,D09A11,2022-12-06_14h41.05.665,t1_Paradigm,2021.1.4,60.00508193125537,
P,right,Target,0,40,40,40,851.3400586298667,853.340154549689,right,1,1,0.46545826899819076,D09A11,2022-12-06_14h41.05.665,t1_Paradigm,2021.1.4,60.00508193125537,
J,left,Distractor,0,41,41,41,854.8399655971443,856.8416748311138,left,1,1,0.46732694178353995,D09A11,2022-12-06_14h41.05.665,t1_Paradigm,2021.1.4,60.00508193125537,
P,left,Lure,0,42,42,42,858.3401176574407,860.3420184102142,left,1,1,0.6152690278831869,D09A11,2022-12-06_14h41.05.665,t1_Paradigm,2021.1.4,60.00508193125537,
L,left,Distractor,0,43,43,43,861.8390769752441,863.8533446512884,left,1,1,0.5117551535367966,D09A11,2022-12-06_14h41.05.665,t1_Paradigm,2021.1.4,60.00508193125537,
Z,left,Distractor,0,44,44,44,865.3392287145834,867.3419686858542,left,1,1,0.7990453569218516,D09A11,2022-12-06_14h41.05.665,t1_Paradigm,2021.1.4,60.00508193125537,
F,left,Pretarget,0,45,45,45,868.8399473114405,870.8414201141568,left,1,1,0.6917091248324141,D09A11,2022-12-06_14h41.05.665,t1_Paradigm,2021.1.4,60.00508193125537,
F,right,Target,0,46,46,46,872.3399986397708,874.3401571160648,right,1,1,0.47285019245464355,D09A11,2022-12-06_14h41.05.665,t1_Paradigm,2021.1.4,60.00508193125537,
G,left,Pretarget,0,47,47,47,875.8400464393198,877.8413857884007,left,1,1,0.5397242897888646,D09A11,2022-12-06_14h41.05.665,t1_Paradigm,2021.1.4,60.00508193125537,
G,right,Target,0,48,48,48,879.3400092262309,881.3399213264929,right,1,1,0.4492452488048002,D09A11,2022-12-06_14h41.05.665,t1_Paradigm,2021.1.4,60.00508193125537,
V,left,Distractor,0,49,49,49,882.8399739380693,884.8422490669182,left,1,1,0.4667559138033539,D09A11,2022-12-06_14h41.05.665,t1_Paradigm,2021.1.4,60.00508193125537,
G,left,Lure,0,50,50,50,886.3391979176085,888.3420860994374,left,1,1,0.5988423533271998,D09A11,2022-12-06_14h41.05.665,t1_Paradigm,2021.1.4,60.00508193125537,
Q,left,Pretarget,0,51,51,51,889.8401587200351,891.8420536984922,left,1,1,0.7631761466618627,D09A11,2022-12-06_14h41.05.665,t1_Paradigm,2021.1.4,60.00508193125537,
Q,right,Target,0,52,52,52,893.340069537051,895.3397888351465,right,1,1,0.48159140965435654,D09A11,2022-12-06_14h41.05.665,t1_Paradigm,2021.1.4,60.00508193125537,
Y,left,Distractor,0,53,53,53,896.8566704072291,898.8420485656243,left,1,1,0.579145742347464,D09A11,2022-12-06_14h41.05.665,t1_Paradigm,2021.1.4,60.00508193125537,
V,left,Distractor,0,54,54,54,900.340016925591,902.3422689567087,left,1,1,0.5826925310539082,D09A11,2022-12-06_14h41.05.665,t1_Paradigm,2021.1.4,60.00508193125537,
B,left,Distractor,0,55,55,55,903.8401686649304,905.8420508112758,left,1,1,0.5390464348020032,D09A11,2022-12-06_14h41.05.665,t1_Paradigm,2021.1.4,60.00508193125537,
J,left,Pretarget,0,56,56,56,907.3401609656867,909.3423911823193,left,1,1,0.7186192931840196,D09A11,2022-12-06_14h41.05.665,t1_Paradigm,2021.1.4,60.00508193125537,
J,right,Target,0,57,57,57,910.8402023492381,912.8399277424905,right,1,1,0.581685853889212,D09A11,2022-12-06_14h41.05.665,t1_Paradigm,2021.1.4,60.00508193125537,
H,left,Distractor,0,58,58,58,914.339034308563,916.3421550719067,left,1,1,0.4549670760752633,D09A11,2022-12-06_14h41.05.665,t1_Paradigm,2021.1.4,60.00508193125537,
J,left,Lure,0,59,59,59,917.840005376609,919.8420459992485,left,1,1,0.6189707641024143,D09A11,2022-12-06_14h41.05.665,t1_Paradigm,2021.1.4,60.00508193125537,
D,left,Pretarget,0,60,60,60,921.3400345696136,923.3417300090659,left,1,1,0.4794391479808837,D09A11,2022-12-06_14h41.05.665,t1_Paradigm,2021.1.4,60.00508193125537,
D,right,Target,0,61,61,61,924.8400605546776,926.8400605546776,right,1,1,0.5332556350622326,D09A11,2022-12-06_14h41.05.665,t1_Paradigm,2021.1.4,60.00508193125537,
R,left,Distractor,0,62,62,62,928.3392190905288,930.3422805055743,left,1,1,0.5187813624506816,D09A11,2022-12-06_14h41.05.665,t1_Paradigm,2021.1.4,60.00508193125537,
F,left,Distractor,0,63,63,63,931.8399444242241,933.842149297474,left,1,1,0.6188594456762075,D09A11,2022-12-06_14h41.05.665,t1_Paradigm,2021.1.4,60.00508193125537,
F,left,Distractor,0,0,0,0,1096.0138140617637,1098.0068696574308,left,1,2,0.7423474248498678,D09A11,2022-12-06_14h41.05.665,t1_Paradigm,2021.1.4,60.00508193125537,
N,left,Pretarget,0,1,1,1,1099.5067015570821,1101.505880624405,left,1,2,1.2593650170601904,D09A11,2022-12-06_14h41.05.665,t1_Paradigm,2021.1.4,60.00508193125537,
V,left,Distractor,0,2,2,2,1103.0067365245195,1105.0087408964755,left,1,2,1.2923742760904133,D09A11,2022-12-06_14h41.05.665,t1_Paradigm,2021.1.4,60.00508193125537,
N,right,Target,0,3,3,3,1106.5069036624627,1108.5082247257233,right,1,2,1.1050793889444321,D09A11,2022-12-06_14h41.05.665,t1_Paradigm,2021.1.4,60.00508193125537,
N,left,Lure,0,4,4,4,1110.0067836825037,1112.0067236925242,left,1,2,1.1904676205012947,D09A11,2022-12-06_14h41.05.665,t1_Paradigm,2021.1.4,60.00508193125537,
X,left,Distractor,0,5,5,5,1113.506751923007,1115.5086793024093,left,1,2,1.2245554162655026,D09A11,2022-12-06_14h41.05.665,t1_Paradigm,2021.1.4,60.00508193125537,
G,left,Pretarget,0,6,6,6,1117.0059098174097,1119.0088640844915,left,1,2,0.4922523070126772,D09A11,2022-12-06_14h41.05.665,t1_Paradigm,2021.1.4,60.00508193125537,
H,left,Pretarget,0,7,7,7,1120.506724975654,1122.5089555131271,left,1,2,0.4805949981091544,D09A11,2022-12-06_14h41.05.665,t1_Paradigm,2021.1.4,60.00508193125537,
G,right,Target,0,8,8,8,1124.006761547178,1126.0087752222316,right,1,2,0.8523755079368129,D09A11,2022-12-06_14h41.05.665,t1_Paradigm,2021.1.4,60.00508193125537,
H,right,Target,0,9,9,9,1127.506914890604,1129.5085500191199,right,1,2,1.0165649402188137,D09A11,2022-12-06_14h41.05.665,t1_Paradigm,2021.1.4,60.00508193125537,
T,left,Pretarget,0,10,10,10,1131.0068026097724,1133.008783242316,left,1,2,0.5884226991329342,D09A11,2022-12-06_14h41.05.665,t1_Paradigm,2021.1.4,60.00508193125537,
K,left,Distractor,0,11,11,11,1134.5068170458544,1136.5086616582703,left,1,2,0.784487996599637,D09A11,2022-12-06_14h41.05.665,t1_Paradigm,2021.1.4,60.00508193125537,
T,right,Target,0,12,12,12,1138.0069232314127,1140.008763673366,right,1,2,0.5645405824761838,D09A11,2022-12-06_14h41.05.665,t1_Paradigm,2021.1.4,60.00508193125537,
T,left,Lure,0,13,13,13,1141.5068103090161,1143.506824424374,left,1,2,1.0665276310173795,D09A11,2022-12-06_14h41.05.665,t1_Paradigm,2021.1.4,60.00508193125537,
J,left,Distractor,0,14,14,14,1145.0067647551186,1147.0230708081508,left,1,2,0.5101803357247263,D09A11,2022-12-06_14h41.05.665,t1_Paradigm,2021.1.4,60.00508193125537,
Q,left,Pretarget,0,15,15,15,1148.5066466999706,1150.508189116721,left,1,2,0.5131692494032905,D09A11,2022-12-06_14h41.05.665,t1_Paradigm,2021.1.4,60.00508193125537,
M,left,Distractor,0,16,16,16,1152.006724334089,1154.0105508621782,left,1,2,0.7387281348928809,D09A11,2022-12-06_14h41.05.665,t1_Paradigm,2021.1.4,60.00508193125537,
Q,right,Target,0,17,17,17,1155.5068433516426,1157.5086520342156,right,1,2,0.6485326830297709,D09A11,2022-12-06_14h41.05.665,t1_Paradigm,2021.1.4,60.00508193125537,
R,left,Distractor,0,18,18,18,1159.006844314048,1161.0085731169675,left,1,2,0.6525930759962648,D09A11,2022-12-06_14h41.05.665,t1_Paradigm,2021.1.4,60.00508193125537,
W,left,Distractor,0,19,19,19,1162.5067150307586,1164.5058260880178,left,1,2,0.691419119713828,D09A11,2022-12-06_14h41.05.665,t1_Paradigm,2021.1.4,60.00508193125537,
C,left,Pretarget,0,20,20,20,1166.0068231411278,1168.008834249922,left,1,2,0.5805418733507395,D09A11,2022-12-06_14h41.05.665,t1_Paradigm,2021.1.4,60.00508193125537,
T,left,Distractor,0,21,21,21,1169.5070217177272,1171.5083572170697,left,1,2,0.584844471886754,D09A11,2022-12-06_14h41.05.665,t1_Paradigm,2021.1.4,60.00508193125537,
C,right,Target,0,22,22,22,1173.0068186499411,1175.009227232542,right,1,2,0.5880030900007114,D09A11,2022-12-06_14h41.05.665,t1_Paradigm,2021.1.4,60.00508193125537,
F,left,Pretarget,0,23,23,23,1176.5067807952873,1178.5088644053321,left,1,2,0.7687359689734876,D09A11,2022-12-06_14h41.05.665,t1_Paradigm,2021.1.4,60.00508193125537,
C,right,Target,0,24,24,24,1180.0065575169865,1182.0090100495145,right,1,2,0.7402583612129092,D09A11,2022-12-06_14h41.05.665,t1_Paradigm,2021.1.4,60.00508193125537,
F,right,Target,0,25,25,25,1183.5067403741414,1185.5079706504475,right,1,2,1.3372127938782796,D09A11,2022-12-06_14h41.05.665,t1_Paradigm,2021.1.4,60.00508193125537,
H,left,Distractor,0,26,26,26,1187.0067724543624,1189.008629257325,left,1,2,1.4205113201169297,D09A11,2022-12-06_14h41.05.665,t1_Paradigm,2021.1.4,60.00508193125537,
H,left,Lure,0,27,27,27,1190.5067670007702,1192.506970710121,left,1,2,0.9626178868347779,D09A11,2022-12-06_14h41.05.665,t1_Paradigm,2021.1.4,60.00508193125537,
P,left,Distractor,0,28,28,28,1194.0067490357906,1196.0086414477555,left,1,2,0.8205724649596959,D09A11,2022-12-06_14h41.05.665,t1_Paradigm,2021.1.4,60.00508193125537,
G,left,Pretarget,0,29,29,29,1197.5069055872736,1199.5073887153994,left,1,2,0.6017475377302617,D09A11,2022-12-06_14h41.05.665,t1_Paradigm,2021.1.4,60.00508193125537,
K,left,Distractor,0,30,30,30,1201.0067435821984,1203.0087232523365,None,0,2,,D09A11,2022-12-06_14h41.05.665,t1_Paradigm,2021.1.4,60.00508193125537,
G,right,Target,0,31,31,31,1204.5066996322712,1206.508972515585,None,0,2,,D09A11,2022-12-06_14h41.05.665,t1_Paradigm,2021.1.4,60.00508193125537,
M,left,Pretarget,0,32,32,32,1208.0067817576928,1210.0077707907185,left,1,2,0.8374004630604759,D09A11,2022-12-06_14h41.05.665,t1_Paradigm,2021.1.4,60.00508193125537,
B,left,Distractor,0,33,33,33,1211.506809988292,1213.505829616799,left,1,2,0.6033464155625552,D09A11,2022-12-06_14h41.05.665,t1_Paradigm,2021.1.4,60.00508193125537,
M,right,Target,0,34,34,34,1215.005889606895,1217.0089924053755,right,1,2,0.5882433708757162,D09A11,2022-12-06_14h41.05.665,t1_Paradigm,2021.1.4,60.00508193125537,
M,left,Lure,0,35,35,35,1218.5058495065896,1220.5068529756973,left,1,2,0.9943060824880376,D09A11,2022-12-06_14h41.05.665,t1_Paradigm,2021.1.4,60.00508193125537,
T,left,Distractor,0,36,36,36,1222.0068241035333,1224.0086661495734,left,1,2,1.076495595742017,D09A11,2022-12-06_14h41.05.665,t1_Paradigm,2021.1.4,60.00508193125537,
F,left,Distractor,0,37,37,37,1225.506793627399,1227.5087245355826,left,1,2,0.8245773591334,D09A11,2022-12-06_14h41.05.665,t1_Paradigm,2021.1.4,60.00508193125537,
X,left,Distractor,0,38,38,38,1229.006780153606,1231.0087652774528,left,1,2,0.572516044951044,D09A11,2022-12-06_14h41.05.665,t1_Paradigm,2021.1.4,60.00508193125537,
C,left,Distractor,0,39,39,39,1232.5067554519046,1234.5196786461165,left,1,2,0.581509733456187,D09A11,2022-12-06_14h41.05.665,t1_Paradigm,2021.1.4,60.00508193125537,
R,left,Distractor,0,40,40,40,1236.0067958729342,1238.0085002948763,left,1,2,0.4046823000535369,D09A11,2022-12-06_14h41.05.665,t1_Paradigm,2021.1.4,60.00508193125537,
B,left,Pretarget,0,41,41,41,1239.506797797745,1241.5090517537901,left,1,2,0.5040873403195292,D09A11,2022-12-06_14h41.05.665,t1_Paradigm,2021.1.4,60.00508193125537,
H,left,Distractor,0,42,42,42,1243.006844314048,1245.0090020294301,left,1,2,0.7965331552550197,D09A11,2022-12-06_14h41.05.665,t1_Paradigm,2021.1.4,60.00508193125537,
B,right,Target,0,43,43,43,1246.5067692464218,1248.5088220593752,right,1,2,0.848371896892786,D09A11,2022-12-06_14h41.05.665,t1_Paradigm,2021.1.4,60.00508193125537,
W,left,Pretarget,0,44,44,44,1250.006723050843,1252.0090325055644,left,1,2,0.5321597749134526,D09A11,2022-12-06_14h41.05.665,t1_Paradigm,2021.1.4,60.00508193125537,
L,left,Pretarget,0,45,45,45,1253.5068054969888,1255.5087822799105,left,1,2,0.6965837136376649,D09A11,2022-12-06_14h41.05.665,t1_Paradigm,2021.1.4,60.00508193125537,
W,right,Target,0,46,46,46,1257.0068568253191,1259.0086821896257,left,0,2,0.7485876684077084,D09A11,2022-12-06_14h41.05.665,t1_Paradigm,2021.1.4,60.00508193125537,
L,right,Target,0,47,47,47,1260.506686800276,1262.5083389313659,right,1,2,0.4488400756381452,D09A11,2022-12-06_14h41.05.665,t1_Paradigm,2021.1.4,60.00508193125537,
W,right,Target,0,48,48,48,1264.0068549005082,1266.0081015377073,right,1,2,0.5170397275360301,D09A11,2022-12-06_14h41.05.665,t1_Paradigm,2021.1.4,60.00508193125537,
X,left,Distractor,0,49,49,49,1267.506785286474,1269.508958079503,left,1,2,0.44002475310117006,D09A11,2022-12-06_14h41.05.665,t1_Paradigm,2021.1.4,60.00508193125537,
R,left,Distractor,0,50,50,50,1271.0068754318636,1273.0088156433776,left,1,2,1.0843969528796151,D09A11,2022-12-06_14h41.05.665,t1_Paradigm,2021.1.4,60.00508193125537,
V,left,Pretarget,0,51,51,51,1274.5068542589433,1276.5088740293868,left,1,2,0.4965183341410011,D09A11,2022-12-06_14h41.05.665,t1_Paradigm,2021.1.4,60.00508193125537,
Z,left,Distractor,0,52,52,52,1278.0067968353396,1280.0085070317145,left,1,2,0.5487154119182378,D09A11,2022-12-06_14h41.05.665,t1_Paradigm,2021.1.4,60.00508193125537,
V,right,Target,0,53,53,53,1281.506829877966,1283.5083129464183,right,1,2,0.6489327232120559,D09A11,2022-12-06_14h41.05.665,t1_Paradigm,2021.1.4,60.00508193125537,
V,left,Lure,0,54,54,54,1285.0069306098158,1287.006863882998,left,1,2,0.9580981051549315,D09A11,2022-12-06_14h41.05.665,t1_Paradigm,2021.1.4,60.00508193125537,
N,left,Distractor,0,55,55,55,1288.5068616373464,1290.5082266505342,left,1,2,0.46492541662883013,D09A11,2022-12-06_14h41.05.665,t1_Paradigm,2021.1.4,60.00508193125537,
B,left,Distractor,0,56,56,56,1292.0068629205925,1294.0088012072956,left,1,2,0.6286419866373762,D09A11,2022-12-06_14h41.05.665,t1_Paradigm,2021.1.4,60.00508193125537,
V,left,Lure,0,57,57,57,1295.5068013266427,1297.5090623402502,left,1,2,0.7122821672819555,D09A11,2022-12-06_14h41.05.665,t1_Paradigm,2021.1.4,60.00508193125537,
J,left,Distractor,0,58,58,58,1299.0067631511483,1301.0089391522342,left,1,2,0.5723700799280778,D09A11,2022-12-06_14h41.05.665,t1_Paradigm,2021.1.4,60.00508193125537,
H,left,Distractor,0,59,59,59,1302.5068353316747,1304.50835882104,left,1,2,0.5289812671253458,D09A11,2022-12-06_14h41.05.665,t1_Paradigm,2021.1.4,60.00508193125537,
X,left,Pretarget,0,60,60,60,1306.0067246549297,1308.0088852574117,left,1,2,0.4843060375424102,D09A11,2022-12-06_14h41.05.665,t1_Paradigm,2021.1.4,60.00508193125537,
P,left,Distractor,0,61,61,61,1309.5058819076512,1311.5088140392909,left,1,2,0.4402088936185464,D09A11,2022-12-06_14h41.05.665,t1_Paradigm,2021.1.4,60.00508193125537,
X,right,Target,0,62,62,62,1313.00580908556,1315.0058851155918,right,1,2,0.7033436568453908,D09A11,2022-12-06_14h41.05.665,t1_Paradigm,2021.1.4,60.00508193125537,
Q,left,Distractor,0,63,63,63,1316.5068183291005,1318.509259633487,left,1,2,0.6083037713542581,D09A11,2022-12-06_14h41.05.665,t1_Paradigm,2021.1.4,60.00508193125537,
B,left,Pretarget,0,0,0,0,1357.1819779122015,1359.1759048064705,left,1,2,0.42137299466412514,D09A11,2022-12-06_14h41.05.665,t1_Paradigm,2021.1.4,60.00508193125537,
F,left,Distractor,0,1,1,1,1360.673312404193,1362.6754425305407,left,1,2,0.8098846202483401,D09A11,2022-12-06_14h41.05.665,t1_Paradigm,2021.1.4,60.00508193125537,
B,right,Target,0,2,2,2,1364.1735270208446,1366.1754871220328,right,1,2,0.6058775447309017,D09A11,2022-12-06_14h41.05.665,t1_Paradigm,2021.1.4,60.00508193125537,
V,left,Distractor,0,3,3,3,1367.672675611917,1369.6752731470624,left,1,2,0.7540618365164846,D09A11,2022-12-06_14h41.05.665,t1_Paradigm,2021.1.4,60.00508193125537,
G,left,Pretarget,0,4,4,4,1371.1735478730407,1373.175455683493,left,1,2,0.5021429584594443,D09A11,2022-12-06_14h41.05.665,t1_Paradigm,2021.1.4,60.00508193125537,
B,left,Lure,0,5,5,5,1374.6735539681977,1376.6750880441396,left,1,2,1.0823409317526966,D09A11,2022-12-06_14h41.05.665,t1_Paradigm,2021.1.4,60.00508193125537,
G,right,Target,0,6,6,6,1378.1734586900566,1380.1749295678455,right,1,2,0.9264618793968111,D09A11,2022-12-06_14h41.05.665,t1_Paradigm,2021.1.4,60.00508193125537,
Y,left,Pretarget,0,7,7,7,1381.6726034313906,1383.6753597635543,left,1,2,0.44987209618557245,D09A11,2022-12-06_14h41.05.665,t1_Paradigm,2021.1.4,60.00508193125537,
P,left,Distractor,0,8,8,8,1385.1735530057922,1387.1756513727596,left,1,2,0.5657580266706645,D09A11,2022-12-06_14h41.05.665,t1_Paradigm,2021.1.4,60.00508193125537,
Y,right,Target,0,9,9,9,1388.6734805045417,1390.6753251169575,right,1,2,0.7781386801507324,D09A11,2022-12-06_14h41.05.665,t1_Paradigm,2021.1.4,60.00508193125537,
X,left,Distractor,0,10,10,10,1392.1735257375985,1394.1755499992287,left,1,2,0.5898573264712468,D09A11,2022-12-06_14h41.05.665,t1_Paradigm,2021.1.4,60.00508193125537,
Y,right,Target,0,11,11,11,1395.6735571762547,1397.6755464704474,right,1,2,0.6257149877492338,D09A11,2022-12-06_14h41.05.665,t1_Paradigm,2021.1.4,60.00508193125537,
N,left,Distractor,0,12,12,12,1399.1734692765167,1401.1754784603836,left,1,2,0.48576408333610743,D09A11,2022-12-06_14h41.05.665,t1_Paradigm,2021.1.4,60.00508193125537,
Y,right,Target,0,13,13,13,1402.6735892564757,1404.6753847862128,right,1,2,0.8740168215008453,D09A11,2022-12-06_14h41.05.665,t1_Paradigm,2021.1.4,60.00508193125537,
Y,left,Lure,0,14,14,14,1406.1735465897946,1408.1735023191432,left,1,2,0.8639202151680365,D09A11,2022-12-06_14h41.05.665,t1_Paradigm,2021.1.4,60.00508193125537,
K,left,Distractor,0,15,15,15,1409.673674589838,1411.6755413375795,left,1,2,0.5458974858047441,D09A11,2022-12-06_14h41.05.665,t1_Paradigm,2021.1.4,60.00508193125537,
T,left,Pretarget,0,16,16,16,1413.1736001637764,1415.1727198826848,left,1,2,0.5846933741122484,D09A11,2022-12-06_14h41.05.665,t1_Paradigm,2021.1.4,60.00508193125537,
J,left,Distractor,0,17,17,17,1416.6736931963824,1418.6725896369899,left,1,2,0.620694754878059,D09A11,2022-12-06_14h41.05.665,t1_Paradigm,2021.1.4,60.00508193125537,
T,right,Target,0,18,18,18,1420.173519321601,1422.1737053868128,right,1,2,0.7197241358226165,D09A11,2022-12-06_14h41.05.665,t1_Paradigm,2021.1.4,60.00508193125537,
S,left,Pretarget,0,19,19,19,1423.6735199631657,1425.6755477536935,left,1,2,0.8978999006794766,D09A11,2022-12-06_14h41.05.665,t1_Paradigm,2021.1.4,60.00508193125537,
R,left,Distractor,0,20,20,20,1427.173581557232,1429.1862519592978,left,1,2,0.6512142682913691,D09A11,2022-12-06_14h41.05.665,t1_Paradigm,2021.1.4,60.00508193125537,
S,right,Target,0,21,21,21,1430.673535040929,1432.6757344604703,right,1,2,0.7457075067795813,D09A11,2022-12-06_14h41.05.665,t1_Paradigm,2021.1.4,60.00508193125537,
Q,left,Distractor,0,22,22,22,1434.173512263922,1436.1754768564133,left,1,2,0.5102178695378825,D09A11,2022-12-06_14h41.05.665,t1_Paradigm,2021.1.4,60.00508193125537,
D,left,Distractor,0,23,23,23,1437.673520604847,1439.6752994527342,left,1,2,0.5621923105791211,D09A11,2022-12-06_14h41.05.665,t1_Paradigm,2021.1.4,60.00508193125537,
F,left,Distractor,0,24,24,24,1441.1736559832934,1443.1753061896889,left,1,2,0.4540081983432174,D09A11,2022-12-06_14h41.05.665,t1_Paradigm,2021.1.4,60.00508193125537,
Z,left,Distractor,0,25,25,25,1444.673584765289,1446.6751605455065,left,1,2,0.5221995094325393,D09A11,2022-12-06_14h41.05.665,t1_Paradigm,2021.1.4,60.00508193125537,
P,left,Distractor,0,26,26,26,1448.1736723441863,1450.1759041649057,left,1,2,0.5894611357944086,D09A11,2022-12-06_14h41.05.665,t1_Paradigm,2021.1.4,60.00508193125537,
H,left,Distractor,0,27,27,27,1451.6734240433434,1453.6753754828824,left,1,2,0.5140556257683784,D09A11,2022-12-06_14h41.05.665,t1_Paradigm,2021.1.4,60.00508193125537,
Z,left,Pretarget,0,28,28,28,1455.1735459482297,1457.1755195230944,left,1,2,0.46977305819746107,D09A11,2022-12-06_14h41.05.665,t1_Paradigm,2021.1.4,60.00508193125537,
J,left,Pretarget,0,29,29,29,1458.6735748203937,1460.675474289921,left,1,2,1.2900308163370937,D09A11,2022-12-06_14h41.05.665,t1_Paradigm,2021.1.4,60.00508193125537,
Z,right,Target,0,30,30,30,1462.173526700004,1464.1755204854999,right,1,2,0.5097770873690024,D09A11,2022-12-06_14h41.05.665,t1_Paradigm,2021.1.4,60.00508193125537,
J,right,Target,0,31,31,31,1465.6734124944778,1467.6756494479487,right,1,2,0.49782624456565827,D09A11,2022-12-06_14h41.05.665,t1_Paradigm,2021.1.4,60.00508193125537,
V,left,Pretarget,0,32,32,32,1469.1736235823482,1471.1755843251012,left,1,2,0.517715978436172,D09A11,2022-12-06_14h41.05.665,t1_Paradigm,2021.1.4,60.00508193125537,
Z,left,Lure,0,33,33,33,1472.6735096975463,1474.6750582095701,left,1,2,1.1304028696613386,D09A11,2022-12-06_14h41.05.665,t1_Paradigm,2021.1.4,60.00508193125537,
V,right,Target,0,34,34,34,1476.1735164343845,1478.1758085658075,right,1,2,0.5735570478718728,D09A11,2022-12-06_14h41.05.665,t1_Paradigm,2021.1.4,60.00508193125537,
X,left,Distractor,0,35,35,35,1479.673544344143,1481.675840325188,left,1,2,0.5296555932145566,D09A11,2022-12-06_14h41.05.665,t1_Paradigm,2021.1.4,60.00508193125537,
S,left,Distractor,0,36,36,36,1483.1735074518947,1485.1756577887572,left,1,2,0.6457818044582382,D09A11,2022-12-06_14h41.05.665,t1_Paradigm,2021.1.4,60.00508193125537,
Q,left,Distractor,0,37,37,37,1486.6735360033344,1488.6754585707095,left,1,2,0.4420551098883152,D09A11,2022-12-06_14h41.05.665,t1_Paradigm,2021.1.4,60.00508193125537,
P,left,Distractor,0,38,38,38,1490.173536324175,1492.175390239805,left,1,2,0.4780706060118973,D09A11,2022-12-06_14h41.05.665,t1_Paradigm,2021.1.4,60.00508193125537,
S,left,Lure,0,39,39,39,1493.673522529658,1495.67514995893,left,1,2,0.8341709477826953,D09A11,2022-12-06_14h41.05.665,t1_Paradigm,2021.1.4,60.00508193125537,
K,left,Pretarget,0,40,40,40,1497.1735093767056,1499.1730618576985,left,1,2,0.520275017246604,D09A11,2022-12-06_14h41.05.665,t1_Paradigm,2021.1.4,60.00508193125537,
L,left,Distractor,0,41,41,41,1500.6727243738715,1502.6755798339145,left,1,2,0.4898568772478029,D09A11,2022-12-06_14h41.05.665,t1_Paradigm,2021.1.4,60.00508193125537,
K,right,Target,0,42,42,42,1504.173659512191,1506.1754280944588,right,1,2,0.5740145117742941,D09A11,2022-12-06_14h41.05.665,t1_Paradigm,2021.1.4,60.00508193125537,
B,left,Distractor,0,43,43,43,1507.673513547168,1509.6755243351217,left,1,2,0.4657790712080896,D09A11,2022-12-06_14h41.05.665,t1_Paradigm,2021.1.4,60.00508193125537,
N,left,Distractor,0,44,44,44,1511.173563271528,1513.1862663953798,left,1,2,0.5550432344898582,D09A11,2022-12-06_14h41.05.665,t1_Paradigm,2021.1.4,60.00508193125537,
S,left,Pretarget,0,45,45,45,1514.6737631312571,1516.6727125041652,left,1,2,0.8126114386832342,D09A11,2022-12-06_14h41.05.665,t1_Paradigm,2021.1.4,60.00508193125537,
Z,left,Distractor,0,46,46,46,1518.1735157928197,1520.1755894579692,left,1,2,0.8139613741077483,D09A11,2022-12-06_14h41.05.665,t1_Paradigm,2021.1.4,60.00508193125537,
S,right,Target,0,47,47,47,1521.673609787831,1523.6755977987777,right,1,2,0.6578433241229504,D09A11,2022-12-06_14h41.05.665,t1_Paradigm,2021.1.4,60.00508193125537,
C,left,Distractor,0,48,48,48,1525.173558780225,1527.1749764049891,left,1,2,0.55035823979415,D09A11,2022-12-06_14h41.05.665,t1_Paradigm,2021.1.4,60.00508193125537,
T,left,Pretarget,0,49,49,49,1528.6735530057922,1530.675673828926,left,1,2,0.8577736457809806,D09A11,2022-12-06_14h41.05.665,t1_Paradigm,2021.1.4,60.00508193125537,
S,left,Lure,0,50,50,50,1532.1735366448993,1534.1754527962767,left,1,2,0.7657656617229804,D09A11,2022-12-06_14h41.05.665,t1_Paradigm,2021.1.4,60.00508193125537,
T,right,Target,0,51,51,51,1535.6735218879767,1537.6755573777482,right,1,2,0.5779587744036689,D09A11,2022-12-06_14h41.05.665,t1_Paradigm,2021.1.4,60.00508193125537,
N,left,Pretarget,0,52,52,52,1539.1735411362024,1541.1753318537958,left,1,2,0.5179841690696776,D09A11,2022-12-06_14h41.05.665,t1_Paradigm,2021.1.4,60.00508193125537,
B,left,Distractor,0,53,53,53,1542.6735087351408,1544.6750604552217,left,1,2,0.5702794122043997,D09A11,2022-12-06_14h41.05.665,t1_Paradigm,2021.1.4,60.00508193125537,
N,right,Target,0,54,54,54,1546.1735854068538,1548.17581273627,right,1,2,0.5255230197217315,D09A11,2022-12-06_14h41.05.665,t1_Paradigm,2021.1.4,60.00508193125537,
N,left,Lure,0,55,55,55,1549.67346767243,1551.6736983292503,left,1,2,0.9160178443416953,D09A11,2022-12-06_14h41.05.665,t1_Paradigm,2021.1.4,60.00508193125537,
X,left,Distractor,0,56,56,56,1553.1735430610133,1555.1756318038097,left,1,2,0.469711464131251,D09A11,2022-12-06_14h41.05.665,t1_Paradigm,2021.1.4,60.00508193125537,
W,left,Distractor,0,57,57,57,1556.673611712642,1558.6757944505662,left,1,2,0.5375591960037127,D09A11,2022-12-06_14h41.05.665,t1_Paradigm,2021.1.4,60.00508193125537,
S,left,Distractor,0,58,58,58,1560.1735735371476,1562.1756994930329,left,1,2,0.557644619140774,D09A11,2022-12-06_14h41.05.665,t1_Paradigm,2021.1.4,60.00508193125537,
L,left,Distractor,0,59,59,59,1563.6725177773042,1565.6756016483996,left,1,2,0.5298977989004925,D09A11,2022-12-06_14h41.05.665,t1_Paradigm,2021.1.4,60.00508193125537,
K,left,Pretarget,0,60,60,60,1567.173520604847,1569.175341798691,left,1,2,0.742384958663024,D09A11,2022-12-06_14h41.05.665,t1_Paradigm,2021.1.4,60.00508193125537,
V,left,Pretarget,0,61,61,61,1570.673560705036,1572.6755840042606,left,1,2,0.5218360405415297,D09A11,2022-12-06_14h41.05.665,t1_Paradigm,2021.1.4,60.00508193125537,
K,right,Target,0,62,62,62,1574.1735934269382,1576.1751971169142,left,0,2,0.6701630894094706,D09A11,2022-12-06_14h41.05.665,t1_Paradigm,2021.1.4,60.00508193125537,
V,right,Target,0,63,63,63,1577.6735148304142,1579.6751823599916,None,0,2,,D09A11,2022-12-06_14h41.05.665,t1_Paradigm,2021.1.4,60.00508193125537,
R,left,Distractor,0,0,0,0,1710.9681016788818,1712.9577654333552,left,1,3,0.41571372386533767,D09A11,2022-12-06_14h41.05.665,t1_Paradigm,2021.1.4,60.00508193125537,
P,left,Lure,0,1,1,1,1714.4569913377054,1716.459018486552,left,1,3,0.40238824381958693,D09A11,2022-12-06_14h41.05.665,t1_Paradigm,2021.1.4,60.00508193125537,
V,left,Distractor,0,2,2,2,1717.9560584450373,1719.9589219251648,left,1,3,0.9024828803958371,D09A11,2022-12-06_14h41.05.665,t1_Paradigm,2021.1.4,60.00508193125537,
P,left,Pretarget,0,3,3,3,1721.4570109066553,1723.4586120302556,left,1,3,1.0668003129540011,D09A11,2022-12-06_14h41.05.665,t1_Paradigm,2021.1.4,60.00508193125537,
Z,left,Distractor,0,4,4,4,1724.956986525678,1726.9593457047595,left,1,3,0.6380982719128951,D09A11,2022-12-06_14h41.05.665,t1_Paradigm,2021.1.4,60.00508193125537,
L,left,Pretarget,0,5,5,5,1728.456979147275,1730.4580541552277,left,1,3,0.49928717757575214,D09A11,2022-12-06_14h41.05.665,t1_Paradigm,2021.1.4,60.00508193125537,
P,right,Target,0,6,6,6,1731.9568662248785,1733.9583752782783,left,0,3,0.9510308335302398,D09A11,2022-12-06_14h41.05.665,t1_Paradigm,2021.1.4,60.00508193125537,
S,left,Distractor,0,7,7,7,1735.4570054530632,1737.456114585395,left,1,3,0.6373466325458139,D09A11,2022-12-06_14h41.05.665,t1_Paradigm,2021.1.4,60.00508193125537,
L,right,Target,0,8,8,8,1738.9569271772634,1740.9591827372788,None,0,3,,D09A11,2022-12-06_14h41.05.665,t1_Paradigm,2021.1.4,60.00508193125537,
D,left,Distractor,0,9,9,9,1742.4569887713296,1744.4591897949576,left,1,3,1.0743487876607105,D09A11,2022-12-06_14h41.05.665,t1_Paradigm,2021.1.4,60.00508193125537,
G,left,Distractor,0,10,10,10,1745.957004169817,1747.958463819581,left,1,3,0.5669302376918495,D09A11,2022-12-06_14h41.05.665,t1_Paradigm,2021.1.4,60.00508193125537,
M,left,Pretarget,0,11,11,11,1749.4569999993546,1751.4589995592833,left,1,3,0.5384269658243284,D09A11,2022-12-06_14h41.05.665,t1_Paradigm,2021.1.4,60.00508193125537,
Y,left,Distractor,0,12,12,12,1752.9569496334298,1754.969793910277,left,1,3,1.1716365336906165,D09A11,2022-12-06_14h41.05.665,t1_Paradigm,2021.1.4,60.00508193125537,
V,left,Distractor,0,13,13,13,1756.4569528414868,1758.4592343864497,left,1,3,1.0583943338133395,D09A11,2022-12-06_14h41.05.665,t1_Paradigm,2021.1.4,60.00508193125537,
M,right,Target,0,14,14,14,1759.9569993577898,1761.9588247220963,left,0,3,0.8706374915782362,D09A11,2022-12-06_14h41.05.665,t1_Paradigm,2021.1.4,60.00508193125537,
S,left,Pretarget,0,15,15,15,1763.4569637487875,1765.4590531331487,None,0,3,,D09A11,2022-12-06_14h41.05.665,t1_Paradigm,2021.1.4,60.00508193125537,
Q,left,Distractor,0,16,16,16,1766.9569268565392,1768.9593848426593,left,1,3,0.782074922695756,D09A11,2022-12-06_14h41.05.665,t1_Paradigm,2021.1.4,60.00508193125537,
R,left,Pretarget,0,17,17,17,1770.4569201195845,1772.4584397594444,left,1,3,0.9151455832179636,D09A11,2022-12-06_14h41.05.665,t1_Paradigm,2021.1.4,60.00508193125537,
S,right,Target,0,18,18,18,1773.9570070570335,1775.9584323810413,left,0,3,1.3030249077128246,D09A11,2022-12-06_14h41.05.665,t1_Paradigm,2021.1.4,60.00508193125537,
F,left,Distractor,0,19,19,19,1777.457079558284,1779.4592032686342,left,1,3,1.3703147646738216,D09A11,2022-12-06_14h41.05.665,t1_Paradigm,2021.1.4,60.00508193125537,
R,right,Target,0,20,20,20,1780.9570176434936,1782.9585975941736,right,1,3,1.4548920083325356,D09A11,2022-12-06_14h41.05.665,t1_Paradigm,2021.1.4,60.00508193125537,
P,left,Distractor,0,21,21,21,1784.4568736032816,1786.4589941055747,left,1,3,0.8504182939650491,D09A11,2022-12-06_14h41.05.665,t1_Paradigm,2021.1.4,60.00508193125537,
L,left,Distractor,0,22,22,22,1787.9570314380107,1789.9591683011968,None,0,3,,D09A11,2022-12-06_14h41.05.665,t1_Paradigm,2021.1.4,60.00508193125537,
R,right,Target,0,23,23,23,1791.4570247011725,1793.4591583563015,left,0,3,1.2584821694763377,D09A11,2022-12-06_14h41.05.665,t1_Paradigm,2021.1.4,60.00508193125537,
H,left,Pretarget,0,24,24,24,1794.9570067361929,1796.95803715277,None,0,3,,D09A11,2022-12-06_14h41.05.665,t1_Paradigm,2021.1.4,60.00508193125537,
G,left,Pretarget,0,25,25,25,1798.457018605899,1800.4589299451327,left,1,3,1.1386407484533265,D09A11,2022-12-06_14h41.05.665,t1_Paradigm,2021.1.4,60.00508193125537,
T,left,Distractor,0,26,26,26,1801.9569919792702,1803.958754466381,left,1,3,0.790830896818079,D09A11,2022-12-06_14h41.05.665,t1_Paradigm,2021.1.4,60.00508193125537,
H,right,Target,0,27,27,27,1805.4571045808261,1807.4572537539061,left,0,3,0.796341315493919,D09A11,2022-12-06_14h41.05.665,t1_Paradigm,2021.1.4,60.00508193125537,
G,right,Target,0,28,28,28,1808.956931347726,1810.95850103267,right,1,3,1.182938072946854,D09A11,2022-12-06_14h41.05.665,t1_Paradigm,2021.1.4,60.00508193125537,
D,left,Distractor,0,29,29,29,1812.4569752976531,1814.4589386067819,left,1,3,0.7705732028698549,D09A11,2022-12-06_14h41.05.665,t1_Paradigm,2021.1.4,60.00508193125537,
N,left,Pretarget,0,30,30,30,1815.95694065094,1817.9588622559095,left,1,3,0.8545723611023277,D09A11,2022-12-06_14h41.05.665,t1_Paradigm,2021.1.4,60.00508193125537,
V,left,Distractor,0,31,31,31,1819.4570032074116,1821.4589158298913,left,1,3,0.8265214203856885,D09A11,2022-12-06_14h41.05.665,t1_Paradigm,2021.1.4,60.00508193125537,
R,left,Distractor,0,32,32,32,1822.9569483501837,1824.958561985055,left,1,3,1.0869505380978808,D09A11,2022-12-06_14h41.05.665,t1_Paradigm,2021.1.4,60.00508193125537,
N,right,Target,0,33,33,33,1826.4569663151633,1828.4698176496895,None,0,3,,D09A11,2022-12-06_14h41.05.665,t1_Paradigm,2021.1.4,60.00508193125537,
Z,left,Distractor,0,34,34,34,1829.956985242432,1831.9589062058367,left,1,3,0.7107657354790717,D09A11,2022-12-06_14h41.05.665,t1_Paradigm,2021.1.4,60.00508193125537,
N,left,Lure,0,35,35,35,1833.4569785055937,1835.458673945046,right,0,3,1.274900182383135,D09A11,2022-12-06_14h41.05.665,t1_Paradigm,2021.1.4,60.00508193125537,
Y,left,Pretarget,0,36,36,36,1836.9569817136507,1838.9590284314472,left,1,3,0.5745829732622951,D09A11,2022-12-06_14h41.05.665,t1_Paradigm,2021.1.4,60.00508193125537,
Y,left,Lure,0,37,37,37,1840.4570144354366,1842.4570978439879,left,1,3,0.8364002018934116,D09A11,2022-12-06_14h41.05.665,t1_Paradigm,2021.1.4,60.00508193125537,
B,left,Distractor,0,38,38,38,1843.9569573326735,1845.9585571730277,left,1,3,0.807058994891122,D09A11,2022-12-06_14h41.05.665,t1_Paradigm,2021.1.4,60.00508193125537,
Y,right,Target,0,39,39,39,1847.4569797888398,1849.4560651818756,right,1,3,0.6854271768825129,D09A11,2022-12-06_14h41.05.665,t1_Paradigm,2021.1.4,60.00508193125537,
J,left,Distractor,0,40,40,40,1850.9570243803319,1852.9590062961215,left,1,3,0.7504210527986288,D09A11,2022-12-06_14h41.05.665,t1_Paradigm,2021.1.4,60.00508193125537,
X,left,Distractor,0,41,41,41,1854.4569627862656,1856.4588677095016,left,1,3,0.5469137869076803,D09A11,2022-12-06_14h41.05.665,t1_Paradigm,2021.1.4,60.00508193125537,
W,left,Pretarget,0,42,42,42,1857.9570359291974,1859.9591121608391,left,1,3,0.9183430183911696,D09A11,2022-12-06_14h41.05.665,t1_Paradigm,2021.1.4,60.00508193125537,
S,left,Pretarget,0,43,43,43,1861.456736941589,1863.4590710981283,None,0,3,,D09A11,2022-12-06_14h41.05.665,t1_Paradigm,2021.1.4,60.00508193125537,
R,left,Distractor,0,44,44,44,1864.9570497237146,1866.9590229777386,left,1,3,0.5906031915219501,D09A11,2022-12-06_14h41.05.665,t1_Paradigm,2021.1.4,60.00508193125537,
W,right,Target,0,45,45,45,1868.456834465498,1870.4592398400418,left,0,3,0.994391736574471,D09A11,2022-12-06_14h41.05.665,t1_Paradigm,2021.1.4,60.00508193125537,
S,right,Target,0,46,46,46,1871.9570150771178,1873.958360200515,left,0,3,1.0794052712153643,D09A11,2022-12-06_14h41.05.665,t1_Paradigm,2021.1.4,60.00508193125537,
D,left,Distractor,0,47,47,47,1875.4570551773068,1877.4589674790623,left,1,3,0.8906221829820424,D09A11,2022-12-06_14h41.05.665,t1_Paradigm,2021.1.4,60.00508193125537,
T,left,Distractor,0,48,48,48,1878.9570070570335,1880.959311378887,left,1,3,1.0541472340701148,D09A11,2022-12-06_14h41.05.665,t1_Paradigm,2021.1.4,60.00508193125537,
S,right,Target,0,49,49,49,1882.456902475562,1884.458581554005,None,0,3,,D09A11,2022-12-06_14h41.05.665,t1_Paradigm,2021.1.4,60.00508193125537,
K,left,Distractor,0,50,50,50,1885.9569701647852,1887.958595348522,left,1,3,0.6630813817027956,D09A11,2022-12-06_14h41.05.665,t1_Paradigm,2021.1.4,60.00508193125537,
S,left,Lure,0,51,51,51,1889.4570628765505,1891.459015278495,left,1,3,1.4184482414275408,D09A11,2022-12-06_14h41.05.665,t1_Paradigm,2021.1.4,60.00508193125537,
T,left,Pretarget,0,52,52,52,1892.9570221346803,1894.9588661055313,left,1,3,0.9425969447474927,D09A11,2022-12-06_14h41.05.665,t1_Paradigm,2021.1.4,60.00508193125537,
V,left,Distractor,0,53,53,53,1896.4569534830516,1898.4591930028982,left,1,3,0.4666660892544314,D09A11,2022-12-06_14h41.05.665,t1_Paradigm,2021.1.4,60.00508193125537,
B,left,Distractor,0,54,54,54,1899.9569874880835,1901.9587207821896,left,1,3,0.5354018015787005,D09A11,2022-12-06_14h41.05.665,t1_Paradigm,2021.1.4,60.00508193125537,
T,right,Target,0,55,55,55,1903.4569088915596,1905.4589848023606,right,1,3,0.9545561285922304,D09A11,2022-12-06_14h41.05.665,t1_Paradigm,2021.1.4,60.00508193125537,
Y,left,Pretarget,0,56,56,56,1906.9569781848695,1908.9590082209324,left,1,3,0.9264933179365471,D09A11,2022-12-06_14h41.05.665,t1_Paradigm,2021.1.4,60.00508193125537,
T,left,Lure,0,57,57,57,1910.4570580645232,1912.4591038199142,left,1,3,0.7225054905284196,D09A11,2022-12-06_14h41.05.665,t1_Paradigm,2021.1.4,60.00508193125537,
P,left,Pretarget,0,58,58,58,1913.9569817136507,1915.958842366119,left,1,3,0.5346062121680006,D09A11,2022-12-06_14h41.05.665,t1_Paradigm,2021.1.4,60.00508193125537,
Y,right,Target,0,59,59,59,1917.4570741046919,1919.4592388776364,left,0,3,0.81065679108724,D09A11,2022-12-06_14h41.05.665,t1_Paradigm,2021.1.4,60.00508193125537,
R,left,Distractor,0,60,60,60,1920.9571158089675,1922.9584949373966,left,1,3,1.0388594071846455,D09A11,2022-12-06_14h41.05.665,t1_Paradigm,2021.1.4,60.00508193125537,
P,right,Target,0,61,61,61,1924.457045232528,1926.458638656768,left,0,3,0.9311523278011009,D09A11,2022-12-06_14h41.05.665,t1_Paradigm,2021.1.4,60.00508193125537,
L,left,Distractor,0,62,62,62,1927.956999678514,1929.958531829645,left,1,3,0.6791253392584622,D09A11,2022-12-06_14h41.05.665,t1_Paradigm,2021.1.4,60.00508193125537,
V,left,Distractor,0,63,63,63,1931.4571928015212,1933.4590351682855,left,1,3,1.018544610356912,D09A11,2022-12-06_14h41.05.665,t1_Paradigm,2021.1.4,60.00508193125537,
H,left,Lure,0,0,0,0,2022.6157207173528,2024.6090162730543,left,1,3,0.39671453670598567,D09A11,2022-12-06_14h41.05.665,t1_Paradigm,2021.1.4,60.00508193125537,
B,left,Distractor,0,1,1,1,2026.107096272055,2028.1090278219199,left,1,3,0.9126940132118762,D09A11,2022-12-06_14h41.05.665,t1_Paradigm,2021.1.4,60.00508193125537,
T,left,Distractor,0,2,2,2,2029.6070991592715,2031.6093110902002,left,1,3,0.5322534490842372,D09A11,2022-12-06_14h41.05.665,t1_Paradigm,2021.1.4,60.00508193125537,
R,left,Distractor,0,3,3,3,2033.1069929738296,2035.1092292856192,left,1,3,1.2244315866846591,D09A11,2022-12-06_14h41.05.665,t1_Paradigm,2021.1.4,60.00508193125537,
H,left,Pretarget,0,4,4,4,2036.607200853643,2038.6089922129177,left,1,3,0.6525805646087974,D09A11,2022-12-06_14h41.05.665,t1_Paradigm,2021.1.4,60.00508193125537,
K,left,Distractor,0,5,5,5,2040.1071620365838,2042.108251480735,left,1,3,0.49749325192533433,D09A11,2022-12-06_14h41.05.665,t1_Paradigm,2021.1.4,60.00508193125537,
G,left,Distractor,0,6,6,6,2043.6070789487567,2045.6086374056758,left,1,3,0.6131177286151797,D09A11,2022-12-06_14h41.05.665,t1_Paradigm,2021.1.4,60.00508193125537,
H,right,Target,0,7,7,7,2047.10694485344,2049.1089052754687,right,1,3,0.8564342969330028,D09A11,2022-12-06_14h41.05.665,t1_Paradigm,2021.1.4,60.00508193125537,
Y,left,Pretarget,0,8,8,8,2050.606892562704,2052.6087182478514,left,1,3,0.5249808642547578,D09A11,2022-12-06_14h41.05.665,t1_Paradigm,2021.1.4,60.00508193125537,
S,left,Distractor,0,9,9,9,2054.107046226971,2056.10899927048,left,1,3,0.49694179301150143,D09A11,2022-12-06_14h41.05.665,t1_Paradigm,2021.1.4,60.00508193125537,
P,left,Distractor,0,10,10,10,2057.6061319408473,2059.6086149495095,left,1,3,0.5169595269253477,D09A11,2022-12-06_14h41.05.665,t1_Paradigm,2021.1.4,60.00508193125537,
Y,right,Target,0,11,11,11,2061.1070629087044,2063.1090223682113,right,1,3,0.7925571332452819,D09A11,2022-12-06_14h41.05.665,t1_Paradigm,2021.1.4,60.00508193125537,
H,left,Lure,0,12,12,12,2064.607010938693,2066.6093223183416,left,1,3,0.7322665378451347,D09A11,2022-12-06_14h41.05.665,t1_Paradigm,2021.1.4,60.00508193125537,
Q,left,Distractor,0,13,13,13,2068.1071030088933,2070.1089675110998,left,1,3,0.6887346471194178,D09A11,2022-12-06_14h41.05.665,t1_Paradigm,2021.1.4,60.00508193125537,
V,left,Pretarget,0,14,14,14,2071.6070998009527,2073.608988042455,left,1,3,1.2365899885771796,D09A11,2022-12-06_14h41.05.665,t1_Paradigm,2021.1.4,60.00508193125537,
G,left,Distractor,0,15,15,15,2075.107020883588,2077.1076329741627,left,1,3,0.7460966396611184,D09A11,2022-12-06_14h41.05.665,t1_Paradigm,2021.1.4,60.00508193125537,
Z,left,Pretarget,0,16,16,16,2078.6070917808684,2080.605999449501,left,1,3,0.607626237324439,D09A11,2022-12-06_14h41.05.665,t1_Paradigm,2021.1.4,60.00508193125537,
V,right,Target,0,17,17,17,2082.1071783974767,2084.109183090157,left,0,3,0.8484020523028448,D09A11,2022-12-06_14h41.05.665,t1_Paradigm,2021.1.4,60.00508193125537,
N,left,Distractor,0,18,18,18,2085.6071081417613,2087.6199607595336,left,1,3,0.5538575497921556,D09A11,2022-12-06_14h41.05.665,t1_Paradigm,2021.1.4,60.00508193125537,
Z,right,Target,0,19,19,19,2089.1072111192625,2091.1090361627284,right,1,3,0.4886638140305877,D09A11,2022-12-06_14h41.05.665,t1_Paradigm,2021.1.4,60.00508193125537,
R,left,Distractor,0,20,20,20,2092.6061730034417,2094.6064424773213,left,1,3,0.6551742501324043,D09A11,2022-12-06_14h41.05.665,t1_Paradigm,2021.1.4,60.00508193125537,
P,left,Distractor,0,21,21,21,2096.107110066572,2098.1086858467897,left,1,3,0.7529460866935551,D09A11,2022-12-06_14h41.05.665,t1_Paradigm,2021.1.4,60.00508193125537,
Z,right,Target,0,22,22,22,2099.60711359547,2101.60913015774,right,1,3,0.916461513726972,D09A11,2022-12-06_14h41.05.665,t1_Paradigm,2021.1.4,60.00508193125537,
D,left,Pretarget,0,23,23,23,2103.107188663096,2105.109006328159,left,1,3,0.6005615321919322,D09A11,2022-12-06_14h41.05.665,t1_Paradigm,2021.1.4,60.00508193125537,
K,left,Distractor,0,24,24,24,2106.607039810973,2108.6089777767193,left,1,3,0.6846254923148081,D09A11,2022-12-06_14h41.05.665,t1_Paradigm,2021.1.4,60.00508193125537,
W,left,Distractor,0,25,25,25,2110.107092422433,2112.1090753006283,left,1,3,0.9605917003937066,D09A11,2022-12-06_14h41.05.665,t1_Paradigm,2021.1.4,60.00508193125537,
D,right,Target,0,26,26,26,2113.6070645126747,2115.6091009648517,right,1,3,0.6126936281798407,D09A11,2022-12-06_14h41.05.665,t1_Paradigm,2021.1.4,60.00508193125537,
G,left,Pretarget,0,27,27,27,2117.1070212044287,2119.1062868882436,left,1,3,0.8432669722242281,D09A11,2022-12-06_14h41.05.665,t1_Paradigm,2021.1.4,60.00508193125537,
V,left,Distractor,0,28,28,28,2120.607092743274,2122.609104493633,left,1,3,1.1807425030274317,D09A11,2022-12-06_14h41.05.665,t1_Paradigm,2021.1.4,60.00508193125537,
D,right,Target,0,29,29,29,2124.1070949889254,2126.1089104083367,left,0,3,0.9607896353118122,D09A11,2022-12-06_14h41.05.665,t1_Paradigm,2021.1.4,60.00508193125537,
G,right,Target,0,30,30,30,2127.607032111613,2129.608513896819,None,0,3,,D09A11,2022-12-06_14h41.05.665,t1_Paradigm,2021.1.4,60.00508193125537,
B,left,Pretarget,0,31,31,31,2131.107068683137,2133.1086877716007,left,1,3,0.9048029215773568,D09A11,2022-12-06_14h41.05.665,t1_Paradigm,2021.1.4,60.00508193125537,
N,left,Distractor,0,32,32,32,2134.6071254650597,2136.6089745687786,left,1,3,0.5567338619148359,D09A11,2022-12-06_14h41.05.665,t1_Paradigm,2021.1.4,60.00508193125537,
F,left,Distractor,0,33,33,33,2138.1070564925903,2140.1092129247263,left,1,3,0.6245123004773632,D09A11,2022-12-06_14h41.05.665,t1_Paradigm,2021.1.4,60.00508193125537,
B,right,Target,0,34,34,34,2141.606928171823,2143.607831229805,right,1,3,1.4139752968912944,D09A11,2022-12-06_14h41.05.665,t1_Paradigm,2021.1.4,60.00508193125537,
Q,left,Pretarget,0,35,35,35,2145.107122257119,2147.1092575162183,left,1,3,0.7125458667287603,D09A11,2022-12-06_14h41.05.665,t1_Paradigm,2021.1.4,60.00508193125537,
S,left,Pretarget,0,36,36,36,2148.607137334766,2150.6086778267054,left,1,3,0.5730498597258702,D09A11,2022-12-06_14h41.05.665,t1_Paradigm,2021.1.4,60.00508193125537,
W,left,Distractor,0,37,37,37,2152.106159529765,2154.1089213156374,left,1,3,1.1366472837980837,D09A11,2022-12-06_14h41.05.665,t1_Paradigm,2021.1.4,60.00508193125537,
Q,right,Target,0,38,38,38,2155.6071235402487,2157.609202979831,right,1,3,0.8204701291397214,D09A11,2022-12-06_14h41.05.665,t1_Paradigm,2021.1.4,60.00508193125537,
S,right,Target,0,39,39,39,2159.107225876185,2161.1086290648673,right,1,3,0.6973010273650289,D09A11,2022-12-06_14h41.05.665,t1_Paradigm,2021.1.4,60.00508193125537,
T,left,Distractor,0,40,40,40,2162.607045585406,2164.6237215232104,left,1,3,0.5579981432529166,D09A11,2022-12-06_14h41.05.665,t1_Paradigm,2021.1.4,60.00508193125537,
G,left,Distractor,0,41,41,41,2166.107088893652,2168.1093681929633,left,1,3,0.5124519357923418,D09A11,2022-12-06_14h41.05.665,t1_Paradigm,2021.1.4,60.00508193125537,
D,left,Distractor,0,42,42,42,2169.607070607948,2171.6089806639357,left,1,3,0.5006310179596767,D09A11,2022-12-06_14h41.05.665,t1_Paradigm,2021.1.4,60.00508193125537,
S,left,Lure,0,43,43,43,2173.1072037408594,2175.1090746590635,left,1,3,0.5686221482465044,D09A11,2022-12-06_14h41.05.665,t1_Paradigm,2021.1.4,60.00508193125537,
Z,left,Pretarget,0,44,44,44,2176.607106537791,2178.609118929715,left,1,3,0.5725946414750069,D09A11,2022-12-06_14h41.05.665,t1_Paradigm,2021.1.4,60.00508193125537,
J,left,Distractor,0,45,45,45,2180.1070792695973,2182.1085873605916,left,1,3,0.5291708611184731,D09A11,2022-12-06_14h41.05.665,t1_Paradigm,2021.1.4,60.00508193125537,
M,left,Pretarget,0,46,46,46,2183.606933625415,2185.6092478921637,left,1,3,0.5483689456013963,D09A11,2022-12-06_14h41.05.665,t1_Paradigm,2021.1.4,60.00508193125537,
Z,right,Target,0,47,47,47,2187.107280091732,2189.108967190259,right,1,3,0.552667373791337,D09A11,2022-12-06_14h41.05.665,t1_Paradigm,2021.1.4,60.00508193125537,
P,left,Distractor,0,48,48,48,2190.606848612777,2192.607664733543,left,1,3,0.5900613566627726,D09A11,2022-12-06_14h41.05.665,t1_Paradigm,2021.1.4,60.00508193125537,
M,right,Target,0,49,49,49,2194.107147600502,2196.108712794143,right,1,3,0.9769102645805106,D09A11,2022-12-06_14h41.05.665,t1_Paradigm,2021.1.4,60.00508193125537,
K,left,Distractor,0,50,50,50,2197.6070401316974,2199.6091875813436,left,1,3,0.8204775076592341,D09A11,2022-12-06_14h41.05.665,t1_Paradigm,2021.1.4,60.00508193125537,
Y,left,Distractor,0,51,51,51,2201.1071382971713,2203.108963019913,left,1,3,0.664785482804291,D09A11,2022-12-06_14h41.05.665,t1_Paradigm,2021.1.4,60.00508193125537,
X,left,Distractor,0,52,52,52,2204.6071267483057,2206.60896911507,left,1,3,0.5408015433931723,D09A11,2022-12-06_14h41.05.665,t1_Paradigm,2021.1.4,60.00508193125537,
F,left,Pretarget,0,53,53,53,2208.107107821037,2210.109202338266,left,1,3,0.6245232078945264,D09A11,2022-12-06_14h41.05.665,t1_Paradigm,2021.1.4,60.00508193125537,
M,left,Lure,0,54,54,54,2211.607147921226,2213.6093604937196,left,1,3,0.9003036713693291,D09A11,2022-12-06_14h41.05.665,t1_Paradigm,2021.1.4,60.00508193125537,
V,left,Distractor,0,55,55,55,2215.1072040615836,2217.1091718620155,left,1,3,0.5204944459255785,D09A11,2022-12-06_14h41.05.665,t1_Paradigm,2021.1.4,60.00508193125537,
F,right,Target,0,56,56,56,2218.607083760784,2220.6091378571,right,1,3,0.9885903503745794,D09A11,2022-12-06_14h41.05.665,t1_Paradigm,2021.1.4,60.00508193125537,
S,left,Distractor,0,57,57,57,2222.107102046488,2224.109381025075,left,1,3,0.5763265329878777,D09A11,2022-12-06_14h41.05.665,t1_Paradigm,2021.1.4,60.00508193125537,
D,left,Distractor,0,58,58,58,2225.607256352436,2227.6088757616235,left,1,3,0.8367970342515036,D09A11,2022-12-06_14h41.05.665,t1_Paradigm,2021.1.4,60.00508193125537,
F,right,Target,0,59,59,59,2229.1071091041667,2231.1082578967325,right,1,3,0.8096145049203187,D09A11,2022-12-06_14h41.05.665,t1_Paradigm,2021.1.4,60.00508193125537,
V,left,Pretarget,0,60,60,60,2232.606172361877,2234.6085703580175,left,1,3,0.47762533265631646,D09A11,2022-12-06_14h41.05.665,t1_Paradigm,2021.1.4,60.00508193125537,
J,left,Distractor,0,61,61,61,2236.107028582832,2238.1086803931976,left,1,3,0.5291561043122783,D09A11,2022-12-06_14h41.05.665,t1_Paradigm,2021.1.4,60.00508193125537,
V,left,Lure,0,62,62,62,2239.606951269554,2241.6093171854736,left,1,3,0.9806302863871679,D09A11,2022-12-06_14h41.05.665,t1_Paradigm,2021.1.4,60.00508193125537,
V,right,Target,0,63,63,63,2243.1070507181576,2245.106917264522,left,0,3,0.9707024220842868,D09A11,2022-12-06_14h41.05.665,t1_Paradigm,2021.1.4,60.00508193125537,
R,left,Distractor,0,0,0,0,2407.565190206864,2409.558995517087,None,0,4,,D09A11,2022-12-06_14h41.05.665,t1_Paradigm,2021.1.4,60.00508193125537,
F,left,Distractor,0,1,1,1,2411.0571181828855,2413.058492820128,left,1,4,0.5393239287659526,D09A11,2022-12-06_14h41.05.665,t1_Paradigm,2021.1.4,60.00508193125537,
P,left,Pretarget,0,2,2,2,2414.557119145291,2416.5595100837527,left,1,4,0.6063314797356725,D09A11,2022-12-06_14h41.05.665,t1_Paradigm,2021.1.4,60.00508193125537,
H,left,Distractor,0,3,3,3,2418.057146734325,2420.0592659533722,left,1,4,0.3865197648992762,D09A11,2022-12-06_14h41.05.665,t1_Paradigm,2021.1.4,60.00508193125537,
Z,left,Distractor,0,4,4,4,2421.557107917266,2423.5592120585497,left,1,4,0.5025022567715496,D09A11,2022-12-06_14h41.05.665,t1_Paradigm,2021.1.4,60.00508193125537,
T,left,Distractor,0,5,5,5,2425.0572343132226,2427.05930252478,left,1,4,0.8587354107294232,D09A11,2022-12-06_14h41.05.665,t1_Paradigm,2021.1.4,60.00508193125537,
P,right,Target,0,6,6,6,2428.5572089699563,2430.5588678378845,right,1,4,1.1189588943962008,D09A11,2022-12-06_14h41.05.665,t1_Paradigm,2021.1.4,60.00508193125537,
G,left,Distractor,0,7,7,7,2432.057192608947,2434.0589480383787,left,1,4,0.9791735237231478,D09A11,2022-12-06_14h41.05.665,t1_Paradigm,2021.1.4,60.00508193125537,
L,left,Distractor,0,8,8,8,2435.5571983833797,2437.559127046028,left,1,4,0.7589726760052145,D09A11,2022-12-06_14h41.05.665,t1_Paradigm,2021.1.4,60.00508193125537,
P,left,Lure,0,9,9,9,2439.0572179523297,2441.0590016123606,left,1,4,1.370774153387174,D09A11,2022-12-06_14h41.05.665,t1_Paradigm,2021.1.4,60.00508193125537,
Q,left,Pretarget,0,10,10,10,2442.556999806897,2444.5590054619825,left,1,4,0.7507370429811999,D09A11,2022-12-06_14h41.05.665,t1_Paradigm,2021.1.4,60.00508193125537,
D,left,Distractor,0,11,11,11,2446.0572060826235,2448.073584636906,left,1,4,0.6762888066004962,D09A11,2022-12-06_14h41.05.665,t1_Paradigm,2021.1.4,60.00508193125537,
M,left,Pretarget,0,12,12,12,2449.5571935713524,2451.5591799783288,left,1,4,1.270621964824386,D09A11,2022-12-06_14h41.05.665,t1_Paradigm,2021.1.4,60.00508193125537,
C,left,Distractor,0,13,13,13,2453.0571207492612,2455.058179717278,left,1,4,0.5716530871577561,D09A11,2022-12-06_14h41.05.665,t1_Paradigm,2021.1.4,60.00508193125537,
Q,right,Target,0,14,14,14,2456.5569334008032,2458.559209492174,right,1,4,1.0545809586765245,D09A11,2022-12-06_14h41.05.665,t1_Paradigm,2021.1.4,60.00508193125537,
R,left,Distractor,0,15,15,15,2460.057212819578,2462.0589759481372,left,1,4,1.0268363838549703,D09A11,2022-12-06_14h41.05.665,t1_Paradigm,2021.1.4,60.00508193125537,
M,right,Target,0,16,16,16,2463.557200949872,2465.559432449634,left,0,4,1.238412786507979,D09A11,2022-12-06_14h41.05.665,t1_Paradigm,2021.1.4,60.00508193125537,
S,left,Distractor,0,17,17,17,2467.0571390350815,2469.059455868206,left,1,4,0.8263051996473223,D09A11,2022-12-06_14h41.05.665,t1_Paradigm,2021.1.4,60.00508193125537,
Z,left,Distractor,0,18,18,18,2470.557222764357,2472.5591520685703,left,1,4,0.6866250522434711,D09A11,2022-12-06_14h41.05.665,t1_Paradigm,2021.1.4,60.00508193125537,
L,left,Pretarget,0,19,19,19,2474.0572728095576,2476.05933268019,left,1,4,0.9303204878233373,D09A11,2022-12-06_14h41.05.665,t1_Paradigm,2021.1.4,60.00508193125537,
M,right,Target,0,20,20,20,2477.5571319774026,2479.5592903343495,right,1,4,0.7745277311187238,D09A11,2022-12-06_14h41.05.665,t1_Paradigm,2021.1.4,60.00508193125537,
P,left,Distractor,0,21,21,21,2481.056971255457,2483.0591418029508,left,1,4,0.6506304083159193,D09A11,2022-12-06_14h41.05.665,t1_Paradigm,2021.1.4,60.00508193125537,
F,left,Distractor,0,22,22,22,2484.557170152897,2486.5591389157344,left,1,4,1.0707128159701824,D09A11,2022-12-06_14h41.05.665,t1_Paradigm,2021.1.4,60.00508193125537,
L,right,Target,0,23,23,23,2488.0573141929926,2490.059187998413,left,0,4,1.2505897948285565,D09A11,2022-12-06_14h41.05.665,t1_Paradigm,2021.1.4,60.00508193125537,
L,left,Lure,0,24,24,24,2491.55722853879,2493.557315796963,left,1,4,1.1125082045327872,D09A11,2022-12-06_14h41.05.665,t1_Paradigm,2021.1.4,60.00508193125537,
V,left,Pretarget,0,25,25,25,2495.0571416014573,2497.0576802282594,left,1,4,0.7160769361071289,D09A11,2022-12-06_14h41.05.665,t1_Paradigm,2021.1.4,60.00508193125537,
Z,left,Distractor,0,26,26,26,2498.557190042571,2500.559489873238,left,1,4,0.6863077788148075,D09A11,2022-12-06_14h41.05.665,t1_Paradigm,2021.1.4,60.00508193125537,
H,left,Distractor,0,27,27,27,2502.057193250628,2504.0593997278484,left,1,4,1.2983822588576004,D09A11,2022-12-06_14h41.05.665,t1_Paradigm,2021.1.4,60.00508193125537,
X,left,Distractor,0,28,28,28,2505.5573042480974,2507.558813301497,left,1,4,0.6631493917666376,D09A11,2022-12-06_14h41.05.665,t1_Paradigm,2021.1.4,60.00508193125537,
V,right,Target,0,29,29,29,2509.057197741815,2511.0590609607752,right,1,4,0.9225897974101827,D09A11,2022-12-06_14h41.05.665,t1_Paradigm,2021.1.4,60.00508193125537,
C,left,Distractor,0,30,30,30,2512.557309701806,2514.5590984945884,left,1,4,1.0387801689794287,D09A11,2022-12-06_14h41.05.665,t1_Paradigm,2021.1.4,60.00508193125537,
S,left,Pretarget,0,31,31,31,2516.0569497618126,2518.058910825406,left,1,4,1.0269483438460156,D09A11,2022-12-06_14h41.05.665,t1_Paradigm,2021.1.4,60.00508193125537,
D,left,Distractor,0,32,32,32,2519.557143847109,2521.5577286693733,left,1,4,1.1121450564824045,D09A11,2022-12-06_14h41.05.665,t1_Paradigm,2021.1.4,60.00508193125537,
V,left,Distractor,0,33,33,33,2523.057227897225,2525.0594279584475,right,0,4,0.586375018930994,D09A11,2022-12-06_14h41.05.665,t1_Paradigm,2021.1.4,60.00508193125537,
R,left,Distractor,0,34,34,34,2526.5571698320564,2528.559295467101,left,1,4,0.8626678036525846,D09A11,2022-12-06_14h41.05.665,t1_Paradigm,2021.1.4,60.00508193125537,
S,right,Target,0,35,35,35,2530.0572388045257,2532.0593923494453,None,0,4,,D09A11,2022-12-06_14h41.05.665,t1_Paradigm,2021.1.4,60.00508193125537,
Y,left,Distractor,0,36,36,36,2533.5569516866235,2535.559397482197,left,1,4,1.0945529077434912,D09A11,2022-12-06_14h41.05.665,t1_Paradigm,2021.1.4,60.00508193125537,
N,left,Pretarget,0,37,37,37,2537.0572070451453,2539.0588088103104,left,1,4,0.6669659750768915,D09A11,2022-12-06_14h41.05.665,t1_Paradigm,2021.1.4,60.00508193125537,
Z,left,Pretarget,0,38,38,38,2540.5571855513845,2542.559147256543,left,1,4,0.9107637464767322,D09A11,2022-12-06_14h41.05.665,t1_Paradigm,2021.1.4,60.00508193125537,
P,left,Pretarget,0,39,39,39,2544.0571784937056,2546.058558905381,left,1,4,1.1712781976675615,D09A11,2022-12-06_14h41.05.665,t1_Paradigm,2021.1.4,60.00508193125537,
M,left,Distractor,0,40,40,40,2547.5571464134846,2549.55830707564,left,1,4,0.9514321570750326,D09A11,2022-12-06_14h41.05.665,t1_Paradigm,2021.1.4,60.00508193125537,
N,right,Target,0,41,41,41,2551.057233350817,2553.0594423945295,None,0,4,,D09A11,2022-12-06_14h41.05.665,t1_Paradigm,2021.1.4,60.00508193125537,
Z,right,Target,0,42,42,42,2554.557195175439,2556.5590324093355,right,1,4,1.1347940097330138,D09A11,2022-12-06_14h41.05.665,t1_Paradigm,2021.1.4,60.00508193125537,
P,right,Target,0,43,43,43,2558.0572663934436,2560.0581739428453,left,0,4,0.931775325560011,D09A11,2022-12-06_14h41.05.665,t1_Paradigm,2021.1.4,60.00508193125537,
X,left,Pretarget,0,44,44,44,2561.5572715263115,2563.5589156374335,left,1,4,1.0150228443089873,D09A11,2022-12-06_14h41.05.665,t1_Paradigm,2021.1.4,60.00508193125537,
Z,left,Lure,0,45,45,45,2565.0572198771406,2567.058995517087,None,0,4,,D09A11,2022-12-06_14h41.05.665,t1_Paradigm,2021.1.4,60.00508193125537,
R,left,Pretarget,0,46,46,46,2568.5572041578125,2570.5592778230784,left,1,4,1.2947373046772555,D09A11,2022-12-06_14h41.05.665,t1_Paradigm,2021.1.4,60.00508193125537,
K,left,Distractor,0,47,47,47,2572.057284358423,2574.059259537258,left,1,4,0.5468910100171342,D09A11,2022-12-06_14h41.05.665,t1_Paradigm,2021.1.4,60.00508193125537,
X,right,Target,0,48,48,48,2575.557222764357,2577.5563155359123,left,0,4,0.6977145412238315,D09A11,2022-12-06_14h41.05.665,t1_Paradigm,2021.1.4,60.00508193125537,
B,left,Distractor,0,49,49,49,2579.0565070548328,2581.0594045398757,left,1,4,0.7626141014043242,D09A11,2022-12-06_14h41.05.665,t1_Paradigm,2021.1.4,60.00508193125537,
R,right,Target,0,50,50,50,2582.5572965488536,2584.5592014720896,right,1,4,0.8469988637370989,D09A11,2022-12-06_14h41.05.665,t1_Paradigm,2021.1.4,60.00508193125537,
Y,left,Pretarget,0,51,51,51,2586.0572166692,2588.058774484438,left,1,4,0.5792022035457194,D09A11,2022-12-06_14h41.05.665,t1_Paradigm,2021.1.4,60.00508193125537,
W,left,Pretarget,0,52,52,52,2589.5572179523297,2591.559168108739,left,1,4,0.9346699233865365,D09A11,2022-12-06_14h41.05.665,t1_Paradigm,2021.1.4,60.00508193125537,
Z,left,Distractor,0,53,53,53,2593.0573305538855,2595.059452660149,left,1,4,0.6983734688255936,D09A11,2022-12-06_14h41.05.665,t1_Paradigm,2021.1.4,60.00508193125537,
Q,left,Distractor,0,54,54,54,2596.5572195564164,2598.5594379033428,left,1,4,0.6065242817858234,D09A11,2022-12-06_14h41.05.665,t1_Paradigm,2021.1.4,60.00508193125537,
Y,right,Target,0,55,55,55,2600.057379957405,2602.0594157679006,left,0,4,0.6905244024237618,D09A11,2022-12-06_14h41.05.665,t1_Paradigm,2021.1.4,60.00508193125537,
W,right,Target,0,56,56,56,2603.5572663934436,2605.559186715167,left,0,4,0.9026121635688469,D09A11,2022-12-06_14h41.05.665,t1_Paradigm,2021.1.4,60.00508193125537,
H,left,Pretarget,0,57,57,57,2607.057105350774,2609.059415126336,left,1,4,0.746686594793573,D09A11,2022-12-06_14h41.05.665,t1_Paradigm,2021.1.4,60.00508193125537,
M,left,Distractor,0,58,58,58,2610.557193250628,2612.5592280987184,left,1,4,1.0387221039272845,D09A11,2022-12-06_14h41.05.665,t1_Paradigm,2021.1.4,60.00508193125537,
R,left,Pretarget,0,59,59,59,2614.0562667739578,2616.058766785194,left,1,4,0.8191073616035283,D09A11,2022-12-06_14h41.05.665,t1_Paradigm,2021.1.4,60.00508193125537,
J,left,Distractor,0,60,60,60,2617.5571765688946,2619.5593342841603,left,1,4,0.5664939468260854,D09A11,2022-12-06_14h41.05.665,t1_Paradigm,2021.1.4,60.00508193125537,
H,right,Target,0,61,61,61,2621.0573879774893,2623.0592264946317,None,0,4,,D09A11,2022-12-06_14h41.05.665,t1_Paradigm,2021.1.4,60.00508193125537,
Z,left,Distractor,0,62,62,62,2624.556986654061,2626.55941255996,left,1,4,0.9905559052713215,D09A11,2022-12-06_14h41.05.665,t1_Paradigm,2021.1.4,60.00508193125537,
R,right,Target,0,63,63,63,2628.057193892193,2630.0589214118663,None,0,4,,D09A11,2022-12-06_14h41.05.665,t1_Paradigm,2021.1.4,60.00508193125537,
J,left,Pretarget,0,0,0,0,2795.869447636418,2797.859205385903,left,1,4,0.7148521133931354,D09A11,2022-12-06_14h41.05.665,t1_Paradigm,2021.1.4,60.00508193125537,
G,left,Pretarget,0,1,1,1,2799.357232452603,2801.358920513536,left,1,4,0.5269784992560744,D09A11,2022-12-06_14h41.05.665,t1_Paradigm,2021.1.4,60.00508193125537,
Z,left,Distractor,0,2,2,2,2802.857238868717,2804.859391451115,left,1,4,0.3865117449313402,D09A11,2022-12-06_14h41.05.665,t1_Paradigm,2021.1.4,60.00508193125537,
F,left,Distractor,0,3,3,3,2806.3574121018173,2808.3591887041694,left,1,4,0.5347534604370594,D09A11,2022-12-06_14h41.05.665,t1_Paradigm,2021.1.4,60.00508193125537,
J,right,Target,0,4,4,4,2809.857325485209,2811.859075781773,right,1,4,0.5708931067492813,D09A11,2022-12-06_14h41.05.665,t1_Paradigm,2021.1.4,60.00508193125537,
G,right,Target,0,5,5,5,2813.357286026585,2815.3592313708505,right,1,4,0.7986924746073782,D09A11,2022-12-06_14h41.05.665,t1_Paradigm,2021.1.4,60.00508193125537,
H,left,Distractor,0,6,6,6,2816.857175991405,2818.856397083844,left,1,4,0.6295626888750121,D09A11,2022-12-06_14h41.05.665,t1_Paradigm,2021.1.4,60.00508193125537,
P,left,Distractor,0,7,7,7,2820.357324843644,2822.3563666075934,left,1,4,1.0177461338462308,D09A11,2022-12-06_14h41.05.665,t1_Paradigm,2021.1.4,60.00508193125537,
G,left,Lure,0,8,8,8,2823.857299821102,2825.8591232605977,left,1,4,1.0668153906008229,D09A11,2022-12-06_14h41.05.665,t1_Paradigm,2021.1.4,60.00508193125537,
S,left,Distractor,0,9,9,9,2827.3572687032865,2829.358987561194,left,1,4,0.8314851920586079,D09A11,2022-12-06_14h41.05.665,t1_Paradigm,2021.1.4,60.00508193125537,
R,left,Pretarget,0,10,10,10,2830.857210638118,2832.8593667494133,left,1,4,1.4425254059024155,D09A11,2022-12-06_14h41.05.665,t1_Paradigm,2021.1.4,60.00508193125537,
T,left,Pretarget,0,11,11,11,2834.357046387391,2836.3595117519144,left,1,4,0.7105799909913912,D09A11,2022-12-06_14h41.05.665,t1_Paradigm,2021.1.4,60.00508193125537,
X,left,Distractor,0,12,12,12,2837.85735756543,2839.8591774761444,left,1,4,0.5228462466038764,D09A11,2022-12-06_14h41.05.665,t1_Paradigm,2021.1.4,60.00508193125537,
F,left,Pretarget,0,13,13,13,2841.3573402421316,2843.3593584084883,left,1,4,0.7825756948441267,D09A11,2022-12-06_14h41.05.665,t1_Paradigm,2021.1.4,60.00508193125537,
R,right,Target,0,14,14,14,2844.85736815189,2846.8593917719554,right,1,4,0.8025530077284202,D09A11,2022-12-06_14h41.05.665,t1_Paradigm,2021.1.4,60.00508193125537,
T,right,Target,0,15,15,15,2848.357220582897,2850.358060442959,right,1,4,0.6801961769815534,D09A11,2022-12-06_14h41.05.665,t1_Paradigm,2021.1.4,60.00508193125537,
C,left,Distractor,0,16,16,16,2851.8571516104275,2853.859322799486,left,1,4,0.5866650241659954,D09A11,2022-12-06_14h41.05.665,t1_Paradigm,2021.1.4,60.00508193125537,
F,right,Target,0,17,17,17,2855.357348262216,2857.3591415463015,right,1,4,0.9428176566725597,D09A11,2022-12-06_14h41.05.665,t1_Paradigm,2021.1.4,60.00508193125537,
M,left,Distractor,0,18,18,18,2858.8573617358925,2860.859215330798,left,1,4,0.5788756269030273,D09A11,2022-12-06_14h41.05.665,t1_Paradigm,2021.1.4,60.00508193125537,
N,left,Distractor,0,19,19,19,2862.3572905177716,2864.3592596014496,left,1,4,0.6148282457143068,D09A11,2022-12-06_14h41.05.665,t1_Paradigm,2021.1.4,60.00508193125537,
R,left,Lure,0,20,20,20,2865.8574566933094,2867.8593712406,left,1,4,0.5546489686239511,D09A11,2022-12-06_14h41.05.665,t1_Paradigm,2021.1.4,60.00508193125537,
F,right,Target,0,21,21,21,2869.3573447333183,2871.358989486005,None,0,4,,D09A11,2022-12-06_14h41.05.665,t1_Paradigm,2021.1.4,60.00508193125537,
P,left,Distractor,0,22,22,22,2872.857337675756,2874.8591649648733,left,1,4,0.6427508657798171,D09A11,2022-12-06_14h41.05.665,t1_Paradigm,2021.1.4,60.00508193125537,
L,left,Pretarget,0,23,23,23,2876.3572805729927,2878.370175215765,left,1,4,0.5876630396815017,D09A11,2022-12-06_14h41.05.665,t1_Paradigm,2021.1.4,60.00508193125537,
T,left,Distractor,0,24,24,24,2879.85728538502,2881.8564131238963,left,1,4,0.6855702546890825,D09A11,2022-12-06_14h41.05.665,t1_Paradigm,2021.1.4,60.00508193125537,
F,left,Distractor,0,25,25,25,2883.3573007835075,2885.3593930552015,right,0,4,0.49474686465691775,D09A11,2022-12-06_14h41.05.665,t1_Paradigm,2021.1.4,60.00508193125537,
V,left,Distractor,0,26,26,26,2886.8573505078675,2888.8595550602768,left,1,4,0.6263735946267843,D09A11,2022-12-06_14h41.05.665,t1_Paradigm,2021.1.4,60.00508193125537,
L,right,Target,0,27,27,27,2890.3572706280975,2892.3592596014496,right,1,4,0.7426675853785127,D09A11,2022-12-06_14h41.05.665,t1_Paradigm,2021.1.4,60.00508193125537,
S,left,Pretarget,0,28,28,28,2893.8571654049447,2895.859132242971,left,1,4,0.522965584998019,D09A11,2022-12-06_14h41.05.665,t1_Paradigm,2021.1.4,60.00508193125537,
W,left,Distractor,0,29,29,29,2897.357366227079,2899.359021245502,left,1,4,0.9269825413357466,D09A11,2022-12-06_14h41.05.665,t1_Paradigm,2021.1.4,60.00508193125537,
Q,left,Distractor,0,30,30,30,2900.8573081619106,2902.8594504788052,left,1,4,0.6105753715382889,D09A11,2022-12-06_14h41.05.665,t1_Paradigm,2021.1.4,60.00508193125537,
L,right,Target,0,31,31,31,2904.357492623152,2906.358347240137,left,0,4,1.31966555735562,D09A11,2022-12-06_14h41.05.665,t1_Paradigm,2021.1.4,60.00508193125537,
S,right,Target,0,32,32,32,2907.8573065579403,2909.8592502982356,None,0,4,,D09A11,2022-12-06_14h41.05.665,t1_Paradigm,2021.1.4,60.00508193125537,
Z,left,Pretarget,0,33,33,33,2911.3573703975417,2913.3593609749805,left,1,4,0.6384030340705067,D09A11,2022-12-06_14h41.05.665,t1_Paradigm,2021.1.4,60.00508193125537,
F,left,Distractor,0,34,34,34,2914.8572173749562,2916.8594398922287,left,1,4,0.6106825193855911,D09A11,2022-12-06_14h41.05.665,t1_Paradigm,2021.1.4,60.00508193125537,
V,left,Distractor,0,35,35,35,2918.357347620651,2920.3587296362966,left,1,4,0.503231440205127,D09A11,2022-12-06_14h41.05.665,t1_Paradigm,2021.1.4,60.00508193125537,
M,left,Distractor,0,36,36,36,2921.8573331844527,2923.8593552005477,left,1,4,0.602618194767274,D09A11,2022-12-06_14h41.05.665,t1_Paradigm,2021.1.4,60.00508193125537,
Z,right,Target,0,37,37,37,2925.357320031617,2927.3595569850877,right,1,4,0.7184351526666433,D09A11,2022-12-06_14h41.05.665,t1_Paradigm,2021.1.4,60.00508193125537,
H,left,Pretarget,0,38,38,38,2928.857384192059,2930.8594873710535,left,1,4,0.5946648676181212,D09A11,2022-12-06_14h41.05.665,t1_Paradigm,2021.1.4,60.00508193125537,
L,left,Distractor,0,39,39,39,2932.357301745913,2934.359588744468,left,1,4,1.1424124194309115,D09A11,2022-12-06_14h41.05.665,t1_Paradigm,2021.1.4,60.00508193125537,
G,left,Distractor,0,40,40,40,2935.857284101774,2937.859187741764,left,1,4,0.5548632645513862,D09A11,2022-12-06_14h41.05.665,t1_Paradigm,2021.1.4,60.00508193125537,
K,left,Distractor,0,41,41,41,2939.3573864377104,2941.3590363231488,left,1,4,0.6227158084511757,D09A11,2022-12-06_14h41.05.665,t1_Paradigm,2021.1.4,60.00508193125537,
H,right,Target,0,42,42,42,2942.857345054159,2944.8591678520897,left,0,4,0.6269372440874577,D09A11,2022-12-06_14h41.05.665,t1_Paradigm,2021.1.4,60.00508193125537,
B,left,Distractor,0,43,43,43,2946.357347620651,2948.3593022681307,left,1,4,0.5187518486054614,D09A11,2022-12-06_14h41.05.665,t1_Paradigm,2021.1.4,60.00508193125537,
Z,left,Distractor,0,44,44,44,2949.857228923822,2951.8594010751694,left,1,4,0.5067301085218787,D09A11,2022-12-06_14h41.05.665,t1_Paradigm,2021.1.4,60.00508193125537,
T,left,Pretarget,0,45,45,45,2953.3572901970474,2955.3592634510715,left,1,4,0.6865448516327888,D09A11,2022-12-06_14h41.05.665,t1_Paradigm,2021.1.4,60.00508193125537,
H,right,Target,0,46,46,46,2956.857475299854,2958.8594078120077,left,0,4,0.6588493596063927,D09A11,2022-12-06_14h41.05.665,t1_Paradigm,2021.1.4,60.00508193125537,
F,left,Distractor,0,47,47,47,2960.3574326331727,2962.3594042832265,left,1,4,0.614476325805299,D09A11,2022-12-06_14h41.05.665,t1_Paradigm,2021.1.4,60.00508193125537,
R,left,Distractor,0,48,48,48,2963.857293084264,2965.859317987459,left,1,4,0.554727885988541,D09A11,2022-12-06_14h41.05.665,t1_Paradigm,2021.1.4,60.00508193125537,
T,right,Target,0,49,49,49,2967.357387079275,2969.3594607444247,left,0,4,0.5425268175313249,D09A11,2022-12-06_14h41.05.665,t1_Paradigm,2021.1.4,60.00508193125537,
H,right,Target,0,50,50,50,2970.857355640619,2972.8590048844926,left,0,4,0.6111277928575873,D09A11,2022-12-06_14h41.05.665,t1_Paradigm,2021.1.4,60.00508193125537,
Y,left,Pretarget,0,51,51,51,2974.35748716956,2976.359126147814,left,1,4,0.6152706319699064,D09A11,2022-12-06_14h41.05.665,t1_Paradigm,2021.1.4,60.00508193125537,
H,left,Distractor,0,52,52,52,2977.857323239674,2979.8591376966797,left,1,4,1.035109229851514,D09A11,2022-12-06_14h41.05.665,t1_Paradigm,2021.1.4,60.00508193125537,
S,left,Distractor,0,53,53,53,2981.357222507708,2983.359248694149,left,1,4,1.0069132865173742,D09A11,2022-12-06_14h41.05.665,t1_Paradigm,2021.1.4,60.00508193125537,
Q,left,Distractor,0,54,54,54,2984.857384192059,2986.8565231590765,left,1,4,0.837555410573259,D09A11,2022-12-06_14h41.05.665,t1_Paradigm,2021.1.4,60.00508193125537,
Y,right,Target,0,55,55,55,2988.357113114209,2990.3592628095066,left,0,4,0.48677557264454663,D09A11,2022-12-06_14h41.05.665,t1_Paradigm,2021.1.4,60.00508193125537,
R,left,Distractor,0,56,56,56,2991.8572975754505,2993.8592621678254,left,1,4,0.5388526703463867,D09A11,2022-12-06_14h41.05.665,t1_Paradigm,2021.1.4,60.00508193125537,
H,left,Pretarget,0,57,57,57,2995.3573630191386,2997.359207310714,left,1,4,0.6066288633737713,D09A11,2022-12-06_14h41.05.665,t1_Paradigm,2021.1.4,60.00508193125537,
J,left,Distractor,0,58,58,58,2998.85736654792,3000.8591697769007,left,1,4,0.7548949597403407,D09A11,2022-12-06_14h41.05.665,t1_Paradigm,2021.1.4,60.00508193125537,
V,left,Distractor,0,59,59,59,3002.3573623774573,3004.3587139169686,left,1,4,0.5033363425172865,D09A11,2022-12-06_14h41.05.665,t1_Paradigm,2021.1.4,60.00508193125537,
Y,left,Lure,0,60,60,60,3005.8573460165644,3007.8593487844337,left,1,4,0.44261875934898853,D09A11,2022-12-06_14h41.05.665,t1_Paradigm,2021.1.4,60.00508193125537,
H,right,Target,0,61,61,61,3009.357404723414,3011.3579362925375,right,1,4,0.5441038808785379,D09A11,2022-12-06_14h41.05.665,t1_Paradigm,2021.1.4,60.00508193125537,
L,left,Distractor,0,62,62,62,3012.857180482708,3014.8592865488026,left,1,4,0.594902582000941,D09A11,2022-12-06_14h41.05.665,t1_Paradigm,2021.1.4,60.00508193125537,
P,left,Distractor,0,63,63,63,3016.35718433233,3018.359244844527,left,1,4,0.48682337219361216,D09A11,2022-12-06_14h41.05.665,t1_Paradigm,2021.1.4,60.00508193125537,
