Letter,CorrAnswer,Stimulus,nback_run.thisRepN,nback_run.thisTrialN,nback_run.thisN,nback_run.thisIndex,fixcross.started,nback_trial.started,trial_resp.keys,trial_resp.corr,currentlevel,trial_resp.rt,Participant,date,expName,psychopyVersion,frameRate,
H,left,Distractor,0,0,0,0,355.99043366732076,357.93817845731974,None,0,1,,D11D08,2022-11-01_14h49.02.287,t1_Paradigm,2021.1.4,59.9844515277031,
Q,left,Pretarget,0,1,1,1,359.4381768532912,361.43560626229737,None,0,1,,D11D08,2022-11-01_14h49.02.287,t1_Paradigm,2021.1.4,59.9844515277031,
Q,right,Target,0,2,2,2,362.9346050375025,364.93469678703696,right,1,1,1.0512652132310905,D11D08,2022-11-01_14h49.02.287,t1_Paradigm,2021.1.4,59.9844515277031,
T,left,Distractor,0,3,3,3,366.43441897199955,368.43654172262177,left,1,1,0.9416209897608496,D11D08,2022-11-01_14h49.02.287,t1_Paradigm,2021.1.4,59.9844515277031,
Q,left,Lure,0,4,4,4,369.9345116839395,371.9348350529326,None,0,1,,D11D08,2022-11-01_14h49.02.287,t1_Paradigm,2021.1.4,59.9844515277031,
L,left,Distractor,0,5,5,5,373.43447735806694,375.4368095927639,left,1,1,0.7892894928809255,D11D08,2022-11-01_14h49.02.287,t1_Paradigm,2021.1.4,59.9844515277031,
V,left,Pretarget,0,6,6,6,376.9345966966357,378.9365202288027,left,1,1,0.5854704665835015,D11D08,2022-11-01_14h49.02.287,t1_Paradigm,2021.1.4,59.9844515277031,
V,right,Target,0,7,7,7,380.4345569171128,382.43449211498955,right,1,1,1.0075921136885881,D11D08,2022-11-01_14h49.02.287,t1_Paradigm,2021.1.4,59.9844515277031,
K,left,Distractor,0,8,8,8,383.9346858797362,385.93636881001294,left,1,1,0.897714345890563,D11D08,2022-11-01_14h49.02.287,t1_Paradigm,2021.1.4,59.9844515277031,
G,left,Pretarget,0,9,9,9,387.43423354811966,389.43685899634147,left,1,1,0.8052340222639032,D11D08,2022-11-01_14h49.02.287,t1_Paradigm,2021.1.4,59.9844515277031,
G,right,Target,0,10,10,10,390.93460054625757,392.9348680956173,right,1,1,0.843274149519857,D11D08,2022-11-01_14h49.02.287,t1_Paradigm,2021.1.4,59.9844515277031,
G,right,Target,0,11,11,11,394.43434037535917,396.4341815781081,right,1,1,0.7678265176364221,D11D08,2022-11-01_14h49.02.287,t1_Paradigm,2021.1.4,59.9844515277031,
P,left,Pretarget,0,12,12,12,397.934580656467,399.93633961700834,left,1,1,0.9940888918354176,D11D08,2022-11-01_14h49.02.287,t1_Paradigm,2021.1.4,59.9844515277031,
P,right,Target,0,13,13,13,401.4335993214045,403.4344135183492,right,1,1,0.7757073536049575,D11D08,2022-11-01_14h49.02.287,t1_Paradigm,2021.1.4,59.9844515277031,
G,left,Lure,0,14,14,14,404.9345614083577,406.9362350353622,left,1,1,0.8257487050723284,D11D08,2022-11-01_14h49.02.287,t1_Paradigm,2021.1.4,59.9844515277031,
Y,left,Distractor,0,15,15,15,408.43419248535065,410.4379949582508,left,1,1,1.0360363944200799,D11D08,2022-11-01_14h49.02.287,t1_Paradigm,2021.1.4,59.9844515277031,
B,left,Distractor,0,16,16,16,411.93473335850285,413.93740853114286,left,1,1,0.8970307155977935,D11D08,2022-11-01_14h49.02.287,t1_Paradigm,2021.1.4,59.9844515277031,
T,left,Pretarget,0,17,17,17,415.43447318760445,417.43608233332634,left,1,1,0.7580542297801003,D11D08,2022-11-01_14h49.02.287,t1_Paradigm,2021.1.4,59.9844515277031,
T,right,Target,0,18,18,18,418.934455222683,420.935800027044,right,1,1,0.5543696196982637,D11D08,2022-11-01_14h49.02.287,t1_Paradigm,2021.1.4,59.9844515277031,
S,left,Distractor,0,19,19,19,422.43453157367185,424.4372016135021,left,1,1,0.6689019120531157,D11D08,2022-11-01_14h49.02.287,t1_Paradigm,2021.1.4,59.9844515277031,
T,left,Lure,0,20,20,20,425.93450494710123,427.9368987758644,left,1,1,1.1852500110398978,D11D08,2022-11-01_14h49.02.287,t1_Paradigm,2021.1.4,59.9844515277031,
J,left,Distractor,0,21,21,21,429.4344895485556,431.4338906101766,left,1,1,1.080321585352067,D11D08,2022-11-01_14h49.02.287,t1_Paradigm,2021.1.4,59.9844515277031,
P,left,Distractor,0,22,22,22,432.9348437145818,434.93644933146425,left,1,1,0.6176145633799024,D11D08,2022-11-01_14h49.02.287,t1_Paradigm,2021.1.4,59.9844515277031,
F,left,Distractor,0,23,23,23,436.43434614979196,438.4370097735664,left,1,1,0.5093642270658165,D11D08,2022-11-01_14h49.02.287,t1_Paradigm,2021.1.4,59.9844515277031,
L,left,Distractor,0,24,24,24,439.93464706261875,441.9369459338486,left,1,1,0.5772944922791794,D11D08,2022-11-01_14h49.02.287,t1_Paradigm,2021.1.4,59.9844515277031,
W,left,Pretarget,0,25,25,25,443.4336333264946,445.4366902541951,left,1,1,0.6775655062519945,D11D08,2022-11-01_14h49.02.287,t1_Paradigm,2021.1.4,59.9844515277031,
W,right,Target,0,26,26,26,446.9346900501405,448.93509843182983,right,1,1,0.7791887031053193,D11D08,2022-11-01_14h49.02.287,t1_Paradigm,2021.1.4,59.9844515277031,
V,left,Distractor,0,27,27,27,450.43465989473043,452.4366126199602,left,1,1,0.6215578686096705,D11D08,2022-11-01_14h49.02.287,t1_Paradigm,2021.1.4,59.9844515277031,
W,left,Lure,0,28,28,28,453.93459445098415,455.93802928412333,left,1,1,0.7680908589973114,D11D08,2022-11-01_14h49.02.287,t1_Paradigm,2021.1.4,59.9844515277031,
R,left,Pretarget,0,29,29,29,457.4344690172002,459.4364502938697,left,1,1,0.6140334442607127,D11D08,2022-11-01_14h49.02.287,t1_Paradigm,2021.1.4,59.9844515277031,
R,right,Target,0,30,30,30,460.93421173351817,462.9346711228136,right,1,1,0.8436228619539179,D11D08,2022-11-01_14h49.02.287,t1_Paradigm,2021.1.4,59.9844515277031,
G,left,Distractor,0,31,31,31,464.4344959646114,466.4362587747164,left,1,1,0.7338609038852155,D11D08,2022-11-01_14h49.02.287,t1_Paradigm,2021.1.4,59.9844515277031,
R,left,Lure,0,32,32,32,467.9347250176361,469.93814830185147,left,1,1,0.7200792253715917,D11D08,2022-11-01_14h49.02.287,t1_Paradigm,2021.1.4,59.9844515277031,
S,left,Distractor,0,33,33,33,471.4344998142333,473.43567170604365,left,1,1,0.9988624340621755,D11D08,2022-11-01_14h49.02.287,t1_Paradigm,2021.1.4,59.9844515277031,
R,left,Lure,0,34,34,34,474.93473335850285,476.9376866669627,left,1,1,0.9684654280426912,D11D08,2022-11-01_14h49.02.287,t1_Paradigm,2021.1.4,59.9844515277031,
P,left,Pretarget,0,35,35,35,478.4346300601028,480.43639960704604,left,1,1,0.6857292901258916,D11D08,2022-11-01_14h49.02.287,t1_Paradigm,2021.1.4,59.9844515277031,
P,right,Target,0,36,36,36,481.9345235536457,483.93517895328114,right,1,1,0.850945501413662,D11D08,2022-11-01_14h49.02.287,t1_Paradigm,2021.1.4,59.9844515277031,
Y,left,Pretarget,0,37,37,37,485.43451713758986,487.43574067857116,left,1,1,0.5503534923773259,D11D08,2022-11-01_14h49.02.287,t1_Paradigm,2021.1.4,59.9844515277031,
Y,right,Target,0,38,38,38,488.93473913293565,490.93485173466615,right,1,1,0.5393820444587618,D11D08,2022-11-01_14h49.02.287,t1_Paradigm,2021.1.4,59.9844515277031,
J,left,Distractor,0,39,39,39,492.43464096734533,494.436726825661,left,1,1,0.5734612223459408,D11D08,2022-11-01_14h49.02.287,t1_Paradigm,2021.1.4,59.9844515277031,
Y,left,Lure,0,40,40,40,495.9345033430727,497.93527294840897,left,1,1,0.947047044406645,D11D08,2022-11-01_14h49.02.287,t1_Paradigm,2021.1.4,59.9844515277031,
T,left,Distractor,0,41,41,41,499.4342848765082,501.4363142735674,left,1,1,0.5659095298615284,D11D08,2022-11-01_14h49.02.287,t1_Paradigm,2021.1.4,59.9844515277031,
V,left,Distractor,0,42,42,42,502.9346422505914,504.9357689092285,left,1,1,0.7306108530028723,D11D08,2022-11-01_14h49.02.287,t1_Paradigm,2021.1.4,59.9844515277031,
N,left,Pretarget,0,43,43,43,506.43433139286935,508.4374059647089,left,1,1,0.5567945663351566,D11D08,2022-11-01_14h49.02.287,t1_Paradigm,2021.1.4,59.9844515277031,
N,right,Target,0,44,44,44,509.93454055616166,511.9345209872117,right,1,1,0.6917886090232059,D11D08,2022-11-01_14h49.02.287,t1_Paradigm,2021.1.4,59.9844515277031,
N,right,Target,0,45,45,45,513.4346274936688,515.4345880349283,right,1,1,0.7116071503260173,D11D08,2022-11-01_14h49.02.287,t1_Paradigm,2021.1.4,59.9844515277031,
X,left,Distractor,0,46,46,46,516.9346810677089,518.9363758676918,left,1,1,0.5538730173720978,D11D08,2022-11-01_14h49.02.287,t1_Paradigm,2021.1.4,59.9844515277031,
Z,left,Distractor,0,47,47,47,520.4345370273222,522.4362796269124,left,1,1,0.6060377610265277,D11D08,2022-11-01_14h49.02.287,t1_Paradigm,2021.1.4,59.9844515277031,
H,left,Pretarget,0,48,48,48,523.9346833133022,525.934677218087,left,1,1,0.7397254956304096,D11D08,2022-11-01_14h49.02.287,t1_Paradigm,2021.1.4,59.9844515277031,
H,right,Target,0,49,49,49,527.4344885861501,529.4346127367462,right,1,1,0.6318376662093215,D11D08,2022-11-01_14h49.02.287,t1_Paradigm,2021.1.4,59.9844515277031,
K,left,Distractor,0,50,50,50,530.9345861101174,532.93678745738,left,1,1,0.6494340080535039,D11D08,2022-11-01_14h49.02.287,t1_Paradigm,2021.1.4,59.9844515277031,
V,left,Pretarget,0,51,51,51,534.4346762556233,536.4360656515928,left,1,1,0.6542649739421904,D11D08,2022-11-01_14h49.02.287,t1_Paradigm,2021.1.4,59.9844515277031,
V,right,Target,0,52,52,52,537.9345537090558,539.9343734180438,right,1,1,0.5960309664369561,D11D08,2022-11-01_14h49.02.287,t1_Paradigm,2021.1.4,59.9844515277031,
R,left,Distractor,0,53,53,53,541.4346242856118,543.4363543738727,left,1,1,0.581778991385363,D11D08,2022-11-01_14h49.02.287,t1_Paradigm,2021.1.4,59.9844515277031,
V,left,Lure,0,54,54,54,544.9345710324124,546.9359700524365,left,1,1,0.4903845845256001,D11D08,2022-11-01_14h49.02.287,t1_Paradigm,2021.1.4,59.9844515277031,
Y,left,Distractor,0,55,55,55,548.4345716740354,550.4366931414115,left,1,1,0.8297545667737722,D11D08,2022-11-01_14h49.02.287,t1_Paradigm,2021.1.4,59.9844515277031,
Q,left,Distractor,0,56,56,56,551.9345960550127,553.9363954366418,left,1,1,0.4982634956832044,D11D08,2022-11-01_14h49.02.287,t1_Paradigm,2021.1.4,59.9844515277031,
Z,left,Pretarget,0,57,57,57,555.4346246064524,557.4367348457454,left,1,1,0.4535779431462288,D11D08,2022-11-01_14h49.02.287,t1_Paradigm,2021.1.4,59.9844515277031,
Z,right,Target,0,58,58,58,558.9346133783692,560.9345918845502,right,1,1,1.1158485452178866,D11D08,2022-11-01_14h49.02.287,t1_Paradigm,2021.1.4,59.9844515277031,
B,left,Distractor,0,59,59,59,562.4344613179564,564.4357717964449,left,1,1,0.6066524187335745,D11D08,2022-11-01_14h49.02.287,t1_Paradigm,2021.1.4,59.9844515277031,
S,left,Pretarget,0,60,60,60,565.9346505914582,567.9337584394962,left,1,1,0.6606867997907102,D11D08,2022-11-01_14h49.02.287,t1_Paradigm,2021.1.4,59.9844515277031,
S,right,Target,0,61,61,61,569.4348501306376,571.4348016894655,right,1,1,0.5833191645797342,D11D08,2022-11-01_14h49.02.287,t1_Paradigm,2021.1.4,59.9844515277031,
T,left,Distractor,0,62,62,62,572.9344346913276,574.9337699883617,left,1,1,1.0685243915650062,D11D08,2022-11-01_14h49.02.287,t1_Paradigm,2021.1.4,59.9844515277031,
D,left,Distractor,0,63,63,63,576.4343894581543,578.4377229176462,left,1,1,0.5086539701442234,D11D08,2022-11-01_14h49.02.287,t1_Paradigm,2021.1.4,59.9844515277031,
R,left,Distractor,0,0,0,0,590.8261301392922,592.819367621094,left,1,1,0.8631574928876944,D11D08,2022-11-01_14h49.02.287,t1_Paradigm,2021.1.4,59.9844515277031,
V,left,Distractor,0,1,1,1,594.3178640194819,596.3201224695658,left,1,1,0.6583497530664317,D11D08,2022-11-01_14h49.02.287,t1_Paradigm,2021.1.4,59.9844515277031,
N,left,Pretarget,0,2,2,2,597.8181383056799,599.8201856676606,left,1,1,0.6783550013788044,D11D08,2022-11-01_14h49.02.287,t1_Paradigm,2021.1.4,59.9844515277031,
N,right,Target,0,3,3,3,601.318041102495,603.3180388569017,right,1,1,0.6361348166246898,D11D08,2022-11-01_14h49.02.287,t1_Paradigm,2021.1.4,59.9844515277031,
S,left,Distractor,0,4,4,4,604.817988170078,606.8179580146098,left,1,1,1.024422378919553,D11D08,2022-11-01_14h49.02.287,t1_Paradigm,2021.1.4,59.9844515277031,
N,left,Lure,0,5,5,5,608.3180532929837,610.3199444241473,left,1,1,0.738450305419974,D11D08,2022-11-01_14h49.02.287,t1_Paradigm,2021.1.4,59.9844515277031,
Z,left,Distractor,0,6,6,6,611.8171649906435,613.8197047846043,left,1,1,0.5990429817466065,D11D08,2022-11-01_14h49.02.287,t1_Paradigm,2021.1.4,59.9844515277031,
L,left,Pretarget,0,7,7,7,615.3178906461108,617.3198295768234,left,1,1,0.8906643885420635,D11D08,2022-11-01_14h49.02.287,t1_Paradigm,2021.1.4,59.9844515277031,
L,right,Target,0,8,8,8,618.8181880300399,620.81817231077,right,1,1,0.704200460575521,D11D08,2022-11-01_14h49.02.287,t1_Paradigm,2021.1.4,59.9844515277031,
H,left,Distractor,0,9,9,9,622.3180616338504,624.3177626458346,left,1,1,0.6284968282561749,D11D08,2022-11-01_14h49.02.287,t1_Paradigm,2021.1.4,59.9844515277031,
L,left,Lure,0,10,10,10,625.8177719491068,627.8197699075681,left,1,1,0.4706500935717486,D11D08,2022-11-01_14h49.02.287,t1_Paradigm,2021.1.4,59.9844515277031,
X,left,Pretarget,0,11,11,11,629.318020250299,631.3196287543979,left,1,1,0.890904990490526,D11D08,2022-11-01_14h49.02.287,t1_Paradigm,2021.1.4,59.9844515277031,
X,right,Target,0,12,12,12,632.8180847316398,634.8180516889552,right,1,1,1.1043853070004843,D11D08,2022-11-01_14h49.02.287,t1_Paradigm,2021.1.4,59.9844515277031,
X,right,Target,0,13,13,13,636.3181758395513,638.3181078294292,None,0,1,,D11D08,2022-11-01_14h49.02.287,t1_Paradigm,2021.1.4,59.9844515277031,
R,left,Distractor,0,14,14,14,639.8179965109448,641.8194369144621,left,1,1,0.7116607243078761,D11D08,2022-11-01_14h49.02.287,t1_Paradigm,2021.1.4,59.9844515277031,
T,left,Distractor,0,15,15,15,643.3181116790511,645.3196367744822,left,1,1,0.7629820780130103,D11D08,2022-11-01_14h49.02.287,t1_Paradigm,2021.1.4,59.9844515277031,
V,left,Pretarget,0,16,16,16,646.8182306968374,648.8195482329465,None,0,1,,D11D08,2022-11-01_14h49.02.287,t1_Paradigm,2021.1.4,59.9844515277031,
V,right,Target,0,17,17,17,650.3181229071342,652.3180552177946,right,1,1,0.8683724594884552,D11D08,2022-11-01_14h49.02.287,t1_Paradigm,2021.1.4,59.9844515277031,
N,left,Distractor,0,18,18,18,653.8182124110754,655.8200348904938,None,0,1,,D11D08,2022-11-01_14h49.02.287,t1_Paradigm,2021.1.4,59.9844515277031,
B,left,Distractor,0,19,19,19,657.3181453633006,659.3198940581642,left,1,1,0.650534040061757,D11D08,2022-11-01_14h49.02.287,t1_Paradigm,2021.1.4,59.9844515277031,
V,left,Lure,0,20,20,20,660.8178056334145,662.8201702691731,left,1,1,0.8784244872513227,D11D08,2022-11-01_14h49.02.287,t1_Paradigm,2021.1.4,59.9844515277031,
P,left,Distractor,0,21,21,21,664.3179214431439,666.3202129359124,left,1,1,0.7862598333740607,D11D08,2022-11-01_14h49.02.287,t1_Paradigm,2021.1.4,59.9844515277031,
K,left,Pretarget,0,22,22,22,667.8182066366426,669.8194519922254,left,1,1,0.5990827612695284,D11D08,2022-11-01_14h49.02.287,t1_Paradigm,2021.1.4,59.9844515277031,
K,right,Target,0,23,23,23,671.3182348672417,673.3181630074396,right,1,1,0.8604361247271299,D11D08,2022-11-01_14h49.02.287,t1_Paradigm,2021.1.4,59.9844515277031,
J,left,Pretarget,0,24,24,24,674.8182672683033,676.8200586298481,left,1,1,0.8625896723242477,D11D08,2022-11-01_14h49.02.287,t1_Paradigm,2021.1.4,59.9844515277031,
J,right,Target,0,25,25,25,678.3181399097084,680.318113603862,right,1,1,0.5805897762766108,D11D08,2022-11-01_14h49.02.287,t1_Paradigm,2021.1.4,59.9844515277031,
H,left,Distractor,0,26,26,26,681.8181071878062,683.8201099582948,left,1,1,0.5823256389703602,D11D08,2022-11-01_14h49.02.287,t1_Paradigm,2021.1.4,59.9844515277031,
J,left,Lure,0,27,27,27,685.3172166398726,687.3205099990591,left,1,1,0.9060998042696156,D11D08,2022-11-01_14h49.02.287,t1_Paradigm,2021.1.4,59.9844515277031,
V,left,Distractor,0,28,28,28,688.817882305244,690.8197522634291,left,1,1,0.511327217973303,D11D08,2022-11-01_14h49.02.287,t1_Paradigm,2021.1.4,59.9844515277031,
Z,left,Pretarget,0,29,29,29,692.3181761603919,694.3186179054901,left,1,1,0.8198959829751402,D11D08,2022-11-01_14h49.02.287,t1_Paradigm,2021.1.4,59.9844515277031,
Z,right,Target,0,30,30,30,695.8179532025824,697.8181934836903,right,1,1,0.8723042157944292,D11D08,2022-11-01_14h49.02.287,t1_Paradigm,2021.1.4,59.9844515277031,
T,left,Distractor,0,31,31,31,699.3179140646826,701.3189887533081,left,1,1,0.9236060005496256,D11D08,2022-11-01_14h49.02.287,t1_Paradigm,2021.1.4,59.9844515277031,
Z,left,Lure,0,32,32,32,702.8182092030183,704.8200207751361,left,1,1,1.2466965354979038,D11D08,2022-11-01_14h49.02.287,t1_Paradigm,2021.1.4,59.9844515277031,
F,left,Distractor,0,33,33,33,706.3182188271312,708.3192341672257,left,1,1,1.0119065874023363,D11D08,2022-11-01_14h49.02.287,t1_Paradigm,2021.1.4,59.9844515277031,
Y,left,Pretarget,0,34,34,34,709.8181636490626,711.8202812668169,left,1,1,1.126259871874936,D11D08,2022-11-01_14h49.02.287,t1_Paradigm,2021.1.4,59.9844515277031,
Y,right,Target,0,35,35,35,713.3182120902347,715.318078315584,right,1,1,0.4926083879545331,D11D08,2022-11-01_14h49.02.287,t1_Paradigm,2021.1.4,59.9844515277031,
Y,right,Target,0,36,36,36,716.8182460953249,718.8181960501242,right,1,1,0.4327475906466134,D11D08,2022-11-01_14h49.02.287,t1_Paradigm,2021.1.4,59.9844515277031,
W,left,Distractor,0,37,37,37,720.3183317496441,722.3202273719944,left,1,1,0.6903279949328862,D11D08,2022-11-01_14h49.02.287,t1_Paradigm,2021.1.4,59.9844515277031,
Q,left,Distractor,0,38,38,38,723.8180218543275,725.8189396705129,left,1,1,0.8716411169152707,D11D08,2022-11-01_14h49.02.287,t1_Paradigm,2021.1.4,59.9844515277031,
P,left,Pretarget,0,39,39,39,727.3182072782074,729.3201593618724,left,1,1,0.506477003917098,D11D08,2022-11-01_14h49.02.287,t1_Paradigm,2021.1.4,59.9844515277031,
P,right,Target,0,40,40,40,730.8183599802433,732.8175297431881,right,1,1,0.8652356519596651,D11D08,2022-11-01_14h49.02.287,t1_Paradigm,2021.1.4,59.9844515277031,
J,left,Distractor,0,41,41,41,734.3182942157146,736.3201754019829,left,1,1,1.058543581981212,D11D08,2022-11-01_14h49.02.287,t1_Paradigm,2021.1.4,59.9844515277031,
P,left,Lure,0,42,42,42,737.8183195590973,739.8204015677911,left,1,1,0.7262351059471257,D11D08,2022-11-01_14h49.02.287,t1_Paradigm,2021.1.4,59.9844515277031,
L,left,Distractor,0,43,43,43,741.3182553985971,743.3200150007033,left,1,1,1.2106995998183265,D11D08,2022-11-01_14h49.02.287,t1_Paradigm,2021.1.4,59.9844515277031,
Z,left,Distractor,0,44,44,44,744.8179515985539,746.8199001533794,left,1,1,0.6227512541809119,D11D08,2022-11-01_14h49.02.287,t1_Paradigm,2021.1.4,59.9844515277031,
F,left,Pretarget,0,45,45,45,748.3182553985971,750.3201109207002,left,1,1,1.4425179537502117,D11D08,2022-11-01_14h49.02.287,t1_Paradigm,2021.1.4,59.9844515277031,
F,right,Target,0,46,46,46,751.8183763411944,753.8182849124423,right,1,1,0.5203722464502789,D11D08,2022-11-01_14h49.02.287,t1_Paradigm,2021.1.4,59.9844515277031,
G,left,Pretarget,0,47,47,47,755.3182845916599,757.3202228807495,left,1,1,0.6184990160982125,D11D08,2022-11-01_14h49.02.287,t1_Paradigm,2021.1.4,59.9844515277031,
G,right,Target,0,48,48,48,758.8182833084138,760.8181963709649,right,1,1,0.7364141715224832,D11D08,2022-11-01_14h49.02.287,t1_Paradigm,2021.1.4,59.9844515277031,
V,left,Distractor,0,49,49,49,762.3182842708193,764.3191607034532,left,1,1,0.46739170188084245,D11D08,2022-11-01_14h49.02.287,t1_Paradigm,2021.1.4,59.9844515277031,
G,left,Lure,0,50,50,50,765.8182377544581,767.8204808060545,left,1,1,0.9822073270333931,D11D08,2022-11-01_14h49.02.287,t1_Paradigm,2021.1.4,59.9844515277031,
Q,left,Pretarget,0,51,51,51,769.3184347272618,771.3190067182295,left,1,1,0.5237592800403945,D11D08,2022-11-01_14h49.02.287,t1_Paradigm,2021.1.4,59.9844515277031,
Q,right,Target,0,52,52,52,772.8182791380095,774.8183137846645,right,1,1,0.6723200634587556,D11D08,2022-11-01_14h49.02.287,t1_Paradigm,2021.1.4,59.9844515277031,
Y,left,Distractor,0,53,53,53,776.318277533981,778.3197958925739,left,1,1,0.802886709861923,D11D08,2022-11-01_14h49.02.287,t1_Paradigm,2021.1.4,59.9844515277031,
V,left,Distractor,0,54,54,54,779.8183073686087,781.8200794820441,left,1,1,1.1265838824911043,D11D08,2022-11-01_14h49.02.287,t1_Paradigm,2021.1.4,59.9844515277031,
B,left,Distractor,0,55,55,55,783.318330466398,785.3203669211362,left,1,1,0.7141453402582556,D11D08,2022-11-01_14h49.02.287,t1_Paradigm,2021.1.4,59.9844515277031,
J,left,Pretarget,0,56,56,56,786.8183019149583,788.8203043646063,left,1,1,0.5423648667056113,D11D08,2022-11-01_14h49.02.287,t1_Paradigm,2021.1.4,59.9844515277031,
J,right,Target,0,57,57,57,790.3181026965613,792.3184177246876,right,1,1,0.5003092536353506,D11D08,2022-11-01_14h49.02.287,t1_Paradigm,2021.1.4,59.9844515277031,
H,left,Distractor,0,58,58,58,793.8183224463719,795.8199158727075,left,1,1,0.5347057053586468,D11D08,2022-11-01_14h49.02.287,t1_Paradigm,2021.1.4,59.9844515277031,
J,left,Lure,0,59,59,59,797.3183410529164,799.3184453137219,left,1,1,0.4923013798543252,D11D08,2022-11-01_14h49.02.287,t1_Paradigm,2021.1.4,59.9844515277031,
D,left,Pretarget,0,60,60,60,800.8182720803306,802.8191465881537,left,1,1,0.54356948036002,D11D08,2022-11-01_14h49.02.287,t1_Paradigm,2021.1.4,59.9844515277031,
D,right,Target,0,61,61,61,804.3183805115987,806.3183779451647,right,1,1,1.0443098926916718,D11D08,2022-11-01_14h49.02.287,t1_Paradigm,2021.1.4,59.9844515277031,
R,left,Distractor,0,62,62,62,807.8183801908162,809.8189954901463,left,1,1,0.9356633651768789,D11D08,2022-11-01_14h49.02.287,t1_Paradigm,2021.1.4,59.9844515277031,
F,left,Distractor,0,63,63,63,811.317821031902,813.3202090862906,left,1,1,1.0505065151955932,D11D08,2022-11-01_14h49.02.287,t1_Paradigm,2021.1.4,59.9844515277031,
F,left,Distractor,0,0,0,0,910.1126700333552,912.1019526610617,left,1,2,1.11700279294746,D11D08,2022-11-01_14h49.02.287,t1_Paradigm,2021.1.4,59.9844515277031,
N,left,Pretarget,0,1,1,1,913.6017778237001,915.6036532354774,None,0,2,,D11D08,2022-11-01_14h49.02.287,t1_Paradigm,2021.1.4,59.9844515277031,
V,left,Distractor,0,2,2,2,917.1017778237001,919.1036311001517,left,1,2,1.251316734123975,D11D08,2022-11-01_14h49.02.287,t1_Paradigm,2021.1.4,59.9844515277031,
N,right,Target,0,3,3,3,920.6016636179411,922.6040138176177,left,0,2,0.9668999115237966,D11D08,2022-11-01_14h49.02.287,t1_Paradigm,2021.1.4,59.9844515277031,
N,left,Lure,0,4,4,4,924.1020027062623,926.1018830469111,right,0,2,1.1010483186109923,D11D08,2022-11-01_14h49.02.287,t1_Paradigm,2021.1.4,59.9844515277031,
X,left,Distractor,0,5,5,5,927.6018099039211,929.6034257864812,left,1,2,1.3756517905858345,D11D08,2022-11-01_14h49.02.287,t1_Paradigm,2021.1.4,59.9844515277031,
G,left,Pretarget,0,6,6,6,931.1017374025541,933.1030459562317,left,1,2,0.8680895116413012,D11D08,2022-11-01_14h49.02.287,t1_Paradigm,2021.1.4,59.9844515277031,
H,left,Pretarget,0,7,7,7,934.6016719588079,936.6023697044002,None,0,2,,D11D08,2022-11-01_14h49.02.287,t1_Paradigm,2021.1.4,59.9844515277031,
G,right,Target,0,8,8,8,938.1019796084729,940.1041524042957,left,0,2,1.114879079919774,D11D08,2022-11-01_14h49.02.287,t1_Paradigm,2021.1.4,59.9844515277031,
H,right,Target,0,9,9,9,941.601704039087,943.6015632067574,left,0,2,1.089484669151716,D11D08,2022-11-01_14h49.02.287,t1_Paradigm,2021.1.4,59.9844515277031,
T,left,Pretarget,0,10,10,10,945.101927959302,947.1038120327867,left,1,2,0.7392843920970336,D11D08,2022-11-01_14h49.02.287,t1_Paradigm,2021.1.4,59.9844515277031,
K,left,Distractor,0,11,11,11,948.6016129311756,950.603308051941,left,1,2,1.2077963365591131,D11D08,2022-11-01_14h49.02.287,t1_Paradigm,2021.1.4,59.9844515277031,
T,right,Target,0,12,12,12,952.1019330921117,954.1036134559545,None,0,2,,D11D08,2022-11-01_14h49.02.287,t1_Paradigm,2021.1.4,59.9844515277031,
T,left,Lure,0,13,13,13,955.60179354297,957.6020485810586,None,0,2,,D11D08,2022-11-01_14h49.02.287,t1_Paradigm,2021.1.4,59.9844515277031,
J,left,Distractor,0,14,14,14,959.1016341040959,961.1038960830192,None,0,2,,D11D08,2022-11-01_14h49.02.287,t1_Paradigm,2021.1.4,59.9844515277031,
Q,left,Pretarget,0,15,15,15,962.6019504154683,964.6031755604781,left,1,2,1.399810469825752,D11D08,2022-11-01_14h49.02.287,t1_Paradigm,2021.1.4,59.9844515277031,
M,left,Distractor,0,16,16,16,966.1016847909195,968.1038996118587,None,0,2,,D11D08,2022-11-01_14h49.02.287,t1_Paradigm,2021.1.4,59.9844515277031,
Q,right,Target,0,17,17,17,969.6018217736273,971.602796051011,None,0,2,,D11D08,2022-11-01_14h49.02.287,t1_Paradigm,2021.1.4,59.9844515277031,
R,left,Distractor,0,18,18,18,973.1010726996465,975.1144501668168,left,1,2,1.3367817471153103,D11D08,2022-11-01_14h49.02.287,t1_Paradigm,2021.1.4,59.9844515277031,
W,left,Distractor,0,19,19,19,976.6019770420389,978.6019860245287,left,1,2,1.4492252938798629,D11D08,2022-11-01_14h49.02.287,t1_Paradigm,2021.1.4,59.9844515277031,
C,left,Pretarget,0,20,20,20,980.10189010459,982.1047744404641,None,0,2,,D11D08,2022-11-01_14h49.02.287,t1_Paradigm,2021.1.4,59.9844515277031,
T,left,Distractor,0,21,21,21,983.6018111871672,985.6026975646382,left,1,2,1.16839279839769,D11D08,2022-11-01_14h49.02.287,t1_Paradigm,2021.1.4,59.9844515277031,
C,right,Target,0,22,22,22,987.1017168711987,989.1035877917893,None,0,2,,D11D08,2022-11-01_14h49.02.287,t1_Paradigm,2021.1.4,59.9844515277031,
F,left,Pretarget,0,23,23,23,990.6016950565972,992.6037802733481,None,0,2,,D11D08,2022-11-01_14h49.02.287,t1_Paradigm,2021.1.4,59.9844515277031,
C,right,Target,0,24,24,24,994.1020819445257,996.1028650235967,None,0,2,,D11D08,2022-11-01_14h49.02.287,t1_Paradigm,2021.1.4,59.9844515277031,
F,right,Target,0,25,25,25,997.6019921198022,999.604048785055,left,0,2,1.0550978415412828,D11D08,2022-11-01_14h49.02.287,t1_Paradigm,2021.1.4,59.9844515277031,
H,left,Distractor,0,26,26,26,1001.1020453730016,1003.1038787597208,left,1,2,0.8829404250136577,D11D08,2022-11-01_14h49.02.287,t1_Paradigm,2021.1.4,59.9844515277031,
H,left,Lure,0,27,27,27,1004.6013184344047,1006.6020973430132,left,1,2,1.3529646327951923,D11D08,2022-11-01_14h49.02.287,t1_Paradigm,2021.1.4,59.9844515277031,
P,left,Distractor,0,28,28,28,1008.1019818541245,1010.103434127348,None,0,2,,D11D08,2022-11-01_14h49.02.287,t1_Paradigm,2021.1.4,59.9844515277031,
G,left,Pretarget,0,29,29,29,1011.601905182295,1013.6039387498167,left,1,2,1.2151895525748841,D11D08,2022-11-01_14h49.02.287,t1_Paradigm,2021.1.4,59.9844515277031,
K,left,Distractor,0,30,30,30,1015.1020315784845,1017.1026074191323,left,1,2,0.8044984220177867,D11D08,2022-11-01_14h49.02.287,t1_Paradigm,2021.1.4,59.9844515277031,
G,right,Target,0,31,31,31,1018.6020472978125,1020.6029506778577,right,1,2,1.3363024680875242,D11D08,2022-11-01_14h49.02.287,t1_Paradigm,2021.1.4,59.9844515277031,
M,left,Pretarget,0,32,32,32,1022.0848747362033,1024.0869698977913,left,1,2,0.8919527316465974,D11D08,2022-11-01_14h49.02.287,t1_Paradigm,2021.1.4,59.9844515277031,
B,left,Distractor,0,33,33,33,1025.6019199392176,1027.6025795093155,left,1,2,0.688676182529889,D11D08,2022-11-01_14h49.02.287,t1_Paradigm,2021.1.4,59.9844515277031,
M,right,Target,0,34,34,34,1029.102154766675,1031.103619551228,right,1,2,0.9957034911494702,D11D08,2022-11-01_14h49.02.287,t1_Paradigm,2021.1.4,59.9844515277031,
M,left,Lure,0,35,35,35,1032.60215925792,1034.602088681364,None,0,2,,D11D08,2022-11-01_14h49.02.287,t1_Paradigm,2021.1.4,59.9844515277031,
T,left,Distractor,0,36,36,36,1036.1021300649154,1038.1036663884297,left,1,2,1.115370549436193,D11D08,2022-11-01_14h49.02.287,t1_Paradigm,2021.1.4,59.9844515277031,
F,left,Distractor,0,37,37,37,1039.6020796988741,1041.6035566739156,left,1,2,0.6236029849969782,D11D08,2022-11-01_14h49.02.287,t1_Paradigm,2021.1.4,59.9844515277031,
X,left,Distractor,0,38,38,38,1043.102174977248,1045.1179100225563,left,1,2,0.8052738017286174,D11D08,2022-11-01_14h49.02.287,t1_Paradigm,2021.1.4,59.9844515277031,
C,left,Distractor,0,39,39,39,1046.6020290121087,1048.6027113591554,left,1,2,1.1444304503384046,D11D08,2022-11-01_14h49.02.287,t1_Paradigm,2021.1.4,59.9844515277031,
R,left,Distractor,0,40,40,40,1050.1020549971145,1052.1034758316819,left,1,2,1.195860556093976,D11D08,2022-11-01_14h49.02.287,t1_Paradigm,2021.1.4,59.9844515277031,
B,left,Pretarget,0,41,41,41,1053.6019478490343,1055.6036991102737,left,1,2,0.7036592665826902,D11D08,2022-11-01_14h49.02.287,t1_Paradigm,2021.1.4,59.9844515277031,
H,left,Distractor,0,42,42,42,1057.1022359297494,1059.1041046047467,left,1,2,0.866869178658817,D11D08,2022-11-01_14h49.02.287,t1_Paradigm,2021.1.4,59.9844515277031,
B,right,Target,0,43,43,43,1060.6021076086909,1062.6148614357226,right,1,2,0.5083232226897962,D11D08,2022-11-01_14h49.02.287,t1_Paradigm,2021.1.4,59.9844515277031,
W,left,Pretarget,0,44,44,44,1064.1021130623412,1066.1040295369457,left,1,2,0.5552328994381242,D11D08,2022-11-01_14h49.02.287,t1_Paradigm,2021.1.4,59.9844515277031,
L,left,Pretarget,0,45,45,45,1067.6019048615126,1069.6039005742641,left,1,2,0.7672859653830528,D11D08,2022-11-01_14h49.02.287,t1_Paradigm,2021.1.4,59.9844515277031,
W,right,Target,0,46,46,46,1071.1021204408025,1073.1040244040778,right,1,2,0.4831347672152333,D11D08,2022-11-01_14h49.02.287,t1_Paradigm,2021.1.4,59.9844515277031,
L,right,Target,0,47,47,47,1074.6022901453543,1076.6037546091247,right,1,2,0.7433746249298565,D11D08,2022-11-01_14h49.02.287,t1_Paradigm,2021.1.4,59.9844515277031,
W,right,Target,0,48,48,48,1078.101958114712,1080.1041803141125,right,1,2,0.5711703712004237,D11D08,2022-11-01_14h49.02.287,t1_Paradigm,2021.1.4,59.9844515277031,
X,left,Distractor,0,49,49,49,1081.6018788765068,1083.6036112103611,left,1,2,0.8156649178708903,D11D08,2022-11-01_14h49.02.287,t1_Paradigm,2021.1.4,59.9844515277031,
R,left,Distractor,0,50,50,50,1085.102144821838,1087.1039891157998,left,1,2,0.9473290299065411,D11D08,2022-11-01_14h49.02.287,t1_Paradigm,2021.1.4,59.9844515277031,
V,left,Pretarget,0,51,51,51,1088.6020662251976,1090.604347773071,left,1,2,0.7588758051279001,D11D08,2022-11-01_14h49.02.287,t1_Paradigm,2021.1.4,59.9844515277031,
Z,left,Distractor,0,52,52,52,1092.102140330593,1094.1027094343444,None,0,2,,D11D08,2022-11-01_14h49.02.287,t1_Paradigm,2021.1.4,59.9844515277031,
V,right,Target,0,53,53,53,1095.6019680596073,1097.604340715392,right,1,2,1.0709345813374966,D11D08,2022-11-01_14h49.02.287,t1_Paradigm,2021.1.4,59.9844515277031,
V,left,Lure,0,54,54,54,1099.1021929421695,1101.1021210824256,left,1,2,1.4611020466545597,D11D08,2022-11-01_14h49.02.287,t1_Paradigm,2021.1.4,59.9844515277031,
N,left,Distractor,0,55,55,55,1102.6021348769427,1104.6033025982906,left,1,2,0.7760111536481418,D11D08,2022-11-01_14h49.02.287,t1_Paradigm,2021.1.4,59.9844515277031,
B,left,Distractor,0,56,56,56,1106.102162465977,1108.1023353785276,left,1,2,0.6368880610680208,D11D08,2022-11-01_14h49.02.287,t1_Paradigm,2021.1.4,59.9844515277031,
V,left,Lure,0,57,57,57,1109.6014047302888,1111.601321321621,None,0,2,,D11D08,2022-11-01_14h49.02.287,t1_Paradigm,2021.1.4,59.9844515277031,
J,left,Distractor,0,58,58,58,1113.1021881301422,1115.1040869605495,left,1,2,0.7871831032098271,D11D08,2022-11-01_14h49.02.287,t1_Paradigm,2021.1.4,59.9844515277031,
H,left,Distractor,0,59,59,59,1116.6020476186532,1118.602905765525,left,1,2,0.6805178523645736,D11D08,2022-11-01_14h49.02.287,t1_Paradigm,2021.1.4,59.9844515277031,
X,left,Pretarget,0,60,60,60,1120.102160541166,1122.1026905069593,left,1,2,1.372607053432148,D11D08,2022-11-01_14h49.02.287,t1_Paradigm,2021.1.4,59.9844515277031,
P,left,Distractor,0,61,61,61,1123.6023757996736,1125.6034578667604,left,1,2,0.8960057513904758,D11D08,2022-11-01_14h49.02.287,t1_Paradigm,2021.1.4,59.9844515277031,
X,right,Target,0,62,62,62,1127.1021983958199,1129.1039772460936,right,1,2,0.6913516760105267,D11D08,2022-11-01_14h49.02.287,t1_Paradigm,2021.1.4,59.9844515277031,
Q,left,Distractor,0,63,63,63,1130.6021647115704,1132.6041809557355,left,1,2,0.7912005138350651,D11D08,2022-11-01_14h49.02.287,t1_Paradigm,2021.1.4,59.9844515277031,
B,left,Pretarget,0,0,0,0,1144.3777498394484,1146.371076825133,left,1,2,1.0723550951224752,D11D08,2022-11-01_14h49.02.287,t1_Paradigm,2021.1.4,59.9844515277031,
F,left,Distractor,0,1,1,1,1147.8688786859275,1149.870276101923,left,1,2,0.5815207452978939,D11D08,2022-11-01_14h49.02.287,t1_Paradigm,2021.1.4,59.9844515277031,
B,right,Target,0,2,2,2,1151.3688851019833,1153.3703774755122,right,1,2,0.6650006319978274,D11D08,2022-11-01_14h49.02.287,t1_Paradigm,2021.1.4,59.9844515277031,
V,left,Distractor,0,3,3,3,1154.8686631065793,1156.871154459368,left,1,2,0.6361832578550093,D11D08,2022-11-01_14h49.02.287,t1_Paradigm,2021.1.4,59.9844515277031,
G,left,Pretarget,0,4,4,4,1158.3689499041066,1160.3708028597175,left,1,2,0.640376147464849,D11D08,2022-11-01_14h49.02.287,t1_Paradigm,2021.1.4,59.9844515277031,
B,left,Lure,0,5,5,5,1161.8689075581497,1163.8704698666697,left,1,2,1.2210211017518304,D11D08,2022-11-01_14h49.02.287,t1_Paradigm,2021.1.4,59.9844515277031,
G,right,Target,0,6,6,6,1165.3689460544847,1167.3697166222264,right,1,2,1.0817924651200883,D11D08,2022-11-01_14h49.02.287,t1_Paradigm,2021.1.4,59.9844515277031,
Y,left,Pretarget,0,7,7,7,1168.8688517385162,1170.8703986484907,left,1,2,0.7169119416503236,D11D08,2022-11-01_14h49.02.287,t1_Paradigm,2021.1.4,59.9844515277031,
P,left,Distractor,0,8,8,8,1172.368806505343,1174.370295670873,left,1,2,0.7371003681910224,D11D08,2022-11-01_14h49.02.287,t1_Paradigm,2021.1.4,59.9844515277031,
Y,right,Target,0,9,9,9,1175.868952791323,1177.8704605633975,right,1,2,0.5971261864178814,D11D08,2022-11-01_14h49.02.287,t1_Paradigm,2021.1.4,59.9844515277031,
X,left,Distractor,0,10,10,10,1179.3690246510669,1181.370061164198,left,1,2,1.0333307455293834,D11D08,2022-11-01_14h49.02.287,t1_Paradigm,2021.1.4,59.9844515277031,
Y,right,Target,0,11,11,11,1182.8689576033503,1184.8707425488392,right,1,2,1.164850817178376,D11D08,2022-11-01_14h49.02.287,t1_Paradigm,2021.1.4,59.9844515277031,
N,left,Distractor,0,12,12,12,1186.3689271270996,1188.3702475504833,left,1,2,1.281453890085686,D11D08,2022-11-01_14h49.02.287,t1_Paradigm,2021.1.4,59.9844515277031,
Y,right,Target,0,13,13,13,1189.8690002700896,1191.8709873212501,None,0,2,,D11D08,2022-11-01_14h49.02.287,t1_Paradigm,2021.1.4,59.9844515277031,
Y,left,Lure,0,14,14,14,1193.369146876852,1195.3690859244089,left,1,2,1.4343156735994853,D11D08,2022-11-01_14h49.02.287,t1_Paradigm,2021.1.4,59.9844515277031,
K,left,Distractor,0,15,15,15,1196.8689434880507,1198.8708561129752,None,0,2,,D11D08,2022-11-01_14h49.02.287,t1_Paradigm,2021.1.4,59.9844515277031,
T,left,Pretarget,0,16,16,16,1200.3689884003834,1202.3711486849352,left,1,2,0.6562141703325324,D11D08,2022-11-01_14h49.02.287,t1_Paradigm,2021.1.4,59.9844515277031,
J,left,Distractor,0,17,17,17,1203.8689823051682,1205.8705260071438,left,1,2,1.0291179661289789,D11D08,2022-11-01_14h49.02.287,t1_Paradigm,2021.1.4,59.9844515277031,
T,right,Target,0,18,18,18,1207.3689909668174,1209.371100885328,right,1,2,1.048294581414666,D11D08,2022-11-01_14h49.02.287,t1_Paradigm,2021.1.4,59.9844515277031,
S,left,Pretarget,0,19,19,19,1210.8690249719075,1212.8707759123063,left,1,2,1.1970273150363937,D11D08,2022-11-01_14h49.02.287,t1_Paradigm,2021.1.4,59.9844515277031,
R,left,Distractor,0,20,20,20,1214.3687885404215,1216.3704435608815,left,1,2,1.2169854054227471,D11D08,2022-11-01_14h49.02.287,t1_Paradigm,2021.1.4,59.9844515277031,
S,right,Target,0,21,21,21,1217.8692322103307,1219.8696646522149,right,1,2,1.0299693761626258,D11D08,2022-11-01_14h49.02.287,t1_Paradigm,2021.1.4,59.9844515277031,
Q,left,Distractor,0,22,22,22,1221.3690355583676,1223.3705805435893,left,1,2,0.9208772538695484,D11D08,2022-11-01_14h49.02.287,t1_Paradigm,2021.1.4,59.9844515277031,
D,left,Distractor,0,23,23,23,1224.8690394079895,1226.8711599130183,left,1,2,0.796487660962157,D11D08,2022-11-01_14h49.02.287,t1_Paradigm,2021.1.4,59.9844515277031,
F,left,Distractor,0,24,24,24,1228.3687487608986,1230.3695754691144,None,0,2,,D11D08,2022-11-01_14h49.02.287,t1_Paradigm,2021.1.4,59.9844515277031,
Z,left,Distractor,0,25,25,25,1231.86896658584,1233.8711961637018,left,1,2,1.3002647904795595,D11D08,2022-11-01_14h49.02.287,t1_Paradigm,2021.1.4,59.9844515277031,
P,left,Distractor,0,26,26,26,1235.3690153477946,1237.3710117022274,left,1,2,0.7607980541069992,D11D08,2022-11-01_14h49.02.287,t1_Paradigm,2021.1.4,59.9844515277031,
H,left,Distractor,0,27,27,27,1238.869056731346,1240.870565465826,left,1,2,1.069057565415278,D11D08,2022-11-01_14h49.02.287,t1_Paradigm,2021.1.4,59.9844515277031,
Z,left,Pretarget,0,28,28,28,1242.369063147402,1244.3709988701157,None,0,2,,D11D08,2022-11-01_14h49.02.287,t1_Paradigm,2021.1.4,59.9844515277031,
J,left,Pretarget,0,29,29,29,1245.8692046213546,1247.8712606450426,left,1,2,0.6603708093171008,D11D08,2022-11-01_14h49.02.287,t1_Paradigm,2021.1.4,59.9844515277031,
Z,right,Target,0,30,30,30,1249.3689758891123,1251.3707351703779,right,1,2,1.048790542234201,D11D08,2022-11-01_14h49.02.287,t1_Paradigm,2021.1.4,59.9844515277031,
J,right,Target,0,31,31,31,1252.8683169606375,1254.8704175758758,None,0,2,,D11D08,2022-11-01_14h49.02.287,t1_Paradigm,2021.1.4,59.9844515277031,
V,left,Pretarget,0,32,32,32,1256.3688068261254,1258.3709404840483,None,0,2,,D11D08,2022-11-01_14h49.02.287,t1_Paradigm,2021.1.4,59.9844515277031,
Z,left,Lure,0,33,33,33,1259.8691654833965,1261.8853214217233,left,1,2,1.2861921440344304,D11D08,2022-11-01_14h49.02.287,t1_Paradigm,2021.1.4,59.9844515277031,
V,right,Target,0,34,34,34,1263.3689547161339,1265.3683654018096,right,1,2,1.0511965615442023,D11D08,2022-11-01_14h49.02.287,t1_Paradigm,2021.1.4,59.9844515277031,
X,left,Distractor,0,35,35,35,1266.8690438992344,1268.8714325951878,left,1,2,1.4361150551703759,D11D08,2022-11-01_14h49.02.287,t1_Paradigm,2021.1.4,59.9844515277031,
S,left,Distractor,0,36,36,36,1270.3690134229837,1272.37082659913,left,1,2,1.1047449266770855,D11D08,2022-11-01_14h49.02.287,t1_Paradigm,2021.1.4,59.9844515277031,
Q,left,Distractor,0,37,37,37,1273.8690474280738,1275.8710803539725,left,1,2,0.788559025444556,D11D08,2022-11-01_14h49.02.287,t1_Paradigm,2021.1.4,59.9844515277031,
P,left,Distractor,0,38,38,38,1277.3692418344435,1279.3708458472975,left,1,2,0.7765751245897263,D11D08,2022-11-01_14h49.02.287,t1_Paradigm,2021.1.4,59.9844515277031,
S,left,Lure,0,39,39,39,1280.8691038893303,1282.8709517121315,None,0,2,,D11D08,2022-11-01_14h49.02.287,t1_Paradigm,2021.1.4,59.9844515277031,
K,left,Pretarget,0,40,40,40,1284.3691314783646,1286.3682486296748,left,1,2,1.123415636306163,D11D08,2022-11-01_14h49.02.287,t1_Paradigm,2021.1.4,59.9844515277031,
L,left,Distractor,0,41,41,41,1287.8692280399264,1289.8681642586016,left,1,2,1.4316032878123224,D11D08,2022-11-01_14h49.02.287,t1_Paradigm,2021.1.4,59.9844515277031,
K,right,Target,0,42,42,42,1291.3689768515178,1293.3706289847614,right,1,2,1.2410773576702923,D11D08,2022-11-01_14h49.02.287,t1_Paradigm,2021.1.4,59.9844515277031,
B,left,Distractor,0,43,43,43,1294.8688969716895,1296.870950749726,left,1,2,0.8127709578257054,D11D08,2022-11-01_14h49.02.287,t1_Paradigm,2021.1.4,59.9844515277031,
N,left,Distractor,0,44,44,44,1298.3691411024192,1300.3713761339313,left,1,2,0.7842070177430287,D11D08,2022-11-01_14h49.02.287,t1_Paradigm,2021.1.4,59.9844515277031,
S,left,Pretarget,0,45,45,45,1301.869237663981,1303.8697772539454,left,1,2,1.237807737896219,D11D08,2022-11-01_14h49.02.287,t1_Paradigm,2021.1.4,59.9844515277031,
Z,left,Distractor,0,46,46,46,1305.3691776739433,1307.3703469993197,left,1,2,1.0495312754064798,D11D08,2022-11-01_14h49.02.287,t1_Paradigm,2021.1.4,59.9844515277031,
S,right,Target,0,47,47,47,1308.8692655737977,1310.8708310903748,right,1,2,1.1167965168133378,D11D08,2022-11-01_14h49.02.287,t1_Paradigm,2021.1.4,59.9844515277031,
C,left,Distractor,0,48,48,48,1312.369315939839,1314.3684273167164,left,1,2,0.8511960481991991,D11D08,2022-11-01_14h49.02.287,t1_Paradigm,2021.1.4,59.9844515277031,
T,left,Pretarget,0,49,49,49,1315.8690926612471,1317.8707630802528,left,1,2,0.7729343362152576,D11D08,2022-11-01_14h49.02.287,t1_Paradigm,2021.1.4,59.9844515277031,
S,left,Lure,0,50,50,50,1319.3689909668174,1321.3705442928476,left,1,2,1.289179778425023,D11D08,2022-11-01_14h49.02.287,t1_Paradigm,2021.1.4,59.9844515277031,
T,right,Target,0,51,51,51,1322.869200450892,1324.8706414960325,right,1,2,0.9410185225424357,D11D08,2022-11-01_14h49.02.287,t1_Paradigm,2021.1.4,59.9844515277031,
N,left,Pretarget,0,52,52,52,1326.3683926700032,1328.3710524441558,left,1,2,0.784607058565598,D11D08,2022-11-01_14h49.02.287,t1_Paradigm,2021.1.4,59.9844515277031,
B,left,Distractor,0,53,53,53,1329.8691956388648,1331.8713963445043,left,1,2,0.8522184459725395,D11D08,2022-11-01_14h49.02.287,t1_Paradigm,2021.1.4,59.9844515277031,
N,right,Target,0,54,54,54,1333.3692819347489,1335.37115317618,right,1,2,1.2087991653825156,D11D08,2022-11-01_14h49.02.287,t1_Paradigm,2021.1.4,59.9844515277031,
N,left,Lure,0,55,55,55,1336.8689762098948,1338.8693066365668,left,1,2,1.3584773041657172,D11D08,2022-11-01_14h49.02.287,t1_Paradigm,2021.1.4,59.9844515277031,
X,left,Distractor,0,56,56,56,1340.36935186974,1342.3706947492901,left,1,2,1.265151024213992,D11D08,2022-11-01_14h49.02.287,t1_Paradigm,2021.1.4,59.9844515277031,
W,left,Distractor,0,57,57,57,1343.8691869772156,1345.8710601433995,left,1,2,1.2526288166991435,D11D08,2022-11-01_14h49.02.287,t1_Paradigm,2021.1.4,59.9844515277031,
S,left,Distractor,0,58,58,58,1347.3691340447986,1349.3711291159852,left,1,2,0.7924850073177367,D11D08,2022-11-01_14h49.02.287,t1_Paradigm,2021.1.4,59.9844515277031,
L,left,Distractor,0,59,59,59,1350.8691202502814,1352.8707236215123,left,1,2,1.0050077281775884,D11D08,2022-11-01_14h49.02.287,t1_Paradigm,2021.1.4,59.9844515277031,
K,left,Pretarget,0,60,60,60,1354.3691459144466,1356.3712186198682,left,1,2,0.6402365983230993,D11D08,2022-11-01_14h49.02.287,t1_Paradigm,2021.1.4,59.9844515277031,
V,left,Pretarget,0,61,61,61,1357.8695241407258,1359.8711910308339,left,1,2,0.7087853709235787,D11D08,2022-11-01_14h49.02.287,t1_Paradigm,2021.1.4,59.9844515277031,
K,right,Target,0,62,62,62,1361.368949583266,1363.3708359024022,right,1,2,1.1130328610888682,D11D08,2022-11-01_14h49.02.287,t1_Paradigm,2021.1.4,59.9844515277031,
V,right,Target,0,63,63,63,1364.868970435462,1366.871351111331,left,0,2,0.7163120408076793,D11D08,2022-11-01_14h49.02.287,t1_Paradigm,2021.1.4,59.9844515277031,
R,left,Distractor,0,0,0,0,1456.067882465606,1458.071472567215,left,1,3,0.6843398941564374,D11D08,2022-11-01_14h49.02.287,t1_Paradigm,2021.1.4,59.9844515277031,
P,left,Lure,0,1,1,1,1459.5693376261042,1461.5706012673909,left,1,3,0.5932524953386746,D11D08,2022-11-01_14h49.02.287,t1_Paradigm,2021.1.4,59.9844515277031,
V,left,Distractor,0,2,2,2,1463.0694829496206,1465.0711905817152,left,1,3,0.6608103087637573,D11D08,2022-11-01_14h49.02.287,t1_Paradigm,2021.1.4,59.9844515277031,
P,left,Pretarget,0,3,3,3,1466.5694271299872,1468.5713359052897,left,1,3,0.9206812434713356,D11D08,2022-11-01_14h49.02.287,t1_Paradigm,2021.1.4,59.9844515277031,
Z,left,Distractor,0,4,4,4,1470.0694287340157,1472.0697800128255,left,1,3,1.3901565580745228,D11D08,2022-11-01_14h49.02.287,t1_Paradigm,2021.1.4,59.9844515277031,
L,left,Pretarget,0,5,5,5,1473.5692057762062,1475.5695352404728,left,1,3,0.8183715291670524,D11D08,2022-11-01_14h49.02.287,t1_Paradigm,2021.1.4,59.9844515277031,
P,right,Target,0,6,6,6,1477.0694393204758,1479.0715335196583,left,0,3,1.0923497569165193,D11D08,2022-11-01_14h49.02.287,t1_Paradigm,2021.1.4,59.9844515277031,
S,left,Distractor,0,7,7,7,1480.5693918417091,1482.5714408077183,left,1,3,0.8885631317389198,D11D08,2022-11-01_14h49.02.287,t1_Paradigm,2021.1.4,59.9844515277031,
L,right,Target,0,8,8,8,1484.0692256659968,1486.070963774342,right,1,3,1.0371723563293926,D11D08,2022-11-01_14h49.02.287,t1_Paradigm,2021.1.4,59.9844515277031,
D,left,Distractor,0,9,9,9,1487.5694268092047,1489.571384988085,left,1,3,1.2325452925288118,D11D08,2022-11-01_14h49.02.287,t1_Paradigm,2021.1.4,59.9844515277031,
G,left,Distractor,0,10,10,10,1491.0694194307434,1493.0712136795046,left,1,3,0.9646064939443022,D11D08,2022-11-01_14h49.02.287,t1_Paradigm,2021.1.4,59.9844515277031,
M,left,Pretarget,0,11,11,11,1494.5694059570087,1496.571236777294,left,1,3,0.7608041493804194,D11D08,2022-11-01_14h49.02.287,t1_Paradigm,2021.1.4,59.9844515277031,
Y,left,Distractor,0,12,12,12,1498.0695192003623,1500.0714109730907,left,1,3,0.5405597106437199,D11D08,2022-11-01_14h49.02.287,t1_Paradigm,2021.1.4,59.9844515277031,
V,left,Distractor,0,13,13,13,1501.5692625583033,1503.5705592422746,left,1,3,1.425547176913824,D11D08,2022-11-01_14h49.02.287,t1_Paradigm,2021.1.4,59.9844515277031,
M,right,Target,0,14,14,14,1505.0695769448066,1507.0712502510287,right,1,3,0.9966989415115677,D11D08,2022-11-01_14h49.02.287,t1_Paradigm,2021.1.4,59.9844515277031,
S,left,Pretarget,0,15,15,15,1508.5694964233553,1510.5713920457638,left,1,3,1.0647613774053752,D11D08,2022-11-01_14h49.02.287,t1_Paradigm,2021.1.4,59.9844515277031,
Q,left,Distractor,0,16,16,16,1512.0686344268615,1514.0710442957352,left,1,3,1.037065529031679,D11D08,2022-11-01_14h49.02.287,t1_Paradigm,2021.1.4,59.9844515277031,
R,left,Pretarget,0,17,17,17,1515.5694062778493,1517.5709342604969,left,1,3,0.8652199325733818,D11D08,2022-11-01_14h49.02.287,t1_Paradigm,2021.1.4,59.9844515277031,
S,right,Target,0,18,18,18,1519.0695990801905,1521.0716316852486,right,1,3,0.8523207820253447,D11D08,2022-11-01_14h49.02.287,t1_Paradigm,2021.1.4,59.9844515277031,
F,left,Distractor,0,19,19,19,1522.569630839629,1524.571384988085,left,1,3,1.096911569533404,D11D08,2022-11-01_14h49.02.287,t1_Paradigm,2021.1.4,59.9844515277031,
R,right,Target,0,20,20,20,1526.0693129242864,1528.0704123146716,right,1,3,0.9094101659720764,D11D08,2022-11-01_14h49.02.287,t1_Paradigm,2021.1.4,59.9844515277031,
P,left,Distractor,0,21,21,21,1529.5696693359641,1531.5708903105115,left,1,3,1.0732385853189044,D11D08,2022-11-01_14h49.02.287,t1_Paradigm,2021.1.4,59.9844515277031,
L,left,Distractor,0,22,22,22,1533.0695467893383,1535.0701899984851,left,1,3,1.110195041517727,D11D08,2022-11-01_14h49.02.287,t1_Paradigm,2021.1.4,59.9844515277031,
R,right,Target,0,23,23,23,1536.5696192907635,1538.571437278937,right,1,3,0.6005536410957575,D11D08,2022-11-01_14h49.02.287,t1_Paradigm,2021.1.4,59.9844515277031,
H,left,Pretarget,0,24,24,24,1540.0696840928867,1542.0711822408484,left,1,3,1.1650185969192535,D11D08,2022-11-01_14h49.02.287,t1_Paradigm,2021.1.4,59.9844515277031,
G,left,Pretarget,0,25,25,25,1543.5696513709845,1545.5718106931308,left,1,3,1.0563197785522789,D11D08,2022-11-01_14h49.02.287,t1_Paradigm,2021.1.4,59.9844515277031,
T,left,Distractor,0,26,26,26,1547.0695397317177,1549.0718068434508,left,1,3,0.8681937724468298,D11D08,2022-11-01_14h49.02.287,t1_Paradigm,2021.1.4,59.9844515277031,
H,right,Target,0,27,27,27,1550.5695618671016,1552.5714963065693,right,1,3,0.44029928313102573,D11D08,2022-11-01_14h49.02.287,t1_Paradigm,2021.1.4,59.9844515277031,
G,right,Target,0,28,28,28,1554.0696481629857,1556.0709881553194,right,1,3,0.5415519530070014,D11D08,2022-11-01_14h49.02.287,t1_Paradigm,2021.1.4,59.9844515277031,
D,left,Distractor,0,29,29,29,1557.5693549494026,1559.5717141315108,left,1,3,1.12037891917862,D11D08,2022-11-01_14h49.02.287,t1_Paradigm,2021.1.4,59.9844515277031,
N,left,Pretarget,0,30,30,30,1561.0695163130877,1563.0715745824273,left,1,3,0.9965635628323071,D11D08,2022-11-01_14h49.02.287,t1_Paradigm,2021.1.4,59.9844515277031,
V,left,Distractor,0,31,31,31,1564.5695156715228,1566.571179353632,left,1,3,0.6813541846349835,D11D08,2022-11-01_14h49.02.287,t1_Paradigm,2021.1.4,59.9844515277031,
R,left,Distractor,0,32,32,32,1568.0693972953595,1570.0717561566853,left,1,3,1.020345299039036,D11D08,2022-11-01_14h49.02.287,t1_Paradigm,2021.1.4,59.9844515277031,
N,right,Target,0,33,33,33,1571.5694040321978,1573.5696786392364,right,1,3,0.5146038954844698,D11D08,2022-11-01_14h49.02.287,t1_Paradigm,2021.1.4,59.9844515277031,
Z,left,Distractor,0,34,34,34,1575.0697466493584,1577.071759364684,left,1,3,0.6125089905108325,D11D08,2022-11-01_14h49.02.287,t1_Paradigm,2021.1.4,59.9844515277031,
N,left,Lure,0,35,35,35,1578.5694726839429,1580.5715178003302,left,1,3,1.2886844592285343,D11D08,2022-11-01_14h49.02.287,t1_Paradigm,2021.1.4,59.9844515277031,
Y,left,Pretarget,0,36,36,36,1582.0698133762926,1584.0703311516554,left,1,3,0.8459153170697391,D11D08,2022-11-01_14h49.02.287,t1_Paradigm,2021.1.4,59.9844515277031,
Y,left,Lure,0,37,37,37,1585.5687489533448,1587.569692754536,None,0,3,,D11D08,2022-11-01_14h49.02.287,t1_Paradigm,2021.1.4,59.9844515277031,
B,left,Distractor,0,38,38,38,1589.0697453661705,1591.0695830400218,left,1,3,0.8545574175659567,D11D08,2022-11-01_14h49.02.287,t1_Paradigm,2021.1.4,59.9844515277031,
Y,right,Target,0,39,39,39,1592.5694903280819,1594.5686912089004,right,1,3,0.507473737525288,D11D08,2022-11-01_14h49.02.287,t1_Paradigm,2021.1.4,59.9844515277031,
J,left,Distractor,0,40,40,40,1596.0696590702864,1598.0717535902513,left,1,3,1.052384814247489,D11D08,2022-11-01_14h49.02.287,t1_Paradigm,2021.1.4,59.9844515277031,
X,left,Distractor,0,41,41,41,1599.5696266692248,1601.571599284187,left,1,3,1.1206647542421706,D11D08,2022-11-01_14h49.02.287,t1_Paradigm,2021.1.4,59.9844515277031,
W,left,Pretarget,0,42,42,42,1603.0697315716534,1605.0710282556247,left,1,3,1.0770907826372422,D11D08,2022-11-01_14h49.02.287,t1_Paradigm,2021.1.4,59.9844515277031,
S,left,Pretarget,0,43,43,43,1606.5697338172467,1608.5717221515952,left,1,3,0.8564045987441204,D11D08,2022-11-01_14h49.02.287,t1_Paradigm,2021.1.4,59.9844515277031,
R,left,Distractor,0,44,44,44,1610.0697469701408,1612.070979493612,left,1,3,0.8133262671181001,D11D08,2022-11-01_14h49.02.287,t1_Paradigm,2021.1.4,59.9844515277031,
W,right,Target,0,45,45,45,1613.569543260557,1615.5688031690079,right,1,3,1.3636858547106385,D11D08,2022-11-01_14h49.02.287,t1_Paradigm,2021.1.4,59.9844515277031,
S,right,Target,0,46,46,46,1617.0694460573723,1619.0717317756498,right,1,3,1.1885241221170872,D11D08,2022-11-01_14h49.02.287,t1_Paradigm,2021.1.4,59.9844515277031,
D,left,Distractor,0,47,47,47,1620.5695467893383,1622.5716608783114,left,1,3,1.3850121680879965,D11D08,2022-11-01_14h49.02.287,t1_Paradigm,2021.1.4,59.9844515277031,
T,left,Distractor,0,48,48,48,1624.0695721327793,1626.0718078058562,None,0,3,,D11D08,2022-11-01_14h49.02.287,t1_Paradigm,2021.1.4,59.9844515277031,
S,right,Target,0,49,49,49,1627.5697010954027,1629.571315053152,right,1,3,1.3290433475049213,D11D08,2022-11-01_14h49.02.287,t1_Paradigm,2021.1.4,59.9844515277031,
K,left,Distractor,0,50,50,50,1631.069693396159,1633.0692667287076,left,1,3,0.9833092838525772,D11D08,2022-11-01_14h49.02.287,t1_Paradigm,2021.1.4,59.9844515277031,
S,left,Lure,0,51,51,51,1634.5695333156618,1636.568984743266,None,0,3,,D11D08,2022-11-01_14h49.02.287,t1_Paradigm,2021.1.4,59.9844515277031,
T,left,Pretarget,0,52,52,52,1638.0697036618367,1640.0823837042553,None,0,3,,D11D08,2022-11-01_14h49.02.287,t1_Paradigm,2021.1.4,59.9844515277031,
V,left,Distractor,0,53,53,53,1641.5694389996934,1643.5707263803924,left,1,3,0.5295892251306213,D11D08,2022-11-01_14h49.02.287,t1_Paradigm,2021.1.4,59.9844515277031,
B,left,Distractor,0,54,54,54,1645.0695038018166,1647.0714882865432,left,1,3,0.8047422319068573,D11D08,2022-11-01_14h49.02.287,t1_Paradigm,2021.1.4,59.9844515277031,
T,right,Target,0,55,55,55,1648.5694787792163,1650.5712964466074,left,0,3,0.936983146937564,D11D08,2022-11-01_14h49.02.287,t1_Paradigm,2021.1.4,59.9844515277031,
Y,left,Pretarget,0,56,56,56,1652.0695038018166,1654.0697312508128,None,0,3,,D11D08,2022-11-01_14h49.02.287,t1_Paradigm,2021.1.4,59.9844515277031,
T,left,Lure,0,57,57,57,1655.5697187395417,1657.5709942505346,None,0,3,,D11D08,2022-11-01_14h49.02.287,t1_Paradigm,2021.1.4,59.9844515277031,
P,left,Pretarget,0,58,58,58,1659.0698512310046,1661.0712579502724,None,0,3,,D11D08,2022-11-01_14h49.02.287,t1_Paradigm,2021.1.4,59.9844515277031,
Y,right,Target,0,59,59,59,1662.5697630103095,1664.5708790824283,right,1,3,1.0333432568586431,D11D08,2022-11-01_14h49.02.287,t1_Paradigm,2021.1.4,59.9844515277031,
R,left,Distractor,0,60,60,60,1666.0694101274712,1668.0715197251993,left,1,3,0.797026930085849,D11D08,2022-11-01_14h49.02.287,t1_Paradigm,2021.1.4,59.9844515277031,
P,right,Target,0,61,61,61,1669.5694460573723,1671.5714991937857,right,1,3,1.2167338961735368,D11D08,2022-11-01_14h49.02.287,t1_Paradigm,2021.1.4,59.9844515277031,
L,left,Distractor,0,62,62,62,1673.0698701583315,1675.0702365149045,left,1,3,1.0623069169814698,D11D08,2022-11-01_14h49.02.287,t1_Paradigm,2021.1.4,59.9844515277031,
V,left,Distractor,0,63,63,63,1676.5695201627677,1678.5715970385936,None,0,3,,D11D08,2022-11-01_14h49.02.287,t1_Paradigm,2021.1.4,59.9844515277031,
H,left,Lure,0,0,0,0,1701.9795728962636,1703.9701573408092,left,1,3,1.4582584526506253,D11D08,2022-11-01_14h49.02.287,t1_Paradigm,2021.1.4,59.9844515277031,
B,left,Distractor,0,1,1,1,1705.4698111948092,1707.4711906458833,left,1,3,0.773152481939178,D11D08,2022-11-01_14h49.02.287,t1_Paradigm,2021.1.4,59.9844515277031,
T,left,Distractor,0,2,2,2,1708.9693604672211,1710.9711620944436,left,1,3,0.6491295663872734,D11D08,2022-11-01_14h49.02.287,t1_Paradigm,2021.1.4,59.9844515277031,
R,left,Distractor,0,3,3,3,1712.4695853498415,1714.471479689004,None,0,3,,D11D08,2022-11-01_14h49.02.287,t1_Paradigm,2021.1.4,59.9844515277031,
H,left,Pretarget,0,4,4,4,1715.9697399766883,1717.9709112268756,left,1,3,1.169416479417123,D11D08,2022-11-01_14h49.02.287,t1_Paradigm,2021.1.4,59.9844515277031,
K,left,Distractor,0,5,5,5,1719.4698153652716,1721.4707402390777,left,1,3,0.7736667284625582,D11D08,2022-11-01_14h49.02.287,t1_Paradigm,2021.1.4,59.9844515277031,
G,left,Distractor,0,6,6,6,1722.9699529896025,1724.9707389558898,left,1,3,0.7458592408220284,D11D08,2022-11-01_14h49.02.287,t1_Paradigm,2021.1.4,59.9844515277031,
H,right,Target,0,7,7,7,1726.4698111948092,1728.4709583848598,right,1,3,1.037410712626297,D11D08,2022-11-01_14h49.02.287,t1_Paradigm,2021.1.4,59.9844515277031,
Y,left,Pretarget,0,8,8,8,1729.9690688576666,1731.9719878402539,left,1,3,0.9764511664398015,D11D08,2022-11-01_14h49.02.287,t1_Paradigm,2021.1.4,59.9844515277031,
S,left,Distractor,0,9,9,9,1733.4698413502774,1735.4713905059034,left,1,3,1.0131493766093627,D11D08,2022-11-01_14h49.02.287,t1_Paradigm,2021.1.4,59.9844515277031,
P,left,Distractor,0,10,10,10,1736.969871184905,1738.9717353686574,left,1,3,0.7447900058468804,D11D08,2022-11-01_14h49.02.287,t1_Paradigm,2021.1.4,59.9844515277031,
Y,right,Target,0,11,11,11,1740.4699334205943,1742.4720102964784,right,1,3,0.9404667420312762,D11D08,2022-11-01_14h49.02.287,t1_Paradigm,2021.1.4,59.9844515277031,
H,left,Lure,0,12,12,12,1743.9698779218015,1745.9698734305566,left,1,3,1.2024726178497076,D11D08,2022-11-01_14h49.02.287,t1_Paradigm,2021.1.4,59.9844515277031,
Q,left,Distractor,0,13,13,13,1747.4697800769936,1749.4721155196894,left,1,3,1.4444937767693773,D11D08,2022-11-01_14h49.02.287,t1_Paradigm,2021.1.4,59.9844515277031,
V,left,Pretarget,0,14,14,14,1750.9697701320983,1752.9701072956086,None,0,3,,D11D08,2022-11-01_14h49.02.287,t1_Paradigm,2021.1.4,59.9844515277031,
G,left,Distractor,0,15,15,15,1754.469983465795,1756.4710321694147,None,0,3,,D11D08,2022-11-01_14h49.02.287,t1_Paradigm,2021.1.4,59.9844515277031,
Z,left,Pretarget,0,16,16,16,1757.9699632552802,1759.9707081587985,None,0,3,,D11D08,2022-11-01_14h49.02.287,t1_Paradigm,2021.1.4,59.9844515277031,
V,right,Target,0,17,17,17,1761.4698269141372,1763.4716975139454,right,1,3,1.1888346589985304,D11D08,2022-11-01_14h49.02.287,t1_Paradigm,2021.1.4,59.9844515277031,
N,left,Distractor,0,18,18,18,1764.9700248493464,1766.9700514759752,None,0,3,,D11D08,2022-11-01_14h49.02.287,t1_Paradigm,2021.1.4,59.9844515277031,
Z,right,Target,0,19,19,19,1768.469873751339,1770.4710167709272,right,1,3,1.1013902941485867,D11D08,2022-11-01_14h49.02.287,t1_Paradigm,2021.1.4,59.9844515277031,
R,left,Distractor,0,20,20,20,1771.9698936410714,1773.9696270541754,left,1,3,1.3628780738799833,D11D08,2022-11-01_14h49.02.287,t1_Paradigm,2021.1.4,59.9844515277031,
P,left,Distractor,0,21,21,21,1775.4699100020225,1777.4700280574034,left,1,3,1.158522344834637,D11D08,2022-11-01_14h49.02.287,t1_Paradigm,2021.1.4,59.9844515277031,
Z,right,Target,0,22,22,22,1778.9698028539424,1780.9713677288964,right,1,3,0.8891957543673925,D11D08,2022-11-01_14h49.02.287,t1_Paradigm,2021.1.4,59.9844515277031,
D,left,Pretarget,0,23,23,23,1782.4700039972086,1784.4715380750713,left,1,3,0.941031354595907,D11D08,2022-11-01_14h49.02.287,t1_Paradigm,2021.1.4,59.9844515277031,
K,left,Distractor,0,24,24,24,1785.9697232949547,1787.9698869042331,left,1,3,1.2667640195577405,D11D08,2022-11-01_14h49.02.287,t1_Paradigm,2021.1.4,59.9844515277031,
W,left,Distractor,0,25,25,25,1789.4699212301057,1791.4710851018317,left,1,3,0.8053867242997512,D11D08,2022-11-01_14h49.02.287,t1_Paradigm,2021.1.4,59.9844515277031,
D,right,Target,0,26,26,26,1792.969498091552,1794.9715002203593,right,1,3,1.1291721176239662,D11D08,2022-11-01_14h49.02.287,t1_Paradigm,2021.1.4,59.9844515277031,
G,left,Pretarget,0,27,27,27,1796.469948177517,1798.471019978926,left,1,3,0.9895338161149994,D11D08,2022-11-01_14h49.02.287,t1_Paradigm,2021.1.4,59.9844515277031,
V,left,Distractor,0,28,28,28,1799.9700232453179,1801.9716295038234,left,1,3,0.9611565831000917,D11D08,2022-11-01_14h49.02.287,t1_Paradigm,2021.1.4,59.9844515277031,
D,right,Target,0,29,29,29,1803.4697226533317,1805.4719419655157,right,1,3,0.9325153295649216,D11D08,2022-11-01_14h49.02.287,t1_Paradigm,2021.1.4,59.9844515277031,
G,right,Target,0,30,30,30,1806.9699545935728,1808.9716301453882,right,1,3,0.8569204492960125,D11D08,2022-11-01_14h49.02.287,t1_Paradigm,2021.1.4,59.9844515277031,
B,left,Pretarget,0,31,31,31,1810.4699456111412,1812.4705772713642,None,0,3,,D11D08,2022-11-01_14h49.02.287,t1_Paradigm,2021.1.4,59.9844515277031,
N,left,Distractor,0,32,32,32,1813.9699334205943,1815.9706305246218,left,1,3,1.1538569130934775,D11D08,2022-11-01_14h49.02.287,t1_Paradigm,2021.1.4,59.9844515277031,
F,left,Distractor,0,33,33,33,1817.4699279670021,1819.471529413422,left,1,3,1.141040208749473,D11D08,2022-11-01_14h49.02.287,t1_Paradigm,2021.1.4,59.9844515277031,
B,right,Target,0,34,34,34,1820.969819535676,1822.9713157588849,right,1,3,0.8412376947817393,D11D08,2022-11-01_14h49.02.287,t1_Paradigm,2021.1.4,59.9844515277031,
Q,left,Pretarget,0,35,35,35,1824.4698127988377,1826.4718274389743,left,1,3,0.9089417942450382,D11D08,2022-11-01_14h49.02.287,t1_Paradigm,2021.1.4,59.9844515277031,
S,left,Pretarget,0,36,36,36,1827.9700675160857,1829.9710802898044,left,1,3,0.929626181605272,D11D08,2022-11-01_14h49.02.287,t1_Paradigm,2021.1.4,59.9844515277031,
W,left,Distractor,0,37,37,37,1831.4699558768189,1833.4715172229335,left,1,3,0.997366210911423,D11D08,2022-11-01_14h49.02.287,t1_Paradigm,2021.1.4,59.9844515277031,
Q,right,Target,0,38,38,38,1834.9700319070253,1836.9711601696326,None,0,3,,D11D08,2022-11-01_14h49.02.287,t1_Paradigm,2021.1.4,59.9844515277031,
S,right,Target,0,39,39,39,1838.4699831450125,1840.4713571424363,right,1,3,1.2454020971199498,D11D08,2022-11-01_14h49.02.287,t1_Paradigm,2021.1.4,59.9844515277031,
T,left,Distractor,0,40,40,40,1841.9700296613737,1843.9699074355885,None,0,3,,D11D08,2022-11-01_14h49.02.287,t1_Paradigm,2021.1.4,59.9844515277031,
G,left,Distractor,0,41,41,41,1845.4699395158677,1847.4717642408796,left,1,3,0.9487136137322523,D11D08,2022-11-01_14h49.02.287,t1_Paradigm,2021.1.4,59.9844515277031,
D,left,Distractor,0,42,42,42,1848.970108258014,1850.9698971699108,left,1,3,0.9066971386200748,D11D08,2022-11-01_14h49.02.287,t1_Paradigm,2021.1.4,59.9844515277031,
S,left,Lure,0,43,43,43,1852.4699754457688,1854.4709073771955,None,0,3,,D11D08,2022-11-01_14h49.02.287,t1_Paradigm,2021.1.4,59.9844515277031,
Z,left,Pretarget,0,44,44,44,1855.9703847898636,1857.9702234261204,left,1,3,1.1703554684645496,D11D08,2022-11-01_14h49.02.287,t1_Paradigm,2021.1.4,59.9844515277031,
J,left,Distractor,0,45,45,45,1859.4700261325343,1861.4717892634799,left,1,3,1.3007806409732439,D11D08,2022-11-01_14h49.02.287,t1_Paradigm,2021.1.4,59.9844515277031,
M,left,Pretarget,0,46,46,46,1862.970199045143,1864.9721607528627,None,0,3,,D11D08,2022-11-01_14h49.02.287,t1_Paradigm,2021.1.4,59.9844515277031,
Z,right,Target,0,47,47,47,1866.4701830050326,1868.470822043717,right,1,3,1.0537610572646372,D11D08,2022-11-01_14h49.02.287,t1_Paradigm,2021.1.4,59.9844515277031,
P,left,Distractor,0,48,48,48,1869.9700075259898,1871.9714938043035,left,1,3,1.1851191236055456,D11D08,2022-11-01_14h49.02.287,t1_Paradigm,2021.1.4,59.9844515277031,
M,right,Target,0,49,49,49,1873.47007553617,1875.4708072867943,right,1,3,1.1259073098772205,D11D08,2022-11-01_14h49.02.287,t1_Paradigm,2021.1.4,59.9844515277031,
K,left,Distractor,0,50,50,50,1876.970170814544,1878.9714520999696,None,0,3,,D11D08,2022-11-01_14h49.02.287,t1_Paradigm,2021.1.4,59.9844515277031,
Y,left,Distractor,0,51,51,51,1880.4699962979066,1882.4718361006817,left,1,3,1.1810798984370194,D11D08,2022-11-01_14h49.02.287,t1_Paradigm,2021.1.4,59.9844515277031,
X,left,Distractor,0,52,52,52,1883.9700274157804,1885.971442475915,None,0,3,,D11D08,2022-11-01_14h49.02.287,t1_Paradigm,2021.1.4,59.9844515277031,
F,left,Pretarget,0,53,53,53,1887.4701060124207,1889.4716355990386,left,1,3,1.2849480716977268,D11D08,2022-11-01_14h49.02.287,t1_Paradigm,2021.1.4,59.9844515277031,
M,left,Lure,0,54,54,54,1890.9698827338289,1892.9721947579528,None,0,3,,D11D08,2022-11-01_14h49.02.287,t1_Paradigm,2021.1.4,59.9844515277031,
V,left,Distractor,0,55,55,55,1894.4699202677002,1896.4715961403563,left,1,3,1.1813493726076558,D11D08,2022-11-01_14h49.02.287,t1_Paradigm,2021.1.4,59.9844515277031,
F,right,Target,0,56,56,56,1897.9700158668566,1899.9691721561248,right,1,3,0.8674280167324468,D11D08,2022-11-01_14h49.02.287,t1_Paradigm,2021.1.4,59.9844515277031,
S,left,Distractor,0,57,57,57,1901.4701627944596,1903.4724982371554,left,1,3,0.6921013915562071,D11D08,2022-11-01_14h49.02.287,t1_Paradigm,2021.1.4,59.9844515277031,
D,left,Distractor,0,58,58,58,1904.970037681458,1906.972183850652,left,1,3,0.7924753832048737,D11D08,2022-11-01_14h49.02.287,t1_Paradigm,2021.1.4,59.9844515277031,
F,right,Target,0,59,59,59,1908.4702455615043,1910.4720529632177,right,1,3,1.2448336349916644,D11D08,2022-11-01_14h49.02.287,t1_Paradigm,2021.1.4,59.9844515277031,
V,left,Pretarget,0,60,60,60,1911.969858673634,1913.9700707241427,left,1,3,0.8345521691953763,D11D08,2022-11-01_14h49.02.287,t1_Paradigm,2021.1.4,59.9844515277031,
J,left,Distractor,0,61,61,61,1915.469913530862,1917.4714520999696,left,1,3,0.7095735828042962,D11D08,2022-11-01_14h49.02.287,t1_Paradigm,2021.1.4,59.9844515277031,
V,left,Lure,0,62,62,62,1918.9703312158235,1920.9714703857317,left,1,3,1.1454088981845416,D11D08,2022-11-01_14h49.02.287,t1_Paradigm,2021.1.4,59.9844515277031,
V,right,Target,0,63,63,63,1922.4700941427145,1924.4699385534623,right,1,3,1.0386980933253653,D11D08,2022-11-01_14h49.02.287,t1_Paradigm,2021.1.4,59.9844515277031,
R,left,Distractor,0,0,0,0,2013.9304814412608,2015.922137366375,left,1,4,0.8026967947371304,D11D08,2022-11-01_14h49.02.287,t1_Paradigm,2021.1.4,59.9844515277031,
F,left,Distractor,0,1,1,1,2017.4202096636873,2019.4225871315575,left,1,4,0.5821848066989332,D11D08,2022-11-01_14h49.02.287,t1_Paradigm,2021.1.4,59.9844515277031,
P,left,Pretarget,0,2,2,2,2020.920293072355,2022.9216484632343,left,1,4,0.6031928838347085,D11D08,2022-11-01_14h49.02.287,t1_Paradigm,2021.1.4,59.9844515277031,
H,left,Distractor,0,3,3,3,2024.420295638789,2026.4211589185288,left,1,4,0.6416394679690711,D11D08,2022-11-01_14h49.02.287,t1_Paradigm,2021.1.4,59.9844515277031,
Z,left,Distractor,0,4,4,4,2027.9204194686026,2029.9203931627562,left,1,4,0.7245951631921344,D11D08,2022-11-01_14h49.02.287,t1_Paradigm,2021.1.4,59.9844515277031,
T,left,Distractor,0,5,5,5,2031.4203389471513,2033.4222384191817,left,1,4,1.190754662384279,D11D08,2022-11-01_14h49.02.287,t1_Paradigm,2021.1.4,59.9844515277031,
P,right,Target,0,6,6,6,2034.9204387167701,2036.9221915819799,right,1,4,1.3387880463851616,D11D08,2022-11-01_14h49.02.287,t1_Paradigm,2021.1.4,59.9844515277031,
G,left,Distractor,0,7,7,7,2038.4201660345425,2040.4219105589436,left,1,4,0.9911041446612217,D11D08,2022-11-01_14h49.02.287,t1_Paradigm,2021.1.4,59.9844515277031,
L,left,Distractor,0,8,8,8,2041.9204932531575,2043.9218159221928,left,1,4,0.9315205207676627,D11D08,2022-11-01_14h49.02.287,t1_Paradigm,2021.1.4,59.9844515277031,
P,left,Lure,0,9,9,9,2045.4201798290596,2047.4224280134658,left,1,4,1.11048600950744,D11D08,2022-11-01_14h49.02.287,t1_Paradigm,2021.1.4,59.9844515277031,
Q,left,Pretarget,0,10,10,10,2048.920291789167,2050.9210209734156,left,1,4,1.1800360069028102,D11D08,2022-11-01_14h49.02.287,t1_Paradigm,2021.1.4,59.9844515277031,
D,left,Distractor,0,11,11,11,2052.420313282928,2054.4223064293037,left,1,4,0.974731343856547,D11D08,2022-11-01_14h49.02.287,t1_Paradigm,2021.1.4,59.9844515277031,
M,left,Pretarget,0,12,12,12,2055.920363648969,2057.920750857622,left,1,4,1.2362075746641494,D11D08,2022-11-01_14h49.02.287,t1_Paradigm,2021.1.4,59.9844515277031,
C,left,Distractor,0,13,13,13,2059.4201756586554,2061.4223179782275,left,1,4,0.7907295756158419,D11D08,2022-11-01_14h49.02.287,t1_Paradigm,2021.1.4,59.9844515277031,
Q,right,Target,0,14,14,14,2062.9204371127416,2064.922520083841,left,0,4,0.6663630804978311,D11D08,2022-11-01_14h49.02.287,t1_Paradigm,2021.1.4,59.9844515277031,
R,left,Distractor,0,15,15,15,2066.420393483597,2068.421229495085,None,0,4,,D11D08,2022-11-01_14h49.02.287,t1_Paradigm,2021.1.4,59.9844515277031,
M,right,Target,0,16,16,16,2069.92034600483,2071.9212926931796,left,0,4,0.8356310282833874,D11D08,2022-11-01_14h49.02.287,t1_Paradigm,2021.1.4,59.9844515277031,
S,left,Distractor,0,17,17,17,2073.4200829467154,2075.421012632549,left,1,4,0.8720337792183273,D11D08,2022-11-01_14h49.02.287,t1_Paradigm,2021.1.4,59.9844515277031,
Z,left,Distractor,0,18,18,18,2076.9204252430354,2078.9219817771227,left,1,4,0.9230866212164983,D11D08,2022-11-01_14h49.02.287,t1_Paradigm,2021.1.4,59.9844515277031,
L,left,Pretarget,0,19,19,19,2080.42031199974,2082.4226224198355,left,1,4,0.8306512099807151,D11D08,2022-11-01_14h49.02.287,t1_Paradigm,2021.1.4,59.9844515277031,
M,right,Target,0,20,20,20,2083.9204063157085,2085.9217928244034,right,1,4,0.9793509009177797,D11D08,2022-11-01_14h49.02.287,t1_Paradigm,2021.1.4,59.9844515277031,
P,left,Distractor,0,21,21,21,2087.4203761602403,2089.422803673311,left,1,4,0.8861503755906597,D11D08,2022-11-01_14h49.02.287,t1_Paradigm,2021.1.4,59.9844515277031,
F,left,Distractor,0,22,22,22,2090.9204820250743,2092.921070697834,left,1,4,0.7960812040837482,D11D08,2022-11-01_14h49.02.287,t1_Paradigm,2021.1.4,59.9844515277031,
L,right,Target,0,23,23,23,2094.420214475773,2096.4218483232544,right,1,4,1.0392396080424078,D11D08,2022-11-01_14h49.02.287,t1_Paradigm,2021.1.4,59.9844515277031,
L,left,Lure,0,24,24,24,2097.920364290534,2099.9204573233146,left,1,4,1.2685210552881472,D11D08,2022-11-01_14h49.02.287,t1_Paradigm,2021.1.4,59.9844515277031,
V,left,Pretarget,0,25,25,25,2101.420387067541,2103.4196950963815,left,1,4,1.1453354343539104,D11D08,2022-11-01_14h49.02.287,t1_Paradigm,2021.1.4,59.9844515277031,
Z,left,Distractor,0,26,26,26,2104.9206093837274,2106.9223083541146,None,0,4,,D11D08,2022-11-01_14h49.02.287,t1_Paradigm,2021.1.4,59.9844515277031,
H,left,Distractor,0,27,27,27,2108.420236931939,2110.423073468264,None,0,4,,D11D08,2022-11-01_14h49.02.287,t1_Paradigm,2021.1.4,59.9844515277031,
X,left,Distractor,0,28,28,28,2111.9203658945626,2113.922388233943,left,1,4,1.2186503707780503,D11D08,2022-11-01_14h49.02.287,t1_Paradigm,2021.1.4,59.9844515277031,
V,right,Target,0,29,29,29,2115.420472721802,2117.4212429688196,right,1,4,0.9677349606645294,D11D08,2022-11-01_14h49.02.287,t1_Paradigm,2021.1.4,59.9844515277031,
C,left,Distractor,0,30,30,30,2118.920249122428,2120.921765235369,None,0,4,,D11D08,2022-11-01_14h49.02.287,t1_Paradigm,2021.1.4,59.9844515277031,
S,left,Pretarget,0,31,31,31,2122.420481704292,2124.4220305390772,None,0,4,,D11D08,2022-11-01_14h49.02.287,t1_Paradigm,2021.1.4,59.9844515277031,
D,left,Distractor,0,32,32,32,2125.9203344559064,2127.922012574156,left,1,4,1.3792030750773847,D11D08,2022-11-01_14h49.02.287,t1_Paradigm,2021.1.4,59.9844515277031,
V,left,Distractor,0,33,33,33,2129.4208942563855,2131.421719360631,left,1,4,1.1596438706037588,D11D08,2022-11-01_14h49.02.287,t1_Paradigm,2021.1.4,59.9844515277031,
R,left,Distractor,0,34,34,34,2132.920439999958,2134.9220186694292,left,1,4,0.9391042935312726,D11D08,2022-11-01_14h49.02.287,t1_Paradigm,2021.1.4,59.9844515277031,
S,right,Target,0,35,35,35,2136.4201079693157,2138.4217953908374,left,0,4,0.7352583198808134,D11D08,2022-11-01_14h49.02.287,t1_Paradigm,2021.1.4,59.9844515277031,
Y,left,Distractor,0,36,36,36,2139.9204592481256,2141.9218483232544,left,1,4,0.7553136133938096,D11D08,2022-11-01_14h49.02.287,t1_Paradigm,2021.1.4,59.9844515277031,
N,left,Pretarget,0,37,37,37,2143.4205930227763,2145.420684772311,left,1,4,0.8883985599386506,D11D08,2022-11-01_14h49.02.287,t1_Paradigm,2021.1.4,59.9844515277031,
Z,left,Pretarget,0,38,38,38,2146.9206350478926,2148.922743041592,left,1,4,0.8423409348470159,D11D08,2022-11-01_14h49.02.287,t1_Paradigm,2021.1.4,59.9844515277031,
P,left,Pretarget,0,39,39,39,2150.420513784571,2152.4212474600063,left,1,4,0.8959800871671177,D11D08,2022-11-01_14h49.02.287,t1_Paradigm,2021.1.4,59.9844515277031,
M,left,Distractor,0,40,40,40,2153.920310716494,2155.9221274214797,left,1,4,1.059318961808458,D11D08,2022-11-01_14h49.02.287,t1_Paradigm,2021.1.4,59.9844515277031,
N,right,Target,0,41,41,41,2157.4205336743034,2159.4227013372583,right,1,4,1.062588260800112,D11D08,2022-11-01_14h49.02.287,t1_Paradigm,2021.1.4,59.9844515277031,
Z,right,Target,0,42,42,42,2160.920528862276,2162.9223734770785,left,0,4,1.114884212729521,D11D08,2022-11-01_14h49.02.287,t1_Paradigm,2021.1.4,59.9844515277031,
P,right,Target,0,43,43,43,2164.420537203143,2166.42264102638,None,0,4,,D11D08,2022-11-01_14h49.02.287,t1_Paradigm,2021.1.4,59.9844515277031,
X,left,Pretarget,0,44,44,44,2167.9206344063277,2169.9227504200535,left,1,4,1.1863939930335619,D11D08,2022-11-01_14h49.02.287,t1_Paradigm,2021.1.4,59.9844515277031,
Z,left,Lure,0,45,45,45,2171.420549072849,2173.4225094973226,None,0,4,,D11D08,2022-11-01_14h49.02.287,t1_Paradigm,2021.1.4,59.9844515277031,
R,left,Pretarget,0,46,46,46,2174.9206276694895,2176.922322790255,left,1,4,1.0988142495625652,D11D08,2022-11-01_14h49.02.287,t1_Paradigm,2021.1.4,59.9844515277031,
K,left,Distractor,0,47,47,47,2178.420572491421,2180.4220927748247,left,1,4,0.9751804674742743,D11D08,2022-11-01_14h49.02.287,t1_Paradigm,2021.1.4,59.9844515277031,
X,right,Target,0,48,48,48,2181.92054201517,2183.9226865803357,left,0,4,0.738582796882838,D11D08,2022-11-01_14h49.02.287,t1_Paradigm,2021.1.4,59.9844515277031,
B,left,Distractor,0,49,49,49,2185.420557413716,2187.422427371901,left,1,4,0.3426149002625607,D11D08,2022-11-01_14h49.02.287,t1_Paradigm,2021.1.4,59.9844515277031,
R,right,Target,0,50,50,50,2188.9205208421918,2190.9222441936145,left,0,4,0.7950918489950709,D11D08,2022-11-01_14h49.02.287,t1_Paradigm,2021.1.4,59.9844515277031,
Y,left,Pretarget,0,51,51,51,2192.420576661825,2194.422374439484,left,1,4,0.3347228362108581,D11D08,2022-11-01_14h49.02.287,t1_Paradigm,2021.1.4,59.9844515277031,
W,left,Pretarget,0,52,52,52,2195.9205253334367,2197.9224382791435,left,1,4,0.338821089011617,D11D08,2022-11-01_14h49.02.287,t1_Paradigm,2021.1.4,59.9844515277031,
Z,left,Distractor,0,53,53,53,2199.4204663057462,2201.4224931364297,left,1,4,0.6791249276138842,D11D08,2022-11-01_14h49.02.287,t1_Paradigm,2021.1.4,59.9844515277031,
Q,left,Distractor,0,54,54,54,2202.9205978348036,2204.922433467116,left,1,4,0.6187332019908354,D11D08,2022-11-01_14h49.02.287,t1_Paradigm,2021.1.4,59.9844515277031,
Y,right,Target,0,55,55,55,2206.420582436316,2208.4223292063107,left,0,4,0.6386284150066786,D11D08,2022-11-01_14h49.02.287,t1_Paradigm,2021.1.4,59.9844515277031,
W,right,Target,0,56,56,56,2209.920601363643,2211.922139932809,left,0,4,1.2830566197517328,D11D08,2022-11-01_14h49.02.287,t1_Paradigm,2021.1.4,59.9844515277031,
H,left,Pretarget,0,57,57,57,2213.420597193239,2215.4222996924655,left,1,4,0.7909993706271052,D11D08,2022-11-01_14h49.02.287,t1_Paradigm,2021.1.4,59.9844515277031,
M,left,Distractor,0,58,58,58,2216.920619007782,2218.9217334759305,None,0,4,,D11D08,2022-11-01_14h49.02.287,t1_Paradigm,2021.1.4,59.9844515277031,
R,left,Pretarget,0,59,59,59,2220.4205984764267,2222.422539011168,left,1,4,1.1825758008053526,D11D08,2022-11-01_14h49.02.287,t1_Paradigm,2021.1.4,59.9844515277031,
J,left,Distractor,0,60,60,60,2223.9201246510493,2225.9221925443853,left,1,4,0.9312600290868431,D11D08,2022-11-01_14h49.02.287,t1_Paradigm,2021.1.4,59.9844515277031,
H,right,Target,0,61,61,61,2227.4207020956674,2229.4228418488055,right,1,4,1.366396636411082,D11D08,2022-11-01_14h49.02.287,t1_Paradigm,2021.1.4,59.9844515277031,
Z,left,Distractor,0,62,62,62,2230.92065269209,2232.9225896979915,left,1,4,1.0026078040827997,D11D08,2022-11-01_14h49.02.287,t1_Paradigm,2021.1.4,59.9844515277031,
R,right,Target,0,63,63,63,2234.420424922253,2236.4214299966698,right,1,4,0.9759205590235069,D11D08,2022-11-01_14h49.02.287,t1_Paradigm,2021.1.4,59.9844515277031,
J,left,Pretarget,0,0,0,0,2263.9525180114433,2265.9554584877915,left,1,4,1.041963542753365,D11D08,2022-11-01_14h49.02.287,t1_Paradigm,2021.1.4,59.9844515277031,
G,left,Pretarget,0,1,1,1,2267.4538185450947,2269.4558267691755,left,1,4,0.805578243394848,D11D08,2022-11-01_14h49.02.287,t1_Paradigm,2021.1.4,59.9844515277031,
Z,left,Distractor,0,2,2,2,2270.954129081976,2272.956234188401,left,1,4,0.7612609722418711,D11D08,2022-11-01_14h49.02.287,t1_Paradigm,2021.1.4,59.9844515277031,
F,left,Distractor,0,3,3,3,2274.4540321995737,2276.455252532556,left,1,4,0.655275181226898,D11D08,2022-11-01_14h49.02.287,t1_Paradigm,2021.1.4,59.9844515277031,
J,right,Target,0,4,4,4,2277.9539641894517,2279.954328300373,right,1,4,0.72308257909026,D11D08,2022-11-01_14h49.02.287,t1_Paradigm,2021.1.4,59.9844515277031,
G,right,Target,0,5,5,5,2281.454061071796,2283.4556766335736,right,1,4,1.0935983205563389,D11D08,2022-11-01_14h49.02.287,t1_Paradigm,2021.1.4,59.9844515277031,
H,left,Distractor,0,6,6,6,2284.9539580941782,2286.9546179850586,left,1,4,1.0826672937255353,D11D08,2022-11-01_14h49.02.287,t1_Paradigm,2021.1.4,59.9844515277031,
P,left,Distractor,0,7,7,7,2288.453847417317,2290.454849925358,left,1,4,1.374568119586911,D11D08,2022-11-01_14h49.02.287,t1_Paradigm,2021.1.4,59.9844515277031,
G,left,Lure,0,8,8,8,2291.9539263347397,2293.956094318477,left,1,4,1.169238433940336,D11D08,2022-11-01_14h49.02.287,t1_Paradigm,2021.1.4,59.9844515277031,
S,left,Distractor,0,9,9,9,2295.4541781647713,2297.455538367678,left,1,4,0.9657533631543629,D11D08,2022-11-01_14h49.02.287,t1_Paradigm,2021.1.4,59.9844515277031,
R,left,Pretarget,0,10,10,10,2298.953895858489,2300.95438123279,left,1,4,0.779048191558104,D11D08,2022-11-01_14h49.02.287,t1_Paradigm,2021.1.4,59.9844515277031,
T,left,Pretarget,0,11,11,11,2302.4543061649892,2304.4562900080928,left,1,4,1.0690540366340429,D11D08,2022-11-01_14h49.02.287,t1_Paradigm,2021.1.4,59.9844515277031,
X,left,Distractor,0,12,12,12,2305.9540411820635,2307.9558601326426,left,1,4,0.913889532268513,D11D08,2022-11-01_14h49.02.287,t1_Paradigm,2021.1.4,59.9844515277031,
F,left,Pretarget,0,13,13,13,2309.4541653326596,2311.4559788295883,left,1,4,0.7574838427826762,D11D08,2022-11-01_14h49.02.287,t1_Paradigm,2021.1.4,59.9844515277031,
R,right,Target,0,14,14,14,2312.953485872771,2314.9555608238443,right,1,4,0.7459750505513512,D11D08,2022-11-01_14h49.02.287,t1_Paradigm,2021.1.4,59.9844515277031,
T,right,Target,0,15,15,15,2316.454238154809,2318.4557048641727,None,0,4,,D11D08,2022-11-01_14h49.02.287,t1_Paradigm,2021.1.4,59.9844515277031,
C,left,Distractor,0,16,16,16,2319.9540809615864,2321.955685616005,left,1,4,1.3937081633484922,D11D08,2022-11-01_14h49.02.287,t1_Paradigm,2021.1.4,59.9844515277031,
F,right,Target,0,17,17,17,2323.4540171218687,2325.4546340252273,right,1,4,0.9666901066666469,D11D08,2022-11-01_14h49.02.287,t1_Paradigm,2021.1.4,59.9844515277031,
M,left,Distractor,0,18,18,18,2326.953818865877,2328.955982037587,left,1,4,0.6494330456480384,D11D08,2022-11-01_14h49.02.287,t1_Paradigm,2021.1.4,59.9844515277031,
N,left,Distractor,0,19,19,19,2330.4542131322087,2332.4557321324246,left,1,4,0.9578292188234627,D11D08,2022-11-01_14h49.02.287,t1_Paradigm,2021.1.4,59.9844515277031,
R,left,Lure,0,20,20,20,2333.954089944018,2335.955588733661,None,0,4,,D11D08,2022-11-01_14h49.02.287,t1_Paradigm,2021.1.4,59.9844515277031,
F,right,Target,0,21,21,21,2337.454046635714,2339.453744439699,right,1,4,0.9036488725687377,D11D08,2022-11-01_14h49.02.287,t1_Paradigm,2021.1.4,59.9844515277031,
P,left,Distractor,0,22,22,22,2340.9540848112083,2342.954866927874,None,0,4,,D11D08,2022-11-01_14h49.02.287,t1_Paradigm,2021.1.4,59.9844515277031,
L,left,Pretarget,0,23,23,23,2344.45386377821,2346.4559371252544,None,0,4,,D11D08,2022-11-01_14h49.02.287,t1_Paradigm,2021.1.4,59.9844515277031,
T,left,Distractor,0,24,24,24,2347.9539917784277,2349.956166178279,left,1,4,1.3295954487402923,D11D08,2022-11-01_14h49.02.287,t1_Paradigm,2021.1.4,59.9844515277031,
F,left,Distractor,0,25,25,25,2351.454352360568,2353.4560519725783,right,0,4,0.6935276798321865,D11D08,2022-11-01_14h49.02.287,t1_Paradigm,2021.1.4,59.9844515277031,
V,left,Distractor,0,26,26,26,2354.954170144687,2356.955758758995,left,1,4,0.8738094214349985,D11D08,2022-11-01_14h49.02.287,t1_Paradigm,2021.1.4,59.9844515277031,
L,right,Target,0,27,27,27,2358.453977663128,2360.4555871296325,right,1,4,1.021939046215266,D11D08,2022-11-01_14h49.02.287,t1_Paradigm,2021.1.4,59.9844515277031,
S,left,Pretarget,0,28,28,28,2361.9541281195707,2363.955436031625,left,1,4,1.3141257071401924,D11D08,2022-11-01_14h49.02.287,t1_Paradigm,2021.1.4,59.9844515277031,
W,left,Distractor,0,29,29,29,2365.4540822447743,2367.4552611942054,left,1,4,0.8382372283376753,D11D08,2022-11-01_14h49.02.287,t1_Paradigm,2021.1.4,59.9844515277031,
Q,left,Distractor,0,30,30,30,2368.9539061241667,2370.956190238474,None,0,4,,D11D08,2022-11-01_14h49.02.287,t1_Paradigm,2021.1.4,59.9844515277031,
L,right,Target,0,31,31,31,2372.45403508679,2374.4561607246287,right,1,4,1.2615359000628814,D11D08,2022-11-01_14h49.02.287,t1_Paradigm,2021.1.4,59.9844515277031,
S,right,Target,0,32,32,32,2375.9542830672,2377.9562787800096,None,0,4,,D11D08,2022-11-01_14h49.02.287,t1_Paradigm,2021.1.4,59.9844515277031,
Z,left,Pretarget,0,33,33,33,2379.454199658532,2381.4558489045594,None,0,4,,D11D08,2022-11-01_14h49.02.287,t1_Paradigm,2021.1.4,59.9844515277031,
F,left,Distractor,0,34,34,34,2382.953519557079,2384.9562005041516,left,1,4,0.9533318875473924,D11D08,2022-11-01_14h49.02.287,t1_Paradigm,2021.1.4,59.9844515277031,
V,left,Distractor,0,35,35,35,2386.45418137277,2388.4560083434335,left,1,4,1.277625753020402,D11D08,2022-11-01_14h49.02.287,t1_Paradigm,2021.1.4,59.9844515277031,
M,left,Distractor,0,36,36,36,2389.954355568567,2391.956181255984,left,1,4,0.7693355729570612,D11D08,2022-11-01_14h49.02.287,t1_Paradigm,2021.1.4,59.9844515277031,
Z,right,Target,0,37,37,37,2393.4539882496465,2395.4560115514323,left,0,4,0.8854680285439827,D11D08,2022-11-01_14h49.02.287,t1_Paradigm,2021.1.4,59.9844515277031,
H,left,Pretarget,0,38,38,38,2396.9537101137685,2398.9564276323654,left,1,4,0.8891460299491882,D11D08,2022-11-01_14h49.02.287,t1_Paradigm,2021.1.4,59.9844515277031,
L,left,Distractor,0,39,39,39,2400.454385724035,2402.455610227422,left,1,4,0.9098576855612919,D11D08,2022-11-01_14h49.02.287,t1_Paradigm,2021.1.4,59.9844515277031,
G,left,Distractor,0,40,40,40,2403.95417078631,2405.956277175981,left,1,4,0.7372450502007268,D11D08,2022-11-01_14h49.02.287,t1_Paradigm,2021.1.4,59.9844515277031,
K,left,Distractor,0,41,41,41,2407.454022575519,2409.454940070864,left,1,4,1.0952363385003991,D11D08,2022-11-01_14h49.02.287,t1_Paradigm,2021.1.4,59.9844515277031,
H,right,Target,0,42,42,42,2410.9540296331397,2412.953315205814,right,1,4,0.7962345477426425,D11D08,2022-11-01_14h49.02.287,t1_Paradigm,2021.1.4,59.9844515277031,
B,left,Distractor,0,43,43,43,2414.4543382452102,2416.455221735523,left,1,4,0.7662837780662812,D11D08,2022-11-01_14h49.02.287,t1_Paradigm,2021.1.4,59.9844515277031,
Z,left,Distractor,0,44,44,44,2417.9542788967374,2419.955983962398,left,1,4,0.9457015984226018,D11D08,2022-11-01_14h49.02.287,t1_Paradigm,2021.1.4,59.9844515277031,
T,left,Pretarget,0,45,45,45,2421.4542865960393,2423.4560083434335,left,1,4,1.3335387539118528,D11D08,2022-11-01_14h49.02.287,t1_Paradigm,2021.1.4,59.9844515277031,
H,right,Target,0,46,46,46,2424.9543539645383,2426.9552207731176,right,1,4,0.8904439971665852,D11D08,2022-11-01_14h49.02.287,t1_Paradigm,2021.1.4,59.9844515277031,
F,left,Distractor,0,47,47,47,2428.454231738753,2430.45574368129,left,1,4,0.8780847573652864,D11D08,2022-11-01_14h49.02.287,t1_Paradigm,2021.1.4,59.9844515277031,
R,left,Distractor,0,48,48,48,2431.9539580941782,2433.9555441421107,left,1,4,1.2981375486124307,D11D08,2022-11-01_14h49.02.287,t1_Paradigm,2021.1.4,59.9844515277031,
T,right,Target,0,49,49,49,2435.4542480997043,2437.45611452905,right,1,4,0.6456129285506904,D11D08,2022-11-01_14h49.02.287,t1_Paradigm,2021.1.4,59.9844515277031,
H,right,Target,0,50,50,50,2438.9541868264205,2440.955297444947,right,1,4,0.8904022928327322,D11D08,2022-11-01_14h49.02.287,t1_Paradigm,2021.1.4,59.9844515277031,
Y,left,Pretarget,0,51,51,51,2442.454451167723,2444.4565517829615,left,1,4,1.069043129333295,D11D08,2022-11-01_14h49.02.287,t1_Paradigm,2021.1.4,59.9844515277031,
H,left,Distractor,0,52,52,52,2445.953980229562,2447.9552239811164,left,1,4,1.3305591396056116,D11D08,2022-11-01_14h49.02.287,t1_Paradigm,2021.1.4,59.9844515277031,
S,left,Distractor,0,53,53,53,2449.454123307485,2451.4563381284825,left,1,4,1.0774888985906728,D11D08,2022-11-01_14h49.02.287,t1_Paradigm,2021.1.4,59.9844515277031,
Q,left,Distractor,0,54,54,54,2452.954110796214,2454.9551598206162,left,1,4,0.9704775018035434,D11D08,2022-11-01_14h49.02.287,t1_Paradigm,2021.1.4,59.9844515277031,
Y,right,Target,0,55,55,55,2456.453844850883,2458.454841584491,left,0,4,1.0227939850883558,D11D08,2022-11-01_14h49.02.287,t1_Paradigm,2021.1.4,59.9844515277031,
R,left,Distractor,0,56,56,56,2459.9542513077613,2461.955362888635,left,1,4,0.9942043807241134,D11D08,2022-11-01_14h49.02.287,t1_Paradigm,2021.1.4,59.9844515277031,
H,left,Pretarget,0,57,57,57,2463.4537454021047,2465.456152383762,right,0,4,0.8693954988848418,D11D08,2022-11-01_14h49.02.287,t1_Paradigm,2021.1.4,59.9844515277031,
J,left,Distractor,0,58,58,58,2466.9542214730754,2468.956332674832,left,1,4,0.6492986293160357,D11D08,2022-11-01_14h49.02.287,t1_Paradigm,2021.1.4,59.9844515277031,
V,left,Distractor,0,59,59,59,2470.454328941938,2472.466988132219,left,1,4,0.9148904362809844,D11D08,2022-11-01_14h49.02.287,t1_Paradigm,2021.1.4,59.9844515277031,
Y,left,Lure,0,60,60,60,2473.954218585859,2475.9546722007217,None,0,4,,D11D08,2022-11-01_14h49.02.287,t1_Paradigm,2021.1.4,59.9844515277031,
H,right,Target,0,61,61,61,2477.453549070924,2479.455102076172,None,0,4,,D11D08,2022-11-01_14h49.02.287,t1_Paradigm,2021.1.4,59.9844515277031,
L,left,Distractor,0,62,62,62,2480.954479719163,2482.9567577381968,left,1,4,0.9689078148221597,D11D08,2022-11-01_14h49.02.287,t1_Paradigm,2021.1.4,59.9844515277031,
P,left,Distractor,0,63,63,63,2484.4543671174906,2486.454622797086,left,1,4,0.5908233782975003,D11D08,2022-11-01_14h49.02.287,t1_Paradigm,2021.1.4,59.9844515277031,
