Currentstep,EDround.thisRepN,EDround.thisTrialN,EDround.thisN,EDround.thisIndex,question.started,EDclick.clicked_name,EDleftbutton.wasclicked,EDrightbutton.wasclicked,EDleftbutton.value,EDrightbutton.value,EDleftbutton.nback,EDrightbutton.nback,Participant,date,expName,psychopyVersion,frameRate,
,,,,,,,,,,,,,D11D08,2022-11-01_14h49.02.287,t1_Paradigm,2021.1.4,59.9844515277031,
0,0,0,0,0,2713.3010003907257,EDleftbutton,1,0,2.00,1.00,1,3,D11D08,2022-11-01_14h49.02.287,t1_Paradigm,2021.1.4,59.9844515277031,
1,0,1,1,1,2722.854904846754,EDleftbutton,1,0,2.00,1.50,1,3,D11D08,2022-11-01_14h49.02.287,t1_Paradigm,2021.1.4,59.9844515277031,
2,0,2,2,2,2725.6551317824633,EDleftbutton,1,0,2.00,1.75,1,3,D11D08,2022-11-01_14h49.02.287,t1_Paradigm,2021.1.4,59.9844515277031,
3,0,3,3,3,2727.123228287557,EDleftbutton,1,0,2.00,1.88,1,3,D11D08,2022-11-01_14h49.02.287,t1_Paradigm,2021.1.4,59.9844515277031,
4,0,4,4,4,2730.542283382849,EDleftbutton,1,0,2.00,1.94,1,3,D11D08,2022-11-01_14h49.02.287,t1_Paradigm,2021.1.4,59.9844515277031,
5,0,5,5,5,2733.765666874766,EDleftbutton,1,0,2.00,1.97,1,3,D11D08,2022-11-01_14h49.02.287,t1_Paradigm,2021.1.4,59.9844515277031,
0,0,0,0,0,2735.215474425291,EDleftbutton,1,0,2.00,1.00,2,4,D11D08,2022-11-01_14h49.02.287,t1_Paradigm,2021.1.4,59.9844515277031,
1,0,1,1,1,2739.6493656770326,EDleftbutton,1,0,2.00,1.50,2,4,D11D08,2022-11-01_14h49.02.287,t1_Paradigm,2021.1.4,59.9844515277031,
2,0,2,2,2,2742.4127314349753,EDleftbutton,1,0,2.00,1.75,2,4,D11D08,2022-11-01_14h49.02.287,t1_Paradigm,2021.1.4,59.9844515277031,
3,0,3,3,3,2743.6644344154047,EDleftbutton,1,0,2.00,1.88,2,4,D11D08,2022-11-01_14h49.02.287,t1_Paradigm,2021.1.4,59.9844515277031,
4,0,4,4,4,2744.950738519605,EDleftbutton,1,0,2.00,1.94,2,4,D11D08,2022-11-01_14h49.02.287,t1_Paradigm,2021.1.4,59.9844515277031,
5,0,5,5,5,2746.5480202952167,EDleftbutton,1,0,2.00,1.97,2,4,D11D08,2022-11-01_14h49.02.287,t1_Paradigm,2021.1.4,59.9844515277031,
0,0,0,0,0,2748.189680294541,EDleftbutton,1,0,2.00,1.00,3,4,D11D08,2022-11-01_14h49.02.287,t1_Paradigm,2021.1.4,59.9844515277031,
1,0,1,1,1,2760.0050064449315,EDleftbutton,1,0,2.00,1.50,3,4,D11D08,2022-11-01_14h49.02.287,t1_Paradigm,2021.1.4,59.9844515277031,
2,0,2,2,2,2760.813618197455,EDleftbutton,1,0,2.00,1.75,3,4,D11D08,2022-11-01_14h49.02.287,t1_Paradigm,2021.1.4,59.9844515277031,
3,0,3,3,3,2761.6293023634353,EDleftbutton,1,0,2.00,1.88,3,4,D11D08,2022-11-01_14h49.02.287,t1_Paradigm,2021.1.4,59.9844515277031,
4,0,4,4,4,2762.4481480388204,EDleftbutton,1,0,2.00,1.94,3,4,D11D08,2022-11-01_14h49.02.287,t1_Paradigm,2021.1.4,59.9844515277031,
5,0,5,5,5,2763.549274312507,EDleftbutton,1,0,2.00,1.97,3,4,D11D08,2022-11-01_14h49.02.287,t1_Paradigm,2021.1.4,59.9844515277031,
0,0,0,0,0,2764.6628759565647,EDleftbutton,1,0,2.00,1.00,1,2,D11D08,2022-11-01_14h49.02.287,t1_Paradigm,2021.1.4,59.9844515277031,
1,0,1,1,1,2771.8642488632468,EDleftbutton,1,0,2.00,1.50,1,2,D11D08,2022-11-01_14h49.02.287,t1_Paradigm,2021.1.4,59.9844515277031,
2,0,2,2,2,2772.6647889022715,EDleftbutton,1,0,2.00,1.75,1,2,D11D08,2022-11-01_14h49.02.287,t1_Paradigm,2021.1.4,59.9844515277031,
3,0,3,3,3,2773.464552599122,EDleftbutton,1,0,2.00,1.88,1,2,D11D08,2022-11-01_14h49.02.287,t1_Paradigm,2021.1.4,59.9844515277031,
4,0,4,4,4,2774.279392091965,EDleftbutton,1,0,2.00,1.94,1,2,D11D08,2022-11-01_14h49.02.287,t1_Paradigm,2021.1.4,59.9844515277031,
5,0,5,5,5,2775.0745509886765,EDleftbutton,1,0,2.00,1.97,1,2,D11D08,2022-11-01_14h49.02.287,t1_Paradigm,2021.1.4,59.9844515277031,
0,0,0,0,0,2775.964787105797,EDleftbutton,1,0,2.00,1.00,1,4,D11D08,2022-11-01_14h49.02.287,t1_Paradigm,2021.1.4,59.9844515277031,
1,0,1,1,1,2778.600646673818,EDleftbutton,1,0,2.00,1.50,1,4,D11D08,2022-11-01_14h49.02.287,t1_Paradigm,2021.1.4,59.9844515277031,
2,0,2,2,2,2779.433213075099,EDleftbutton,1,0,2.00,1.75,1,4,D11D08,2022-11-01_14h49.02.287,t1_Paradigm,2021.1.4,59.9844515277031,
3,0,3,3,3,2780.4152683417196,EDleftbutton,1,0,2.00,1.88,1,4,D11D08,2022-11-01_14h49.02.287,t1_Paradigm,2021.1.4,59.9844515277031,
4,0,4,4,4,2781.171290287166,EDleftbutton,1,0,2.00,1.94,1,4,D11D08,2022-11-01_14h49.02.287,t1_Paradigm,2021.1.4,59.9844515277031,
5,0,5,5,5,2781.981055645738,EDleftbutton,1,0,2.00,1.97,1,4,D11D08,2022-11-01_14h49.02.287,t1_Paradigm,2021.1.4,59.9844515277031,
0,0,0,0,0,2782.749772069743,EDleftbutton,1,0,2.00,1.00,2,3,D11D08,2022-11-01_14h49.02.287,t1_Paradigm,2021.1.4,59.9844515277031,
1,0,1,1,1,2788.1895144396112,EDleftbutton,1,0,2.00,1.50,2,3,D11D08,2022-11-01_14h49.02.287,t1_Paradigm,2021.1.4,59.9844515277031,
2,0,2,2,2,2788.9900163031416,EDleftbutton,1,0,2.00,1.75,2,3,D11D08,2022-11-01_14h49.02.287,t1_Paradigm,2021.1.4,59.9844515277031,
3,0,3,3,3,2789.764256305818,EDleftbutton,1,0,2.00,1.88,2,3,D11D08,2022-11-01_14h49.02.287,t1_Paradigm,2021.1.4,59.9844515277031,
4,0,4,4,4,2790.5794146764674,EDleftbutton,1,0,2.00,1.94,2,3,D11D08,2022-11-01_14h49.02.287,t1_Paradigm,2021.1.4,59.9844515277031,
5,0,5,5,5,2791.3485301788314,EDleftbutton,1,0,2.00,1.97,2,3,D11D08,2022-11-01_14h49.02.287,t1_Paradigm,2021.1.4,59.9844515277031,
