Letter,CorrAnswer,Stimulus,nback_run.thisRepN,nback_run.thisTrialN,nback_run.thisN,nback_run.thisIndex,fixcross.started,nback_trial.started,trial_resp.keys,trial_resp.corr,currentlevel,trial_resp.rt,Participant,date,expName,psychopyVersion,frameRate,
H,left,Distractor,0,0,0,0,247.01664255326614,248.96274818014354,None,0,1,,D12T04,2023-01-09_14h40.32.959,t1_Paradigm,2021.1.4,60.06076999175848,
Q,left,Pretarget,0,1,1,1,250.45409551542252,252.45330762630329,left,1,1,0.3063358347862959,D12T04,2023-01-09_14h40.32.959,t1_Paradigm,2021.1.4,60.06076999175848,
Q,right,Target,0,2,2,2,253.95008741877973,255.95009383466095,right,1,1,0.6335523338057101,D12T04,2023-01-09_14h40.32.959,t1_Paradigm,2021.1.4,60.06076999175848,
T,left,Distractor,0,3,3,3,257.44995268201455,259.45163368294016,left,1,1,0.46021416736766696,D12T04,2023-01-09_14h40.32.959,t1_Paradigm,2021.1.4,60.06076999175848,
Q,left,Lure,0,4,4,4,260.95009158877656,262.95114478096366,left,1,1,0.9924605172127485,D12T04,2023-01-09_14h40.32.959,t1_Paradigm,2021.1.4,60.06076999175848,
L,left,Distractor,0,5,5,5,264.45011596987024,266.4516702545807,left,1,1,0.6282552555203438,D12T04,2023-01-09_14h40.32.959,t1_Paradigm,2021.1.4,60.06076999175848,
V,left,Pretarget,0,6,6,6,267.9493928826414,269.95202377811074,left,1,1,0.43967002304270864,D12T04,2023-01-09_14h40.32.959,t1_Paradigm,2021.1.4,60.06076999175848,
V,right,Target,0,7,7,7,271.4500569421798,273.4502603309229,right,1,1,0.47732412861660123,D12T04,2023-01-09_14h40.32.959,t1_Paradigm,2021.1.4,60.06076999175848,
K,left,Distractor,0,8,8,8,274.9500303156674,276.9525668951683,left,1,1,0.41493171732872725,D12T04,2023-01-09_14h40.32.959,t1_Paradigm,2021.1.4,60.06076999175848,
G,left,Pretarget,0,9,9,9,278.45026257634163,280.45158684579656,left,1,1,0.43607511883601546,D12T04,2023-01-09_14h40.32.959,t1_Paradigm,2021.1.4,60.06076999175848,
G,right,Target,0,10,10,10,281.9501817342825,283.95008196495473,right,1,1,0.6174381412565708,D12T04,2023-01-09_14h40.32.959,t1_Paradigm,2021.1.4,60.06076999175848,
G,right,Target,0,11,11,11,285.45013329340145,287.4501239899546,right,1,1,0.4462708402425051,D12T04,2023-01-09_14h40.32.959,t1_Paradigm,2021.1.4,60.06076999175848,
P,left,Pretarget,0,12,12,12,288.9501964910887,290.9517183746211,left,1,1,0.3358973949216306,D12T04,2023-01-09_14h40.32.959,t1_Paradigm,2021.1.4,60.06076999175848,
P,right,Target,0,13,13,13,292.45012591499835,294.4501060252078,right,1,1,0.5017900737002492,D12T04,2023-01-09_14h40.32.959,t1_Paradigm,2021.1.4,60.06076999175848,
G,left,Lure,0,14,14,14,295.95005020545796,297.9507319093682,left,1,1,0.4409391153603792,D12T04,2023-01-09_14h40.32.959,t1_Paradigm,2021.1.4,60.06076999175848,
Y,left,Distractor,0,15,15,15,299.45006720814854,301.4516137931496,left,1,1,0.5400026943534613,D12T04,2023-01-09_14h40.32.959,t1_Paradigm,2021.1.4,60.06076999175848,
B,left,Distractor,0,16,16,16,302.95004282705486,304.95156150264665,left,1,1,0.4640977932140231,D12T04,2023-01-09_14h40.32.959,t1_Paradigm,2021.1.4,60.06076999175848,
T,left,Pretarget,0,17,17,17,306.4501111577265,308.4498266065493,left,1,1,0.48570411186665297,D12T04,2023-01-09_14h40.32.959,t1_Paradigm,2021.1.4,60.06076999175848,
T,right,Target,0,18,18,18,309.94999374449253,311.9502237592824,right,1,1,0.4254091023467481,D12T04,2023-01-09_14h40.32.959,t1_Paradigm,2021.1.4,60.06076999175848,
S,left,Distractor,0,19,19,19,313.4500973634422,315.4513439992443,left,1,1,0.49221189599484205,D12T04,2023-01-09_14h40.32.959,t1_Paradigm,2021.1.4,60.06076999175848,
T,left,Lure,0,20,20,20,316.9500887016766,318.952245131135,left,1,1,0.7832406749948859,D12T04,2023-01-09_14h40.32.959,t1_Paradigm,2021.1.4,60.06076999175848,
J,left,Distractor,0,21,21,21,320.45007779449224,322.45156246516854,left,1,1,0.40398532012477517,D12T04,2023-01-09_14h40.32.959,t1_Paradigm,2021.1.4,60.06076999175848,
P,left,Distractor,0,22,22,22,323.9500158797018,325.9511861647479,left,1,1,0.6163134104572237,D12T04,2023-01-09_14h40.32.959,t1_Paradigm,2021.1.4,60.06076999175848,
F,left,Distractor,0,23,23,23,327.4500784361735,329.4524068152532,left,1,1,0.4275401886552572,D12T04,2023-01-09_14h40.32.959,t1_Paradigm,2021.1.4,60.06076999175848,
L,left,Distractor,0,24,24,24,330.95004378957674,332.9517725901678,left,1,1,0.4478979464620352,D12T04,2023-01-09_14h40.32.959,t1_Paradigm,2021.1.4,60.06076999175848,
W,left,Pretarget,0,25,25,25,334.4500989676453,336.4518563193269,left,1,1,0.5156361977569759,D12T04,2023-01-09_14h40.32.959,t1_Paradigm,2021.1.4,60.06076999175848,
W,right,Target,0,26,26,26,337.94991963915527,339.9500287119299,right,1,1,0.45759931206703186,D12T04,2023-01-09_14h40.32.959,t1_Paradigm,2021.1.4,60.06076999175848,
V,left,Distractor,0,27,27,27,341.45001299260184,343.450976039283,left,1,1,0.30047799460589886,D12T04,2023-01-09_14h40.32.959,t1_Paradigm,2021.1.4,60.06076999175848,
W,left,Lure,0,28,28,28,344.9500232581049,346.9510700344108,left,1,1,0.5287024532444775,D12T04,2023-01-09_14h40.32.959,t1_Paradigm,2021.1.4,60.06076999175848,
R,left,Pretarget,0,29,29,29,348.45003320323303,350.4518733220175,left,1,1,0.8196673928759992,D12T04,2023-01-09_14h40.32.959,t1_Paradigm,2021.1.4,60.06076999175848,
R,right,Target,0,30,30,30,351.9499254138209,353.95002774940804,left,0,1,0.5055319052189589,D12T04,2023-01-09_14h40.32.959,t1_Paradigm,2021.1.4,60.06076999175848,
G,left,Distractor,0,31,31,31,355.45012783957645,357.4516875776462,left,1,1,0.4759045806713402,D12T04,2023-01-09_14h40.32.959,t1_Paradigm,2021.1.4,60.06076999175848,
R,left,Lure,0,32,32,32,358.94991450663656,360.95206195348874,None,0,1,,D12T04,2023-01-09_14h40.32.959,t1_Paradigm,2021.1.4,60.06076999175848,
S,left,Distractor,0,33,33,33,362.4501676191576,364.4510690718889,left,1,1,0.4844151302240789,D12T04,2023-01-09_14h40.32.959,t1_Paradigm,2021.1.4,60.06076999175848,
R,left,Lure,0,34,34,34,365.9499802705832,367.950828791596,left,1,1,0.4727244731038809,D12T04,2023-01-09_14h40.32.959,t1_Paradigm,2021.1.4,60.06076999175848,
P,left,Pretarget,0,35,35,35,369.4500017645769,371.45096192415804,left,1,1,0.4925869135186076,D12T04,2023-01-09_14h40.32.959,t1_Paradigm,2021.1.4,60.06076999175848,
P,right,Target,0,36,36,36,372.94990680739284,374.9499754589051,right,1,1,0.4816693877801299,D12T04,2023-01-09_14h40.32.959,t1_Paradigm,2021.1.4,60.06076999175848,
Y,left,Pretarget,0,37,37,37,376.44996519293636,378.45117365336046,left,1,1,0.4842521632090211,D12T04,2023-01-09_14h40.32.959,t1_Paradigm,2021.1.4,60.06076999175848,
Y,right,Target,0,38,38,38,379.94995139865205,381.9501198194921,left,0,1,0.40949605219066143,D12T04,2023-01-09_14h40.32.959,t1_Paradigm,2021.1.4,60.06076999175848,
J,left,Distractor,0,39,39,39,383.4501313683577,385.45169976819307,left,1,1,0.6197966760955751,D12T04,2023-01-09_14h40.32.959,t1_Paradigm,2021.1.4,60.06076999175848,
Y,left,Lure,0,40,40,40,386.95003320323303,388.95168148260564,right,0,1,0.6719134864397347,D12T04,2023-01-09_14h40.32.959,t1_Paradigm,2021.1.4,60.06076999175848,
T,left,Distractor,0,41,41,41,390.44992477213964,392.45117140747607,left,1,1,0.40429810155183077,D12T04,2023-01-09_14h40.32.959,t1_Paradigm,2021.1.4,60.06076999175848,
V,left,Distractor,0,42,42,42,393.9500960800797,395.9514120090753,left,1,1,0.5040376111865044,D12T04,2023-01-09_14h40.32.959,t1_Paradigm,2021.1.4,60.06076999175848,
N,left,Pretarget,0,43,43,43,397.4498198698275,399.451616039034,left,1,1,0.5077614774927497,D12T04,2023-01-09_14h40.32.959,t1_Paradigm,2021.1.4,60.06076999175848,
N,right,Target,0,44,44,44,400.9499870077707,402.9501198194921,right,1,1,0.7693634331226349,D12T04,2023-01-09_14h40.32.959,t1_Paradigm,2021.1.4,60.06076999175848,
N,right,Target,0,45,45,45,404.44984713802114,406.4499497944489,right,1,1,0.5173621117137372,D12T04,2023-01-09_14h40.32.959,t1_Paradigm,2021.1.4,60.06076999175848,
X,left,Distractor,0,46,46,46,407.9500085012987,409.9521780833602,left,1,1,0.4714062986895442,D12T04,2023-01-09_14h40.32.959,t1_Paradigm,2021.1.4,60.06076999175848,
Z,left,Distractor,0,47,47,47,411.4499931028113,413.4515197984874,left,1,1,0.39613626385107636,D12T04,2023-01-09_14h40.32.959,t1_Paradigm,2021.1.4,60.06076999175848,
H,left,Pretarget,0,48,48,48,414.9499613433145,416.95067737298086,left,1,1,0.41668457817286253,D12T04,2023-01-09_14h40.32.959,t1_Paradigm,2021.1.4,60.06076999175848,
H,right,Target,0,49,49,49,418.4499975941144,420.4498391179368,right,1,1,0.5016024047508836,D12T04,2023-01-09_14h40.32.959,t1_Paradigm,2021.1.4,60.06076999175848,
K,left,Distractor,0,50,50,50,421.94996326835826,423.95150407915935,left,1,1,0.5199480941519141,D12T04,2023-01-09_14h40.32.959,t1_Paradigm,2021.1.4,60.06076999175848,
V,left,Pretarget,0,51,51,51,425.4498949376866,427.45210654474795,left,1,1,0.5073290369473398,D12T04,2023-01-09_14h40.32.959,t1_Paradigm,2021.1.4,60.06076999175848,
V,right,Target,0,52,52,52,428.94964535394683,430.94991226075217,right,1,1,0.6576413372531533,D12T04,2023-01-09_14h40.32.959,t1_Paradigm,2021.1.4,60.06076999175848,
R,left,Distractor,0,53,53,53,432.44995781453326,434.45066871121526,left,1,1,0.404790211468935,D12T04,2023-01-09_14h40.32.959,t1_Paradigm,2021.1.4,60.06076999175848,
V,left,Lure,0,54,54,54,435.9499212433584,437.9513834575191,left,1,1,0.40813039941713214,D12T04,2023-01-09_14h40.32.959,t1_Paradigm,2021.1.4,60.06076999175848,
Y,left,Distractor,0,55,55,55,439.44982371944934,441.4512856132351,left,1,1,0.5241547678597271,D12T04,2023-01-09_14h40.32.959,t1_Paradigm,2021.1.4,60.06076999175848,
Q,left,Distractor,0,56,56,56,442.9499372835271,444.9511977136135,left,1,1,0.5447277836501598,D12T04,2023-01-09_14h40.32.959,t1_Paradigm,2021.1.4,60.06076999175848,
Z,left,Pretarget,0,57,57,57,446.4500380149111,448.4517427557148,left,1,1,0.5315893478691578,D12T04,2023-01-09_14h40.32.959,t1_Paradigm,2021.1.4,60.06076999175848,
Z,right,Target,0,58,58,58,449.9499019952491,451.9499074486084,right,1,1,0.5056656799279153,D12T04,2023-01-09_14h40.32.959,t1_Paradigm,2021.1.4,60.06076999175848,
B,left,Distractor,0,59,59,59,453.45005854638293,455.4512304351665,left,1,1,0.44408778427168727,D12T04,2023-01-09_14h40.32.959,t1_Paradigm,2021.1.4,60.06076999175848,
S,left,Pretarget,0,60,60,60,456.95008324831724,458.95179632958025,left,1,1,0.39956948393955827,D12T04,2023-01-09_14h40.32.959,t1_Paradigm,2021.1.4,60.06076999175848,
S,right,Target,0,61,61,61,460.45000914298,462.449930225499,right,1,1,0.38950080052018166,D12T04,2023-01-09_14h40.32.959,t1_Paradigm,2021.1.4,60.06076999175848,
T,left,Distractor,0,62,62,62,463.94980767928064,465.9517886303365,left,1,1,0.32772753667086363,D12T04,2023-01-09_14h40.32.959,t1_Paradigm,2021.1.4,60.06076999175848,
D,left,Distractor,0,63,63,63,467.44987472705543,469.4519297829829,left,1,1,0.44464309187605977,D12T04,2023-01-09_14h40.32.959,t1_Paradigm,2021.1.4,60.06076999175848,
R,left,Distractor,0,0,0,0,481.7649896219373,483.76846871711314,left,1,1,1.2313176291063428,D12T04,2023-01-09_14h40.32.959,t1_Paradigm,2021.1.4,60.06076999175848,
V,left,Distractor,0,1,1,1,485.26654871879146,487.2667700718157,left,1,1,0.4846050450578332,D12T04,2023-01-09_14h40.32.959,t1_Paradigm,2021.1.4,60.06076999175848,
N,left,Pretarget,0,2,2,2,488.76637965627015,490.76818929892033,left,1,1,0.4233402516692877,D12T04,2023-01-09_14h40.32.959,t1_Paradigm,2021.1.4,60.06076999175848,
N,right,Target,0,3,3,3,492.2665865733288,494.26660357555375,right,1,1,0.6208412065170705,D12T04,2023-01-09_14h40.32.959,t1_Paradigm,2021.1.4,60.06076999175848,
S,left,Distractor,0,4,4,4,495.7662984933704,497.76842733379453,left,1,1,0.6070156134665012,D12T04,2023-01-09_14h40.32.959,t1_Paradigm,2021.1.4,60.06076999175848,
N,left,Lure,0,5,5,5,499.26659202668816,501.26652850816026,left,1,1,0.43684728909283876,D12T04,2023-01-09_14h40.32.959,t1_Paradigm,2021.1.4,60.06076999175848,
Z,left,Distractor,0,6,6,6,502.76674537034705,504.76811711862683,left,1,1,0.6634905156679451,D12T04,2023-01-09_14h40.32.959,t1_Paradigm,2021.1.4,60.06076999175848,
L,left,Pretarget,0,7,7,7,506.2662016111426,508.26754769543186,left,1,1,0.6678245472721756,D12T04,2023-01-09_14h40.32.959,t1_Paradigm,2021.1.4,60.06076999175848,
L,right,Target,0,8,8,8,509.7664717263542,511.7665657210164,right,1,1,0.5768249612301588,D12T04,2023-01-09_14h40.32.959,t1_Paradigm,2021.1.4,60.06076999175848,
H,left,Distractor,0,9,9,9,513.2665358865634,515.2672182316892,left,1,1,0.38814348820596933,D12T04,2023-01-09_14h40.32.959,t1_Paradigm,2021.1.4,60.06076999175848,
L,left,Lure,0,10,10,10,516.7663588039577,518.7678117151372,left,1,1,0.34359952388331294,D12T04,2023-01-09_14h40.32.959,t1_Paradigm,2021.1.4,60.06076999175848,
X,left,Pretarget,0,11,11,11,520.2665852899663,522.2684898898005,left,1,1,0.3790487586520612,D12T04,2023-01-09_14h40.32.959,t1_Paradigm,2021.1.4,60.06076999175848,
X,right,Target,0,12,12,12,523.7662712251768,525.766554813832,right,1,1,0.6728380364365876,D12T04,2023-01-09_14h40.32.959,t1_Paradigm,2021.1.4,60.06076999175848,
X,right,Target,0,13,13,13,527.2665493604727,529.266541661229,right,1,1,0.549003429710865,D12T04,2023-01-09_14h40.32.959,t1_Paradigm,2021.1.4,60.06076999175848,
R,left,Distractor,0,14,14,14,530.7665483979508,532.7685826015659,left,1,1,0.3428013692609966,D12T04,2023-01-09_14h40.32.959,t1_Paradigm,2021.1.4,60.06076999175848,
T,left,Distractor,0,15,15,15,534.2664717263542,536.2678806874901,left,1,1,0.33169104205444455,D12T04,2023-01-09_14h40.32.959,t1_Paradigm,2021.1.4,60.06076999175848,
V,left,Pretarget,0,16,16,16,537.7664714055136,539.7681739004329,left,1,1,0.3671768484637141,D12T04,2023-01-09_14h40.32.959,t1_Paradigm,2021.1.4,60.06076999175848,
V,right,Target,0,17,17,17,541.2664226437919,543.2665275456384,right,1,1,0.4687622506171465,D12T04,2023-01-09_14h40.32.959,t1_Paradigm,2021.1.4,60.06076999175848,
N,left,Distractor,0,18,18,18,544.7665185634978,546.7671181415208,left,1,1,0.29638135619461536,D12T04,2023-01-09_14h40.32.959,t1_Paradigm,2021.1.4,60.06076999175848,
B,left,Distractor,0,19,19,19,548.2662327289581,550.2683869125322,left,1,1,0.3950949413701892,D12T04,2023-01-09_14h40.32.959,t1_Paradigm,2021.1.4,60.06076999175848,
V,left,Lure,0,20,20,20,551.766312929336,553.7686079451814,left,1,1,0.3827421488240361,D12T04,2023-01-09_14h40.32.959,t1_Paradigm,2021.1.4,60.06076999175848,
P,left,Distractor,0,21,21,21,555.2665397361852,557.2682431936264,left,1,1,0.4511098135262728,D12T04,2023-01-09_14h40.32.959,t1_Paradigm,2021.1.4,60.06076999175848,
K,left,Pretarget,0,22,22,22,558.7664367589168,560.7675178605132,left,1,1,0.4878685609437525,D12T04,2023-01-09_14h40.32.959,t1_Paradigm,2021.1.4,60.06076999175848,
K,right,Target,0,23,23,23,562.2667360669002,564.2663187040016,right,1,1,0.4770889808423817,D12T04,2023-01-09_14h40.32.959,t1_Paradigm,2021.1.4,60.06076999175848,
J,left,Pretarget,0,24,24,24,565.7660200372338,567.7680590534583,left,1,1,0.39924611570313573,D12T04,2023-01-09_14h40.32.959,t1_Paradigm,2021.1.4,60.06076999175848,
J,right,Target,0,25,25,25,569.2662981725298,571.2662641676143,left,0,1,0.30917621310800314,D12T04,2023-01-09_14h40.32.959,t1_Paradigm,2021.1.4,60.06076999175848,
H,left,Distractor,0,26,26,26,572.7656729300506,574.7671114047989,None,0,1,,D12T04,2023-01-09_14h40.32.959,t1_Paradigm,2021.1.4,60.06076999175848,
J,left,Lure,0,27,27,27,576.2662121974863,578.2655051504262,left,1,1,0.43057208554819226,D12T04,2023-01-09_14h40.32.959,t1_Paradigm,2021.1.4,60.06076999175848,
V,left,Distractor,0,28,28,28,579.766579836607,581.7668650289997,left,1,1,0.49666654923930764,D12T04,2023-01-09_14h40.32.959,t1_Paradigm,2021.1.4,60.06076999175848,
Z,left,Pretarget,0,29,29,29,583.2665695706382,585.268004517071,left,1,1,0.41928114788606763,D12T04,2023-01-09_14h40.32.959,t1_Paradigm,2021.1.4,60.06076999175848,
Z,right,Target,0,30,30,30,586.7664983528666,588.7664973903447,right,1,1,0.4089298374019563,D12T04,2023-01-09_14h40.32.959,t1_Paradigm,2021.1.4,60.06076999175848,
T,left,Distractor,0,31,31,31,590.2664197562262,592.2666144832037,left,1,1,0.31669580610468984,D12T04,2023-01-09_14h40.32.959,t1_Paradigm,2021.1.4,60.06076999175848,
Z,left,Lure,0,32,32,32,593.7665346032009,595.7671855101362,left,1,1,0.4161725789308548,D12T04,2023-01-09_14h40.32.959,t1_Paradigm,2021.1.4,60.06076999175848,
F,left,Distractor,0,33,33,33,597.2665949142538,599.2682393440045,left,1,1,0.38712654635310173,D12T04,2023-01-09_14h40.32.959,t1_Paradigm,2021.1.4,60.06076999175848,
Y,left,Pretarget,0,34,34,34,600.7662237463519,602.7656437368132,left,1,1,0.45779949240386486,D12T04,2023-01-09_14h40.32.959,t1_Paradigm,2021.1.4,60.06076999175848,
Y,right,Target,0,35,35,35,604.2663575205952,606.2664479869418,right,1,1,0.41292478144168854,D12T04,2023-01-09_14h40.32.959,t1_Paradigm,2021.1.4,60.06076999175848,
Y,right,Target,0,36,36,36,607.7664797464386,609.7663851096295,right,1,1,0.561089956201613,D12T04,2023-01-09_14h40.32.959,t1_Paradigm,2021.1.4,60.06076999175848,
W,left,Distractor,0,37,37,37,611.2663841475733,613.2680346723646,left,1,1,0.43534882366657257,D12T04,2023-01-09_14h40.32.959,t1_Paradigm,2021.1.4,60.06076999175848,
Q,left,Distractor,0,38,38,38,614.7664672350511,616.7667639767751,left,1,1,0.6967416168190539,D12T04,2023-01-09_14h40.32.959,t1_Paradigm,2021.1.4,60.06076999175848,
P,left,Pretarget,0,39,39,39,618.2665339619853,620.2672612192109,left,1,1,0.4759940844960511,D12T04,2023-01-09_14h40.32.959,t1_Paradigm,2021.1.4,60.06076999175848,
P,right,Target,0,40,40,40,621.7664171899669,623.7662359368987,right,1,1,0.5931903412565589,D12T04,2023-01-09_14h40.32.959,t1_Paradigm,2021.1.4,60.06076999175848,
J,left,Distractor,0,41,41,41,625.2664450998418,627.2683541909792,left,1,1,0.418938210234046,D12T04,2023-01-09_14h40.32.959,t1_Paradigm,2021.1.4,60.06076999175848,
P,left,Lure,0,42,42,42,628.7664502323605,630.767181981355,left,1,1,0.42423913860693574,D12T04,2023-01-09_14h40.32.959,t1_Paradigm,2021.1.4,60.06076999175848,
L,left,Distractor,0,43,43,43,632.266195516102,634.2671261616051,left,1,1,0.44413237553089857,D12T04,2023-01-09_14h40.32.959,t1_Paradigm,2021.1.4,60.06076999175848,
Z,left,Distractor,0,44,44,44,635.7663844679482,637.7665342823602,left,1,1,0.46497133653610945,D12T04,2023-01-09_14h40.32.959,t1_Paradigm,2021.1.4,60.06076999175848,
F,left,Pretarget,0,45,45,45,639.2665124679916,641.2664662725292,left,1,1,0.4528084588237107,D12T04,2023-01-09_14h40.32.959,t1_Paradigm,2021.1.4,60.06076999175848,
F,right,Target,0,46,46,46,642.7661855709739,644.7664117361419,right,1,1,0.6650486495345831,D12T04,2023-01-09_14h40.32.959,t1_Paradigm,2021.1.4,60.06076999175848,
G,left,Pretarget,0,47,47,47,646.2663979418576,648.2676590136252,left,1,1,0.6354877310805023,D12T04,2023-01-09_14h40.32.959,t1_Paradigm,2021.1.4,60.06076999175848,
G,right,Target,0,48,48,48,649.766351104714,651.7661881376989,None,0,1,,D12T04,2023-01-09_14h40.32.959,t1_Paradigm,2021.1.4,60.06076999175848,
V,left,Distractor,0,49,49,49,653.2664457410574,655.2680702814832,left,1,1,0.38721252139657736,D12T04,2023-01-09_14h40.32.959,t1_Paradigm,2021.1.4,60.06076999175848,
G,left,Lure,0,50,50,50,656.7662202175707,658.7676298203878,left,1,1,0.6157359671778977,D12T04,2023-01-09_14h40.32.959,t1_Paradigm,2021.1.4,60.06076999175848,
Q,left,Pretarget,0,51,51,51,660.2663254407234,662.267854702659,left,1,1,0.37956942012533545,D12T04,2023-01-09_14h40.32.959,t1_Paradigm,2021.1.4,60.06076999175848,
Q,right,Target,0,52,52,52,663.7662609596737,665.76642456837,right,1,1,0.36879850132390857,D12T04,2023-01-09_14h40.32.959,t1_Paradigm,2021.1.4,60.06076999175848,
Y,left,Distractor,0,53,53,53,667.2664268137887,669.2676772992127,left,1,1,0.30753499176353216,D12T04,2023-01-09_14h40.32.959,t1_Paradigm,2021.1.4,60.06076999175848,
V,left,Distractor,0,54,54,54,670.7662099520676,672.7678617602214,right,0,1,0.45548266218975186,D12T04,2023-01-09_14h40.32.959,t1_Paradigm,2021.1.4,60.06076999175848,
B,left,Distractor,0,55,55,55,674.2663709945045,676.2672041165642,left,1,1,0.3961850255727768,D12T04,2023-01-09_14h40.32.959,t1_Paradigm,2021.1.4,60.06076999175848,
J,left,Pretarget,0,56,56,56,677.7664807084948,679.7681642761454,left,1,1,0.33510597702115774,D12T04,2023-01-09_14h40.32.959,t1_Paradigm,2021.1.4,60.06076999175848,
J,right,Target,0,57,57,57,681.2663549543358,683.2663036258891,right,1,1,0.5331494072452188,D12T04,2023-01-09_14h40.32.959,t1_Paradigm,2021.1.4,60.06076999175848,
H,left,Distractor,0,58,58,58,684.7667309339158,686.7668287786655,left,1,1,0.3605099464766681,D12T04,2023-01-09_14h40.32.959,t1_Paradigm,2021.1.4,60.06076999175848,
J,left,Lure,0,59,59,59,688.2663247990422,690.2664155857638,left,1,1,0.876964830327779,D12T04,2023-01-09_14h40.32.959,t1_Paradigm,2021.1.4,60.06076999175848,
D,left,Pretarget,0,60,60,60,691.7663934505545,693.7669032043777,left,1,1,0.5126745561137795,D12T04,2023-01-09_14h40.32.959,t1_Paradigm,2021.1.4,60.06076999175848,
D,right,Target,0,61,61,61,695.2664053202607,697.2663138918579,right,1,1,0.5971365235745907,D12T04,2023-01-09_14h40.32.959,t1_Paradigm,2021.1.4,60.06076999175848,
R,left,Distractor,0,62,62,62,698.7663953755982,700.7665682877414,left,1,1,0.3289645481854677,D12T04,2023-01-09_14h40.32.959,t1_Paradigm,2021.1.4,60.06076999175848,
F,left,Distractor,0,63,63,63,702.2663982626982,704.2666818513535,left,1,1,0.4767389860935509,D12T04,2023-01-09_14h40.32.959,t1_Paradigm,2021.1.4,60.06076999175848,
F,left,Distractor,0,0,0,0,843.1281872456893,845.1162020922638,None,0,2,,D12T04,2023-01-09_14h40.32.959,t1_Paradigm,2021.1.4,60.06076999175848,
N,left,Pretarget,0,1,1,1,846.6162640070543,848.6180604971014,None,0,2,,D12T04,2023-01-09_14h40.32.959,t1_Paradigm,2021.1.4,60.06076999175848,
V,left,Distractor,0,2,2,2,850.1162579120137,852.1176463416778,left,1,2,0.5456433515064418,D12T04,2023-01-09_14h40.32.959,t1_Paradigm,2021.1.4,60.06076999175848,
N,right,Target,0,3,3,3,853.6162152453326,855.6181653989479,right,1,2,0.4210436320863664,D12T04,2023-01-09_14h40.32.959,t1_Paradigm,2021.1.4,60.06076999175848,
N,left,Lure,0,4,4,4,857.1159634157084,859.1162117165513,left,1,2,0.2989359004423022,D12T04,2023-01-09_14h40.32.959,t1_Paradigm,2021.1.4,60.06076999175848,
X,left,Distractor,0,5,5,5,860.6163297714666,862.6175250788219,left,1,2,0.34960300754755735,D12T04,2023-01-09_14h40.32.959,t1_Paradigm,2021.1.4,60.06076999175848,
G,left,Pretarget,0,6,6,6,864.1161453104578,866.1174477655441,left,1,2,0.5778277874924242,D12T04,2023-01-09_14h40.32.959,t1_Paradigm,2021.1.4,60.06076999175848,
H,left,Pretarget,0,7,7,7,867.6161976009607,869.6172594549134,left,1,2,0.5178468432277441,D12T04,2023-01-09_14h40.32.959,t1_Paradigm,2021.1.4,60.06076999175848,
G,right,Target,0,8,8,8,871.116140498314,873.1174185727723,right,1,2,0.36181528912857175,D12T04,2023-01-09_14h40.32.959,t1_Paradigm,2021.1.4,60.06076999175848,
H,right,Target,0,9,9,9,874.6163201471791,876.6160872452892,left,0,2,0.543085278943181,D12T04,2023-01-09_14h40.32.959,t1_Paradigm,2021.1.4,60.06076999175848,
T,left,Pretarget,0,10,10,10,878.1161677665077,880.1173290689476,left,1,2,0.36976603930816054,D12T04,2023-01-09_14h40.32.959,t1_Paradigm,2021.1.4,60.06076999175848,
K,left,Distractor,0,11,11,11,881.616187014617,883.617690612562,left,1,2,0.6456006853841245,D12T04,2023-01-09_14h40.32.959,t1_Paradigm,2021.1.4,60.06076999175848,
T,right,Target,0,12,12,12,885.1162126786076,887.1180479857139,left,0,2,0.45712741324678063,D12T04,2023-01-09_14h40.32.959,t1_Paradigm,2021.1.4,60.06076999175848,
T,left,Lure,0,13,13,13,888.6161212502047,890.6162053002045,left,1,2,0.958976514171809,D12T04,2023-01-09_14h40.32.959,t1_Paradigm,2021.1.4,60.06076999175848,
J,left,Distractor,0,14,14,14,892.1161209293641,894.1178012890741,left,1,2,0.7372867874801159,D12T04,2023-01-09_14h40.32.959,t1_Paradigm,2021.1.4,60.06076999175848,
Q,left,Pretarget,0,15,15,15,895.6160721676424,897.6174468030222,left,1,2,0.4696646658703685,D12T04,2023-01-09_14h40.32.959,t1_Paradigm,2021.1.4,60.06076999175848,
M,left,Distractor,0,16,16,16,899.116160067264,901.1181589830667,left,1,2,1.1131275282241404,D12T04,2023-01-09_14h40.32.959,t1_Paradigm,2021.1.4,60.06076999175848,
Q,right,Target,0,17,17,17,902.6161350449547,904.6177945523523,right,1,2,0.6852703881449997,D12T04,2023-01-09_14h40.32.959,t1_Paradigm,2021.1.4,60.06076999175848,
R,left,Distractor,0,18,18,18,906.1162871047854,908.1172780613415,left,1,2,0.4979953095316887,D12T04,2023-01-09_14h40.32.959,t1_Paradigm,2021.1.4,60.06076999175848,
W,left,Distractor,0,19,19,19,909.616127345711,911.6175869936123,left,1,2,0.42152355145663023,D12T04,2023-01-09_14h40.32.959,t1_Paradigm,2021.1.4,60.06076999175848,
C,left,Pretarget,0,20,20,20,913.1160696013831,915.1179020209238,left,1,2,0.44126633275300264,D12T04,2023-01-09_14h40.32.959,t1_Paradigm,2021.1.4,60.06076999175848,
T,left,Distractor,0,21,21,21,916.6162582328543,918.617285118904,left,1,2,0.5738251437433064,D12T04,2023-01-09_14h40.32.959,t1_Paradigm,2021.1.4,60.06076999175848,
C,right,Target,0,22,22,22,920.1161751449108,922.1177133894525,right,1,2,0.46534025855362415,D12T04,2023-01-09_14h40.32.959,t1_Paradigm,2021.1.4,60.06076999175848,
F,left,Pretarget,0,23,23,23,923.616077942308,925.6176806674339,left,1,2,0.6295262719504535,D12T04,2023-01-09_14h40.32.959,t1_Paradigm,2021.1.4,60.06076999175848,
C,right,Target,0,24,24,24,927.1161850900389,929.1175013394095,left,0,2,0.37800679448992014,D12T04,2023-01-09_14h40.32.959,t1_Paradigm,2021.1.4,60.06076999175848,
F,right,Target,0,25,25,25,930.6161693707108,932.6161071350798,left,0,2,0.46320275589823723,D12T04,2023-01-09_14h40.32.959,t1_Paradigm,2021.1.4,60.06076999175848,
H,left,Distractor,0,26,26,26,934.1161048896611,936.1176806674339,left,1,2,0.6414597760885954,D12T04,2023-01-09_14h40.32.959,t1_Paradigm,2021.1.4,60.06076999175848,
H,left,Lure,0,27,27,27,937.6161709744483,939.6161170797423,left,1,2,0.48689941922202706,D12T04,2023-01-09_14h40.32.959,t1_Paradigm,2021.1.4,60.06076999175848,
P,left,Distractor,0,28,28,28,941.1160689597018,943.1177887776867,left,1,2,0.5053067025728524,D12T04,2023-01-09_14h40.32.959,t1_Paradigm,2021.1.4,60.06076999175848,
G,left,Pretarget,0,29,29,29,944.6159897213802,946.6173399761319,left,1,2,0.4936407469213009,D12T04,2023-01-09_14h40.32.959,t1_Paradigm,2021.1.4,60.06076999175848,
K,left,Distractor,0,30,30,30,948.1161549342796,950.1176864420995,left,1,2,0.5135612525045872,D12T04,2023-01-09_14h40.32.959,t1_Paradigm,2021.1.4,60.06076999175848,
G,right,Target,0,31,31,31,951.6161597464234,953.6178891886957,left,0,2,0.5171439666301012,D12T04,2023-01-09_14h40.32.959,t1_Paradigm,2021.1.4,60.06076999175848,
M,left,Pretarget,0,32,32,32,955.1160250096582,957.1171943321824,left,1,2,0.6821704804897308,D12T04,2023-01-09_14h40.32.959,t1_Paradigm,2021.1.4,60.06076999175848,
B,left,Distractor,0,33,33,33,958.6160015910864,960.6179103618488,left,1,2,0.4931284268386662,D12T04,2023-01-09_14h40.32.959,t1_Paradigm,2021.1.4,60.06076999175848,
M,right,Target,0,34,34,34,962.1160789043643,964.1167910844088,right,1,2,0.43410475458949804,D12T04,2023-01-09_14h40.32.959,t1_Paradigm,2021.1.4,60.06076999175848,
M,left,Lure,0,35,35,35,965.6159743228927,967.6159037468024,left,1,2,0.9510411624796689,D12T04,2023-01-09_14h40.32.959,t1_Paradigm,2021.1.4,60.06076999175848,
T,left,Distractor,0,36,36,36,969.1158662131056,971.1161780320108,left,1,2,0.4589142785407603,D12T04,2023-01-09_14h40.32.959,t1_Paradigm,2021.1.4,60.06076999175848,
F,left,Distractor,0,37,37,37,972.6161437062547,974.6178481262177,left,1,2,0.5091688348911703,D12T04,2023-01-09_14h40.32.959,t1_Paradigm,2021.1.4,60.06076999175848,
X,left,Distractor,0,38,38,38,976.1159842680208,978.1171362670138,left,1,2,0.5140581745654345,D12T04,2023-01-09_14h40.32.959,t1_Paradigm,2021.1.4,60.06076999175848,
C,left,Distractor,0,39,39,39,979.6161562176421,981.6177467526868,left,1,2,0.4693044051527977,D12T04,2023-01-09_14h40.32.959,t1_Paradigm,2021.1.4,60.06076999175848,
R,left,Distractor,0,40,40,40,983.1160439369269,985.1169421821833,left,1,2,0.6024364894255996,D12T04,2023-01-09_14h40.32.959,t1_Paradigm,2021.1.4,60.06076999175848,
B,left,Pretarget,0,41,41,41,986.6161055308767,988.6174634848721,left,1,2,0.46172738913446665,D12T04,2023-01-09_14h40.32.959,t1_Paradigm,2021.1.4,60.06076999175848,
H,left,Distractor,0,42,42,42,990.1160542028956,992.1176123367622,left,1,2,0.4173386925831437,D12T04,2023-01-09_14h40.32.959,t1_Paradigm,2021.1.4,60.06076999175848,
B,right,Target,0,43,43,43,993.6159817017615,995.6177576598711,right,1,2,0.4053775994107127,D12T04,2023-01-09_14h40.32.959,t1_Paradigm,2021.1.4,60.06076999175848,
W,left,Pretarget,0,44,44,44,997.1161918267608,999.1178429932334,left,1,2,0.44130579149350524,D12T04,2023-01-09_14h40.32.959,t1_Paradigm,2021.1.4,60.06076999175848,
L,left,Pretarget,0,45,45,45,1000.615716077853,1002.6167958965525,left,1,2,0.38202355336397886,D12T04,2023-01-09_14h40.32.959,t1_Paradigm,2021.1.4,60.06076999175848,
W,right,Target,0,46,46,46,1004.1158857820556,1006.1167801772244,right,1,2,0.45016248617321253,D12T04,2023-01-09_14h40.32.959,t1_Paradigm,2021.1.4,60.06076999175848,
L,right,Target,0,47,47,47,1007.6160272555426,1009.6175648584031,right,1,2,0.46950041549280286,D12T04,2023-01-09_14h40.32.959,t1_Paradigm,2021.1.4,60.06076999175848,
W,right,Target,0,48,48,48,1011.1160522778518,1013.1175979007967,right,1,2,0.5054347021505237,D12T04,2023-01-09_14h40.32.959,t1_Paradigm,2021.1.4,60.06076999175848,
X,left,Distractor,0,49,49,49,1014.6161940721795,1016.617935384158,left,1,2,0.49303667759522796,D12T04,2023-01-09_14h40.32.959,t1_Paradigm,2021.1.4,60.06076999175848,
R,left,Distractor,0,50,50,50,1018.1159502631053,1020.1180194341578,left,1,2,0.7369515490718186,D12T04,2023-01-09_14h40.32.959,t1_Paradigm,2021.1.4,60.06076999175848,
V,left,Pretarget,0,51,51,51,1021.6159127294086,1023.6163615309633,left,1,2,0.6307639251463115,D12T04,2023-01-09_14h40.32.959,t1_Paradigm,2021.1.4,60.06076999175848,
Z,left,Distractor,0,52,52,52,1025.1160728093237,1027.116565560922,left,1,2,0.5224214759655297,D12T04,2023-01-09_14h40.32.959,t1_Paradigm,2021.1.4,60.06076999175848,
V,right,Target,0,53,53,53,1028.6160407289863,1030.6171086779796,right,1,2,0.7979904976673424,D12T04,2023-01-09_14h40.32.959,t1_Paradigm,2021.1.4,60.06076999175848,
V,left,Lure,0,54,54,54,1032.115991646424,1034.1157917869277,left,1,2,0.9313054382801056,D12T04,2023-01-09_14h40.32.959,t1_Paradigm,2021.1.4,60.06076999175848,
N,left,Distractor,0,55,55,55,1035.6161494809203,1037.6173088583164,left,1,2,0.6457902789115906,D12T04,2023-01-09_14h40.32.959,t1_Paradigm,2021.1.4,60.06076999175848,
B,left,Distractor,0,56,56,56,1039.1159711149521,1041.1178173292428,left,1,2,0.4891941142268479,D12T04,2023-01-09_14h40.32.959,t1_Paradigm,2021.1.4,60.06076999175848,
V,left,Lure,0,57,57,57,1042.615767405834,1044.6180495894514,left,1,2,0.6209044042043388,D12T04,2023-01-09_14h40.32.959,t1_Paradigm,2021.1.4,60.06076999175848,
J,left,Distractor,0,58,58,58,1046.1158835361712,1048.1172482268885,left,1,2,0.5935807572677732,D12T04,2023-01-09_14h40.32.959,t1_Paradigm,2021.1.4,60.06076999175848,
H,left,Distractor,0,59,59,59,1049.615901500918,1051.6165822423063,left,1,2,0.5503498343750834,D12T04,2023-01-09_14h40.32.959,t1_Paradigm,2021.1.4,60.06076999175848,
X,left,Pretarget,0,60,60,60,1053.1160522778518,1055.1162678566761,left,1,2,0.4266913468018174,D12T04,2023-01-09_14h40.32.959,t1_Paradigm,2021.1.4,60.06076999175848,
P,left,Distractor,0,61,61,61,1056.6159056713805,1058.616158142686,left,1,2,0.4789566886611283,D12T04,2023-01-09_14h40.32.959,t1_Paradigm,2021.1.4,60.06076999175848,
X,right,Target,0,62,62,62,1060.115997420624,1062.1175273242407,right,1,2,0.6574494973756373,D12T04,2023-01-09_14h40.32.959,t1_Paradigm,2021.1.4,60.06076999175848,
Q,left,Distractor,0,63,63,63,1063.6157667646185,1065.6175388731062,left,1,2,0.45334997260943055,D12T04,2023-01-09_14h40.32.959,t1_Paradigm,2021.1.4,60.06076999175848,
B,left,Pretarget,0,0,0,0,1073.7587166647427,1075.75037453603,None,0,2,,D12T04,2023-01-09_14h40.32.959,t1_Paradigm,2021.1.4,60.06076999175848,
F,left,Distractor,0,1,1,1,1077.249293113593,1079.2499629473314,None,0,2,,D12T04,2023-01-09_14h40.32.959,t1_Paradigm,2021.1.4,60.06076999175848,
B,right,Target,0,2,2,2,1080.7493720306084,1082.7504752678797,left,0,2,0.3126075086183846,D12T04,2023-01-09_14h40.32.959,t1_Paradigm,2021.1.4,60.06076999175848,
V,left,Distractor,0,3,3,3,1084.249310115818,1086.2499578148127,left,1,2,0.5410462631843984,D12T04,2023-01-09_14h40.32.959,t1_Paradigm,2021.1.4,60.06076999175848,
G,left,Pretarget,0,4,4,4,1087.7493316098116,1089.7515554074198,left,1,2,0.655507043004036,D12T04,2023-01-09_14h40.32.959,t1_Paradigm,2021.1.4,60.06076999175848,
B,left,Lure,0,5,5,5,1091.2493139654398,1093.2504755887203,right,0,2,0.6444756337441504,D12T04,2023-01-09_14h40.32.959,t1_Paradigm,2021.1.4,60.06076999175848,
G,right,Target,0,6,6,6,1094.7491554892622,1096.7514906055294,left,0,2,0.4874345166608691,D12T04,2023-01-09_14h40.32.959,t1_Paradigm,2021.1.4,60.06076999175848,
Y,left,Pretarget,0,7,7,7,1098.2492234995589,1100.2506552375853,left,1,2,0.3964105495251715,D12T04,2023-01-09_14h40.32.959,t1_Paradigm,2021.1.4,60.06076999175848,
P,left,Distractor,0,8,8,8,1101.7490332638845,1103.7501689023338,left,1,2,0.51285356329754,D12T04,2023-01-09_14h40.32.959,t1_Paradigm,2021.1.4,60.06076999175848,
Y,right,Target,0,9,9,9,1105.2489986172877,1107.2499238098972,right,1,2,0.5329582090489566,D12T04,2023-01-09_14h40.32.959,t1_Paradigm,2021.1.4,60.06076999175848,
X,left,Distractor,0,10,10,10,1108.7492356901057,1110.75039699208,left,1,2,0.39273223653435707,D12T04,2023-01-09_14h40.32.959,t1_Paradigm,2021.1.4,60.06076999175848,
Y,right,Target,0,11,11,11,1112.249424641952,1114.2511492725462,right,1,2,0.6835159230977297,D12T04,2023-01-09_14h40.32.959,t1_Paradigm,2021.1.4,60.06076999175848,
N,left,Distractor,0,12,12,12,1115.7492340859026,1117.750671277754,left,1,2,0.4485729136504233,D12T04,2023-01-09_14h40.32.959,t1_Paradigm,2021.1.4,60.06076999175848,
Y,right,Target,0,13,13,13,1119.2491692840122,1121.2618220257573,right,1,2,0.6012492021545768,D12T04,2023-01-09_14h40.32.959,t1_Paradigm,2021.1.4,60.06076999175848,
Y,left,Lure,0,14,14,14,1122.748993484769,1124.7492536548525,left,1,2,0.48972792783752084,D12T04,2023-01-09_14h40.32.959,t1_Paradigm,2021.1.4,60.06076999175848,
K,left,Distractor,0,15,15,15,1126.2483104974963,1128.2507489118725,left,1,2,0.4123608120717108,D12T04,2023-01-09_14h40.32.959,t1_Paradigm,2021.1.4,60.06076999175848,
T,left,Pretarget,0,16,16,16,1129.7492767525837,1131.7508849315345,left,1,2,0.5282388948835433,D12T04,2023-01-09_14h40.32.959,t1_Paradigm,2021.1.4,60.06076999175848,
J,left,Distractor,0,17,17,17,1133.2492828476243,1135.2503668367863,left,1,2,0.388549302238971,D12T04,2023-01-09_14h40.32.959,t1_Paradigm,2021.1.4,60.06076999175848,
T,right,Target,0,18,18,18,1136.7493816548958,1138.7508361698128,left,0,2,0.45616885740309954,D12T04,2023-01-09_14h40.32.959,t1_Paradigm,2021.1.4,60.06076999175848,
S,left,Pretarget,0,19,19,19,1140.2489598002285,1142.2493598400615,left,1,2,0.5255842600017786,D12T04,2023-01-09_14h40.32.959,t1_Paradigm,2021.1.4,60.06076999175848,
R,left,Distractor,0,20,20,20,1143.7491375245154,1145.750842585694,left,1,2,0.5441798539832234,D12T04,2023-01-09_14h40.32.959,t1_Paradigm,2021.1.4,60.06076999175848,
S,right,Target,0,21,21,21,1147.2490704772063,1149.2496071783826,right,1,2,0.3892967705614865,D12T04,2023-01-09_14h40.32.959,t1_Paradigm,2021.1.4,60.06076999175848,
Q,left,Distractor,0,22,22,22,1150.749216762837,1152.7514745653607,left,1,2,0.43961131665855646,D12T04,2023-01-09_14h40.32.959,t1_Paradigm,2021.1.4,60.06076999175848,
D,left,Distractor,0,23,23,23,1154.2492915093899,1156.249943699222,left,1,2,0.5570539492182434,D12T04,2023-01-09_14h40.32.959,t1_Paradigm,2021.1.4,60.06076999175848,
F,left,Distractor,0,24,24,24,1157.7489575548097,1159.7508640796877,left,1,2,0.49615294532850385,D12T04,2023-01-09_14h40.32.959,t1_Paradigm,2021.1.4,60.06076999175848,
Z,left,Distractor,0,25,25,25,1161.2494146972895,1163.2503652330488,left,1,2,0.5005084709264338,D12T04,2023-01-09_14h40.32.959,t1_Paradigm,2021.1.4,60.06076999175848,
P,left,Distractor,0,26,26,26,1164.748996371869,1166.750475909561,left,1,2,0.4724957412108779,D12T04,2023-01-09_14h40.32.959,t1_Paradigm,2021.1.4,60.06076999175848,
H,left,Distractor,0,27,27,27,1168.2492427476682,1170.2511621043086,left,1,2,0.507629306986928,D12T04,2023-01-09_14h40.32.959,t1_Paradigm,2021.1.4,60.06076999175848,
Z,left,Pretarget,0,28,28,28,1171.7491067275405,1173.7507386459038,left,1,2,0.43231756798923016,D12T04,2023-01-09_14h40.32.959,t1_Paradigm,2021.1.4,60.06076999175848,
J,left,Pretarget,0,29,29,29,1175.249186286237,1177.2508307159878,left,1,2,0.5641641989350319,D12T04,2023-01-09_14h40.32.959,t1_Paradigm,2021.1.4,60.06076999175848,
Z,right,Target,0,30,30,30,1178.7492408226244,1180.7511082096025,right,1,2,0.5197597835212946,D12T04,2023-01-09_14h40.32.959,t1_Paradigm,2021.1.4,60.06076999175848,
J,right,Target,0,31,31,31,1182.2493604817428,1184.250624761451,right,1,2,0.4443258191458881,D12T04,2023-01-09_14h40.32.959,t1_Paradigm,2021.1.4,60.06076999175848,
V,left,Pretarget,0,32,32,32,1185.7491256548092,1187.7500623958185,left,1,2,0.5607367530465126,D12T04,2023-01-09_14h40.32.959,t1_Paradigm,2021.1.4,60.06076999175848,
Z,left,Lure,0,33,33,33,1189.2493887124583,1191.2483104974963,left,1,2,0.5347405835054815,D12T04,2023-01-09_14h40.32.959,t1_Paradigm,2021.1.4,60.06076999175848,
V,right,Target,0,34,34,34,1192.7492273491807,1194.7513180142269,right,1,2,0.5835104696452618,D12T04,2023-01-09_14h40.32.959,t1_Paradigm,2021.1.4,60.06076999175848,
X,left,Distractor,0,35,35,35,1196.2490945369937,1198.2503738943487,left,1,2,0.5405268846079707,D12T04,2023-01-09_14h40.32.959,t1_Paradigm,2021.1.4,60.06076999175848,
S,left,Distractor,0,36,36,36,1199.7492472389713,1201.7512711770833,left,1,2,0.44789602141827345,D12T04,2023-01-09_14h40.32.959,t1_Paradigm,2021.1.4,60.06076999175848,
Q,left,Distractor,0,37,37,37,1203.2492135544308,1205.2503443807364,left,1,2,0.5647762892767787,D12T04,2023-01-09_14h40.32.959,t1_Paradigm,2021.1.4,60.06076999175848,
P,left,Distractor,0,38,38,38,1206.749171529431,1208.75147424452,left,1,2,0.6635453724302351,D12T04,2023-01-09_14h40.32.959,t1_Paradigm,2021.1.4,60.06076999175848,
S,left,Lure,0,39,39,39,1210.2492180457339,1212.2506504254416,left,1,2,0.5402426542714238,D12T04,2023-01-09_14h40.32.959,t1_Paradigm,2021.1.4,60.06076999175848,
K,left,Pretarget,0,40,40,40,1213.7490358306095,1215.750990475528,left,1,2,0.6559564862400293,D12T04,2023-01-09_14h40.32.959,t1_Paradigm,2021.1.4,60.06076999175848,
L,left,Distractor,0,41,41,41,1217.2492915093899,1219.2499183560722,left,1,2,0.5008687311783433,D12T04,2023-01-09_14h40.32.959,t1_Paradigm,2021.1.4,60.06076999175848,
K,right,Target,0,42,42,42,1220.7488558604382,1222.751069713384,left,0,2,0.45584356412291527,D12T04,2023-01-09_14h40.32.959,t1_Paradigm,2021.1.4,60.06076999175848,
B,left,Distractor,0,43,43,43,1224.2491317503154,1226.2492632786743,left,1,2,0.5415900219231844,D12T04,2023-01-09_14h40.32.959,t1_Paradigm,2021.1.4,60.06076999175848,
N,left,Distractor,0,44,44,44,1227.7489976552315,1229.7506138542667,left,1,2,0.4643579637631774,D12T04,2023-01-09_14h40.32.959,t1_Paradigm,2021.1.4,60.06076999175848,
S,left,Pretarget,0,45,45,45,1231.249119238928,1233.2507389667444,left,1,2,0.5642559481784701,D12T04,2023-01-09_14h40.32.959,t1_Paradigm,2021.1.4,60.06076999175848,
Z,left,Distractor,0,46,46,46,1234.7489816150628,1236.7508717789315,None,0,2,,D12T04,2023-01-09_14h40.32.959,t1_Paradigm,2021.1.4,60.06076999175848,
S,right,Target,0,47,47,47,1238.2491429783404,1240.2496184064075,right,1,2,0.4133100644685328,D12T04,2023-01-09_14h40.32.959,t1_Paradigm,2021.1.4,60.06076999175848,
C,left,Distractor,0,48,48,48,1241.749140732456,1243.7503309072927,left,1,2,0.44876250717788935,D12T04,2023-01-09_14h40.32.959,t1_Paradigm,2021.1.4,60.06076999175848,
T,left,Pretarget,0,49,49,49,1245.2490759305656,1247.2499068072066,left,1,2,0.48482671892270446,D12T04,2023-01-09_14h40.32.959,t1_Paradigm,2021.1.4,60.06076999175848,
S,left,Lure,0,50,50,50,1248.7487807930447,1250.7507357588038,left,1,2,0.4720844738185406,D12T04,2023-01-09_14h40.32.959,t1_Paradigm,2021.1.4,60.06076999175848,
T,right,Target,0,51,51,51,1252.2491404116154,1254.250131368637,right,1,2,0.46067612152546644,D12T04,2023-01-09_14h40.32.959,t1_Paradigm,2021.1.4,60.06076999175848,
N,left,Pretarget,0,52,52,52,1255.749176983256,1257.7510180645622,left,1,2,0.35181236919015646,D12T04,2023-01-09_14h40.32.959,t1_Paradigm,2021.1.4,60.06076999175848,
B,left,Distractor,0,53,53,53,1259.2488471991383,1261.2509333728813,left,1,2,0.3559247269295156,D12T04,2023-01-09_14h40.32.959,t1_Paradigm,2021.1.4,60.06076999175848,
N,right,Target,0,54,54,54,1262.7487840009853,1264.7506918092258,left,0,2,0.5361216352321208,D12T04,2023-01-09_14h40.32.959,t1_Paradigm,2021.1.4,60.06076999175848,
N,left,Lure,0,55,55,55,1266.2491198806092,1268.249045775272,left,1,2,0.5577702992595732,D12T04,2023-01-09_14h40.32.959,t1_Paradigm,2021.1.4,60.06076999175848,
X,left,Distractor,0,56,56,56,1269.7491673589684,1271.750658445526,left,1,2,0.4320795335806906,D12T04,2023-01-09_14h40.32.959,t1_Paradigm,2021.1.4,60.06076999175848,
W,left,Distractor,0,57,57,57,1273.2490945369937,1275.2502035489306,left,1,2,0.5165799967944622,D12T04,2023-01-09_14h40.32.959,t1_Paradigm,2021.1.4,60.06076999175848,
S,left,Distractor,0,58,58,58,1276.74904481275,1278.7505702250637,left,1,2,0.40834020357578993,D12T04,2023-01-09_14h40.32.959,t1_Paradigm,2021.1.4,60.06076999175848,
L,left,Distractor,0,59,59,59,1280.2491821162403,1282.2498930129223,left,1,2,0.44494496658444405,D12T04,2023-01-09_14h40.32.959,t1_Paradigm,2021.1.4,60.06076999175848,
K,left,Pretarget,0,60,60,60,1283.748894998338,1285.7491195597686,left,1,2,0.4497127220965922,D12T04,2023-01-09_14h40.32.959,t1_Paradigm,2021.1.4,60.06076999175848,
V,left,Pretarget,0,61,61,61,1287.2488802415319,1289.2507097739726,left,1,2,0.43606068287044764,D12T04,2023-01-09_14h40.32.959,t1_Paradigm,2021.1.4,60.06076999175848,
K,right,Target,0,62,62,62,1290.7490544370376,1292.7499870075844,left,0,2,0.40888075483962893,D12T04,2023-01-09_14h40.32.959,t1_Paradigm,2021.1.4,60.06076999175848,
V,right,Target,0,63,63,63,1294.2491282215342,1296.2502256841399,left,0,2,0.46046343026682734,D12T04,2023-01-09_14h40.32.959,t1_Paradigm,2021.1.4,60.06076999175848,
R,left,Distractor,0,0,0,0,1418.46716465801,1420.4663530294783,None,0,3,,D12T04,2023-01-09_14h40.32.959,t1_Paradigm,2021.1.4,60.06076999175848,
P,left,Lure,0,1,1,1,1421.9655677070841,1423.965603315737,None,0,3,,D12T04,2023-01-09_14h40.32.959,t1_Paradigm,2021.1.4,60.06076999175848,
V,left,Distractor,0,2,2,2,1425.4654172509909,1427.4670786829665,None,0,3,,D12T04,2023-01-09_14h40.32.959,t1_Paradigm,2021.1.4,60.06076999175848,
P,left,Pretarget,0,3,3,3,1428.965768207796,1430.9659013408236,left,1,3,0.4329155422747135,D12T04,2023-01-09_14h40.32.959,t1_Paradigm,2021.1.4,60.06076999175848,
Z,left,Distractor,0,4,4,4,1432.465441631619,1434.4672419712879,left,1,3,0.499209544621408,D12T04,2023-01-09_14h40.32.959,t1_Paradigm,2021.1.4,60.06076999175848,
L,left,Pretarget,0,5,5,5,1435.9656196767464,1437.9665901022963,left,1,3,0.47209698474034667,D12T04,2023-01-09_14h40.32.959,t1_Paradigm,2021.1.4,60.06076999175848,
P,right,Target,0,6,6,6,1439.4658910748549,1441.466666773893,right,1,3,0.764208470005542,D12T04,2023-01-09_14h40.32.959,t1_Paradigm,2021.1.4,60.06076999175848,
S,left,Distractor,0,7,7,7,1442.965737090446,1444.9672644273378,left,1,3,0.4795408686622977,D12T04,2023-01-09_14h40.32.959,t1_Paradigm,2021.1.4,60.06076999175848,
L,right,Target,0,8,8,8,1446.4656065241434,1448.467075475026,left,0,3,0.4675236353650689,D12T04,2023-01-09_14h40.32.959,t1_Paradigm,2021.1.4,60.06076999175848,
D,left,Distractor,0,9,9,9,1449.9656360377558,1451.9671771693975,left,1,3,0.47152563696727157,D12T04,2023-01-09_14h40.32.959,t1_Paradigm,2021.1.4,60.06076999175848,
G,left,Distractor,0,10,10,10,1453.4657489596866,1455.4674934796058,left,1,3,0.4909521071240306,D12T04,2023-01-09_14h40.32.959,t1_Paradigm,2021.1.4,60.06076999175848,
M,left,Pretarget,0,11,11,11,1456.9655686691403,1458.9664470246062,left,1,3,0.4643512265756726,D12T04,2023-01-09_14h40.32.959,t1_Paradigm,2021.1.4,60.06076999175848,
Y,left,Distractor,0,12,12,12,1460.4652770604007,1462.4666542625055,left,1,3,0.5320981396362185,D12T04,2023-01-09_14h40.32.959,t1_Paradigm,2021.1.4,60.06076999175848,
V,left,Distractor,0,13,13,13,1463.9656299422495,1465.9662298415788,left,1,3,0.40851022861897945,D12T04,2023-01-09_14h40.32.959,t1_Paradigm,2021.1.4,60.06076999175848,
M,right,Target,0,14,14,14,1467.4655616115779,1469.4673186428845,left,0,3,0.4432161655277014,D12T04,2023-01-09_14h40.32.959,t1_Paradigm,2021.1.4,60.06076999175848,
S,left,Pretarget,0,15,15,15,1470.9656600980088,1472.967365480028,left,1,3,0.607384214643389,D12T04,2023-01-09_14h40.32.959,t1_Paradigm,2021.1.4,60.06076999175848,
Q,left,Distractor,0,16,16,16,1474.465353090316,1476.4678078657016,left,1,3,0.37085099052637815,D12T04,2023-01-09_14h40.32.959,t1_Paradigm,2021.1.4,60.06076999175848,
R,left,Pretarget,0,17,17,17,1477.965608769562,1479.9679259206168,left,1,3,0.5186613583937287,D12T04,2023-01-09_14h40.32.959,t1_Paradigm,2021.1.4,60.06076999175848,
S,right,Target,0,18,18,18,1481.465593050234,1483.4677077755332,right,1,3,0.4269685195758939,D12T04,2023-01-09_14h40.32.959,t1_Paradigm,2021.1.4,60.06076999175848,
F,left,Distractor,0,19,19,19,1484.9656113358214,1486.9682698198594,left,1,3,0.5582829411141574,D12T04,2023-01-09_14h40.32.959,t1_Paradigm,2021.1.4,60.06076999175848,
R,right,Target,0,20,20,20,1488.4653396168724,1490.4673532894813,left,0,3,0.419250029604882,D12T04,2023-01-09_14h40.32.959,t1_Paradigm,2021.1.4,60.06076999175848,
P,left,Distractor,0,21,21,21,1491.9655850301497,1493.967078362126,left,1,3,0.3756806612946093,D12T04,2023-01-09_14h40.32.959,t1_Paradigm,2021.1.4,60.06076999175848,
L,left,Distractor,0,22,22,22,1495.465415325947,1497.4667258011177,left,1,3,0.4599328236654401,D12T04,2023-01-09_14h40.32.959,t1_Paradigm,2021.1.4,60.06076999175848,
R,right,Target,0,23,23,23,1498.965690574143,1500.9675014996901,right,1,3,0.7031040778383613,D12T04,2023-01-09_14h40.32.959,t1_Paradigm,2021.1.4,60.06076999175848,
H,left,Pretarget,0,24,24,24,1502.4656260926276,1504.4676153846085,left,1,3,0.46697410149499774,D12T04,2023-01-09_14h40.32.959,t1_Paradigm,2021.1.4,60.06076999175848,
G,left,Pretarget,0,25,25,25,1505.9657091805711,1507.96737799095,left,1,3,0.3753964304924011,D12T04,2023-01-09_14h40.32.959,t1_Paradigm,2021.1.4,60.06076999175848,
T,left,Distractor,0,26,26,26,1509.4655933710746,1511.4668698413298,left,1,3,0.3638328113593161,D12T04,2023-01-09_14h40.32.959,t1_Paradigm,2021.1.4,60.06076999175848,
H,right,Target,0,27,27,27,1512.9656950649805,1514.9663161374629,right,1,3,0.544187874533236,D12T04,2023-01-09_14h40.32.959,t1_Paradigm,2021.1.4,60.06076999175848,
G,right,Target,0,28,28,28,1516.4653774714097,1518.4654262331314,left,0,3,0.4371328023262322,D12T04,2023-01-09_14h40.32.959,t1_Paradigm,2021.1.4,60.06076999175848,
D,left,Distractor,0,29,29,29,1519.9655965790153,1521.9674264322966,left,1,3,0.43927832460030913,D12T04,2023-01-09_14h40.32.959,t1_Paradigm,2021.1.4,60.06076999175848,
N,left,Pretarget,0,30,30,30,1523.4655118873343,1525.4666760768741,left,1,3,0.4759478885680437,D12T04,2023-01-09_14h40.32.959,t1_Paradigm,2021.1.4,60.06076999175848,
V,left,Distractor,0,31,31,31,1526.9656790252775,1528.9676644671708,left,1,3,0.43103468185290694,D12T04,2023-01-09_14h40.32.959,t1_Paradigm,2021.1.4,60.06076999175848,
R,left,Distractor,0,32,32,32,1530.465566102881,1532.4676031940617,left,1,3,0.6751211825758219,D12T04,2023-01-09_14h40.32.959,t1_Paradigm,2021.1.4,60.06076999175848,
N,right,Target,0,33,33,33,1533.9655109248124,1535.9657797566615,left,0,3,0.45684446580708027,D12T04,2023-01-09_14h40.32.959,t1_Paradigm,2021.1.4,60.06076999175848,
Z,left,Distractor,0,34,34,34,1537.4655815013684,1539.467047244776,left,1,3,0.5875509670004249,D12T04,2023-01-09_14h40.32.959,t1_Paradigm,2021.1.4,60.06076999175848,
N,left,Lure,0,35,35,35,1540.965588558931,1542.9659404787235,right,0,3,0.43278593895956874,D12T04,2023-01-09_14h40.32.959,t1_Paradigm,2021.1.4,60.06076999175848,
Y,left,Pretarget,0,36,36,36,1544.4655677070841,1546.4671762068756,left,1,3,0.4673420609906316,D12T04,2023-01-09_14h40.32.959,t1_Paradigm,2021.1.4,60.06076999175848,
Y,left,Lure,0,37,37,37,1547.965402173344,1549.965632188134,right,0,3,0.6170544628985226,D12T04,2023-01-09_14h40.32.959,t1_Paradigm,2021.1.4,60.06076999175848,
B,left,Distractor,0,38,38,38,1551.4653733009472,1553.466217330657,left,1,3,0.6364212641492486,D12T04,2023-01-09_14h40.32.959,t1_Paradigm,2021.1.4,60.06076999175848,
Y,right,Target,0,39,39,39,1554.9654098725878,1556.9675281262025,right,1,3,0.4632056439295411,D12T04,2023-01-09_14h40.32.959,t1_Paradigm,2021.1.4,60.06076999175848,
J,left,Distractor,0,40,40,40,1558.4655584036373,1560.4665994052775,left,1,3,0.4679060303606093,D12T04,2023-01-09_14h40.32.959,t1_Paradigm,2021.1.4,60.06076999175848,
X,left,Distractor,0,41,41,41,1561.9656078070402,1563.9677552538924,left,1,3,0.34276800556108356,D12T04,2023-01-09_14h40.32.959,t1_Paradigm,2021.1.4,60.06076999175848,
W,left,Pretarget,0,42,42,42,1565.4655115664937,1567.4677571789362,left,1,3,0.47462586499750614,D12T04,2023-01-09_14h40.32.959,t1_Paradigm,2021.1.4,60.06076999175848,
S,left,Pretarget,0,43,43,43,1568.9655080377124,1570.966063986998,left,1,3,0.46467459481209517,D12T04,2023-01-09_14h40.32.959,t1_Paradigm,2021.1.4,60.06076999175848,
R,left,Distractor,0,44,44,44,1572.4653495615348,1574.467711625155,left,1,3,0.5151681480929255,D12T04,2023-01-09_14h40.32.959,t1_Paradigm,2021.1.4,60.06076999175848,
W,right,Target,0,45,45,45,1575.9655215116218,1577.9662802075036,left,0,3,0.5042246379889548,D12T04,2023-01-09_14h40.32.959,t1_Paradigm,2021.1.4,60.06076999175848,
S,right,Target,0,46,46,46,1579.4655433259904,1581.467788938433,right,1,3,0.5065636038780212,D12T04,2023-01-09_14h40.32.959,t1_Paradigm,2021.1.4,60.06076999175848,
D,left,Distractor,0,47,47,47,1582.9656068445183,1584.9662385033444,left,1,3,0.4804359055124223,D12T04,2023-01-09_14h40.32.959,t1_Paradigm,2021.1.4,60.06076999175848,
T,left,Distractor,0,48,48,48,1586.465437461622,1588.4666228238493,left,1,3,0.5478693949989974,D12T04,2023-01-09_14h40.32.959,t1_Paradigm,2021.1.4,60.06076999175848,
S,right,Target,0,49,49,49,1589.9656110149808,1591.96701580612,right,1,3,0.39160814695060253,D12T04,2023-01-09_14h40.32.959,t1_Paradigm,2021.1.4,60.06076999175848,
K,left,Distractor,0,50,50,50,1593.465546533931,1595.4666593950242,left,1,3,0.5076674823649228,D12T04,2023-01-09_14h40.32.959,t1_Paradigm,2021.1.4,60.06076999175848,
S,left,Lure,0,51,51,51,1596.9654820528813,1598.9649979630485,left,1,3,0.673604432027787,D12T04,2023-01-09_14h40.32.959,t1_Paradigm,2021.1.4,60.06076999175848,
T,left,Pretarget,0,52,52,52,1600.4655061131343,1602.4665294704027,left,1,3,0.5481151295825839,D12T04,2023-01-09_14h40.32.959,t1_Paradigm,2021.1.4,60.06076999175848,
V,left,Distractor,0,53,53,53,1603.965525040403,1605.9817980295047,left,1,3,0.5367241008207202,D12T04,2023-01-09_14h40.32.959,t1_Paradigm,2021.1.4,60.06076999175848,
B,left,Distractor,0,54,54,54,1607.4656007494777,1609.4670713045634,left,1,3,0.5874143056571484,D12T04,2023-01-09_14h40.32.959,t1_Paradigm,2021.1.4,60.06076999175848,
T,right,Target,0,55,55,55,1610.965420779772,1612.9674203367904,left,0,3,0.5274943141266704,D12T04,2023-01-09_14h40.32.959,t1_Paradigm,2021.1.4,60.06076999175848,
Y,left,Pretarget,0,56,56,56,1614.4654557472095,1616.4671585629694,left,1,3,0.6914782226085663,D12T04,2023-01-09_14h40.32.959,t1_Paradigm,2021.1.4,60.06076999175848,
T,left,Lure,0,57,57,57,1617.9655693108216,1619.9673224925064,left,1,3,0.5031104935333133,D12T04,2023-01-09_14h40.32.959,t1_Paradigm,2021.1.4,60.06076999175848,
P,left,Pretarget,0,58,58,58,1621.465405060444,1623.4673394947313,left,1,3,0.5389087609946728,D12T04,2023-01-09_14h40.32.959,t1_Paradigm,2021.1.4,60.06076999175848,
Y,right,Target,0,59,59,59,1624.9655943335965,1626.9669182822108,left,0,3,0.8957981383427978,D12T04,2023-01-09_14h40.32.959,t1_Paradigm,2021.1.4,60.06076999175848,
R,left,Distractor,0,60,60,60,1628.4656475866213,1630.4663879969157,left,1,3,0.6762812021188438,D12T04,2023-01-09_14h40.32.959,t1_Paradigm,2021.1.4,60.06076999175848,
P,right,Target,0,61,61,61,1631.9654024941847,1633.9677404970862,right,1,3,0.614716459531337,D12T04,2023-01-09_14h40.32.959,t1_Paradigm,2021.1.4,60.06076999175848,
L,left,Distractor,0,62,62,62,1635.4654849399813,1637.465679666493,left,1,3,0.4607303375378251,D12T04,2023-01-09_14h40.32.959,t1_Paradigm,2021.1.4,60.06076999175848,
V,left,Distractor,0,63,63,63,1638.9653899827972,1640.9675525072962,left,1,3,0.5270243394188583,D12T04,2023-01-09_14h40.32.959,t1_Paradigm,2021.1.4,60.06076999175848,
H,left,Lure,0,0,0,0,1661.2473112000152,1663.2504037292674,None,0,3,,D12T04,2023-01-09_14h40.32.959,t1_Paradigm,2021.1.4,60.06076999175848,
B,left,Distractor,0,1,1,1,1664.7488712589256,1666.7499433783814,None,0,3,,D12T04,2023-01-09_14h40.32.959,t1_Paradigm,2021.1.4,60.06076999175848,
T,left,Distractor,0,2,2,2,1668.2488087029196,1670.2510337838903,None,0,3,,D12T04,2023-01-09_14h40.32.959,t1_Paradigm,2021.1.4,60.06076999175848,
R,left,Distractor,0,3,3,3,1671.7486492642201,1673.7499914988875,left,1,3,0.5604505981318653,D12T04,2023-01-09_14h40.32.959,t1_Paradigm,2021.1.4,60.06076999175848,
H,left,Pretarget,0,4,4,4,1675.2487852843478,1677.2501852628775,left,1,3,1.2362643918022513,D12T04,2023-01-09_14h40.32.959,t1_Paradigm,2021.1.4,60.06076999175848,
K,left,Distractor,0,5,5,5,1678.7487102164887,1680.7494137347676,left,1,3,0.5210317624732852,D12T04,2023-01-09_14h40.32.959,t1_Paradigm,2021.1.4,60.06076999175848,
G,left,Distractor,0,6,6,6,1682.2489225873724,1684.2500296742655,left,1,3,0.4764723996631801,D12T04,2023-01-09_14h40.32.959,t1_Paradigm,2021.1.4,60.06076999175848,
H,right,Target,0,7,7,7,1685.748795549851,1687.7499032784253,left,0,3,0.640656809322536,D12T04,2023-01-09_14h40.32.959,t1_Paradigm,2021.1.4,60.06076999175848,
Y,left,Pretarget,0,8,8,8,1689.2486733244732,1691.2502532731742,left,1,3,0.4521594769321382,D12T04,2023-01-09_14h40.32.959,t1_Paradigm,2021.1.4,60.06076999175848,
S,left,Distractor,0,9,9,9,1692.7484657657333,1694.75055675162,left,1,3,0.5038820216432214,D12T04,2023-01-09_14h40.32.959,t1_Paradigm,2021.1.4,60.06076999175848,
P,left,Distractor,0,10,10,10,1696.2487599407323,1698.2491218051873,left,1,3,0.781346661504358,D12T04,2023-01-09_14h40.32.959,t1_Paradigm,2021.1.4,60.06076999175848,
Y,right,Target,0,11,11,11,1699.7487195199355,1701.7499600602314,right,1,3,0.43273910181596875,D12T04,2023-01-09_14h40.32.959,t1_Paradigm,2021.1.4,60.06076999175848,
H,left,Lure,0,12,12,12,1703.248740692623,1705.2493136445992,left,1,3,0.7568739792332053,D12T04,2023-01-09_14h40.32.959,t1_Paradigm,2021.1.4,60.06076999175848,
Q,left,Distractor,0,13,13,13,1706.7487140661106,1708.750285353046,left,1,3,0.5685976794920862,D12T04,2023-01-09_14h40.32.959,t1_Paradigm,2021.1.4,60.06076999175848,
V,left,Pretarget,0,14,14,14,1710.2486470188014,1712.248824101407,left,1,3,0.4614887125790119,D12T04,2023-01-09_14h40.32.959,t1_Paradigm,2021.1.4,60.06076999175848,
G,left,Distractor,0,15,15,15,1713.7487596203573,1715.74962835107,left,1,3,0.44885008642449975,D12T04,2023-01-09_14h40.32.959,t1_Paradigm,2021.1.4,60.06076999175848,
Z,left,Pretarget,0,16,16,16,1717.2486293744296,1719.2503129420802,left,1,3,0.5962944189086556,D12T04,2023-01-09_14h40.32.959,t1_Paradigm,2021.1.4,60.06076999175848,
V,right,Target,0,17,17,17,1720.7486489433795,1722.7649334818125,left,0,3,0.5534644983708858,D12T04,2023-01-09_14h40.32.959,t1_Paradigm,2021.1.4,60.06076999175848,
N,left,Distractor,0,18,18,18,1724.248501374852,1726.2502311379649,left,1,3,0.6841257670894265,D12T04,2023-01-09_14h40.32.959,t1_Paradigm,2021.1.4,60.06076999175848,
Z,right,Target,0,19,19,19,1727.7487005926669,1729.7488263468258,left,0,3,0.43368386244401336,D12T04,2023-01-09_14h40.32.959,t1_Paradigm,2021.1.4,60.06076999175848,
R,left,Distractor,0,20,20,20,1731.2486887229607,1733.250333473552,left,1,3,0.3721512001939118,D12T04,2023-01-09_14h40.32.959,t1_Paradigm,2021.1.4,60.06076999175848,
P,left,Distractor,0,21,21,21,1734.7488536150195,1736.7499350379221,left,1,3,0.45656697172671556,D12T04,2023-01-09_14h40.32.959,t1_Paradigm,2021.1.4,60.06076999175848,
Z,right,Target,0,22,22,22,1738.248683910817,1740.2507299846038,left,0,3,0.5237935446202755,D12T04,2023-01-09_14h40.32.959,t1_Paradigm,2021.1.4,60.06076999175848,
D,left,Pretarget,0,23,23,23,1741.748718236573,1743.7505599595606,left,1,3,0.39982452150434256,D12T04,2023-01-09_14h40.32.959,t1_Paradigm,2021.1.4,60.06076999175848,
K,left,Distractor,0,24,24,24,1745.2488699760288,1747.2502215136774,left,1,3,0.35623333835974336,D12T04,2023-01-09_14h40.32.959,t1_Paradigm,2021.1.4,60.06076999175848,
W,left,Distractor,0,25,25,25,1748.748511640355,1750.7496565817855,left,1,3,0.45685761887580156,D12T04,2023-01-09_14h40.32.959,t1_Paradigm,2021.1.4,60.06076999175848,
D,right,Target,0,26,26,26,1752.2485142066143,1754.2488273093477,right,1,3,0.3816783707588911,D12T04,2023-01-09_14h40.32.959,t1_Paradigm,2021.1.4,60.06076999175848,
G,left,Pretarget,0,27,27,27,1755.7484843721613,1757.749342516996,left,1,3,0.6091608148999512,D12T04,2023-01-09_14h40.32.959,t1_Paradigm,2021.1.4,60.06076999175848,
V,left,Distractor,0,28,28,28,1759.2486989884637,1761.2494442109019,left,1,3,0.4848774056881666,D12T04,2023-01-09_14h40.32.959,t1_Paradigm,2021.1.4,60.06076999175848,
D,right,Target,0,29,29,29,1762.7485559112392,1764.7502170223743,left,0,3,0.6161716161295772,D12T04,2023-01-09_14h40.32.959,t1_Paradigm,2021.1.4,60.06076999175848,
G,right,Target,0,30,30,30,1766.2486168635078,1768.2499029575847,left,0,3,0.4764197883196175,D12T04,2023-01-09_14h40.32.959,t1_Paradigm,2021.1.4,60.06076999175848,
B,left,Pretarget,0,31,31,31,1769.7483932645991,1771.7497906768695,left,1,3,0.41648920997977257,D12T04,2023-01-09_14h40.32.959,t1_Paradigm,2021.1.4,60.06076999175848,
N,left,Distractor,0,32,32,32,1773.2487175948918,1775.2496094238013,left,1,3,0.42072924645617604,D12T04,2023-01-09_14h40.32.959,t1_Paradigm,2021.1.4,60.06076999175848,
F,left,Distractor,0,33,33,33,1776.7486720411107,1778.749091329053,left,1,3,0.4573789215646684,D12T04,2023-01-09_14h40.32.959,t1_Paradigm,2021.1.4,60.06076999175848,
B,right,Target,0,34,34,34,1780.248446517624,1782.2503328318708,left,0,3,0.5561521756462753,D12T04,2023-01-09_14h40.32.959,t1_Paradigm,2021.1.4,60.06076999175848,
Q,left,Pretarget,0,35,35,35,1783.7484590290114,1785.7499748170376,left,1,3,0.3523323889821768,D12T04,2023-01-09_14h40.32.959,t1_Paradigm,2021.1.4,60.06076999175848,
S,left,Pretarget,0,36,36,36,1787.2484609535895,1789.2502224761993,left,1,3,0.43616654770448804,D12T04,2023-01-09_14h40.32.959,t1_Paradigm,2021.1.4,60.06076999175848,
W,left,Distractor,0,37,37,37,1790.7483493145555,1792.749718496576,left,1,3,0.42475915839895606,D12T04,2023-01-09_14h40.32.959,t1_Paradigm,2021.1.4,60.06076999175848,
Q,right,Target,0,38,38,38,1794.2485594400205,1796.250207719393,right,1,3,0.7000182857736945,D12T04,2023-01-09_14h40.32.959,t1_Paradigm,2021.1.4,60.06076999175848,
S,right,Target,0,39,39,39,1797.7483865278773,1799.749372351449,left,0,3,0.9290614300407469,D12T04,2023-01-09_14h40.32.959,t1_Paradigm,2021.1.4,60.06076999175848,
T,left,Distractor,0,40,40,40,1801.2486434900202,1803.250390255358,left,1,3,0.5319970869459212,D12T04,2023-01-09_14h40.32.959,t1_Paradigm,2021.1.4,60.06076999175848,
G,left,Distractor,0,41,41,41,1804.7486887229607,1806.7498099249788,left,1,3,0.5365521511994302,D12T04,2023-01-09_14h40.32.959,t1_Paradigm,2021.1.4,60.06076999175848,
D,left,Distractor,0,42,42,42,1808.248660492245,1810.2502593682148,left,1,3,0.5081448354758322,D12T04,2023-01-09_14h40.32.959,t1_Paradigm,2021.1.4,60.06076999175848,
S,left,Lure,0,43,43,43,1811.7485998608172,1813.748669795692,left,1,3,0.4336126446723938,D12T04,2023-01-09_14h40.32.959,t1_Paradigm,2021.1.4,60.06076999175848,
Z,left,Pretarget,0,44,44,44,1815.2486030687578,1817.2498500254005,left,1,3,0.6445587212219834,D12T04,2023-01-09_14h40.32.959,t1_Paradigm,2021.1.4,60.06076999175848,
J,left,Distractor,0,45,45,45,1818.7483522021212,1820.7504611527547,left,1,3,0.4878942249342799,D12T04,2023-01-09_14h40.32.959,t1_Paradigm,2021.1.4,60.06076999175848,
M,left,Pretarget,0,46,46,46,1822.2484641615301,1824.2485180562362,left,1,3,0.4461508602835238,D12T04,2023-01-09_14h40.32.959,t1_Paradigm,2021.1.4,60.06076999175848,
Z,right,Target,0,47,47,47,1825.7486450937577,1827.750379989855,left,0,3,0.3679477348923683,D12T04,2023-01-09_14h40.32.959,t1_Paradigm,2021.1.4,60.06076999175848,
P,left,Distractor,0,48,48,48,1829.2486264873296,1831.2504970822483,left,1,3,0.46799457212910056,D12T04,2023-01-09_14h40.32.959,t1_Paradigm,2021.1.4,60.06076999175848,
M,right,Target,0,49,49,49,1832.748734918423,1834.7499934234656,right,1,3,0.37630590377375484,D12T04,2023-01-09_14h40.32.959,t1_Paradigm,2021.1.4,60.06076999175848,
K,left,Distractor,0,50,50,50,1836.2485838206485,1838.2504059746861,left,1,3,0.5240277298726141,D12T04,2023-01-09_14h40.32.959,t1_Paradigm,2021.1.4,60.06076999175848,
Y,left,Distractor,0,51,51,51,1839.7485504574142,1841.7507052826695,left,1,3,0.20753563335165381,D12T04,2023-01-09_14h40.32.959,t1_Paradigm,2021.1.4,60.06076999175848,
X,left,Distractor,0,52,52,52,1843.24849752523,1845.2491846824996,left,1,3,0.3252554382197559,D12T04,2023-01-09_14h40.32.959,t1_Paradigm,2021.1.4,60.06076999175848,
F,left,Pretarget,0,53,53,53,1846.7485863873735,1848.7504399796017,left,1,3,0.3120082509703934,D12T04,2023-01-09_14h40.32.959,t1_Paradigm,2021.1.4,60.06076999175848,
M,left,Lure,0,54,54,54,1850.2485578358173,1852.2487782267854,left,1,3,0.3818054082803428,D12T04,2023-01-09_14h40.32.959,t1_Paradigm,2021.1.4,60.06076999175848,
V,left,Distractor,0,55,55,55,1853.7485902369954,1855.750597814098,left,1,3,0.5118513791821897,D12T04,2023-01-09_14h40.32.959,t1_Paradigm,2021.1.4,60.06076999175848,
F,right,Target,0,56,56,56,1857.2484333645552,1859.2505795285106,left,0,3,0.5157253807410598,D12T04,2023-01-09_14h40.32.959,t1_Paradigm,2021.1.4,60.06076999175848,
S,left,Distractor,0,57,57,57,1860.7485164524987,1862.750255518593,left,1,3,0.7122575142420828,D12T04,2023-01-09_14h40.32.959,t1_Paradigm,2021.1.4,60.06076999175848,
D,left,Distractor,0,58,58,58,1864.2485305676237,1866.2500829272904,left,1,3,0.49230845691636205,D12T04,2023-01-09_14h40.32.959,t1_Paradigm,2021.1.4,60.06076999175848,
F,right,Target,0,59,59,59,1867.7487005926669,1869.7503793481737,right,1,3,0.5920887081883848,D12T04,2023-01-09_14h40.32.959,t1_Paradigm,2021.1.4,60.06076999175848,
V,left,Pretarget,0,60,60,60,1871.2483849236742,1873.250252631493,left,1,3,0.32413487788289785,D12T04,2023-01-09_14h40.32.959,t1_Paradigm,2021.1.4,60.06076999175848,
J,left,Distractor,0,61,61,61,1874.7485940866172,1876.7495994791389,left,1,3,0.24877533968538046,D12T04,2023-01-09_14h40.32.959,t1_Paradigm,2021.1.4,60.06076999175848,
V,left,Lure,0,62,62,62,1878.248686797917,1880.250361383427,left,1,3,0.34806155506521463,D12T04,2023-01-09_14h40.32.959,t1_Paradigm,2021.1.4,60.06076999175848,
V,right,Target,0,63,63,63,1881.748604672961,1883.7484077005647,left,0,3,0.35382443806156516,D12T04,2023-01-09_14h40.32.959,t1_Paradigm,2021.1.4,60.06076999175848,
R,left,Distractor,0,0,0,0,1991.1101206536405,1993.1005376637913,None,0,4,,D12T04,2023-01-09_14h40.32.959,t1_Paradigm,2021.1.4,60.06076999175848,
F,left,Distractor,0,1,1,1,1994.598467530217,1996.5994828678668,None,0,4,,D12T04,2023-01-09_14h40.32.959,t1_Paradigm,2021.1.4,60.06076999175848,
P,left,Pretarget,0,2,2,2,1998.0983777055517,2000.0986404423602,None,0,4,,D12T04,2023-01-09_14h40.32.959,t1_Paradigm,2021.1.4,60.06076999175848,
H,left,Distractor,0,3,3,3,2001.598198698368,2003.6004045312293,None,0,4,,D12T04,2023-01-09_14h40.32.959,t1_Paradigm,2021.1.4,60.06076999175848,
Z,left,Distractor,0,4,4,4,2005.0984668885358,2007.0994183863513,left,1,4,0.570812173653394,D12T04,2023-01-09_14h40.32.959,t1_Paradigm,2021.1.4,60.06076999175848,
T,left,Distractor,0,5,5,5,2008.5984354498796,2010.6004552179947,left,1,4,0.6377875586040318,D12T04,2023-01-09_14h40.32.959,t1_Paradigm,2021.1.4,60.06076999175848,
P,right,Target,0,6,6,6,2012.098029315006,2014.098713264335,left,0,4,0.8194649671204388,D12T04,2023-01-09_14h40.32.959,t1_Paradigm,2021.1.4,60.06076999175848,
G,left,Distractor,0,7,7,7,2015.5984559813514,2017.6003426164389,left,1,4,0.5017233467660844,D12T04,2023-01-09_14h40.32.959,t1_Paradigm,2021.1.4,60.06076999175848,
L,left,Distractor,0,8,8,8,2019.098151219543,2021.0989265972748,left,1,4,0.4592254562303424,D12T04,2023-01-09_14h40.32.959,t1_Paradigm,2021.1.4,60.06076999175848,
P,left,Lure,0,9,9,9,2022.5983283021487,2024.6007102550939,left,1,4,0.3493146072141826,D12T04,2023-01-09_14h40.32.959,t1_Paradigm,2021.1.4,60.06076999175848,
Q,left,Pretarget,0,10,10,10,2026.0984736252576,2028.1006005411036,left,1,4,0.41758955968543887,D12T04,2023-01-09_14h40.32.959,t1_Paradigm,2021.1.4,60.06076999175848,
D,left,Distractor,0,11,11,11,2029.5985461263917,2031.6002669073641,left,1,4,0.6140944245271385,D12T04,2023-01-09_14h40.32.959,t1_Paradigm,2021.1.4,60.06076999175848,
M,left,Pretarget,0,12,12,12,2033.098440582864,2035.0986321014352,left,1,4,0.5234374548308551,D12T04,2023-01-09_14h40.32.959,t1_Paradigm,2021.1.4,60.06076999175848,
C,left,Distractor,0,13,13,13,2036.5984906279482,2038.600625563413,left,1,4,0.4134929212741554,D12T04,2023-01-09_14h40.32.959,t1_Paradigm,2021.1.4,60.06076999175848,
Q,right,Target,0,14,14,14,2040.098424863536,2042.1001090728678,left,0,4,0.43398124584928155,D12T04,2023-01-09_14h40.32.959,t1_Paradigm,2021.1.4,60.06076999175848,
R,left,Distractor,0,15,15,15,2043.5983677608892,2045.5991694442928,left,1,4,0.4227804532274604,D12T04,2023-01-09_14h40.32.959,t1_Paradigm,2021.1.4,60.06076999175848,
M,right,Target,0,16,16,16,2047.098562487401,2049.098751439713,left,0,4,0.3635100848041475,D12T04,2023-01-09_14h40.32.959,t1_Paradigm,2021.1.4,60.06076999175848,
S,left,Distractor,0,17,17,17,2050.5983462668955,2052.599882907234,left,1,4,0.4305441761389375,D12T04,2023-01-09_14h40.32.959,t1_Paradigm,2021.1.4,60.06076999175848,
Z,left,Distractor,0,18,18,18,2054.098190999124,2056.1005290020257,left,1,4,0.40162036987021565,D12T04,2023-01-09_14h40.32.959,t1_Paradigm,2021.1.4,60.06076999175848,
L,left,Pretarget,0,19,19,19,2057.5981075908057,2059.5990606923588,left,1,4,0.4710226194001734,D12T04,2023-01-09_14h40.32.959,t1_Paradigm,2021.1.4,60.06076999175848,
M,right,Target,0,20,20,20,2061.0980610745028,2063.1007218039595,right,1,4,0.5215078322216868,D12T04,2023-01-09_14h40.32.959,t1_Paradigm,2021.1.4,60.06076999175848,
P,left,Distractor,0,21,21,21,2064.5984152392484,2066.600331388414,left,1,4,0.4139969008974731,D12T04,2023-01-09_14h40.32.959,t1_Paradigm,2021.1.4,60.06076999175848,
F,left,Distractor,0,22,22,22,2068.0983674400486,2070.098782236688,left,1,4,0.48328943690285087,D12T04,2023-01-09_14h40.32.959,t1_Paradigm,2021.1.4,60.06076999175848,
L,right,Target,0,23,23,23,2071.598490627948,2073.6003410122357,left,0,4,0.45375193702057004,D12T04,2023-01-09_14h40.32.959,t1_Paradigm,2021.1.4,60.06076999175848,
L,left,Lure,0,24,24,24,2075.09832605673,2077.0984931942075,left,1,4,0.39581995317712426,D12T04,2023-01-09_14h40.32.959,t1_Paradigm,2021.1.4,60.06076999175848,
V,left,Pretarget,0,25,25,25,2078.5984049737453,2080.599582316354,left,1,4,0.8787071048282087,D12T04,2023-01-09_14h40.32.959,t1_Paradigm,2021.1.4,60.06076999175848,
Z,left,Distractor,0,26,26,26,2082.098343700636,2084.0994905671105,left,1,4,0.6106255953200161,D12T04,2023-01-09_14h40.32.959,t1_Paradigm,2021.1.4,60.06076999175848,
H,left,Distractor,0,27,27,27,2085.5983619862236,2087.600538947154,left,1,4,0.45354822743684053,D12T04,2023-01-09_14h40.32.959,t1_Paradigm,2021.1.4,60.06076999175848,
X,left,Distractor,0,28,28,28,2089.0979340369813,2091.099959258456,left,1,4,0.4261100539006293,D12T04,2023-01-09_14h40.32.959,t1_Paradigm,2021.1.4,60.06076999175848,
V,right,Target,0,29,29,29,2092.5981608438306,2094.600206596311,left,0,4,0.5579987103119493,D12T04,2023-01-09_14h40.32.959,t1_Paradigm,2021.1.4,60.06076999175848,
C,left,Distractor,0,30,30,30,2096.098038297612,2098.100567819085,left,1,4,0.593506972771138,D12T04,2023-01-09_14h40.32.959,t1_Paradigm,2021.1.4,60.06076999175848,
S,left,Pretarget,0,31,31,31,2099.598468492739,2101.598662256729,left,1,4,0.5033113155514002,D12T04,2023-01-09_14h40.32.959,t1_Paradigm,2021.1.4,60.06076999175848,
D,left,Distractor,0,32,32,32,2103.098092833534,2105.100018606521,left,1,4,0.3944315235130489,D12T04,2023-01-09_14h40.32.959,t1_Paradigm,2021.1.4,60.06076999175848,
V,left,Distractor,0,33,33,33,2106.5983748184517,2108.600506545976,left,1,4,0.4134890721179545,D12T04,2023-01-09_14h40.32.959,t1_Paradigm,2021.1.4,60.06076999175848,
R,left,Distractor,0,34,34,34,2110.098341134377,2112.0994453337044,left,1,4,0.4186443560756743,D12T04,2023-01-09_14h40.32.959,t1_Paradigm,2021.1.4,60.06076999175848,
S,right,Target,0,35,35,35,2113.598176242318,2115.6002826262265,right,1,4,0.48573138006031513,D12T04,2023-01-09_14h40.32.959,t1_Paradigm,2021.1.4,60.06076999175848,
Y,left,Distractor,0,36,36,36,2117.09814384114,2119.098443469964,left,1,4,0.42758830869570374,D12T04,2023-01-09_14h40.32.959,t1_Paradigm,2021.1.4,60.06076999175848,
N,left,Pretarget,0,37,37,37,2120.598299109377,2122.598715188913,left,1,4,0.4635841897688806,D12T04,2023-01-09_14h40.32.959,t1_Paradigm,2021.1.4,60.06076999175848,
Z,left,Pretarget,0,38,38,38,2124.0982224377804,2126.100593483541,left,1,4,0.40144232427701354,D12T04,2023-01-09_14h40.32.959,t1_Paradigm,2021.1.4,60.06076999175848,
P,left,Pretarget,0,39,39,39,2127.5981278009713,2129.600401002448,left,1,4,0.40547223621979356,D12T04,2023-01-09_14h40.32.959,t1_Paradigm,2021.1.4,60.06076999175848,
M,left,Distractor,0,40,40,40,2131.0983507581986,2133.100307969842,left,1,4,0.5218337667174637,D12T04,2023-01-09_14h40.32.959,t1_Paradigm,2021.1.4,60.06076999175848,
N,right,Target,0,41,41,41,2134.5980774350464,2136.5997549076565,left,0,4,0.46256403997540474,D12T04,2023-01-09_14h40.32.959,t1_Paradigm,2021.1.4,60.06076999175848,
Z,right,Target,0,42,42,42,2138.098254517652,2140.099394326564,left,0,4,0.4506151373498142,D12T04,2023-01-09_14h40.32.959,t1_Paradigm,2021.1.4,60.06076999175848,
P,right,Target,0,43,43,43,2141.5983173949644,2143.600389132742,right,1,4,0.45365184685215354,D12T04,2023-01-09_14h40.32.959,t1_Paradigm,2021.1.4,60.06076999175848,
X,left,Pretarget,0,44,44,44,2145.0982904476114,2147.1003291425295,left,1,4,0.489830584730953,D12T04,2023-01-09_14h40.32.959,t1_Paradigm,2021.1.4,60.06076999175848,
Z,left,Lure,0,45,45,45,2148.5980453551747,2150.599778647069,left,1,4,0.7188130975700915,D12T04,2023-01-09_14h40.32.959,t1_Paradigm,2021.1.4,60.06076999175848,
R,left,Pretarget,0,46,46,46,2152.0980937960558,2154.1001029773615,left,1,4,0.6900955666787922,D12T04,2023-01-09_14h40.32.959,t1_Paradigm,2021.1.4,60.06076999175848,
K,left,Distractor,0,47,47,47,2155.598157956265,2157.599980751984,left,1,4,0.389937411993742,D12T04,2023-01-09_14h40.32.959,t1_Paradigm,2021.1.4,60.06076999175848,
X,right,Target,0,48,48,48,2159.098415560089,2161.100513924379,left,0,4,0.4416894703172147,D12T04,2023-01-09_14h40.32.959,t1_Paradigm,2021.1.4,60.06076999175848,
B,left,Distractor,0,49,49,49,2162.598083209712,2164.5997417545877,left,1,4,0.4304395942017436,D12T04,2023-01-09_14h40.32.959,t1_Paradigm,2021.1.4,60.06076999175848,
R,right,Target,0,50,50,50,2166.098060111981,2168.100609844085,right,1,4,0.43387377727776766,D12T04,2023-01-09_14h40.32.959,t1_Paradigm,2021.1.4,60.06076999175848,
Y,left,Pretarget,0,51,51,51,2169.598011991475,2171.5997661356814,left,1,4,0.7262069364078343,D12T04,2023-01-09_14h40.32.959,t1_Paradigm,2021.1.4,60.06076999175848,
W,left,Pretarget,0,52,52,52,2173.114960589446,2175.0998200303875,left,1,4,0.55426906934008,D12T04,2023-01-09_14h40.32.959,t1_Paradigm,2021.1.4,60.06076999175848,
Z,left,Distractor,0,53,53,53,2176.598227570299,2178.6001485311426,left,1,4,0.43000811617821455,D12T04,2023-01-09_14h40.32.959,t1_Paradigm,2021.1.4,60.06076999175848,
Q,left,Distractor,0,54,54,54,2180.098226608243,2182.098823299166,left,1,4,0.35520099801942706,D12T04,2023-01-09_14h40.32.959,t1_Paradigm,2021.1.4,60.06076999175848,
Y,right,Target,0,55,55,55,2183.5983032798395,2185.6001533432864,left,0,4,0.3896409906446934,D12T04,2023-01-09_14h40.32.959,t1_Paradigm,2021.1.4,60.06076999175848,
W,right,Target,0,56,56,56,2187.098304883577,2189.09960284736,right,1,4,0.5065713031217456,D12T04,2023-01-09_14h40.32.959,t1_Paradigm,2021.1.4,60.06076999175848,
H,left,Pretarget,0,57,57,57,2190.598367119208,2192.6111414446495,left,1,4,0.5311020500957966,D12T04,2023-01-09_14h40.32.959,t1_Paradigm,2021.1.4,60.06076999175848,
M,left,Distractor,0,58,58,58,2194.0982137760147,2196.1003503156826,left,1,4,0.5297838756814599,D12T04,2023-01-09_14h40.32.959,t1_Paradigm,2021.1.4,60.06076999175848,
R,left,Pretarget,0,59,59,59,2197.5981303676963,2199.6000407417305,left,1,4,0.5660001472570002,D12T04,2023-01-09_14h40.32.959,t1_Paradigm,2021.1.4,60.06076999175848,
J,left,Distractor,0,60,60,60,2201.0981537858024,2203.100314706564,left,1,4,0.45775875076651573,D12T04,2023-01-09_14h40.32.959,t1_Paradigm,2021.1.4,60.06076999175848,
H,right,Target,0,61,61,61,2204.5980681320652,2206.5993336946703,left,0,4,0.4947167159989476,D12T04,2023-01-09_14h40.32.959,t1_Paradigm,2021.1.4,60.06076999175848,
Z,left,Distractor,0,62,62,62,2208.098413635511,2210.1001514187083,left,1,4,0.46582755632698536,D12T04,2023-01-09_14h40.32.959,t1_Paradigm,2021.1.4,60.06076999175848,
R,right,Target,0,63,63,63,2211.5982448938303,2213.599711599294,left,0,4,0.5342860077507794,D12T04,2023-01-09_14h40.32.959,t1_Paradigm,2021.1.4,60.06076999175848,
J,left,Pretarget,0,0,0,0,2220.98978503095,2222.983198971022,None,0,4,,D12T04,2023-01-09_14h40.32.959,t1_Paradigm,2021.1.4,60.06076999175848,
G,left,Pretarget,0,1,1,1,2224.4815256688744,2226.482333447784,None,0,4,,D12T04,2023-01-09_14h40.32.959,t1_Paradigm,2021.1.4,60.06076999175848,
Z,left,Distractor,0,2,2,2,2227.9814964761026,2229.9835258680396,None,0,4,,D12T04,2023-01-09_14h40.32.959,t1_Paradigm,2021.1.4,60.06076999175848,
F,left,Distractor,0,3,3,3,2231.48148653144,2233.482800855767,None,0,4,,D12T04,2023-01-09_14h40.32.959,t1_Paradigm,2021.1.4,60.06076999175848,
J,right,Target,0,4,4,4,2234.981581809465,2236.982560575474,right,1,4,0.4317475035786629,D12T04,2023-01-09_14h40.32.959,t1_Paradigm,2021.1.4,60.06076999175848,
G,right,Target,0,5,5,5,2238.4815721851774,2240.4837074419484,right,1,4,0.4502516691572964,D12T04,2023-01-09_14h40.32.959,t1_Paradigm,2021.1.4,60.06076999175848,
H,left,Distractor,0,6,6,6,2241.9815811677836,2243.9823087463155,left,1,4,0.4238083017989993,D12T04,2023-01-09_14h40.32.959,t1_Paradigm,2021.1.4,60.06076999175848,
P,left,Distractor,0,7,7,7,2245.481565127615,2247.4820428015664,left,1,4,0.3640856025740504,D12T04,2023-01-09_14h40.32.959,t1_Paradigm,2021.1.4,60.06076999175848,
G,left,Lure,0,8,8,8,2248.981248496566,2250.983447271399,left,1,4,0.44673215318471193,D12T04,2023-01-09_14h40.32.959,t1_Paradigm,2021.1.4,60.06076999175848,
S,left,Distractor,0,9,9,9,2252.481628004927,2254.4837520332076,left,1,4,0.5784254409372807,D12T04,2023-01-09_14h40.32.959,t1_Paradigm,2021.1.4,60.06076999175848,
R,left,Pretarget,0,10,10,10,2255.981290200725,2257.9832916827872,left,1,4,0.5186658496968448,D12T04,2023-01-09_14h40.32.959,t1_Paradigm,2021.1.4,60.06076999175848,
T,left,Pretarget,0,11,11,11,2259.4816270424053,2261.4834703691304,left,1,4,0.3786169597879052,D12T04,2023-01-09_14h40.32.959,t1_Paradigm,2021.1.4,60.06076999175848,
X,left,Distractor,0,12,12,12,2262.9815125162713,2264.9834514418617,left,1,4,0.47864486929029226,D12T04,2023-01-09_14h40.32.959,t1_Paradigm,2021.1.4,60.06076999175848,
F,left,Pretarget,0,13,13,13,2266.481608756818,2268.4839121131226,left,1,4,0.465926683973521,D12T04,2023-01-09_14h40.32.959,t1_Paradigm,2021.1.4,60.06076999175848,
R,right,Target,0,14,14,14,2269.9814210878685,2271.982699161861,left,0,4,0.37538744835183024,D12T04,2023-01-09_14h40.32.959,t1_Paradigm,2021.1.4,60.06076999175848,
T,right,Target,0,15,15,15,2273.4811423108913,2275.4836448854767,left,0,4,0.330670571886003,D12T04,2023-01-09_14h40.32.959,t1_Paradigm,2021.1.4,60.06076999175848,
C,left,Distractor,0,16,16,16,2276.981435523834,2278.983243562281,left,1,4,0.4948273925110698,D12T04,2023-01-09_14h40.32.959,t1_Paradigm,2021.1.4,60.06076999175848,
F,right,Target,0,17,17,17,2280.481606831774,2282.481458942406,left,0,4,0.9328221888281405,D12T04,2023-01-09_14h40.32.959,t1_Paradigm,2021.1.4,60.06076999175848,
M,left,Distractor,0,18,18,18,2283.981246892363,2285.9828958134167,left,1,4,0.5030399169772863,D12T04,2023-01-09_14h40.32.959,t1_Paradigm,2021.1.4,60.06076999175848,
N,left,Distractor,0,19,19,19,2287.4813954234123,2289.483251903206,left,1,4,0.6347036911174655,D12T04,2023-01-09_14h40.32.959,t1_Paradigm,2021.1.4,60.06076999175848,
R,left,Lure,0,20,20,20,2290.981313939672,2292.9835707801394,left,1,4,0.6384419943206012,D12T04,2023-01-09_14h40.32.959,t1_Paradigm,2021.1.4,60.06076999175848,
F,right,Target,0,21,21,21,2294.481193639338,2296.483711932786,left,0,4,0.48207167349755764,D12T04,2023-01-09_14h40.32.959,t1_Paradigm,2021.1.4,60.06076999175848,
P,left,Distractor,0,22,22,22,2297.981603944674,2299.9828762444668,left,1,4,0.6632508765906096,D12T04,2023-01-09_14h40.32.959,t1_Paradigm,2021.1.4,60.06076999175848,
L,left,Pretarget,0,23,23,23,2301.4811580302194,2303.483033437282,left,1,4,1.179098161868751,D12T04,2023-01-09_14h40.32.959,t1_Paradigm,2021.1.4,60.06076999175848,
T,left,Distractor,0,24,24,24,2304.9814223707654,2306.9832451664843,left,1,4,0.5590365040116012,D12T04,2023-01-09_14h40.32.959,t1_Paradigm,2021.1.4,60.06076999175848,
F,left,Distractor,0,25,25,25,2308.4814544511028,2310.4830433819443,left,1,4,0.3709148303605616,D12T04,2023-01-09_14h40.32.959,t1_Paradigm,2021.1.4,60.06076999175848,
V,left,Distractor,0,26,26,26,2311.9815757139586,2313.9814531677403,left,1,4,0.5205444651655853,D12T04,2023-01-09_14h40.32.959,t1_Paradigm,2021.1.4,60.06076999175848,
L,right,Target,0,27,27,27,2315.4812407973222,2317.483385356609,right,1,4,0.42653543734923005,D12T04,2023-01-09_14h40.32.959,t1_Paradigm,2021.1.4,60.06076999175848,
S,left,Pretarget,0,28,28,28,2318.9816462905146,2320.9805077649653,left,1,4,0.52942971047014,D12T04,2023-01-09_14h40.32.959,t1_Paradigm,2021.1.4,60.06076999175848,
W,left,Distractor,0,29,29,29,2322.48109387001,2324.4826584202237,left,1,4,0.5151947746053338,D12T04,2023-01-09_14h40.32.959,t1_Paradigm,2021.1.4,60.06076999175848,
Q,left,Distractor,0,30,30,30,2325.981295333244,2327.9833378782496,left,1,4,0.4386649513617158,D12T04,2023-01-09_14h40.32.959,t1_Paradigm,2021.1.4,60.06076999175848,
L,right,Target,0,31,31,31,2329.4815644859336,2331.4837828301825,right,1,4,0.521904022898525,D12T04,2023-01-09_14h40.32.959,t1_Paradigm,2021.1.4,60.06076999175848,
S,right,Target,0,32,32,32,2332.9814223707654,2334.983145076316,left,0,4,0.5749039999209344,D12T04,2023-01-09_14h40.32.959,t1_Paradigm,2021.1.4,60.06076999175848,
Z,left,Pretarget,0,33,33,33,2336.4814621503465,2338.481851603836,left,1,4,0.7401791359297931,D12T04,2023-01-09_14h40.32.959,t1_Paradigm,2021.1.4,60.06076999175848,
F,left,Distractor,0,34,34,34,2339.981378742028,2341.9832820584998,left,1,4,0.48665849678218365,D12T04,2023-01-09_14h40.32.959,t1_Paradigm,2021.1.4,60.06076999175848,
V,left,Distractor,0,35,35,35,2343.481435523834,2345.482102791313,left,1,4,0.39594795322045684,D12T04,2023-01-09_14h40.32.959,t1_Paradigm,2021.1.4,60.06076999175848,
M,left,Distractor,0,36,36,36,2346.9814390526153,2348.98222469585,left,1,4,0.49588347179815173,D12T04,2023-01-09_14h40.32.959,t1_Paradigm,2021.1.4,60.06076999175848,
Z,right,Target,0,37,37,37,2350.4814021606,2352.4820411973633,left,0,4,0.6438799044117332,D12T04,2023-01-09_14h40.32.959,t1_Paradigm,2021.1.4,60.06076999175848,
H,left,Pretarget,0,38,38,38,2353.9813793832436,2355.9838485945947,left,1,4,0.42212409246712923,D12T04,2023-01-09_14h40.32.959,t1_Paradigm,2021.1.4,60.06076999175848,
L,left,Distractor,0,39,39,39,2357.481581809465,2359.483174910769,left,1,4,0.42674427945166826,D12T04,2023-01-09_14h40.32.959,t1_Paradigm,2021.1.4,60.06076999175848,
G,left,Distractor,0,40,40,40,2360.981256195344,2362.9818009170704,left,1,4,0.4962206343188882,D12T04,2023-01-09_14h40.32.959,t1_Paradigm,2021.1.4,60.06076999175848,
K,left,Distractor,0,41,41,41,2364.481440656353,2366.4832980986685,left,1,4,0.4824162144213915,D12T04,2023-01-09_14h40.32.959,t1_Paradigm,2021.1.4,60.06076999175848,
H,right,Target,0,42,42,42,2367.981464716606,2369.982776475139,right,1,4,0.42320679873228073,D12T04,2023-01-09_14h40.32.959,t1_Paradigm,2021.1.4,60.06076999175848,
B,left,Distractor,0,43,43,43,2371.480964907445,2373.4833965846337,left,1,4,0.5543082072399557,D12T04,2023-01-09_14h40.32.959,t1_Paradigm,2021.1.4,60.06076999175848,
Z,left,Distractor,0,44,44,44,2374.9814239749685,2376.9833661084995,left,1,4,0.41452975291758776,D12T04,2023-01-09_14h40.32.959,t1_Paradigm,2021.1.4,60.06076999175848,
T,left,Pretarget,0,45,45,45,2378.4814140298404,2380.4833260085434,left,1,4,0.5146247097291052,D12T04,2023-01-09_14h40.32.959,t1_Paradigm,2021.1.4,60.06076999175848,
H,right,Target,0,46,46,46,2381.9811144010164,2383.982153157238,right,1,4,0.4397928901016712,D12T04,2023-01-09_14h40.32.959,t1_Paradigm,2021.1.4,60.06076999175848,
F,left,Distractor,0,47,47,47,2385.4812221904285,2387.4832525448874,left,1,4,0.5544432643800974,D12T04,2023-01-09_14h40.32.959,t1_Paradigm,2021.1.4,60.06076999175848,
R,left,Distractor,0,48,48,48,2388.981456375681,2390.983279813081,left,1,4,0.6067031524144113,D12T04,2023-01-09_14h40.32.959,t1_Paradigm,2021.1.4,60.06076999175848,
T,right,Target,0,49,49,49,2392.4814335987903,2394.4834013967775,left,0,4,0.5306323962286115,D12T04,2023-01-09_14h40.32.959,t1_Paradigm,2021.1.4,60.06076999175848,
H,right,Target,0,50,50,50,2395.981463433709,2397.9820614079945,left,0,4,0.7277326695621014,D12T04,2023-01-09_14h40.32.959,t1_Paradigm,2021.1.4,60.06076999175848,
Y,left,Pretarget,0,51,51,51,2399.4814268620685,2401.4831761941314,left,1,4,0.7147203087806702,D12T04,2023-01-09_14h40.32.959,t1_Paradigm,2021.1.4,60.06076999175848,
H,left,Distractor,0,52,52,52,2402.981380666606,2404.982311312575,left,1,4,0.49569034948945045,D12T04,2023-01-09_14h40.32.959,t1_Paradigm,2021.1.4,60.06076999175848,
S,left,Distractor,0,53,53,53,2406.481370401103,2408.481670992449,left,1,4,0.5804028627462685,D12T04,2023-01-09_14h40.32.959,t1_Paradigm,2021.1.4,60.06076999175848,
Q,left,Distractor,0,54,54,54,2409.981391894631,2411.9820363852195,left,1,4,0.5197748611681163,D12T04,2023-01-09_14h40.32.959,t1_Paradigm,2021.1.4,60.06076999175848,
Y,right,Target,0,55,55,55,2413.4813553234562,2415.48175568413,left,0,4,0.7324349815025926,D12T04,2023-01-09_14h40.32.959,t1_Paradigm,2021.1.4,60.06076999175848,
R,left,Distractor,0,56,56,56,2416.9815198946744,2418.983330820687,left,1,4,0.5905979424715042,D12T04,2023-01-09_14h40.32.959,t1_Paradigm,2021.1.4,60.06076999175848,
H,left,Pretarget,0,57,57,57,2420.48138259165,2422.4833102892153,left,1,4,0.9467360023409128,D12T04,2023-01-09_14h40.32.959,t1_Paradigm,2021.1.4,60.06076999175848,
J,left,Distractor,0,58,58,58,2423.981401839759,2425.9832778880373,left,1,4,0.8386883698403835,D12T04,2023-01-09_14h40.32.959,t1_Paradigm,2021.1.4,60.06076999175848,
V,left,Distractor,0,59,59,59,2427.4811586719006,2429.482699161861,left,1,4,0.5870367223396897,D12T04,2023-01-09_14h40.32.959,t1_Paradigm,2021.1.4,60.06076999175848,
Y,left,Lure,0,60,60,60,2430.9813357545063,2432.9818974784575,left,1,4,0.5122302458621562,D12T04,2023-01-09_14h40.32.959,t1_Paradigm,2021.1.4,60.06076999175848,
H,right,Target,0,61,61,61,2434.481459584087,2436.482777758036,right,1,4,0.6114243916235864,D12T04,2023-01-09_14h40.32.959,t1_Paradigm,2021.1.4,60.06076999175848,
L,left,Distractor,0,62,62,62,2437.981292446144,2439.9977967338637,left,1,4,0.50402477895841,D12T04,2023-01-09_14h40.32.959,t1_Paradigm,2021.1.4,60.06076999175848,
P,left,Distractor,0,63,63,63,2441.4814753029495,2443.4822904602624,left,1,4,0.6995248924940825,D12T04,2023-01-09_14h40.32.959,t1_Paradigm,2021.1.4,60.06076999175848,
