Letter,CorrAnswer,Stimulus,nback_run.thisRepN,nback_run.thisTrialN,nback_run.thisN,nback_run.thisIndex,fixcross.started,nback_trial.started,trial_resp.keys,trial_resp.corr,currentlevel,trial_resp.rt,Participant,date,expName,psychopyVersion,frameRate,
H,left,Distractor,0,0,0,0,248.65678393475537,250.64597740014142,None,0,1,,D17S02,2022-11-18_10h40.04.704,t1_Paradigm,2021.1.4,59.704921865874,
Q,left,Pretarget,0,1,1,1,252.14152114020544,254.1429724482441,left,1,1,0.6181263369362568,D17S02,2022-11-18_10h40.04.704,t1_Paradigm,2021.1.4,59.704921865874,
Q,right,Target,0,2,2,2,255.6406876967376,257.6405410902371,right,1,1,0.8909902129671536,D17S02,2022-11-18_10h40.04.704,t1_Paradigm,2021.1.4,59.704921865874,
T,left,Distractor,0,3,3,3,259.1397881680605,261.14286915001867,left,1,1,0.5435446947667515,D17S02,2022-11-18_10h40.04.704,t1_Paradigm,2021.1.4,59.704921865874,
Q,left,Lure,0,4,4,4,262.63959697009705,264.6397455013939,left,1,1,0.5317449573049089,D17S02,2022-11-18_10h40.04.704,t1_Paradigm,2021.1.4,59.704921865874,
L,left,Distractor,0,5,5,5,266.1403736316279,268.1409574911813,left,1,1,0.5194049893616466,D17S02,2022-11-18_10h40.04.704,t1_Paradigm,2021.1.4,59.704921865874,
V,left,Pretarget,0,6,6,6,269.6388758073008,271.6400233158929,left,1,1,0.6032334270566935,D17S02,2022-11-18_10h40.04.704,t1_Paradigm,2021.1.4,59.704921865874,
V,right,Target,0,7,7,7,273.1390990854561,275.1373673965136,right,1,1,0.5338940095971338,D17S02,2022-11-18_10h40.04.704,t1_Paradigm,2021.1.4,59.704921865874,
K,left,Distractor,0,8,8,8,276.63742674487,278.63942758666235,left,1,1,0.44370471079309937,D17S02,2022-11-18_10h40.04.704,t1_Paradigm,2021.1.4,59.704921865874,
G,left,Pretarget,0,9,9,9,280.13733627872716,282.1381912159268,left,1,1,0.5484696463536238,D17S02,2022-11-18_10h40.04.704,t1_Paradigm,2021.1.4,59.704921865874,
G,right,Target,0,10,10,10,283.6364614517952,285.6356851110759,right,1,1,0.3971598761563655,D17S02,2022-11-18_10h40.04.704,t1_Paradigm,2021.1.4,59.704921865874,
G,right,Target,0,11,11,11,287.1362657626014,289.1357511962706,right,1,1,0.4019978903961601,D17S02,2022-11-18_10h40.04.704,t1_Paradigm,2021.1.4,59.704921865874,
P,left,Pretarget,0,12,12,12,290.63513236930885,292.6352170610189,left,1,1,0.43286481277027633,D17S02,2022-11-18_10h40.04.704,t1_Paradigm,2021.1.4,59.704921865874,
P,right,Target,0,13,13,13,294.13485872524325,296.13445964761195,right,1,1,0.3936721173085971,D17S02,2022-11-18_10h40.04.704,t1_Paradigm,2021.1.4,59.704921865874,
G,left,Lure,0,14,14,14,297.6334436678153,299.6342893017718,left,1,1,0.4238820372702321,D17S02,2022-11-18_10h40.04.704,t1_Paradigm,2021.1.4,59.704921865874,
Y,left,Distractor,0,15,15,15,301.1336640587688,303.1350839282095,left,1,1,0.4124723949935287,D17S02,2022-11-18_10h40.04.704,t1_Paradigm,2021.1.4,59.704921865874,
B,left,Distractor,0,16,16,16,304.63298524182756,306.63449365261476,left,1,1,0.4186009955155896,D17S02,2022-11-18_10h40.04.704,t1_Paradigm,2021.1.4,59.704921865874,
T,left,Pretarget,0,17,17,17,308.1327869862289,310.1340852717258,left,1,1,0.5548349987220718,D17S02,2022-11-18_10h40.04.704,t1_Paradigm,2021.1.4,59.704921865874,
T,right,Target,0,18,18,18,311.63119516693405,313.6305198788177,right,1,1,0.5231503521790728,D17S02,2022-11-18_10h40.04.704,t1_Paradigm,2021.1.4,59.704921865874,
S,left,Distractor,0,19,19,19,315.1321036780573,317.1309574526822,left,1,1,0.45459882431896403,D17S02,2022-11-18_10h40.04.704,t1_Paradigm,2021.1.4,59.704921865874,
T,left,Lure,0,20,20,20,318.6303739139257,320.6308958587033,left,1,1,0.7866089565359289,D17S02,2022-11-18_10h40.04.704,t1_Paradigm,2021.1.4,59.704921865874,
J,left,Distractor,0,21,21,21,322.1299177335459,324.13231380334764,left,1,1,0.5054549164196942,D17S02,2022-11-18_10h40.04.704,t1_Paradigm,2021.1.4,59.704921865874,
P,left,Distractor,0,22,22,22,325.6292013827915,327.62921966849535,left,1,1,0.4492289204354165,D17S02,2022-11-18_10h40.04.704,t1_Paradigm,2021.1.4,59.704921865874,
F,left,Distractor,0,23,23,23,329.1288895632897,331.130439999135,left,1,1,0.5018766914290609,D17S02,2022-11-18_10h40.04.704,t1_Paradigm,2021.1.4,59.704921865874,
L,left,Distractor,0,24,24,24,332.6283685809176,334.6291731522215,left,1,1,0.4804227399727097,D17S02,2022-11-18_10h40.04.704,t1_Paradigm,2021.1.4,59.704921865874,
W,left,Pretarget,0,25,25,25,336.1273336738086,338.12836408968724,left,1,1,0.535443803833914,D17S02,2022-11-18_10h40.04.704,t1_Paradigm,2021.1.4,59.704921865874,
W,right,Target,0,26,26,26,339.6270635585679,341.62658684686176,right,1,1,0.6367636472277809,D17S02,2022-11-18_10h40.04.704,t1_Paradigm,2021.1.4,59.704921865874,
V,left,Distractor,0,27,27,27,343.12621118777315,345.12562668662576,left,1,1,0.5132738224347122,D17S02,2022-11-18_10h40.04.704,t1_Paradigm,2021.1.4,59.704921865874,
W,left,Lure,0,28,28,28,346.6257421753253,348.6253706866555,left,1,1,0.6781830290565267,D17S02,2022-11-18_10h40.04.704,t1_Paradigm,2021.1.4,59.704921865874,
R,left,Pretarget,0,29,29,29,350.12458696748945,352.12669591953454,left,1,1,1.1390147145430092,D17S02,2022-11-18_10h40.04.704,t1_Paradigm,2021.1.4,59.704921865874,
R,right,Target,0,30,30,30,353.6408663834154,355.64085451375286,right,1,1,0.6003712320234627,D17S02,2022-11-18_10h40.04.704,t1_Paradigm,2021.1.4,59.704921865874,
G,left,Distractor,0,31,31,31,357.1406585037621,359.14129337081977,left,1,1,0.4506712460133713,D17S02,2022-11-18_10h40.04.704,t1_Paradigm,2021.1.4,59.704921865874,
R,left,Lure,0,32,32,32,360.640267766983,362.6397086091747,left,1,1,0.5638203406415414,D17S02,2022-11-18_10h40.04.704,t1_Paradigm,2021.1.4,59.704921865874,
S,left,Distractor,0,33,33,33,364.1392598072416,366.1402157970588,left,1,1,0.6419445987849031,D17S02,2022-11-18_10h40.04.704,t1_Paradigm,2021.1.4,59.704921865874,
R,left,Lure,0,34,34,34,367.63865637876734,369.6384962985903,left,1,1,0.5183415308856638,D17S02,2022-11-18_10h40.04.704,t1_Paradigm,2021.1.4,59.704921865874,
P,left,Pretarget,0,35,35,35,371.13842540135374,373.1381398876256,left,1,1,0.49202325943042524,D17S02,2022-11-18_10h40.04.704,t1_Paradigm,2021.1.4,59.704921865874,
P,right,Target,0,36,36,36,374.6376006195351,376.63703985772736,right,1,1,0.49860900272324216,D17S02,2022-11-18_10h40.04.704,t1_Paradigm,2021.1.4,59.704921865874,
Y,left,Pretarget,0,37,37,37,378.13706327627006,380.1387956068065,left,1,1,0.4209781379904598,D17S02,2022-11-18_10h40.04.704,t1_Paradigm,2021.1.4,59.704921865874,
Y,right,Target,0,38,38,38,381.63682652442367,383.6358955571486,right,1,1,0.5967721549095586,D17S02,2022-11-18_10h40.04.704,t1_Paradigm,2021.1.4,59.704921865874,
J,left,Distractor,0,39,39,39,385.13591288046155,387.1356963391445,left,1,1,0.4741311720717931,D17S02,2022-11-18_10h40.04.704,t1_Paradigm,2021.1.4,59.704921865874,
Y,left,Lure,0,40,40,40,388.63459598843474,390.63760222354904,left,1,1,0.4416127612494165,D17S02,2022-11-18_10h40.04.704,t1_Paradigm,2021.1.4,59.704921865874,
T,left,Distractor,0,41,41,41,392.1345212415763,394.13532388806925,left,1,1,0.4086757038749056,D17S02,2022-11-18_10h40.04.704,t1_Paradigm,2021.1.4,59.704921865874,
V,left,Distractor,0,42,42,42,395.6339935223659,397.63394572287507,left,1,1,0.5866755550232483,D17S02,2022-11-18_10h40.04.704,t1_Paradigm,2021.1.4,59.704921865874,
N,left,Pretarget,0,43,43,43,399.1338488406909,401.1354448304046,left,1,1,0.4685681453847792,D17S02,2022-11-18_10h40.04.704,t1_Paradigm,2021.1.4,59.704921865874,
N,right,Target,0,44,44,44,402.6332017831446,404.63282291604264,right,1,1,0.4770780588150956,D17S02,2022-11-18_10h40.04.704,t1_Paradigm,2021.1.4,59.704921865874,
N,right,Target,0,45,45,45,406.13209437479964,408.13203053521283,right,1,1,0.3854968003288377,D17S02,2022-11-18_10h40.04.704,t1_Paradigm,2021.1.4,59.704921865874,
X,left,Distractor,0,46,46,46,409.6319987758179,411.633190234279,left,1,1,0.39435446306015365,D17S02,2022-11-18_10h40.04.704,t1_Paradigm,2021.1.4,59.704921865874,
Z,left,Distractor,0,47,47,47,413.1311175328592,415.13293840474216,left,1,1,0.44894084027328063,D17S02,2022-11-18_10h40.04.704,t1_Paradigm,2021.1.4,59.704921865874,
H,left,Pretarget,0,48,48,48,416.6302847309853,418.6324254424253,left,1,1,0.5857673646823969,D17S02,2022-11-18_10h40.04.704,t1_Paradigm,2021.1.4,59.704921865874,
H,right,Target,0,49,49,49,420.13002488140773,422.1296469766967,right,1,1,0.3576973862363957,D17S02,2022-11-18_10h40.04.704,t1_Paradigm,2021.1.4,59.704921865874,
K,left,Distractor,0,50,50,50,423.6293556885212,425.6297547661525,left,1,1,0.4530066842417,D17S02,2022-11-18_10h40.04.704,t1_Paradigm,2021.1.4,59.704921865874,
V,left,Pretarget,0,51,51,51,427.12918277627614,429.12873621995095,left,1,1,0.44342240506375674,D17S02,2022-11-18_10h40.04.704,t1_Paradigm,2021.1.4,59.704921865874,
V,right,Target,0,52,52,52,430.6283252726571,432.6277269770071,right,1,1,0.539388063858496,D17S02,2022-11-18_10h40.04.704,t1_Paradigm,2021.1.4,59.704921865874,
R,left,Distractor,0,53,53,53,434.12765094694623,436.1400220326759,left,1,1,0.4230181176098995,D17S02,2022-11-18_10h40.04.704,t1_Paradigm,2021.1.4,59.704921865874,
V,left,Lure,0,54,54,54,437.6265942253085,439.62821555839037,left,1,1,0.4571694103797199,D17S02,2022-11-18_10h40.04.704,t1_Paradigm,2021.1.4,59.704921865874,
Y,left,Distractor,0,55,55,55,441.1263760799775,443.1261813532037,left,1,1,0.986687360520591,D17S02,2022-11-18_10h40.04.704,t1_Paradigm,2021.1.4,59.704921865874,
Q,left,Distractor,0,56,56,56,444.6260931326542,446.62776996447064,left,1,1,1.0313500501069939,D17S02,2022-11-18_10h40.04.704,t1_Paradigm,2021.1.4,59.704921865874,
Z,left,Pretarget,0,57,57,57,448.1422012403491,450.14145794222713,left,1,1,0.5344015182927251,D17S02,2022-11-18_10h40.04.704,t1_Paradigm,2021.1.4,59.704921865874,
Z,right,Target,0,58,58,58,451.64174217275286,453.64124781695136,right,1,1,0.5973550520575373,D17S02,2022-11-18_10h40.04.704,t1_Paradigm,2021.1.4,59.704921865874,
B,left,Distractor,0,59,59,59,455.14049521555717,457.1533266521001,left,1,1,0.42810026215738617,D17S02,2022-11-18_10h40.04.704,t1_Paradigm,2021.1.4,59.704921865874,
S,left,Pretarget,0,60,60,60,458.64016478955455,460.64006919057283,left,1,1,0.8261131507024402,D17S02,2022-11-18_10h40.04.704,t1_Paradigm,2021.1.4,59.704921865874,
S,right,Target,0,61,61,61,462.1399511354539,464.13918377718073,right,1,1,0.41688342184352223,D17S02,2022-11-18_10h40.04.704,t1_Paradigm,2021.1.4,59.704921865874,
T,left,Distractor,0,62,62,62,465.6391173711745,467.64084296488727,left,1,1,0.4044257195928367,D17S02,2022-11-18_10h40.04.704,t1_Paradigm,2021.1.4,59.704921865874,
D,left,Distractor,0,63,63,63,469.13821816329437,471.13976924074814,left,1,1,0.5782772806705907,D17S02,2022-11-18_10h40.04.704,t1_Paradigm,2021.1.4,59.704921865874,
R,left,Distractor,0,0,0,0,492.04650441359263,494.03372719258186,None,0,1,,D17S02,2022-11-18_10h40.04.704,t1_Paradigm,2021.1.4,59.704921865874,
V,left,Distractor,0,1,1,1,495.53416027523053,497.5355884855235,left,1,1,0.9213756116078002,D17S02,2022-11-18_10h40.04.704,t1_Paradigm,2021.1.4,59.704921865874,
N,left,Pretarget,0,2,2,2,499.05032388166,501.04997484912747,left,1,1,0.6355352965620114,D17S02,2022-11-18_10h40.04.704,t1_Paradigm,2021.1.4,59.704921865874,
N,right,Target,0,3,3,3,502.5497644030547,504.54923604223586,right,1,1,0.42615844793908764,D17S02,2022-11-18_10h40.04.704,t1_Paradigm,2021.1.4,59.704921865874,
S,left,Distractor,0,4,4,4,506.0491423680651,508.0500929042464,left,1,1,0.5573802414146485,D17S02,2022-11-18_10h40.04.704,t1_Paradigm,2021.1.4,59.704921865874,
N,left,Lure,0,5,5,5,509.5481995311129,511.548255671456,left,1,1,0.5322207066055853,D17S02,2022-11-18_10h40.04.704,t1_Paradigm,2021.1.4,59.704921865874,
Z,left,Distractor,0,6,6,6,513.0477818469808,515.0475996314635,left,1,1,0.4647788327129092,D17S02,2022-11-18_10h40.04.704,t1_Paradigm,2021.1.4,59.704921865874,
L,left,Pretarget,0,7,7,7,516.5469281929836,518.5492337966134,left,1,1,0.5094835473573767,D17S02,2022-11-18_10h40.04.704,t1_Paradigm,2021.1.4,59.704921865874,
L,right,Target,0,8,8,8,520.0464578973188,522.0464441028307,right,1,1,0.599967983958777,D17S02,2022-11-18_10h40.04.704,t1_Paradigm,2021.1.4,59.704921865874,
H,left,Distractor,0,9,9,9,523.5460427795915,525.5458345791121,left,1,1,0.4142538082378451,D17S02,2022-11-18_10h40.04.704,t1_Paradigm,2021.1.4,59.704921865874,
L,left,Lure,0,10,10,10,527.0455894864281,529.0466115614545,left,1,1,0.41905781748937443,D17S02,2022-11-18_10h40.04.704,t1_Paradigm,2021.1.4,59.704921865874,
X,left,Pretarget,0,11,11,11,530.5441741082032,532.5441972059489,left,1,1,0.41466026431589853,D17S02,2022-11-18_10h40.04.704,t1_Paradigm,2021.1.4,59.704921865874,
X,right,Target,0,12,12,12,534.0444252961315,536.0441160430491,left,0,1,0.4527888596931007,D17S02,2022-11-18_10h40.04.704,t1_Paradigm,2021.1.4,59.704921865874,
X,right,Target,0,13,13,13,537.5442161332612,539.5431167449715,right,1,1,0.47581730714591686,D17S02,2022-11-18_10h40.04.704,t1_Paradigm,2021.1.4,59.704921865874,
R,left,Distractor,0,14,14,14,541.0431231610128,543.0434061083215,left,1,1,0.6684851860045455,D17S02,2022-11-18_10h40.04.704,t1_Paradigm,2021.1.4,59.704921865874,
T,left,Distractor,0,15,15,15,544.5424963139812,546.5444018775888,left,1,1,0.5793943130702246,D17S02,2022-11-18_10h40.04.704,t1_Paradigm,2021.1.4,59.704921865874,
V,left,Pretarget,0,16,16,16,548.0416538880527,550.0423647851858,left,1,1,0.6645967455260688,D17S02,2022-11-18_10h40.04.704,t1_Paradigm,2021.1.4,59.704921865874,
V,right,Target,0,17,17,17,551.5412782289641,553.5410921638395,right,1,1,0.41052993916673586,D17S02,2022-11-18_10h40.04.704,t1_Paradigm,2021.1.4,59.704921865874,
N,left,Distractor,0,18,18,18,555.040771361877,557.0406035824562,left,1,1,0.514711015188368,D17S02,2022-11-18_10h40.04.704,t1_Paradigm,2021.1.4,59.704921865874,
B,left,Distractor,0,19,19,19,558.5397653269611,560.5399170662859,left,1,1,0.5777056115912274,D17S02,2022-11-18_10h40.04.704,t1_Paradigm,2021.1.4,59.704921865874,
V,left,Lure,0,20,20,20,562.0393505300308,564.0394243144838,left,1,1,0.44968606320617255,D17S02,2022-11-18_10h40.04.704,t1_Paradigm,2021.1.4,59.704921865874,
P,left,Distractor,0,21,21,21,565.5389277130598,567.5400020787929,left,1,1,0.5438064691697946,D17S02,2022-11-18_10h40.04.704,t1_Paradigm,2021.1.4,59.704921865874,
K,left,Pretarget,0,22,22,22,569.0383688760485,571.0385597532149,left,1,1,0.6162307181948563,D17S02,2022-11-18_10h40.04.704,t1_Paradigm,2021.1.4,59.704921865874,
K,right,Target,0,23,23,23,572.5379996330012,574.5374398335989,left,0,1,0.4805128853331553,D17S02,2022-11-18_10h40.04.704,t1_Paradigm,2021.1.4,59.704921865874,
J,left,Pretarget,0,24,24,24,576.0372816782328,578.0370301695075,left,1,1,0.6373228050360922,D17S02,2022-11-18_10h40.04.704,t1_Paradigm,2021.1.4,59.704921865874,
J,right,Target,0,25,25,25,579.5365056583105,581.536344294931,right,1,1,0.6602960745367454,D17S02,2022-11-18_10h40.04.704,t1_Paradigm,2021.1.4,59.704921865874,
H,left,Distractor,0,26,26,26,583.0360177185357,585.0375954225456,left,1,1,0.5751812210219214,D17S02,2022-11-18_10h40.04.704,t1_Paradigm,2021.1.4,59.704921865874,
J,left,Lure,0,27,27,27,586.5354072324117,588.5363616182294,left,1,1,1.009881020974717,D17S02,2022-11-18_10h40.04.704,t1_Paradigm,2021.1.4,59.704921865874,
V,left,Distractor,0,28,28,28,590.0352500394656,592.0347033929283,left,1,1,1.2130824319901876,D17S02,2022-11-18_10h40.04.704,t1_Paradigm,2021.1.4,59.704921865874,
Z,left,Pretarget,0,29,29,29,593.5340925860073,595.5342802551604,left,1,1,0.5097068255126942,D17S02,2022-11-18_10h40.04.704,t1_Paradigm,2021.1.4,59.704921865874,
Z,right,Target,0,30,30,30,597.0337650472211,599.0333204157068,right,1,1,0.45104786749288905,D17S02,2022-11-18_10h40.04.704,t1_Paradigm,2021.1.4,59.704921865874,
T,left,Distractor,0,31,31,31,600.5328292679187,602.5338779695012,left,1,1,0.444287607941078,D17S02,2022-11-18_10h40.04.704,t1_Paradigm,2021.1.4,59.704921865874,
Z,left,Lure,0,32,32,32,604.049116062306,606.0506879918685,left,1,1,0.6326532118109753,D17S02,2022-11-18_10h40.04.704,t1_Paradigm,2021.1.4,59.704921865874,
F,left,Distractor,0,33,33,33,607.5483974659292,609.5509391797968,left,1,1,0.6954704047384439,D17S02,2022-11-18_10h40.04.704,t1_Paradigm,2021.1.4,59.704921865874,
Y,left,Pretarget,0,34,34,34,611.0478540274198,613.048952774101,left,1,1,0.617520021245582,D17S02,2022-11-18_10h40.04.704,t1_Paradigm,2021.1.4,59.704921865874,
Y,right,Target,0,35,35,35,614.5474706690729,616.5470218671544,right,1,1,0.6623867408634396,D17S02,2022-11-18_10h40.04.704,t1_Paradigm,2021.1.4,59.704921865874,
Y,right,Target,0,36,36,36,618.047206007468,620.0461255464907,right,1,1,0.5424693666136591,D17S02,2022-11-18_10h40.04.704,t1_Paradigm,2021.1.4,59.704921865874,
W,left,Distractor,0,37,37,37,621.5463138572377,623.546244884812,left,1,1,0.5316483959322795,D17S02,2022-11-18_10h40.04.704,t1_Paradigm,2021.1.4,59.704921865874,
Q,left,Distractor,0,38,38,38,625.046028664292,627.0452263386105,left,1,1,0.7095510440849466,D17S02,2022-11-18_10h40.04.704,t1_Paradigm,2021.1.4,59.704921865874,
P,left,Pretarget,0,39,39,39,628.5448991206213,630.5459863184369,left,1,1,0.8126676992251305,D17S02,2022-11-18_10h40.04.704,t1_Paradigm,2021.1.4,59.704921865874,
P,right,Target,0,40,40,40,632.0441003237502,634.0438770455949,right,1,1,0.4495939930493478,D17S02,2022-11-18_10h40.04.704,t1_Paradigm,2021.1.4,59.704921865874,
J,left,Distractor,0,41,41,41,635.5439396019792,637.5450223085645,left,1,1,0.4252698265190702,D17S02,2022-11-18_10h40.04.704,t1_Paradigm,2021.1.4,59.704921865874,
P,left,Lure,0,42,42,42,639.0436784691847,641.042794018198,left,1,1,0.6615170467848657,D17S02,2022-11-18_10h40.04.704,t1_Paradigm,2021.1.4,59.704921865874,
L,left,Distractor,0,43,43,43,642.5427548803564,644.5443450956518,left,1,1,0.48222372215241194,D17S02,2022-11-18_10h40.04.704,t1_Paradigm,2021.1.4,59.704921865874,
Z,left,Distractor,0,44,44,44,646.0421565847209,648.043582549406,left,1,1,0.49765942894737236,D17S02,2022-11-18_10h40.04.704,t1_Paradigm,2021.1.4,59.704921865874,
F,left,Pretarget,0,45,45,45,649.541922078497,651.5412625096797,left,1,1,0.5460123033844866,D17S02,2022-11-18_10h40.04.704,t1_Paradigm,2021.1.4,59.704921865874,
F,right,Target,0,46,46,46,653.0412878530333,655.0405843343469,right,1,1,0.6908614430722082,D17S02,2022-11-18_10h40.04.704,t1_Paradigm,2021.1.4,59.704921865874,
G,left,Pretarget,0,47,47,47,656.5403815875034,658.5407944596227,left,1,1,0.48400834342464805,D17S02,2022-11-18_10h40.04.704,t1_Paradigm,2021.1.4,59.704921865874,
G,right,Target,0,48,48,48,660.0398897981213,662.0397598733252,right,1,1,0.5397974071529461,D17S02,2022-11-18_10h40.04.704,t1_Paradigm,2021.1.4,59.704921865874,
V,left,Distractor,0,49,49,49,663.5390438433678,665.541295873074,left,1,1,0.527721138423658,D17S02,2022-11-18_10h40.04.704,t1_Paradigm,2021.1.4,59.704921865874,
G,left,Lure,0,50,50,50,667.0386011366645,669.0393867806561,left,1,1,0.7474069578165654,D17S02,2022-11-18_10h40.04.704,t1_Paradigm,2021.1.4,59.704921865874,
Q,left,Pretarget,0,51,51,51,670.5381869813427,672.5378129262681,left,1,1,0.5016784358158475,D17S02,2022-11-18_10h40.04.704,t1_Paradigm,2021.1.4,59.704921865874,
Q,right,Target,0,52,52,52,674.037334289751,676.0371633023169,right,1,1,0.5858296002697898,D17S02,2022-11-18_10h40.04.704,t1_Paradigm,2021.1.4,59.704921865874,
Y,left,Distractor,0,53,53,53,677.5368036833243,679.5369692171371,left,1,1,0.5593502862320747,D17S02,2022-11-18_10h40.04.704,t1_Paradigm,2021.1.4,59.704921865874,
V,left,Distractor,0,54,54,54,681.0361428313045,683.036272435289,left,1,1,0.606561105712899,D17S02,2022-11-18_10h40.04.704,t1_Paradigm,2021.1.4,59.704921865874,
B,left,Distractor,0,55,55,55,684.5356568163406,686.5479483431845,left,1,1,0.5762828549341066,D17S02,2022-11-18_10h40.04.704,t1_Paradigm,2021.1.4,59.704921865874,
J,left,Pretarget,0,56,56,56,688.0348390921572,690.0350036635646,left,1,1,0.513593661977211,D17S02,2022-11-18_10h40.04.704,t1_Paradigm,2021.1.4,59.704921865874,
J,right,Target,0,57,57,57,691.5345449167653,693.5342664606724,right,1,1,0.6502363668842008,D17S02,2022-11-18_10h40.04.704,t1_Paradigm,2021.1.4,59.704921865874,
H,left,Distractor,0,58,58,58,695.0337474031112,697.035921798757,left,1,1,0.4915003522328334,D17S02,2022-11-18_10h40.04.704,t1_Paradigm,2021.1.4,59.704921865874,
J,left,Lure,0,59,59,59,698.5499636210589,700.5514806934953,left,1,1,0.763346323670703,D17S02,2022-11-18_10h40.04.704,t1_Paradigm,2021.1.4,59.704921865874,
D,left,Pretarget,0,60,60,60,702.049813485748,704.051413966692,left,1,1,0.7041561176301911,D17S02,2022-11-18_10h40.04.704,t1_Paradigm,2021.1.4,59.704921865874,
D,right,Target,0,61,61,61,705.5488998417859,707.5488250949275,right,1,1,0.6839125519618392,D17S02,2022-11-18_10h40.04.704,t1_Paradigm,2021.1.4,59.704921865874,
R,left,Distractor,0,62,62,62,709.0482245536696,711.0474511001667,left,1,1,0.43450218594807666,D17S02,2022-11-18_10h40.04.704,t1_Paradigm,2021.1.4,59.704921865874,
F,left,Distractor,0,63,63,63,712.5476974760677,714.548007049947,left,1,1,0.4482655521569541,D17S02,2022-11-18_10h40.04.704,t1_Paradigm,2021.1.4,59.704921865874,
F,left,Distractor,0,0,0,0,848.2486808623653,850.2411153899011,left,1,2,0.8005468390183523,D17S02,2022-11-18_10h40.04.704,t1_Paradigm,2021.1.4,59.704921865874,
N,left,Pretarget,0,1,1,1,851.7407525628951,853.7408824876766,None,0,2,,D17S02,2022-11-18_10h40.04.704,t1_Paradigm,2021.1.4,59.704921865874,
V,left,Distractor,0,2,2,2,855.2404022471601,857.2418028684915,left,1,2,0.6890777842199896,D17S02,2022-11-18_10h40.04.704,t1_Paradigm,2021.1.4,59.704921865874,
N,right,Target,0,3,3,3,858.7400881820504,860.752170546024,right,1,2,0.47250181893468834,D17S02,2022-11-18_10h40.04.704,t1_Paradigm,2021.1.4,59.704921865874,
N,left,Lure,0,4,4,4,862.2393233901821,864.2389307285921,left,1,2,0.9684529774967814,D17S02,2022-11-18_10h40.04.704,t1_Paradigm,2021.1.4,59.704921865874,
X,left,Distractor,0,5,5,5,865.7386939767603,867.7398722823273,left,1,2,0.729026930683176,D17S02,2022-11-18_10h40.04.704,t1_Paradigm,2021.1.4,59.704921865874,
G,left,Pretarget,0,6,6,6,869.238118778856,871.2380215758603,left,1,2,1.1484742017491953,D17S02,2022-11-18_10h40.04.704,t1_Paradigm,2021.1.4,59.704921865874,
H,left,Pretarget,0,7,7,7,872.7375256160449,874.7379012751335,left,1,2,0.7097104826534633,D17S02,2022-11-18_10h40.04.704,t1_Paradigm,2021.1.4,59.704921865874,
G,right,Target,0,8,8,8,876.2364576663385,878.2366395610443,right,1,2,0.7740925475081895,D17S02,2022-11-18_10h40.04.704,t1_Paradigm,2021.1.4,59.704921865874,
H,right,Target,0,9,9,9,879.7364531751082,881.7362058368017,right,1,2,0.39313605724601075,D17S02,2022-11-18_10h40.04.704,t1_Paradigm,2021.1.4,59.704921865874,
T,left,Pretarget,0,10,10,10,883.2355619872833,885.2356383381411,left,1,2,0.42779357549443375,D17S02,2022-11-18_10h40.04.704,t1_Paradigm,2021.1.4,59.704921865874,
K,left,Distractor,0,11,11,11,886.7346993508254,888.7368705384433,left,1,2,0.6201445020415122,D17S02,2022-11-18_10h40.04.704,t1_Paradigm,2021.1.4,59.704921865874,
T,right,Target,0,12,12,12,890.2341462882614,892.2362805836601,right,1,2,0.6309632271149894,D17S02,2022-11-18_10h40.04.704,t1_Paradigm,2021.1.4,59.704921865874,
T,left,Lure,0,13,13,13,893.7337677419564,895.7337500978465,left,1,2,0.7898083144100383,D17S02,2022-11-18_10h40.04.704,t1_Paradigm,2021.1.4,59.704921865874,
J,left,Distractor,0,14,14,14,897.2331495565886,899.2351311502571,left,1,2,0.6598145508178277,D17S02,2022-11-18_10h40.04.704,t1_Paradigm,2021.1.4,59.704921865874,
Q,left,Pretarget,0,15,15,15,900.7327671606618,902.7345556315558,left,1,2,0.7027336817554897,D17S02,2022-11-18_10h40.04.704,t1_Paradigm,2021.1.4,59.704921865874,
M,left,Distractor,0,16,16,16,904.2323119426874,906.2341475714638,left,1,2,0.6356530308694346,D17S02,2022-11-18_10h40.04.704,t1_Paradigm,2021.1.4,59.704921865874,
Q,right,Target,0,17,17,17,907.7317361031892,909.7315891758917,right,1,2,1.3166029767744476,D17S02,2022-11-18_10h40.04.704,t1_Paradigm,2021.1.4,59.704921865874,
R,left,Distractor,0,18,18,18,911.2307874918042,913.2310338677053,left,1,2,0.9117101695446763,D17S02,2022-11-18_10h40.04.704,t1_Paradigm,2021.1.4,59.704921865874,
W,left,Distractor,0,19,19,19,914.7307249354199,916.7322445742757,left,1,2,0.5936366366076982,D17S02,2022-11-18_10h40.04.704,t1_Paradigm,2021.1.4,59.704921865874,
C,left,Pretarget,0,20,20,20,918.22981963231,920.2308747499337,left,1,2,0.49109614177723415,D17S02,2022-11-18_10h40.04.704,t1_Paradigm,2021.1.4,59.704921865874,
T,left,Distractor,0,21,21,21,921.7293849456619,923.7292020885507,left,1,2,0.8621514005644713,D17S02,2022-11-18_10h40.04.704,t1_Paradigm,2021.1.4,59.704921865874,
C,right,Target,0,22,22,22,925.2287343593052,927.228638118715,right,1,2,0.46494725374213886,D17S02,2022-11-18_10h40.04.704,t1_Paradigm,2021.1.4,59.704921865874,
F,left,Pretarget,0,23,23,23,928.7277488557011,930.7294218378956,left,1,2,0.4861881926917704,D17S02,2022-11-18_10h40.04.704,t1_Paradigm,2021.1.4,59.704921865874,
C,right,Target,0,24,24,24,932.2276875825337,934.2288780785748,right,1,2,0.7864601044275332,D17S02,2022-11-18_10h40.04.704,t1_Paradigm,2021.1.4,59.704921865874,
F,right,Target,0,25,25,25,935.7271643545391,937.7280856977595,left,0,2,0.45927002157259267,D17S02,2022-11-18_10h40.04.704,t1_Paradigm,2021.1.4,59.704921865874,
H,left,Distractor,0,26,26,26,939.2267213270388,941.2277607253782,left,1,2,0.7096065428195288,D17S02,2022-11-18_10h40.04.704,t1_Paradigm,2021.1.4,59.704921865874,
H,left,Lure,0,27,27,27,942.7258054374688,944.7251538887067,left,1,2,1.1749009042832768,D17S02,2022-11-18_10h40.04.704,t1_Paradigm,2021.1.4,59.704921865874,
P,left,Distractor,0,28,28,28,946.2252048962109,948.2244846958201,left,1,2,0.6511946023092605,D17S02,2022-11-18_10h40.04.704,t1_Paradigm,2021.1.4,59.704921865874,
G,left,Pretarget,0,29,29,29,949.7245571970707,951.7260710614792,left,1,2,0.7577425551426131,D17S02,2022-11-18_10h40.04.704,t1_Paradigm,2021.1.4,59.704921865874,
K,left,Distractor,0,30,30,30,953.240404813565,955.2420553396223,left,1,2,0.6169810739665991,D17S02,2022-11-18_10h40.04.704,t1_Paradigm,2021.1.4,59.704921865874,
G,right,Target,0,31,31,31,956.7399768637697,958.7414050740626,right,1,2,0.9660145618399838,D17S02,2022-11-18_10h40.04.704,t1_Paradigm,2021.1.4,59.704921865874,
M,left,Pretarget,0,32,32,32,960.2395723325026,962.2394468989369,left,1,2,1.4508730304369237,D17S02,2022-11-18_10h40.04.704,t1_Paradigm,2021.1.4,59.704921865874,
B,left,Distractor,0,33,33,33,963.7387748188485,965.7390888839582,left,1,2,0.8378682966722408,D17S02,2022-11-18_10h40.04.704,t1_Paradigm,2021.1.4,59.704921865874,
M,right,Target,0,34,34,34,967.2382470996381,969.2387469090754,right,1,2,0.5831890793924686,D17S02,2022-11-18_10h40.04.704,t1_Paradigm,2021.1.4,59.704921865874,
M,left,Lure,0,35,35,35,970.7379817964102,972.737448623564,left,1,2,1.0675981044478249,D17S02,2022-11-18_10h40.04.704,t1_Paradigm,2021.1.4,59.704921865874,
T,left,Distractor,0,36,36,36,974.2370216361742,976.2363344783807,left,1,2,0.8956598062213743,D17S02,2022-11-18_10h40.04.704,t1_Paradigm,2021.1.4,59.704921865874,
F,left,Distractor,0,37,37,37,977.7366835109133,979.7376500871906,left,1,2,0.48008974755066447,D17S02,2022-11-18_10h40.04.704,t1_Paradigm,2021.1.4,59.704921865874,
X,left,Distractor,0,38,38,38,981.2361936463276,983.2358202328469,left,1,2,0.5448259777767817,D17S02,2022-11-18_10h40.04.704,t1_Paradigm,2021.1.4,59.704921865874,
C,left,Distractor,0,39,39,39,984.7353877918213,986.736298548567,left,1,2,0.5009219848143402,D17S02,2022-11-18_10h40.04.704,t1_Paradigm,2021.1.4,59.704921865874,
R,left,Distractor,0,40,40,40,988.2344898671581,990.2370335058367,left,1,2,0.5878265924256993,D17S02,2022-11-18_10h40.04.704,t1_Paradigm,2021.1.4,59.704921865874,
B,left,Pretarget,0,41,41,41,991.7341921629413,993.7330392007134,left,1,2,0.552718347433256,D17S02,2022-11-18_10h40.04.704,t1_Paradigm,2021.1.4,59.704921865874,
H,left,Distractor,0,42,42,42,995.2335701279517,997.2335544086527,left,1,2,0.5786680174642242,D17S02,2022-11-18_10h40.04.704,t1_Paradigm,2021.1.4,59.704921865874,
B,right,Target,0,43,43,43,998.732919541595,1000.7346605337952,right,1,2,0.39615031240100507,D17S02,2022-11-18_10h40.04.704,t1_Paradigm,2021.1.4,59.704921865874,
W,left,Pretarget,0,44,44,44,1002.2324880629603,1004.2334353911283,left,1,2,0.5257164470094722,D17S02,2022-11-18_10h40.04.704,t1_Paradigm,2021.1.4,59.704921865874,
L,left,Pretarget,0,45,45,45,1005.7321261983598,1007.7333336969168,left,1,2,0.515159175512963,D17S02,2022-11-18_10h40.04.704,t1_Paradigm,2021.1.4,59.704921865874,
W,right,Target,0,46,46,46,1009.23149357691,1011.2319516821008,right,1,2,0.7507378445006907,D17S02,2022-11-18_10h40.04.704,t1_Paradigm,2021.1.4,59.704921865874,
L,right,Target,0,47,47,47,1012.7303066096792,1014.7322618975886,right,1,2,0.6055553915939527,D17S02,2022-11-18_10h40.04.704,t1_Paradigm,2021.1.4,59.704921865874,
W,right,Target,0,48,48,48,1016.2302629806072,1018.2315150706418,right,1,2,1.228254760382697,D17S02,2022-11-18_10h40.04.704,t1_Paradigm,2021.1.4,59.704921865874,
X,left,Distractor,0,49,49,49,1019.7295998829795,1021.7291828404414,left,1,2,0.6942041994334431,D17S02,2022-11-18_10h40.04.704,t1_Paradigm,2021.1.4,59.704921865874,
R,left,Distractor,0,50,50,50,1023.2288854570215,1025.2302456573088,left,1,2,0.5522406733216485,D17S02,2022-11-18_10h40.04.704,t1_Paradigm,2021.1.4,59.704921865874,
V,left,Pretarget,0,51,51,51,1026.7283872515836,1028.729761246359,left,1,2,0.7054884081298951,D17S02,2022-11-18_10h40.04.704,t1_Paradigm,2021.1.4,59.704921865874,
Z,left,Distractor,0,52,52,52,1030.2274065600213,1032.2295119832415,left,1,2,0.5157151252933545,D17S02,2022-11-18_10h40.04.704,t1_Paradigm,2021.1.4,59.704921865874,
V,right,Target,0,53,53,53,1033.7273552317056,1035.7273010161734,right,1,2,0.5854192945698742,D17S02,2022-11-18_10h40.04.704,t1_Paradigm,2021.1.4,59.704921865874,
V,left,Lure,0,54,54,54,1037.2266825100087,1039.2254705202213,left,1,2,0.7645371405233163,D17S02,2022-11-18_10h40.04.704,t1_Paradigm,2021.1.4,59.704921865874,
N,left,Distractor,0,55,55,55,1040.7258256479836,1042.726732875919,left,1,2,0.9565239568473771,D17S02,2022-11-18_10h40.04.704,t1_Paradigm,2021.1.4,59.704921865874,
B,left,Distractor,0,56,56,56,1044.2253290465596,1046.2275531665073,left,1,2,0.7904900185676524,D17S02,2022-11-18_10h40.04.704,t1_Paradigm,2021.1.4,59.704921865874,
V,left,Lure,0,57,57,57,1047.74143811666,1049.7429792492476,left,1,2,0.520062312571099,D17S02,2022-11-18_10h40.04.704,t1_Paradigm,2021.1.4,59.704921865874,
J,left,Distractor,0,58,58,58,1051.2408898661233,1053.2407236907165,left,1,2,0.6015347807115177,D17S02,2022-11-18_10h40.04.704,t1_Paradigm,2021.1.4,59.704921865874,
H,left,Distractor,0,59,59,59,1054.7402206732513,1056.740131490311,left,1,2,0.6572664208943024,D17S02,2022-11-18_10h40.04.704,t1_Paradigm,2021.1.4,59.704921865874,
X,left,Pretarget,0,60,60,60,1058.2397128437588,1060.2394975856441,left,1,2,0.7289563542435644,D17S02,2022-11-18_10h40.04.704,t1_Paradigm,2021.1.4,59.704921865874,
P,left,Distractor,0,61,61,61,1061.7393734352954,1063.7407718110044,left,1,2,0.5749666045157937,D17S02,2022-11-18_10h40.04.704,t1_Paradigm,2021.1.4,59.704921865874,
X,right,Target,0,62,62,62,1065.238673445434,1067.240243770997,right,1,2,0.5361078638816252,D17S02,2022-11-18_10h40.04.704,t1_Paradigm,2021.1.4,59.704921865874,
Q,left,Distractor,0,63,63,63,1068.7379917412763,1070.738555390315,left,1,2,0.7273096778226318,D17S02,2022-11-18_10h40.04.704,t1_Paradigm,2021.1.4,59.704921865874,
B,left,Pretarget,0,0,0,0,1086.7763785822317,1088.769583676054,None,0,2,,D17S02,2022-11-18_10h40.04.704,t1_Paradigm,2021.1.4,59.704921865874,
F,left,Distractor,0,1,1,1,1090.267545942057,1092.2679312252003,None,0,2,,D17S02,2022-11-18_10h40.04.704,t1_Paradigm,2021.1.4,59.704921865874,
B,right,Target,0,2,2,2,1093.7671333907347,1095.7689574706455,right,1,2,1.0114349856448825,D17S02,2022-11-18_10h40.04.704,t1_Paradigm,2021.1.4,59.704921865874,
V,left,Distractor,0,3,3,3,1097.2664308344538,1099.2656442280713,left,1,2,0.6131802124291426,D17S02,2022-11-18_10h40.04.704,t1_Paradigm,2021.1.4,59.704921865874,
G,left,Pretarget,0,4,4,4,1100.76594578191,1102.7657334110118,left,1,2,0.5415778579917969,D17S02,2022-11-18_10h40.04.704,t1_Paradigm,2021.1.4,59.704921865874,
B,left,Lure,0,5,5,5,1104.2654568797298,1106.2670750047837,left,1,2,0.5912290179403499,D17S02,2022-11-18_10h40.04.704,t1_Paradigm,2021.1.4,59.704921865874,
G,right,Target,0,6,6,6,1107.764602263327,1109.7659942229948,right,1,2,0.5983180995244766,D17S02,2022-11-18_10h40.04.704,t1_Paradigm,2021.1.4,59.704921865874,
Y,left,Pretarget,0,7,7,7,1111.2642015816818,1113.266236428477,left,1,2,0.5309044562018244,D17S02,2022-11-18_10h40.04.704,t1_Paradigm,2021.1.4,59.704921865874,
P,left,Distractor,0,8,8,8,1114.7633918775537,1116.7641419125284,left,1,2,0.5921769877168117,D17S02,2022-11-18_10h40.04.704,t1_Paradigm,2021.1.4,59.704921865874,
Y,right,Target,0,9,9,9,1118.2628808400477,1120.2628837272641,right,1,2,0.5504121021804167,D17S02,2022-11-18_10h40.04.704,t1_Paradigm,2021.1.4,59.704921865874,
X,left,Distractor,0,10,10,10,1121.7622113263642,1123.774451524907,left,1,2,1.229852354110335,D17S02,2022-11-18_10h40.04.704,t1_Paradigm,2021.1.4,59.704921865874,
Y,right,Target,0,11,11,11,1125.261389752559,1127.2620660030807,right,1,2,0.877473864267813,D17S02,2022-11-18_10h40.04.704,t1_Paradigm,2021.1.4,59.704921865874,
N,left,Distractor,0,12,12,12,1128.761341953068,1130.7629199778748,left,1,2,0.9275667685142253,D17S02,2022-11-18_10h40.04.704,t1_Paradigm,2021.1.4,59.704921865874,
Y,right,Target,0,13,13,13,1132.2608562589157,1134.26101056466,right,1,2,0.6259160499903373,D17S02,2022-11-18_10h40.04.704,t1_Paradigm,2021.1.4,59.704921865874,
Y,left,Lure,0,14,14,14,1135.7599997177022,1137.759593261624,left,1,2,0.910444605833618,D17S02,2022-11-18_10h40.04.704,t1_Paradigm,2021.1.4,59.704921865874,
K,left,Distractor,0,15,15,15,1139.259272780473,1141.2592236977653,left,1,2,0.8924771300225984,D17S02,2022-11-18_10h40.04.704,t1_Paradigm,2021.1.4,59.704921865874,
T,left,Pretarget,0,16,16,16,1142.7588547755295,1144.7593135223142,left,1,2,0.6945179437316256,D17S02,2022-11-18_10h40.04.704,t1_Paradigm,2021.1.4,59.704921865874,
J,left,Distractor,0,17,17,17,1146.2582070763747,1148.2586209108995,left,1,2,0.7334321831003763,D17S02,2022-11-18_10h40.04.704,t1_Paradigm,2021.1.4,59.704921865874,
T,right,Target,0,18,18,18,1149.7576562594331,1151.759437351866,right,1,2,0.7551052422786597,D17S02,2022-11-18_10h40.04.704,t1_Paradigm,2021.1.4,59.704921865874,
S,left,Pretarget,0,19,19,19,1153.257119878559,1155.2581358583411,left,1,2,0.6927718186925631,D17S02,2022-11-18_10h40.04.704,t1_Paradigm,2021.1.4,59.704921865874,
R,left,Distractor,0,20,20,20,1156.7565036180022,1158.7575362794887,left,1,2,0.6177599811053369,D17S02,2022-11-18_10h40.04.704,t1_Paradigm,2021.1.4,59.704921865874,
S,right,Target,0,21,21,21,1160.2558777333907,1162.2580017631262,right,1,2,0.6975706951197935,D17S02,2022-11-18_10h40.04.704,t1_Paradigm,2021.1.4,59.704921865874,
Q,left,Distractor,0,22,22,22,1163.7548142749147,1165.7570156179281,left,1,2,0.6222560204914771,D17S02,2022-11-18_10h40.04.704,t1_Paradigm,2021.1.4,59.704921865874,
D,left,Distractor,0,23,23,23,1167.2546673476318,1169.254746585706,left,1,2,0.6957379535742803,D17S02,2022-11-18_10h40.04.704,t1_Paradigm,2021.1.4,59.704921865874,
F,left,Distractor,0,24,24,24,1170.7541011321737,1172.753332490698,left,1,2,0.6908527814084664,D17S02,2022-11-18_10h40.04.704,t1_Paradigm,2021.1.4,59.704921865874,
Z,left,Distractor,0,25,25,25,1174.2534133327863,1176.2548569415812,left,1,2,0.6381982735765632,D17S02,2022-11-18_10h40.04.704,t1_Paradigm,2021.1.4,59.704921865874,
P,left,Distractor,0,26,26,26,1177.7531862050091,1179.7527223253855,left,1,2,0.6629288961703423,D17S02,2022-11-18_10h40.04.704,t1_Paradigm,2021.1.4,59.704921865874,
H,left,Distractor,0,27,27,27,1181.2521798492817,1183.2522026262159,left,1,2,0.6204335445945617,D17S02,2022-11-18_10h40.04.704,t1_Paradigm,2021.1.4,59.704921865874,
Z,left,Pretarget,0,28,28,28,1184.7517756388115,1186.7528990872524,left,1,2,0.8787358991539804,D17S02,2022-11-18_10h40.04.704,t1_Paradigm,2021.1.4,59.704921865874,
J,left,Pretarget,0,29,29,29,1188.2676951149624,1190.2692009593302,left,1,2,0.9700884258490987,D17S02,2022-11-18_10h40.04.704,t1_Paradigm,2021.1.4,59.704921865874,
Z,right,Target,0,30,30,30,1191.7674413606146,1193.768448037139,right,1,2,0.47159651583933737,D17S02,2022-11-18_10h40.04.704,t1_Paradigm,2021.1.4,59.704921865874,
J,right,Target,0,31,31,31,1195.2670294509007,1197.2687627438572,right,1,2,0.926427600774332,D17S02,2022-11-18_10h40.04.704,t1_Paradigm,2021.1.4,59.704921865874,
V,left,Pretarget,0,32,32,32,1198.7660035262525,1200.7664334008732,left,1,2,0.6574451075721299,D17S02,2022-11-18_10h40.04.704,t1_Paradigm,2021.1.4,59.704921865874,
Z,left,Lure,0,33,33,33,1202.2657709448395,1204.2676739420276,left,1,2,0.9476287602883531,D17S02,2022-11-18_10h40.04.704,t1_Paradigm,2021.1.4,59.704921865874,
V,right,Target,0,34,34,34,1205.7650857118715,1207.7646401179518,right,1,2,0.7488159199856455,D17S02,2022-11-18_10h40.04.704,t1_Paradigm,2021.1.4,59.704921865874,
X,left,Distractor,0,35,35,35,1209.2640472759522,1211.265479656664,left,1,2,0.9006081763509428,D17S02,2022-11-18_10h40.04.704,t1_Paradigm,2021.1.4,59.704921865874,
S,left,Distractor,0,36,36,36,1212.7640947546315,1214.7654706742178,left,1,2,0.5360206057521282,D17S02,2022-11-18_10h40.04.704,t1_Paradigm,2021.1.4,59.704921865874,
Q,left,Distractor,0,37,37,37,1216.2631432560447,1218.2641451205418,left,1,2,0.5964305008237716,D17S02,2022-11-18_10h40.04.704,t1_Paradigm,2021.1.4,59.704921865874,
P,left,Distractor,0,38,38,38,1219.7624548150488,1221.7615713264677,left,1,2,0.7276308005821193,D17S02,2022-11-18_10h40.04.704,t1_Paradigm,2021.1.4,59.704921865874,
S,left,Lure,0,39,39,39,1223.2619819529646,1225.2741534998931,left,1,2,0.9493315770523623,D17S02,2022-11-18_10h40.04.704,t1_Paradigm,2021.1.4,59.704921865874,
K,left,Pretarget,0,40,40,40,1226.7612319180043,1228.7614378728613,left,1,2,1.0007619046518812,D17S02,2022-11-18_10h40.04.704,t1_Paradigm,2021.1.4,59.704921865874,
L,left,Distractor,0,41,41,41,1230.2610134518764,1232.2729591542156,left,1,2,0.9424288814188913,D17S02,2022-11-18_10h40.04.704,t1_Paradigm,2021.1.4,59.704921865874,
K,right,Target,0,42,42,42,1233.760088579831,1235.7616133515257,right,1,2,0.6462690091138938,D17S02,2022-11-18_10h40.04.704,t1_Paradigm,2021.1.4,59.704921865874,
B,left,Distractor,0,43,43,43,1237.2598226350237,1239.259083186509,left,1,2,0.5689714576146798,D17S02,2022-11-18_10h40.04.704,t1_Paradigm,2021.1.4,59.704921865874,
N,left,Distractor,0,44,44,44,1240.7592195273464,1242.759610905734,left,1,2,0.949476900335867,D17S02,2022-11-18_10h40.04.704,t1_Paradigm,2021.1.4,59.704921865874,
S,left,Pretarget,0,45,45,45,1244.258648179064,1246.2583373219677,left,1,2,0.7329702283022925,D17S02,2022-11-18_10h40.04.704,t1_Paradigm,2021.1.4,59.704921865874,
Z,left,Distractor,0,46,46,46,1247.7577691817132,1249.7592143945076,left,1,2,0.5749714165431214,D17S02,2022-11-18_10h40.04.704,t1_Paradigm,2021.1.4,59.704921865874,
S,right,Target,0,47,47,47,1251.2571843597543,1253.2567480690923,right,1,2,0.47321560328418855,D17S02,2022-11-18_10h40.04.704,t1_Paradigm,2021.1.4,59.704921865874,
C,left,Distractor,0,48,48,48,1254.7566906455468,1256.7581637681142,left,1,2,0.575415406448883,D17S02,2022-11-18_10h40.04.704,t1_Paradigm,2021.1.4,59.704921865874,
T,left,Pretarget,0,49,49,49,1258.2560990867496,1260.2568340440193,left,1,2,0.7786655793606769,D17S02,2022-11-18_10h40.04.704,t1_Paradigm,2021.1.4,59.704921865874,
S,left,Lure,0,50,50,50,1261.7557455629867,1263.7573906354082,left,1,2,0.8697572940727696,D17S02,2022-11-18_10h40.04.704,t1_Paradigm,2021.1.4,59.704921865874,
T,right,Target,0,51,51,51,1265.2551225655916,1267.2564798786625,left,0,2,0.7217745609086705,D17S02,2022-11-18_10h40.04.704,t1_Paradigm,2021.1.4,59.704921865874,
N,left,Pretarget,0,52,52,52,1268.7542262449424,1270.7558161394263,left,1,2,0.7366174257040257,D17S02,2022-11-18_10h40.04.704,t1_Paradigm,2021.1.4,59.704921865874,
B,left,Distractor,0,53,53,53,1272.2538059943763,1274.2531242902332,left,1,2,0.7781394641497172,D17S02,2022-11-18_10h40.04.704,t1_Paradigm,2021.1.4,59.704921865874,
N,right,Target,0,54,54,54,1275.753089964419,1277.7531505959923,right,1,2,1.0372143098211382,D17S02,2022-11-18_10h40.04.704,t1_Paradigm,2021.1.4,59.704921865874,
N,left,Lure,0,55,55,55,1279.2686427639273,1281.2689574706455,left,1,2,1.0112165195168927,D17S02,2022-11-18_10h40.04.704,t1_Paradigm,2021.1.4,59.704921865874,
X,left,Distractor,0,56,56,56,1282.768493911819,1284.7701171697117,left,1,2,0.820844941015821,D17S02,2022-11-18_10h40.04.704,t1_Paradigm,2021.1.4,59.704921865874,
W,left,Distractor,0,57,57,57,1286.268100608635,1288.2679738918523,left,1,2,0.6781146982539212,D17S02,2022-11-18_10h40.04.704,t1_Paradigm,2021.1.4,59.704921865874,
S,left,Distractor,0,58,58,58,1289.767460287927,1291.7674997465656,left,1,2,0.6274449920892948,D17S02,2022-11-18_10h40.04.704,t1_Paradigm,2021.1.4,59.704921865874,
L,left,Distractor,0,59,59,59,1293.2667987942987,1295.2672424634075,left,1,2,0.7846013779053465,D17S02,2022-11-18_10h40.04.704,t1_Paradigm,2021.1.4,59.704921865874,
K,left,Pretarget,0,60,60,60,1296.7661931202165,1298.7674907641194,left,1,2,0.8439474937040359,D17S02,2022-11-18_10h40.04.704,t1_Paradigm,2021.1.4,59.704921865874,
V,left,Pretarget,0,61,61,61,1300.2660978420317,1302.2671860022529,left,1,2,0.9192660179687664,D17S02,2022-11-18_10h40.04.704,t1_Paradigm,2021.1.4,59.704921865874,
K,right,Target,0,62,62,62,1303.7653429950296,1305.7668424233707,right,1,2,0.6770300668431446,D17S02,2022-11-18_10h40.04.704,t1_Paradigm,2021.1.4,59.704921865874,
V,right,Target,0,63,63,63,1307.2647106943914,1309.2644957570737,left,0,2,1.4153650662046857,D17S02,2022-11-18_10h40.04.704,t1_Paradigm,2021.1.4,59.704921865874,
R,left,Distractor,0,0,0,0,1420.9872115509206,1422.9802870407584,None,0,3,,D17S02,2022-11-18_10h40.04.704,t1_Paradigm,2021.1.4,59.704921865874,
P,left,Lure,0,1,1,1,1424.4785049859056,1426.4796178478864,None,0,3,,D17S02,2022-11-18_10h40.04.704,t1_Paradigm,2021.1.4,59.704921865874,
V,left,Distractor,0,2,2,2,1427.9778133368964,1429.9776093068504,None,0,3,,D17S02,2022-11-18_10h40.04.704,t1_Paradigm,2021.1.4,59.704921865874,
P,left,Pretarget,0,3,3,3,1431.4772923545243,1433.4785861488053,left,1,3,0.9815545292658499,D17S02,2022-11-18_10h40.04.704,t1_Paradigm,2021.1.4,59.704921865874,
Z,left,Distractor,0,4,4,4,1434.9763758233457,1436.977664805585,left,1,3,0.7975720424874453,D17S02,2022-11-18_10h40.04.704,t1_Paradigm,2021.1.4,59.704921865874,
L,left,Pretarget,0,5,5,5,1438.4751394526102,1440.478171351875,left,1,3,1.3372594145766925,D17S02,2022-11-18_10h40.04.704,t1_Paradigm,2021.1.4,59.704921865874,
P,right,Target,0,6,6,6,1441.9755869713408,1443.9752135578601,right,1,3,0.8530194521445083,D17S02,2022-11-18_10h40.04.704,t1_Paradigm,2021.1.4,59.704921865874,
S,left,Distractor,0,7,7,7,1445.4747185604501,1447.4765365451167,left,1,3,0.6786623071820941,D17S02,2022-11-18_10h40.04.704,t1_Paradigm,2021.1.4,59.704921865874,
L,right,Target,0,8,8,8,1448.9743368061172,1450.974053537997,right,1,3,1.2337398321833462,D17S02,2022-11-18_10h40.04.704,t1_Paradigm,2021.1.4,59.704921865874,
D,left,Distractor,0,9,9,9,1452.4739784703415,1454.474544685785,left,1,3,0.8727545467263553,D17S02,2022-11-18_10h40.04.704,t1_Paradigm,2021.1.4,59.704921865874,
G,left,Distractor,0,10,10,10,1455.9730051572114,1457.9721091573592,left,1,3,0.8241572211845778,D17S02,2022-11-18_10h40.04.704,t1_Paradigm,2021.1.4,59.704921865874,
M,left,Pretarget,0,11,11,11,1459.472417768833,1461.4731434228597,left,1,3,1.1802538056799676,D17S02,2022-11-18_10h40.04.704,t1_Paradigm,2021.1.4,59.704921865874,
Y,left,Distractor,0,12,12,12,1462.9716590722237,1464.9716754331166,left,1,3,0.6821478204074083,D17S02,2022-11-18_10h40.04.704,t1_Paradigm,2021.1.4,59.704921865874,
V,left,Distractor,0,13,13,13,1466.4710033530282,1468.4711454682838,left,1,3,1.019259666078142,D17S02,2022-11-18_10h40.04.704,t1_Paradigm,2021.1.4,59.704921865874,
M,right,Target,0,14,14,14,1469.9706049170054,1471.9705256789166,right,1,3,1.1161912595562171,D17S02,2022-11-18_10h40.04.704,t1_Paradigm,2021.1.4,59.704921865874,
S,left,Pretarget,0,15,15,15,1473.4702427315933,1475.4821281231707,left,1,3,0.8574099476827541,D17S02,2022-11-18_10h40.04.704,t1_Paradigm,2021.1.4,59.704921865874,
Q,left,Distractor,0,16,16,16,1476.969496546255,1478.9693586014037,left,1,3,1.0435013865062501,D17S02,2022-11-18_10h40.04.704,t1_Paradigm,2021.1.4,59.704921865874,
R,left,Pretarget,0,17,17,17,1480.4691956340102,1482.470700836784,left,1,3,0.608206819742918,D17S02,2022-11-18_10h40.04.704,t1_Paradigm,2021.1.4,59.704921865874,
S,right,Target,0,18,18,18,1483.9684982105682,1485.9805792913394,None,0,3,,D17S02,2022-11-18_10h40.04.704,t1_Paradigm,2021.1.4,59.704921865874,
F,left,Distractor,0,19,19,19,1487.4677661405149,1489.4676342909079,left,1,3,1.1661949808476493,D17S02,2022-11-18_10h40.04.704,t1_Paradigm,2021.1.4,59.704921865874,
R,right,Target,0,20,20,20,1490.9672894288087,1492.967818431236,left,0,3,1.1513309431466041,D17S02,2022-11-18_10h40.04.704,t1_Paradigm,2021.1.4,59.704921865874,
P,left,Distractor,0,21,21,21,1494.4665868725278,1496.4667248173646,left,1,3,0.7795067220868077,D17S02,2022-11-18_10h40.04.704,t1_Paradigm,2021.1.4,59.704921865874,
L,left,Distractor,0,22,22,22,1497.9660386219912,1499.967265689469,left,1,3,0.7931616572313942,D17S02,2022-11-18_10h40.04.704,t1_Paradigm,2021.1.4,59.704921865874,
R,right,Target,0,23,23,23,1501.4651718151144,1503.4675338798988,right,1,3,1.0843205478740856,D17S02,2022-11-18_10h40.04.704,t1_Paradigm,2021.1.4,59.704921865874,
H,left,Pretarget,0,24,24,24,1504.9645337400289,1506.9645876347495,left,1,3,0.726804735546466,D17S02,2022-11-18_10h40.04.704,t1_Paradigm,2021.1.4,59.704921865874,
G,left,Pretarget,0,25,25,25,1508.464195614768,1510.4659224916832,left,1,3,0.8048433395742904,D17S02,2022-11-18_10h40.04.704,t1_Paradigm,2021.1.4,59.704921865874,
T,left,Distractor,0,26,26,26,1511.963494662501,1513.9643499205122,left,1,3,0.9672573486168403,D17S02,2022-11-18_10h40.04.704,t1_Paradigm,2021.1.4,59.704921865874,
H,right,Target,0,27,27,27,1515.4632652891014,1517.4639232539048,right,1,3,1.3044628684583586,D17S02,2022-11-18_10h40.04.704,t1_Paradigm,2021.1.4,59.704921865874,
G,right,Target,0,28,28,28,1518.979000624924,1520.9792617577186,right,1,3,1.2055259419721551,D17S02,2022-11-18_10h40.04.704,t1_Paradigm,2021.1.4,59.704921865874,
D,left,Distractor,0,29,29,29,1522.478409066127,1524.4790914118785,left,1,3,0.6041579782759072,D17S02,2022-11-18_10h40.04.704,t1_Paradigm,2021.1.4,59.704921865874,
N,left,Pretarget,0,30,30,30,1525.9776850161143,1527.977722229145,left,1,3,0.6360007801849861,D17S02,2022-11-18_10h40.04.704,t1_Paradigm,2021.1.4,59.704921865874,
V,left,Distractor,0,31,31,31,1529.4774803444743,1531.4775226903294,left,1,3,0.6956545450666454,D17S02,2022-11-18_10h40.04.704,t1_Paradigm,2021.1.4,59.704921865874,
R,left,Distractor,0,32,32,32,1532.9768486854155,1534.9768384197523,left,1,3,0.5924105315498309,D17S02,2022-11-18_10h40.04.704,t1_Paradigm,2021.1.4,59.704921865874,
N,right,Target,0,33,33,33,1536.4764098283486,1538.4785871112108,right,1,3,1.0945583006250672,D17S02,2022-11-18_10h40.04.704,t1_Paradigm,2021.1.4,59.704921865874,
Z,left,Distractor,0,34,34,34,1539.9757197833387,1541.9771627505397,left,1,3,1.1918851221125806,D17S02,2022-11-18_10h40.04.704,t1_Paradigm,2021.1.4,59.704921865874,
N,left,Lure,0,35,35,35,1543.4751686455857,1545.476947813222,left,1,3,1.1659036926866975,D17S02,2022-11-18_10h40.04.704,t1_Paradigm,2021.1.4,59.704921865874,
Y,left,Pretarget,0,36,36,36,1546.974606600561,1548.975667813429,left,1,3,1.0105024143558694,D17S02,2022-11-18_10h40.04.704,t1_Paradigm,2021.1.4,59.704921865874,
Y,left,Lure,0,37,37,37,1550.4737016182626,1552.4732249065564,left,1,3,1.145381670910865,D17S02,2022-11-18_10h40.04.704,t1_Paradigm,2021.1.4,59.704921865874,
B,left,Distractor,0,38,38,38,1553.973282330102,1555.974414440192,left,1,3,0.6450448288669577,D17S02,2022-11-18_10h40.04.704,t1_Paradigm,2021.1.4,59.704921865874,
Y,right,Target,0,39,39,39,1557.472653558274,1559.4730895281245,right,1,3,0.5138272058102302,D17S02,2022-11-18_10h40.04.704,t1_Paradigm,2021.1.4,59.704921865874,
J,left,Distractor,0,40,40,40,1560.9721351423213,1562.9718942200561,left,1,3,0.5780684386118082,D17S02,2022-11-18_10h40.04.704,t1_Paradigm,2021.1.4,59.704921865874,
X,left,Distractor,0,41,41,41,1564.471311964502,1566.4712288767914,left,1,3,0.6423924383125268,D17S02,2022-11-18_10h40.04.704,t1_Paradigm,2021.1.4,59.704921865874,
W,left,Pretarget,0,42,42,42,1567.971037037234,1569.9707614683575,left,1,3,0.8531073518824996,D17S02,2022-11-18_10h40.04.704,t1_Paradigm,2021.1.4,59.704921865874,
S,left,Pretarget,0,43,43,43,1571.4695722555043,1573.4692684560578,left,1,3,0.8403583614417585,D17S02,2022-11-18_10h40.04.704,t1_Paradigm,2021.1.4,59.704921865874,
R,left,Distractor,0,44,44,44,1574.9698035537149,1576.9695895788172,left,1,3,0.7079428638971876,D17S02,2022-11-18_10h40.04.704,t1_Paradigm,2021.1.4,59.704921865874,
W,right,Target,0,45,45,45,1578.4688305613963,1580.469114471125,right,1,3,0.8859019731899025,D17S02,2022-11-18_10h40.04.704,t1_Paradigm,2021.1.4,59.704921865874,
S,right,Target,0,46,46,46,1581.968443995036,1583.9683692481776,right,1,3,1.2233865907328436,D17S02,2022-11-18_10h40.04.704,t1_Paradigm,2021.1.4,59.704921865874,
D,left,Distractor,0,47,47,47,1585.4679749825882,1587.4673481355712,left,1,3,0.9982266067963792,D17S02,2022-11-18_10h40.04.704,t1_Paradigm,2021.1.4,59.704921865874,
T,left,Distractor,0,48,48,48,1588.9674187119963,1590.966814962725,left,1,3,0.6790495151362848,D17S02,2022-11-18_10h40.04.704,t1_Paradigm,2021.1.4,59.704921865874,
S,right,Target,0,49,49,49,1592.4669092784898,1594.4666199151252,right,1,3,1.0683038687420776,D17S02,2022-11-18_10h40.04.704,t1_Paradigm,2021.1.4,59.704921865874,
K,left,Distractor,0,50,50,50,1595.9662124966562,1597.966711022891,left,1,3,0.8870315168751404,D17S02,2022-11-18_10h40.04.704,t1_Paradigm,2021.1.4,59.704921865874,
S,left,Lure,0,51,51,51,1599.4656722661603,1601.4663549327233,left,1,3,1.244625604871544,D17S02,2022-11-18_10h40.04.704,t1_Paradigm,2021.1.4,59.704921865874,
T,left,Pretarget,0,52,52,52,1602.9644172889239,1604.9656427523878,left,1,3,0.990439460190828,D17S02,2022-11-18_10h40.04.704,t1_Paradigm,2021.1.4,59.704921865874,
V,left,Distractor,0,53,53,53,1606.464311745076,1608.4665310529963,left,1,3,0.934620241067023,D17S02,2022-11-18_10h40.04.704,t1_Paradigm,2021.1.4,59.704921865874,
B,left,Distractor,0,54,54,54,1609.9631510836043,1611.9640506122814,left,1,3,0.7235838839405915,D17S02,2022-11-18_10h40.04.704,t1_Paradigm,2021.1.4,59.704921865874,
T,right,Target,0,55,55,55,1613.4633249582694,1615.4752838134882,right,1,3,0.9020543515507597,D17S02,2022-11-18_10h40.04.704,t1_Paradigm,2021.1.4,59.704921865874,
Y,left,Pretarget,0,56,56,56,1616.979160705101,1618.9809738777403,left,1,3,0.8700806624401594,D17S02,2022-11-18_10h40.04.704,t1_Paradigm,2021.1.4,59.704921865874,
T,left,Lure,0,57,57,57,1620.478824825448,1622.4803826397401,left,1,3,1.0605404614761937,D17S02,2022-11-18_10h40.04.704,t1_Paradigm,2021.1.4,59.704921865874,
P,left,Pretarget,0,58,58,58,1623.97827721652,1625.9780122341035,left,1,3,1.2120257103524636,D17S02,2022-11-18_10h40.04.704,t1_Paradigm,2021.1.4,59.704921865874,
Y,right,Target,0,59,59,59,1627.4770758132072,1629.4768551014567,right,1,3,0.9419544153206516,D17S02,2022-11-18_10h40.04.704,t1_Paradigm,2021.1.4,59.704921865874,
R,left,Distractor,0,60,60,60,1630.977065868341,1632.9773924447363,left,1,3,0.9966177850001259,D17S02,2022-11-18_10h40.04.704,t1_Paradigm,2021.1.4,59.704921865874,
P,right,Target,0,61,61,61,1634.4760421893152,1636.4785104395414,left,0,3,0.7938440029975027,D17S02,2022-11-18_10h40.04.704,t1_Paradigm,2021.1.4,59.704921865874,
L,left,Distractor,0,62,62,62,1637.9759238133847,1639.9752068210219,left,1,3,0.5998871418705676,D17S02,2022-11-18_10h40.04.704,t1_Paradigm,2021.1.4,59.704921865874,
V,left,Distractor,0,63,63,63,1641.4748869814794,1643.4750197934773,left,1,3,0.671056734470767,D17S02,2022-11-18_10h40.04.704,t1_Paradigm,2021.1.4,59.704921865874,
H,left,Lure,0,0,0,0,1649.8433440652298,1651.8403718351328,left,1,3,0.6644693871494383,D17S02,2022-11-18_10h40.04.704,t1_Paradigm,2021.1.4,59.704921865874,
B,left,Distractor,0,1,1,1,1653.3397616698203,1655.341183143275,left,1,3,0.5231064022955252,D17S02,2022-11-18_10h40.04.704,t1_Paradigm,2021.1.4,59.704921865874,
T,left,Distractor,0,2,2,2,1656.838837760195,1658.8399227124028,None,0,3,,D17S02,2022-11-18_10h40.04.704,t1_Paradigm,2021.1.4,59.704921865874,
R,left,Distractor,0,3,3,3,1660.3386818504368,1662.338996877952,left,1,3,0.7662848695617868,D17S02,2022-11-18_10h40.04.704,t1_Paradigm,2021.1.4,59.704921865874,
H,left,Pretarget,0,4,4,4,1663.8380893292342,1665.839218231311,left,1,3,1.220868295407854,D17S02,2022-11-18_10h40.04.704,t1_Paradigm,2021.1.4,59.704921865874,
K,left,Distractor,0,5,5,5,1667.3373575799778,1669.3389076950116,left,1,3,0.6891092227888294,D17S02,2022-11-18_10h40.04.704,t1_Paradigm,2021.1.4,59.704921865874,
G,left,Distractor,0,6,6,6,1670.8369164772885,1672.8367300913524,left,1,3,0.5382062294665957,D17S02,2022-11-18_10h40.04.704,t1_Paradigm,2021.1.4,59.704921865874,
H,right,Target,0,7,7,7,1674.335954392227,1676.338251975816,right,1,3,0.7712726983445464,D17S02,2022-11-18_10h40.04.704,t1_Paradigm,2021.1.4,59.704921865874,
Y,left,Pretarget,0,8,8,8,1677.835239645472,1679.835922632832,left,1,3,0.571698915809975,D17S02,2022-11-18_10h40.04.704,t1_Paradigm,2021.1.4,59.704921865874,
S,left,Distractor,0,9,9,9,1681.3351658610336,1683.334982362314,left,1,3,0.5872632641985547,D17S02,2022-11-18_10h40.04.704,t1_Paradigm,2021.1.4,59.704921865874,
P,left,Distractor,0,10,10,10,1684.8347808986873,1686.8343750842178,left,1,3,0.6068677923758514,D17S02,2022-11-18_10h40.04.704,t1_Paradigm,2021.1.4,59.704921865874,
Y,right,Target,0,11,11,11,1688.3341248586948,1690.333346913947,right,1,3,0.606162669690093,D17S02,2022-11-18_10h40.04.704,t1_Paradigm,2021.1.4,59.704921865874,
H,left,Lure,0,12,12,12,1691.8335721169278,1693.8330995756405,left,1,3,0.694221843543346,D17S02,2022-11-18_10h40.04.704,t1_Paradigm,2021.1.4,59.704921865874,
Q,left,Distractor,0,13,13,13,1695.3329192849487,1697.33428012683,left,1,3,0.7815665914386045,D17S02,2022-11-18_10h40.04.704,t1_Paradigm,2021.1.4,59.704921865874,
V,left,Pretarget,0,14,14,14,1698.832238864008,1700.832389320116,left,1,3,0.5658102751622209,D17S02,2022-11-18_10h40.04.704,t1_Paradigm,2021.1.4,59.704921865874,
G,left,Distractor,0,15,15,15,1702.3321868940839,1704.3322959667566,left,1,3,0.832634733611485,D17S02,2022-11-18_10h40.04.704,t1_Paradigm,2021.1.4,59.704921865874,
Z,left,Pretarget,0,16,16,16,1705.8309514857683,1707.8325619115785,left,1,3,0.700325421494199,D17S02,2022-11-18_10h40.04.704,t1_Paradigm,2021.1.4,59.704921865874,
V,right,Target,0,17,17,17,1709.3304600171687,1711.3311410797178,right,1,3,0.8873770205682376,D17S02,2022-11-18_10h40.04.704,t1_Paradigm,2021.1.4,59.704921865874,
N,left,Distractor,0,18,18,18,1712.8299403180135,1714.829751365658,left,1,3,0.6341943443840137,D17S02,2022-11-18_10h40.04.704,t1_Paradigm,2021.1.4,59.704921865874,
Z,right,Target,0,19,19,19,1716.3290763983532,1718.3290148043743,left,0,3,0.8250622034975095,D17S02,2022-11-18_10h40.04.704,t1_Paradigm,2021.1.4,59.704921865874,
R,left,Distractor,0,20,20,20,1719.8286962480342,1721.828967967289,left,1,3,0.8678234998951666,D17S02,2022-11-18_10h40.04.704,t1_Paradigm,2021.1.4,59.704921865874,
P,left,Distractor,0,21,21,21,1723.3281200877245,1725.3300564483216,left,1,3,0.9216575965256197,D17S02,2022-11-18_10h40.04.704,t1_Paradigm,2021.1.4,59.704921865874,
Z,right,Target,0,22,22,22,1726.8274326091341,1728.8293766689749,right,1,3,0.6066836520622019,D17S02,2022-11-18_10h40.04.704,t1_Paradigm,2021.1.4,59.704921865874,
D,left,Pretarget,0,23,23,23,1730.3268805089756,1732.3269491605897,left,1,3,0.709176347401808,D17S02,2022-11-18_10h40.04.704,t1_Paradigm,2021.1.4,59.704921865874,
K,left,Distractor,0,24,24,24,1733.8264246493927,1735.8261413812725,left,1,3,0.7206116538291099,D17S02,2022-11-18_10h40.04.704,t1_Paradigm,2021.1.4,59.704921865874,
W,left,Distractor,0,25,25,25,1737.325687767312,1739.3259328600107,left,1,3,0.6660689056880074,D17S02,2022-11-18_10h40.04.704,t1_Paradigm,2021.1.4,59.704921865874,
D,right,Target,0,26,26,26,1740.8253538124845,1742.8258632459765,left,0,3,1.202830563954194,D17S02,2022-11-18_10h40.04.704,t1_Paradigm,2021.1.4,59.704921865874,
G,left,Pretarget,0,27,27,27,1744.3410461608437,1746.3430906316935,left,1,3,0.7841323654429289,D17S02,2022-11-18_10h40.04.704,t1_Paradigm,2021.1.4,59.704921865874,
V,left,Distractor,0,28,28,28,1747.8406785217958,1749.840496947887,left,1,3,0.6829539957252564,D17S02,2022-11-18_10h40.04.704,t1_Paradigm,2021.1.4,59.704921865874,
D,right,Target,0,29,29,29,1751.340032105858,1753.3410484064516,right,1,3,0.8150913579884218,D17S02,2022-11-18_10h40.04.704,t1_Paradigm,2021.1.4,59.704921865874,
G,right,Target,0,30,30,30,1754.839301319007,1756.8405729779624,right,1,3,1.1602322349499445,D17S02,2022-11-18_10h40.04.704,t1_Paradigm,2021.1.4,59.704921865874,
B,left,Pretarget,0,31,31,31,1758.338855725102,1760.3387790534325,left,1,3,1.160187001878512,D17S02,2022-11-18_10h40.04.704,t1_Paradigm,2021.1.4,59.704921865874,
N,left,Distractor,0,32,32,32,1761.838428096089,1763.8384059607633,left,1,3,0.77555604603549,D17S02,2022-11-18_10h40.04.704,t1_Paradigm,2021.1.4,59.704921865874,
F,left,Distractor,0,33,33,33,1765.337688326792,1767.3385747025895,left,1,3,0.8309274256171193,D17S02,2022-11-18_10h40.04.704,t1_Paradigm,2021.1.4,59.704921865874,
B,right,Target,0,34,34,34,1768.837294381985,1770.836928026154,right,1,3,1.2955625390604837,D17S02,2022-11-18_10h40.04.704,t1_Paradigm,2021.1.4,59.704921865874,
Q,left,Pretarget,0,35,35,35,1772.3364756954106,1774.3362591540936,left,1,3,0.6870406918023946,D17S02,2022-11-18_10h40.04.704,t1_Paradigm,2021.1.4,59.704921865874,
S,left,Pretarget,0,36,36,36,1775.8359800563921,1777.8367403570155,left,1,3,0.5545052143133944,D17S02,2022-11-18_10h40.04.704,t1_Paradigm,2021.1.4,59.704921865874,
W,left,Distractor,0,37,37,37,1779.3353208083718,1781.33659727934,left,1,3,0.6386839677288663,D17S02,2022-11-18_10h40.04.704,t1_Paradigm,2021.1.4,59.704921865874,
Q,right,Target,0,38,38,38,1782.8343211894826,1784.8364160262427,left,0,3,0.9060887569212355,D17S02,2022-11-18_10h40.04.704,t1_Paradigm,2021.1.4,59.704921865874,
S,right,Target,0,39,39,39,1786.3341364075604,1788.3339365479478,None,0,3,,D17S02,2022-11-18_10h40.04.704,t1_Paradigm,2021.1.4,59.704921865874,
T,left,Distractor,0,40,40,40,1789.8332096107188,1791.833116257345,left,1,3,0.7916493968368741,D17S02,2022-11-18_10h40.04.704,t1_Paradigm,2021.1.4,59.704921865874,
G,left,Distractor,0,41,41,41,1793.3324881271255,1795.3321467938367,left,1,3,0.6684816571942065,D17S02,2022-11-18_10h40.04.704,t1_Paradigm,2021.1.4,59.704921865874,
D,left,Distractor,0,42,42,42,1796.8322805682546,1798.8328057210601,left,1,3,0.6825173842516961,D17S02,2022-11-18_10h40.04.704,t1_Paradigm,2021.1.4,59.704921865874,
S,left,Lure,0,43,43,43,1800.3318757161906,1802.3336978712905,left,1,3,0.8101307973702205,D17S02,2022-11-18_10h40.04.704,t1_Paradigm,2021.1.4,59.704921865874,
Z,left,Pretarget,0,44,44,44,1803.8314609192603,1805.8309376912803,left,1,3,0.6232213135663187,D17S02,2022-11-18_10h40.04.704,t1_Paradigm,2021.1.4,59.704921865874,
J,left,Distractor,0,45,45,45,1807.3307054306642,1809.3313207288156,left,1,3,0.6908033779182006,D17S02,2022-11-18_10h40.04.704,t1_Paradigm,2021.1.4,59.704921865874,
M,left,Pretarget,0,46,46,46,1810.8302267941472,1812.8298350949626,left,1,3,0.657763663912192,D17S02,2022-11-18_10h40.04.704,t1_Paradigm,2021.1.4,59.704921865874,
Z,right,Target,0,47,47,47,1814.3297064533836,1816.3294100323837,right,1,3,1.0599745668296237,D17S02,2022-11-18_10h40.04.704,t1_Paradigm,2021.1.4,59.704921865874,
P,left,Distractor,0,48,48,48,1817.8288964284438,1819.8289763081411,left,1,3,0.5853981216350803,D17S02,2022-11-18_10h40.04.704,t1_Paradigm,2021.1.4,59.704921865874,
M,right,Target,0,49,49,49,1821.328351706732,1823.3281816817034,right,1,3,1.1673059180175187,D17S02,2022-11-18_10h40.04.704,t1_Paradigm,2021.1.4,59.704921865874,
K,left,Distractor,0,50,50,50,1824.8276632657362,1826.8280584937456,left,1,3,0.7500651228037896,D17S02,2022-11-18_10h40.04.704,t1_Paradigm,2021.1.4,59.704921865874,
Y,left,Distractor,0,51,51,51,1828.3273524086544,1830.3262786845153,left,1,3,1.3007268088986166,D17S02,2022-11-18_10h40.04.704,t1_Paradigm,2021.1.4,59.704921865874,
X,left,Distractor,0,52,52,52,1831.8263948148233,1833.8277081780107,left,1,3,0.9080193430709187,D17S02,2022-11-18_10h40.04.704,t1_Paradigm,2021.1.4,59.704921865874,
F,left,Pretarget,0,53,53,53,1835.3260108148825,1837.3250535418483,left,1,3,0.6443502926413203,D17S02,2022-11-18_10h40.04.704,t1_Paradigm,2021.1.4,59.704921865874,
M,left,Lure,0,54,54,54,1838.82535477489,1840.8272706041462,left,1,3,1.1789106078940677,D17S02,2022-11-18_10h40.04.704,t1_Paradigm,2021.1.4,59.704921865874,
V,left,Distractor,0,55,55,55,1842.3414333687979,1844.342973859777,left,1,3,0.6393512357899453,D17S02,2022-11-18_10h40.04.704,t1_Paradigm,2021.1.4,59.704921865874,
F,right,Target,0,56,56,56,1845.8408844766527,1847.8406336095213,right,1,3,0.8843759182927897,D17S02,2022-11-18_10h40.04.704,t1_Paradigm,2021.1.4,59.704921865874,
S,left,Distractor,0,57,57,57,1849.3399910432054,1851.3415543111332,left,1,3,0.8085720206727274,D17S02,2022-11-18_10h40.04.704,t1_Paradigm,2021.1.4,59.704921865874,
D,left,Distractor,0,58,58,58,1852.8393561761477,1854.8399974592467,left,1,3,0.7593946851993678,D17S02,2022-11-18_10h40.04.704,t1_Paradigm,2021.1.4,59.704921865874,
F,right,Target,0,59,59,59,1856.3391062714218,1858.338736386766,left,0,3,1.0606893135700375,D17S02,2022-11-18_10h40.04.704,t1_Paradigm,2021.1.4,59.704921865874,
V,left,Pretarget,0,60,60,60,1859.8384932188928,1861.840046221143,left,1,3,1.3554392612859374,D17S02,2022-11-18_10h40.04.704,t1_Paradigm,2021.1.4,59.704921865874,
J,left,Distractor,0,61,61,61,1863.3379305322596,1865.3377402967017,None,0,3,,D17S02,2022-11-18_10h40.04.704,t1_Paradigm,2021.1.4,59.704921865874,
V,left,Lure,0,62,62,62,1866.8375365874672,1868.8372853995388,left,1,3,1.2037082781025674,D17S02,2022-11-18_10h40.04.704,t1_Paradigm,2021.1.4,59.704921865874,
V,right,Target,0,63,63,63,1870.3367766076408,1872.3366806878475,left,0,3,0.7297461686539464,D17S02,2022-11-18_10h40.04.704,t1_Paradigm,2021.1.4,59.704921865874,
R,left,Distractor,0,0,0,0,1980.5514745982655,1982.5516070894664,None,0,4,,D17S02,2022-11-18_10h40.04.704,t1_Paradigm,2021.1.4,59.704921865874,
F,left,Distractor,0,1,1,1,1984.0507232800883,1986.0506581572845,None,0,4,,D17S02,2022-11-18_10h40.04.704,t1_Paradigm,2021.1.4,59.704921865874,
P,left,Pretarget,0,2,2,2,1987.5506664981367,1989.550232773894,None,0,4,,D17S02,2022-11-18_10h40.04.704,t1_Paradigm,2021.1.4,59.704921865874,
H,left,Distractor,0,3,3,3,1991.0497846135695,1993.0496986386424,None,0,4,,D17S02,2022-11-18_10h40.04.704,t1_Paradigm,2021.1.4,59.704921865874,
Z,left,Distractor,0,4,4,4,1994.5491471800924,1996.5493175259326,left,1,4,0.6381912159413332,D17S02,2022-11-18_10h40.04.704,t1_Paradigm,2021.1.4,59.704921865874,
T,left,Distractor,0,5,5,5,1998.0484978769382,2000.0474741978978,left,1,4,0.6838172737770947,D17S02,2022-11-18_10h40.04.704,t1_Paradigm,2021.1.4,59.704921865874,
P,right,Target,0,6,6,6,2001.54823963136,2003.5502549092344,right,1,4,0.8335583224252332,D17S02,2022-11-18_10h40.04.704,t1_Paradigm,2021.1.4,59.704921865874,
G,left,Distractor,0,7,7,7,2005.047526809416,2007.0486387089913,left,1,4,0.7111457505816361,D17S02,2022-11-18_10h40.04.704,t1_Paradigm,2021.1.4,59.704921865874,
L,left,Distractor,0,8,8,8,2008.5467889649299,2010.5482579170784,left,1,4,0.7015011606563348,D17S02,2022-11-18_10h40.04.704,t1_Paradigm,2021.1.4,59.704921865874,
P,left,Lure,0,9,9,9,2012.046214729431,2014.0481915110722,left,1,4,1.0877486375538865,D17S02,2022-11-18_10h40.04.704,t1_Paradigm,2021.1.4,59.704921865874,
Q,left,Pretarget,0,10,10,10,2015.5456151505787,2017.5470090350718,left,1,4,0.6708068297448335,D17S02,2022-11-18_10h40.04.704,t1_Paradigm,2021.1.4,59.704921865874,
D,left,Distractor,0,11,11,11,2019.0450450855133,2021.0467896065384,left,1,4,0.8407462110044435,D17S02,2022-11-18_10h40.04.704,t1_Paradigm,2021.1.4,59.704921865874,
M,left,Pretarget,0,12,12,12,2022.5444753412448,2024.5444692460005,left,1,4,0.9714951424102765,D17S02,2022-11-18_10h40.04.704,t1_Paradigm,2021.1.4,59.704921865874,
C,left,Distractor,0,13,13,13,2026.0437609152868,2028.0453049350908,left,1,4,0.6059974566742312,D17S02,2022-11-18_10h40.04.704,t1_Paradigm,2021.1.4,59.704921865874,
Q,right,Target,0,14,14,14,2029.5433291158552,2031.5431472211494,left,0,4,0.5699614524346543,D17S02,2022-11-18_10h40.04.704,t1_Paradigm,2021.1.4,59.704921865874,
R,left,Distractor,0,15,15,15,2033.0427863189543,2035.044017877648,left,1,4,0.6610303902125452,D17S02,2022-11-18_10h40.04.704,t1_Paradigm,2021.1.4,59.704921865874,
M,right,Target,0,16,16,16,2036.5420427000208,2038.5414960534981,left,0,4,0.9228310900798533,D17S02,2022-11-18_10h40.04.704,t1_Paradigm,2021.1.4,59.704921865874,
S,left,Distractor,0,17,17,17,2040.0415807452082,2042.0409859783977,left,1,4,0.987084192543989,D17S02,2022-11-18_10h40.04.704,t1_Paradigm,2021.1.4,59.704921865874,
Z,left,Distractor,0,18,18,18,2043.540742489713,2045.540972825518,left,1,4,0.6553570076648612,D17S02,2022-11-18_10h40.04.704,t1_Paradigm,2021.1.4,59.704921865874,
L,left,Pretarget,0,19,19,19,2047.0403491865145,2049.039801256775,right,0,4,0.9325571637018584,D17S02,2022-11-18_10h40.04.704,t1_Paradigm,2021.1.4,59.704921865874,
M,right,Target,0,20,20,20,2050.5398147304513,2052.540049557487,right,1,4,1.252382275313721,D17S02,2022-11-18_10h40.04.704,t1_Paradigm,2021.1.4,59.704921865874,
P,left,Distractor,0,21,21,21,2054.0391814674076,2056.040973467112,left,1,4,0.719957217850606,D17S02,2022-11-18_10h40.04.704,t1_Paradigm,2021.1.4,59.704921865874,
F,left,Distractor,0,22,22,22,2057.538751592787,2059.5380124650837,left,1,4,0.9940420661150711,D17S02,2022-11-18_10h40.04.704,t1_Paradigm,2021.1.4,59.704921865874,
L,right,Target,0,23,23,23,2061.0378385904187,2063.037375994012,right,1,4,0.842133037847816,D17S02,2022-11-18_10h40.04.704,t1_Paradigm,2021.1.4,59.704921865874,
L,left,Lure,0,24,24,24,2064.5372117434017,2066.5373795228224,left,1,4,0.8325968789722538,D17S02,2022-11-18_10h40.04.704,t1_Paradigm,2021.1.4,59.704921865874,
V,left,Pretarget,0,25,25,25,2068.0369804452057,2070.037523883715,left,1,4,0.7656397368409671,D17S02,2022-11-18_10h40.04.704,t1_Paradigm,2021.1.4,59.704921865874,
Z,left,Distractor,0,26,26,26,2071.5362916833983,2073.5367629414686,left,1,4,0.617340372162289,D17S02,2022-11-18_10h40.04.704,t1_Paradigm,2021.1.4,59.704921865874,
H,left,Distractor,0,27,27,27,2075.0357681346213,2077.0361203751672,left,1,4,0.6247816942777717,D17S02,2022-11-18_10h40.04.704,t1_Paradigm,2021.1.4,59.704921865874,
X,left,Distractor,0,28,28,28,2078.5350938089105,2080.5346815783996,None,0,4,,D17S02,2022-11-18_10h40.04.704,t1_Paradigm,2021.1.4,59.704921865874,
V,right,Target,0,29,29,29,2082.0346693879255,2084.034440014526,right,1,4,0.7784153538377723,D17S02,2022-11-18_10h40.04.704,t1_Paradigm,2021.1.4,59.704921865874,
C,left,Distractor,0,30,30,30,2085.534016876758,2087.533987362971,left,1,4,0.46355304845201317,D17S02,2022-11-18_10h40.04.704,t1_Paradigm,2021.1.4,59.704921865874,
S,left,Pretarget,0,31,31,31,2089.0334734382486,2091.0335023104126,left,1,4,0.5558522617211565,D17S02,2022-11-18_10h40.04.704,t1_Paradigm,2021.1.4,59.704921865874,
D,left,Distractor,0,32,32,32,2092.5327625411155,2094.544975150682,left,1,4,0.4208148497855291,D17S02,2022-11-18_10h40.04.704,t1_Paradigm,2021.1.4,59.704921865874,
V,left,Distractor,0,33,33,33,2096.048917485896,2098.0511136960704,left,1,4,1.0487436112307478,D17S02,2022-11-18_10h40.04.704,t1_Paradigm,2021.1.4,59.704921865874,
R,left,Distractor,0,34,34,34,2099.548281335621,2101.548100403321,None,0,4,,D17S02,2022-11-18_10h40.04.704,t1_Paradigm,2021.1.4,59.704921865874,
S,right,Target,0,35,35,35,2103.0476054058963,2105.059887629497,right,1,4,0.7432050938223256,D17S02,2022-11-18_10h40.04.704,t1_Paradigm,2021.1.4,59.704921865874,
Y,left,Distractor,0,36,36,36,2106.5471014260256,2108.547845044959,left,1,4,0.4601015402295161,D17S02,2022-11-18_10h40.04.704,t1_Paradigm,2021.1.4,59.704921865874,
N,left,Pretarget,0,37,37,37,2110.046514037662,2112.048049075005,left,1,4,0.5072866955742938,D17S02,2022-11-18_10h40.04.704,t1_Paradigm,2021.1.4,59.704921865874,
Z,left,Pretarget,0,38,38,38,2113.5459349901357,2115.545625095445,left,1,4,0.47538518690271303,D17S02,2022-11-18_10h40.04.704,t1_Paradigm,2021.1.4,59.704921865874,
P,left,Pretarget,0,39,39,39,2117.0450495767436,2119.047089556363,left,1,4,0.8556227599910926,D17S02,2022-11-18_10h40.04.704,t1_Paradigm,2021.1.4,59.704921865874,
M,left,Distractor,0,40,40,40,2120.5445186495053,2122.5464819574554,right,0,4,1.1443300821265439,D17S02,2022-11-18_10h40.04.704,t1_Paradigm,2021.1.4,59.704921865874,
N,right,Target,0,41,41,41,2124.0439970255247,2126.044605586838,right,1,4,0.6226409828377655,D17S02,2022-11-18_10h40.04.704,t1_Paradigm,2021.1.4,59.704921865874,
Z,right,Target,0,42,42,42,2127.5434375469194,2129.543362800061,right,1,4,0.44244203429843765,D17S02,2022-11-18_10h40.04.704,t1_Paradigm,2021.1.4,59.704921865874,
P,right,Target,0,43,43,43,2131.0429245846026,2133.044485927705,right,1,4,0.49247751498478465,D17S02,2022-11-18_10h40.04.704,t1_Paradigm,2021.1.4,59.704921865874,
X,left,Pretarget,0,44,44,44,2134.542388845337,2136.5424263791647,left,1,4,0.5256279056629864,D17S02,2022-11-18_10h40.04.704,t1_Paradigm,2021.1.4,59.704921865874,
Z,left,Lure,0,45,45,45,2138.041789908093,2140.0540143873222,left,1,4,1.2380504480242962,D17S02,2022-11-18_10h40.04.704,t1_Paradigm,2021.1.4,59.704921865874,
R,left,Pretarget,0,46,46,46,2141.5412368455145,2143.5431930958293,left,1,4,1.2107434649515199,D17S02,2022-11-18_10h40.04.704,t1_Paradigm,2021.1.4,59.704921865874,
K,left,Distractor,0,47,47,47,2145.040566690237,2147.04112488564,left,1,4,1.0319663106638473,D17S02,2022-11-18_10h40.04.704,t1_Paradigm,2021.1.4,59.704921865874,
X,right,Target,0,48,48,48,2148.539940164017,2150.5402186201245,right,1,4,0.9941017352830386,D17S02,2022-11-18_10h40.04.704,t1_Paradigm,2021.1.4,59.704921865874,
B,left,Distractor,0,49,49,49,2152.03945543227,2154.0415230008657,left,1,4,0.8528866401320556,D17S02,2022-11-18_10h40.04.704,t1_Paradigm,2021.1.4,59.704921865874,
R,right,Target,0,50,50,50,2155.5388609862566,2157.538836284497,right,1,4,1.4087658492207993,D17S02,2022-11-18_10h40.04.704,t1_Paradigm,2021.1.4,59.704921865874,
Y,left,Pretarget,0,51,51,51,2159.0385369762807,2161.038195322195,left,1,4,0.8454841350612696,D17S02,2022-11-18_10h40.04.704,t1_Paradigm,2021.1.4,59.704921865874,
W,left,Pretarget,0,52,52,52,2162.5377205352997,2164.538920013816,left,1,4,0.6181032391905319,D17S02,2022-11-18_10h40.04.704,t1_Paradigm,2021.1.4,59.704921865874,
Z,left,Distractor,0,53,53,53,2166.03712320207,2168.038642520114,left,1,4,1.195975988623104,D17S02,2022-11-18_10h40.04.704,t1_Paradigm,2021.1.4,59.704921865874,
Q,left,Distractor,0,54,54,54,2169.536406209707,2171.537878690666,left,1,4,0.8484191521420144,D17S02,2022-11-18_10h40.04.704,t1_Paradigm,2021.1.4,59.704921865874,
Y,right,Target,0,55,55,55,2173.0356921045604,2175.0367966256745,left,0,4,0.9496693815162871,D17S02,2022-11-18_10h40.04.704,t1_Paradigm,2021.1.4,59.704921865874,
W,right,Target,0,56,56,56,2176.535105357776,2178.5359853175323,left,0,4,0.7534402801393298,D17S02,2022-11-18_10h40.04.704,t1_Paradigm,2021.1.4,59.704921865874,
H,left,Pretarget,0,57,57,57,2180.05137130004,2182.051267360206,left,1,4,0.7366764532634988,D17S02,2022-11-18_10h40.04.704,t1_Paradigm,2021.1.4,59.704921865874,
M,left,Distractor,0,58,58,58,2183.550849355248,2185.550772683593,left,1,4,1.0904671133030206,D17S02,2022-11-18_10h40.04.704,t1_Paradigm,2021.1.4,59.704921865874,
R,left,Pretarget,0,59,59,59,2187.0501169643976,2189.0502475307876,left,1,4,0.7957264688593568,D17S02,2022-11-18_10h40.04.704,t1_Paradigm,2021.1.4,59.704921865874,
J,left,Distractor,0,60,60,60,2190.5495270096,2192.5503463377972,left,1,4,0.6552896392531693,D17S02,2022-11-18_10h40.04.704,t1_Paradigm,2021.1.4,59.704921865874,
H,right,Target,0,61,61,61,2194.049168994621,2196.0503011047113,left,0,4,1.1672523441084195,D17S02,2022-11-18_10h40.04.704,t1_Paradigm,2021.1.4,59.704921865874,
Z,left,Distractor,0,62,62,62,2197.5485764734185,2199.5504554104555,left,1,4,1.2309539880079683,D17S02,2022-11-18_10h40.04.704,t1_Paradigm,2021.1.4,59.704921865874,
R,right,Target,0,63,63,63,2201.0481783581927,2203.0500649944734,right,1,4,0.9121596130862599,D17S02,2022-11-18_10h40.04.704,t1_Paradigm,2021.1.4,59.704921865874,
J,left,Pretarget,0,0,0,0,2208.720792906941,2210.7132896700496,None,0,4,,D17S02,2022-11-18_10h40.04.704,t1_Paradigm,2021.1.4,59.704921865874,
G,left,Pretarget,0,1,1,1,2212.2130205172143,2214.2139126674447,None,0,4,,D17S02,2022-11-18_10h40.04.704,t1_Paradigm,2021.1.4,59.704921865874,
Z,left,Distractor,0,2,2,2,2215.7120661313966,2217.712931334274,None,0,4,,D17S02,2022-11-18_10h40.04.704,t1_Paradigm,2021.1.4,59.704921865874,
F,left,Distractor,0,3,3,3,2219.2114088082017,2221.2113148132194,None,0,4,,D17S02,2022-11-18_10h40.04.704,t1_Paradigm,2021.1.4,59.704921865874,
J,right,Target,0,4,4,4,2222.7107980012806,2224.710670322107,right,1,4,0.7285976976709208,D17S02,2022-11-18_10h40.04.704,t1_Paradigm,2021.1.4,59.704921865874,
G,right,Target,0,5,5,5,2226.21030460787,2228.210256808379,right,1,4,0.4828374162898399,D17S02,2022-11-18_10h40.04.704,t1_Paradigm,2021.1.4,59.704921865874,
H,left,Distractor,0,6,6,6,2229.709729089169,2231.7091782722127,left,1,4,0.6081051255168859,D17S02,2022-11-18_10h40.04.704,t1_Paradigm,2021.1.4,59.704921865874,
P,left,Distractor,0,7,7,7,2233.209092938894,2235.2102295402146,left,1,4,0.6059291258570738,D17S02,2022-11-18_10h40.04.704,t1_Paradigm,2021.1.4,59.704921865874,
G,left,Lure,0,8,8,8,2236.708746472781,2238.7106417707255,left,1,4,0.8079419656423852,D17S02,2022-11-18_10h40.04.704,t1_Paradigm,2021.1.4,59.704921865874,
S,left,Distractor,0,9,9,9,2240.2080814503424,2242.2094782220374,left,1,4,0.7908345598698361,D17S02,2022-11-18_10h40.04.704,t1_Paradigm,2021.1.4,59.704921865874,
R,left,Pretarget,0,10,10,10,2243.7073731196288,2245.7070253702987,left,1,4,1.0488873305002926,D17S02,2022-11-18_10h40.04.704,t1_Paradigm,2021.1.4,59.704921865874,
T,left,Pretarget,0,11,11,11,2247.207411936659,2249.2078453401045,left,1,4,1.2213812577247154,D17S02,2022-11-18_10h40.04.704,t1_Paradigm,2021.1.4,59.704921865874,
X,left,Distractor,0,12,12,12,2250.705976989513,2252.707718623322,left,1,4,0.7102167081320658,D17S02,2022-11-18_10h40.04.704,t1_Paradigm,2021.1.4,59.704921865874,
F,left,Pretarget,0,13,13,13,2254.2055108642817,2256.2072332499665,left,1,4,0.5743420031212736,D17S02,2022-11-18_10h40.04.704,t1_Paradigm,2021.1.4,59.704921865874,
R,right,Target,0,14,14,14,2257.70486284433,2259.7065002175077,left,0,4,0.7650812206265982,D17S02,2022-11-18_10h40.04.704,t1_Paradigm,2021.1.4,59.704921865874,
T,right,Target,0,15,15,15,2261.2044692203344,2263.204534984732,left,0,4,0.7003064941818593,D17S02,2022-11-18_10h40.04.704,t1_Paradigm,2021.1.4,59.704921865874,
C,left,Distractor,0,16,16,16,2264.703584769348,2266.705714252719,left,1,4,0.6977840284234844,D17S02,2022-11-18_10h40.04.704,t1_Paradigm,2021.1.4,59.704921865874,
F,right,Target,0,17,17,17,2268.2031433458615,2270.2048192152724,right,1,4,0.5461961229157168,D17S02,2022-11-18_10h40.04.704,t1_Paradigm,2021.1.4,59.704921865874,
M,left,Distractor,0,18,18,18,2271.702661822128,2273.704231826894,left,1,4,0.479658268915955,D17S02,2022-11-18_10h40.04.704,t1_Paradigm,2021.1.4,59.704921865874,
N,left,Distractor,0,19,19,19,2275.2022608196858,2277.2021520678245,left,1,4,0.5940004260191927,D17S02,2022-11-18_10h40.04.704,t1_Paradigm,2021.1.4,59.704921865874,
R,left,Lure,0,20,20,20,2278.7015476769448,2280.70120891009,left,1,4,1.042275602245354,D17S02,2022-11-18_10h40.04.704,t1_Paradigm,2021.1.4,59.704921865874,
F,right,Target,0,21,21,21,2282.2012044188596,2284.2005156570667,left,0,4,1.0166958168701967,D17S02,2022-11-18_10h40.04.704,t1_Paradigm,2021.1.4,59.704921865874,
P,left,Distractor,0,22,22,22,2285.7005454916507,2287.700316118251,left,1,4,0.8273267444892554,D17S02,2022-11-18_10h40.04.704,t1_Paradigm,2021.1.4,59.704921865874,
L,left,Pretarget,0,23,23,23,2289.1995141133666,2291.2006295417523,left,1,4,0.47873660491313785,D17S02,2022-11-18_10h40.04.704,t1_Paradigm,2021.1.4,59.704921865874,
T,left,Distractor,0,24,24,24,2292.6991654016456,2294.7006821532705,left,1,4,0.45691886404529214,D17S02,2022-11-18_10h40.04.704,t1_Paradigm,2021.1.4,59.704921865874,
F,left,Distractor,0,25,25,25,2296.198355055909,2298.1987506047153,right,0,4,0.48571982185239904,D17S02,2022-11-18_10h40.04.704,t1_Paradigm,2021.1.4,59.704921865874,
V,left,Distractor,0,26,26,26,2299.698249832858,2301.6999128701864,left,1,4,1.135518614843022,D17S02,2022-11-18_10h40.04.704,t1_Paradigm,2021.1.4,59.704921865874,
L,right,Target,0,27,27,27,2303.214237639826,2305.2133920058695,left,0,4,1.218039463768946,D17S02,2022-11-18_10h40.04.704,t1_Paradigm,2021.1.4,59.704921865874,
S,left,Pretarget,0,28,28,28,2306.7135892990773,2308.715210952956,left,1,4,0.9454877280368237,D17S02,2022-11-18_10h40.04.704,t1_Paradigm,2021.1.4,59.704921865874,
W,left,Distractor,0,29,29,29,2310.212531294237,2312.214386171123,left,1,4,0.6182113494578516,D17S02,2022-11-18_10h40.04.704,t1_Paradigm,2021.1.4,59.704921865874,
Q,left,Distractor,0,30,30,30,2313.711996838174,2315.7115592643095,left,1,4,0.4890414052642882,D17S02,2022-11-18_10h40.04.704,t1_Paradigm,2021.1.4,59.704921865874,
L,right,Target,0,31,31,31,2317.2119390938315,2319.213239624951,right,1,4,0.5147610602871282,D17S02,2022-11-18_10h40.04.704,t1_Paradigm,2021.1.4,59.704921865874,
S,right,Target,0,32,32,32,2320.711247765619,2322.7126265724073,left,0,4,0.5866794046305586,D17S02,2022-11-18_10h40.04.704,t1_Paradigm,2021.1.4,59.704921865874,
Z,left,Pretarget,0,33,33,33,2324.2110238458554,2326.212026351961,left,1,4,0.8633197612653021,D17S02,2022-11-18_10h40.04.704,t1_Paradigm,2021.1.4,59.704921865874,
F,left,Distractor,0,34,34,34,2327.7100784424983,2329.7110642668995,left,1,4,0.838108898155042,D17S02,2022-11-18_10h40.04.704,t1_Paradigm,2021.1.4,59.704921865874,
V,left,Distractor,0,35,35,35,2331.20915485367,2333.2098089688516,left,1,4,1.384225141388015,D17S02,2022-11-18_10h40.04.704,t1_Paradigm,2021.1.4,59.704921865874,
M,left,Distractor,0,36,36,36,2334.709036477754,2336.7104217005835,left,1,4,0.5664900544943521,D17S02,2022-11-18_10h40.04.704,t1_Paradigm,2021.1.4,59.704921865874,
Z,right,Target,0,37,37,37,2338.2083191645797,2340.209196557931,right,1,4,0.5989529665966984,D17S02,2022-11-18_10h40.04.704,t1_Paradigm,2021.1.4,59.704921865874,
H,left,Pretarget,0,38,38,38,2341.7076644077897,2343.7091542120615,left,1,4,0.4425687510665739,D17S02,2022-11-18_10h40.04.704,t1_Paradigm,2021.1.4,59.704921865874,
L,left,Distractor,0,39,39,39,2345.206948698644,2347.208036858865,left,1,4,0.5356674028007546,D17S02,2022-11-18_10h40.04.704,t1_Paradigm,2021.1.4,59.704921865874,
G,left,Distractor,0,40,40,40,2348.7060905534163,2350.7064530596253,left,1,4,0.6909734029468382,D17S02,2022-11-18_10h40.04.704,t1_Paradigm,2021.1.4,59.704921865874,
K,left,Distractor,0,41,41,41,2352.205818192553,2354.2067456310033,left,1,4,0.9011419908056268,D17S02,2022-11-18_10h40.04.704,t1_Paradigm,2021.1.4,59.704921865874,
H,right,Target,0,42,42,42,2355.704927325525,2357.706751405436,left,0,4,0.7855416484380839,D17S02,2022-11-18_10h40.04.704,t1_Paradigm,2021.1.4,59.704921865874,
B,left,Distractor,0,43,43,43,2359.2048192152724,2361.203784628975,left,1,4,0.4891248137719231,D17S02,2022-11-18_10h40.04.704,t1_Paradigm,2021.1.4,59.704921865874,
Z,left,Distractor,0,44,44,44,2362.7046732503804,2364.7040184935904,left,1,4,0.4222979172336636,D17S02,2022-11-18_10h40.04.704,t1_Paradigm,2021.1.4,59.704921865874,
T,left,Pretarget,0,45,45,45,2366.20333197742,2368.203652458571,left,1,4,0.4255255056777969,D17S02,2022-11-18_10h40.04.704,t1_Paradigm,2021.1.4,59.704921865874,
H,right,Target,0,46,46,46,2369.7025270853046,2371.7032065438543,left,0,4,0.6981468554295134,D17S02,2022-11-18_10h40.04.704,t1_Paradigm,2021.1.4,59.704921865874,
F,left,Distractor,0,47,47,47,2373.202447205622,2375.2017029450944,left,1,4,0.6980024945514742,D17S02,2022-11-18_10h40.04.704,t1_Paradigm,2021.1.4,59.704921865874,
R,left,Distractor,0,48,48,48,2376.701677601741,2378.7017767295474,left,1,4,0.7044336113176541,D17S02,2022-11-18_10h40.04.704,t1_Paradigm,2021.1.4,59.704921865874,
T,right,Target,0,49,49,49,2380.200960609378,2382.2006410906324,right,1,4,0.7444786775740795,D17S02,2022-11-18_10h40.04.704,t1_Paradigm,2021.1.4,59.704921865874,
H,right,Target,0,50,50,50,2383.7006398074154,2385.7009407196456,right,1,4,0.42069679468113463,D17S02,2022-11-18_10h40.04.704,t1_Paradigm,2021.1.4,59.704921865874,
Y,left,Pretarget,0,51,51,51,2387.199992108275,2389.200369050566,left,1,4,0.46874266165832523,D17S02,2022-11-18_10h40.04.704,t1_Paradigm,2021.1.4,59.704921865874,
H,left,Distractor,0,52,52,52,2390.6994201183843,2392.7000604390923,right,0,4,0.7694011397397844,D17S02,2022-11-18_10h40.04.704,t1_Paradigm,2021.1.4,59.704921865874,
S,left,Distractor,0,53,53,53,2394.1985918077407,2396.199439366508,left,1,4,0.6786042420280864,D17S02,2022-11-18_10h40.04.704,t1_Paradigm,2021.1.4,59.704921865874,
Q,left,Distractor,0,54,54,54,2397.698323617311,2399.6999706145434,left,1,4,0.4974669477669522,D17S02,2022-11-18_10h40.04.704,t1_Paradigm,2021.1.4,59.704921865874,
Y,right,Target,0,55,55,55,2401.2146190733474,2403.215892336302,left,0,4,0.6834310282283695,D17S02,2022-11-18_10h40.04.704,t1_Paradigm,2021.1.4,59.704921865874,
R,left,Distractor,0,56,56,56,2404.713972015801,2406.725933758251,left,1,4,0.7576758283394156,D17S02,2022-11-18_10h40.04.704,t1_Paradigm,2021.1.4,59.704921865874,
H,left,Pretarget,0,57,57,57,2408.213286462036,2410.212639083693,left,1,4,0.7820275838312227,D17S02,2022-11-18_10h40.04.704,t1_Paradigm,2021.1.4,59.704921865874,
J,left,Distractor,0,58,58,58,2411.7126820711565,2413.7128966876626,left,1,4,0.6372134115808876,D17S02,2022-11-18_10h40.04.704,t1_Paradigm,2021.1.4,59.704921865874,
V,left,Distractor,0,59,59,59,2415.212027955975,2417.2138241261127,left,1,4,0.5618547870690236,D17S02,2022-11-18_10h40.04.704,t1_Paradigm,2021.1.4,59.704921865874,
Y,left,Lure,0,60,60,60,2418.711521409685,2420.711373199185,left,1,4,0.6931359289155807,D17S02,2022-11-18_10h40.04.704,t1_Paradigm,2021.1.4,59.704921865874,
H,right,Target,0,61,61,61,2422.2105497005687,2424.210542322122,right,1,4,0.6104549998271978,D17S02,2022-11-18_10h40.04.704,t1_Paradigm,2021.1.4,59.704921865874,
L,left,Distractor,0,62,62,62,2425.7101961768203,2427.711329570113,left,1,4,0.6977439281909028,D17S02,2022-11-18_10h40.04.704,t1_Paradigm,2021.1.4,59.704921865874,
P,left,Distractor,0,63,63,63,2429.209655304716,2431.2110780613875,left,1,4,0.826616168153123,D17S02,2022-11-18_10h40.04.704,t1_Paradigm,2021.1.4,59.704921865874,
