Letter,CorrAnswer,Stimulus,finaln_nback_run.thisRepN,finaln_nback_run.thisTrialN,finaln_nback_run.thisN,finaln_nback_run.thisIndex,finaln_fixcross.started,finaln_nback_trial.started,finaln_trial_resp.keys,finaln_trial_resp.corr,finaln_level,finaln_money,finaln_trial_resp.rt,Participant,date,expName,psychopyVersion,frameRate,
F,left,Distractor,0,0,0,0,2796.079135105101,2798.0826539817353,None,0,3,3.0,,D17S02,2022-11-18_10h40.04.704,t1_Paradigm,2021.1.4,59.704921865874,
P,left,Pretarget,0,1,1,1,2799.5800509946857,2801.579997420762,None,0,3,3.0,,D17S02,2022-11-18_10h40.04.704,t1_Paradigm,2021.1.4,59.704921865874,
B,left,Distractor,0,2,2,2,2803.0797244182904,2805.0801206087053,None,0,3,3.0,,D17S02,2022-11-18_10h40.04.704,t1_Paradigm,2021.1.4,59.704921865874,
K,left,Pretarget,0,3,3,3,2806.5794921576744,2808.581169310288,None,0,3,3.0,,D17S02,2022-11-18_10h40.04.704,t1_Paradigm,2021.1.4,59.704921865874,
H,left,Distractor,0,4,4,4,2810.0790407893364,2812.0794382629538,left,1,3,3.0,0.6616594828519737,D17S02,2022-11-18_10h40.04.704,t1_Paradigm,2021.1.4,59.704921865874,
P,right,Target,0,5,5,5,2813.57853135583,2815.578763937243,right,1,3,3.0,0.518048317899229,D17S02,2022-11-18_10h40.04.704,t1_Paradigm,2021.1.4,59.704921865874,
L,left,Distractor,0,6,6,6,2817.077941080235,2819.079789541094,left,1,3,3.0,0.49931829584238585,D17S02,2022-11-18_10h40.04.704,t1_Paradigm,2021.1.4,59.704921865874,
K,right,Target,0,7,7,7,2820.5772308247106,2822.578740839497,right,1,3,3.0,0.5685194476682227,D17S02,2022-11-18_10h40.04.704,t1_Paradigm,2021.1.4,59.704921865874,
Z,left,Pretarget,0,8,8,8,2824.076739035314,2826.076693481431,left,1,3,3.0,0.6917372323950985,D17S02,2022-11-18_10h40.04.704,t1_Paradigm,2021.1.4,59.704921865874,
S,left,Pretarget,0,9,9,9,2827.5761936719937,2829.5759283687803,left,1,3,3.0,0.8479029817826813,D17S02,2022-11-18_10h40.04.704,t1_Paradigm,2021.1.4,59.704921865874,
N,left,Distractor,0,10,10,10,2831.0755565593136,2833.0752700831654,left,1,3,3.0,0.713369549732306,D17S02,2022-11-18_10h40.04.704,t1_Paradigm,2021.1.4,59.704921865874,
M,left,Distractor,0,11,11,11,2834.5749435067846,2836.5765641982434,left,1,3,3.0,0.6289280595228774,D17S02,2022-11-18_10h40.04.704,t1_Paradigm,2021.1.4,59.704921865874,
Z,right,Target,0,12,12,12,2838.074246083328,2840.0751658225345,left,0,3,3.0,0.6775423875660636,D17S02,2022-11-18_10h40.04.704,t1_Paradigm,2021.1.4,59.704921865874,
S,right,Target,0,13,13,13,2841.573791186165,2843.573307737621,right,1,3,3.0,1.0167840374051593,D17S02,2022-11-18_10h40.04.704,t1_Paradigm,2021.1.4,59.704921865874,
Q,left,Distractor,0,14,14,14,2845.072919888058,2847.0728980735294,left,1,3,3.0,0.5999227508873446,D17S02,2022-11-18_10h40.04.704,t1_Paradigm,2021.1.4,59.704921865874,
V,left,Lure,0,15,15,15,2848.5725371713197,2850.572999446944,left,1,3,3.0,0.6880874685884919,D17S02,2022-11-18_10h40.04.704,t1_Paradigm,2021.1.4,59.704921865874,
Z,right,Target,0,16,16,16,2852.0719436877116,2854.073582023295,right,1,3,3.0,1.2247204852465075,D17S02,2022-11-18_10h40.04.704,t1_Paradigm,2021.1.4,59.704921865874,
X,left,Distractor,0,17,17,17,2855.5714066652436,2857.571390304336,left,1,3,3.0,0.8913511151768034,D17S02,2022-11-18_10h40.04.704,t1_Paradigm,2021.1.4,59.704921865874,
V,left,Pretarget,0,18,18,18,2859.070761211711,2861.0706832568394,left,1,3,3.0,0.6499665724259103,D17S02,2022-11-18_10h40.04.704,t1_Paradigm,2021.1.4,59.704921865874,
E,left,Distractor,0,19,19,19,2862.569919427391,2864.5716193569388,left,1,3,3.0,0.7784172786487034,D17S02,2022-11-18_10h40.04.704,t1_Paradigm,2021.1.4,59.704921865874,
R,left,Distractor,0,20,20,20,2866.069442715685,2868.069519066543,left,1,3,3.0,0.8935316060524201,D17S02,2022-11-18_10h40.04.704,t1_Paradigm,2021.1.4,59.704921865874,
G,left,Distractor,0,21,21,21,2869.569020219511,2871.568877783444,left,1,3,3.0,0.7865194527839776,D17S02,2022-11-18_10h40.04.704,t1_Paradigm,2021.1.4,59.704921865874,
V,right,Target,0,22,22,22,2873.068443096796,2875.0683349865285,right,1,3,3.0,0.7819945412338711,D17S02,2022-11-18_10h40.04.704,t1_Paradigm,2021.1.4,59.704921865874,
T,left,Pretarget,0,23,23,23,2876.567728029244,2878.5679862748075,left,1,3,3.0,0.6054816071409732,D17S02,2022-11-18_10h40.04.704,t1_Paradigm,2021.1.4,59.704921865874,
B,left,Distractor,0,24,24,24,2880.067303608259,2882.0673344052484,left,1,3,3.0,0.6133800720417639,D17S02,2022-11-18_10h40.04.704,t1_Paradigm,2021.1.4,59.704921865874,
S,left,Pretarget,0,25,25,25,2883.5667505456804,2885.5681938336784,left,1,3,3.0,0.6600432826089673,D17S02,2022-11-18_10h40.04.704,t1_Paradigm,2021.1.4,59.704921865874,
G,left,Lure,0,26,26,26,2887.066074295173,2889.065788139822,right,0,3,3.0,0.6202891837019706,D17S02,2022-11-18_10h40.04.704,t1_Paradigm,2021.1.4,59.704921865874,
T,right,Target,0,27,27,27,2890.565435257682,2892.5670174529077,right,1,3,3.0,0.8299050297937356,D17S02,2022-11-18_10h40.04.704,t1_Paradigm,2021.1.4,59.704921865874,
H,left,Distractor,0,28,28,28,2894.0816235658567,2896.08157031273,left,1,3,3.0,0.5692024350137217,D17S02,2022-11-18_10h40.04.704,t1_Paradigm,2021.1.4,59.704921865874,
S,right,Target,0,29,29,29,2897.580883475748,2899.580732698829,right,1,3,3.0,0.6706839625985594,D17S02,2022-11-18_10h40.04.704,t1_Paradigm,2021.1.4,59.704921865874,
D,left,Distractor,0,30,30,30,2901.0804834357114,2903.0816610996844,left,1,3,3.0,0.7010501131153433,D17S02,2022-11-18_10h40.04.704,t1_Paradigm,2021.1.4,59.704921865874,
Z,left,Distractor,0,31,31,31,2904.580151084898,2906.5817493202194,None,0,3,3.0,,D17S02,2022-11-18_10h40.04.704,t1_Paradigm,2021.1.4,59.704921865874,
J,left,Pretarget,0,32,32,32,2908.079333039903,2910.07883226806,left,1,3,3.0,0.7747226025530836,D17S02,2022-11-18_10h40.04.704,t1_Paradigm,2021.1.4,59.704921865874,
C,left,Pretarget,0,33,33,33,2911.578441852078,2913.5786166891485,left,1,3,3.0,0.6511144018295454,D17S02,2022-11-18_10h40.04.704,t1_Paradigm,2021.1.4,59.704921865874,
H,left,Distractor,0,34,34,34,2915.0781499223085,2917.077858634133,left,1,3,3.0,0.9405707964906469,D17S02,2022-11-18_10h40.04.704,t1_Paradigm,2021.1.4,59.704921865874,
B,left,Pretarget,0,35,35,35,2918.577506714384,2920.577433892351,left,1,3,3.0,0.5644622653489932,D17S02,2022-11-18_10h40.04.704,t1_Paradigm,2021.1.4,59.704921865874,
J,right,Target,0,36,36,36,2922.0765443085256,2924.077572478782,left,0,3,3.0,0.7094862420781283,D17S02,2022-11-18_10h40.04.704,t1_Paradigm,2021.1.4,59.704921865874,
C,right,Target,0,37,37,37,2925.5762979326246,2927.577541681807,right,1,3,3.0,0.9696155637648189,D17S02,2022-11-18_10h40.04.704,t1_Paradigm,2021.1.4,59.704921865874,
H,left,Distractor,0,38,38,38,2929.076069842442,2931.0756662735803,right,0,3,3.0,0.9497101233428111,D17S02,2022-11-18_10h40.04.704,t1_Paradigm,2021.1.4,59.704921865874,
B,right,Target,0,39,39,39,2932.575080489216,2934.5744597374287,right,1,3,3.0,0.36291330520180054,D17S02,2022-11-18_10h40.04.704,t1_Paradigm,2021.1.4,59.704921865874,
F,left,Pretarget,0,40,40,40,2936.0744590958348,2938.073837060845,left,1,3,3.0,0.5083921790937893,D17S02,2022-11-18_10h40.04.704,t1_Paradigm,2021.1.4,59.704921865874,
M,left,Distractor,0,41,41,41,2939.5741219329793,2941.573446644863,left,1,3,3.0,0.5764211205678293,D17S02,2022-11-18_10h40.04.704,t1_Paradigm,2021.1.4,59.704921865874,
W,left,Pretarget,0,42,42,42,2943.0737116272794,2945.073900579635,left,1,3,3.0,0.6687094265798805,D17S02,2022-11-18_10h40.04.704,t1_Paradigm,2021.1.4,59.704921865874,
Z,left,Distractor,0,43,43,43,2946.572801832939,2948.57351497568,left,1,3,3.0,0.7735054799268255,D17S02,2022-11-18_10h40.04.704,t1_Paradigm,2021.1.4,59.704921865874,
F,right,Target,0,44,44,44,2950.072405963321,2952.072152529785,left,0,3,3.0,0.9779458281118423,D17S02,2022-11-18_10h40.04.704,t1_Paradigm,2021.1.4,59.704921865874,
B,left,Lure,0,45,45,45,2953.5712385650113,2955.5717710962635,left,1,3,3.0,0.9161369157081936,D17S02,2022-11-18_10h40.04.704,t1_Paradigm,2021.1.4,59.704921865874,
W,right,Target,0,46,46,46,2957.0710666151717,2959.071277702853,right,1,3,3.0,0.9640923165425193,D17S02,2022-11-18_10h40.04.704,t1_Paradigm,2021.1.4,59.704921865874,
X,left,Distractor,0,47,47,47,2960.5706174924417,2962.570444900979,left,1,3,3.0,1.0531681117718108,D17S02,2022-11-18_10h40.04.704,t1_Paradigm,2021.1.4,59.704921865874,
T,left,Distractor,0,48,48,48,2964.069939637906,2966.069705131682,left,1,3,3.0,0.7059901423926931,D17S02,2022-11-18_10h40.04.704,t1_Paradigm,2021.1.4,59.704921865874,
L,left,Pretarget,0,49,49,49,2967.569561091601,2969.5686169714463,left,1,3,3.0,0.6328957380901556,D17S02,2022-11-18_10h40.04.704,t1_Paradigm,2021.1.4,59.704921865874,
J,left,Distractor,0,50,50,50,2971.068677282223,2973.068245482791,left,1,3,3.0,0.6968986150313867,D17S02,2022-11-18_10h40.04.704,t1_Paradigm,2021.1.4,59.704921865874,
Z,left,Distractor,0,51,51,51,2974.5679792171723,2976.568889973918,left,1,3,3.0,0.7514663857436972,D17S02,2022-11-18_10h40.04.704,t1_Paradigm,2021.1.4,59.704921865874,
P,left,Pretarget,0,52,52,52,2978.067904149517,2980.066865071989,left,1,3,3.0,0.6302103049383732,D17S02,2022-11-18_10h40.04.704,t1_Paradigm,2021.1.4,59.704921865874,
L,right,Target,0,53,53,53,2981.5670267561654,2983.5670306057873,right,1,3,3.0,0.7386359115917003,D17S02,2022-11-18_10h40.04.704,t1_Paradigm,2021.1.4,59.704921865874,
V,left,Distractor,0,54,54,54,2985.0666658539703,2987.0663383151696,left,1,3,3.0,0.6850193186837714,D17S02,2022-11-18_10h40.04.704,t1_Paradigm,2021.1.4,59.704921865874,
F,left,Distractor,0,55,55,55,2988.565713392978,2990.567238164658,left,1,3,3.0,0.765093411115231,D17S02,2022-11-18_10h40.04.704,t1_Paradigm,2021.1.4,59.704921865874,
P,right,Target,0,56,56,56,2992.064685864316,2994.065175087293,left,0,3,3.0,0.6348067553190049,D17S02,2022-11-18_10h40.04.704,t1_Paradigm,2021.1.4,59.704921865874,
T,left,Pretarget,0,57,57,57,2995.564518405692,2997.5664332725573,left,1,3,3.0,0.5916300203825813,D17S02,2022-11-18_10h40.04.704,t1_Paradigm,2021.1.4,59.704921865874,
D,left,Distractor,0,58,58,58,2999.0800766588363,3001.0814025333093,left,1,3,3.0,0.4855514008086175,D17S02,2022-11-18_10h40.04.704,t1_Paradigm,2021.1.4,59.704921865874,
V,left,Distractor,0,59,59,59,3002.5799043881852,3004.5791309346823,left,1,3,3.0,1.0008321602654178,D17S02,2022-11-18_10h40.04.704,t1_Paradigm,2021.1.4,59.704921865874,
Z,left,Distractor,0,60,60,60,3006.0803409996442,3008.079332719106,left,1,3,3.0,0.5996096481831046,D17S02,2022-11-18_10h40.04.704,t1_Paradigm,2021.1.4,59.704921865874,
T,right,Target,0,61,61,61,3009.578802433476,3011.5793474759994,right,1,3,3.0,0.655411864790949,D17S02,2022-11-18_10h40.04.704,t1_Paradigm,2021.1.4,59.704921865874,
B,left,Distractor,0,62,62,62,3013.0783699924505,3015.0783805789106,left,1,3,3.0,0.5043080494360765,D17S02,2022-11-18_10h40.04.704,t1_Paradigm,2021.1.4,59.704921865874,
J,left,Distractor,0,63,63,63,3016.5776042381767,3018.5781701328233,left,1,3,3.0,0.6337211615173146,D17S02,2022-11-18_10h40.04.704,t1_Paradigm,2021.1.4,59.704921865874,
