Letter,CorrAnswer,Stimulus,nback_run.thisRepN,nback_run.thisTrialN,nback_run.thisN,nback_run.thisIndex,fixcross.started,nback_trial.started,trial_resp.keys,trial_resp.corr,currentlevel,trial_resp.rt,Participant,date,expName,psychopyVersion,frameRate,
H,left,Distractor,0,0,0,0,95.2620781094738,97.21278818833525,None,0,1,,D18R04,2022-10-07_14h39.42.909,t1_Paradigm,2021.1.4,60.00860514057195,
Q,left,Pretarget,0,1,1,1,98.71186957223108,100.71396569152421,left,1,1,0.8666346506361151,D18R04,2022-10-07_14h39.42.909,t1_Paradigm,2021.1.4,60.00860514057195,
Q,right,Target,0,2,2,2,102.20979574866942,104.20972068104311,right,1,1,0.9390787661541253,D18R04,2022-10-07_14h39.42.909,t1_Paradigm,2021.1.4,60.00860514057195,
T,left,Distractor,0,3,3,3,105.70976318728935,107.71233890534495,left,1,1,0.8123164812859613,D18R04,2022-10-07_14h39.42.909,t1_Paradigm,2021.1.4,60.00860514057195,
Q,left,Lure,0,4,4,4,109.20982654564432,111.21224667481147,left,1,1,0.6085396169364685,D18R04,2022-10-07_14h39.42.909,t1_Paradigm,2021.1.4,60.00860514057195,
L,left,Distractor,0,5,5,5,112.70977184893854,114.71168126154225,left,1,1,0.5651540538528934,D18R04,2022-10-07_14h39.42.909,t1_Paradigm,2021.1.4,60.00860514057195,
V,left,Pretarget,0,6,6,6,116.209835848902,118.21227169735357,left,1,1,0.6004650343675166,D18R04,2022-10-07_14h39.42.909,t1_Paradigm,2021.1.4,60.00860514057195,
V,right,Target,0,7,7,7,119.70946644556534,121.7096595682815,right,1,1,0.44725007048691623,D18R04,2022-10-07_14h39.42.909,t1_Paradigm,2021.1.4,60.00860514057195,
K,left,Distractor,0,8,8,8,123.21002030996897,125.21216519114387,left,1,1,0.46468468866078183,D18R04,2022-10-07_14h39.42.909,t1_Paradigm,2021.1.4,60.00860514057195,
G,left,Pretarget,0,9,9,9,126.70987707194581,128.71206846938003,left,1,1,0.6608239025663352,D18R04,2022-10-07_14h39.42.909,t1_Paradigm,2021.1.4,60.00860514057195,
G,right,Target,0,10,10,10,130.20986022985016,132.20977617976314,right,1,1,0.4431678669498069,D18R04,2022-10-07_14h39.42.909,t1_Paradigm,2021.1.4,60.00860514057195,
G,right,Target,0,11,11,11,133.7098966408521,135.70959989914263,right,1,1,0.3992850609938614,D18R04,2022-10-07_14h39.42.909,t1_Paradigm,2021.1.4,60.00860514057195,
P,left,Pretarget,0,12,12,12,137.20983713210444,139.21175648958888,left,1,1,0.545088539714925,D18R04,2022-10-07_14h39.42.909,t1_Paradigm,2021.1.4,60.00860514057195,
P,right,Target,0,13,13,13,140.70976414969482,142.7097975130746,right,1,1,0.4389435481862165,D18R04,2022-10-07_14h39.42.909,t1_Paradigm,2021.1.4,60.00860514057195,
G,left,Lure,0,14,14,14,144.20974377877428,146.21113028436957,left,1,1,0.5057733105059015,D18R04,2022-10-07_14h39.42.909,t1_Paradigm,2021.1.4,60.00860514057195,
Y,left,Distractor,0,15,15,15,147.7098424253345,149.7093445408682,left,1,1,0.719445628739777,D18R04,2022-10-07_14h39.42.909,t1_Paradigm,2021.1.4,60.00860514057195,
B,left,Distractor,0,16,16,16,151.20973255070567,153.2115550260205,left,1,1,0.7215356527885888,D18R04,2022-10-07_14h39.42.909,t1_Paradigm,2021.1.4,60.00860514057195,
T,left,Pretarget,0,17,17,17,154.70975388403167,156.71171302093717,left,1,1,0.5812656852067448,D18R04,2022-10-07_14h39.42.909,t1_Paradigm,2021.1.4,60.00860514057195,
T,right,Target,0,18,18,18,158.2091544657742,160.20963213972573,right,1,1,0.3948563914455008,D18R04,2022-10-07_14h39.42.909,t1_Paradigm,2021.1.4,60.00860514057195,
S,left,Distractor,0,19,19,19,161.7096399993752,163.71293078474991,left,1,1,0.5878331406856887,D18R04,2022-10-07_14h39.42.909,t1_Paradigm,2021.1.4,60.00860514057195,
T,left,Lure,0,20,20,20,165.20977329254674,167.21165896582534,left,1,1,0.7209874024410965,D18R04,2022-10-07_14h39.42.909,t1_Paradigm,2021.1.4,60.00860514057195,
J,left,Distractor,0,21,21,21,168.70980745794077,170.71139959752327,left,1,1,0.5973051361361286,D18R04,2022-10-07_14h39.42.909,t1_Paradigm,2021.1.4,60.00860514057195,
P,left,Distractor,0,22,22,22,172.2097659141,174.211527116262,left,1,1,0.7453545485914219,D18R04,2022-10-07_14h39.42.909,t1_Paradigm,2021.1.4,60.00860514057195,
F,left,Distractor,0,23,23,23,175.70955274127482,177.71213038414135,left,1,1,0.6845417457807343,D18R04,2022-10-07_14h39.42.909,t1_Paradigm,2021.1.4,60.00860514057195,
L,left,Distractor,0,24,24,24,179.20971715221822,181.2118822439079,left,1,1,0.5129461190808797,D18R04,2022-10-07_14h39.42.909,t1_Paradigm,2021.1.4,60.00860514057195,
W,left,Pretarget,0,25,25,25,182.70978339780413,184.71253042404715,left,1,1,0.6122891489649191,D18R04,2022-10-07_14h39.42.909,t1_Paradigm,2021.1.4,60.00860514057195,
W,right,Target,0,26,26,26,186.21001228991372,188.20962187406258,right,1,1,0.5550228106149007,D18R04,2022-10-07_14h39.42.909,t1_Paradigm,2021.1.4,60.00860514057195,
V,left,Distractor,0,27,27,27,189.70970544294687,191.71165110617585,left,1,1,0.557089095338597,D18R04,2022-10-07_14h39.42.909,t1_Paradigm,2021.1.4,60.00860514057195,
W,left,Lure,0,28,28,28,193.2097572524508,195.2119191361271,left,1,1,0.7367352444707649,D18R04,2022-10-07_14h39.42.909,t1_Paradigm,2021.1.4,60.00860514057195,
R,left,Pretarget,0,29,29,29,196.70977601935738,198.71178295573918,left,1,1,0.6450343562610215,D18R04,2022-10-07_14h39.42.909,t1_Paradigm,2021.1.4,60.00860514057195,
R,right,Target,0,30,30,30,200.2097566108423,202.2097030369332,right,1,1,0.42703442108177114,D18R04,2022-10-07_14h39.42.909,t1_Paradigm,2021.1.4,60.00860514057195,
G,left,Distractor,0,31,31,31,203.7097699241276,205.7119006900175,left,1,1,0.5728173684765352,D18R04,2022-10-07_14h39.42.909,t1_Paradigm,2021.1.4,60.00860514057195,
R,left,Lure,0,32,32,32,207.2097967110749,209.21151043455757,left,1,1,0.7371510036755353,D18R04,2022-10-07_14h39.42.909,t1_Paradigm,2021.1.4,60.00860514057195,
S,left,Distractor,0,33,33,33,210.70969293167582,212.71035153788398,left,1,1,0.8222870028112084,D18R04,2022-10-07_14h39.42.909,t1_Paradigm,2021.1.4,60.00860514057195,
R,left,Lure,0,34,34,34,214.2097636684921,216.21108601371816,left,1,1,0.6335387427679962,D18R04,2022-10-07_14h39.42.909,t1_Paradigm,2021.1.4,60.00860514057195,
P,left,Pretarget,0,35,35,35,217.70979366345273,219.71207648943528,left,1,1,0.5566913010407006,D18R04,2022-10-07_14h39.42.909,t1_Paradigm,2021.1.4,60.00860514057195,
P,right,Target,0,36,36,36,221.20970784896053,223.20974730758462,right,1,1,0.4989071884920122,D18R04,2022-10-07_14h39.42.909,t1_Paradigm,2021.1.4,60.00860514057195,
Y,left,Pretarget,0,37,37,37,224.70974201435456,226.71191544689646,left,1,1,0.5007033580623101,D18R04,2022-10-07_14h39.42.909,t1_Paradigm,2021.1.4,60.00860514057195,
Y,right,Target,0,38,38,38,228.20967095675587,230.20966742793098,right,1,1,0.5070520266745007,D18R04,2022-10-07_14h39.42.909,t1_Paradigm,2021.1.4,60.00860514057195,
J,left,Distractor,0,39,39,39,231.70966213470092,233.70900256610184,left,1,1,0.4639356163388584,D18R04,2022-10-07_14h39.42.909,t1_Paradigm,2021.1.4,60.00860514057195,
Y,left,Lure,0,40,40,40,235.209694696081,237.2119800884684,left,1,1,0.9609680388239212,D18R04,2022-10-07_14h39.42.909,t1_Paradigm,2021.1.4,60.00860514057195,
T,left,Distractor,0,41,41,41,238.70967849559383,240.71157218891312,left,1,1,0.5972637527011102,D18R04,2022-10-07_14h39.42.909,t1_Paradigm,2021.1.4,60.00860514057195,
V,left,Distractor,0,42,42,42,242.20982301683398,244.21144146216102,left,1,1,0.45729790526092984,D18R04,2022-10-07_14h39.42.909,t1_Paradigm,2021.1.4,60.00860514057195,
N,left,Pretarget,0,43,43,43,245.70972116224584,247.71195907595393,left,1,1,0.5087529180891579,D18R04,2022-10-07_14h39.42.909,t1_Paradigm,2021.1.4,60.00860514057195,
N,right,Target,0,44,44,44,249.2096699943504,251.2097315883002,right,1,1,0.4028645680373302,D18R04,2022-10-07_14h39.42.909,t1_Paradigm,2021.1.4,60.00860514057195,
N,right,Target,0,45,45,45,252.7096566810651,254.7095774430054,right,1,1,0.7271506475954084,D18R04,2022-10-07_14h39.42.909,t1_Paradigm,2021.1.4,60.00860514057195,
X,left,Distractor,0,46,46,46,256.2096844304324,258.2111065450299,left,1,1,0.5215416838618694,D18R04,2022-10-07_14h39.42.909,t1_Paradigm,2021.1.4,60.00860514057195,
Z,left,Distractor,0,47,47,47,259.709744580774,261.71200045938895,left,1,1,0.3967696536856238,D18R04,2022-10-07_14h39.42.909,t1_Paradigm,2021.1.4,60.00860514057195,
H,left,Pretarget,0,48,48,48,263.2097152274073,265.21156240446726,left,1,1,0.561222306379932,D18R04,2022-10-07_14h39.42.909,t1_Paradigm,2021.1.4,60.00860514057195,
H,right,Target,0,49,49,49,266.70885980926687,268.7096627763094,right,1,1,0.5189403016556753,D18R04,2022-10-07_14h39.42.909,t1_Paradigm,2021.1.4,60.00860514057195,
K,left,Distractor,0,50,50,50,270.209680259999,272.21170034926035,left,1,1,0.5529247665253934,D18R04,2022-10-07_14h39.42.909,t1_Paradigm,2021.1.4,60.00860514057195,
V,left,Pretarget,0,51,51,51,273.7097166710155,275.7116536725953,left,1,1,0.5890297315927455,D18R04,2022-10-07_14h39.42.909,t1_Paradigm,2021.1.4,60.00860514057195,
V,right,Target,0,52,52,52,277.2096600494842,279.2096831472154,right,1,1,0.4028844577696873,D18R04,2022-10-07_14h39.42.909,t1_Paradigm,2021.1.4,60.00860514057195,
R,left,Distractor,0,53,53,53,280.7096800996078,282.711702755274,left,1,1,0.4529244136356283,D18R04,2022-10-07_14h39.42.909,t1_Paradigm,2021.1.4,60.00860514057195,
V,left,Lure,0,54,54,54,284.20975629004533,286.2120006197947,left,1,1,0.39246320963138714,D18R04,2022-10-07_14h39.42.909,t1_Paradigm,2021.1.4,60.00860514057195,
Y,left,Distractor,0,55,55,55,287.7091016938648,289.7115965698613,left,1,1,0.5891054408275522,D18R04,2022-10-07_14h39.42.909,t1_Paradigm,2021.1.4,60.00860514057195,
Q,left,Distractor,0,56,56,56,291.2091265560157,293.2095801698306,left,1,1,0.6591335976117989,D18R04,2022-10-07_14h39.42.909,t1_Paradigm,2021.1.4,60.00860514057195,
Z,left,Pretarget,0,57,57,57,294.70985333260614,296.71177974771126,left,1,1,0.676819082829752,D18R04,2022-10-07_14h39.42.909,t1_Paradigm,2021.1.4,60.00860514057195,
Z,right,Target,0,58,58,58,298.2096651823231,300.20969662090647,right,1,1,0.4589997590810526,D18R04,2022-10-07_14h39.42.909,t1_Paradigm,2021.1.4,60.00860514057195,
B,left,Distractor,0,59,59,59,301.70965186903777,303.7119478478853,left,1,1,0.42890629987232387,D18R04,2022-10-07_14h39.42.909,t1_Paradigm,2021.1.4,60.00860514057195,
S,left,Pretarget,0,60,60,60,305.20957471619477,307.2120965395443,left,1,1,0.5126683046692051,D18R04,2022-10-07_14h39.42.909,t1_Paradigm,2021.1.4,60.00860514057195,
S,right,Target,0,61,61,61,308.7096114480082,310.70968844044546,right,1,1,0.5670839977974538,D18R04,2022-10-07_14h39.42.909,t1_Paradigm,2021.1.4,60.00860514057195,
T,left,Distractor,0,62,62,62,312.20964400940284,314.21155695083144,left,1,1,0.4570223364571575,D18R04,2022-10-07_14h39.42.909,t1_Paradigm,2021.1.4,60.00860514057195,
D,left,Distractor,0,63,63,63,315.70961112721125,317.7119443190604,left,1,1,0.47671411647752393,D18R04,2022-10-07_14h39.42.909,t1_Paradigm,2021.1.4,60.00860514057195,
R,left,Distractor,0,0,0,0,337.32402879645815,339.32820274934056,None,0,1,,D18R04,2022-10-07_14h39.42.909,t1_Paradigm,2021.1.4,60.00860514057195,
V,left,Distractor,0,1,1,1,340.8263541286724,342.828001125381,left,1,1,0.5449143442965578,D18R04,2022-10-07_14h39.42.909,t1_Paradigm,2021.1.4,60.00860514057195,
N,left,Pretarget,0,2,2,2,344.32620800343284,346.32849564142816,left,1,1,0.6921492408728227,D18R04,2022-10-07_14h39.42.909,t1_Paradigm,2021.1.4,60.00860514057195,
N,right,Target,0,3,3,3,347.82637530159263,349.8262405648129,right,1,1,0.4584515087190084,D18R04,2022-10-07_14h39.42.909,t1_Paradigm,2021.1.4,60.00860514057195,
S,left,Distractor,0,4,4,4,351.3263526850642,353.32812094486144,left,1,1,0.4446364978066413,D18R04,2022-10-07_14h39.42.909,t1_Paradigm,2021.1.4,60.00860514057195,
N,left,Lure,0,5,5,5,354.82623671519104,356.8283119823609,left,1,1,0.6720028846466448,D18R04,2022-10-07_14h39.42.909,t1_Paradigm,2021.1.4,60.00860514057195,
Z,left,Distractor,0,6,6,6,358.32612074533245,360.32835513021564,left,1,1,0.43619203071284574,D18R04,2022-10-07_14h39.42.909,t1_Paradigm,2021.1.4,60.00860514057195,
L,left,Pretarget,0,7,7,7,361.82629349712806,363.8284903481981,left,1,1,0.4721391612692969,D18R04,2022-10-07_14h39.42.909,t1_Paradigm,2021.1.4,60.00860514057195,
L,right,Target,0,8,8,8,365.32633087053546,367.32649223387125,right,1,1,0.43024436438281555,D18R04,2022-10-07_14h39.42.909,t1_Paradigm,2021.1.4,60.00860514057195,
H,left,Distractor,0,9,9,9,368.82624569765176,370.8279655163642,left,1,1,0.40055992755515035,D18R04,2022-10-07_14h39.42.909,t1_Paradigm,2021.1.4,60.00860514057195,
L,left,Lure,0,10,10,10,372.3261791312689,374.3284241026122,left,1,1,0.580301354842959,D18R04,2022-10-07_14h39.42.909,t1_Paradigm,2021.1.4,60.00860514057195,
X,left,Pretarget,0,11,11,11,375.826182820485,377.82825487964146,left,1,1,0.5363037018396426,D18R04,2022-10-07_14h39.42.909,t1_Paradigm,2021.1.4,60.00860514057195,
X,right,Target,0,12,12,12,379.3263526850642,381.3262846750731,right,1,1,0.6382564547675429,D18R04,2022-10-07_14h39.42.909,t1_Paradigm,2021.1.4,60.00860514057195,
X,right,Target,0,13,13,13,382.82621457986534,384.82634675022564,right,1,1,0.4664173394703539,D18R04,2022-10-07_14h39.42.909,t1_Paradigm,2021.1.4,60.00860514057195,
R,left,Distractor,0,14,14,14,386.32623847961077,388.3284892253869,left,1,1,0.6282224144961219,D18R04,2022-10-07_14h39.42.909,t1_Paradigm,2021.1.4,60.00860514057195,
T,left,Distractor,0,15,15,15,389.8263281437248,391.82864369147865,left,1,1,0.6158859793213196,D18R04,2022-10-07_14h39.42.909,t1_Paradigm,2021.1.4,60.00860514057195,
V,left,Pretarget,0,16,16,16,393.3261278029677,395.32797145120276,left,1,1,0.49263615391100757,D18R04,2022-10-07_14h39.42.909,t1_Paradigm,2021.1.4,60.00860514057195,
V,right,Target,0,17,17,17,396.82622003350116,398.8261985397694,right,1,1,0.6103563178185141,D18R04,2022-10-07_14h39.42.909,t1_Paradigm,2021.1.4,60.00860514057195,
N,left,Distractor,0,18,18,18,400.3265403541445,402.32807282458816,left,1,1,0.5485326683701715,D18R04,2022-10-07_14h39.42.909,t1_Paradigm,2021.1.4,60.00860514057195,
B,left,Distractor,0,19,19,19,403.8262841938704,405.82787954146625,left,1,1,0.4090974271966843,D18R04,2022-10-07_14h39.42.909,t1_Paradigm,2021.1.4,60.00860514057195,
V,left,Lure,0,20,20,20,407.3262593317195,409.3278293359763,left,1,1,0.6207727539149346,D18R04,2022-10-07_14h39.42.909,t1_Paradigm,2021.1.4,60.00860514057195,
P,left,Distractor,0,21,21,21,410.82645871007117,412.828394107637,left,1,1,0.4963366032607155,D18R04,2022-10-07_14h39.42.909,t1_Paradigm,2021.1.4,60.00860514057195,
K,left,Pretarget,0,22,22,22,414.3260905899515,416.3281081127934,left,1,1,0.5484656207991065,D18R04,2022-10-07_14h39.42.909,t1_Paradigm,2021.1.4,60.00860514057195,
K,right,Target,0,23,23,23,417.82620591821615,419.8260012466344,right,1,1,0.538531349884579,D18R04,2022-10-07_14h39.42.909,t1_Paradigm,2021.1.4,60.00860514057195,
J,left,Pretarget,0,24,24,24,421.32609219396545,423.3284510499652,left,1,1,0.6840608638158301,D18R04,2022-10-07_14h39.42.909,t1_Paradigm,2021.1.4,60.00860514057195,
J,right,Target,0,25,25,25,424.8262190710957,426.82627392820723,right,1,1,0.45029127203451935,D18R04,2022-10-07_14h39.42.909,t1_Paradigm,2021.1.4,60.00860514057195,
H,left,Distractor,0,26,26,26,428.3262121738517,430.32806191733107,left,1,1,0.5164643529715249,D18R04,2022-10-07_14h39.42.909,t1_Paradigm,2021.1.4,60.00860514057195,
J,left,Lure,0,27,27,27,431.82621522147383,433.8282882430358,left,1,1,0.4723447952710558,D18R04,2022-10-07_14h39.42.909,t1_Paradigm,2021.1.4,60.00860514057195,
V,left,Distractor,0,28,28,28,435.3262198730954,437.32855242335063,left,1,1,0.47595317447849084,D18R04,2022-10-07_14h39.42.909,t1_Paradigm,2021.1.4,60.00860514057195,
Z,left,Pretarget,0,29,29,29,438.82616934680846,440.828282468603,left,1,1,0.43218585719296243,D18R04,2022-10-07_14h39.42.909,t1_Paradigm,2021.1.4,60.00860514057195,
Z,right,Target,0,30,30,30,442.326274088613,444.32660804333864,right,1,1,0.43807738317991607,D18R04,2022-10-07_14h39.42.909,t1_Paradigm,2021.1.4,60.00860514057195,
T,left,Distractor,0,31,31,31,445.8262806650455,447.82801844867936,left,1,1,0.48854753433261067,D18R04,2022-10-07_14h39.42.909,t1_Paradigm,2021.1.4,60.00860514057195,
Z,left,Lure,0,32,32,32,449.32618522649864,451.3285222679842,left,1,1,0.6679787462344393,D18R04,2022-10-07_14h39.42.909,t1_Paradigm,2021.1.4,60.00860514057195,
F,left,Distractor,0,33,33,33,452.826168063606,454.8281146892259,left,1,1,0.7043878314725589,D18R04,2022-10-07_14h39.42.909,t1_Paradigm,2021.1.4,60.00860514057195,
Y,left,Pretarget,0,34,34,34,456.32641941185284,458.3279175564967,left,1,1,0.596789928356884,D18R04,2022-10-07_14h39.42.909,t1_Paradigm,2021.1.4,60.00860514057195,
Y,right,Target,0,35,35,35,459.8262331863807,461.8263531662669,right,1,1,0.490239764098078,D18R04,2022-10-07_14h39.42.909,t1_Paradigm,2021.1.4,60.00860514057195,
Y,right,Target,0,36,36,36,463.3263218880893,465.3262019081885,right,1,1,0.638297517420142,D18R04,2022-10-07_14h39.42.909,t1_Paradigm,2021.1.4,60.00860514057195,
W,left,Distractor,0,37,37,37,466.82607920149167,468.82819553129957,left,1,1,0.624431499018101,D18R04,2022-10-07_14h39.42.909,t1_Paradigm,2021.1.4,60.00860514057195,
Q,left,Distractor,0,38,38,38,470.326175281647,472.3276038122858,left,1,1,0.6450757397251436,D18R04,2022-10-07_14h39.42.909,t1_Paradigm,2021.1.4,60.00860514057195,
P,left,Pretarget,0,39,39,39,473.8261661387951,475.8284114309354,left,1,1,0.5200692033831729,D18R04,2022-10-07_14h39.42.909,t1_Paradigm,2021.1.4,60.00860514057195,
P,right,Target,0,40,40,40,477.32618490570167,479.3261749608355,right,1,1,0.5104756240325514,D18R04,2022-10-07_14h39.42.909,t1_Paradigm,2021.1.4,60.00860514057195,
J,left,Distractor,0,41,41,41,480.82622420392,482.82758953659504,left,1,1,0.4651206583948806,D18R04,2022-10-07_14h39.42.909,t1_Paradigm,2021.1.4,60.00860514057195,
P,left,Lure,0,42,42,42,484.3262532364897,486.3279403334309,left,1,1,0.9165427569532767,D18R04,2022-10-07_14h39.42.909,t1_Paradigm,2021.1.4,60.00860514057195,
L,left,Distractor,0,43,43,43,487.8262376775965,489.82823787714005,left,1,1,0.47237302582652774,D18R04,2022-10-07_14h39.42.909,t1_Paradigm,2021.1.4,60.00860514057195,
Z,left,Distractor,0,44,44,44,491.32620222900005,493.32830957634724,left,1,1,0.540279719964019,D18R04,2022-10-07_14h39.42.909,t1_Paradigm,2021.1.4,60.00860514057195,
F,left,Pretarget,0,45,45,45,494.82619436935056,496.8279629499593,left,1,1,0.44855348841520026,D18R04,2022-10-07_14h39.42.909,t1_Paradigm,2021.1.4,60.00860514057195,
F,right,Target,0,46,46,46,498.3261669407948,500.3261775272549,right,1,1,0.5023057633079588,D18R04,2022-10-07_14h39.42.909,t1_Paradigm,2021.1.4,60.00860514057195,
G,left,Pretarget,0,47,47,47,501.8262039934052,503.8269476120913,left,1,1,0.4896488470840268,D18R04,2022-10-07_14h39.42.909,t1_Paradigm,2021.1.4,60.00860514057195,
G,right,Target,0,48,48,48,505.32609732678975,507.32619003852597,right,1,1,0.5423790472850669,D18R04,2022-10-07_14h39.42.909,t1_Paradigm,2021.1.4,60.00860514057195,
V,left,Distractor,0,49,49,49,508.82614368265786,510.8281076315907,left,1,1,0.4805627762689255,D18R04,2022-10-07_14h39.42.909,t1_Paradigm,2021.1.4,60.00860514057195,
G,left,Lure,0,50,50,50,512.3263193216699,514.328205636557,left,1,1,0.6444370232347865,D18R04,2022-10-07_14h39.42.909,t1_Paradigm,2021.1.4,60.00860514057195,
Q,left,Pretarget,0,51,51,51,515.8261706300109,517.8283020375093,left,1,1,0.5681301326258108,D18R04,2022-10-07_14h39.42.909,t1_Paradigm,2021.1.4,60.00860514057195,
Q,right,Target,0,52,52,52,519.3260787202889,521.326175281647,right,1,1,0.510451884692884,D18R04,2022-10-07_14h39.42.909,t1_Paradigm,2021.1.4,60.00860514057195,
Y,left,Distractor,0,53,53,53,522.8261619683617,524.8279254161316,left,1,1,0.41654708777787164,D18R04,2022-10-07_14h39.42.909,t1_Paradigm,2021.1.4,60.00860514057195,
V,left,Distractor,0,54,54,54,526.3262262891367,528.3284972454421,left,1,1,0.5642201996670337,D18R04,2022-10-07_14h39.42.909,t1_Paradigm,2021.1.4,60.00860514057195,
B,left,Distractor,0,55,55,55,529.8262168254878,531.8284303582477,left,1,1,0.4561622667097254,D18R04,2022-10-07_14h39.42.909,t1_Paradigm,2021.1.4,60.00860514057195,
J,left,Pretarget,0,56,56,56,533.3261261989537,535.3279255765374,left,1,1,0.4605598184716655,D18R04,2022-10-07_14h39.42.909,t1_Paradigm,2021.1.4,60.00860514057195,
J,right,Target,0,57,57,57,536.8261481738882,538.826139833036,right,1,1,0.4504702794656623,D18R04,2022-10-07_14h39.42.909,t1_Paradigm,2021.1.4,60.00860514057195,
H,left,Distractor,0,58,58,58,540.3261236325488,542.3279576567293,left,1,1,0.4689253683318384,D18R04,2022-10-07_14h39.42.909,t1_Paradigm,2021.1.4,60.00860514057195,
J,left,Lure,0,59,59,59,543.8261632515787,545.828507029888,left,1,1,0.6159546309063444,D18R04,2022-10-07_14h39.42.909,t1_Paradigm,2021.1.4,60.00860514057195,
D,left,Pretarget,0,60,60,60,547.326161487159,549.3279191604961,left,1,1,0.47650816167879384,D18R04,2022-10-07_14h39.42.909,t1_Paradigm,2021.1.4,60.00860514057195,
D,right,Target,0,61,61,61,550.8262559633004,552.8261119232775,right,1,1,0.4343352295982186,D18R04,2022-10-07_14h39.42.909,t1_Paradigm,2021.1.4,60.00860514057195,
R,left,Distractor,0,62,62,62,554.3261380686308,556.3283734159195,left,1,1,0.7242005537700607,D18R04,2022-10-07_14h39.42.909,t1_Paradigm,2021.1.4,60.00860514057195,
F,left,Distractor,0,63,63,63,557.8261436826579,559.8280396215996,left,1,1,0.4885286070348229,D18R04,2022-10-07_14h39.42.909,t1_Paradigm,2021.1.4,60.00860514057195,
F,left,Distractor,0,0,0,0,706.0515345716994,708.0426897438738,None,0,2,,D18R04,2022-10-07_14h39.42.909,t1_Paradigm,2021.1.4,60.00860514057195,
N,left,Pretarget,0,1,1,1,709.5427004907251,711.5447815323423,None,0,2,,D18R04,2022-10-07_14h39.42.909,t1_Paradigm,2021.1.4,60.00860514057195,
V,left,Distractor,0,2,2,2,713.0428145357873,715.0447470461368,left,1,2,0.7118246599711711,D18R04,2022-10-07_14h39.42.909,t1_Paradigm,2021.1.4,60.00860514057195,
N,right,Target,0,3,3,3,716.5426789970079,718.5442814022535,right,1,2,0.4122823479701765,D18R04,2022-10-07_14h39.42.909,t1_Paradigm,2021.1.4,60.00860514057195,
N,left,Lure,0,4,4,4,720.0426243002876,722.0427660947171,left,1,2,1.2016059982270235,D18R04,2022-10-07_14h39.42.909,t1_Paradigm,2021.1.4,60.00860514057195,
X,left,Distractor,0,5,5,5,723.5426655233314,725.5445553670288,None,0,2,,D18R04,2022-10-07_14h39.42.909,t1_Paradigm,2021.1.4,60.00860514057195,
G,left,Pretarget,0,6,6,6,727.0426897438738,729.0444191866409,left,1,2,0.9679570279404288,D18R04,2022-10-07_14h39.42.909,t1_Paradigm,2021.1.4,60.00860514057195,
H,left,Pretarget,0,7,7,7,730.5426315183286,732.544986203924,left,1,2,0.5395162115746643,D18R04,2022-10-07_14h39.42.909,t1_Paradigm,2021.1.4,60.00860514057195,
G,right,Target,0,8,8,8,734.0421998794482,736.0450357678055,right,1,2,0.5754591717122821,D18R04,2022-10-07_14h39.42.909,t1_Paradigm,2021.1.4,60.00860514057195,
H,right,Target,0,9,9,9,737.5427835784067,739.5449804294913,right,1,2,1.3154775023285765,D18R04,2022-10-07_14h39.42.909,t1_Paradigm,2021.1.4,60.00860514057195,
T,left,Pretarget,0,10,10,10,741.0426724205754,743.0446440687374,left,1,2,0.7119157677079784,D18R04,2022-10-07_14h39.42.909,t1_Paradigm,2021.1.4,60.00860514057195,
K,left,Distractor,0,11,11,11,744.5426680897508,746.544789552383,left,1,2,0.9397646405122941,D18R04,2022-10-07_14h39.42.909,t1_Paradigm,2021.1.4,60.00860514057195,
T,right,Target,0,12,12,12,748.0427006511309,750.0445035575394,right,1,2,0.5597357106016716,D18R04,2022-10-07_14h39.42.909,t1_Paradigm,2021.1.4,60.00860514057195,
T,left,Lure,0,13,13,13,751.5428034681245,753.5425859644747,left,1,2,0.5819579755916493,D18R04,2022-10-07_14h39.42.909,t1_Paradigm,2021.1.4,60.00860514057195,
J,left,Distractor,0,14,14,14,755.0427795683936,757.0444227154658,left,1,2,0.6640745877084555,D18R04,2022-10-07_14h39.42.909,t1_Paradigm,2021.1.4,60.00860514057195,
Q,left,Pretarget,0,15,15,15,758.5426218942739,760.5446593068336,left,1,2,0.5238440787506988,D18R04,2022-10-07_14h39.42.909,t1_Paradigm,2021.1.4,60.00860514057195,
M,left,Distractor,0,16,16,16,762.0425357589847,764.0465050402854,left,1,2,0.4462276749982266,D18R04,2022-10-07_14h39.42.909,t1_Paradigm,2021.1.4,60.00860514057195,
Q,right,Target,0,17,17,17,765.5426725809666,767.5447112767288,right,1,2,0.595802179464954,D18R04,2022-10-07_14h39.42.909,t1_Paradigm,2021.1.4,60.00860514057195,
R,left,Distractor,0,18,18,18,769.0426323203428,771.0447528205696,left,1,2,0.5515549426054349,D18R04,2022-10-07_14h39.42.909,t1_Paradigm,2021.1.4,60.00860514057195,
W,left,Distractor,0,19,19,19,772.5425952677178,774.5448447303061,left,1,2,0.5396275297971442,D18R04,2022-10-07_14h39.42.909,t1_Paradigm,2021.1.4,60.00860514057195,
C,left,Pretarget,0,20,20,20,776.0424408016406,778.0446434271435,left,1,2,0.7518912071100203,D18R04,2022-10-07_14h39.42.909,t1_Paradigm,2021.1.4,60.00860514057195,
T,left,Distractor,0,21,21,21,779.5427768415684,781.54490087062,left,1,2,0.7874447138165124,D18R04,2022-10-07_14h39.42.909,t1_Paradigm,2021.1.4,60.00860514057195,
C,right,Target,0,22,22,22,783.0427192576462,785.0448904445657,right,1,2,0.5355049052159302,D18R04,2022-10-07_14h39.42.909,t1_Paradigm,2021.1.4,60.00860514057195,
F,left,Pretarget,0,23,23,23,786.5426530120603,788.5448944545933,left,1,2,0.635442701735883,D18R04,2022-10-07_14h39.42.909,t1_Paradigm,2021.1.4,60.00860514057195,
C,right,Target,0,24,24,24,790.042796891692,792.0446646000637,None,0,2,,D18R04,2022-10-07_14h39.42.909,t1_Paradigm,2021.1.4,60.00860514057195,
F,right,Target,0,25,25,25,793.542564470743,795.5445916176395,right,1,2,0.5799975554837147,D18R04,2022-10-07_14h39.42.909,t1_Paradigm,2021.1.4,60.00860514057195,
H,left,Distractor,0,26,26,26,797.0429261748359,799.0416715187894,left,1,2,0.6828735761664575,D18R04,2022-10-07_14h39.42.909,t1_Paradigm,2021.1.4,60.00860514057195,
H,left,Lure,0,27,27,27,800.5416784160334,802.542734174931,left,1,2,0.5257387344900053,D18R04,2022-10-07_14h39.42.909,t1_Paradigm,2021.1.4,60.00860514057195,
P,left,Distractor,0,28,28,28,804.0426255835046,806.0443765200034,left,1,2,0.4483391927788034,D18R04,2022-10-07_14h39.42.909,t1_Paradigm,2021.1.4,60.00860514057195,
G,left,Pretarget,0,29,29,29,807.5426129118277,809.5449493117048,left,1,2,0.7395355238404591,D18R04,2022-10-07_14h39.42.909,t1_Paradigm,2021.1.4,60.00860514057195,
K,left,Distractor,0,30,30,30,811.042655738871,813.0451076274185,left,1,2,0.5992405337019591,D18R04,2022-10-07_14h39.42.909,t1_Paradigm,2021.1.4,60.00860514057195,
G,right,Target,0,31,31,31,814.5426023253676,816.544590976031,right,1,2,0.4442906734184362,D18R04,2022-10-07_14h39.42.909,t1_Paradigm,2021.1.4,60.00860514057195,
M,left,Pretarget,0,32,32,32,818.042655738871,820.0416769724252,left,1,2,0.8988521388964728,D18R04,2022-10-07_14h39.42.909,t1_Paradigm,2021.1.4,60.00860514057195,
B,left,Distractor,0,33,33,33,821.5425718491897,823.5448434470891,left,1,2,0.6116562069219071,D18R04,2022-10-07_14h39.42.909,t1_Paradigm,2021.1.4,60.00860514057195,
M,right,Target,0,34,34,34,825.0425931825157,827.0446899434028,right,1,2,0.4397805202024756,D18R04,2022-10-07_14h39.42.909,t1_Paradigm,2021.1.4,60.00860514057195,
M,left,Lure,0,35,35,35,828.5426732225751,830.5429731722979,left,1,2,0.6535792343638605,D18R04,2022-10-07_14h39.42.909,t1_Paradigm,2021.1.4,60.00860514057195,
T,left,Distractor,0,36,36,36,832.0424972627661,834.0446405399271,left,1,2,0.5438515277783154,D18R04,2022-10-07_14h39.42.909,t1_Paradigm,2021.1.4,60.00860514057195,
F,left,Distractor,0,37,37,37,835.5425959093263,837.5445341941086,left,1,2,0.5639151171199046,D18R04,2022-10-07_14h39.42.909,t1_Paradigm,2021.1.4,60.00860514057195,
X,left,Distractor,0,38,38,38,839.0426326411398,841.0451865446666,left,1,2,0.4871321565588005,D18R04,2022-10-07_14h39.42.909,t1_Paradigm,2021.1.4,60.00860514057195,
C,left,Distractor,0,39,39,39,842.5426138742332,844.5449714470305,left,1,2,0.4434514557797229,D18R04,2022-10-07_14h39.42.909,t1_Paradigm,2021.1.4,60.00860514057195,
R,left,Distractor,0,40,40,40,846.0425402502005,848.0445144647965,left,1,2,0.3998355569638079,D18R04,2022-10-07_14h39.42.909,t1_Paradigm,2021.1.4,60.00860514057195,
B,left,Pretarget,0,41,41,41,849.542734174931,851.5449432164751,left,1,2,0.4514978077932028,D18R04,2022-10-07_14h39.42.909,t1_Paradigm,2021.1.4,60.00860514057195,
H,left,Distractor,0,42,42,42,853.0425957489206,855.0416833884665,left,1,2,0.6828366839472437,D18R04,2022-10-07_14h39.42.909,t1_Paradigm,2021.1.4,60.00860514057195,
B,right,Target,0,43,43,43,856.5417579748901,858.5446474371565,right,1,2,0.5717847073101439,D18R04,2022-10-07_14h39.42.909,t1_Paradigm,2021.1.4,60.00860514057195,
W,left,Pretarget,0,44,44,44,860.0426583052904,862.0445045199449,left,1,2,0.6079352262604516,D18R04,2022-10-07_14h39.42.909,t1_Paradigm,2021.1.4,60.00860514057195,
L,left,Pretarget,0,45,45,45,863.5425153880642,865.545043948252,left,1,2,0.643695008548093,D18R04,2022-10-07_14h39.42.909,t1_Paradigm,2021.1.4,60.00860514057195,
W,right,Target,0,46,46,46,867.042584200055,869.0447217027977,right,1,2,0.40773177372466307,D18R04,2022-10-07_14h39.42.909,t1_Paradigm,2021.1.4,60.00860514057195,
L,right,Target,0,47,47,47,870.542662956912,872.5442262243305,left,0,2,0.6041532932431437,D18R04,2022-10-07_14h39.42.909,t1_Paradigm,2021.1.4,60.00860514057195,
W,right,Target,0,48,48,48,874.0425803504331,876.0441869261122,right,1,2,1.280286501714727,D18R04,2022-10-07_14h39.42.909,t1_Paradigm,2021.1.4,60.00860514057195,
X,left,Distractor,0,49,49,49,877.5425657539599,879.5416312581656,None,0,2,,D18R04,2022-10-07_14h39.42.909,t1_Paradigm,2021.1.4,60.00860514057195,
R,left,Distractor,0,50,50,50,881.0427266360784,883.0447480085422,left,1,2,0.551528636860894,D18R04,2022-10-07_14h39.42.909,t1_Paradigm,2021.1.4,60.00860514057195,
V,left,Pretarget,0,51,51,51,884.5427142852132,886.5446994070662,left,1,2,0.5077555451425724,D18R04,2022-10-07_14h39.42.909,t1_Paradigm,2021.1.4,60.00860514057195,
Z,left,Distractor,0,52,52,52,888.0425659143511,890.0448131313169,left,1,2,0.6395938776840921,D18R04,2022-10-07_14h39.42.909,t1_Paradigm,2021.1.4,60.00860514057195,
V,right,Target,0,53,53,53,891.5426475584245,893.5447391864873,right,1,2,0.4355616550601553,D18R04,2022-10-07_14h39.42.909,t1_Paradigm,2021.1.4,60.00860514057195,
V,left,Lure,0,54,54,54,895.0426653629256,897.0425630271347,left,1,2,0.8738520506740315,D18R04,2022-10-07_14h39.42.909,t1_Paradigm,2021.1.4,60.00860514057195,
N,left,Distractor,0,55,55,55,898.5426206110715,900.5419077893603,left,1,2,0.6548964467656333,D18R04,2022-10-07_14h39.42.909,t1_Paradigm,2021.1.4,60.00860514057195,
B,left,Distractor,0,56,56,56,902.0425059244153,904.0445029159309,left,1,2,0.5919288179138675,D18R04,2022-10-07_14h39.42.909,t1_Paradigm,2021.1.4,60.00860514057195,
V,left,Lure,0,57,57,57,905.5425323905656,907.5447452817316,left,1,2,1.0276755756640341,D18R04,2022-10-07_14h39.42.909,t1_Paradigm,2021.1.4,60.00860514057195,
J,left,Distractor,0,58,58,58,909.0425909368932,911.0443861440581,left,1,2,0.5197795193089405,D18R04,2022-10-07_14h39.42.909,t1_Paradigm,2021.1.4,60.00860514057195,
H,left,Distractor,0,59,59,59,912.5425734532037,914.5449345548259,left,1,2,0.4593208817386767,D18R04,2022-10-07_14h39.42.909,t1_Paradigm,2021.1.4,60.00860514057195,
X,left,Pretarget,0,60,60,60,916.0425505158637,918.0448602891847,left,1,2,0.4477264612505678,D18R04,2022-10-07_14h39.42.909,t1_Paradigm,2021.1.4,60.00860514057195,
P,left,Distractor,0,61,61,61,919.54257634042,921.5446795173484,left,1,2,0.43561747459170874,D18R04,2022-10-07_14h39.42.909,t1_Paradigm,2021.1.4,60.00860514057195,
X,right,Target,0,62,62,62,923.0426178842608,925.0444618532929,right,1,2,0.5358337271172786,D18R04,2022-10-07_14h39.42.909,t1_Paradigm,2021.1.4,60.00860514057195,
Q,left,Distractor,0,63,63,63,926.5425381649984,928.5442544549005,left,1,2,0.49213153260643594,D18R04,2022-10-07_14h39.42.909,t1_Paradigm,2021.1.4,60.00860514057195,
B,left,Pretarget,0,0,0,0,944.2743728404021,946.2778246683156,None,0,2,,D18R04,2022-10-07_14h39.42.909,t1_Paradigm,2021.1.4,60.00860514057195,
F,left,Distractor,0,1,1,1,947.7750210205413,949.776057531315,left,1,2,0.5722392835305072,D18R04,2022-10-07_14h39.42.909,t1_Paradigm,2021.1.4,60.00860514057195,
B,right,Target,0,2,2,2,951.2760442180443,953.2778455204389,right,1,2,0.5425105760368751,D18R04,2022-10-07_14h39.42.909,t1_Paradigm,2021.1.4,60.00860514057195,
V,left,Distractor,0,3,3,3,954.7759644987818,956.7775255205925,left,1,2,0.450716334496974,D18R04,2022-10-07_14h39.42.909,t1_Paradigm,2021.1.4,60.00860514057195,
G,left,Pretarget,0,4,4,4,958.2759069148597,960.2781198060256,left,1,2,0.43823425528535154,D18R04,2022-10-07_14h39.42.909,t1_Paradigm,2021.1.4,60.00860514057195,
B,left,Lure,0,5,5,5,961.7758281580027,963.7775900017587,left,1,2,0.7312042997655226,D18R04,2022-10-07_14h39.42.909,t1_Paradigm,2021.1.4,60.00860514057195,
G,right,Target,0,6,6,6,965.2758587945718,967.2777855304885,right,1,2,0.39855972801160533,D18R04,2022-10-07_14h39.42.909,t1_Paradigm,2021.1.4,60.00860514057195,
Y,left,Pretarget,0,7,7,7,968.7757556567813,970.7779756055825,left,1,2,0.4502717031282373,D18R04,2022-10-07_14h39.42.909,t1_Paradigm,2021.1.4,60.00860514057195,
P,left,Distractor,0,8,8,8,972.2759460526722,974.2772959868598,left,1,2,0.6151574383256957,D18R04,2022-10-07_14h39.42.909,t1_Paradigm,2021.1.4,60.00860514057195,
Y,right,Target,0,9,9,9,975.7758021730551,977.7778248287214,right,1,2,0.4108624789805617,D18R04,2022-10-07_14h39.42.909,t1_Paradigm,2021.1.4,60.00860514057195,
X,left,Distractor,0,10,10,10,979.2757997670415,981.2773935106234,left,1,2,0.6548970883741276,D18R04,2022-10-07_14h39.42.909,t1_Paradigm,2021.1.4,60.00860514057195,
Y,right,Target,0,11,11,11,982.7758592757746,984.7779948536918,right,1,2,0.6261923803685931,D18R04,2022-10-07_14h39.42.909,t1_Paradigm,2021.1.4,60.00860514057195,
N,left,Distractor,0,12,12,12,986.2759268045629,988.2778442372364,left,1,2,0.5824186470563291,D18R04,2022-10-07_14h39.42.909,t1_Paradigm,2021.1.4,60.00860514057195,
Y,right,Target,0,13,13,13,989.7759080376563,991.7776737310487,right,1,2,1.2264960514003178,D18R04,2022-10-07_14h39.42.909,t1_Paradigm,2021.1.4,60.00860514057195,
Y,left,Lure,0,14,14,14,993.2757843685395,995.2758870251419,left,1,2,0.8166553263145033,D18R04,2022-10-07_14h39.42.909,t1_Paradigm,2021.1.4,60.00860514057195,
K,left,Distractor,0,15,15,15,996.7758259123802,998.7780070441659,left,1,2,0.9144883418921381,D18R04,2022-10-07_14h39.42.909,t1_Paradigm,2021.1.4,60.00860514057195,
T,left,Pretarget,0,16,16,16,1000.2759296917793,1002.2781188436202,left,1,2,0.5501196751283715,D18R04,2022-10-07_14h39.42.909,t1_Paradigm,2021.1.4,60.00860514057195,
J,left,Distractor,0,17,17,17,1003.775847085315,1005.7771662225132,left,1,2,0.50717136496678,D18R04,2022-10-07_14h39.42.909,t1_Paradigm,2021.1.4,60.00860514057195,
T,right,Target,0,18,18,18,1007.2757571003895,1009.2782028936927,right,1,2,0.41427484826999716,D18R04,2022-10-07_14h39.42.909,t1_Paradigm,2021.1.4,60.00860514057195,
S,left,Pretarget,0,19,19,19,1010.7758249499748,1012.7781607082579,left,1,2,0.5302476045035291,D18R04,2022-10-07_14h39.42.909,t1_Paradigm,2021.1.4,60.00860514057195,
R,left,Distractor,0,20,20,20,1014.2758626441937,1016.2778801670356,left,1,2,0.4064809673000127,D18R04,2022-10-07_14h39.42.909,t1_Paradigm,2021.1.4,60.00860514057195,
S,right,Target,0,21,21,21,1017.7926433077955,1019.7775142925238,right,1,2,0.4110533560888143,D18R04,2022-10-07_14h39.42.909,t1_Paradigm,2021.1.4,60.00860514057195,
Q,left,Distractor,0,22,22,22,1021.2758103535016,1023.278150282189,left,1,2,0.5105612781335367,D18R04,2022-10-07_14h39.42.909,t1_Paradigm,2021.1.4,60.00860514057195,
D,left,Distractor,0,23,23,23,1024.775833290827,1026.7781857308,left,1,2,0.5462642784987111,D18R04,2022-10-07_14h39.42.909,t1_Paradigm,2021.1.4,60.00860514057195,
F,left,Distractor,0,24,24,24,1028.275840508868,1030.2775911245699,left,1,2,0.4067247767088702,D18R04,2022-10-07_14h39.42.909,t1_Paradigm,2021.1.4,60.00860514057195,
Z,left,Distractor,0,25,25,25,1031.775820458759,1033.7772351949097,left,1,2,0.42694523817044683,D18R04,2022-10-07_14h39.42.909,t1_Paradigm,2021.1.4,60.00860514057195,
P,left,Distractor,0,26,26,26,1035.274996158405,1037.27825261798,left,1,2,0.4461532489658566,D18R04,2022-10-07_14h39.42.909,t1_Paradigm,2021.1.4,60.00860514057195,
H,left,Distractor,0,27,27,27,1038.7757826041343,1040.777906633186,left,1,2,0.5144959128228948,D18R04,2022-10-07_14h39.42.909,t1_Paradigm,2021.1.4,60.00860514057195,
Z,left,Pretarget,0,28,28,28,1042.2758235063666,1044.2779199464712,right,0,2,0.5983329852606403,D18R04,2022-10-07_14h39.42.909,t1_Paradigm,2021.1.4,60.00860514057195,
J,left,Pretarget,0,29,29,29,1045.7757931905944,1047.7779682271503,left,1,2,0.7783964976115385,D18R04,2022-10-07_14h39.42.909,t1_Paradigm,2021.1.4,60.00860514057195,
Z,right,Target,0,30,30,30,1049.2755270854686,1051.277726823755,right,1,2,0.39855363276728895,D18R04,2022-10-07_14h39.42.909,t1_Paradigm,2021.1.4,60.00860514057195,
J,right,Target,0,31,31,31,1052.775847726909,1054.7776317060052,right,1,2,0.45057036964863073,D18R04,2022-10-07_14h39.42.909,t1_Paradigm,2021.1.4,60.00860514057195,
V,left,Pretarget,0,32,32,32,1056.275896007588,1058.2780999163078,left,1,2,0.4861447284783935,D18R04,2022-10-07_14h39.42.909,t1_Paradigm,2021.1.4,60.00860514057195,
Z,left,Lure,0,33,33,33,1059.7758916767634,1061.7776615405746,left,1,2,0.5226349765871419,D18R04,2022-10-07_14h39.42.909,t1_Paradigm,2021.1.4,60.00860514057195,
V,right,Target,0,34,34,34,1063.2758324888273,1065.2749919879716,right,1,2,0.41713062634516973,D18R04,2022-10-07_14h39.42.909,t1_Paradigm,2021.1.4,60.00860514057195,
X,left,Distractor,0,35,35,35,1066.7758672958298,1068.7779435254051,left,1,2,0.6106354154326255,D18R04,2022-10-07_14h39.42.909,t1_Paradigm,2021.1.4,60.00860514057195,
S,left,Distractor,0,36,36,36,1070.2758860627364,1072.2781056907406,left,1,2,0.5341123043908738,D18R04,2022-10-07_14h39.42.909,t1_Paradigm,2021.1.4,60.00860514057195,
Q,left,Distractor,0,37,37,37,1073.7757527695649,1075.7777600267436,left,1,2,0.6024408529629,D18R04,2022-10-07_14h39.42.909,t1_Paradigm,2021.1.4,60.00860514057195,
P,left,Distractor,0,38,38,38,1077.2758459625038,1079.2776296207885,left,1,2,0.5265086589206476,D18R04,2022-10-07_14h39.42.909,t1_Paradigm,2021.1.4,60.00860514057195,
S,left,Lure,0,39,39,39,1080.7757530903618,1082.7775306534168,left,1,2,0.5948015984904487,D18R04,2022-10-07_14h39.42.909,t1_Paradigm,2021.1.4,60.00860514057195,
K,left,Pretarget,0,40,40,40,1084.2758719474514,1086.2778484076553,left,1,2,0.4063651578471763,D18R04,2022-10-07_14h39.42.909,t1_Paradigm,2021.1.4,60.00860514057195,
L,left,Distractor,0,41,41,41,1087.7758663334243,1089.7782713848865,left,1,2,0.4258378301747143,D18R04,2022-10-07_14h39.42.909,t1_Paradigm,2021.1.4,60.00860514057195,
K,right,Target,0,42,42,42,1091.2758061830682,1093.2780883674423,right,1,2,0.4305433517147321,D18R04,2022-10-07_14h39.42.909,t1_Paradigm,2021.1.4,60.00860514057195,
B,left,Distractor,0,43,43,43,1094.7757598272,1096.7782819713611,left,1,2,0.4180375331779942,D18R04,2022-10-07_14h39.42.909,t1_Paradigm,2021.1.4,60.00860514057195,
N,left,Distractor,0,44,44,44,1098.2759011404269,1100.2776151847065,left,1,2,0.43867792424862273,D18R04,2022-10-07_14h39.42.909,t1_Paradigm,2021.1.4,60.00860514057195,
S,left,Pretarget,0,45,45,45,1101.775876599073,1103.7778553048993,left,1,2,0.39450703823240474,D18R04,2022-10-07_14h39.42.909,t1_Paradigm,2021.1.4,60.00860514057195,
Z,left,Distractor,0,46,46,46,1105.2758068246767,1107.2775840669347,left,1,2,0.3984875476016896,D18R04,2022-10-07_14h39.42.909,t1_Paradigm,2021.1.4,60.00860514057195,
S,right,Target,0,47,47,47,1108.775789982581,1110.7773372099036,right,1,2,0.4348459461325547,D18R04,2022-10-07_14h39.42.909,t1_Paradigm,2021.1.4,60.00860514057195,
C,left,Distractor,0,48,48,48,1112.2757699324575,1114.277661059372,left,1,2,0.4386484104761621,D18R04,2022-10-07_14h39.42.909,t1_Paradigm,2021.1.4,60.00860514057195,
T,left,Pretarget,0,49,49,49,1115.7757518071594,1117.7780699213326,left,1,2,0.5062602877151221,D18R04,2022-10-07_14h39.42.909,t1_Paradigm,2021.1.4,60.00860514057195,
S,left,Lure,0,50,50,50,1119.2757808397291,1121.2777258613496,left,1,2,0.49463507025211584,D18R04,2022-10-07_14h39.42.909,t1_Paradigm,2021.1.4,60.00860514057195,
T,right,Target,0,51,51,51,1122.7757877369586,1124.7780516356288,right,1,2,0.514276484362199,D18R04,2022-10-07_14h39.42.909,t1_Paradigm,2021.1.4,60.00860514057195,
N,left,Pretarget,0,52,52,52,1126.275700639264,1128.276361811877,left,1,2,0.4399136529827956,D18R04,2022-10-07_14h39.42.909,t1_Paradigm,2021.1.4,60.00860514057195,
B,left,Distractor,0,53,53,53,1129.77584965172,1131.7777718964062,left,1,2,0.4425057319313055,D18R04,2022-10-07_14h39.42.909,t1_Paradigm,2021.1.4,60.00860514057195,
N,right,Target,0,54,54,54,1133.2757102633186,1135.2774881471705,right,1,2,0.4148320810927544,D18R04,2022-10-07_14h39.42.909,t1_Paradigm,2021.1.4,60.00860514057195,
N,left,Lure,0,55,55,55,1136.775751165551,1138.7757425039017,left,1,2,0.42069120609085076,D18R04,2022-10-07_14h39.42.909,t1_Paradigm,2021.1.4,60.00860514057195,
X,left,Distractor,0,56,56,56,1140.275672087897,1142.2775721972575,left,1,2,0.50260218422045,D18R04,2022-10-07_14h39.42.909,t1_Paradigm,2021.1.4,60.00860514057195,
W,left,Distractor,0,57,57,57,1143.7760562481126,1145.7767135711038,left,1,2,0.5075967482262058,D18R04,2022-10-07_14h39.42.909,t1_Paradigm,2021.1.4,60.00860514057195,
S,left,Distractor,0,58,58,58,1147.2757330402528,1149.2778493700607,left,1,2,0.4944583084434271,D18R04,2022-10-07_14h39.42.909,t1_Paradigm,2021.1.4,60.00860514057195,
L,left,Distractor,0,59,59,59,1150.7757255014003,1152.7777250593354,left,1,2,0.5786264483758714,D18R04,2022-10-07_14h39.42.909,t1_Paradigm,2021.1.4,60.00860514057195,
K,left,Pretarget,0,60,60,60,1154.2758125991095,1156.2778856206714,left,1,2,0.5182361415936612,D18R04,2022-10-07_14h39.42.909,t1_Paradigm,2021.1.4,60.00860514057195,
V,left,Pretarget,0,61,61,61,1157.774829822636,1159.777492477995,left,1,2,0.5708325674204389,D18R04,2022-10-07_14h39.42.909,t1_Paradigm,2021.1.4,60.00860514057195,
K,right,Target,0,62,62,62,1161.2757250201976,1163.2780424927769,right,1,2,0.43032424405100755,D18R04,2022-10-07_14h39.42.909,t1_Paradigm,2021.1.4,60.00860514057195,
V,right,Target,0,63,63,63,1164.7756998372643,1166.774872489288,right,1,2,0.43730649632925633,D18R04,2022-10-07_14h39.42.909,t1_Paradigm,2021.1.4,60.00860514057195,
R,left,Distractor,0,0,0,0,1263.6563185613777,1265.6609480528714,left,1,3,0.39917053472890984,D18R04,2022-10-07_14h39.42.909,t1_Paradigm,2021.1.4,60.00860514057195,
P,left,Lure,0,1,1,1,1267.1591180387186,1269.161360764454,left,1,3,0.4026207586430246,D18R04,2022-10-07_14h39.42.909,t1_Paradigm,2021.1.4,60.00860514057195,
V,left,Distractor,0,2,2,2,1270.6589112819347,1272.6611305891274,left,1,3,0.3751601202238817,D18R04,2022-10-07_14h39.42.909,t1_Paradigm,2021.1.4,60.00860514057195,
P,left,Pretarget,0,3,3,3,1274.1590144197253,1276.1608872609213,left,1,3,0.7476585474942112,D18R04,2022-10-07_14h39.42.909,t1_Paradigm,2021.1.4,60.00860514057195,
Z,left,Distractor,0,4,4,4,1277.6590476227138,1279.6613217870326,left,1,3,1.3749788671702845,D18R04,2022-10-07_14h39.42.909,t1_Paradigm,2021.1.4,60.00860514057195,
L,left,Pretarget,0,5,5,5,1281.1590728056617,1283.1612436717842,left,1,3,0.8668486254755408,D18R04,2022-10-07_14h39.42.909,t1_Paradigm,2021.1.4,60.00860514057195,
P,right,Target,0,6,6,6,1284.675669970602,1286.66064746154,right,1,3,0.5674596567550907,D18R04,2022-10-07_14h39.42.909,t1_Paradigm,2021.1.4,60.00860514057195,
S,left,Distractor,0,7,7,7,1288.1589143295423,1290.1610537570814,left,1,3,0.7151356558752013,D18R04,2022-10-07_14h39.42.909,t1_Paradigm,2021.1.4,60.00860514057195,
L,right,Target,0,8,8,8,1291.6589966152242,1293.661195711902,left,0,3,1.2470604124391684,D18R04,2022-10-07_14h39.42.909,t1_Paradigm,2021.1.4,60.00860514057195,
D,left,Distractor,0,9,9,9,1295.1589762443036,1297.161038037797,None,0,3,,D18R04,2022-10-07_14h39.42.909,t1_Paradigm,2021.1.4,60.00860514057195,
G,left,Distractor,0,10,10,10,1298.6589250764082,1300.6610516718792,left,1,3,0.6791914125205949,D18R04,2022-10-07_14h39.42.909,t1_Paradigm,2021.1.4,60.00860514057195,
M,left,Pretarget,0,11,11,11,1302.1590789008915,1304.1609042634227,left,1,3,0.95527765560837,D18R04,2022-10-07_14h39.42.909,t1_Paradigm,2021.1.4,60.00860514057195,
Y,left,Distractor,0,12,12,12,1305.6589671014517,1307.6612361329462,left,1,3,0.7988476155878743,D18R04,2022-10-07_14h39.42.909,t1_Paradigm,2021.1.4,60.00860514057195,
V,left,Distractor,0,13,13,13,1309.1589707906678,1311.1611387695739,left,1,3,0.8829281766375061,D18R04,2022-10-07_14h39.42.909,t1_Paradigm,2021.1.4,60.00860514057195,
M,right,Target,0,14,14,14,1312.6590636628098,1314.6607148299372,right,1,3,0.7754550654353807,D18R04,2022-10-07_14h39.42.909,t1_Paradigm,2021.1.4,60.00860514057195,
S,left,Pretarget,0,15,15,15,1316.1589614874247,1318.1608789200836,left,1,3,0.8113473388948478,D18R04,2022-10-07_14h39.42.909,t1_Paradigm,2021.1.4,60.00860514057195,
Q,left,Distractor,0,16,16,16,1319.6589138483396,1321.6609079526534,left,1,3,0.3991297928878339,D18R04,2022-10-07_14h39.42.909,t1_Paradigm,2021.1.4,60.00860514057195,
R,left,Pretarget,0,17,17,17,1323.1590012668457,1325.161048624257,left,1,3,0.7231540981301805,D18R04,2022-10-07_14h39.42.909,t1_Paradigm,2021.1.4,60.00860514057195,
S,right,Target,0,18,18,18,1326.6588965250412,1328.661311842181,left,0,3,1.3827326479076874,D18R04,2022-10-07_14h39.42.909,t1_Paradigm,2021.1.4,60.00860514057195,
F,left,Distractor,0,19,19,19,1330.1588921942166,1332.1608862985158,left,1,3,0.8912504182371777,D18R04,2022-10-07_14h39.42.909,t1_Paradigm,2021.1.4,60.00860514057195,
R,right,Target,0,20,20,20,1333.6588692568912,1335.6610978673416,left,0,3,1.1350084964360576,D18R04,2022-10-07_14h39.42.909,t1_Paradigm,2021.1.4,60.00860514057195,
P,left,Distractor,0,21,21,21,1337.15906286081,1339.1606813061371,left,1,3,0.7234941481001442,D18R04,2022-10-07_14h39.42.909,t1_Paradigm,2021.1.4,60.00860514057195,
L,left,Distractor,0,22,22,22,1340.6589674222487,1342.6606086445245,left,1,3,0.48753283808764536,D18R04,2022-10-07_14h39.42.909,t1_Paradigm,2021.1.4,60.00860514057195,
R,right,Target,0,23,23,23,1344.158925878408,1346.1605975768616,right,1,3,0.49149730734643526,D18R04,2022-10-07_14h39.42.909,t1_Paradigm,2021.1.4,60.00860514057195,
H,left,Pretarget,0,24,24,24,1347.6588994122576,1349.6613044637343,left,1,3,0.5749141293636058,D18R04,2022-10-07_14h39.42.909,t1_Paradigm,2021.1.4,60.00860514057195,
G,left,Pretarget,0,25,25,25,1351.1591276627732,1353.1613780877524,left,1,3,0.5472080775361974,D18R04,2022-10-07_14h39.42.909,t1_Paradigm,2021.1.4,60.00860514057195,
T,left,Distractor,0,26,26,26,1354.6588602744305,1356.6611116618296,left,1,3,0.5189531337382505,D18R04,2022-10-07_14h39.42.909,t1_Paradigm,2021.1.4,60.00860514057195,
H,right,Target,0,27,27,27,1358.158052655781,1360.1611281831138,right,1,3,0.9230428440496325,D18R04,2022-10-07_14h39.42.909,t1_Paradigm,2021.1.4,60.00860514057195,
G,right,Target,0,28,28,28,1361.6588981290552,1363.6607574965747,right,1,3,0.8153060337353963,D18R04,2022-10-07_14h39.42.909,t1_Paradigm,2021.1.4,60.00860514057195,
D,left,Distractor,0,29,29,29,1365.1589374272735,1367.1606383186881,left,1,3,0.7395393734623212,D18R04,2022-10-07_14h39.42.909,t1_Paradigm,2021.1.4,60.00860514057195,
N,left,Pretarget,0,30,30,30,1368.659141938464,1370.6611411755875,left,1,3,0.48692684338311665,D18R04,2022-10-07_14h39.42.909,t1_Paradigm,2021.1.4,60.00860514057195,
V,left,Distractor,0,31,31,31,1372.1588995726634,1374.1607255767885,left,1,3,0.5394478807575069,D18R04,2022-10-07_14h39.42.909,t1_Paradigm,2021.1.4,60.00860514057195,
R,left,Distractor,0,32,32,32,1375.6591797930741,1377.6607103387068,left,1,3,0.39935692062135786,D18R04,2022-10-07_14h39.42.909,t1_Paradigm,2021.1.4,60.00860514057195,
N,right,Target,0,33,33,33,1379.1589290864358,1381.1605905192118,right,1,3,0.43546028167475015,D18R04,2022-10-07_14h39.42.909,t1_Paradigm,2021.1.4,60.00860514057195,
Z,left,Distractor,0,34,34,34,1382.6589725550875,1384.6753982514347,left,1,3,0.5046524288336514,D18R04,2022-10-07_14h39.42.909,t1_Paradigm,2021.1.4,60.00860514057195,
N,left,Lure,0,35,35,35,1386.1591404948558,1388.1609350603976,left,1,3,0.84309773966379,D18R04,2022-10-07_14h39.42.909,t1_Paradigm,2021.1.4,60.00860514057195,
Y,left,Pretarget,0,36,36,36,1389.6589407956926,1391.6606179477676,left,1,3,0.7994475150480866,D18R04,2022-10-07_14h39.42.909,t1_Paradigm,2021.1.4,60.00860514057195,
Y,left,Lure,0,37,37,37,1393.1590333470376,1395.1589865099668,left,1,3,0.7411838037369307,D18R04,2022-10-07_14h39.42.909,t1_Paradigm,2021.1.4,60.00860514057195,
B,left,Distractor,0,38,38,38,1396.658903582691,1398.6609942483483,left,1,3,0.7274550885485951,D18R04,2022-10-07_14h39.42.909,t1_Paradigm,2021.1.4,60.00860514057195,
Y,right,Target,0,39,39,39,1400.1589300488413,1402.160927040357,right,1,3,0.4589728117280174,D18R04,2022-10-07_14h39.42.909,t1_Paradigm,2021.1.4,60.00860514057195,
J,left,Distractor,0,40,40,40,1403.6590136177256,1405.6610824688541,left,1,3,0.591062652922119,D18R04,2022-10-07_14h39.42.909,t1_Paradigm,2021.1.4,60.00860514057195,
X,left,Distractor,0,41,41,41,1407.1589316528407,1409.161290508855,left,1,3,0.48265921635902487,D18R04,2022-10-07_14h39.42.909,t1_Paradigm,2021.1.4,60.00860514057195,
W,left,Pretarget,0,42,42,42,1410.6590248457796,1412.6609474112774,left,1,3,0.6474920192558784,D18R04,2022-10-07_14h39.42.909,t1_Paradigm,2021.1.4,60.00860514057195,
S,left,Pretarget,0,43,43,43,1414.1588350914826,1416.1604599528655,left,1,3,1.051555744605139,D18R04,2022-10-07_14h39.42.909,t1_Paradigm,2021.1.4,60.00860514057195,
R,left,Distractor,0,44,44,44,1417.6587691667082,1419.6603337173292,left,1,3,0.8799293209303869,D18R04,2022-10-07_14h39.42.909,t1_Paradigm,2021.1.4,60.00860514057195,
W,right,Target,0,45,45,45,1421.1588347706856,1423.1610274513368,right,1,3,0.4349787581159035,D18R04,2022-10-07_14h39.42.909,t1_Paradigm,2021.1.4,60.00860514057195,
S,right,Target,0,46,46,46,1424.6589853871556,1426.660421617038,right,1,3,0.6639552494307281,D18R04,2022-10-07_14h39.42.909,t1_Paradigm,2021.1.4,60.00860514057195,
D,left,Distractor,0,47,47,47,1428.1587064499472,1430.1606225994037,left,1,3,0.49137059062195476,D18R04,2022-10-07_14h39.42.909,t1_Paradigm,2021.1.4,60.00860514057195,
T,left,Distractor,0,48,48,48,1431.6589202643809,1433.660595812442,left,1,3,0.44784900755621493,D18R04,2022-10-07_14h39.42.909,t1_Paradigm,2021.1.4,60.00860514057195,
S,right,Target,0,49,49,49,1435.1589977380208,1437.1608044940513,right,1,3,1.0913268332369626,D18R04,2022-10-07_14h39.42.909,t1_Paradigm,2021.1.4,60.00860514057195,
K,left,Distractor,0,50,50,50,1438.6588663696748,1440.660622438998,left,1,3,1.2394856391474605,D18R04,2022-10-07_14h39.42.909,t1_Paradigm,2021.1.4,60.00860514057195,
S,left,Lure,0,51,51,51,1442.1588748709182,1444.1605610054394,left,1,3,0.9395660641603172,D18R04,2022-10-07_14h39.42.909,t1_Paradigm,2021.1.4,60.00860514057195,
T,left,Pretarget,0,52,52,52,1445.6588721441076,1447.6606134565518,left,1,3,0.6874995388498064,D18R04,2022-10-07_14h39.42.909,t1_Paradigm,2021.1.4,60.00860514057195,
V,left,Distractor,0,53,53,53,1449.158977206709,1451.161319381019,left,1,3,0.45064864530286286,D18R04,2022-10-07_14h39.42.909,t1_Paradigm,2021.1.4,60.00860514057195,
B,left,Distractor,0,54,54,54,1452.6588368559023,1454.6608700980287,left,1,3,0.407243834095425,D18R04,2022-10-07_14h39.42.909,t1_Paradigm,2021.1.4,60.00860514057195,
T,right,Target,0,55,55,55,1456.1586990715005,1458.1605661382782,left,0,3,0.7316380238771671,D18R04,2022-10-07_14h39.42.909,t1_Paradigm,2021.1.4,60.00860514057195,
Y,left,Pretarget,0,56,56,56,1459.6588358934969,1461.6596683742973,left,1,3,0.8003653291525552,D18R04,2022-10-07_14h39.42.909,t1_Paradigm,2021.1.4,60.00860514057195,
T,left,Lure,0,57,57,57,1463.1590124949144,1465.1609485340741,right,0,3,0.979259518760955,D18R04,2022-10-07_14h39.42.909,t1_Paradigm,2021.1.4,60.00860514057195,
P,left,Pretarget,0,58,58,58,1466.6587255376508,1468.661185125442,left,1,3,0.5828225365839899,D18R04,2022-10-07_14h39.42.909,t1_Paradigm,2021.1.4,60.00860514057195,
Y,right,Target,0,59,59,59,1470.1588819285535,1472.1608324038098,right,1,3,0.9232895406748867,D18R04,2022-10-07_14h39.42.909,t1_Paradigm,2021.1.4,60.00860514057195,
R,left,Distractor,0,60,60,60,1473.6589420789096,1475.6612265088916,left,1,3,0.6869079802418128,D18R04,2022-10-07_14h39.42.909,t1_Paradigm,2021.1.4,60.00860514057195,
P,right,Target,0,61,61,61,1477.1589945300075,1479.161189777078,left,0,3,0.8188435157353524,D18R04,2022-10-07_14h39.42.909,t1_Paradigm,2021.1.4,60.00860514057195,
L,left,Distractor,0,62,62,62,1480.6589176979614,1482.6610215164983,left,1,3,0.6473098038113676,D18R04,2022-10-07_14h39.42.909,t1_Paradigm,2021.1.4,60.00860514057195,
V,left,Distractor,0,63,63,63,1484.158769327114,1486.1605064691248,left,1,3,0.4754706884996267,D18R04,2022-10-07_14h39.42.909,t1_Paradigm,2021.1.4,60.00860514057195,
H,left,Lure,0,0,0,0,1518.2264328534511,1520.2272428781143,left,1,3,0.952772193151759,D18R04,2022-10-07_14h39.42.909,t1_Paradigm,2021.1.4,60.00860514057195,
B,left,Distractor,0,1,1,1,1521.7254452649504,1523.7275166824984,left,1,3,0.3648553231760161,D18R04,2022-10-07_14h39.42.909,t1_Paradigm,2021.1.4,60.00860514057195,
T,left,Distractor,0,2,2,2,1525.2255413451057,1527.2277353089594,left,1,3,0.36807456974929664,D18R04,2022-10-07_14h39.42.909,t1_Paradigm,2021.1.4,60.00860514057195,
R,left,Distractor,0,3,3,3,1528.7255594704038,1530.7383732587332,left,1,3,0.6338297100446653,D18R04,2022-10-07_14h39.42.909,t1_Paradigm,2021.1.4,60.00860514057195,
H,left,Pretarget,0,4,4,4,1532.2255958814203,1534.2276374643989,left,1,3,0.37628741792286746,D18R04,2022-10-07_14h39.42.909,t1_Paradigm,2021.1.4,60.00860514057195,
K,left,Distractor,0,5,5,5,1535.7253615356603,1537.7277082012006,left,1,3,0.4762479913770221,D18R04,2022-10-07_14h39.42.909,t1_Paradigm,2021.1.4,60.00860514057195,
G,left,Distractor,0,6,6,6,1539.2254823175608,1541.2277231184853,left,1,3,0.5123985103273299,D18R04,2022-10-07_14h39.42.909,t1_Paradigm,2021.1.4,60.00860514057195,
H,right,Target,0,7,7,7,1542.7256464077072,1544.7267473996617,right,1,3,0.7096111271966947,D18R04,2022-10-07_14h39.42.909,t1_Paradigm,2021.1.4,60.00860514057195,
Y,left,Pretarget,0,8,8,8,1546.2254197612056,1548.2277147776476,left,1,3,0.6644669283705298,D18R04,2022-10-07_14h39.42.909,t1_Paradigm,2021.1.4,60.00860514057195,
S,left,Distractor,0,9,9,9,1549.7255110293336,1551.7276280007354,left,1,3,0.3645136692066444,D18R04,2022-10-07_14h39.42.909,t1_Paradigm,2021.1.4,60.00860514057195,
P,left,Distractor,0,10,10,10,1553.2254531245999,1555.2275024068222,left,1,3,0.4646263027389068,D18R04,2022-10-07_14h39.42.909,t1_Paradigm,2021.1.4,60.00860514057195,
Y,right,Target,0,11,11,11,1556.7255495255522,1558.7276254343305,left,0,3,0.9642588242131751,D18R04,2022-10-07_14h39.42.909,t1_Paradigm,2021.1.4,60.00860514057195,
H,left,Lure,0,12,12,12,1560.2246427791251,1562.2275447526627,left,1,3,0.5204698848829139,D18R04,2022-10-07_14h39.42.909,t1_Paradigm,2021.1.4,60.00860514057195,
Q,left,Distractor,0,13,13,13,1563.7255415055115,1565.7275603115559,left,1,3,1.0524357040849281,D18R04,2022-10-07_14h39.42.909,t1_Paradigm,2021.1.4,60.00860514057195,
V,left,Pretarget,0,14,14,14,1567.2254675606819,1569.2271864169888,left,1,3,0.8007801259373082,D18R04,2022-10-07_14h39.42.909,t1_Paradigm,2021.1.4,60.00860514057195,
G,left,Distractor,0,15,15,15,1570.7254786283447,1572.7271541764057,left,1,3,1.0290309634729056,D18R04,2022-10-07_14h39.42.909,t1_Paradigm,2021.1.4,60.00860514057195,
Z,left,Pretarget,0,16,16,16,1574.225560914012,1576.227269825482,left,1,3,0.8088344979914837,D18R04,2022-10-07_14h39.42.909,t1_Paradigm,2021.1.4,60.00860514057195,
V,right,Target,0,17,17,17,1577.7254343576933,1579.7278458251967,right,1,3,0.8442721952451393,D18R04,2022-10-07_14h39.42.909,t1_Paradigm,2021.1.4,60.00860514057195,
N,left,Distractor,0,18,18,18,1581.2255099065223,1583.2276146874647,left,1,3,0.8644977895164629,D18R04,2022-10-07_14h39.42.909,t1_Paradigm,2021.1.4,60.00860514057195,
Z,right,Target,0,19,19,19,1584.7256005330419,1586.727752151055,right,1,3,0.4362093540112255,D18R04,2022-10-07_14h39.42.909,t1_Paradigm,2021.1.4,60.00860514057195,
R,left,Distractor,0,20,20,20,1588.2254688438843,1590.2262281818694,left,1,3,0.5696658110828139,D18R04,2022-10-07_14h39.42.909,t1_Paradigm,2021.1.4,60.00860514057195,
P,left,Distractor,0,21,21,21,1591.7254311496654,1593.7273681512452,left,1,3,0.8446975784900133,D18R04,2022-10-07_14h39.42.909,t1_Paradigm,2021.1.4,60.00860514057195,
Z,right,Target,0,22,22,22,1595.2252356209356,1597.2276958503353,right,1,3,0.5283792545087636,D18R04,2022-10-07_14h39.42.909,t1_Paradigm,2021.1.4,60.00860514057195,
D,left,Pretarget,0,23,23,23,1598.7254285832605,1600.7268975349289,left,1,3,0.4850677966605872,D18R04,2022-10-07_14h39.42.909,t1_Paradigm,2021.1.4,60.00860514057195,
K,left,Distractor,0,24,24,24,1602.2246334758674,1604.227296772835,left,1,3,0.6326594248821493,D18R04,2022-10-07_14h39.42.909,t1_Paradigm,2021.1.4,60.00860514057195,
W,left,Distractor,0,25,25,25,1605.7255148789554,1607.7271971638547,left,1,3,0.41290726997249294,D18R04,2022-10-07_14h39.42.909,t1_Paradigm,2021.1.4,60.00860514057195,
D,right,Target,0,26,26,26,1609.2253190294286,1611.2275466774736,right,1,3,0.36818396317539737,D18R04,2022-10-07_14h39.42.909,t1_Paradigm,2021.1.4,60.00860514057195,
G,left,Pretarget,0,27,27,27,1612.7254372449097,1614.727597845369,left,1,3,0.4843973207898671,D18R04,2022-10-07_14h39.42.909,t1_Paradigm,2021.1.4,60.00860514057195,
V,left,Distractor,0,28,28,28,1616.225365224891,1618.2421871115366,left,1,3,0.5217858140676981,D18R04,2022-10-07_14h39.42.909,t1_Paradigm,2021.1.4,60.00860514057195,
D,right,Target,0,29,29,29,1619.725354798822,1621.7275025672134,right,1,3,0.5565905692637898,D18R04,2022-10-07_14h39.42.909,t1_Paradigm,2021.1.4,60.00860514057195,
G,right,Target,0,30,30,30,1623.2254598614381,1625.2278299455065,right,1,3,0.9606443497759756,D18R04,2022-10-07_14h39.42.909,t1_Paradigm,2021.1.4,60.00860514057195,
B,left,Pretarget,0,31,31,31,1626.7255344478617,1628.7275073792407,left,1,3,0.5965919936134014,D18R04,2022-10-07_14h39.42.909,t1_Paradigm,2021.1.4,60.00860514057195,
N,left,Distractor,0,32,32,32,1630.225601655853,1632.227519088512,left,1,3,0.6483957180607831,D18R04,2022-10-07_14h39.42.909,t1_Paradigm,2021.1.4,60.00860514057195,
F,left,Distractor,0,33,33,33,1633.7256014954473,1635.727878867794,left,1,3,0.5721882760408334,D18R04,2022-10-07_14h39.42.909,t1_Paradigm,2021.1.4,60.00860514057195,
B,right,Target,0,34,34,34,1637.2251156410493,1639.2275992889772,left,0,3,0.8323085318115773,D18R04,2022-10-07_14h39.42.909,t1_Paradigm,2021.1.4,60.00860514057195,
Q,left,Pretarget,0,35,35,35,1640.7254924228182,1642.7270120611938,left,1,3,0.46903476177249104,D18R04,2022-10-07_14h39.42.909,t1_Paradigm,2021.1.4,60.00860514057195,
S,left,Pretarget,0,36,36,36,1644.225281495601,1646.2270770235627,left,1,3,0.6811556822503917,D18R04,2022-10-07_14h39.42.909,t1_Paradigm,2021.1.4,60.00860514057195,
W,left,Distractor,0,37,37,37,1647.7255148789554,1649.7269264070928,left,1,3,0.5092302712437231,D18R04,2022-10-07_14h39.42.909,t1_Paradigm,2021.1.4,60.00860514057195,
Q,right,Target,0,38,38,38,1651.2252949692775,1653.2268319309514,right,1,3,1.2330487500148593,D18R04,2022-10-07_14h39.42.909,t1_Paradigm,2021.1.4,60.00860514057195,
S,right,Target,0,39,39,39,1654.7255151997524,1656.7276219055057,left,0,3,0.8522113994404208,D18R04,2022-10-07_14h39.42.909,t1_Paradigm,2021.1.4,60.00860514057195,
T,left,Distractor,0,40,40,40,1658.2252539066394,1660.227392050976,left,1,3,0.5685170196666149,D18R04,2022-10-07_14h39.42.909,t1_Paradigm,2021.1.4,60.00860514057195,
G,left,Distractor,0,41,41,41,1661.725481836358,1663.7275067376468,left,1,3,0.46070738731941674,D18R04,2022-10-07_14h39.42.909,t1_Paradigm,2021.1.4,60.00860514057195,
D,left,Distractor,0,42,42,42,1665.2254396509234,1667.2270799107791,left,1,3,0.6089916267519584,D18R04,2022-10-07_14h39.42.909,t1_Paradigm,2021.1.4,60.00860514057195,
S,left,Lure,0,43,43,43,1668.7255273902265,1670.7261677107163,left,1,3,0.6299541028711246,D18R04,2022-10-07_14h39.42.909,t1_Paradigm,2021.1.4,60.00860514057195,
Z,left,Pretarget,0,44,44,44,1672.2254110995564,1674.227650296467,left,1,3,0.6643167931033531,D18R04,2022-10-07_14h39.42.909,t1_Paradigm,2021.1.4,60.00860514057195,
J,left,Distractor,0,45,45,45,1675.7255488839437,1677.727384832935,left,1,3,0.5566685241064988,D18R04,2022-10-07_14h39.42.909,t1_Paradigm,2021.1.4,60.00860514057195,
M,left,Pretarget,0,46,46,46,1679.2252994605078,1681.227493745173,left,1,3,0.5923689580667997,D18R04,2022-10-07_14h39.42.909,t1_Paradigm,2021.1.4,60.00860514057195,
Z,right,Target,0,47,47,47,1682.725472853912,1684.727359489596,left,0,3,1.0765802137757419,D18R04,2022-10-07_14h39.42.909,t1_Paradigm,2021.1.4,60.00860514057195,
P,left,Distractor,0,48,48,48,1686.2256873099395,1688.2246126237442,left,1,3,0.555360294165439,D18R04,2022-10-07_14h39.42.909,t1_Paradigm,2021.1.4,60.00860514057195,
M,right,Target,0,49,49,49,1689.725388803825,1691.7262139061786,None,0,3,,D18R04,2022-10-07_14h39.42.909,t1_Paradigm,2021.1.4,60.00860514057195,
K,left,Distractor,0,50,50,50,1693.224487511019,1695.2269143770245,left,1,3,0.865203553592437,D18R04,2022-10-07_14h39.42.909,t1_Paradigm,2021.1.4,60.00860514057195,
Y,left,Distractor,0,51,51,51,1696.7254436609364,1698.7276276799385,left,1,3,0.5482795557036297,D18R04,2022-10-07_14h39.42.909,t1_Paradigm,2021.1.4,60.00860514057195,
X,left,Distractor,0,52,52,52,1700.2251409843884,1702.2272021362878,left,1,3,0.9207590556616196,D18R04,2022-10-07_14h39.42.909,t1_Paradigm,2021.1.4,60.00860514057195,
F,left,Pretarget,0,53,53,53,1703.725370197324,1705.7274627877923,left,1,3,0.6685908361687325,D18R04,2022-10-07_14h39.42.909,t1_Paradigm,2021.1.4,60.00860514057195,
M,left,Lure,0,54,54,54,1707.225575029297,1709.2272755999147,right,0,3,0.7686553494277177,D18R04,2022-10-07_14h39.42.909,t1_Paradigm,2021.1.4,60.00860514057195,
V,left,Distractor,0,55,55,55,1710.72537468854,1712.727798667329,left,1,3,0.45212657943193335,D18R04,2022-10-07_14h39.42.909,t1_Paradigm,2021.1.4,60.00860514057195,
F,right,Target,0,56,56,56,1714.225406929123,1716.2277507074468,right,1,3,0.40831017946766224,D18R04,2022-10-07_14h39.42.909,t1_Paradigm,2021.1.4,60.00860514057195,
S,left,Distractor,0,57,57,57,1717.7253522324172,1719.7270297052892,left,1,3,0.4928190109785646,D18R04,2022-10-07_14h39.42.909,t1_Paradigm,2021.1.4,60.00860514057195,
D,left,Distractor,0,58,58,58,1721.2254037211096,1723.2274523617234,left,1,3,0.5286294799589086,D18R04,2022-10-07_14h39.42.909,t1_Paradigm,2021.1.4,60.00860514057195,
F,right,Target,0,59,59,59,1724.7253769341623,1726.727486527132,right,1,3,1.1086985742731486,D18R04,2022-10-07_14h39.42.909,t1_Paradigm,2021.1.4,60.00860514057195,
V,left,Pretarget,0,60,60,60,1728.2251765934052,1730.227083760401,left,1,3,0.44080676532757934,D18R04,2022-10-07_14h39.42.909,t1_Paradigm,2021.1.4,60.00860514057195,
J,left,Distractor,0,61,61,61,1731.7254606634378,1733.7266691240075,left,1,3,0.6693318884354085,D18R04,2022-10-07_14h39.42.909,t1_Paradigm,2021.1.4,60.00860514057195,
V,left,Lure,0,62,62,62,1735.2255301170371,1737.2275120308768,right,0,3,0.43236775185505394,D18R04,2022-10-07_14h39.42.909,t1_Paradigm,2021.1.4,60.00860514057195,
V,right,Target,0,63,63,63,1738.725410297542,1740.7255880217708,left,0,3,0.7903293640556512,D18R04,2022-10-07_14h39.42.909,t1_Paradigm,2021.1.4,60.00860514057195,
R,left,Distractor,0,0,0,0,1807.988912767236,1809.9937507799477,left,1,4,0.6105350044526858,D18R04,2022-10-07_14h39.42.909,t1_Paradigm,2021.1.4,60.00860514057195,
F,left,Distractor,0,1,1,1,1811.4920487657364,1813.4938680330233,left,1,4,0.29405916677205823,D18R04,2022-10-07_14h39.42.909,t1_Paradigm,2021.1.4,60.00860514057195,
P,left,Pretarget,0,2,2,2,1814.992049567736,1816.994122268501,left,1,4,0.5855580139614176,D18R04,2022-10-07_14h39.42.909,t1_Paradigm,2021.1.4,60.00860514057195,
H,left,Distractor,0,3,3,3,1818.4919817181508,1820.4910225206113,left,1,4,0.8010396546305856,D18R04,2022-10-07_14h39.42.909,t1_Paradigm,2021.1.4,60.00860514057195,
Z,left,Distractor,0,4,4,4,1821.9919616680272,1823.993535201109,left,1,4,0.7223549807240488,D18R04,2022-10-07_14h39.42.909,t1_Paradigm,2021.1.4,60.00860514057195,
T,left,Distractor,0,5,5,5,1825.4919387307018,1827.4928802841314,left,1,4,0.5990743583388394,D18R04,2022-10-07_14h39.42.909,t1_Paradigm,2021.1.4,60.00860514057195,
P,right,Target,0,6,6,6,1828.991979953731,1830.9910698388849,right,1,4,0.636756706124288,D18R04,2022-10-07_14h39.42.909,t1_Paradigm,2021.1.4,60.00860514057195,
G,left,Distractor,0,7,7,7,1832.4918485853705,1834.4934378377511,left,1,4,0.6065092620265204,D18R04,2022-10-07_14h39.42.909,t1_Paradigm,2021.1.4,60.00860514057195,
L,left,Distractor,0,8,8,8,1835.992038981276,1837.9935894166265,left,1,4,0.8182439370866632,D18R04,2022-10-07_14h39.42.909,t1_Paradigm,2021.1.4,60.00860514057195,
P,left,Lure,0,9,9,9,1839.491963432447,1841.4942905290663,right,0,4,0.8216787624987774,D18R04,2022-10-07_14h39.42.909,t1_Paradigm,2021.1.4,60.00860514057195,
Q,left,Pretarget,0,10,10,10,1842.9919501191616,1844.9940141582774,left,1,4,0.4739770350715844,D18R04,2022-10-07_14h39.42.909,t1_Paradigm,2021.1.4,60.00860514057195,
D,left,Distractor,0,11,11,11,1846.4919643948524,1848.4910930970218,left,1,4,0.5450927101192065,D18R04,2022-10-07_14h39.42.909,t1_Paradigm,2021.1.4,60.00860514057195,
M,left,Pretarget,0,12,12,12,1849.9919469111483,1851.9939079728647,left,1,4,0.3699329748778837,D18R04,2022-10-07_14h39.42.909,t1_Paradigm,2021.1.4,60.00860514057195,
C,left,Distractor,0,13,13,13,1853.491972414893,1855.4940528148873,left,1,4,0.4059218096808763,D18R04,2022-10-07_14h39.42.909,t1_Paradigm,2021.1.4,60.00860514057195,
Q,right,Target,0,14,14,14,1856.9919517231756,1858.9936769955239,right,1,4,0.39442491295631044,D18R04,2022-10-07_14h39.42.909,t1_Paradigm,2021.1.4,60.00860514057195,
R,left,Distractor,0,15,15,15,1860.4919506003644,1862.4940143186686,left,1,4,0.8779717880388489,D18R04,2022-10-07_14h39.42.909,t1_Paradigm,2021.1.4,60.00860514057195,
M,right,Target,0,16,16,16,1863.9919170765788,1865.9937199829728,right,1,4,0.3861581700621173,D18R04,2022-10-07_14h39.42.909,t1_Paradigm,2021.1.4,60.00860514057195,
S,left,Distractor,0,17,17,17,1867.4919300690526,1869.4910212374089,left,1,4,0.6491810410079779,D18R04,2022-10-07_14h39.42.909,t1_Paradigm,2021.1.4,60.00860514057195,
Z,left,Distractor,0,18,18,18,1870.9919270214305,1872.9928964846185,left,1,4,0.6348492183169583,D18R04,2022-10-07_14h39.42.909,t1_Paradigm,2021.1.4,60.00860514057195,
L,left,Pretarget,0,19,19,19,1874.491920765795,1876.4935751409357,left,1,4,0.478409233444836,D18R04,2022-10-07_14h39.42.909,t1_Paradigm,2021.1.4,60.00860514057195,
M,right,Target,0,20,20,20,1877.99194017431,1879.9932256273169,right,1,4,0.434626838483382,D18R04,2022-10-07_14h39.42.909,t1_Paradigm,2021.1.4,60.00860514057195,
P,left,Distractor,0,21,21,21,1881.491978189326,1883.493198198761,left,1,4,0.486625931240269,D18R04,2022-10-07_14h39.42.909,t1_Paradigm,2021.1.4,60.00860514057195,
F,left,Distractor,0,22,22,22,1884.992121106552,1886.993219852884,left,1,4,0.42660679219989106,D18R04,2022-10-07_14h39.42.909,t1_Paradigm,2021.1.4,60.00860514057195,
L,right,Target,0,23,23,23,1888.4917212270375,1890.4924013269629,right,1,4,0.7194058493187185,D18R04,2022-10-07_14h39.42.909,t1_Paradigm,2021.1.4,60.00860514057195,
L,left,Lure,0,24,24,24,1891.9919071317127,1893.9919985602464,left,1,4,0.3878523246385157,D18R04,2022-10-07_14h39.42.909,t1_Paradigm,2021.1.4,60.00860514057195,
V,left,Pretarget,0,25,25,25,1895.491958299608,1897.4940136770747,left,1,4,1.0620109977317043,D18R04,2022-10-07_14h39.42.909,t1_Paradigm,2021.1.4,60.00860514057195,
Z,left,Distractor,0,26,26,26,1898.9919292670384,1900.9939230505406,left,1,4,0.522085443008109,D18R04,2022-10-07_14h39.42.909,t1_Paradigm,2021.1.4,60.00860514057195,
H,left,Distractor,0,27,27,27,1902.492033688046,1904.4939504790964,left,1,4,0.36583280641934834,D18R04,2022-10-07_14h39.42.909,t1_Paradigm,2021.1.4,60.00860514057195,
X,left,Distractor,0,28,28,28,1905.9919270214305,1907.9941626895306,left,1,4,0.49780876297154464,D18R04,2022-10-07_14h39.42.909,t1_Paradigm,2021.1.4,60.00860514057195,
V,right,Target,0,29,29,29,1909.4918941392389,1911.493860975388,right,1,4,0.4859541721671121,D18R04,2022-10-07_14h39.42.909,t1_Paradigm,2021.1.4,60.00860514057195,
C,left,Distractor,0,30,30,30,1912.9919777081232,1914.99392561696,left,1,4,0.37801557750208303,D18R04,2022-10-07_14h39.42.909,t1_Paradigm,2021.1.4,60.00860514057195,
S,left,Pretarget,0,31,31,31,1916.4919531667838,1918.4942109702097,left,1,4,0.4777361911692424,D18R04,2022-10-07_14h39.42.909,t1_Paradigm,2021.1.4,60.00860514057195,
D,left,Distractor,0,32,32,32,1919.9919039236993,1921.9939942685596,left,1,4,0.43382868346816394,D18R04,2022-10-07_14h39.42.909,t1_Paradigm,2021.1.4,60.00860514057195,
V,left,Distractor,0,33,33,33,1923.4919002344686,1925.4936133163574,right,0,4,1.0623298747668741,D18R04,2022-10-07_14h39.42.909,t1_Paradigm,2021.1.4,60.00860514057195,
R,left,Distractor,0,34,34,34,1926.9919090565236,1928.9924768758065,left,1,4,0.3794736219133483,D18R04,2022-10-07_14h39.42.909,t1_Paradigm,2021.1.4,60.00860514057195,
S,right,Target,0,35,35,35,1930.4920372168708,1932.4935934266396,left,0,4,0.4463681862107478,D18R04,2022-10-07_14h39.42.909,t1_Paradigm,2021.1.4,60.00860514057195,
Y,left,Distractor,0,36,36,36,1933.9916206556663,1935.994319882433,left,1,4,0.6734564378275536,D18R04,2022-10-07_14h39.42.909,t1_Paradigm,2021.1.4,60.00860514057195,
N,left,Pretarget,0,37,37,37,1937.4919445051346,1939.494255561658,left,1,4,0.5015162699419307,D18R04,2022-10-07_14h39.42.909,t1_Paradigm,2021.1.4,60.00860514057195,
Z,left,Pretarget,0,38,38,38,1940.9917460891884,1942.994055220901,left,1,4,0.5375901172519661,D18R04,2022-10-07_14h39.42.909,t1_Paradigm,2021.1.4,60.00860514057195,
P,left,Pretarget,0,39,39,39,1944.491893818442,1946.4942382383597,left,1,4,0.46174646452709567,D18R04,2022-10-07_14h39.42.909,t1_Paradigm,2021.1.4,60.00860514057195,
M,left,Distractor,0,40,40,40,1947.9918715227104,1949.9939249753515,left,1,4,0.514285466822912,D18R04,2022-10-07_14h39.42.909,t1_Paradigm,2021.1.4,60.00860514057195,
N,right,Target,0,41,41,41,1951.491690750874,1953.493427892885,right,1,4,1.062480330845574,D18R04,2022-10-07_14h39.42.909,t1_Paradigm,2021.1.4,60.00860514057195,
Z,right,Target,0,42,42,42,1954.9918843547784,1956.9942464188061,right,1,4,1.0335279638238717,D18R04,2022-10-07_14h39.42.909,t1_Paradigm,2021.1.4,60.00860514057195,
P,right,Target,0,43,43,43,1958.4919518835668,1960.4943043235398,left,0,4,0.7174771885911468,D18R04,2022-10-07_14h39.42.909,t1_Paradigm,2021.1.4,60.00860514057195,
X,left,Pretarget,0,44,44,44,1961.9920524549525,1963.992092555185,left,1,4,0.8356955577619374,D18R04,2022-10-07_14h39.42.909,t1_Paradigm,2021.1.4,60.00860514057195,
Z,left,Lure,0,45,45,45,1965.4919230114028,1967.4935417775414,right,0,4,0.4223616213130299,D18R04,2022-10-07_14h39.42.909,t1_Paradigm,2021.1.4,60.00860514057195,
R,left,Pretarget,0,46,46,46,1968.991895903644,1970.994042068036,left,1,4,0.4096639632625738,D18R04,2022-10-07_14h39.42.909,t1_Paradigm,2021.1.4,60.00860514057195,
K,left,Distractor,0,47,47,47,1972.4917022997397,1974.4940435116441,left,1,4,0.5898570795689011,D18R04,2022-10-07_14h39.42.909,t1_Paradigm,2021.1.4,60.00860514057195,
X,right,Target,0,48,48,48,1975.991598199529,1977.9935412963387,left,0,4,0.4023939517355757,D18R04,2022-10-07_14h39.42.909,t1_Paradigm,2021.1.4,60.00860514057195,
B,left,Distractor,0,49,49,49,1979.4918835527787,1981.493875090673,left,1,4,0.5019262547139078,D18R04,2022-10-07_14h39.42.909,t1_Paradigm,2021.1.4,60.00860514057195,
R,right,Target,0,50,50,50,1982.9918692771025,1984.9938928951742,left,0,4,0.8100760011730017,D18R04,2022-10-07_14h39.42.909,t1_Paradigm,2021.1.4,60.00860514057195,
Y,left,Pretarget,0,51,51,51,1986.4918251668423,1988.4941150504455,left,1,4,0.49367875994357746,D18R04,2022-10-07_14h39.42.909,t1_Paradigm,2021.1.4,60.00860514057195,
W,left,Pretarget,0,52,52,52,1989.9916755127779,1991.9938402836706,left,1,4,0.5940666414535372,D18R04,2022-10-07_14h39.42.909,t1_Paradigm,2021.1.4,60.00860514057195,
Z,left,Distractor,0,53,53,53,1993.4918768159405,1995.4934981484985,left,1,4,0.4543073904060293,D18R04,2022-10-07_14h39.42.909,t1_Paradigm,2021.1.4,60.00860514057195,
Q,left,Distractor,0,54,54,54,1996.991726841079,1998.9940946795396,left,1,4,0.9057468122773571,D18R04,2022-10-07_14h39.42.909,t1_Paradigm,2021.1.4,60.00860514057195,
Y,right,Target,0,55,55,55,2000.4918752119265,2002.4935234918375,right,1,4,1.2623770967911696,D18R04,2022-10-07_14h39.42.909,t1_Paradigm,2021.1.4,60.00860514057195,
W,right,Target,0,56,56,56,2003.9919725752989,2005.9940946795396,None,0,4,,D18R04,2022-10-07_14h39.42.909,t1_Paradigm,2021.1.4,60.00860514057195,
H,left,Pretarget,0,57,57,57,2007.4919714524876,2009.4940595517255,left,1,4,0.5978399128216552,D18R04,2022-10-07_14h39.42.909,t1_Paradigm,2021.1.4,60.00860514057195,
M,left,Distractor,0,58,58,58,2010.9918798635626,2012.9940074214246,left,1,4,0.8898937472113175,D18R04,2022-10-07_14h39.42.909,t1_Paradigm,2021.1.4,60.00860514057195,
R,left,Pretarget,0,59,59,59,2014.491904725699,2016.493905566851,left,1,4,0.7818216989689972,D18R04,2022-10-07_14h39.42.909,t1_Paradigm,2021.1.4,60.00860514057195,
J,left,Distractor,0,60,60,60,2017.9917313322949,2019.993040845453,left,1,4,0.7707190677319886,D18R04,2022-10-07_14h39.42.909,t1_Paradigm,2021.1.4,60.00860514057195,
H,right,Target,0,61,61,61,2021.4918319036806,2023.4937961734104,right,1,4,1.0620251130021643,D18R04,2022-10-07_14h39.42.909,t1_Paradigm,2021.1.4,60.00860514057195,
Z,left,Distractor,0,62,62,62,2024.9918590114394,2026.9931268203509,left,1,4,0.4907524054578971,D18R04,2022-10-07_14h39.42.909,t1_Paradigm,2021.1.4,60.00860514057195,
R,right,Target,0,63,63,63,2028.4917407959583,2030.4937137273373,left,0,4,1.0700474048790056,D18R04,2022-10-07_14h39.42.909,t1_Paradigm,2021.1.4,60.00860514057195,
J,left,Pretarget,0,0,0,0,2058.623113324211,2060.626019147385,left,1,4,0.5377575758175226,D18R04,2022-10-07_14h39.42.909,t1_Paradigm,2021.1.4,60.00860514057195,
G,left,Pretarget,0,1,1,1,2062.12424687756,2064.1273047607974,left,1,4,0.33240621599543374,D18R04,2022-10-07_14h39.42.909,t1_Paradigm,2021.1.4,60.00860514057195,
Z,left,Distractor,0,2,2,2,2065.625155548798,2067.626952039165,left,1,4,0.3048766051797429,D18R04,2022-10-07_14h39.42.909,t1_Paradigm,2021.1.4,60.00860514057195,
F,left,Distractor,0,3,3,3,2069.125307769282,2071.127145643084,left,1,4,0.42039157715043984,D18R04,2022-10-07_14h39.42.909,t1_Paradigm,2021.1.4,60.00860514057195,
J,right,Target,0,4,4,4,2072.6251744761103,2074.6259209820128,left,0,4,0.45793918817071244,D18R04,2022-10-07_14h39.42.909,t1_Paradigm,2021.1.4,60.00860514057195,
G,right,Target,0,5,5,5,2076.1252067166934,2078.126803347506,right,1,4,0.572949859633809,D18R04,2022-10-07_14h39.42.909,t1_Paradigm,2021.1.4,60.00860514057195,
H,left,Distractor,0,6,6,6,2079.625237674074,2081.624320180781,left,1,4,0.49960236610786524,D18R04,2022-10-07_14h39.42.909,t1_Paradigm,2021.1.4,60.00860514057195,
P,left,Distractor,0,7,7,7,2083.1251306866616,2085.1275100739877,left,1,4,0.6443898653524229,D18R04,2022-10-07_14h39.42.909,t1_Paradigm,2021.1.4,60.00860514057195,
G,left,Lure,0,8,8,8,2086.625110957335,2088.6273584951123,left,1,4,0.6966532988590188,D18R04,2022-10-07_14h39.42.909,t1_Paradigm,2021.1.4,60.00860514057195,
S,left,Distractor,0,9,9,9,2090.124261634439,2092.1268161795742,left,1,4,0.5728930777113419,D18R04,2022-10-07_14h39.42.909,t1_Paradigm,2021.1.4,60.00860514057195,
R,left,Pretarget,0,10,10,10,2093.625119298187,2095.6270617533883,left,1,4,0.41662728822848294,D18R04,2022-10-07_14h39.42.909,t1_Paradigm,2021.1.4,60.00860514057195,
T,left,Pretarget,0,11,11,11,2097.125198055044,2099.127314705649,left,1,4,0.8684237625566311,D18R04,2022-10-07_14h39.42.909,t1_Paradigm,2021.1.4,60.00860514057195,
X,left,Distractor,0,12,12,12,2100.6249483107968,2102.627502535135,left,1,4,0.6806433616875438,D18R04,2022-10-07_14h39.42.909,t1_Paradigm,2021.1.4,60.00860514057195,
F,left,Pretarget,0,13,13,13,2104.1252067166934,2106.127113242095,left,1,4,0.5405992386076832,D18R04,2022-10-07_14h39.42.909,t1_Paradigm,2021.1.4,60.00860514057195,
R,right,Target,0,14,14,14,2107.6252460149262,2109.6272224751156,left,0,4,0.864825969809317,D18R04,2022-10-07_14h39.42.909,t1_Paradigm,2021.1.4,60.00860514057195,
T,right,Target,0,15,15,15,2111.1252747266844,2113.127190876141,left,0,4,0.4363274090865161,D18R04,2022-10-07_14h39.42.909,t1_Paradigm,2021.1.4,60.00860514057195,
C,left,Distractor,0,16,16,16,2114.6252652630355,2116.625613653843,left,1,4,0.7462813451566035,D18R04,2022-10-07_14h39.42.909,t1_Paradigm,2021.1.4,60.00860514057195,
F,right,Target,0,17,17,17,2118.124822396072,2120.1269477083406,right,1,4,1.084751036920352,D18R04,2022-10-07_14h39.42.909,t1_Paradigm,2021.1.4,60.00860514057195,
M,left,Distractor,0,18,18,18,2121.6251507367706,2123.627266104173,left,1,4,1.104557022365043,D18R04,2022-10-07_14h39.42.909,t1_Paradigm,2021.1.4,60.00860514057195,
N,left,Distractor,0,19,19,19,2125.125152180379,2127.1271972921822,left,1,4,0.9645045584329637,D18R04,2022-10-07_14h39.42.909,t1_Paradigm,2021.1.4,60.00860514057195,
R,left,Lure,0,20,20,20,2128.624252491587,2130.626740630745,left,1,4,0.8250885653687874,D18R04,2022-10-07_14h39.42.909,t1_Paradigm,2021.1.4,60.00860514057195,
F,right,Target,0,21,21,21,2132.1250937944424,2134.1273727707885,left,0,4,1.2124523087841226,D18R04,2022-10-07_14h39.42.909,t1_Paradigm,2021.1.4,60.00860514057195,
P,left,Distractor,0,22,22,22,2135.625193082611,2137.6271602395573,left,1,4,0.38453940393810626,D18R04,2022-10-07_14h39.42.909,t1_Paradigm,2021.1.4,60.00860514057195,
L,left,Pretarget,0,23,23,23,2139.1250832079822,2141.127081803512,left,1,4,0.404538191301981,D18R04,2022-10-07_14h39.42.909,t1_Paradigm,2021.1.4,60.00860514057195,
T,left,Distractor,0,24,24,24,2142.6251096741325,2144.627339247003,left,1,4,0.7762641277222428,D18R04,2022-10-07_14h39.42.909,t1_Paradigm,2021.1.4,60.00860514057195,
F,left,Distractor,0,25,25,25,2146.125148330757,2148.127180289681,right,0,4,0.7324862239765935,D18R04,2022-10-07_14h39.42.909,t1_Paradigm,2021.1.4,60.00860514057195,
V,left,Distractor,0,26,26,26,2149.624887037644,2151.627409181805,left,1,4,0.40026671465602703,D18R04,2022-10-07_14h39.42.909,t1_Paradigm,2021.1.4,60.00860514057195,
L,right,Target,0,27,27,27,2153.1250857744017,2155.1271167709056,left,0,4,0.900556559121469,D18R04,2022-10-07_14h39.42.909,t1_Paradigm,2021.1.4,60.00860514057195,
S,left,Pretarget,0,28,28,28,2156.625102295686,2158.627321602893,left,1,4,0.7285349075682461,D18R04,2022-10-07_14h39.42.909,t1_Paradigm,2021.1.4,60.00860514057195,
W,left,Distractor,0,29,29,29,2160.125095077645,2162.126380851463,right,0,4,0.8771630465780618,D18R04,2022-10-07_14h39.42.909,t1_Paradigm,2021.1.4,60.00860514057195,
Q,left,Distractor,0,30,30,30,2163.6251189773902,2165.6274730213627,left,1,4,0.5921482463891152,D18R04,2022-10-07_14h39.42.909,t1_Paradigm,2021.1.4,60.00860514057195,
L,right,Target,0,31,31,31,2167.124945904783,2169.1274074173853,left,0,4,0.5161746689118445,D18R04,2022-10-07_14h39.42.909,t1_Paradigm,2021.1.4,60.00860514057195,
S,right,Target,0,32,32,32,2170.625099729281,2172.6271631267737,left,0,4,0.5205420653073816,D18R04,2022-10-07_14h39.42.909,t1_Paradigm,2021.1.4,60.00860514057195,
Z,left,Pretarget,0,33,33,33,2174.1251476891484,2176.127164249585,left,1,4,0.42861982381145936,D18R04,2022-10-07_14h39.42.909,t1_Paradigm,2021.1.4,60.00860514057195,
F,left,Distractor,0,34,34,34,2177.6251561904064,2179.6274556980643,left,1,4,0.40020736631413456,D18R04,2022-10-07_14h39.42.909,t1_Paradigm,2021.1.4,60.00860514057195,
V,left,Distractor,0,35,35,35,2181.1251345362834,2183.126774796139,left,1,4,0.9488936987763736,D18R04,2022-10-07_14h39.42.909,t1_Paradigm,2021.1.4,60.00860514057195,
M,left,Distractor,0,36,36,36,2184.6252039898827,2186.6273122996354,left,1,4,0.4244943120138487,D18R04,2022-10-07_14h39.42.909,t1_Paradigm,2021.1.4,60.00860514057195,
Z,right,Target,0,37,37,37,2188.1250687719003,2190.127441422388,right,1,4,0.49206095619592816,D18R04,2022-10-07_14h39.42.909,t1_Paradigm,2021.1.4,60.00860514057195,
H,left,Pretarget,0,38,38,38,2191.6251401503105,2193.6272218335216,left,1,4,0.5923699204722652,D18R04,2022-10-07_14h39.42.909,t1_Paradigm,2021.1.4,60.00860514057195,
L,left,Distractor,0,39,39,39,2195.1250652430754,2197.1264709967945,left,1,4,0.8691680228657788,D18R04,2022-10-07_14h39.42.909,t1_Paradigm,2021.1.4,60.00860514057195,
G,left,Distractor,0,40,40,40,2198.6251151277684,2200.6267476883804,left,1,4,0.4570261860935716,D18R04,2022-10-07_14h39.42.909,t1_Paradigm,2021.1.4,60.00860514057195,
K,left,Distractor,0,41,41,41,2202.1419022074115,2204.127169382409,left,1,4,0.7164525474654511,D18R04,2022-10-07_14h39.42.909,t1_Paradigm,2021.1.4,60.00860514057195,
H,right,Target,0,42,42,42,2205.6250435889524,2207.626739347528,right,1,4,0.7689514495286858,D18R04,2022-10-07_14h39.42.909,t1_Paradigm,2021.1.4,60.00860514057195,
B,left,Distractor,0,43,43,43,2209.125052090196,2211.1268867559847,left,1,4,0.5327187411603518,D18R04,2022-10-07_14h39.42.909,t1_Paradigm,2021.1.4,60.00860514057195,
Z,left,Distractor,0,44,44,44,2212.624786305867,2214.626826605643,left,1,4,0.5528519444924314,D18R04,2022-10-07_14h39.42.909,t1_Paradigm,2021.1.4,60.00860514057195,
T,left,Pretarget,0,45,45,45,2216.125207999896,2218.125940069731,left,1,4,0.7017094568291213,D18R04,2022-10-07_14h39.42.909,t1_Paradigm,2021.1.4,60.00860514057195,
H,right,Target,0,46,46,46,2219.625157152812,2221.6269748160994,left,0,4,0.6727683178760344,D18R04,2022-10-07_14h39.42.909,t1_Paradigm,2021.1.4,60.00860514057195,
F,left,Distractor,0,47,47,47,2223.125078716752,2225.126628189697,left,1,4,0.4208923488331493,D18R04,2022-10-07_14h39.42.909,t1_Paradigm,2021.1.4,60.00860514057195,
R,left,Distractor,0,48,48,48,2226.625196290639,2228.62737742241,left,1,4,0.39220817216846626,D18R04,2022-10-07_14h39.42.909,t1_Paradigm,2021.1.4,60.00860514057195,
T,right,Target,0,49,49,49,2230.1250273884652,2232.126690425255,left,0,4,0.39739778371586,D18R04,2022-10-07_14h39.42.909,t1_Paradigm,2021.1.4,60.00860514057195,
H,right,Target,0,50,50,50,2233.6248642607243,2235.6272401192255,left,0,4,0.3683725946757477,D18R04,2022-10-07_14h39.42.909,t1_Paradigm,2021.1.4,60.00860514057195,
Y,left,Pretarget,0,51,51,51,2237.1250485613855,2239.1272252019407,left,1,4,0.40437041193945333,D18R04,2022-10-07_14h39.42.909,t1_Paradigm,2021.1.4,60.00860514057195,
H,left,Distractor,0,52,52,52,2240.6250519298046,2242.6272378736176,left,1,4,0.3923358513129642,D18R04,2022-10-07_14h39.42.909,t1_Paradigm,2021.1.4,60.00860514057195,
S,left,Distractor,0,53,53,53,2244.1248284913163,2246.126800781087,left,1,4,1.1488738732296042,D18R04,2022-10-07_14h39.42.909,t1_Paradigm,2021.1.4,60.00860514057195,
Q,left,Distractor,0,54,54,54,2247.6251359798916,2249.627009783493,left,1,4,0.5128222895727959,D18R04,2022-10-07_14h39.42.909,t1_Paradigm,2021.1.4,60.00860514057195,
Y,right,Target,0,55,55,55,2251.1249824762053,2253.126634926535,right,1,4,0.725422808813164,D18R04,2022-10-07_14h39.42.909,t1_Paradigm,2021.1.4,60.00860514057195,
R,left,Distractor,0,56,56,56,2254.6250022055174,2256.6240994691034,left,1,4,0.7955324492650107,D18R04,2022-10-07_14h39.42.909,t1_Paradigm,2021.1.4,60.00860514057195,
H,left,Pretarget,0,57,57,57,2258.1250402205333,2260.137697778351,left,1,4,0.41816585391643457,D18R04,2022-10-07_14h39.42.909,t1_Paradigm,2021.1.4,60.00860514057195,
J,left,Distractor,0,58,58,58,2261.6250002807064,2263.627246214455,left,1,4,0.5763339983532205,D18R04,2022-10-07_14h39.42.909,t1_Paradigm,2021.1.4,60.00860514057195,
V,left,Distractor,0,59,59,59,2265.1251021352946,2267.1271969713707,left,1,4,0.5965185300010489,D18R04,2022-10-07_14h39.42.909,t1_Paradigm,2021.1.4,60.00860514057195,
Y,left,Lure,0,60,60,60,2268.6250901052263,2270.62716601399,left,1,4,0.47257737661129795,D18R04,2022-10-07_14h39.42.909,t1_Paradigm,2021.1.4,60.00860514057195,
H,right,Target,0,61,61,61,2272.124997874693,2274.126401061978,right,1,4,0.6532516956795007,D18R04,2022-10-07_14h39.42.909,t1_Paradigm,2021.1.4,60.00860514057195,
L,left,Distractor,0,62,62,62,2275.6251058245107,2277.626660109483,left,1,4,0.5611007224797504,D18R04,2022-10-07_14h39.42.909,t1_Paradigm,2021.1.4,60.00860514057195,
P,left,Distractor,0,63,63,63,2279.1251579548116,2281.126839598117,left,1,4,0.5006388768961187,D18R04,2022-10-07_14h39.42.909,t1_Paradigm,2021.1.4,60.00860514057195,
