Letter,CorrAnswer,Stimulus,nback_run.thisRepN,nback_run.thisTrialN,nback_run.thisN,nback_run.thisIndex,fixcross.started,nback_trial.started,trial_resp.keys,trial_resp.corr,currentlevel,trial_resp.rt,Participant,date,expName,psychopyVersion,frameRate,
H,left,Distractor,0,0,0,0,275.4332037186092,277.36819831469836,None,0,1,,D22E01,2023-01-24_12h12.05.972,t1_Paradigm,2021.1.4,60.0037151178417,
Q,left,Pretarget,0,1,1,1,278.8704777737106,280.8684711568475,left,1,1,1.073115921502449,D22E01,2023-01-24_12h12.05.972,t1_Paradigm,2021.1.4,60.0037151178417,
Q,right,Target,0,2,2,2,282.36688815909986,284.36649934700733,right,1,1,0.8549297812419354,D22E01,2023-01-24_12h12.05.972,t1_Paradigm,2021.1.4,60.0037151178417,
T,left,Distractor,0,3,3,3,285.8669316277784,287.86645491592265,left,1,1,0.7470950571782851,D22E01,2023-01-24_12h12.05.972,t1_Paradigm,2021.1.4,60.0037151178417,
Q,left,Lure,0,4,4,4,289.36691350246235,291.36659398361405,right,0,1,1.3429916139134548,D22E01,2023-01-24_12h12.05.972,t1_Paradigm,2021.1.4,60.0037151178417,
L,left,Distractor,0,5,5,5,292.8667308056912,294.8682927909041,left,1,1,0.7691335168533442,D22E01,2023-01-24_12h12.05.972,t1_Paradigm,2021.1.4,60.0037151178417,
V,left,Pretarget,0,6,6,6,296.36627125674534,298.36879308171126,left,1,1,0.6127864642062377,D22E01,2023-01-24_12h12.05.972,t1_Paradigm,2021.1.4,60.0037151178417,
V,right,Target,0,7,7,7,299.86676448990704,301.86671989842114,right,1,1,0.698923099576632,D22E01,2023-01-24_12h12.05.972,t1_Paradigm,2021.1.4,60.0037151178417,
K,left,Distractor,0,8,8,8,303.3668275275112,305.3684148560866,left,1,1,0.7490343056094844,D22E01,2023-01-24_12h12.05.972,t1_Paradigm,2021.1.4,60.0037151178417,
G,left,Pretarget,0,9,9,9,306.86678919166536,308.869638234729,left,1,1,0.9280768205437653,D22E01,2023-01-24_12h12.05.972,t1_Paradigm,2021.1.4,60.0037151178417,
G,right,Target,0,10,10,10,310.3663344547505,312.36645668033395,right,1,1,0.5990814795518418,D22E01,2023-01-24_12h12.05.972,t1_Paradigm,2021.1.4,60.0037151178417,
G,right,Target,0,11,11,11,313.8668912067193,315.8668000989354,right,1,1,0.5546542443555609,D22E01,2023-01-24_12h12.05.972,t1_Paradigm,2021.1.4,60.0037151178417,
P,left,Pretarget,0,12,12,12,317.3667999385342,319.36836513176775,left,1,1,0.4452530438500162,D22E01,2023-01-24_12h12.05.972,t1_Paradigm,2021.1.4,60.0037151178417,
P,right,Target,0,13,13,13,320.8670538533621,322.86683185833897,right,1,1,0.6906845819644332,D22E01,2023-01-24_12h12.05.972,t1_Paradigm,2021.1.4,60.0037151178417,
G,left,Lure,0,14,14,14,324.3668429260098,326.3687302045081,left,1,1,0.6927062765241772,D22E01,2023-01-24_12h12.05.972,t1_Paradigm,2021.1.4,60.0037151178417,
Y,left,Distractor,0,15,15,15,327.8668408407965,329.86803005401987,left,1,1,0.5534377629576284,D22E01,2023-01-24_12h12.05.972,t1_Paradigm,2021.1.4,60.0037151178417,
B,left,Distractor,0,16,16,16,331.36684581322845,333.3687731919837,left,1,1,0.5567840492085452,D22E01,2023-01-24_12h12.05.972,t1_Paradigm,2021.1.4,60.0037151178417,
T,left,Pretarget,0,17,17,17,334.8668299335267,336.8671520187912,left,1,1,0.546418613961805,D22E01,2023-01-24_12h12.05.972,t1_Paradigm,2021.1.4,60.0037151178417,
T,right,Target,0,18,18,18,338.3669827957066,340.36671620919753,right,1,1,0.9027161347717083,D22E01,2023-01-24_12h12.05.972,t1_Paradigm,2021.1.4,60.0037151178417,
S,left,Distractor,0,19,19,19,341.86684565282746,343.87053519727885,left,1,1,0.5190009454036044,D22E01,2023-01-24_12h12.05.972,t1_Paradigm,2021.1.4,60.0037151178417,
T,left,Lure,0,20,20,20,345.3666892618247,347.3680298936189,left,1,1,0.46152893618500457,D22E01,2023-01-24_12h12.05.972,t1_Paradigm,2021.1.4,60.0037151178417,
J,left,Distractor,0,21,21,21,348.86687677062685,350.868770144364,left,1,1,0.5128428291275213,D22E01,2023-01-24_12h12.05.972,t1_Paradigm,2021.1.4,60.0037151178417,
P,left,Distractor,0,22,22,22,352.3670485601282,354.36790221440026,left,1,1,0.5015486719275941,D22E01,2023-01-24_12h12.05.972,t1_Paradigm,2021.1.4,60.0037151178417,
F,left,Distractor,0,23,23,23,355.86680683577845,357.86666183324894,left,1,1,0.47483099345663504,D22E01,2023-01-24_12h12.05.972,t1_Paradigm,2021.1.4,60.0037151178417,
L,left,Distractor,0,24,24,24,359.36697541725914,361.3691231870272,left,1,1,0.38034452216061254,D22E01,2023-01-24_12h12.05.972,t1_Paradigm,2021.1.4,60.0037151178417,
W,left,Pretarget,0,25,25,25,362.866656379614,364.8692529514591,left,1,1,0.49654255583641316,D22E01,2023-01-24_12h12.05.972,t1_Paradigm,2021.1.4,60.0037151178417,
W,right,Target,0,26,26,26,366.36678742725405,368.3667595174751,left,0,1,0.5026589678450364,D22E01,2023-01-24_12h12.05.972,t1_Paradigm,2021.1.4,60.0037151178417,
V,left,Distractor,0,27,27,27,369.8668081189868,371.8689991970324,left,1,1,0.5844837027741505,D22E01,2023-01-24_12h12.05.972,t1_Paradigm,2021.1.4,60.0037151178417,
W,left,Lure,0,28,28,28,373.3669667556036,375.38529289388146,left,1,1,0.6361071697012903,D22E01,2023-01-24_12h12.05.972,t1_Paradigm,2021.1.4,60.0037151178417,
R,left,Pretarget,0,29,29,29,376.8666050512851,378.8695086306981,left,1,1,0.4802294504629572,D22E01,2023-01-24_12h12.05.972,t1_Paradigm,2021.1.4,60.0037151178417,
R,right,Target,0,30,30,30,380.3666411415164,382.3667457229868,right,1,1,0.6947286126883228,D22E01,2023-01-24_12h12.05.972,t1_Paradigm,2021.1.4,60.0037151178417,
G,left,Distractor,0,31,31,31,383.867161001249,385.86901523713516,left,1,1,0.8724725208978725,D22E01,2023-01-24_12h12.05.972,t1_Paradigm,2021.1.4,60.0037151178417,
R,left,Lure,0,32,32,32,387.3664165800768,389.3689448210838,left,1,1,0.49251360280914014,D22E01,2023-01-24_12h12.05.972,t1_Paradigm,2021.1.4,60.0037151178417,
S,left,Distractor,0,33,33,33,390.86672150243146,392.8689706456495,left,1,1,0.4967738541190556,D22E01,2023-01-24_12h12.05.972,t1_Paradigm,2021.1.4,60.0037151178417,
R,left,Lure,0,34,34,34,394.3670110262875,396.36842287613797,left,1,1,0.5813828300965724,D22E01,2023-01-24_12h12.05.972,t1_Paradigm,2021.1.4,60.0037151178417,
P,left,Pretarget,0,35,35,35,397.86691783329013,399.86780420937214,left,1,1,0.44167706332655143,D22E01,2023-01-24_12h12.05.972,t1_Paradigm,2021.1.4,60.0037151178417,
P,right,Target,0,36,36,36,401.3668904047141,403.3667733119636,right,1,1,0.8148285617769488,D22E01,2023-01-24_12h12.05.972,t1_Paradigm,2021.1.4,60.0037151178417,
Y,left,Pretarget,0,37,37,37,404.86690981323875,406.86752703639524,left,1,1,0.4822395961487018,D22E01,2023-01-24_12h12.05.972,t1_Paradigm,2021.1.4,60.0037151178417,
Y,right,Target,0,38,38,38,408.3662933920872,410.3667614422876,right,1,1,0.6628264521825713,D22E01,2023-01-24_12h12.05.972,t1_Paradigm,2021.1.4,60.0037151178417,
J,left,Distractor,0,39,39,39,411.86677347236457,413.86865754284224,left,1,1,0.5847894271341829,D22E01,2023-01-24_12h12.05.972,t1_Paradigm,2021.1.4,60.0037151178417,
Y,left,Lure,0,40,40,40,415.3670514473466,417.3684783748937,left,1,1,0.6529444656353007,D22E01,2023-01-24_12h12.05.972,t1_Paradigm,2021.1.4,60.0037151178417,
T,left,Distractor,0,41,41,41,418.86679111647766,420.86885515690904,left,1,1,0.6567129273923911,D22E01,2023-01-24_12h12.05.972,t1_Paradigm,2021.1.4,60.0037151178417,
V,left,Distractor,0,42,42,42,422.36679159768084,424.36863075587064,left,1,1,0.5812179378394831,D22E01,2023-01-24_12h12.05.972,t1_Paradigm,2021.1.4,60.0037151178417,
N,left,Pretarget,0,43,43,43,425.86681517663203,427.8692314577214,left,1,1,0.5683197703569931,D22E01,2023-01-24_12h12.05.972,t1_Paradigm,2021.1.4,60.0037151178417,
N,right,Target,0,44,44,44,429.3667447605807,431.36691703128497,right,1,1,0.7987252609484585,D22E01,2023-01-24_12h12.05.972,t1_Paradigm,2021.1.4,60.0037151178417,
N,right,Target,0,45,45,45,432.86681998866277,434.866804269362,right,1,1,0.7546011836952857,D22E01,2023-01-24_12h12.05.972,t1_Paradigm,2021.1.4,60.0037151178417,
X,left,Distractor,0,46,46,46,436.3668410011975,438.36830353777293,left,1,1,0.5652169728668923,D22E01,2023-01-24_12h12.05.972,t1_Paradigm,2021.1.4,60.0037151178417,
Z,left,Distractor,0,47,47,47,439.8665790663184,441.8687515378448,left,1,1,0.5848760436892917,D22E01,2023-01-24_12h12.05.972,t1_Paradigm,2021.1.4,60.0037151178417,
H,left,Pretarget,0,48,48,48,443.3667502142156,445.36886847019434,left,1,1,0.5727227785821469,D22E01,2023-01-24_12h12.05.972,t1_Paradigm,2021.1.4,60.0037151178417,
H,right,Target,0,49,49,49,446.86684533202526,448.86694670547524,right,1,1,0.6425376469233015,D22E01,2023-01-24_12h12.05.972,t1_Paradigm,2021.1.4,60.0037151178417,
K,left,Distractor,0,50,50,50,450.3667736327658,452.3685149463282,left,1,1,0.4528951904394489,D22E01,2023-01-24_12h12.05.972,t1_Paradigm,2021.1.4,60.0037151178417,
V,left,Pretarget,0,51,51,51,453.866513622699,455.8691130817625,left,1,1,0.45637204312720314,D22E01,2023-01-24_12h12.05.972,t1_Paradigm,2021.1.4,60.0037151178417,
V,right,Target,0,52,52,52,457.36677459517193,459.3669272969506,right,1,1,0.6705837667100241,D22E01,2023-01-24_12h12.05.972,t1_Paradigm,2021.1.4,60.0037151178417,
R,left,Distractor,0,53,53,53,460.8668215926731,462.8687107959837,left,1,1,0.9767450589265536,D22E01,2023-01-24_12h12.05.972,t1_Paradigm,2021.1.4,60.0037151178417,
V,left,Lure,0,54,54,54,464.3668387555832,466.368372189413,left,1,1,0.6770238679937393,D22E01,2023-01-24_12h12.05.972,t1_Paradigm,2021.1.4,60.0037151178417,
Y,left,Distractor,0,55,55,55,467.86645844474526,469.8795952889576,left,1,1,0.4779985929621944,D22E01,2023-01-24_12h12.05.972,t1_Paradigm,2021.1.4,60.0037151178417,
Q,left,Distractor,0,56,56,56,471.3668291315215,473.3686102245389,left,1,1,0.8768780955392685,D22E01,2023-01-24_12h12.05.972,t1_Paradigm,2021.1.4,60.0037151178417,
Z,left,Pretarget,0,57,57,57,474.8666246202105,476.8686116681482,left,1,1,0.41685340019694195,D22E01,2023-01-24_12h12.05.972,t1_Paradigm,2021.1.4,60.0037151178417,
Z,right,Target,0,58,58,58,478.36678357762946,480.36682046986596,right,1,1,0.5667520107069777,D22E01,2023-01-24_12h12.05.972,t1_Paradigm,2021.1.4,60.0037151178417,
B,left,Distractor,0,59,59,59,481.8669165500818,483.86875987869837,left,1,1,0.6968471894692811,D22E01,2023-01-24_12h12.05.972,t1_Paradigm,2021.1.4,60.0037151178417,
S,left,Pretarget,0,60,60,60,485.36677459517193,487.3686432671508,left,1,1,0.6208831873095733,D22E01,2023-01-24_12h12.05.972,t1_Paradigm,2021.1.4,60.0037151178417,
S,right,Target,0,61,61,61,488.8667744347707,490.86710935211784,right,1,1,0.7863025221136013,D22E01,2023-01-24_12h12.05.972,t1_Paradigm,2021.1.4,60.0037151178417,
T,left,Distractor,0,62,62,62,492.36671781320786,494.3662542542362,left,1,1,0.8073407209769812,D22E01,2023-01-24_12h12.05.972,t1_Paradigm,2021.1.4,60.0037151178417,
D,left,Distractor,0,63,63,63,495.86673369290963,497.8683662545751,left,1,1,0.4731817500842226,D22E01,2023-01-24_12h12.05.972,t1_Paradigm,2021.1.4,60.0037151178417,
R,left,Distractor,0,0,0,0,564.0085089537457,566.0020168825291,left,1,1,0.93134611430105,D22E01,2023-01-24_12h12.05.972,t1_Paradigm,2021.1.4,60.0037151178417,
V,left,Distractor,0,1,1,1,567.4997464059744,569.5020821657475,left,1,1,0.5993913743384383,D22E01,2023-01-24_12h12.05.972,t1_Paradigm,2021.1.4,60.0037151178417,
N,left,Pretarget,0,2,2,2,571.0001183759588,573.0014849927194,left,1,1,0.8284177368891505,D22E01,2023-01-24_12h12.05.972,t1_Paradigm,2021.1.4,60.0037151178417,
N,right,Target,0,3,3,3,574.500222155424,576.5003780652236,right,1,1,0.6891909275896069,D22E01,2023-01-24_12h12.05.972,t1_Paradigm,2021.1.4,60.0037151178417,
S,left,Distractor,0,4,4,4,578.0001321704473,580.0019742158555,left,1,1,0.7874404070078072,D22E01,2023-01-24_12h12.05.972,t1_Paradigm,2021.1.4,60.0037151178417,
N,left,Lure,0,5,5,5,581.4992796389821,583.4997438395579,left,1,1,1.0656438000030448,D22E01,2023-01-24_12h12.05.972,t1_Paradigm,2021.1.4,60.0037151178417,
Z,left,Distractor,0,6,6,6,584.9997423959486,587.0023161908476,left,1,1,0.6511810167307885,D22E01,2023-01-24_12h12.05.972,t1_Paradigm,2021.1.4,60.0037151178417,
L,left,Pretarget,0,7,7,7,588.4996055738715,590.500772651753,left,1,1,0.49684795939424475,D22E01,2023-01-24_12h12.05.972,t1_Paradigm,2021.1.4,60.0037151178417,
L,right,Target,0,8,8,8,592.0001039398663,593.9998363909511,right,1,1,0.6301123416722021,D22E01,2023-01-24_12h12.05.972,t1_Paradigm,2021.1.4,60.0037151178417,
H,left,Distractor,0,9,9,9,595.499898145347,597.5025412334902,left,1,1,0.550939035739475,D22E01,2023-01-24_12h12.05.972,t1_Paradigm,2021.1.4,60.0037151178417,
L,left,Lure,0,10,10,10,599.0001575138098,601.0020438299017,left,1,1,0.5874796731798142,D22E01,2023-01-24_12h12.05.972,t1_Paradigm,2021.1.4,60.0037151178417,
X,left,Pretarget,0,11,11,11,602.5001525413778,604.5019955491922,left,1,1,0.49564687649467487,D22E01,2023-01-24_12h12.05.972,t1_Paradigm,2021.1.4,60.0037151178417,
X,right,Target,0,12,12,12,606.0001122807197,607.999994225563,right,1,1,0.6460189908402754,D22E01,2023-01-24_12h12.05.972,t1_Paradigm,2021.1.4,60.0037151178417,
X,right,Target,0,13,13,13,609.5002859950333,611.5001403508996,right,1,1,0.44145153948102234,D22E01,2023-01-24_12h12.05.972,t1_Paradigm,2021.1.4,60.0037151178417,
R,left,Distractor,0,14,14,14,613.0002620952802,615.0019905767605,left,1,1,0.5396304424468781,D22E01,2023-01-24_12h12.05.972,t1_Paradigm,2021.1.4,60.0037151178417,
T,left,Distractor,0,15,15,15,616.5000880601646,618.5021232284108,left,1,1,0.5434056410476842,D22E01,2023-01-24_12h12.05.972,t1_Paradigm,2021.1.4,60.0037151178417,
V,left,Pretarget,0,16,16,16,619.9997581152494,622.0131159920787,left,1,1,0.7603018362387957,D22E01,2023-01-24_12h12.05.972,t1_Paradigm,2021.1.4,60.0037151178417,
V,right,Target,0,17,17,17,623.500238516329,625.500238195527,left,0,1,0.45732578764113896,D22E01,2023-01-24_12h12.05.972,t1_Paradigm,2021.1.4,60.0037151178417,
N,left,Distractor,0,18,18,18,627.000125433604,629.0009383460152,left,1,1,0.6365303076138389,D22E01,2023-01-24_12h12.05.972,t1_Paradigm,2021.1.4,60.0037151178417,
B,left,Distractor,0,19,19,19,630.5002507068072,632.5020946770277,left,1,1,0.5593687513774057,D22E01,2023-01-24_12h12.05.972,t1_Paradigm,2021.1.4,60.0037151178417,
V,left,Lure,0,20,20,20,633.9993622455116,636.0023941457474,left,1,1,0.48308138074480667,D22E01,2023-01-24_12h12.05.972,t1_Paradigm,2021.1.4,60.0037151178417,
P,left,Distractor,0,21,21,21,637.5002247218405,639.5001775639383,left,1,1,0.5532295624227572,D22E01,2023-01-24_12h12.05.972,t1_Paradigm,2021.1.4,60.0037151178417,
K,left,Pretarget,0,22,22,22,641.0001668170693,643.012963931904,left,1,1,0.5446465034019639,D22E01,2023-01-24_12h12.05.972,t1_Paradigm,2021.1.4,60.0037151178417,
K,right,Target,0,23,23,23,644.4994009021594,646.5002282506631,right,1,1,0.4814106436347174,D22E01,2023-01-24_12h12.05.972,t1_Paradigm,2021.1.4,60.0037151178417,
J,left,Pretarget,0,24,24,24,648.0002213534189,650.002305925182,left,1,1,0.5313043458734228,D22E01,2023-01-24_12h12.05.972,t1_Paradigm,2021.1.4,60.0037151178417,
J,right,Target,0,25,25,25,651.5002150977788,653.500261614077,right,1,1,0.6973437910526172,D22E01,2023-01-24_12h12.05.972,t1_Paradigm,2021.1.4,60.0037151178417,
H,left,Distractor,0,26,26,26,655.0001401904987,657.0021140855521,left,1,1,0.5554889713064313,D22E01,2023-01-24_12h12.05.972,t1_Paradigm,2021.1.4,60.0037151178417,
J,left,Lure,0,27,27,27,658.4999635889666,660.5012381355369,left,1,1,0.5923372579188708,D22E01,2023-01-24_12h12.05.972,t1_Paradigm,2021.1.4,60.0037151178417,
V,left,Distractor,0,28,28,28,662.0000914285862,664.0027213638451,left,1,1,1.3307344089398612,D22E01,2023-01-24_12h12.05.972,t1_Paradigm,2021.1.4,60.0037151178417,
Z,left,Pretarget,0,29,29,29,665.5003864060769,667.5019641105906,left,1,1,0.6155136024883632,D22E01,2023-01-24_12h12.05.972,t1_Paradigm,2021.1.4,60.0037151178417,
Z,right,Target,0,30,30,30,669.0003163108278,671.0002393183341,right,1,1,0.749312120190325,D22E01,2023-01-24_12h12.05.972,t1_Paradigm,2021.1.4,60.0037151178417,
T,left,Distractor,0,31,31,31,672.5002693133264,674.5014748874545,left,1,1,1.0720617659446816,D22E01,2023-01-24_12h12.05.972,t1_Paradigm,2021.1.4,60.0037151178417,
Z,left,Lure,0,32,32,32,676.000233223095,678.0011763811411,left,1,1,0.660339273838872,D22E01,2023-01-24_12h12.05.972,t1_Paradigm,2021.1.4,60.0037151178417,
F,left,Distractor,0,33,33,33,679.500233383496,681.5009686618095,left,1,1,0.7127294576810073,D22E01,2023-01-24_12h12.05.972,t1_Paradigm,2021.1.4,60.0037151178417,
Y,left,Pretarget,0,34,34,34,683.0001543057891,685.0021131231459,left,1,1,0.5555114274504831,D22E01,2023-01-24_12h12.05.972,t1_Paradigm,2021.1.4,60.0037151178417,
Y,right,Target,0,35,35,35,686.500159919825,688.5001602406272,right,1,1,0.7692583088532956,D22E01,2023-01-24_12h12.05.972,t1_Paradigm,2021.1.4,60.0037151178417,
Y,right,Target,0,36,36,36,690.0001527017788,692.0003564110847,right,1,1,0.7091339082319337,D22E01,2023-01-24_12h12.05.972,t1_Paradigm,2021.1.4,60.0037151178417,
W,left,Distractor,0,37,37,37,693.500067849635,695.5025136445134,left,1,1,0.5189611659486673,D22E01,2023-01-24_12h12.05.972,t1_Paradigm,2021.1.4,60.0037151178417,
Q,left,Distractor,0,38,38,38,697.000130245635,699.0020467171202,left,1,1,0.5874793523776134,D22E01,2023-01-24_12h12.05.972,t1_Paradigm,2021.1.4,60.0037151178417,
P,left,Pretarget,0,39,39,39,700.500215418581,702.4997669373059,left,1,1,0.5139024383202013,D22E01,2023-01-24_12h12.05.972,t1_Paradigm,2021.1.4,60.0037151178417,
P,right,Target,0,40,40,40,704.0002669073109,706.0002919298714,right,1,1,0.6294928729009825,D22E01,2023-01-24_12h12.05.972,t1_Paradigm,2021.1.4,60.0037151178417,
J,left,Distractor,0,41,41,41,707.5001454837326,709.5011242508068,left,1,1,0.4884342838590783,D22E01,2023-01-24_12h12.05.972,t1_Paradigm,2021.1.4,60.0037151178417,
P,left,Lure,0,42,42,42,711.0001029774602,713.0021034990842,right,0,1,0.6513795932037283,D22E01,2023-01-24_12h12.05.972,t1_Paradigm,2021.1.4,60.0037151178417,
L,left,Distractor,0,43,43,43,714.4997967718972,716.5021120003388,left,1,1,0.49552657572348835,D22E01,2023-01-24_12h12.05.972,t1_Paradigm,2021.1.4,60.0037151178417,
Z,left,Distractor,0,44,44,44,718.0002258446478,720.0019969928015,left,1,1,0.5635998097002357,D22E01,2023-01-24_12h12.05.972,t1_Paradigm,2021.1.4,60.0037151178417,
F,left,Pretarget,0,45,45,45,721.500159919825,723.5021492133773,left,1,1,0.6152861538303114,D22E01,2023-01-24_12h12.05.972,t1_Paradigm,2021.1.4,60.0037151178417,
F,right,Target,0,46,46,46,724.9998588470952,727.0001292832288,right,1,1,0.6213345558030596,D22E01,2023-01-24_12h12.05.972,t1_Paradigm,2021.1.4,60.0037151178417,
G,left,Pretarget,0,47,47,47,728.500227288257,730.5131190396984,left,1,1,0.5805041532639734,D22E01,2023-01-24_12h12.05.972,t1_Paradigm,2021.1.4,60.0037151178417,
G,right,Target,0,48,48,48,732.0001636090489,734.0002810226014,right,1,1,0.5171948298257121,D22E01,2023-01-24_12h12.05.972,t1_Paradigm,2021.1.4,60.0037151178417,
V,left,Distractor,0,49,49,49,735.5001637694498,737.5009221455113,left,1,1,0.4886854718695304,D22E01,2023-01-24_12h12.05.972,t1_Paradigm,2021.1.4,60.0037151178417,
G,left,Lure,0,50,50,50,739.0002091629409,740.9998177844319,right,0,1,0.6216239192578996,D22E01,2023-01-24_12h12.05.972,t1_Paradigm,2021.1.4,60.0037151178417,
Q,left,Pretarget,0,51,51,51,742.5001672982725,744.501477133069,left,1,1,0.5439837263534173,D22E01,2023-01-24_12h12.05.972,t1_Paradigm,2021.1.4,60.0037151178417,
Q,right,Target,0,52,52,52,746.0002547168327,748.0002733233522,right,1,1,0.6612452188462612,D22E01,2023-01-24_12h12.05.972,t1_Paradigm,2021.1.4,60.0037151178417,
Y,left,Distractor,0,53,53,53,749.5001695438867,751.5027750981895,left,1,1,0.5986262614337647,D22E01,2023-01-24_12h12.05.972,t1_Paradigm,2021.1.4,60.0037151178417,
V,left,Distractor,0,54,54,54,752.9999964711773,755.0010249625703,left,1,1,0.5244924350063229,D22E01,2023-01-24_12h12.05.972,t1_Paradigm,2021.1.4,60.0037151178417,
B,left,Distractor,0,55,55,55,756.5002199098097,758.5019188775008,left,1,1,0.6077088092565646,D22E01,2023-01-24_12h12.05.972,t1_Paradigm,2021.1.4,60.0037151178417,
J,left,Pretarget,0,56,56,56,760.0002736441542,762.0019498348992,left,1,1,0.5635831279932972,D22E01,2023-01-24_12h12.05.972,t1_Paradigm,2021.1.4,60.0037151178417,
J,right,Target,0,57,57,57,763.5003164712288,765.4997290826633,right,1,1,0.6177521592383073,D22E01,2023-01-24_12h12.05.972,t1_Paradigm,2021.1.4,60.0037151178417,
H,left,Distractor,0,58,58,58,767.0000590275785,769.0009367420049,left,1,1,0.62063616972614,D22E01,2023-01-24_12h12.05.972,t1_Paradigm,2021.1.4,60.0037151178417,
J,left,Lure,0,59,59,59,770.5002330626941,772.5016779551564,left,1,1,0.6400315412581676,D22E01,2023-01-24_12h12.05.972,t1_Paradigm,2021.1.4,60.0037151178417,
D,left,Pretarget,0,60,60,60,774.0002399599383,776.0020396594749,left,1,1,0.5635298748520654,D22E01,2023-01-24_12h12.05.972,t1_Paradigm,2021.1.4,60.0037151178417,
D,right,Target,0,61,61,61,777.5001438797223,779.5002340251002,right,1,1,0.5532491313481387,D22E01,2023-01-24_12h12.05.972,t1_Paradigm,2021.1.4,60.0037151178417,
R,left,Distractor,0,62,62,62,781.0002560000411,783.0022927722977,left,1,1,0.6351665780719031,D22E01,2023-01-24_12h12.05.972,t1_Paradigm,2021.1.4,60.0037151178417,
F,left,Distractor,0,63,63,63,784.4998054335528,786.501028330992,left,1,1,0.5605047114593162,D22E01,2023-01-24_12h12.05.972,t1_Paradigm,2021.1.4,60.0037151178417,
F,left,Distractor,0,0,0,0,855.7316109043185,857.7334243983438,left,1,2,0.5279587012264528,D22E01,2023-01-24_12h12.05.972,t1_Paradigm,2021.1.4,60.0037151178417,
N,left,Pretarget,0,1,1,1,859.2334842279273,861.2354510653355,left,1,2,0.562078245546445,D22E01,2023-01-24_12h12.05.972,t1_Paradigm,2021.1.4,60.0037151178417,
V,left,Distractor,0,2,2,2,862.7334805387037,864.7334478168938,left,1,2,0.8081459341385653,D22E01,2023-01-24_12h12.05.972,t1_Paradigm,2021.1.4,60.0037151178417,
N,right,Target,0,3,3,3,866.2334880775519,868.2356515666207,right,1,2,0.6498804851937621,D22E01,2023-01-24_12h12.05.972,t1_Paradigm,2021.1.4,60.0037151178417,
N,left,Lure,0,4,4,4,869.7332527692434,871.7334612905803,left,1,2,1.1360569641794882,D22E01,2023-01-24_12h12.05.972,t1_Paradigm,2021.1.4,60.0037151178417,
X,left,Distractor,0,5,5,5,873.2335551251819,875.2340658420557,left,1,2,0.8834798810594293,D22E01,2023-01-24_12h12.05.972,t1_Paradigm,2021.1.4,60.0037151178417,
G,left,Pretarget,0,6,6,6,876.7336733407395,878.7354342232276,left,1,2,0.8062137433526004,D22E01,2023-01-24_12h12.05.972,t1_Paradigm,2021.1.4,60.0037151178417,
H,left,Pretarget,0,7,7,7,880.2333879873103,882.2358366694074,left,1,2,1.0337458099240848,D22E01,2023-01-24_12h12.05.972,t1_Paradigm,2021.1.4,60.0037151178417,
G,right,Target,0,8,8,8,883.7335094108888,885.735397651793,None,0,2,,D22E01,2023-01-24_12h12.05.972,t1_Paradigm,2021.1.4,60.0037151178417,
H,right,Target,0,9,9,9,887.2331332704774,889.2352014813356,left,0,2,0.7384112663114593,D22E01,2023-01-24_12h12.05.972,t1_Paradigm,2021.1.4,60.0037151178417,
T,left,Pretarget,0,10,10,10,890.733471556246,892.7349697018498,left,1,2,0.8226291845821834,D22E01,2023-01-24_12h12.05.972,t1_Paradigm,2021.1.4,60.0037151178417,
K,left,Distractor,0,11,11,11,894.2334165386934,896.2352807194435,left,1,2,1.1464127753645244,D22E01,2023-01-24_12h12.05.972,t1_Paradigm,2021.1.4,60.0037151178417,
T,right,Target,0,12,12,12,897.7334462128837,899.7329358168118,right,1,2,0.7205579902649788,D22E01,2023-01-24_12h12.05.972,t1_Paradigm,2021.1.4,60.0037151178417,
T,left,Lure,0,13,13,13,901.233459846971,903.2335891301997,left,1,2,1.2999592260587178,D22E01,2023-01-24_12h12.05.972,t1_Paradigm,2021.1.4,60.0037151178417,
J,left,Distractor,0,14,14,14,904.7335604184158,906.7336342028888,left,1,2,1.1279185368091476,D22E01,2023-01-24_12h12.05.972,t1_Paradigm,2021.1.4,60.0037151178417,
Q,left,Pretarget,0,15,15,15,908.2334630549916,910.2333180524621,left,1,2,0.9882230357050048,D22E01,2023-01-24_12h12.05.972,t1_Paradigm,2021.1.4,60.0037151178417,
M,left,Distractor,0,16,16,16,911.7333740324208,913.7335023532436,left,1,2,0.7839317949162705,D22E01,2023-01-24_12h12.05.972,t1_Paradigm,2021.1.4,60.0037151178417,
Q,right,Target,0,17,17,17,915.2335458219221,917.2351456617777,right,1,2,0.6263871881924388,D22E01,2023-01-24_12h12.05.972,t1_Paradigm,2021.1.4,60.0037151178417,
R,left,Distractor,0,18,18,18,918.7334532705289,920.7353835365026,left,1,2,0.5661505068510451,D22E01,2023-01-24_12h12.05.972,t1_Paradigm,2021.1.4,60.0037151178417,
W,left,Distractor,0,19,19,19,922.2336369297062,924.2333645687603,left,1,2,0.9082162860297558,D22E01,2023-01-24_12h12.05.972,t1_Paradigm,2021.1.4,60.0037151178417,
C,left,Pretarget,0,20,20,20,925.7332014409145,927.7352138322148,left,1,2,0.6862652128345417,D22E01,2023-01-24_12h12.05.972,t1_Paradigm,2021.1.4,60.0037151178417,
T,left,Distractor,0,21,21,21,929.2335695612743,931.2357304839267,left,1,2,0.6097920978113507,D22E01,2023-01-24_12h12.05.972,t1_Paradigm,2021.1.4,60.0037151178417,
C,right,Target,0,22,22,22,932.7331334308786,934.7355458623432,right,1,2,0.838096334932743,D22E01,2023-01-24_12h12.05.972,t1_Paradigm,2021.1.4,60.0037151178417,
F,left,Pretarget,0,23,23,23,936.233443486066,938.2325462027142,left,1,2,1.0369432440211312,D22E01,2023-01-24_12h12.05.972,t1_Paradigm,2021.1.4,60.0037151178417,
C,right,Target,0,24,24,24,939.7331218820044,941.7353735916389,right,1,2,0.8147047321831451,D22E01,2023-01-24_12h12.05.972,t1_Paradigm,2021.1.4,60.0037151178417,
F,right,Target,0,25,25,25,943.2334896815622,945.2329459220765,right,1,2,0.4850122883226504,D22E01,2023-01-24_12h12.05.972,t1_Paradigm,2021.1.4,60.0037151178417,
H,left,Distractor,0,26,26,26,946.7334892003593,948.7352282683072,left,1,2,0.4703333486249903,D22E01,2023-01-24_12h12.05.972,t1_Paradigm,2021.1.4,60.0037151178417,
H,left,Lure,0,27,27,27,950.2335137417164,952.2331948644722,left,1,2,1.2445278387212966,D22E01,2023-01-24_12h12.05.972,t1_Paradigm,2021.1.4,60.0037151178417,
P,left,Distractor,0,28,28,28,953.7334186239067,955.7352930703227,left,1,2,0.9262565896751767,D22E01,2023-01-24_12h12.05.972,t1_Paradigm,2021.1.4,60.0037151178417,
G,left,Pretarget,0,29,29,29,957.2331274960405,959.2341787643796,left,1,2,0.723493329081748,D22E01,2023-01-24_12h12.05.972,t1_Paradigm,2021.1.4,60.0037151178417,
K,left,Distractor,0,30,30,30,960.733420548719,962.7354669450373,left,1,2,0.5340379001966085,D22E01,2023-01-24_12h12.05.972,t1_Paradigm,2021.1.4,60.0037151178417,
G,right,Target,0,31,31,31,964.2333376213875,966.2341187743949,right,1,2,0.5394482268789034,D22E01,2023-01-24_12h12.05.972,t1_Paradigm,2021.1.4,60.0037151178417,
M,left,Pretarget,0,32,32,32,967.7335068444723,969.7329040574081,left,1,2,0.6247443608613139,D22E01,2023-01-24_12h12.05.972,t1_Paradigm,2021.1.4,60.0037151178417,
B,left,Distractor,0,33,33,33,971.2335612204209,973.2464157588237,left,1,2,0.7910831143592532,D22E01,2023-01-24_12h12.05.972,t1_Paradigm,2021.1.4,60.0037151178417,
M,right,Target,0,34,34,34,974.7330872353824,976.7348237369141,right,1,2,0.5666147074268792,D22E01,2023-01-24_12h12.05.972,t1_Paradigm,2021.1.4,60.0037151178417,
M,left,Lure,0,35,35,35,978.2334893607602,980.2334450900763,left,1,2,0.8921899776946702,D22E01,2023-01-24_12h12.05.972,t1_Paradigm,2021.1.4,60.0037151178417,
T,left,Distractor,0,36,36,36,981.7334689898297,983.73418662403,left,1,2,0.8159029278640446,D22E01,2023-01-24_12h12.05.972,t1_Paradigm,2021.1.4,60.0037151178417,
F,left,Distractor,0,37,37,37,985.2334450900763,987.2352974011504,left,1,2,0.8501623418808322,D22E01,2023-01-24_12h12.05.972,t1_Paradigm,2021.1.4,60.0037151178417,
X,left,Distractor,0,38,38,38,988.7331504333876,990.7352866542816,left,1,2,1.0305981001461078,D22E01,2023-01-24_12h12.05.972,t1_Paradigm,2021.1.4,60.0037151178417,
C,left,Distractor,0,39,39,39,992.2331897316395,994.2341832556084,left,1,2,0.5393943321332699,D22E01,2023-01-24_12h12.05.972,t1_Paradigm,2021.1.4,60.0037151178417,
R,left,Distractor,0,40,40,40,995.7336030850892,997.7353219425078,left,1,2,0.6383075510066192,D22E01,2023-01-24_12h12.05.972,t1_Paradigm,2021.1.4,60.0037151178417,
B,left,Pretarget,0,41,41,41,999.2334932103848,1001.235317290878,left,1,2,0.5945924963757534,D22E01,2023-01-24_12h12.05.972,t1_Paradigm,2021.1.4,60.0037151178417,
H,left,Distractor,0,42,42,42,1002.7334628945906,1004.733584157768,left,1,2,0.711927773341813,D22E01,2023-01-24_12h12.05.972,t1_Paradigm,2021.1.4,60.0037151178417,
B,right,Target,0,43,43,43,1006.233181390786,1008.2354157771093,right,1,2,0.6182654425288092,D22E01,2023-01-24_12h12.05.972,t1_Paradigm,2021.1.4,60.0037151178417,
W,left,Pretarget,0,44,44,44,1009.7336396565237,1011.7354457721016,left,1,2,0.5581022248584304,D22E01,2023-01-24_12h12.05.972,t1_Paradigm,2021.1.4,60.0037151178417,
L,left,Pretarget,0,45,45,45,1013.2334816615108,1015.2357474864356,left,1,2,0.7058213061968672,D22E01,2023-01-24_12h12.05.972,t1_Paradigm,2021.1.4,60.0037151178417,
W,right,Target,0,46,46,46,1016.7329136814698,1018.7353973309911,right,1,2,0.43824095249988204,D22E01,2023-01-24_12h12.05.972,t1_Paradigm,2021.1.4,60.0037151178417,
L,right,Target,0,47,47,47,1020.2334887191561,1022.2353121580451,right,1,2,0.8101653830842679,D22E01,2023-01-24_12h12.05.972,t1_Paradigm,2021.1.4,60.0037151178417,
W,right,Target,0,48,48,48,1023.7331886088322,1025.7341160475776,right,1,2,0.7514274889506396,D22E01,2023-01-24_12h12.05.972,t1_Paradigm,2021.1.4,60.0037151178417,
X,left,Distractor,0,49,49,49,1027.2333498118655,1029.2358055516079,left,1,2,0.5779098270331815,D22E01,2023-01-24_12h12.05.972,t1_Paradigm,2021.1.4,60.0037151178417,
R,left,Distractor,0,50,50,50,1030.7332518068374,1032.7357454012222,left,1,2,1.1257906567684586,D22E01,2023-01-24_12h12.05.972,t1_Paradigm,2021.1.4,60.0037151178417,
V,left,Pretarget,0,51,51,51,1034.2336035662925,1036.23577154659,left,1,2,0.6816440592110666,D22E01,2023-01-24_12h12.05.972,t1_Paradigm,2021.1.4,60.0037151178417,
Z,left,Distractor,0,52,52,52,1037.7332723381692,1039.7356745039679,left,1,2,0.541916157099422,D22E01,2023-01-24_12h12.05.972,t1_Paradigm,2021.1.4,60.0037151178417,
V,right,Target,0,53,53,53,1041.2334412404516,1043.235193140482,left,0,2,0.5463287893860524,D22E01,2023-01-24_12h12.05.972,t1_Paradigm,2021.1.4,60.0037151178417,
V,left,Lure,0,54,54,54,1044.7334577617576,1046.7334176615004,right,0,2,0.8402331974309618,D22E01,2023-01-24_12h12.05.972,t1_Paradigm,2021.1.4,60.0037151178417,
N,left,Distractor,0,55,55,55,1048.2332535712485,1050.2354898823842,left,1,2,0.8581913757498114,D22E01,2023-01-24_12h12.05.972,t1_Paradigm,2021.1.4,60.0037151178417,
B,left,Distractor,0,56,56,56,1051.7334843883282,1053.73311803238,left,1,2,0.544524277818482,D22E01,2023-01-24_12h12.05.972,t1_Paradigm,2021.1.4,60.0037151178417,
V,left,Lure,0,57,57,57,1055.2334842279274,1057.2358876769345,left,1,2,0.9140722067684237,D22E01,2023-01-24_12h12.05.972,t1_Paradigm,2021.1.4,60.0037151178417,
J,left,Distractor,0,58,58,58,1058.7332017617164,1060.7353171304771,left,1,2,0.6944633093876291,D22E01,2023-01-24_12h12.05.972,t1_Paradigm,2021.1.4,60.0037151178417,
H,left,Distractor,0,59,59,59,1062.2334405988477,1064.2353140828573,left,1,2,0.7784265108252839,D22E01,2023-01-24_12h12.05.972,t1_Paradigm,2021.1.4,60.0037151178417,
X,left,Pretarget,0,60,60,60,1065.7335523983643,1067.7358535115154,left,1,2,0.6857034884335462,D22E01,2023-01-24_12h12.05.972,t1_Paradigm,2021.1.4,60.0037151178417,
P,left,Distractor,0,61,61,61,1069.2331919772537,1071.2354045490374,left,1,2,0.5145126038316903,D22E01,2023-01-24_12h12.05.972,t1_Paradigm,2021.1.4,60.0037151178417,
X,right,Target,0,62,62,62,1072.732988107547,1074.7329678970173,right,1,2,0.47261008081977707,D22E01,2023-01-24_12h12.05.972,t1_Paradigm,2021.1.4,60.0037151178417,
Q,left,Distractor,0,63,63,63,1076.2335833557627,1078.2360686092943,left,1,2,0.6014676052477625,D22E01,2023-01-24_12h12.05.972,t1_Paradigm,2021.1.4,60.0037151178417,
B,left,Pretarget,0,0,0,0,1102.3613199978058,1104.3519968484406,left,1,2,0.5495704941668009,D22E01,2023-01-24_12h12.05.972,t1_Paradigm,2021.1.4,60.0037151178417,
F,left,Distractor,0,1,1,1,1105.8501292992687,1107.849601579886,left,1,2,0.5719637609163328,D22E01,2023-01-24_12h12.05.972,t1_Paradigm,2021.1.4,60.0037151178417,
B,right,Target,0,2,2,2,1109.3497996751557,1111.3520382319061,right,1,2,0.5736146082990672,D22E01,2023-01-24_12h12.05.972,t1_Paradigm,2021.1.4,60.0037151178417,
V,left,Distractor,0,3,3,3,1112.850085028585,1114.849619223999,left,1,2,0.5641284914891003,D22E01,2023-01-24_12h12.05.972,t1_Paradigm,2021.1.4,60.0037151178417,
G,left,Pretarget,0,4,4,4,1116.350418823125,1118.3504444872892,left,1,2,0.7912544226574028,D22E01,2023-01-24_12h12.05.972,t1_Paradigm,2021.1.4,60.0037151178417,
B,left,Lure,0,5,5,5,1119.8502027629397,1121.850572326909,left,1,2,0.8430238545201973,D22E01,2023-01-24_12h12.05.972,t1_Paradigm,2021.1.4,60.0037151178417,
G,right,Target,0,6,6,6,1123.3501185524,1125.351960597808,left,0,2,0.9258065043900388,D22E01,2023-01-24_12h12.05.972,t1_Paradigm,2021.1.4,60.0037151178417,
Y,left,Pretarget,0,7,7,7,1126.8502765474127,1128.8525173497774,left,1,2,0.7530751283125028,D22E01,2023-01-24_12h12.05.972,t1_Paradigm,2021.1.4,60.0037151178417,
P,left,Distractor,0,8,8,8,1130.3501541614282,1132.3496370285134,left,1,2,0.5518802689734912,D22E01,2023-01-24_12h12.05.972,t1_Paradigm,2021.1.4,60.0037151178417,
Y,right,Target,0,9,9,9,1133.8502361263536,1135.8520707933149,left,0,2,1.2094840636768822,D22E01,2023-01-24_12h12.05.972,t1_Paradigm,2021.1.4,60.0037151178417,
X,left,Distractor,0,10,10,10,1137.3505259710118,1139.3516507030217,left,1,2,0.7979803585735681,D22E01,2023-01-24_12h12.05.972,t1_Paradigm,2021.1.4,60.0037151178417,
Y,right,Target,0,11,11,11,1140.850122241624,1142.8519803271347,right,1,2,1.0416349740967235,D22E01,2023-01-24_12h12.05.972,t1_Paradigm,2021.1.4,60.0037151178417,
N,left,Distractor,0,12,12,12,1144.3493377201944,1146.351426462384,left,1,2,0.9021495983402019,D22E01,2023-01-24_12h12.05.972,t1_Paradigm,2021.1.4,60.0037151178417,
Y,right,Target,0,13,13,13,1147.8501366777164,1149.8522882971088,right,1,2,0.7454137335998894,D22E01,2023-01-24_12h12.05.972,t1_Paradigm,2021.1.4,60.0037151178417,
Y,left,Lure,0,14,14,14,1151.350072998508,1153.3502571388885,left,1,2,0.7352770302200042,D22E01,2023-01-24_12h12.05.972,t1_Paradigm,2021.1.4,60.0037151178417,
K,left,Distractor,0,15,15,15,1154.850186402035,1156.8525423723377,left,1,2,0.992977001379586,D22E01,2023-01-24_12h12.05.972,t1_Paradigm,2021.1.4,60.0037151178417,
T,left,Pretarget,0,16,16,16,1158.3502465524207,1160.351828427361,left,1,2,0.6458714218942987,D22E01,2023-01-24_12h12.05.972,t1_Paradigm,2021.1.4,60.0037151178417,
J,left,Distractor,0,17,17,17,1161.8499281563795,1163.8504180211198,left,1,2,0.6671175004903489,D22E01,2023-01-24_12h12.05.972,t1_Paradigm,2021.1.4,60.0037151178417,
T,right,Target,0,18,18,18,1165.3502603469092,1167.3521720063636,left,0,2,0.6854112377600359,D22E01,2023-01-24_12h12.05.972,t1_Paradigm,2021.1.4,60.0037151178417,
S,left,Pretarget,0,19,19,19,1168.8501389233306,1170.849339805408,left,1,2,0.6442549003313616,D22E01,2023-01-24_12h12.05.972,t1_Paradigm,2021.1.4,60.0037151178417,
R,left,Distractor,0,20,20,20,1172.350207735372,1174.3514935100143,left,1,2,0.4860574614226607,D22E01,2023-01-24_12h12.05.972,t1_Paradigm,2021.1.4,60.0037151178417,
S,right,Target,0,21,21,21,1175.8499287979835,1177.852448056533,right,1,2,0.6171018934696804,D22E01,2023-01-24_12h12.05.972,t1_Paradigm,2021.1.4,60.0037151178417,
Q,left,Distractor,0,22,22,22,1179.3497531588578,1181.349465720215,left,1,2,0.6242169622805704,D22E01,2023-01-24_12h12.05.972,t1_Paradigm,2021.1.4,60.0037151178417,
D,left,Distractor,0,23,23,23,1182.8500965774592,1184.8522372895818,left,1,2,0.5775822881332715,D22E01,2023-01-24_12h12.05.972,t1_Paradigm,2021.1.4,60.0037151178417,
F,left,Distractor,0,24,24,24,1186.3499392240506,1188.350850622693,left,1,2,0.6309143468133698,D22E01,2023-01-24_12h12.05.972,t1_Paradigm,2021.1.4,60.0037151178417,
Z,left,Distractor,0,25,25,25,1189.8500744421171,1191.852396407402,left,1,2,0.6011817706157672,D22E01,2023-01-24_12h12.05.972,t1_Paradigm,2021.1.4,60.0037151178417,
P,left,Distractor,0,26,26,26,1193.3501551238346,1195.3518803972943,left,1,2,0.5897560845724001,D22E01,2023-01-24_12h12.05.972,t1_Paradigm,2021.1.4,60.0037151178417,
H,left,Distractor,0,27,27,27,1196.8498652791764,1198.8519049386514,left,1,2,0.8336715121681664,D22E01,2023-01-24_12h12.05.972,t1_Paradigm,2021.1.4,60.0037151178417,
Z,left,Pretarget,0,28,28,28,1200.34993601603,1202.3503771188575,right,0,2,0.8073359089462429,D22E01,2023-01-24_12h12.05.972,t1_Paradigm,2021.1.4,60.0037151178417,
J,left,Pretarget,0,29,29,29,1203.8501142215723,1205.852031976266,left,1,2,0.5216523744002188,D22E01,2023-01-24_12h12.05.972,t1_Paradigm,2021.1.4,60.0037151178417,
Z,right,Target,0,30,30,30,1207.3502051689552,1209.3496886776443,right,1,2,0.6879657845356633,D22E01,2023-01-24_12h12.05.972,t1_Paradigm,2021.1.4,60.0037151178417,
J,right,Target,0,31,31,31,1210.850099464678,1212.8493937001535,right,1,2,0.8202311892100624,D22E01,2023-01-24_12h12.05.972,t1_Paradigm,2021.1.4,60.0037151178417,
V,left,Pretarget,0,32,32,32,1214.3501278556596,1216.352192537695,left,1,2,0.5813526747028845,D22E01,2023-01-24_12h12.05.972,t1_Paradigm,2021.1.4,60.0037151178417,
Z,left,Lure,0,33,33,33,1217.8501017102922,1219.8495749533154,left,1,2,1.0840180585892085,D22E01,2023-01-24_12h12.05.972,t1_Paradigm,2021.1.4,60.0037151178417,
V,right,Target,0,34,34,34,1221.3502321163282,1223.3498821212843,right,1,2,0.6397473106362668,D22E01,2023-01-24_12h12.05.972,t1_Paradigm,2021.1.4,60.0037151178417,
X,left,Distractor,0,35,35,35,1224.850090161418,1226.8513906929552,left,1,2,0.9462374249606,D22E01,2023-01-24_12h12.05.972,t1_Paradigm,2021.1.4,60.0037151178417,
S,left,Distractor,0,36,36,36,1228.3501910536647,1230.3519047782506,left,1,2,0.5980023014335529,D22E01,2023-01-24_12h12.05.972,t1_Paradigm,2021.1.4,60.0037151178417,
Q,left,Distractor,0,37,37,37,1231.849964727814,1233.85193124442,left,1,2,0.5057251939006164,D22E01,2023-01-24_12h12.05.972,t1_Paradigm,2021.1.4,60.0037151178417,
P,left,Distractor,0,38,38,38,1235.3496492189915,1237.3500845473823,left,1,2,0.5435551348059562,D22E01,2023-01-24_12h12.05.972,t1_Paradigm,2021.1.4,60.0037151178417,
S,left,Lure,0,39,39,39,1238.8499287979835,1240.8495929182304,None,0,2,,D22E01,2023-01-24_12h12.05.972,t1_Paradigm,2021.1.4,60.0037151178417,
K,left,Pretarget,0,40,40,40,1242.349925750364,1244.3503315649655,left,1,2,0.7111427707095572,D22E01,2023-01-24_12h12.05.972,t1_Paradigm,2021.1.4,60.0037151178417,
L,left,Distractor,0,41,41,41,1245.8499406676597,1247.8500349834644,left,1,2,0.7154771272944345,D22E01,2023-01-24_12h12.05.972,t1_Paradigm,2021.1.4,60.0037151178417,
K,right,Target,0,42,42,42,1249.3501220812227,1251.352094372266,right,1,2,0.5416360969038578,D22E01,2023-01-24_12h12.05.972,t1_Paradigm,2021.1.4,60.0037151178417,
B,left,Distractor,0,43,43,43,1252.8502175198346,1254.8519517757518,left,1,2,0.5618055637983161,D22E01,2023-01-24_12h12.05.972,t1_Paradigm,2021.1.4,60.0037151178417,
N,left,Distractor,0,44,44,44,1256.3499398656545,1258.351998773253,left,1,2,0.7737161742302305,D22E01,2023-01-24_12h12.05.972,t1_Paradigm,2021.1.4,60.0037151178417,
S,left,Pretarget,0,45,45,45,1259.8502428631969,1261.8491848580147,left,1,2,0.5244661292376804,D22E01,2023-01-24_12h12.05.972,t1_Paradigm,2021.1.4,60.0037151178417,
Z,left,Distractor,0,46,46,46,1263.3501368381171,1265.3518518459114,left,1,2,0.6537070121235047,D22E01,2023-01-24_12h12.05.972,t1_Paradigm,2021.1.4,60.0037151178417,
S,right,Target,0,47,47,47,1266.8499101914645,1268.8518077356284,right,1,2,0.7697526648225903,D22E01,2023-01-24_12h12.05.972,t1_Paradigm,2021.1.4,60.0037151178417,
C,left,Distractor,0,48,48,48,1270.3501252892434,1272.3517703621887,left,1,2,0.6459869106347469,D22E01,2023-01-24_12h12.05.972,t1_Paradigm,2021.1.4,60.0037151178417,
T,left,Pretarget,0,49,49,49,1273.849145720164,1275.8515308834535,left,1,2,0.7143896083230175,D22E01,2023-01-24_12h12.05.972,t1_Paradigm,2021.1.4,60.0037151178417,
S,left,Lure,0,50,50,50,1277.3496716751356,1279.3517963471554,left,1,2,0.7177830524765341,D22E01,2023-01-24_12h12.05.972,t1_Paradigm,2021.1.4,60.0037151178417,
T,right,Target,0,51,51,51,1280.8500962566573,1282.8500988230735,right,1,2,0.7554606124049315,D22E01,2023-01-24_12h12.05.972,t1_Paradigm,2021.1.4,60.0037151178417,
N,left,Pretarget,0,52,52,52,1284.3497999959582,1286.3521668735307,left,1,2,0.8055371718155584,D22E01,2023-01-24_12h12.05.972,t1_Paradigm,2021.1.4,60.0037151178417,
B,left,Distractor,0,53,53,53,1287.8501572090477,1289.8519674950526,left,1,2,0.7618400820997522,D22E01,2023-01-24_12h12.05.972,t1_Paradigm,2021.1.4,60.0037151178417,
N,right,Target,0,54,54,54,1291.350151915814,1293.3506048883178,left,0,2,1.103129520301536,D22E01,2023-01-24_12h12.05.972,t1_Paradigm,2021.1.4,60.0037151178417,
N,left,Lure,0,55,55,55,1294.8492942515159,1296.8501039559064,left,1,2,0.915818653164024,D22E01,2023-01-24_12h12.05.972,t1_Paradigm,2021.1.4,60.0037151178417,
X,left,Distractor,0,56,56,56,1298.3501217604207,1300.3524379512683,left,1,2,0.5490536820539091,D22E01,2023-01-24_12h12.05.972,t1_Paradigm,2021.1.4,60.0037151178417,
W,left,Distractor,0,57,57,57,1301.850021509778,1303.8519479261272,left,1,2,0.7778416886762898,D22E01,2023-01-24_12h12.05.972,t1_Paradigm,2021.1.4,60.0037151178417,
S,left,Distractor,0,58,58,58,1305.3494397352488,1307.352278191844,left,1,2,0.509155209488199,D22E01,2023-01-24_12h12.05.972,t1_Paradigm,2021.1.4,60.0037151178417,
L,left,Distractor,0,59,59,59,1308.8496147327705,1310.852128858487,left,1,2,0.5456281576944093,D22E01,2023-01-24_12h12.05.972,t1_Paradigm,2021.1.4,60.0037151178417,
K,left,Pretarget,0,60,60,60,1312.3501544822302,1314.3504149735004,left,1,2,0.5191642336503719,D22E01,2023-01-24_12h12.05.972,t1_Paradigm,2021.1.4,60.0037151178417,
V,left,Pretarget,0,61,61,61,1315.8493593743333,1317.8519286780038,left,1,2,0.4577931962371622,D22E01,2023-01-24_12h12.05.972,t1_Paradigm,2021.1.4,60.0037151178417,
K,right,Target,0,62,62,62,1319.350203244143,1321.3525245678234,right,1,2,0.8292370653412036,D22E01,2023-01-24_12h12.05.972,t1_Paradigm,2021.1.4,60.0037151178417,
V,right,Target,0,63,63,63,1322.8502111037933,1324.8518648383942,right,1,2,0.913628537524346,D22E01,2023-01-24_12h12.05.972,t1_Paradigm,2021.1.4,60.0037151178417,
R,left,Distractor,0,0,0,0,1385.3245782174763,1387.3177258855503,left,1,3,0.5285043855242293,D22E01,2023-01-24_12h12.05.972,t1_Paradigm,2021.1.4,60.0037151178417,
P,left,Lure,0,1,1,1,1388.8167838503114,1390.8185941363158,left,1,3,0.563182767026774,D22E01,2023-01-24_12h12.05.972,t1_Paradigm,2021.1.4,60.0037151178417,
V,left,Distractor,0,2,2,2,1392.3162056046044,1394.318765284213,None,0,3,,D22E01,2023-01-24_12h12.05.972,t1_Paradigm,2021.1.4,60.0037151178417,
P,left,Pretarget,0,3,3,3,1395.816690496913,1397.816663228738,None,0,3,,D22E01,2023-01-24_12h12.05.972,t1_Paradigm,2021.1.4,60.0037151178417,
Z,left,Distractor,0,4,4,4,1399.3168013340232,1401.318593975915,left,1,3,0.815107980367884,D22E01,2023-01-24_12h12.05.972,t1_Paradigm,2021.1.4,60.0037151178417,
L,left,Pretarget,0,5,5,5,1402.8169044718843,1404.8191548983104,left,1,3,0.7865129682627412,D22E01,2023-01-24_12h12.05.972,t1_Paradigm,2021.1.4,60.0037151178417,
P,right,Target,0,6,6,6,1406.3168080708665,1408.318047329211,left,0,3,0.6957497256339593,D22E01,2023-01-24_12h12.05.972,t1_Paradigm,2021.1.4,60.0037151178417,
S,left,Distractor,0,7,7,7,1409.8168188177356,1411.818771860655,left,1,3,0.6828425756939396,D22E01,2023-01-24_12h12.05.972,t1_Paradigm,2021.1.4,60.0037151178417,
L,right,Target,0,8,8,8,1413.316816090918,1415.3168946874216,right,1,3,0.6727648998921723,D22E01,2023-01-24_12h12.05.972,t1_Paradigm,2021.1.4,60.0037151178417,
D,left,Distractor,0,9,9,9,1416.8169028678744,1418.8189617754729,left,1,3,0.5146620975897349,D22E01,2023-01-24_12h12.05.972,t1_Paradigm,2021.1.4,60.0037151178417,
G,left,Distractor,0,10,10,10,1420.3168372638538,1422.3186106576218,left,1,3,0.5188848150592094,D22E01,2023-01-24_12h12.05.972,t1_Paradigm,2021.1.4,60.0037151178417,
M,left,Pretarget,0,11,11,11,1423.8168011736225,1425.8185957403261,left,1,3,0.73162598201543,D22E01,2023-01-24_12h12.05.972,t1_Paradigm,2021.1.4,60.0037151178417,
Y,left,Distractor,0,12,12,12,1427.3167137550618,1429.3186154696527,left,1,3,0.8632295720467482,D22E01,2023-01-24_12h12.05.972,t1_Paradigm,2021.1.4,60.0037151178417,
V,left,Distractor,0,13,13,13,1430.816823629766,1432.8168961310312,left,1,3,0.9005465504633321,D22E01,2023-01-24_12h12.05.972,t1_Paradigm,2021.1.4,60.0037151178417,
M,right,Target,0,14,14,14,1434.3166544066817,1436.3171041711648,left,0,3,0.792651194811242,D22E01,2023-01-24_12h12.05.972,t1_Paradigm,2021.1.4,60.0037151178417,
S,left,Pretarget,0,15,15,15,1437.8170283014783,1439.8190230486653,left,1,3,1.4185514054820487,D22E01,2023-01-24_12h12.05.972,t1_Paradigm,2021.1.4,60.0037151178417,
Q,left,Distractor,0,16,16,16,1441.316896291432,1443.3187723418582,left,1,3,0.9428157502261456,D22E01,2023-01-24_12h12.05.972,t1_Paradigm,2021.1.4,60.0037151178417,
R,left,Pretarget,0,17,17,17,1444.8165390783424,1446.818657013519,left,1,3,0.6113688399186685,D22E01,2023-01-24_12h12.05.972,t1_Paradigm,2021.1.4,60.0037151178417,
S,right,Target,0,18,18,18,1448.316766045797,1450.3160304466815,left,0,3,0.9855635866565535,D22E01,2023-01-24_12h12.05.972,t1_Paradigm,2021.1.4,60.0037151178417,
F,left,Distractor,0,19,19,19,1451.8167251435348,1453.8196591991436,left,1,3,0.6340922119848074,D22E01,2023-01-24_12h12.05.972,t1_Paradigm,2021.1.4,60.0037151178417,
R,right,Target,0,20,20,20,1455.316878005715,1457.3188916802233,left,0,3,0.7827294288085795,D22E01,2023-01-24_12h12.05.972,t1_Paradigm,2021.1.4,60.0037151178417,
P,left,Distractor,0,21,21,21,1458.8167264267431,1460.8187003217968,left,1,3,0.7391000283269022,D22E01,2023-01-24_12h12.05.972,t1_Paradigm,2021.1.4,60.0037151178417,
L,left,Distractor,0,22,22,22,1462.3167788778796,1464.318752131329,left,1,3,0.8868951397525962,D22E01,2023-01-24_12h12.05.972,t1_Paradigm,2021.1.4,60.0037151178417,
R,right,Target,0,23,23,23,1465.8165031485119,1467.8158856045534,left,0,3,1.0057940059418797,D22E01,2023-01-24_12h12.05.972,t1_Paradigm,2021.1.4,60.0037151178417,
H,left,Pretarget,0,24,24,24,1469.3162851635143,1471.3189962616939,left,1,3,0.9109729381011675,D22E01,2023-01-24_12h12.05.972,t1_Paradigm,2021.1.4,60.0037151178417,
G,left,Pretarget,0,25,25,25,1472.8168354994423,1474.817146035833,left,1,3,0.9966691122476732,D22E01,2023-01-24_12h12.05.972,t1_Paradigm,2021.1.4,60.0037151178417,
T,left,Distractor,0,26,26,26,1476.3335674119007,1478.3158639504145,left,1,3,1.193915219073915,D22E01,2023-01-24_12h12.05.972,t1_Paradigm,2021.1.4,60.0037151178417,
H,right,Target,0,27,27,27,1479.8168367826506,1481.8170209230311,left,0,3,0.7489021351625524,D22E01,2023-01-24_12h12.05.972,t1_Paradigm,2021.1.4,60.0037151178417,
G,right,Target,0,28,28,28,1483.3167695746197,1485.31845282301,left,0,3,1.0552738735273124,D22E01,2023-01-24_12h12.05.972,t1_Paradigm,2021.1.4,60.0037151178417,
D,left,Distractor,0,29,29,29,1486.8158772636998,1488.8183009232362,left,1,3,0.6117355166693415,D22E01,2023-01-24_12h12.05.972,t1_Paradigm,2021.1.4,60.0037151178417,
N,left,Pretarget,0,30,30,30,1490.3159723815093,1492.3193796201513,left,1,3,0.5503115469168733,D22E01,2023-01-24_12h12.05.972,t1_Paradigm,2021.1.4,60.0037151178417,
V,left,Distractor,0,31,31,31,1493.8169137751443,1495.8185922115035,left,1,3,0.6030231744198318,D22E01,2023-01-24_12h12.05.972,t1_Paradigm,2021.1.4,60.0037151178417,
R,left,Distractor,0,32,32,32,1497.316748722486,1499.3185532340535,left,1,3,0.6551320148582818,D22E01,2023-01-24_12h12.05.972,t1_Paradigm,2021.1.4,60.0037151178417,
N,right,Target,0,33,33,33,1500.8168181761312,1502.8183791989381,right,1,3,0.9310689413241562,D22E01,2023-01-24_12h12.05.972,t1_Paradigm,2021.1.4,60.0037151178417,
Z,left,Distractor,0,34,34,34,1504.316379158517,1506.3178019156376,left,1,3,0.8718832075201135,D22E01,2023-01-24_12h12.05.972,t1_Paradigm,2021.1.4,60.0037151178417,
N,left,Lure,0,35,35,35,1507.8164954492627,1509.8185918907016,None,0,3,,D22E01,2023-01-24_12h12.05.972,t1_Paradigm,2021.1.4,60.0037151178417,
Y,left,Pretarget,0,36,36,36,1511.3167509681007,1513.318981504799,left,1,3,0.6706806489310111,D22E01,2023-01-24_12h12.05.972,t1_Paradigm,2021.1.4,60.0037151178417,
Y,left,Lure,0,37,37,37,1514.8169429681311,1516.816838707463,left,1,3,0.8847505780049687,D22E01,2023-01-24_12h12.05.972,t1_Paradigm,2021.1.4,60.0037151178417,
B,left,Distractor,0,38,38,38,1518.3168019756276,1520.3162659153913,left,1,3,0.9693425514733462,D22E01,2023-01-24_12h12.05.972,t1_Paradigm,2021.1.4,60.0037151178417,
Y,right,Target,0,39,39,39,1521.8168249129744,1523.8191802416732,right,1,3,0.7147245256701353,D22E01,2023-01-24_12h12.05.972,t1_Paradigm,2021.1.4,60.0037151178417,
J,left,Distractor,0,40,40,40,1525.3167949179824,1527.3182106174572,left,1,3,0.7673905992805885,D22E01,2023-01-24_12h12.05.972,t1_Paradigm,2021.1.4,60.0037151178417,
X,left,Distractor,0,41,41,41,1528.8168958102292,1530.8183172841414,left,1,3,0.7713358229711957,D22E01,2023-01-24_12h12.05.972,t1_Paradigm,2021.1.4,60.0037151178417,
W,left,Pretarget,0,42,42,42,1532.3168022964296,1534.3185269282853,left,1,3,0.5830904594431559,D22E01,2023-01-24_12h12.05.972,t1_Paradigm,2021.1.4,60.0037151178417,
S,left,Pretarget,0,43,43,43,1535.816782887905,1537.8187606325832,left,1,3,0.5549205100624022,D22E01,2023-01-24_12h12.05.972,t1_Paradigm,2021.1.4,60.0037151178417,
R,left,Distractor,0,44,44,44,1539.3167952387844,1541.3192099158632,left,1,3,0.670423365681927,D22E01,2023-01-24_12h12.05.972,t1_Paradigm,2021.1.4,60.0037151178417,
W,right,Target,0,45,45,45,1542.81707225136,1544.8187567829586,left,0,3,0.8349236025942446,D22E01,2023-01-24_12h12.05.972,t1_Paradigm,2021.1.4,60.0037151178417,
S,right,Target,0,46,46,46,1546.3167522513086,1548.3176354193702,left,0,3,0.6326826077488477,D22E01,2023-01-24_12h12.05.972,t1_Paradigm,2021.1.4,60.0037151178417,
D,left,Distractor,0,47,47,47,1549.8168303666093,1551.8167392588252,left,1,3,0.5729332247310595,D22E01,2023-01-24_12h12.05.972,t1_Paradigm,2021.1.4,60.0037151178417,
T,left,Distractor,0,48,48,48,1553.316839509468,1555.3189924120688,left,1,3,0.5586520795836805,D22E01,2023-01-24_12h12.05.972,t1_Paradigm,2021.1.4,60.0037151178417,
S,right,Target,0,49,49,49,1556.8168188177356,1558.817155980697,right,1,3,0.45238928559638225,D22E01,2023-01-24_12h12.05.972,t1_Paradigm,2021.1.4,60.0037151178417,
K,left,Distractor,0,50,50,50,1560.316413163535,1562.3179036098895,left,1,3,0.4235539927503851,D22E01,2023-01-24_12h12.05.972,t1_Paradigm,2021.1.4,60.0037151178417,
S,left,Lure,0,51,51,51,1563.8167264267431,1565.8182839207275,left,1,3,1.0512933616109876,D22E01,2023-01-24_12h12.05.972,t1_Paradigm,2021.1.4,60.0037151178417,
T,left,Pretarget,0,52,52,52,1567.3165758101777,1569.3184210636064,left,1,3,0.9913665750564178,D22E01,2023-01-24_12h12.05.972,t1_Paradigm,2021.1.4,60.0037151178417,
V,left,Distractor,0,53,53,53,1570.8167918703625,1572.8171248628973,left,1,3,1.14064796240973,D22E01,2023-01-24_12h12.05.972,t1_Paradigm,2021.1.4,60.0037151178417,
B,left,Distractor,0,54,54,54,1574.3168696648613,1576.3162797098794,left,1,3,0.5853341490260391,D22E01,2023-01-24_12h12.05.972,t1_Paradigm,2021.1.4,60.0037151178417,
T,right,Target,0,55,55,55,1577.816544211175,1579.8185944571178,right,1,3,1.0510643089428413,D22E01,2023-01-24_12h12.05.972,t1_Paradigm,2021.1.4,60.0037151178417,
Y,left,Pretarget,0,56,56,56,1581.3167654041931,1583.3175228178484,left,1,3,0.6562131177888659,D22E01,2023-01-24_12h12.05.972,t1_Paradigm,2021.1.4,60.0037151178417,
T,left,Lure,0,57,57,57,1584.8168229881621,1586.8188193393594,right,0,3,1.0428572299319967,D22E01,2023-01-24_12h12.05.972,t1_Paradigm,2021.1.4,60.0037151178417,
P,left,Pretarget,0,58,58,58,1588.3167904267534,1590.3184688631127,left,1,3,0.6472229609580609,D22E01,2023-01-24_12h12.05.972,t1_Paradigm,2021.1.4,60.0037151178417,
Y,right,Target,0,59,59,59,1591.8168528227534,1593.8180609632982,right,1,3,1.019555130956178,D22E01,2023-01-24_12h12.05.972,t1_Paradigm,2021.1.4,60.0037151178417,
R,left,Distractor,0,60,60,60,1595.316789143545,1597.3175478404087,left,1,3,0.6081316263671397,D22E01,2023-01-24_12h12.05.972,t1_Paradigm,2021.1.4,60.0037151178417,
P,right,Target,0,61,61,61,1598.8165451735813,1600.8189665875034,left,0,3,1.234818122878096,D22E01,2023-01-24_12h12.05.972,t1_Paradigm,2021.1.4,60.0037151178417,
L,left,Distractor,0,62,62,62,1602.3169270884296,1604.3192156903006,left,1,3,0.6785621138546958,D22E01,2023-01-24_12h12.05.972,t1_Paradigm,2021.1.4,60.0037151178417,
V,left,Distractor,0,63,63,63,1605.8168210633498,1607.8185970235345,left,1,3,0.5870494776218038,D22E01,2023-01-24_12h12.05.972,t1_Paradigm,2021.1.4,60.0037151178417,
H,left,Lure,0,0,0,0,1648.4233034463446,1650.4186511749217,left,1,3,1.171038182823395,D22E01,2023-01-24_12h12.05.972,t1_Paradigm,2021.1.4,60.0037151178417,
B,left,Distractor,0,1,1,1,1651.9170999365774,1653.9187190245566,left,1,3,0.7752040541681708,D22E01,2023-01-24_12h12.05.972,t1_Paradigm,2021.1.4,60.0037151178417,
T,left,Distractor,0,2,2,2,1655.4168097711176,1657.4190229845049,left,1,3,0.8426283055846397,D22E01,2023-01-24_12h12.05.972,t1_Paradigm,2021.1.4,60.0037151178417,
R,left,Distractor,0,3,3,3,1658.916726202182,1660.9190430346334,left,1,3,0.7025856966556603,D22E01,2023-01-24_12h12.05.972,t1_Paradigm,2021.1.4,60.0037151178417,
H,left,Pretarget,0,4,4,4,1662.417137951621,1664.4193049695127,left,1,3,0.5784786090789567,D22E01,2023-01-24_12h12.05.972,t1_Paradigm,2021.1.4,60.0037151178417,
K,left,Distractor,0,5,5,5,1665.9169347235184,1667.91934202215,left,1,3,1.2543581761374298,D22E01,2023-01-24_12h12.05.972,t1_Paradigm,2021.1.4,60.0037151178417,
G,left,Distractor,0,6,6,6,1669.4167776909117,1671.4190698216053,left,1,3,1.0505584040997746,D22E01,2023-01-24_12h12.05.972,t1_Paradigm,2021.1.4,60.0037151178417,
H,right,Target,0,7,7,7,1672.9169770693898,1674.9189666837442,right,1,3,1.16680070845905,D22E01,2023-01-24_12h12.05.972,t1_Paradigm,2021.1.4,60.0037151178417,
Y,left,Pretarget,0,8,8,8,1676.4168736107267,1678.4184718465722,left,1,3,0.7711712515160798,D22E01,2023-01-24_12h12.05.972,t1_Paradigm,2021.1.4,60.0037151178417,
S,left,Distractor,0,9,9,9,1679.9167746432922,1681.9188739719498,left,1,3,0.7268963972969686,D22E01,2023-01-24_12h12.05.972,t1_Paradigm,2021.1.4,60.0037151178417,
P,left,Distractor,0,10,10,10,1683.4165836056677,1685.417989681081,left,1,3,0.8759419951384189,D22E01,2023-01-24_12h12.05.972,t1_Paradigm,2021.1.4,60.0037151178417,
Y,right,Target,0,11,11,11,1686.9168676758886,1688.9186680170296,right,1,3,0.9750034245621464,D22E01,2023-01-24_12h12.05.972,t1_Paradigm,2021.1.4,60.0037151178417,
H,left,Lure,0,12,12,12,1690.416898633287,1692.4182973302532,left,1,3,0.899327181847184,D22E01,2023-01-24_12h12.05.972,t1_Paradigm,2021.1.4,60.0037151178417,
Q,left,Distractor,0,13,13,13,1693.917012036814,1695.9184110545825,left,1,3,1.1594075042658005,D22E01,2023-01-24_12h12.05.972,t1_Paradigm,2021.1.4,60.0037151178417,
V,left,Pretarget,0,14,14,14,1697.4167164177188,1699.4187868741915,left,1,3,1.0189343789770646,D22E01,2023-01-24_12h12.05.972,t1_Paradigm,2021.1.4,60.0037151178417,
G,left,Distractor,0,15,15,15,1700.9167781721148,1702.9165616307268,left,1,3,0.8009025445057887,D22E01,2023-01-24_12h12.05.972,t1_Paradigm,2021.1.4,60.0037151178417,
Z,left,Pretarget,0,16,16,16,1704.416978192197,1706.4187573604022,left,1,3,0.9790282071621732,D22E01,2023-01-24_12h12.05.972,t1_Paradigm,2021.1.4,60.0037151178417,
V,right,Target,0,17,17,17,1707.9165895405058,1709.9183359869012,left,0,3,0.919251555970277,D22E01,2023-01-24_12h12.05.972,t1_Paradigm,2021.1.4,60.0037151178417,
N,left,Distractor,0,18,18,18,1711.4167635756212,1713.4187137313224,left,1,3,0.5869314224655682,D22E01,2023-01-24_12h12.05.972,t1_Paradigm,2021.1.4,60.0037151178417,
Z,right,Target,0,19,19,19,1714.9168878864184,1716.9193445885667,right,1,3,0.6064454907582331,D22E01,2023-01-24_12h12.05.972,t1_Paradigm,2021.1.4,60.0037151178417,
R,left,Distractor,0,20,20,20,1718.4167347034363,1720.4187573604022,left,1,3,0.4988122303857381,D22E01,2023-01-24_12h12.05.972,t1_Paradigm,2021.1.4,60.0037151178417,
P,left,Distractor,0,21,21,21,1721.9164910542745,1723.9187777313327,left,1,3,0.7750163849650562,D22E01,2023-01-24_12h12.05.972,t1_Paradigm,2021.1.4,60.0037151178417,
Z,right,Target,0,22,22,22,1725.416954773647,1727.4183727187365,None,0,3,,D22E01,2023-01-24_12h12.05.972,t1_Paradigm,2021.1.4,60.0037151178417,
D,left,Pretarget,0,23,23,23,1728.9167945330196,1730.91674929993,left,1,3,0.9769670539494655,D22E01,2023-01-24_12h12.05.972,t1_Paradigm,2021.1.4,60.0037151178417,
K,left,Distractor,0,24,24,24,1732.4167914854002,1734.4191282075794,left,1,3,0.7705209857476802,D22E01,2023-01-24_12h12.05.972,t1_Paradigm,2021.1.4,60.0037151178417,
W,left,Distractor,0,25,25,25,1735.9168381620993,1737.9183940520734,left,1,3,0.7432990064439764,D22E01,2023-01-24_12h12.05.972,t1_Paradigm,2021.1.4,60.0037151178417,
D,right,Target,0,26,26,26,1739.416783465349,1741.4184558064694,left,0,3,0.8751942055450854,D22E01,2023-01-24_12h12.05.972,t1_Paradigm,2021.1.4,60.0037151178417,
G,left,Pretarget,0,27,27,27,1742.9167717560736,1744.918710362901,left,1,3,1.0070781765739412,D22E01,2023-01-24_12h12.05.972,t1_Paradigm,2021.1.4,60.0037151178417,
V,left,Distractor,0,28,28,28,1746.4167456107061,1748.4158541017914,left,1,3,0.6939397604314763,D22E01,2023-01-24_12h12.05.972,t1_Paradigm,2021.1.4,60.0037151178417,
D,right,Target,0,29,29,29,1749.9165494402487,1751.9174277962793,left,0,3,1.3522153146409437,D22E01,2023-01-24_12h12.05.972,t1_Paradigm,2021.1.4,60.0037151178417,
G,right,Target,0,30,30,30,1753.4169137109839,1755.418313049554,None,0,3,,D22E01,2023-01-24_12h12.05.972,t1_Paradigm,2021.1.4,60.0037151178417,
B,left,Pretarget,0,31,31,31,1756.9165754252153,1758.9190439970398,left,1,3,0.9107583215250088,D22E01,2023-01-24_12h12.05.972,t1_Paradigm,2021.1.4,60.0037151178417,
N,left,Distractor,0,32,32,32,1760.4164228838372,1762.418708919292,left,1,3,0.7709912815621465,D22E01,2023-01-24_12h12.05.972,t1_Paradigm,2021.1.4,60.0037151178417,
F,left,Distractor,0,33,33,33,1763.9167762473026,1765.9189560972764,left,1,3,0.9827078067501134,D22E01,2023-01-24_12h12.05.972,t1_Paradigm,2021.1.4,60.0037151178417,
B,right,Target,0,34,34,34,1767.4168132999403,1769.416277560506,left,0,3,1.1495081944071899,D22E01,2023-01-24_12h12.05.972,t1_Paradigm,2021.1.4,60.0037151178417,
Q,left,Pretarget,0,35,35,35,1770.91679613703,1772.9169074553438,left,1,3,0.7846901709781378,D22E01,2023-01-24_12h12.05.972,t1_Paradigm,2021.1.4,60.0037151178417,
S,left,Pretarget,0,36,36,36,1774.41595996647,1776.4334427161411,left,1,3,0.6763796974646539,D22E01,2023-01-24_12h12.05.972,t1_Paradigm,2021.1.4,60.0037151178417,
W,left,Distractor,0,37,37,37,1777.916734543035,1779.915960768475,left,1,3,0.6499847458621844,D22E01,2023-01-24_12h12.05.972,t1_Paradigm,2021.1.4,60.0037151178417,
Q,right,Target,0,38,38,38,1781.416567244763,1783.4187467739343,right,1,3,0.763117836690526,D22E01,2023-01-24_12h12.05.972,t1_Paradigm,2021.1.4,60.0037151178417,
S,right,Target,0,39,39,39,1784.9167480167216,1786.9185592651324,right,1,3,1.1191324100864222,D22E01,2023-01-24_12h12.05.972,t1_Paradigm,2021.1.4,60.0037151178417,
T,left,Distractor,0,40,40,40,1788.4168367184902,1790.417625570747,left,1,3,0.6440313012981278,D22E01,2023-01-24_12h12.05.972,t1_Paradigm,2021.1.4,60.0037151178417,
G,left,Distractor,0,41,41,41,1791.916766944043,1793.9187684280732,left,1,3,1.1751550356138978,D22E01,2023-01-24_12h12.05.972,t1_Paradigm,2021.1.4,60.0037151178417,
D,left,Distractor,0,42,42,42,1795.4167343826343,1797.418483074644,left,1,3,0.7953834659260792,D22E01,2023-01-24_12h12.05.972,t1_Paradigm,2021.1.4,60.0037151178417,
S,left,Lure,0,43,43,43,1798.9168574102227,1800.918558302726,right,0,3,0.8470524867452696,D22E01,2023-01-24_12h12.05.972,t1_Paradigm,2021.1.4,60.0037151178417,
Z,left,Pretarget,0,44,44,44,1802.416903445318,1804.4188824732041,left,1,3,0.8027574219959206,D22E01,2023-01-24_12h12.05.972,t1_Paradigm,2021.1.4,60.0037151178417,
J,left,Distractor,0,45,45,45,1805.916767264845,1807.9171705130298,left,1,3,0.6488250464281009,D22E01,2023-01-24_12h12.05.972,t1_Paradigm,2021.1.4,60.0037151178417,
M,left,Pretarget,0,46,46,46,1809.416728608197,1811.418829220063,left,1,3,0.6188990265904977,D22E01,2023-01-24_12h12.05.972,t1_Paradigm,2021.1.4,60.0037151178417,
Z,right,Target,0,47,47,47,1812.9169459515906,1814.9185342425722,right,1,3,1.0392581516603059,D22E01,2023-01-24_12h12.05.972,t1_Paradigm,2021.1.4,60.0037151178417,
P,left,Distractor,0,48,48,48,1816.4168739315287,1818.417510723611,left,1,3,0.5324457595902459,D22E01,2023-01-24_12h12.05.972,t1_Paradigm,2021.1.4,60.0037151178417,
M,right,Target,0,49,49,49,1819.916808006706,1821.9170822924643,left,0,3,0.8085235181592907,D22E01,2023-01-24_12h12.05.972,t1_Paradigm,2021.1.4,60.0037151178417,
K,left,Distractor,0,50,50,50,1823.41692718467,1825.4190800872711,left,1,3,0.6665679665670723,D22E01,2023-01-24_12h12.05.972,t1_Paradigm,2021.1.4,60.0037151178417,
Y,left,Distractor,0,51,51,51,1826.9168965480735,1828.9191395960524,left,1,3,0.7025642029175287,D22E01,2023-01-24_12h12.05.972,t1_Paradigm,2021.1.4,60.0037151178417,
X,left,Distractor,0,52,52,52,1830.4168335104696,1832.41683511448,left,1,3,0.6290783966442177,D22E01,2023-01-24_12h12.05.972,t1_Paradigm,2021.1.4,60.0037151178417,
F,left,Pretarget,0,53,53,53,1833.9163033850714,1835.916556497894,left,1,3,0.5530457428444606,D22E01,2023-01-24_12h12.05.972,t1_Paradigm,2021.1.4,60.0037151178417,
M,left,Lure,0,54,54,54,1837.416783786151,1839.4187698716823,left,1,3,0.922828178097916,D22E01,2023-01-24_12h12.05.972,t1_Paradigm,2021.1.4,60.0037151178417,
V,left,Distractor,0,55,55,55,1840.9164814302126,1842.919056187518,left,1,3,0.5907566661862802,D22E01,2023-01-24_12h12.05.972,t1_Paradigm,2021.1.4,60.0037151178417,
F,right,Target,0,56,56,56,1844.416681450295,1846.4188635458831,right,1,3,0.8988219186080642,D22E01,2023-01-24_12h12.05.972,t1_Paradigm,2021.1.4,60.0037151178417,
S,left,Distractor,0,57,57,57,1847.9167749640942,1849.9175843476828,left,1,3,0.8079820042876236,D22E01,2023-01-24_12h12.05.972,t1_Paradigm,2021.1.4,60.0037151178417,
D,left,Distractor,0,58,58,58,1851.4165197660586,1853.4189703729676,left,1,3,1.114620329162335,D22E01,2023-01-24_12h12.05.972,t1_Paradigm,2021.1.4,60.0037151178417,
F,right,Target,0,59,59,59,1854.9163492597654,1856.9187677864693,right,1,3,0.5429231547545896,D22E01,2023-01-24_12h12.05.972,t1_Paradigm,2021.1.4,60.0037151178417,
V,left,Pretarget,0,60,60,60,1858.416944828783,1860.4176185131018,left,1,3,0.6761086197266195,D22E01,2023-01-24_12h12.05.972,t1_Paradigm,2021.1.4,60.0037151178417,
J,left,Distractor,0,61,61,61,1861.917090312516,1863.9188649894922,left,1,3,0.4549274714668172,D22E01,2023-01-24_12h12.05.972,t1_Paradigm,2021.1.4,60.0037151178417,
V,left,Lure,0,62,62,62,1865.4158412697088,1867.4178636058728,left,1,3,1.0518335922738515,D22E01,2023-01-24_12h12.05.972,t1_Paradigm,2021.1.4,60.0037151178417,
V,right,Target,0,63,63,63,1868.9168349540787,1870.9164179114055,left,0,3,1.1052792148821027,D22E01,2023-01-24_12h12.05.972,t1_Paradigm,2021.1.4,60.0037151178417,
R,left,Distractor,0,0,0,0,1947.9815092902672,1949.9854028648265,left,1,4,0.5647883813194312,D22E01,2023-01-24_12h12.05.972,t1_Paradigm,2021.1.4,60.0037151178417,
F,left,Distractor,0,1,1,1,1951.4835240875827,1953.4848849299065,left,1,4,0.40885323851262,D22E01,2023-01-24_12h12.05.972,t1_Paradigm,2021.1.4,60.0037151178417,
P,left,Pretarget,0,2,2,2,1954.98325220784,1956.9964073377696,left,1,4,0.6093028746749951,D22E01,2023-01-24_12h12.05.972,t1_Paradigm,2021.1.4,60.0037151178417,
H,left,Distractor,0,3,3,3,1958.483143616344,1960.4852089399833,left,1,4,0.8324739580912137,D22E01,2023-01-24_12h12.05.972,t1_Paradigm,2021.1.4,60.0037151178417,
Z,left,Distractor,0,4,4,4,1961.9834353858141,1963.9853120778448,left,1,4,0.6925307977990087,D22E01,2023-01-24_12h12.05.972,t1_Paradigm,2021.1.4,60.0037151178417,
T,left,Distractor,0,5,5,5,1965.4835192755522,1967.4849019324156,left,1,4,0.776798761191003,D22E01,2023-01-24_12h12.05.972,t1_Paradigm,2021.1.4,60.0037151178417,
P,right,Target,0,6,6,6,1968.9830655010433,1970.9843647493717,left,0,4,1.133321805846208,D22E01,2023-01-24_12h12.05.972,t1_Paradigm,2021.1.4,60.0037151178417,
G,left,Distractor,0,7,7,7,1972.48358600238,1974.4854158573098,left,1,4,1.088318410156262,D22E01,2023-01-24_12h12.05.972,t1_Paradigm,2021.1.4,60.0037151178417,
L,left,Distractor,0,8,8,8,1975.983439877043,1977.9856813210117,left,1,4,0.7558985072118958,D22E01,2023-01-24_12h12.05.972,t1_Paradigm,2021.1.4,60.0037151178417,
P,left,Lure,0,9,9,9,1979.4825270347915,1981.4841499723952,right,0,4,1.1297236899808922,D22E01,2023-01-24_12h12.05.972,t1_Paradigm,2021.1.4,60.0037151178417,
Q,left,Pretarget,0,10,10,10,1982.9835175111407,1984.983137681506,left,1,4,0.9746059508142935,D22E01,2023-01-24_12h12.05.972,t1_Paradigm,2021.1.4,60.0037151178417,
D,left,Distractor,0,11,11,11,1986.483439716642,1988.4829938017838,left,1,4,0.9949194578316565,D22E01,2023-01-24_12h12.05.972,t1_Paradigm,2021.1.4,60.0037151178417,
M,left,Pretarget,0,12,12,12,1989.9834260825546,1991.9857182132482,left,1,4,0.8679030164053074,D22E01,2023-01-24_12h12.05.972,t1_Paradigm,2021.1.4,60.0037151178417,
C,left,Distractor,0,13,13,13,1993.483432979799,1995.4852737419988,left,1,4,1.016428914916105,D22E01,2023-01-24_12h12.05.972,t1_Paradigm,2021.1.4,60.0037151178417,
Q,right,Target,0,14,14,14,1996.9836320374748,1998.9845562681994,right,1,4,1.3093022651510182,D22E01,2023-01-24_12h12.05.972,t1_Paradigm,2021.1.4,60.0037151178417,
R,left,Distractor,0,15,15,15,2000.4835600174133,2002.4844082180507,left,1,4,0.8815521815017746,D22E01,2023-01-24_12h12.05.972,t1_Paradigm,2021.1.4,60.0037151178417,
M,right,Target,0,16,16,16,2003.9831335110794,2005.985393882369,right,1,4,1.0444387840702802,D22E01,2023-01-24_12h12.05.972,t1_Paradigm,2021.1.4,60.0037151178417,
S,left,Distractor,0,17,17,17,2007.483489761763,2009.485035386071,left,1,4,0.8247727839234358,D22E01,2023-01-24_12h12.05.972,t1_Paradigm,2021.1.4,60.0037151178417,
Z,left,Distractor,0,18,18,18,2010.9835852003748,2012.9833365787808,left,1,4,0.6703136513783647,D22E01,2023-01-24_12h12.05.972,t1_Paradigm,2021.1.4,60.0037151178417,
L,left,Pretarget,0,19,19,19,2014.4834458118812,2016.48326937075,left,1,4,1.0265733175456262,D22E01,2023-01-24_12h12.05.972,t1_Paradigm,2021.1.4,60.0037151178417,
M,right,Target,0,20,20,20,2017.9832105035725,2019.9849518171354,right,1,4,1.1248670676482107,D22E01,2023-01-24_12h12.05.972,t1_Paradigm,2021.1.4,60.0037151178417,
P,left,Distractor,0,21,21,21,2021.4834887993566,2023.484962884806,left,1,4,1.2088601036766704,D22E01,2023-01-24_12h12.05.972,t1_Paradigm,2021.1.4,60.0037151178417,
F,left,Distractor,0,22,22,22,2024.9834533507296,2026.984559155418,left,1,4,0.5571892222055794,D22E01,2023-01-24_12h12.05.972,t1_Paradigm,2021.1.4,60.0037151178417,
L,right,Target,0,23,23,23,2028.4834233557372,2030.4841451603643,left,0,4,0.6096012205875923,D22E01,2023-01-24_12h12.05.972,t1_Paradigm,2021.1.4,60.0037151178417,
L,left,Lure,0,24,24,24,2031.983473882061,2033.9834841477268,left,1,4,0.8059834074761056,D22E01,2023-01-24_12h12.05.972,t1_Paradigm,2021.1.4,60.0037151178417,
V,left,Pretarget,0,25,25,25,2035.4833059421844,2037.4827169496089,left,1,4,1.0029318099936972,D22E01,2023-01-24_12h12.05.972,t1_Paradigm,2021.1.4,60.0037151178417,
Z,left,Distractor,0,26,26,26,2038.9831161877682,2040.985826002739,left,1,4,0.8119503257262295,D22E01,2023-01-24_12h12.05.972,t1_Paradigm,2021.1.4,60.0037151178417,
H,left,Distractor,0,27,27,27,2042.4834721176499,2044.4850623334437,left,1,4,1.232646613757879,D22E01,2023-01-24_12h12.05.972,t1_Paradigm,2021.1.4,60.0037151178417,
X,left,Distractor,0,28,28,28,2045.9833956063594,2047.985051907377,left,1,4,1.2046720328294214,D22E01,2023-01-24_12h12.05.972,t1_Paradigm,2021.1.4,60.0037151178417,
V,right,Target,0,29,29,29,2049.4834830249197,2051.485440559068,right,1,4,0.8082453827760219,D22E01,2023-01-24_12h12.05.972,t1_Paradigm,2021.1.4,60.0037151178417,
C,left,Distractor,0,30,30,30,2052.98345495474,2054.982997170205,None,0,4,,D22E01,2023-01-24_12h12.05.972,t1_Paradigm,2021.1.4,60.0037151178417,
S,left,Pretarget,0,31,31,31,2056.4834429246625,2058.485722544076,left,1,4,0.8480620508171341,D22E01,2023-01-24_12h12.05.972,t1_Paradigm,2021.1.4,60.0037151178417,
D,left,Distractor,0,32,32,32,2059.9833702629967,2061.982972789249,left,1,4,0.9989371827869036,D22E01,2023-01-24_12h12.05.972,t1_Paradigm,2021.1.4,60.0037151178417,
V,left,Distractor,0,33,33,33,2063.4834887993566,2065.4853051806003,left,1,4,1.0323670026855325,D22E01,2023-01-24_12h12.05.972,t1_Paradigm,2021.1.4,60.0037151178417,
R,left,Distractor,0,34,34,34,2066.983127095038,2068.985287055284,left,1,4,0.8606188849116734,D22E01,2023-01-24_12h12.05.972,t1_Paradigm,2021.1.4,60.0037151178417,
S,right,Target,0,35,35,35,2070.483497781814,2072.4839475462973,right,1,4,0.9459496655153998,D22E01,2023-01-24_12h12.05.972,t1_Paradigm,2021.1.4,60.0037151178417,
Y,left,Distractor,0,36,36,36,2073.983569481074,2075.9855331104613,left,1,4,0.9320611820849081,D22E01,2023-01-24_12h12.05.972,t1_Paradigm,2021.1.4,60.0037151178417,
N,left,Pretarget,0,37,37,37,2077.483042242894,2079.485420348539,left,1,4,0.6162989259228198,D22E01,2023-01-24_12h12.05.972,t1_Paradigm,2021.1.4,60.0037151178417,
Z,left,Pretarget,0,38,38,38,2080.98344565148,2082.9860107847235,right,0,4,0.9558053462942553,D22E01,2023-01-24_12h12.05.972,t1_Paradigm,2021.1.4,60.0037151178417,
P,left,Pretarget,0,39,39,39,2084.483512217907,2086.4855153059475,left,1,4,1.1042029239820295,D22E01,2023-01-24_12h12.05.972,t1_Paradigm,2021.1.4,60.0037151178417,
M,left,Distractor,0,40,40,40,2087.9835730098966,2089.98563737113,left,1,4,0.8520682268981545,D22E01,2023-01-24_12h12.05.972,t1_Paradigm,2021.1.4,60.0037151178417,
N,right,Target,0,41,41,41,2091.482996689002,2093.5022075993516,right,1,4,1.0314453383771252,D22E01,2023-01-24_12h12.05.972,t1_Paradigm,2021.1.4,60.0037151178417,
Z,right,Target,0,42,42,42,2094.98313832311,2096.9834706740403,right,1,4,1.3582807191228312,D22E01,2023-01-24_12h12.05.972,t1_Paradigm,2021.1.4,60.0037151178417,
P,right,Target,0,43,43,43,2098.4831583732384,2100.485222092868,right,1,4,1.2164226913560015,D22E01,2023-01-24_12h12.05.972,t1_Paradigm,2021.1.4,60.0037151178417,
X,left,Pretarget,0,44,44,44,2101.9831668744932,2103.982916328087,left,1,4,0.8385797836317579,D22E01,2023-01-24_12h12.05.972,t1_Paradigm,2021.1.4,60.0037151178417,
Z,left,Lure,0,45,45,45,2105.4832546138555,2107.4845509749657,right,0,4,1.1771799381940582,D22E01,2023-01-24_12h12.05.972,t1_Paradigm,2021.1.4,60.0037151178417,
R,left,Pretarget,0,46,46,46,2108.983410684056,2110.983316047449,left,1,4,0.6864240098525443,D22E01,2023-01-24_12h12.05.972,t1_Paradigm,2021.1.4,60.0037151178417,
K,left,Distractor,0,47,47,47,2112.483570924683,2114.4856927094847,left,1,4,0.9281942340967362,D22E01,2023-01-24_12h12.05.972,t1_Paradigm,2021.1.4,60.0037151178417,
X,right,Target,0,48,48,48,2115.983453029927,2117.9851125389655,left,0,4,0.9005369264018555,D22E01,2023-01-24_12h12.05.972,t1_Paradigm,2021.1.4,60.0037151178417,
B,left,Distractor,0,49,49,49,2119.4835064434697,2121.485734734554,left,1,4,0.7921844278189383,D22E01,2023-01-24_12h12.05.972,t1_Paradigm,2021.1.4,60.0037151178417,
R,right,Target,0,50,50,50,2122.983570764282,2124.9854695916542,None,0,4,,D22E01,2023-01-24_12h12.05.972,t1_Paradigm,2021.1.4,60.0037151178417,
Y,left,Pretarget,0,51,51,51,2126.483150032385,2128.482648618771,left,1,4,0.8672132919841715,D22E01,2023-01-24_12h12.05.972,t1_Paradigm,2021.1.4,60.0037151178417,
W,left,Pretarget,0,52,52,52,2129.9834087592435,2131.9829840173206,left,1,4,0.5506852813127807,D22E01,2023-01-24_12h12.05.972,t1_Paradigm,2021.1.4,60.0037151178417,
Z,left,Distractor,0,53,53,53,2133.4834256013514,2135.4851999575258,left,1,4,0.8246595407977111,D22E01,2023-01-24_12h12.05.972,t1_Paradigm,2021.1.4,60.0037151178417,
Q,left,Distractor,0,54,54,54,2136.9835220023697,2138.9847638271303,left,1,4,0.620984881561526,D22E01,2023-01-24_12h12.05.972,t1_Paradigm,2021.1.4,60.0037151178417,
Y,right,Target,0,55,55,55,2140.483077851922,2142.4849077068525,right,1,4,0.6090747844127691,D22E01,2023-01-24_12h12.05.972,t1_Paradigm,2021.1.4,60.0037151178417,
W,right,Target,0,56,56,56,2143.983558894606,2145.9858728398394,right,1,4,0.8837929838664422,D22E01,2023-01-24_12h12.05.972,t1_Paradigm,2021.1.4,60.0037151178417,
H,left,Pretarget,0,57,57,57,2147.483348288056,2149.4829187341024,left,1,4,1.162871845673635,D22E01,2023-01-24_12h12.05.972,t1_Paradigm,2021.1.4,60.0037151178417,
M,left,Distractor,0,58,58,58,2150.983455917146,2152.985820549104,left,1,4,0.8760991881463269,D22E01,2023-01-24_12h12.05.972,t1_Paradigm,2021.1.4,60.0037151178417,
R,left,Pretarget,0,59,59,59,2154.4833851802923,2156.4826537516037,left,1,4,0.8992883647979397,D22E01,2023-01-24_12h12.05.972,t1_Paradigm,2021.1.4,60.0037151178417,
J,left,Distractor,0,60,60,60,2157.983554403377,2159.9853063034075,left,1,4,1.0125340571480592,D22E01,2023-01-24_12h12.05.972,t1_Paradigm,2021.1.4,60.0037151178417,
H,right,Target,0,61,61,61,2161.4835147843232,2163.485637852333,left,0,4,0.9680349622913127,D22E01,2023-01-24_12h12.05.972,t1_Paradigm,2021.1.4,60.0037151178417,
Z,left,Distractor,0,62,62,62,2164.983086353177,2166.9841812505956,left,1,4,0.6694766788132256,D22E01,2023-01-24_12h12.05.972,t1_Paradigm,2021.1.4,60.0037151178417,
R,right,Target,0,63,63,63,2168.4830672654543,2170.4855688798907,left,0,4,1.3602039274514937,D22E01,2023-01-24_12h12.05.972,t1_Paradigm,2021.1.4,60.0037151178417,
J,left,Pretarget,0,0,0,0,2189.2995550154674,2191.301706955662,left,1,4,0.5919753931989362,D22E01,2023-01-24_12h12.05.972,t1_Paradigm,2021.1.4,60.0037151178417,
G,left,Pretarget,0,1,1,1,2192.7999622736784,2194.799966764907,left,1,4,0.5176644840366862,D22E01,2023-01-24_12h12.05.972,t1_Paradigm,2021.1.4,60.0037151178417,
Z,left,Distractor,0,2,2,2,2196.300061241113,2198.301351186182,left,1,4,0.7765090769339622,D22E01,2023-01-24_12h12.05.972,t1_Paradigm,2021.1.4,60.0037151178417,
F,left,Distractor,0,3,3,3,2199.800144489246,2201.802084379282,left,1,4,0.5717125729065629,D22E01,2023-01-24_12h12.05.972,t1_Paradigm,2021.1.4,60.0037151178417,
J,right,Target,0,4,4,4,2203.3001228351077,2205.3012142037037,right,1,4,0.8647052615069697,D22E01,2023-01-24_12h12.05.972,t1_Paradigm,2021.1.4,60.0037151178417,
G,right,Target,0,5,5,5,2206.800119787488,2208.8019871762585,right,1,4,1.123772170229131,D22E01,2023-01-24_12h12.05.972,t1_Paradigm,2021.1.4,60.0037151178417,
H,left,Distractor,0,6,6,6,2210.3000930005164,2212.3007923489995,left,1,4,0.7770441747643417,D22E01,2023-01-24_12h12.05.972,t1_Paradigm,2021.1.4,60.0037151178417,
P,left,Distractor,0,7,7,7,2213.8001784942644,2215.7997184641154,left,1,4,0.6060355057297784,D22E01,2023-01-24_12h12.05.972,t1_Paradigm,2021.1.4,60.0037151178417,
G,left,Lure,0,8,8,8,2217.300108078213,2219.301760850408,None,0,4,,D22E01,2023-01-24_12h12.05.972,t1_Paradigm,2021.1.4,60.0037151178417,
S,left,Distractor,0,9,9,9,2220.8000601183053,2222.802086624896,left,1,4,1.2036839624956883,D22E01,2023-01-24_12h12.05.972,t1_Paradigm,2021.1.4,60.0037151178417,
R,left,Pretarget,0,10,10,10,2224.3001289303465,2226.299209190851,left,1,4,0.5705127732153414,D22E01,2023-01-24_12h12.05.972,t1_Paradigm,2021.1.4,60.0037151178417,
T,left,Pretarget,0,11,11,11,2227.800148659673,2229.801967286531,left,1,4,0.4757837755641958,D22E01,2023-01-24_12h12.05.972,t1_Paradigm,2021.1.4,60.0037151178417,
X,left,Distractor,0,12,12,12,2231.3001619729584,2233.301909702562,left,1,4,0.3998005252810799,D22E01,2023-01-24_12h12.05.972,t1_Paradigm,2021.1.4,60.0037151178417,
F,left,Pretarget,0,13,13,13,2234.8002131408866,2236.801982364228,left,1,4,0.483722343253703,D22E01,2023-01-24_12h12.05.972,t1_Paradigm,2021.1.4,60.0037151178417,
R,right,Target,0,14,14,14,2238.300138233606,2240.3008658126705,left,0,4,0.5528532616103803,D22E01,2023-01-24_12h12.05.972,t1_Paradigm,2021.1.4,60.0037151178417,
T,right,Target,0,15,15,15,2241.8000540230664,2243.801266013236,right,1,4,0.8285425288886472,D22E01,2023-01-24_12h12.05.972,t1_Paradigm,2021.1.4,60.0037151178417,
C,left,Distractor,0,16,16,16,2245.3001501032822,2247.3025079983972,left,1,4,0.783408887564292,D22E01,2023-01-24_12h12.05.972,t1_Paradigm,2021.1.4,60.0037151178417,
F,right,Target,0,17,17,17,2248.799711727272,2250.8011848503156,left,0,4,1.013581475862793,D22E01,2023-01-24_12h12.05.972,t1_Paradigm,2021.1.4,60.0037151178417,
M,left,Distractor,0,18,18,18,2252.299830263632,2254.301005361565,left,1,4,0.7129161644775195,D22E01,2023-01-24_12h12.05.972,t1_Paradigm,2021.1.4,60.0037151178417,
N,left,Distractor,0,19,19,19,2255.8000267548914,2257.802102344197,left,1,4,0.6037735304298621,D22E01,2023-01-24_12h12.05.972,t1_Paradigm,2021.1.4,60.0037151178417,
R,left,Lure,0,20,20,20,2259.299250895118,2261.3016729506444,left,1,4,1.1525176384989209,D22E01,2023-01-24_12h12.05.972,t1_Paradigm,2021.1.4,60.0037151178417,
F,right,Target,0,21,21,21,2262.800021622059,2264.8018851612046,right,1,4,1.0118837913801144,D22E01,2023-01-24_12h12.05.972,t1_Paradigm,2021.1.4,60.0037151178417,
P,left,Distractor,0,22,22,22,2266.299649652074,2268.3017768905106,left,1,4,0.9680282254480517,D22E01,2023-01-24_12h12.05.972,t1_Paradigm,2021.1.4,60.0037151178417,
L,left,Pretarget,0,23,23,23,2269.7999080581308,2271.801998404331,left,1,4,0.8119702154540391,D22E01,2023-01-24_12h12.05.972,t1_Paradigm,2021.1.4,60.0037151178417,
T,left,Distractor,0,24,24,24,2273.3000933213184,2275.302040268999,left,1,4,0.479827485486112,D22E01,2023-01-24_12h12.05.972,t1_Paradigm,2021.1.4,60.0037151178417,
F,left,Distractor,0,25,25,25,2276.800073912794,2278.802072188804,left,1,4,0.7876614396250261,D22E01,2023-01-24_12h12.05.972,t1_Paradigm,2021.1.4,60.0037151178417,
V,left,Distractor,0,26,26,26,2280.300097812547,2282.302482975837,left,1,4,0.8873397714028215,D22E01,2023-01-24_12h12.05.972,t1_Paradigm,2021.1.4,60.0037151178417,
L,right,Target,0,27,27,27,2283.799953612023,2285.801711607292,right,1,4,0.6040439665634949,D22E01,2023-01-24_12h12.05.972,t1_Paradigm,2021.1.4,60.0037151178417,
S,left,Pretarget,0,28,28,28,2287.2996169302646,2289.3017974218424,left,1,4,0.9121483568360418,D22E01,2023-01-24_12h12.05.972,t1_Paradigm,2021.1.4,60.0037151178417,
W,left,Distractor,0,29,29,29,2290.7992699828405,2292.8002009504085,left,1,4,0.6614624018384347,D22E01,2023-01-24_12h12.05.972,t1_Paradigm,2021.1.4,60.0037151178417,
Q,left,Distractor,0,30,30,30,2294.300262384002,2296.301837201297,left,1,4,0.6481625901815278,D22E01,2023-01-24_12h12.05.972,t1_Paradigm,2021.1.4,60.0037151178417,
L,right,Target,0,31,31,31,2297.8001021433747,2299.8020247100994,right,1,4,0.8119269071762574,D22E01,2023-01-24_12h12.05.972,t1_Paradigm,2021.1.4,60.0037151178417,
S,right,Target,0,32,32,32,2301.30012475992,2303.3016575521456,left,0,4,1.280307533683299,D22E01,2023-01-24_12h12.05.972,t1_Paradigm,2021.1.4,60.0037151178417,
Z,left,Pretarget,0,33,33,33,2304.800027075694,2306.800296549421,left,1,4,0.9815599769917753,D22E01,2023-01-24_12h12.05.972,t1_Paradigm,2021.1.4,60.0037151178417,
F,left,Distractor,0,34,34,34,2308.3001728802283,2310.3163990482444,left,1,4,0.6171448809454887,D22E01,2023-01-24_12h12.05.972,t1_Paradigm,2021.1.4,60.0037151178417,
V,left,Distractor,0,35,35,35,2311.800027396496,2313.8021036274054,left,1,4,0.667667034412716,D22E01,2023-01-24_12h12.05.972,t1_Paradigm,2021.1.4,60.0037151178417,
M,left,Distractor,0,36,36,36,2315.3001523488965,2317.3019193266236,left,1,4,0.6399705888675271,D22E01,2023-01-24_12h12.05.972,t1_Paradigm,2021.1.4,60.0037151178417,
Z,right,Target,0,37,37,37,2318.800176890254,2320.799340559293,right,1,4,0.7265544223046163,D22E01,2023-01-24_12h12.05.972,t1_Paradigm,2021.1.4,60.0037151178417,
H,left,Pretarget,0,38,38,38,2322.300137912804,2324.302317121174,left,1,4,0.6955742469090183,D22E01,2023-01-24_12h12.05.972,t1_Paradigm,2021.1.4,60.0037151178417,
L,left,Distractor,0,39,39,39,2325.800192288753,2327.8021161386855,left,1,4,0.5237764048165445,D22E01,2023-01-24_12h12.05.972,t1_Paradigm,2021.1.4,60.0037151178417,
G,left,Distractor,0,40,40,40,2329.3000955669327,2331.302335727693,left,1,4,1.0074644222499956,D22E01,2023-01-24_12h12.05.972,t1_Paradigm,2021.1.4,60.0037151178417,
K,left,Distractor,0,41,41,41,2332.7994801081873,2334.801685301524,left,1,4,0.5962234540311329,D22E01,2023-01-24_12h12.05.972,t1_Paradigm,2021.1.4,60.0037151178417,
H,right,Target,0,42,42,42,2336.3002588551794,2338.302439025955,left,0,4,0.5992672239426611,D22E01,2023-01-24_12h12.05.972,t1_Paradigm,2021.1.4,60.0037151178417,
B,left,Distractor,0,43,43,43,2339.8001509052874,2341.8000492110355,left,1,4,0.5897111722847512,D22E01,2023-01-24_12h12.05.972,t1_Paradigm,2021.1.4,60.0037151178417,
Z,left,Distractor,0,44,44,44,2343.299767386429,2345.301607827827,left,1,4,0.688127789574537,D22E01,2023-01-24_12h12.05.972,t1_Paradigm,2021.1.4,60.0037151178417,
T,left,Pretarget,0,45,45,45,2346.8001326195704,2348.7996016921666,left,1,4,0.6780404897108383,D22E01,2023-01-24_12h12.05.972,t1_Paradigm,2021.1.4,60.0037151178417,
H,right,Target,0,46,46,46,2350.299916559385,2352.300222283745,right,1,4,0.9695353535094,D22E01,2023-01-24_12h12.05.972,t1_Paradigm,2021.1.4,60.0037151178417,
F,left,Distractor,0,47,47,47,2353.800136789997,2355.8019050509324,left,1,4,1.0356263515791397,D22E01,2023-01-24_12h12.05.972,t1_Paradigm,2021.1.4,60.0037151178417,
R,left,Distractor,0,48,48,48,2357.3001417624287,2359.302210935693,left,1,4,0.7995147548094792,D22E01,2023-01-24_12h12.05.972,t1_Paradigm,2021.1.4,60.0037151178417,
T,right,Target,0,49,49,49,2360.8001217123,2362.801075136012,right,1,4,0.9166508136981975,D22E01,2023-01-24_12h12.05.972,t1_Paradigm,2021.1.4,60.0037151178417,
H,right,Target,0,50,50,50,2364.3000673363517,2366.3024521788398,right,1,4,1.1593042060039807,D22E01,2023-01-24_12h12.05.972,t1_Paradigm,2021.1.4,60.0037151178417,
Y,left,Pretarget,0,51,51,51,2367.8000617223156,2369.7993723186964,left,1,4,0.6864114985723972,D22E01,2023-01-24_12h12.05.972,t1_Paradigm,2021.1.4,60.0037151178417,
H,left,Distractor,0,52,52,52,2371.30009203811,2373.3008160883514,right,0,4,0.9130594346761427,D22E01,2023-01-24_12h12.05.972,t1_Paradigm,2021.1.4,60.0037151178417,
S,left,Distractor,0,53,53,53,2374.7998580130097,2376.801947396804,left,1,4,0.6279049027216388,D22E01,2023-01-24_12h12.05.972,t1_Paradigm,2021.1.4,60.0037151178417,
Q,left,Distractor,0,54,54,54,2378.300163256167,2380.302053101081,left,1,4,0.6479046653284968,D22E01,2023-01-24_12h12.05.972,t1_Paradigm,2021.1.4,60.0037151178417,
Y,right,Target,0,55,55,55,2381.800054985473,2383.8020253517034,left,0,4,0.6357860468428953,D22E01,2023-01-24_12h12.05.972,t1_Paradigm,2021.1.4,60.0037151178417,
R,left,Distractor,0,56,56,56,2385.300057391488,2387.300958845267,left,1,4,0.4969185358463619,D22E01,2023-01-24_12h12.05.972,t1_Paradigm,2021.1.4,60.0037151178417,
H,left,Pretarget,0,57,57,57,2388.8000668551485,2390.8024058229425,right,0,4,0.9153092194983401,D22E01,2023-01-24_12h12.05.972,t1_Paradigm,2021.1.4,60.0037151178417,
J,left,Distractor,0,58,58,58,2392.2998841583776,2394.3022404494823,left,1,4,1.159469739865017,D22E01,2023-01-24_12h12.05.972,t1_Paradigm,2021.1.4,60.0037151178417,
V,left,Distractor,0,59,59,59,2395.8001108050303,2397.8021052314157,left,1,4,0.7957934509540792,D22E01,2023-01-24_12h12.05.972,t1_Paradigm,2021.1.4,60.0037151178417,
Y,left,Lure,0,60,60,60,2399.3002309454005,2401.3014740533695,right,0,4,0.8644537526943168,D22E01,2023-01-24_12h12.05.972,t1_Paradigm,2021.1.4,60.0037151178417,
H,right,Target,0,61,61,61,2402.800137110799,2404.8023965196826,right,1,4,0.8516858308466908,D22E01,2023-01-24_12h12.05.972,t1_Paradigm,2021.1.4,60.0037151178417,
L,left,Distractor,0,62,62,62,2406.300063486727,2408.301073050799,left,1,4,0.5055384871038768,D22E01,2023-01-24_12h12.05.972,t1_Paradigm,2021.1.4,60.0037151178417,
P,left,Distractor,0,63,63,63,2409.7999690105216,2411.8006616221614,left,1,4,0.7813143709372525,D22E01,2023-01-24_12h12.05.972,t1_Paradigm,2021.1.4,60.0037151178417,
