Letter,CorrAnswer,Stimulus,finaln_nback_run.thisRepN,finaln_nback_run.thisTrialN,finaln_nback_run.thisN,finaln_nback_run.thisIndex,finaln_fixcross.started,finaln_nback_trial.started,finaln_trial_resp.keys,finaln_trial_resp.corr,finaln_trial_resp.rt,finaln_level,finaln_money,Participant,date,expName,psychopyVersion,frameRate,
T,left,Distractor,0,0,0,0,3274.635315664229,3276.629566253454,left,1,0.3054203643114306,0,3.0,D22N08,2022-10-11_12h24.55.725,t1_Paradigm,2021.1.4,59.97373783084976,
F,left,Distractor,0,1,1,1,3278.1287990558194,3280.1291285193292,left,1,0.4538560222135857,0,3.0,D22N08,2022-10-11_12h24.55.725,t1_Paradigm,2021.1.4,59.97373783084976,
G,left,Distractor,0,2,2,2,3281.6293400881696,3283.629568819888,left,1,0.39350164524512365,0,3.0,D22N08,2022-10-11_12h24.55.725,t1_Paradigm,2021.1.4,59.97373783084976,
V,left,Distractor,0,3,3,3,3285.1292940530693,3287.1291272361414,left,1,0.39807275077328086,0,3.0,D22N08,2022-10-11_12h24.55.725,t1_Paradigm,2021.1.4,59.97373783084976,
H,left,Distractor,0,4,4,4,3288.629436328716,3290.6294064941467,left,1,0.40157237817766145,0,3.0,D22N08,2022-10-11_12h24.55.725,t1_Paradigm,2021.1.4,59.97373783084976,
C,left,Pretarget,0,5,5,5,3292.1294595868676,3294.1291384641663,left,1,0.5018624151707627,0,3.0,D22N08,2022-10-11_12h24.55.725,t1_Paradigm,2021.1.4,59.97373783084976,
C,right,Target,0,6,6,6,3295.629283947812,3297.6292836270295,right,1,0.3616412094561383,0,3.0,D22N08,2022-10-11_12h24.55.725,t1_Paradigm,2021.1.4,59.97373783084976,
C,right,Target,0,7,7,7,3299.129365912697,3301.129436809919,right,1,0.49364764214260504,0,3.0,D22N08,2022-10-11_12h24.55.725,t1_Paradigm,2021.1.4,59.97373783084976,
W,left,Distractor,0,8,8,8,3302.629329822492,3304.629786965146,left,1,0.38517074193805456,0,3.0,D22N08,2022-10-11_12h24.55.725,t1_Paradigm,2021.1.4,59.97373783084976,
R,left,Pretarget,0,9,9,9,3306.129439055512,3308.129195246147,left,1,0.3257511815754697,0,3.0,D22N08,2022-10-11_12h24.55.725,t1_Paradigm,2021.1.4,59.97373783084976,
R,right,Target,0,10,10,10,3309.6293487498187,3311.6130404669093,right,1,0.45801682223100215,0,3.0,D22N08,2022-10-11_12h24.55.725,t1_Paradigm,2021.1.4,59.97373783084976,
Z,left,Distractor,0,11,11,11,3313.112640908221,3315.1128908128594,left,1,0.3982337933848612,0,3.0,D22N08,2022-10-11_12h24.55.725,t1_Paradigm,2021.1.4,59.97373783084976,
R,left,Lure,0,12,12,12,3316.612766502134,3318.6128896900336,left,1,0.4022210395196453,0,3.0,D22N08,2022-10-11_12h24.55.725,t1_Paradigm,2021.1.4,59.97373783084976,
H,left,Pretarget,0,13,13,13,3320.1128638655064,3322.114085478941,left,1,0.4210254815989174,0,3.0,D22N08,2022-10-11_12h24.55.725,t1_Paradigm,2021.1.4,59.97373783084976,
H,right,Target,0,14,14,14,3323.629398794903,3325.629283306247,right,1,0.3615671041770838,0,3.0,D22N08,2022-10-11_12h24.55.725,t1_Paradigm,2021.1.4,59.97373783084976,
K,left,Distractor,0,15,15,15,3327.129136218573,3329.1307174509275,left,1,0.44460698403418064,0,3.0,D22N08,2022-10-11_12h24.55.725,t1_Paradigm,2021.1.4,59.97373783084976,
J,left,Distractor,0,16,16,16,3330.6294029653072,3332.629574915103,left,1,0.35336580488365144,0,3.0,D22N08,2022-10-11_12h24.55.725,t1_Paradigm,2021.1.4,59.97373783084976,
H,left,Lure,0,17,17,17,3334.129371366347,3336.129614213365,left,1,0.3734136749408208,0,3.0,D22N08,2022-10-11_12h24.55.725,t1_Paradigm,2021.1.4,59.97373783084976,
S,left,Distractor,0,18,18,18,3337.629425742256,3339.629784398712,left,1,0.32930662849685177,0,3.0,D22N08,2022-10-11_12h24.55.725,t1_Paradigm,2021.1.4,59.97373783084976,
T,left,Pretarget,0,19,19,19,3341.1292712761788,3343.129583416332,left,1,0.38153669860912487,0,3.0,D22N08,2022-10-11_12h24.55.725,t1_Paradigm,2021.1.4,59.97373783084976,
T,right,Target,0,20,20,20,3344.6292534716777,3346.6296939325985,right,1,0.38546844612574205,0,3.0,D22N08,2022-10-11_12h24.55.725,t1_Paradigm,2021.1.4,59.97373783084976,
X,left,Pretarget,0,21,21,21,3348.1289921785356,3350.1300129700103,left,1,0.341029048897326,0,3.0,D22N08,2022-10-11_12h24.55.725,t1_Paradigm,2021.1.4,59.97373783084976,
X,right,Target,0,22,22,22,3351.629401361337,3353.6292422435945,right,1,0.36155427212361246,0,3.0,D22N08,2022-10-11_12h24.55.725,t1_Paradigm,2021.1.4,59.97373783084976,
W,left,Distractor,0,23,23,23,3355.129217060632,3357.129354363831,left,1,0.38177890406223014,0,3.0,D22N08,2022-10-11_12h24.55.725,t1_Paradigm,2021.1.4,59.97373783084976,
K,left,Distractor,0,24,24,24,3358.62931538641,3360.6289535218966,left,1,0.3858931877184659,0,3.0,D22N08,2022-10-11_12h24.55.725,t1_Paradigm,2021.1.4,59.97373783084976,
F,left,Pretarget,0,25,25,25,3362.129314905207,3364.1290249003214,left,1,0.3899824489490129,0,3.0,D22N08,2022-10-11_12h24.55.725,t1_Paradigm,2021.1.4,59.97373783084976,
F,right,Target,0,26,26,26,3365.6294889402343,3367.629283947812,right,1,0.4258079956052825,0,3.0,D22N08,2022-10-11_12h24.55.725,t1_Paradigm,2021.1.4,59.97373783084976,
Z,left,Distractor,0,27,27,27,3369.129417241027,3371.129515085544,left,1,0.3173583635943942,0,3.0,D22N08,2022-10-11_12h24.55.725,t1_Paradigm,2021.1.4,59.97373783084976,
F,left,Lure,0,28,28,28,3372.6295425140997,3374.629218825081,left,1,0.3696968646836467,0,3.0,D22N08,2022-10-11_12h24.55.725,t1_Paradigm,2021.1.4,59.97373783084976,
P,left,Distractor,0,29,29,29,3376.129182734876,3378.1143167770933,left,1,0.4047005170141347,0,3.0,D22N08,2022-10-11_12h24.55.725,t1_Paradigm,2021.1.4,59.97373783084976,
F,left,Lure,0,30,30,30,3379.629549250938,3381.6295489301556,left,1,0.37740862037753686,0,3.0,D22N08,2022-10-11_12h24.55.725,t1_Paradigm,2021.1.4,59.97373783084976,
R,left,Distractor,0,31,31,31,3383.1293059227755,3385.129662012798,left,1,0.41337916953489184,0,3.0,D22N08,2022-10-11_12h24.55.725,t1_Paradigm,2021.1.4,59.97373783084976,
V,left,Distractor,0,32,32,32,3386.6292480180273,3388.629723767168,left,1,0.35329041647491977,0,3.0,D22N08,2022-10-11_12h24.55.725,t1_Paradigm,2021.1.4,59.97373783084976,
M,left,Pretarget,0,33,33,33,3390.1291981333634,3392.1292751258006,left,1,0.3737155494745821,0,3.0,D22N08,2022-10-11_12h24.55.725,t1_Paradigm,2021.1.4,59.97373783084976,
M,right,Target,0,34,34,34,3393.6291995769716,3395.6295017722878,right,1,0.32961523992707953,0,3.0,D22N08,2022-10-11_12h24.55.725,t1_Paradigm,2021.1.4,59.97373783084976,
M,right,Target,0,35,35,35,3397.1292520280695,3399.129259727313,right,1,0.38188059820095077,0,3.0,D22N08,2022-10-11_12h24.55.725,t1_Paradigm,2021.1.4,59.97373783084976,
D,left,Distractor,0,36,36,36,3400.629482203396,3402.6296300930553,left,1,0.38532536843558773,0,3.0,D22N08,2022-10-11_12h24.55.725,t1_Paradigm,2021.1.4,59.97373783084976,
M,left,Lure,0,37,37,37,3404.1293553262367,3406.1294884590316,left,1,0.34153912391047925,0,3.0,D22N08,2022-10-11_12h24.55.725,t1_Paradigm,2021.1.4,59.97373783084976,
F,left,Distractor,0,38,38,38,3407.62922748673,3409.6291450406425,left,1,0.3777672768337652,0,3.0,D22N08,2022-10-11_12h24.55.725,t1_Paradigm,2021.1.4,59.97373783084976,
T,left,Pretarget,0,39,39,39,3411.1295179727604,3413.1312692301,left,1,0.33173221128527075,0,3.0,D22N08,2022-10-11_12h24.55.725,t1_Paradigm,2021.1.4,59.97373783084976,
T,right,Target,0,40,40,40,3414.6292258827016,3416.629307687166,right,1,0.43371800682507455,0,3.0,D22N08,2022-10-11_12h24.55.725,t1_Paradigm,2021.1.4,59.97373783084976,
Z,left,Distractor,0,41,41,41,3418.1293116972083,3420.129807977646,left,1,0.3731640910846181,0,3.0,D22N08,2022-10-11_12h24.55.725,t1_Paradigm,2021.1.4,59.97373783084976,
S,left,Distractor,0,42,42,42,3421.6292345443508,3423.6293670355226,left,1,0.34573072084458545,0,3.0,D22N08,2022-10-11_12h24.55.725,t1_Paradigm,2021.1.4,59.97373783084976,
D,left,Distractor,0,43,43,43,3425.1293303036946,3427.130825561122,left,1,0.3641777897137217,0,3.0,D22N08,2022-10-11_12h24.55.725,t1_Paradigm,2021.1.4,59.97373783084976,
Y,left,Pretarget,0,44,44,44,3428.629157231073,3430.6295980128343,left,1,0.3692907295189798,0,3.0,D22N08,2022-10-11_12h24.55.725,t1_Paradigm,2021.1.4,59.97373783084976,
Y,right,Target,0,45,45,45,3432.1294971206808,3434.1292430455796,right,1,0.42169691988965496,0,3.0,D22N08,2022-10-11_12h24.55.725,t1_Paradigm,2021.1.4,59.97373783084976,
Z,left,Pretarget,0,46,46,46,3435.6289467850584,3437.629628809809,left,1,0.32947408710606396,0,3.0,D22N08,2022-10-11_12h24.55.725,t1_Paradigm,2021.1.4,59.97373783084976,
Z,right,Target,0,47,47,47,3439.129314905207,3441.129242724797,right,1,0.44592676288448274,0,3.0,D22N08,2022-10-11_12h24.55.725,t1_Paradigm,2021.1.4,59.97373783084976,
H,left,Pretarget,0,48,48,48,3442.6293243688415,3444.630588328175,left,1,0.40029109560418874,0,3.0,D22N08,2022-10-11_12h24.55.725,t1_Paradigm,2021.1.4,59.97373783084976,
H,right,Target,0,49,49,49,3446.1291140832473,3448.1295224640053,right,1,0.4054236044175923,0,3.0,D22N08,2022-10-11_12h24.55.725,t1_Paradigm,2021.1.4,59.97373783084976,
Z,left,Lure,0,50,50,50,3449.6293243688415,3451.6293946244405,left,1,0.5534730168874376,0,3.0,D22N08,2022-10-11_12h24.55.725,t1_Paradigm,2021.1.4,59.97373783084976,
R,left,Distractor,0,51,51,51,3453.1294522084063,3455.130588488537,left,1,0.46033236995572224,0,3.0,D22N08,2022-10-11_12h24.55.725,t1_Paradigm,2021.1.4,59.97373783084976,
H,left,Lure,0,52,52,52,3456.6291341333417,3458.6295303236693,left,1,0.4172682503121905,0,3.0,D22N08,2022-10-11_12h24.55.725,t1_Paradigm,2021.1.4,59.97373783084976,
L,left,Distractor,0,53,53,53,3460.1292363087414,3462.130287255626,left,1,0.4206148552475497,0,3.0,D22N08,2022-10-11_12h24.55.725,t1_Paradigm,2021.1.4,59.97373783084976,
N,left,Pretarget,0,54,54,54,3463.629105902801,3465.6296964990324,left,1,0.37720170320244506,0,3.0,D22N08,2022-10-11_12h24.55.725,t1_Paradigm,2021.1.4,59.97373783084976,
N,right,Target,0,55,55,55,3467.1292869954486,3469.129287316231,right,1,0.5097204564954154,0,3.0,D22N08,2022-10-11_12h24.55.725,t1_Paradigm,2021.1.4,59.97373783084976,
W,left,Distractor,0,56,56,56,3470.6292194666457,3472.629110714828,left,1,0.4503320138901472,0,3.0,D22N08,2022-10-11_12h24.55.725,t1_Paradigm,2021.1.4,59.97373783084976,
R,left,Pretarget,0,57,57,57,3474.1291419930058,3476.1291589955217,left,1,0.4217354161082767,0,3.0,D22N08,2022-10-11_12h24.55.725,t1_Paradigm,2021.1.4,59.97373783084976,
R,right,Target,0,58,58,58,3477.629196048132,3479.629472900124,right,1,0.36168291367357597,0,3.0,D22N08,2022-10-11_12h24.55.725,t1_Paradigm,2021.1.4,59.97373783084976,
Q,left,Distractor,0,59,59,59,3481.1292029453907,3483.129628649447,left,1,0.3495700773783028,0,3.0,D22N08,2022-10-11_12h24.55.725,t1_Paradigm,2021.1.4,59.97373783084976,
R,left,Lure,0,60,60,60,3484.6291877072654,3486.629056178499,left,1,0.3697574962861836,0,3.0,D22N08,2022-10-11_12h24.55.725,t1_Paradigm,2021.1.4,59.97373783084976,
Z,left,Distractor,0,61,61,61,3488.129227647092,3490.130751455901,left,1,0.40415932436008006,0,3.0,D22N08,2022-10-11_12h24.55.725,t1_Paradigm,2021.1.4,59.97373783084976,
K,left,Pretarget,0,62,62,62,3491.629191236105,3493.6292101634317,left,1,0.37760719674406573,0,3.0,D22N08,2022-10-11_12h24.55.725,t1_Paradigm,2021.1.4,59.97373783084976,
K,right,Target,0,63,63,63,3495.129518293601,3497.1294595868676,left,0,0.33350496232742444,0,3.0,D22N08,2022-10-11_12h24.55.725,t1_Paradigm,2021.1.4,59.97373783084976,
