Letter,CorrAnswer,Stimulus,nback_run.thisRepN,nback_run.thisTrialN,nback_run.thisN,nback_run.thisIndex,fixcross.started,nback_trial.started,trial_resp.keys,trial_resp.corr,currentlevel,trial_resp.rt,Participant,date,expName,psychopyVersion,frameRate,
H,left,Distractor,0,0,0,0,62.213537260657176,64.14902304607676,None,0,1,,D22N08,2022-10-11_12h24.55.725,t1_Paradigm,2021.1.4,59.97373783084976,
Q,left,Pretarget,0,1,1,1,65.65287699911278,67.65062914055306,left,1,1,0.4700000545126386,D22N08,2022-10-11_12h24.55.725,t1_Paradigm,2021.1.4,59.97373783084976,
Q,right,Target,0,2,2,2,69.1481485402328,71.14829739229754,right,1,1,0.7484326423727907,D22N08,2022-10-11_12h24.55.725,t1_Paradigm,2021.1.4,59.97373783084976,
T,left,Distractor,0,3,3,3,72.64838705642615,74.64984381763497,left,1,1,0.4950626991339959,D22N08,2022-10-11_12h24.55.725,t1_Paradigm,2021.1.4,59.97373783084976,
Q,left,Lure,0,4,4,4,76.14827429456636,78.14862076059217,left,1,1,0.5161169245839119,D22N08,2022-10-11_12h24.55.725,t1_Paradigm,2021.1.4,59.97373783084976,
L,left,Distractor,0,5,5,5,79.64807170821587,81.64997245918494,left,1,1,0.4546272298321128,D22N08,2022-10-11_12h24.55.725,t1_Paradigm,2021.1.4,59.97373783084976,
V,left,Pretarget,0,6,6,6,83.14833588851616,85.15016028867103,left,1,1,0.458462736743968,D22N08,2022-10-11_12h24.55.725,t1_Paradigm,2021.1.4,59.97373783084976,
V,right,Target,0,7,7,7,86.64832225447753,88.64846982329618,left,0,1,0.6082528200931847,D22N08,2022-10-11_12h24.55.725,t1_Paradigm,2021.1.4,59.97373783084976,
K,left,Distractor,0,8,8,8,90.14835898624733,92.14991102559725,left,1,1,0.4346037406940013,D22N08,2022-10-11_12h24.55.725,t1_Paradigm,2021.1.4,59.97373783084976,
G,left,Pretarget,0,9,9,9,93.64826386852656,95.64904181298334,left,1,1,0.5035042790113948,D22N08,2022-10-11_12h24.55.725,t1_Paradigm,2021.1.4,59.97373783084976,
G,right,Target,0,10,10,10,97.1481690715882,99.14835321181454,right,1,1,0.364334020181559,D22N08,2022-10-11_12h24.55.725,t1_Paradigm,2021.1.4,59.97373783084976,
G,right,Target,0,11,11,11,100.64829177828506,102.64845442480873,right,1,1,0.3999853714485653,D22N08,2022-10-11_12h24.55.725,t1_Paradigm,2021.1.4,59.97373783084976,
P,left,Pretarget,0,12,12,12,104.14799840498017,106.15012532123365,left,1,1,0.418363788689021,D22N08,2022-10-11_12h24.55.725,t1_Paradigm,2021.1.4,59.97373783084976,
P,right,Target,0,13,13,13,107.64776470081415,109.64834599377355,right,1,1,0.37624058086657897,D22N08,2022-10-11_12h24.55.725,t1_Paradigm,2021.1.4,59.97373783084976,
G,left,Lure,0,14,14,14,111.14846549247159,113.14866310643265,left,1,1,0.44394934020237997,D22N08,2022-10-11_12h24.55.725,t1_Paradigm,2021.1.4,59.97373783084976,
Y,left,Distractor,0,15,15,15,114.64830910158344,116.65000101056648,left,1,1,0.6385634621256031,D22N08,2022-10-11_12h24.55.725,t1_Paradigm,2021.1.4,59.97373783084976,
B,left,Distractor,0,16,16,16,118.14817837480223,120.14957514608977,left,1,1,0.45088090584613383,D22N08,2022-10-11_12h24.55.725,t1_Paradigm,2021.1.4,59.97373783084976,
T,left,Pretarget,0,17,17,17,121.6481426054379,123.64800273580477,left,1,1,0.4565311888582073,D22N08,2022-10-11_12h24.55.725,t1_Paradigm,2021.1.4,59.97373783084976,
T,right,Target,0,18,18,18,125.14837374316994,127.1484744749614,right,1,1,0.7323309559142217,D22N08,2022-10-11_12h24.55.725,t1_Paradigm,2021.1.4,59.97373783084976,
S,left,Distractor,0,19,19,19,128.64758986386005,130.6501347849262,left,1,1,0.44660140917403623,D22N08,2022-10-11_12h24.55.725,t1_Paradigm,2021.1.4,59.97373783084976,
T,left,Lure,0,20,20,20,132.14803305157693,134.1496444392833,left,1,1,0.46678048715693876,D22N08,2022-10-11_12h24.55.725,t1_Paradigm,2021.1.4,59.97373783084976,
J,left,Distractor,0,21,21,21,135.64840181329055,137.64966930140508,left,1,1,0.5029579534893855,D22N08,2022-10-11_12h24.55.725,t1_Paradigm,2021.1.4,59.97373783084976,
P,left,Distractor,0,22,22,22,139.14833460532827,141.1489925699425,left,1,1,0.427436706610024,D22N08,2022-10-11_12h24.55.725,t1_Paradigm,2021.1.4,59.97373783084976,
F,left,Distractor,0,23,23,23,142.64819297130452,144.64941650955006,left,1,1,0.39908937184372917,D22N08,2022-10-11_12h24.55.725,t1_Paradigm,2021.1.4,59.97373783084976,
L,left,Distractor,0,24,24,24,146.14819184847875,148.1485113671515,left,1,1,0.43580353970173746,D22N08,2022-10-11_12h24.55.725,t1_Paradigm,2021.1.4,59.97373783084976,
W,left,Pretarget,0,25,25,25,149.64813458535355,151.64991439401638,left,1,1,0.4226731198723428,D22N08,2022-10-11_12h24.55.725,t1_Paradigm,2021.1.4,59.97373783084976,
W,right,Target,0,26,26,26,153.14816361793783,155.14815335226012,right,1,1,0.4124379368731752,D22N08,2022-10-11_12h24.55.725,t1_Paradigm,2021.1.4,59.97373783084976,
V,left,Distractor,0,27,27,27,156.6483921892359,158.64983483520336,left,1,1,0.41469285311177373,D22N08,2022-10-11_12h24.55.725,t1_Paradigm,2021.1.4,59.97373783084976,
W,left,Lure,0,28,28,28,160.14813859539572,162.14849757269258,left,1,1,0.6122593143954873,D22N08,2022-10-11_12h24.55.725,t1_Paradigm,2021.1.4,59.97373783084976,
R,left,Pretarget,0,29,29,29,163.647924139339,165.65037153667072,left,1,1,0.4381947966758162,D22N08,2022-10-11_12h24.55.725,t1_Paradigm,2021.1.4,59.97373783084976,
R,right,Target,0,30,30,30,167.1483188860584,169.1484260338475,right,1,1,0.41247899952577427,D22N08,2022-10-11_12h24.55.725,t1_Paradigm,2021.1.4,59.97373783084976,
G,left,Distractor,0,31,31,31,170.64820227457676,172.64900075038895,left,1,1,0.5274101121467538,D22N08,2022-10-11_12h24.55.725,t1_Paradigm,2021.1.4,59.97373783084976,
R,left,Lure,0,32,32,32,174.14820820942987,176.14906507113483,left,1,1,0.38744554785080254,D22N08,2022-10-11_12h24.55.725,t1_Paradigm,2021.1.4,59.97373783084976,
S,left,Distractor,0,33,33,33,177.64818398887292,179.64855932700448,left,1,1,0.4079781495966017,D22N08,2022-10-11_12h24.55.725,t1_Paradigm,2021.1.4,59.97373783084976,
R,left,Lure,0,34,34,34,181.14841031457763,183.1485290112323,left,1,1,0.42789256607647985,D22N08,2022-10-11_12h24.55.725,t1_Paradigm,2021.1.4,59.97373783084976,
P,left,Pretarget,0,35,35,35,184.6475526508293,186.64913452474866,left,1,1,0.5272805081913248,D22N08,2022-10-11_12h24.55.725,t1_Paradigm,2021.1.4,59.97373783084976,
P,right,Target,0,36,36,36,188.14839331206167,190.14794675586745,right,1,1,0.5967090863268822,D22N08,2022-10-11_12h24.55.725,t1_Paradigm,2021.1.4,59.97373783084976,
Y,left,Pretarget,0,37,37,37,191.6481105252169,193.6483042895561,left,1,1,0.4402742342790589,D22N08,2022-10-11_12h24.55.725,t1_Paradigm,2021.1.4,59.97373783084976,
Y,right,Target,0,38,38,38,195.14825600886252,197.14805711171357,right,1,1,0.38055087451357394,D22N08,2022-10-11_12h24.55.725,t1_Paradigm,2021.1.4,59.97373783084976,
J,left,Distractor,0,39,39,39,198.64824173320085,200.64950729650445,left,1,1,0.4951422580052167,D22N08,2022-10-11_12h24.55.725,t1_Paradigm,2021.1.4,59.97373783084976,
Y,left,Lure,0,40,40,40,202.1479826857103,204.14974998310208,left,1,1,0.5788676913944073,D22N08,2022-10-11_12h24.55.725,t1_Paradigm,2021.1.4,59.97373783084976,
T,left,Distractor,0,41,41,41,205.64814517181367,207.6487726602354,left,1,1,0.6479186857468449,D22N08,2022-10-11_12h24.55.725,t1_Paradigm,2021.1.4,59.97373783084976,
V,left,Distractor,0,42,42,42,209.14840806892607,211.1485463345307,left,1,1,0.7480403016670607,D22N08,2022-10-11_12h24.55.725,t1_Paradigm,2021.1.4,59.97373783084976,
N,left,Pretarget,0,43,43,43,212.64808357786387,214.65003726113355,left,1,1,0.4466636446886696,D22N08,2022-10-11_12h24.55.725,t1_Paradigm,2021.1.4,59.97373783084976,
N,right,Target,0,44,44,44,216.14795573835727,218.1482528008637,right,1,1,0.40427994582569227,D22N08,2022-10-11_12h24.55.725,t1_Paradigm,2021.1.4,59.97373783084976,
N,right,Target,0,45,45,45,219.64821221941384,221.64827445498668,right,1,1,0.4722344394540414,D22N08,2022-10-11_12h24.55.725,t1_Paradigm,2021.1.4,59.97373783084976,
X,left,Distractor,0,46,46,46,223.14813442499144,225.1505195867503,left,1,1,0.42587119358358905,D22N08,2022-10-11_12h24.55.725,t1_Paradigm,2021.1.4,59.97373783084976,
Z,left,Distractor,0,47,47,47,226.6483761491836,228.64986563217826,left,1,1,0.5426664857659489,D22N08,2022-10-11_12h24.55.725,t1_Paradigm,2021.1.4,59.97373783084976,
H,left,Pretarget,0,48,48,48,230.14810491120443,232.14994631381705,left,1,1,0.7065811537322588,D22N08,2022-10-11_12h24.55.725,t1_Paradigm,2021.1.4,59.97373783084976,
H,right,Target,0,49,49,49,233.64836395869497,235.64798894134583,right,1,1,0.3925735654775053,D22N08,2022-10-11_12h24.55.725,t1_Paradigm,2021.1.4,59.97373783084976,
K,left,Distractor,0,50,50,50,237.14814629463945,239.14973618864315,left,1,1,0.4427386340685189,D22N08,2022-10-11_12h24.55.725,t1_Paradigm,2021.1.4,59.97373783084976,
V,left,Pretarget,0,51,51,51,240.64833572815405,242.64884676545626,left,1,1,0.49602029263041914,D22N08,2022-10-11_12h24.55.725,t1_Paradigm,2021.1.4,59.97373783084976,
V,right,Target,0,52,52,52,244.14829418429872,246.14820468059042,right,1,1,0.42023855465231463,D22N08,2022-10-11_12h24.55.725,t1_Paradigm,2021.1.4,59.97373783084976,
R,left,Distractor,0,53,53,53,247.64831808401505,249.65019702049904,left,1,1,0.5023089713649824,D22N08,2022-10-11_12h24.55.725,t1_Paradigm,2021.1.4,59.97373783084976,
V,left,Lure,0,54,54,54,251.14783415442798,253.14849436463555,left,1,1,0.4760455653886311,D22N08,2022-10-11_12h24.55.725,t1_Paradigm,2021.1.4,59.97373783084976,
Y,left,Distractor,0,55,55,55,254.64836973312777,256.6608582283952,left,1,1,0.5956680842791684,D22N08,2022-10-11_12h24.55.725,t1_Paradigm,2021.1.4,59.97373783084976,
Q,left,Distractor,0,56,56,56,258.1480401092558,260.1483878584113,left,1,1,0.4679982509696856,D22N08,2022-10-11_12h24.55.725,t1_Paradigm,2021.1.4,59.97373783084976,
Z,left,Pretarget,0,57,57,57,261.64815062546404,263.6483761491836,None,0,1,,D22N08,2022-10-11_12h24.55.725,t1_Paradigm,2021.1.4,59.97373783084976,
Z,right,Target,0,58,58,58,265.14821237983415,267.148245743243,right,1,1,0.6360252778977156,D22N08,2022-10-11_12h24.55.725,t1_Paradigm,2021.1.4,59.97373783084976,
B,left,Distractor,0,59,59,59,268.64801556791645,270.6483228960424,left,1,1,0.4323459373554215,D22N08,2022-10-11_12h24.55.725,t1_Paradigm,2021.1.4,59.97373783084976,
S,left,Pretarget,0,60,60,60,272.14784570329357,274.14820339740254,left,1,1,0.4042436952004209,D22N08,2022-10-11_12h24.55.725,t1_Paradigm,2021.1.4,59.97373783084976,
S,right,Target,0,61,61,61,275.6483245000709,277.6479911869392,right,1,1,0.5843546862015501,D22N08,2022-10-11_12h24.55.725,t1_Paradigm,2021.1.4,59.97373783084976,
T,left,Distractor,0,62,62,62,279.1480208611465,281.14909618895035,left,1,1,0.4113972556660883,D22N08,2022-10-11_12h24.55.725,t1_Paradigm,2021.1.4,59.97373783084976,
D,left,Distractor,0,63,63,63,282.6480075478321,284.6503137923428,left,1,1,0.3660307411919348,D22N08,2022-10-11_12h24.55.725,t1_Paradigm,2021.1.4,59.97373783084976,
R,left,Distractor,0,0,0,0,307.4291735278093,309.4145417554537,left,1,1,0.7861368046142161,D22N08,2022-10-11_12h24.55.725,t1_Paradigm,2021.1.4,59.97373783084976,
V,left,Distractor,0,1,1,1,310.91464104357874,312.9165401905775,left,1,1,0.6439417051733471,D22N08,2022-10-11_12h24.55.725,t1_Paradigm,2021.1.4,59.97373783084976,
N,left,Pretarget,0,2,2,2,314.4144833695027,316.4161743160221,left,1,1,0.7124264842714183,D22N08,2022-10-11_12h24.55.725,t1_Paradigm,2021.1.4,59.97373783084976,
N,right,Target,0,3,3,3,317.9148534144042,319.91464104357874,right,1,1,0.573894621047657,D22N08,2022-10-11_12h24.55.725,t1_Paradigm,2021.1.4,59.97373783084976,
S,left,Distractor,0,4,4,4,321.4145593995345,323.4168576239608,left,1,1,0.44786055642180145,D22N08,2022-10-11_12h24.55.725,t1_Paradigm,2021.1.4,59.97373783084976,
N,left,Lure,0,5,5,5,324.91476134432014,326.9147667979123,right,0,1,0.6456977745401673,D22N08,2022-10-11_12h24.55.725,t1_Paradigm,2021.1.4,59.97373783084976,
Z,left,Distractor,0,6,6,6,328.414291209192,330.4159308274393,left,1,1,0.4886059202835895,D22N08,2022-10-11_12h24.55.725,t1_Paradigm,2021.1.4,59.97373783084976,
L,left,Pretarget,0,7,7,7,331.9146760110161,333.91441648232285,left,1,1,0.49404511565808207,D22N08,2022-10-11_12h24.55.725,t1_Paradigm,2021.1.4,59.97373783084976,
L,right,Target,0,8,8,8,335.41444615647197,337.41456453234423,right,1,1,0.5618148273788393,D22N08,2022-10-11_12h24.55.725,t1_Paradigm,2021.1.4,59.97373783084976,
H,left,Distractor,0,9,9,9,338.91467504861066,340.91445177048445,left,1,1,0.5664882687851787,D22N08,2022-10-11_12h24.55.725,t1_Paradigm,2021.1.4,59.97373783084976,
L,left,Lure,0,10,10,10,342.4144066978479,344.41488629661035,left,1,1,0.4415269654709846,D22N08,2022-10-11_12h24.55.725,t1_Paradigm,2021.1.4,59.97373783084976,
X,left,Pretarget,0,11,11,11,345.9147122615832,347.9163640703191,left,1,1,0.4763111893553287,D22N08,2022-10-11_12h24.55.725,t1_Paradigm,2021.1.4,59.97373783084976,
X,right,Target,0,12,12,12,349.4144378156052,351.41435055754846,right,1,1,0.5620727521018125,D22N08,2022-10-11_12h24.55.725,t1_Paradigm,2021.1.4,59.97373783084976,
X,right,Target,0,13,13,13,352.91483929916285,354.91478668764466,right,1,1,0.4856247087009251,D22N08,2022-10-11_12h24.55.725,t1_Paradigm,2021.1.4,59.97373783084976,
R,left,Distractor,0,14,14,14,356.4146533944877,358.4145064672339,left,1,1,0.5059404482599348,D22N08,2022-10-11_12h24.55.725,t1_Paradigm,2021.1.4,59.97373783084976,
T,left,Distractor,0,15,15,15,359.91446043213364,361.91460896341596,left,1,1,0.5098596845054999,D22N08,2022-10-11_12h24.55.725,t1_Paradigm,2021.1.4,59.97373783084976,
V,left,Pretarget,0,16,16,16,363.41492286801804,365.4149632890476,left,1,1,0.46574814681662247,D22N08,2022-10-11_12h24.55.725,t1_Paradigm,2021.1.4,59.97373783084976,
V,right,Target,0,17,17,17,366.9144440712407,368.9144511289196,right,1,1,0.4058894087211229,D22N08,2022-10-11_12h24.55.725,t1_Paradigm,2021.1.4,59.97373783084976,
N,left,Distractor,0,18,18,18,370.41463959997054,372.414966176264,left,1,1,0.521413683949504,D22N08,2022-10-11_12h24.55.725,t1_Paradigm,2021.1.4,59.97373783084976,
B,left,Distractor,0,19,19,19,373.9146833894192,375.9162659049616,left,1,1,0.4441777511383407,D22N08,2022-10-11_12h24.55.725,t1_Paradigm,2021.1.4,59.97373783084976,
V,left,Lure,0,20,20,20,377.4144965223386,379.4161451230757,left,1,1,0.48043445555958897,D22N08,2022-10-11_12h24.55.725,t1_Paradigm,2021.1.4,59.97373783084976,
P,left,Distractor,0,21,21,21,380.9146022265777,382.91549854696495,left,1,1,0.42094335629371926,D22N08,2022-10-11_12h24.55.725,t1_Paradigm,2021.1.4,59.97373783084976,
K,left,Pretarget,0,22,22,22,384.41451063763816,386.4155346371699,left,1,1,0.48882053670240566,D22N08,2022-10-11_12h24.55.725,t1_Paradigm,2021.1.4,59.97373783084976,
K,right,Target,0,23,23,23,387.91453549981816,389.914398196619,right,1,1,0.36611158319283277,D22N08,2022-10-11_12h24.55.725,t1_Paradigm,2021.1.4,59.97373783084976,
J,left,Pretarget,0,24,24,24,391.4143422166817,393.4143155901111,left,1,1,0.46639392094220966,D22N08,2022-10-11_12h24.55.725,t1_Paradigm,2021.1.4,59.97373783084976,
J,right,Target,0,25,25,25,394.91461602103664,396.9146153794718,right,1,1,0.5820952787762508,D22N08,2022-10-11_12h24.55.725,t1_Paradigm,2021.1.4,59.97373783084976,
H,left,Distractor,0,26,26,26,398.4144907479058,400.4148089833907,left,1,1,0.48962767416378483,D22N08,2022-10-11_12h24.55.725,t1_Paradigm,2021.1.4,59.97373783084976,
J,left,Lure,0,27,27,27,401.914421935915,403.9144257855369,left,1,1,0.7980966184404679,D22N08,2022-10-11_12h24.55.725,t1_Paradigm,2021.1.4,59.97373783084976,
V,left,Distractor,0,28,28,28,405.41481411620043,407.4154489830835,left,1,1,0.529114211560227,D22N08,2022-10-11_12h24.55.725,t1_Paradigm,2021.1.4,59.97373783084976,
Z,left,Pretarget,0,29,29,29,408.9149002514896,410.9159605015884,left,1,1,0.4044403467560187,D22N08,2022-10-11_12h24.55.725,t1_Paradigm,2021.1.4,59.97373783084976,
Z,right,Target,0,30,30,30,412.41449138952885,414.4145244321553,right,1,1,0.5218528616824187,D22N08,2022-10-11_12h24.55.725,t1_Paradigm,2021.1.4,59.97373783084976,
T,left,Distractor,0,31,31,31,415.914621474687,417.9148874194361,left,1,1,0.46140866016503423,D22N08,2022-10-11_12h24.55.725,t1_Paradigm,2021.1.4,59.97373783084976,
Z,left,Lure,0,32,32,32,419.41455875791144,421.4147242916515,left,1,1,0.5939460199442692,D22N08,2022-10-11_12h24.55.725,t1_Paradigm,2021.1.4,59.97373783084976,
F,left,Distractor,0,33,33,33,422.91463943960844,424.9162537145312,left,1,1,0.4681493486277759,D22N08,2022-10-11_12h24.55.725,t1_Paradigm,2021.1.4,59.97373783084976,
Y,left,Pretarget,0,34,34,34,426.4145099960151,428.4146745674079,left,1,1,0.48982913768850267,D22N08,2022-10-11_12h24.55.725,t1_Paradigm,2021.1.4,59.97373783084976,
Y,right,Target,0,35,35,35,429.9145037403796,431.91453229176113,right,1,1,0.6858701862511225,D22N08,2022-10-11_12h24.55.725,t1_Paradigm,2021.1.4,59.97373783084976,
Y,right,Target,0,36,36,36,433.41474097338505,435.41458506369963,right,1,1,0.4661398458410986,D22N08,2022-10-11_12h24.55.725,t1_Paradigm,2021.1.4,59.97373783084976,
W,left,Distractor,0,37,37,37,436.9147122615832,438.91511262231506,left,1,1,0.4372776242089458,D22N08,2022-10-11_12h24.55.725,t1_Paradigm,2021.1.4,59.97373783084976,
Q,left,Distractor,0,38,38,38,440.41476471273927,442.42719321802724,left,1,1,0.47719852725276724,D22N08,2022-10-11_12h24.55.725,t1_Paradigm,2021.1.4,59.97373783084976,
P,left,Pretarget,0,39,39,39,443.91440044221235,445.91503306344384,left,1,1,0.5092440657317638,D22N08,2022-10-11_12h24.55.725,t1_Paradigm,2021.1.4,59.97373783084976,
P,right,Target,0,40,40,40,447.4147653543041,449.4149899156182,right,1,1,0.5774670704849996,D22N08,2022-10-11_12h24.55.725,t1_Paradigm,2021.1.4,59.97373783084976,
J,left,Distractor,0,41,41,41,450.9145887529012,452.9144081414561,left,1,1,0.5018559991149232,D22N08,2022-10-11_12h24.55.725,t1_Paradigm,2021.1.4,59.97373783084976,
P,left,Lure,0,42,42,42,454.41458121407777,456.41444294847315,left,1,1,1.1779426913126372,D22N08,2022-10-11_12h24.55.725,t1_Paradigm,2021.1.4,59.97373783084976,
L,left,Distractor,0,43,43,43,457.9144014046178,459.91627200023504,left,1,1,0.5401895746472292,D22N08,2022-10-11_12h24.55.725,t1_Paradigm,2021.1.4,59.97373783084976,
Z,left,Distractor,0,44,44,44,461.41446059255395,463.4143951489823,left,1,1,0.5140807952266186,D22N08,2022-10-11_12h24.55.725,t1_Paradigm,2021.1.4,59.97373783084976,
F,left,Pretarget,0,45,45,45,464.914509835653,466.91478347964585,left,1,1,0.46955991443246603,D22N08,2022-10-11_12h24.55.725,t1_Paradigm,2021.1.4,59.97373783084976,
F,right,Target,0,46,46,46,468.41476599592716,470.4145613243454,right,1,1,0.42585964471800253,D22N08,2022-10-11_12h24.55.725,t1_Paradigm,2021.1.4,59.97373783084976,
G,left,Pretarget,0,47,47,47,471.91465130925644,473.9153051034082,left,1,1,0.4931295471615158,D22N08,2022-10-11_12h24.55.725,t1_Paradigm,2021.1.4,59.97373783084976,
G,right,Target,0,48,48,48,475.4146976651391,477.41474065260263,left,0,1,0.48173338221386075,D22N08,2022-10-11_12h24.55.725,t1_Paradigm,2021.1.4,59.97373783084976,
V,left,Distractor,0,49,49,49,478.9143734948593,480.9157397899544,left,1,1,0.5005612428067252,D22N08,2022-10-11_12h24.55.725,t1_Paradigm,2021.1.4,59.97373783084976,
G,left,Lure,0,50,50,50,482.4147008731379,484.41466301854234,left,1,1,0.4736504587926902,D22N08,2022-10-11_12h24.55.725,t1_Paradigm,2021.1.4,59.97373783084976,
Q,left,Pretarget,0,51,51,51,485.91439755499596,487.915664080705,left,1,1,0.5566457471577451,D22N08,2022-10-11_12h24.55.725,t1_Paradigm,2021.1.4,59.97373783084976,
Q,right,Target,0,52,52,52,489.41446347977035,491.414628692728,right,1,1,0.6098420724738389,D22N08,2022-10-11_12h24.55.725,t1_Paradigm,2021.1.4,59.97373783084976,
Y,left,Distractor,0,53,53,53,492.91427821671823,494.9159880905645,left,1,1,0.45232258940814063,D22N08,2022-10-11_12h24.55.725,t1_Paradigm,2021.1.4,59.97373783084976,
V,left,Distractor,0,54,54,54,496.41449716396164,498.41441632190254,left,1,1,0.5059712452348322,D22N08,2022-10-11_12h24.55.725,t1_Paradigm,2021.1.4,59.97373783084976,
B,left,Distractor,0,55,55,55,499.91456757998094,501.9150503867422,left,1,1,0.4456428532139398,D22N08,2022-10-11_12h24.55.725,t1_Paradigm,2021.1.4,59.97373783084976,
J,left,Pretarget,0,56,56,56,503.4145330938045,505.41574797040084,left,1,1,0.4484405661933124,D22N08,2022-10-11_12h24.55.725,t1_Paradigm,2021.1.4,59.97373783084976,
J,right,Target,0,57,57,57,506.91447968024295,508.91494099330157,left,0,1,0.6135380305931903,D22N08,2022-10-11_12h24.55.725,t1_Paradigm,2021.1.4,59.97373783084976,
H,left,Distractor,0,58,58,58,510.4147461061948,512.4142488633515,left,1,1,0.4740604435210116,D22N08,2022-10-11_12h24.55.725,t1_Paradigm,2021.1.4,59.97373783084976,
J,left,Lure,0,59,59,59,513.9144116702955,515.9152460758924,left,1,1,0.4771224972209893,D22N08,2022-10-11_12h24.55.725,t1_Paradigm,2021.1.4,59.97373783084976,
D,left,Pretarget,0,60,60,60,517.4145311689936,519.4142584874062,left,1,1,0.46636344474973157,D22N08,2022-10-11_12h24.55.725,t1_Paradigm,2021.1.4,59.97373783084976,
D,right,Target,0,61,61,61,520.9148646424874,522.9144155199174,right,1,1,0.5500590435694903,D22N08,2022-10-11_12h24.55.725,t1_Paradigm,2021.1.4,59.97373783084976,
R,left,Distractor,0,62,62,62,524.4142899259459,526.4159921006067,left,1,1,0.4884285168373026,D22N08,2022-10-11_12h24.55.725,t1_Paradigm,2021.1.4,59.97373783084976,
F,left,Distractor,0,63,63,63,527.9147029583692,529.9143112592865,left,1,1,0.4780165719566867,D22N08,2022-10-11_12h24.55.725,t1_Paradigm,2021.1.4,59.97373783084976,
F,left,Distractor,0,0,0,0,744.5228178336401,746.5142848252435,None,0,2,,D22N08,2022-10-11_12h24.55.725,t1_Paradigm,2021.1.4,59.97373783084976,
N,left,Pretarget,0,1,1,1,748.0142079931684,750.01535004779,None,0,2,,D22N08,2022-10-11_12h24.55.725,t1_Paradigm,2021.1.4,59.97373783084976,
V,left,Distractor,0,2,2,2,751.5145228601759,753.5150197822368,left,1,2,0.701146449544467,D22N08,2022-10-11_12h24.55.725,t1_Paradigm,2021.1.4,59.97373783084976,
N,right,Target,0,3,3,3,755.0143324643141,757.0148358024308,right,1,2,0.5934227920952253,D22N08,2022-10-11_12h24.55.725,t1_Paradigm,2021.1.4,59.97373783084976,
N,left,Lure,0,4,4,4,758.5143537975964,760.5142873916193,left,1,2,1.0779243735596538,D22N08,2022-10-11_12h24.55.725,t1_Paradigm,2021.1.4,59.97373783084976,
X,left,Distractor,0,5,5,5,762.0143420883687,764.0149840128724,left,1,2,0.8251918635796756,D22N08,2022-10-11_12h24.55.725,t1_Paradigm,2021.1.4,59.97373783084976,
G,left,Pretarget,0,6,6,6,765.5141298779054,767.5141568252584,left,1,2,0.9261202961788513,D22N08,2022-10-11_12h24.55.725,t1_Paradigm,2021.1.4,59.97373783084976,
H,left,Pretarget,0,7,7,7,769.0142628502799,771.0154103584937,left,1,2,0.5607205722481012,D22N08,2022-10-11_12h24.55.725,t1_Paradigm,2021.1.4,59.97373783084976,
G,right,Target,0,8,8,8,772.5143910106272,774.5151089651627,right,1,2,0.43710984475910664,D22N08,2022-10-11_12h24.55.725,t1_Paradigm,2021.1.4,59.97373783084976,
H,right,Target,0,9,9,9,776.0146628902294,778.0146276020096,right,1,2,0.6659522409318015,D22N08,2022-10-11_12h24.55.725,t1_Paradigm,2021.1.4,59.97373783084976,
T,left,Pretarget,0,10,10,10,779.5143573264359,781.5159340675455,left,1,2,0.5403948878520168,D22N08,2022-10-11_12h24.55.725,t1_Paradigm,2021.1.4,59.97373783084976,
K,left,Distractor,0,11,11,11,783.014387000585,785.0140058880206,left,1,2,0.4983807526878081,D22N08,2022-10-11_12h24.55.725,t1_Paradigm,2021.1.4,59.97373783084976,
T,right,Target,0,12,12,12,786.5143230006215,788.5149501682608,right,1,2,0.5494139110669494,D22N08,2022-10-11_12h24.55.725,t1_Paradigm,2021.1.4,59.97373783084976,
T,left,Lure,0,13,13,13,790.0143003840931,792.0141601936775,left,1,2,0.6822274812730029,D22N08,2022-10-11_12h24.55.725,t1_Paradigm,2021.1.4,59.97373783084976,
J,left,Distractor,0,14,14,14,793.5142546698335,795.5159783381969,left,1,2,0.540281644789502,D22N08,2022-10-11_12h24.55.725,t1_Paradigm,2021.1.4,59.97373783084976,
Q,left,Pretarget,0,15,15,15,797.0141306799487,799.0144181184005,left,1,2,0.4498216181527823,D22N08,2022-10-11_12h24.55.725,t1_Paradigm,2021.1.4,59.97373783084976,
M,left,Distractor,0,16,16,16,800.5143942186842,802.5159953407128,left,1,2,0.5321352026076056,D22N08,2022-10-11_12h24.55.725,t1_Paradigm,2021.1.4,59.97373783084976,
Q,right,Target,0,17,17,17,804.0146667398512,806.0146609654184,right,1,2,1.305531040939968,D22N08,2022-10-11_12h24.55.725,t1_Paradigm,2021.1.4,59.97373783084976,
R,left,Distractor,0,18,18,18,807.5143085645395,809.5158811352449,left,1,2,0.6043079197406769,D22N08,2022-10-11_12h24.55.725,t1_Paradigm,2021.1.4,59.97373783084976,
W,left,Distractor,0,19,19,19,811.0145172461635,813.0155678722076,left,1,2,0.9446966481627896,D22N08,2022-10-11_12h24.55.725,t1_Paradigm,2021.1.4,59.97373783084976,
C,left,Pretarget,0,20,20,20,814.514312735002,816.5158978169202,left,1,2,0.7244296062854119,D22N08,2022-10-11_12h24.55.725,t1_Paradigm,2021.1.4,59.97373783084976,
T,left,Distractor,0,21,21,21,818.0143677524757,820.0159730449668,left,1,2,0.9042396851582453,D22N08,2022-10-11_12h24.55.725,t1_Paradigm,2021.1.4,59.97373783084976,
C,right,Target,0,22,22,22,821.5142870708369,823.514594399021,right,1,2,0.6056373225874268,D22N08,2022-10-11_12h24.55.725,t1_Paradigm,2021.1.4,59.97373783084976,
F,left,Pretarget,0,23,23,23,825.0141678929213,827.0150690253358,left,1,2,0.6412235510651954,D22N08,2022-10-11_12h24.55.725,t1_Paradigm,2021.1.4,59.97373783084976,
C,right,Target,0,24,24,24,828.5144859679858,830.5144356021192,right,1,2,0.7098507661721669,D22N08,2022-10-11_12h24.55.725,t1_Paradigm,2021.1.4,59.97373783084976,
F,right,Target,0,25,25,25,832.0142484141979,834.0144232512102,right,1,2,0.6016404523397796,D22N08,2022-10-11_12h24.55.725,t1_Paradigm,2021.1.4,59.97373783084976,
H,left,Distractor,0,26,26,26,835.5143525144085,837.5146284039947,left,1,2,0.5096951131126843,D22N08,2022-10-11_12h24.55.725,t1_Paradigm,2021.1.4,59.97373783084976,
H,left,Lure,0,27,27,27,839.0143847549916,841.0142500182264,left,1,2,1.2981006284826435,D22N08,2022-10-11_12h24.55.725,t1_Paradigm,2021.1.4,59.97373783084976,
P,left,Distractor,0,28,28,28,842.5145013664733,844.5140082940343,left,1,2,0.822144566802308,D22N08,2022-10-11_12h24.55.725,t1_Paradigm,2021.1.4,59.97373783084976,
G,left,Pretarget,0,29,29,29,846.0142054267926,848.0152615064871,left,1,2,0.7608184809796512,D22N08,2022-10-11_12h24.55.725,t1_Paradigm,2021.1.4,59.97373783084976,
K,left,Distractor,0,30,30,30,849.5143849154119,851.51521611301,left,1,2,0.6049751875689253,D22N08,2022-10-11_12h24.55.725,t1_Paradigm,2021.1.4,59.97373783084976,
G,right,Target,0,31,31,31,853.0143244442297,855.0140870508621,right,1,2,0.9942223586840555,D22N08,2022-10-11_12h24.55.725,t1_Paradigm,2021.1.4,59.97373783084976,
M,left,Pretarget,0,32,32,32,856.5143355118926,858.5151047947584,left,1,2,1.0292545623378828,D22N08,2022-10-11_12h24.55.725,t1_Paradigm,2021.1.4,59.97373783084976,
B,left,Distractor,0,33,33,33,860.0142962136888,862.0142054267926,left,1,2,0.6338447877205908,D22N08,2022-10-11_12h24.55.725,t1_Paradigm,2021.1.4,59.97373783084976,
M,right,Target,0,34,34,34,863.5141343691503,865.5156257769559,right,1,2,0.6365215583937243,D22N08,2022-10-11_12h24.55.725,t1_Paradigm,2021.1.4,59.97373783084976,
M,left,Lure,0,35,35,35,867.0146651358227,869.0142792111728,left,1,2,0.8498939268756658,D22N08,2022-10-11_12h24.55.725,t1_Paradigm,2021.1.4,59.97373783084976,
T,left,Distractor,0,36,36,36,870.5143281334895,872.5144477925496,left,1,2,0.757757710525766,D22N08,2022-10-11_12h24.55.725,t1_Paradigm,2021.1.4,59.97373783084976,
F,left,Distractor,0,37,37,37,874.0142025395762,876.0153150803526,left,1,2,0.7607171076233499,D22N08,2022-10-11_12h24.55.725,t1_Paradigm,2021.1.4,59.97373783084976,
X,left,Distractor,0,38,38,38,877.5144128251704,879.5147570455447,left,1,2,0.5095343913999386,D22N08,2022-10-11_12h24.55.725,t1_Paradigm,2021.1.4,59.97373783084976,
C,left,Distractor,0,39,39,39,881.0143100081477,883.0149140780559,left,1,2,0.7372372993268073,D22N08,2022-10-11_12h24.55.725,t1_Paradigm,2021.1.4,59.97373783084976,
R,left,Distractor,0,40,40,40,884.5143489855691,886.5145247849869,left,1,2,0.5978075118619017,D22N08,2022-10-11_12h24.55.725,t1_Paradigm,2021.1.4,59.97373783084976,
B,left,Pretarget,0,41,41,41,888.0141929155216,890.0153247044072,left,1,2,0.5368311000638641,D22N08,2022-10-11_12h24.55.725,t1_Paradigm,2021.1.4,59.97373783084976,
H,left,Distractor,0,42,42,42,891.5141327651218,893.5152071305201,left,1,2,0.5729973383131437,D22N08,2022-10-11_12h24.55.725,t1_Paradigm,2021.1.4,59.97373783084976,
B,right,Target,0,43,43,43,895.0140684443759,897.0149907497107,right,1,2,0.44915178389055654,D22N08,2022-10-11_12h24.55.725,t1_Paradigm,2021.1.4,59.97373783084976,
W,left,Pretarget,0,44,44,44,898.5143409655429,900.515468904865,left,1,2,0.5968861689325422,D22N08,2022-10-11_12h24.55.725,t1_Paradigm,2021.1.4,59.97373783084976,
L,left,Pretarget,0,45,45,45,902.0141897074645,904.0150013361708,left,1,2,0.6491710961563513,D22N08,2022-10-11_12h24.55.725,t1_Paradigm,2021.1.4,59.97373783084976,
W,right,Target,0,46,46,46,905.514059301524,907.514817035466,right,1,2,0.7975089094252326,D22N08,2022-10-11_12h24.55.725,t1_Paradigm,2021.1.4,59.97373783084976,
L,right,Target,0,47,47,47,909.0311241955496,911.0151107296115,right,1,2,0.4492114530294202,D22N08,2022-10-11_12h24.55.725,t1_Paradigm,2021.1.4,59.97373783084976,
W,right,Target,0,48,48,48,912.5143027901067,914.5141536172596,right,1,2,0.6301177118439227,D22N08,2022-10-11_12h24.55.725,t1_Paradigm,2021.1.4,59.97373783084976,
X,left,Distractor,0,49,49,49,916.0141990107368,918.0143045545556,left,1,2,0.5218137238407508,D22N08,2022-10-11_12h24.55.725,t1_Paradigm,2021.1.4,59.97373783084976,
R,left,Distractor,0,50,50,50,919.5143428903539,921.5159100074088,left,1,2,0.6522671547718346,D22N08,2022-10-11_12h24.55.725,t1_Paradigm,2021.1.4,59.97373783084976,
V,left,Pretarget,0,51,51,51,923.01424713101,925.0145656872191,left,1,2,0.48170964285964146,D22N08,2022-10-11_12h24.55.725,t1_Paradigm,2021.1.4,59.97373783084976,
Z,left,Distractor,0,52,52,52,926.5142504994292,928.5145119529334,left,1,2,0.5335890766000375,D22N08,2022-10-11_12h24.55.725,t1_Paradigm,2021.1.4,59.97373783084976,
V,right,Target,0,53,53,53,930.0143157825805,932.0140706899692,right,1,2,0.7142287490423769,D22N08,2022-10-11_12h24.55.725,t1_Paradigm,2021.1.4,59.97373783084976,
V,left,Lure,0,54,54,54,933.5140920233098,935.5142918828642,left,1,2,0.7658871502499096,D22N08,2022-10-11_12h24.55.725,t1_Paradigm,2021.1.4,59.97373783084976,
N,left,Distractor,0,55,55,55,937.0141948403325,939.0144139479962,left,1,2,0.4819088608492166,D22N08,2022-10-11_12h24.55.725,t1_Paradigm,2021.1.4,59.97373783084976,
B,left,Distractor,0,56,56,56,940.5142758427537,942.5159125738428,left,1,2,0.5161307190428488,D22N08,2022-10-11_12h24.55.725,t1_Paradigm,2021.1.4,59.97373783084976,
V,left,Lure,0,57,57,57,944.014038289024,946.0143873214256,left,1,2,1.225810177042149,D22N08,2022-10-11_12h24.55.725,t1_Paradigm,2021.1.4,59.97373783084976,
J,left,Distractor,0,58,58,58,947.5142376673757,949.5150390303461,left,1,2,0.813248731486965,D22N08,2022-10-11_12h24.55.725,t1_Paradigm,2021.1.4,59.97373783084976,
H,left,Distractor,0,59,59,59,951.0142820983892,953.0147094064741,left,1,2,0.6735145029379055,D22N08,2022-10-11_12h24.55.725,t1_Paradigm,2021.1.4,59.97373783084976,
X,left,Pretarget,0,60,60,60,954.51426814351,956.514256915485,left,1,2,0.6778899194323458,D22N08,2022-10-11_12h24.55.725,t1_Paradigm,2021.1.4,59.97373783084976,
P,left,Distractor,0,61,61,61,958.0141569856787,960.0156275413465,left,1,2,0.5045330905704759,D22N08,2022-10-11_12h24.55.725,t1_Paradigm,2021.1.4,59.97373783084976,
X,right,Target,0,62,62,62,961.5142180984258,963.5160107392003,right,1,2,0.4442502523888834,D22N08,2022-10-11_12h24.55.725,t1_Paradigm,2021.1.4,59.97373783084976,
Q,left,Distractor,0,63,63,63,965.0141091861879,967.0153282332467,left,1,2,0.5129570263088681,D22N08,2022-10-11_12h24.55.725,t1_Paradigm,2021.1.4,59.97373783084976,
B,left,Pretarget,0,0,0,0,1059.9723927551531,1061.964205571101,left,1,2,0.34802220843266696,D22N08,2022-10-11_12h24.55.725,t1_Paradigm,2021.1.4,59.97373783084976,
F,left,Distractor,0,1,1,1,1063.4644036662648,1065.4640979421092,left,1,2,0.3999889002298005,D22N08,2022-10-11_12h24.55.725,t1_Paradigm,2021.1.4,59.97373783084976,
B,right,Target,0,2,2,2,1066.9639338519773,1068.9646120270481,right,1,2,0.3714115506154485,D22N08,2022-10-11_12h24.55.725,t1_Paradigm,2021.1.4,59.97373783084976,
V,left,Distractor,0,3,3,3,1070.464088638837,1072.46452781657,left,1,2,0.6317319867084734,D22N08,2022-10-11_12h24.55.725,t1_Paradigm,2021.1.4,59.97373783084976,
G,left,Pretarget,0,4,4,4,1073.9642103831284,1075.965573791007,left,1,2,0.5865172115154564,D22N08,2022-10-11_12h24.55.725,t1_Paradigm,2021.1.4,59.97373783084976,
B,left,Lure,0,5,5,5,1077.4641970698722,1079.4639786038315,left,1,2,0.6241389277856797,D22N08,2022-10-11_12h24.55.725,t1_Paradigm,2021.1.4,59.97373783084976,
G,right,Target,0,6,6,6,1080.9639640073292,1082.9639036965673,right,1,2,0.4840739525388926,D22N08,2022-10-11_12h24.55.725,t1_Paradigm,2021.1.4,59.97373783084976,
Y,left,Pretarget,0,7,7,7,1084.4641367591103,1086.4648447688087,left,1,2,0.39112706994637847,D22N08,2022-10-11_12h24.55.725,t1_Paradigm,2021.1.4,59.97373783084976,
P,left,Distractor,0,8,8,8,1087.9640445286059,1089.9649280168815,left,1,2,0.5391918809036724,D22N08,2022-10-11_12h24.55.725,t1_Paradigm,2021.1.4,59.97373783084976,
Y,right,Target,0,9,9,9,1091.4639811702073,1093.477125705278,right,1,2,1.042965312663,D22N08,2022-10-11_12h24.55.725,t1_Paradigm,2021.1.4,59.97373783084976,
X,left,Distractor,0,10,10,10,1094.9640679471195,1096.9635363784619,left,1,2,0.6766862708609551,D22N08,2022-10-11_12h24.55.725,t1_Paradigm,2021.1.4,59.97373783084976,
Y,right,Target,0,11,11,11,1098.4640944132698,1100.4642788743367,right,1,2,0.7277970633003861,D22N08,2022-10-11_12h24.55.725,t1_Paradigm,2021.1.4,59.97373783084976,
N,left,Distractor,0,12,12,12,1101.9643066237331,1103.9650614704587,left,1,2,0.6029586271615699,D22N08,2022-10-11_12h24.55.725,t1_Paradigm,2021.1.4,59.97373783084976,
Y,right,Target,0,13,13,13,1105.4641505536274,1107.4646429844433,right,1,2,0.6554540003999136,D22N08,2022-10-11_12h24.55.725,t1_Paradigm,2021.1.4,59.97373783084976,
Y,left,Lure,0,14,14,14,1108.9640486990102,1110.9643858617637,left,1,2,1.1237701660138555,D22N08,2022-10-11_12h24.55.725,t1_Paradigm,2021.1.4,59.97373783084976,
K,left,Distractor,0,15,15,15,1112.4640915260534,1114.4644216311863,left,1,2,0.8556693225982599,D22N08,2022-10-11_12h24.55.725,t1_Paradigm,2021.1.4,59.97373783084976,
T,left,Pretarget,0,16,16,16,1115.9641783029656,1117.9661098509096,left,1,2,0.6178887452697381,D22N08,2022-10-11_12h24.55.725,t1_Paradigm,2021.1.4,59.97373783084976,
J,left,Distractor,0,17,17,17,1119.4641203982173,1121.4638913457165,left,1,2,0.592286191182211,D22N08,2022-10-11_12h24.55.725,t1_Paradigm,2021.1.4,59.97373783084976,
T,right,Target,0,18,18,18,1122.964339345519,1124.9644821023103,right,1,2,0.4356463467120193,D22N08,2022-10-11_12h24.55.725,t1_Paradigm,2021.1.4,59.97373783084976,
S,left,Pretarget,0,19,19,19,1126.4641191150295,1128.4639433156117,left,1,2,0.7444145992049016,D22N08,2022-10-11_12h24.55.725,t1_Paradigm,2021.1.4,59.97373783084976,
R,left,Distractor,0,20,20,20,1129.9642084583174,1131.964013731631,left,1,2,0.5081716250861064,D22N08,2022-10-11_12h24.55.725,t1_Paradigm,2021.1.4,59.97373783084976,
S,right,Target,0,21,21,21,1133.4639154058532,1135.4644796962966,right,1,2,0.6396346195251681,D22N08,2022-10-11_12h24.55.725,t1_Paradigm,2021.1.4,59.97373783084976,
Q,left,Distractor,0,22,22,22,1136.9640772503917,1138.9643996562227,left,1,2,0.43557192070875317,D22N08,2022-10-11_12h24.55.725,t1_Paradigm,2021.1.4,59.97373783084976,
D,left,Distractor,0,23,23,23,1140.4640090799658,1142.4808418739121,left,1,2,0.47110489616170526,D22N08,2022-10-11_12h24.55.725,t1_Paradigm,2021.1.4,59.97373783084976,
F,left,Distractor,0,24,24,24,1143.963889581326,1145.9642649194575,left,1,2,0.571731775009539,D22N08,2022-10-11_12h24.55.725,t1_Paradigm,2021.1.4,59.97373783084976,
Z,left,Distractor,0,25,25,25,1147.4640501426184,1149.465059064445,left,1,2,0.5268872051383369,D22N08,2022-10-11_12h24.55.725,t1_Paradigm,2021.1.4,59.97373783084976,
P,left,Distractor,0,26,26,26,1150.9639585536788,1152.9644586837967,left,1,2,0.4674836847698316,D22N08,2022-10-11_12h24.55.725,t1_Paradigm,2021.1.4,59.97373783084976,
H,left,Distractor,0,27,27,27,1154.4638499622815,1156.4641698017367,left,1,2,0.6160576082766056,D22N08,2022-10-11_12h24.55.725,t1_Paradigm,2021.1.4,59.97373783084976,
Z,left,Pretarget,0,28,28,28,1157.9640974609065,1159.9659744725213,left,1,2,0.5861264748382382,D22N08,2022-10-11_12h24.55.725,t1_Paradigm,2021.1.4,59.97373783084976,
J,left,Pretarget,0,29,29,29,1161.4641053205705,1163.463860869524,left,1,2,0.7041154706967063,D22N08,2022-10-11_12h24.55.725,t1_Paradigm,2021.1.4,59.97373783084976,
Z,right,Target,0,30,30,30,1164.964113501017,1166.965138462896,right,1,2,0.3868401948129758,D22N08,2022-10-11_12h24.55.725,t1_Paradigm,2021.1.4,59.97373783084976,
J,right,Target,0,31,31,31,1168.4640514258645,1170.4644139319425,right,1,2,0.40761596424272284,D22N08,2022-10-11_12h24.55.725,t1_Paradigm,2021.1.4,59.97373783084976,
V,left,Pretarget,0,32,32,32,1171.9640660223085,1173.964290904405,left,1,2,0.49177672574296594,D22N08,2022-10-11_12h24.55.725,t1_Paradigm,2021.1.4,59.97373783084976,
Z,left,Lure,0,33,33,33,1175.4638740224182,1177.4643318066373,left,1,2,0.591755905712489,D22N08,2022-10-11_12h24.55.725,t1_Paradigm,2021.1.4,59.97373783084976,
V,right,Target,0,34,34,34,1178.9641106138006,1180.9641795861535,right,1,2,0.4198337027337402,D22N08,2022-10-11_12h24.55.725,t1_Paradigm,2021.1.4,59.97373783084976,
X,left,Distractor,0,35,35,35,1182.46403281932,1184.4643218618003,left,1,2,0.6478692822274752,D22N08,2022-10-11_12h24.55.725,t1_Paradigm,2021.1.4,59.97373783084976,
S,left,Distractor,0,36,36,36,1185.9640121276025,1187.9643162477878,left,1,2,0.6997349214507267,D22N08,2022-10-11_12h24.55.725,t1_Paradigm,2021.1.4,59.97373783084976,
Q,left,Distractor,0,37,37,37,1189.464047897025,1191.4665924973087,left,1,2,0.49371725611854345,D22N08,2022-10-11_12h24.55.725,t1_Paradigm,2021.1.4,59.97373783084976,
P,left,Distractor,0,38,38,38,1192.9642472753767,1194.9637785838568,left,1,2,0.4201708654873073,D22N08,2022-10-11_12h24.55.725,t1_Paradigm,2021.1.4,59.97373783084976,
S,left,Lure,0,39,39,39,1196.4640822228394,1198.4643789645052,left,1,2,0.43967465561581776,D22N08,2022-10-11_12h24.55.725,t1_Paradigm,2021.1.4,59.97373783084976,
K,left,Pretarget,0,40,40,40,1199.9640371501446,1201.9643319670577,left,1,2,0.4598020845442079,D22N08,2022-10-11_12h24.55.725,t1_Paradigm,2021.1.4,59.97373783084976,
L,left,Distractor,0,41,41,41,1203.4640235160477,1205.4652262022137,left,1,2,0.47888305777451023,D22N08,2022-10-11_12h24.55.725,t1_Paradigm,2021.1.4,59.97373783084976,
K,right,Target,0,42,42,42,1206.9640134107904,1208.9643743128981,right,1,2,0.37167653295909986,D22N08,2022-10-11_12h24.55.725,t1_Paradigm,2021.1.4,59.97373783084976,
B,left,Distractor,0,43,43,43,1210.4640514258645,1212.4642984432867,left,1,2,0.45574650750495493,D22N08,2022-10-11_12h24.55.725,t1_Paradigm,2021.1.4,59.97373783084976,
N,left,Distractor,0,44,44,44,1213.9639556664624,1215.9649969892926,left,1,2,0.6029403413995169,D22N08,2022-10-11_12h24.55.725,t1_Paradigm,2021.1.4,59.97373783084976,
S,left,Pretarget,0,45,45,45,1217.4642368492787,1219.4651078263414,left,1,2,0.4789465765352361,D22N08,2022-10-11_12h24.55.725,t1_Paradigm,2021.1.4,59.97373783084976,
Z,left,Distractor,0,46,46,46,1220.9639643281116,1222.9641847190214,left,1,2,0.5479799267486669,D22N08,2022-10-11_12h24.55.725,t1_Paradigm,2021.1.4,59.97373783084976,
S,right,Target,0,47,47,47,1224.46387787204,1226.4659467231832,right,1,2,0.35786152200307697,D22N08,2022-10-11_12h24.55.725,t1_Paradigm,2021.1.4,59.97373783084976,
C,left,Distractor,0,48,48,48,1227.9639919170877,1229.9643890697625,left,1,2,0.45970263594063,D22N08,2022-10-11_12h24.55.725,t1_Paradigm,2021.1.4,59.97373783084976,
T,left,Pretarget,0,49,49,49,1231.4638140324969,1233.4641383631388,left,1,2,0.6079227149602957,D22N08,2022-10-11_12h24.55.725,t1_Paradigm,2021.1.4,59.97373783084976,
S,left,Lure,0,50,50,50,1234.9639101126231,1236.9647637663293,left,1,2,0.9312470305594616,D22N08,2022-10-11_12h24.55.725,t1_Paradigm,2021.1.4,59.97373783084976,
T,right,Target,0,51,51,51,1238.464093771705,1240.4642281876295,right,1,2,0.39172087417682633,D22N08,2022-10-11_12h24.55.725,t1_Paradigm,2021.1.4,59.97373783084976,
N,left,Pretarget,0,52,52,52,1241.9637388044503,1243.964305340487,left,1,2,0.5397163919406012,D22N08,2022-10-11_12h24.55.725,t1_Paradigm,2021.1.4,59.97373783084976,
B,left,Distractor,0,53,53,53,1245.4639352955855,1247.4658450289862,left,1,2,0.44631942437263206,D22N08,2022-10-11_12h24.55.725,t1_Paradigm,2021.1.4,59.97373783084976,
N,right,Target,0,54,54,54,1248.963974273007,1250.9653620618046,right,1,2,0.7546087196096778,D22N08,2022-10-11_12h24.55.725,t1_Paradigm,2021.1.4,59.97373783084976,
N,left,Lure,0,55,55,55,1252.4638268645504,1254.464202202682,left,1,2,0.6318734603119083,D22N08,2022-10-11_12h24.55.725,t1_Paradigm,2021.1.4,59.97373783084976,
X,left,Distractor,0,56,56,56,1255.9638822028646,1257.9638369698077,left,1,2,0.6361603354453109,D22N08,2022-10-11_12h24.55.725,t1_Paradigm,2021.1.4,59.97373783084976,
W,left,Distractor,0,57,57,57,1259.4642557766056,1261.4640581627027,left,1,2,0.5118611672660336,D22N08,2022-10-11_12h24.55.725,t1_Paradigm,2021.1.4,59.97373783084976,
S,left,Distractor,0,58,58,58,1262.9639319271664,1264.9637022330426,left,1,2,0.46803803043439984,D22N08,2022-10-11_12h24.55.725,t1_Paradigm,2021.1.4,59.97373783084976,
L,left,Distractor,0,59,59,59,1266.4637566089514,1268.4657593748998,left,1,2,0.45426825259346515,D22N08,2022-10-11_12h24.55.725,t1_Paradigm,2021.1.4,59.97373783084976,
K,left,Pretarget,0,60,60,60,1269.9636797768762,1271.9648083578213,left,1,2,0.4592487012851052,D22N08,2022-10-11_12h24.55.725,t1_Paradigm,2021.1.4,59.97373783084976,
V,left,Pretarget,0,61,61,61,1273.4640809395933,1275.4647443578579,left,1,2,0.4795830474467948,D22N08,2022-10-11_12h24.55.725,t1_Paradigm,2021.1.4,59.97373783084976,
K,right,Target,0,62,62,62,1276.9644715158502,1278.9639197366778,right,1,2,0.6761335292831063,D22N08,2022-10-11_12h24.55.725,t1_Paradigm,2021.1.4,59.97373783084976,
V,right,Target,0,63,63,63,1280.463916689041,1282.4661109737353,right,1,2,0.48584606195800006,D22N08,2022-10-11_12h24.55.725,t1_Paradigm,2021.1.4,59.97373783084976,
R,left,Distractor,0,0,0,0,1463.3071751504322,1465.2972155361786,left,1,3,0.4067584609147161,D22N08,2022-10-11_12h24.55.725,t1_Paradigm,2021.1.4,59.97373783084976,
P,left,Lure,0,1,1,1,1466.797448277939,1468.7978245785343,left,1,3,0.2500550977420062,D22N08,2022-10-11_12h24.55.725,t1_Paradigm,2021.1.4,59.97373783084976,
V,left,Distractor,0,2,2,2,1470.2974526087637,1472.2974356062477,left,1,3,0.33434161357581615,D22N08,2022-10-11_12h24.55.725,t1_Paradigm,2021.1.4,59.97373783084976,
P,left,Pretarget,0,3,3,3,1473.7972618920612,1475.797221791814,left,1,3,0.6906918380409479,D22N08,2022-10-11_12h24.55.725,t1_Paradigm,2021.1.4,59.97373783084976,
Z,left,Distractor,0,4,4,4,1477.2972264434793,1479.297200137691,left,1,3,0.4227334306342527,D22N08,2022-10-11_12h24.55.725,t1_Paradigm,2021.1.4,59.97373783084976,
L,left,Pretarget,0,5,5,5,1480.7970331603428,1482.7971666139201,left,1,3,0.5386744275456294,D22N08,2022-10-11_12h24.55.725,t1_Paradigm,2021.1.4,59.97373783084976,
P,right,Target,0,6,6,6,1484.2971840976388,1486.2979553052573,right,1,3,0.41407178074587137,D22N08,2022-10-11_12h24.55.725,t1_Paradigm,2021.1.4,59.97373783084976,
S,left,Distractor,0,7,7,7,1487.79694461904,1489.7972480976023,left,1,3,0.498743258707691,D22N08,2022-10-11_12h24.55.725,t1_Paradigm,2021.1.4,59.97373783084976,
L,right,Target,0,8,8,8,1491.2971840976388,1493.2985831144615,None,0,3,,D22N08,2022-10-11_12h24.55.725,t1_Paradigm,2021.1.4,59.97373783084976,
D,left,Distractor,0,9,9,9,1494.7971297216718,1496.7991328084609,left,1,3,0.8248636832577176,D22N08,2022-10-11_12h24.55.725,t1_Paradigm,2021.1.4,59.97373783084976,
G,left,Distractor,0,10,10,10,1498.2972351051285,1500.2984243175597,left,1,3,0.6855073593906127,D22N08,2022-10-11_12h24.55.725,t1_Paradigm,2021.1.4,59.97373783084976,
M,left,Pretarget,0,11,11,11,1501.7971897116513,1503.797437691479,left,1,3,0.7863597619580105,D22N08,2022-10-11_12h24.55.725,t1_Paradigm,2021.1.4,59.97373783084976,
Y,left,Distractor,0,12,12,12,1505.2971542630694,1507.2973172303755,left,1,3,0.5025008108350448,D22N08,2022-10-11_12h24.55.725,t1_Paradigm,2021.1.4,59.97373783084976,
V,left,Distractor,0,13,13,13,1508.7974322378286,1510.7974463531282,left,1,3,0.8265485346200876,D22N08,2022-10-11_12h24.55.725,t1_Paradigm,2021.1.4,59.97373783084976,
M,right,Target,0,14,14,14,1512.2971395061468,1514.2987046983908,right,1,3,1.4051846070215106,D22N08,2022-10-11_12h24.55.725,t1_Paradigm,2021.1.4,59.97373783084976,
S,left,Pretarget,0,15,15,15,1515.7969680375536,1517.7973331100657,left,1,3,0.9626143939094618,D22N08,2022-10-11_12h24.55.725,t1_Paradigm,2021.1.4,59.97373783084976,
Q,left,Distractor,0,16,16,16,1519.2971683783107,1521.298966793518,left,1,3,0.9487871925812215,D22N08,2022-10-11_12h24.55.725,t1_Paradigm,2021.1.4,59.97373783084976,
R,left,Pretarget,0,17,17,17,1522.7970928294817,1524.7994333998067,left,1,3,0.9044507727958262,D22N08,2022-10-11_12h24.55.725,t1_Paradigm,2021.1.4,59.97373783084976,
S,right,Target,0,18,18,18,1526.297586062341,1528.2973922980018,right,1,3,1.2306481897830963,D22N08,2022-10-11_12h24.55.725,t1_Paradigm,2021.1.4,59.97373783084976,
F,left,Distractor,0,19,19,19,1529.7969099724432,1531.7973507541465,left,1,3,0.7225628603482619,D22N08,2022-10-11_12h24.55.725,t1_Paradigm,2021.1.4,59.97373783084976,
R,right,Target,0,20,20,20,1533.297148167796,1535.297007014975,right,1,3,0.5830685916007496,D22N08,2022-10-11_12h24.55.725,t1_Paradigm,2021.1.4,59.97373783084976,
P,left,Distractor,0,21,21,21,1536.7971393457265,1538.7974261426134,left,1,3,0.8107118304469623,D22N08,2022-10-11_12h24.55.725,t1_Paradigm,2021.1.4,59.97373783084976,
L,left,Distractor,0,22,22,22,1540.2972158570192,1542.2970066941925,left,1,3,0.49501489964313805,D22N08,2022-10-11_12h24.55.725,t1_Paradigm,2021.1.4,59.97373783084976,
R,right,Target,0,23,23,23,1543.7971037367242,1545.7979285183246,right,1,3,1.0260070852236822,D22N08,2022-10-11_12h24.55.725,t1_Paradigm,2021.1.4,59.97373783084976,
H,left,Pretarget,0,24,24,24,1547.2969855212723,1549.2973749747034,left,1,3,0.7745378929539584,D22N08,2022-10-11_12h24.55.725,t1_Paradigm,2021.1.4,59.97373783084976,
G,left,Pretarget,0,25,25,25,1550.7970633156947,1552.7972201878438,left,1,3,0.8110008729272522,D22N08,2022-10-11_12h24.55.725,t1_Paradigm,2021.1.4,59.97373783084976,
T,left,Distractor,0,26,26,26,1554.2971038971446,1556.297502653848,left,1,3,0.7502236791187897,D22N08,2022-10-11_12h24.55.725,t1_Paradigm,2021.1.4,59.97373783084976,
H,right,Target,0,27,27,27,1557.7968644185457,1559.7987693399773,right,1,3,0.6571430221083574,D22N08,2022-10-11_12h24.55.725,t1_Paradigm,2021.1.4,59.97373783084976,
G,right,Target,0,28,28,28,1561.2971276364988,1563.2975225435803,right,1,3,0.5502855296945199,D22N08,2022-10-11_12h24.55.725,t1_Paradigm,2021.1.4,59.97373783084976,
D,left,Distractor,0,29,29,29,1564.797075185401,1566.7981120169861,left,1,3,0.6978518145624548,D22N08,2022-10-11_12h24.55.725,t1_Paradigm,2021.1.4,59.97373783084976,
N,left,Pretarget,0,30,30,30,1568.2970891402801,1570.2973955060588,left,1,3,0.8146063648746349,D22N08,2022-10-11_12h24.55.725,t1_Paradigm,2021.1.4,59.97373783084976,
V,left,Distractor,0,31,31,31,1571.7974303130177,1573.7981517963926,left,1,3,0.7697050130809657,D22N08,2022-10-11_12h24.55.725,t1_Paradigm,2021.1.4,59.97373783084976,
R,left,Distractor,0,32,32,32,1575.2972639772925,1577.2987117560115,left,1,3,0.7891857054200955,D22N08,2022-10-11_12h24.55.725,t1_Paradigm,2021.1.4,59.97373783084976,
N,right,Target,0,33,33,33,1578.7970883382368,1580.7971788044088,left,0,3,0.7467846832587384,D22N08,2022-10-11_12h24.55.725,t1_Paradigm,2021.1.4,59.97373783084976,
Z,left,Distractor,0,34,34,34,1582.2971645286889,1584.2975087490631,left,1,3,0.494211932644248,D22N08,2022-10-11_12h24.55.725,t1_Paradigm,2021.1.4,59.97373783084976,
N,left,Lure,0,35,35,35,1585.7973347140942,1587.7979827338131,left,1,3,0.8660369968274608,D22N08,2022-10-11_12h24.55.725,t1_Paradigm,2021.1.4,59.97373783084976,
Y,left,Pretarget,0,36,36,36,1589.2974670448457,1591.2968478972907,left,1,3,1.0794257262023166,D22N08,2022-10-11_12h24.55.725,t1_Paradigm,2021.1.4,59.97373783084976,
Y,left,Lure,0,37,37,37,1592.7971303632949,1594.796901952359,left,1,3,0.7948696726816706,D22N08,2022-10-11_12h24.55.725,t1_Paradigm,2021.1.4,59.97373783084976,
B,left,Distractor,0,38,38,38,1596.2971087091719,1598.2973631050554,left,1,3,0.4465885771205649,D22N08,2022-10-11_12h24.55.725,t1_Paradigm,2021.1.4,59.97373783084976,
Y,right,Target,0,39,39,39,1599.7970376515877,1601.7985171896871,right,1,3,0.6894111970905215,D22N08,2022-10-11_12h24.55.725,t1_Paradigm,2021.1.4,59.97373783084976,
J,left,Distractor,0,40,40,40,1603.2974670448457,1605.2989112947835,left,1,3,0.6769329674425535,D22N08,2022-10-11_12h24.55.725,t1_Paradigm,2021.1.4,59.97373783084976,
X,left,Distractor,0,41,41,41,1606.7973016714677,1608.7973212404177,left,1,3,0.7626021392643452,D22N08,2022-10-11_12h24.55.725,t1_Paradigm,2021.1.4,59.97373783084976,
W,left,Pretarget,0,42,42,42,1610.2973797867307,1612.2988403975614,left,1,3,0.9730353212798946,D22N08,2022-10-11_12h24.55.725,t1_Paradigm,2021.1.4,59.97373783084976,
S,left,Pretarget,0,43,43,43,1613.7970620325068,1615.79835229757,left,1,3,0.9135817558853887,D22N08,2022-10-11_12h24.55.725,t1_Paradigm,2021.1.4,59.97373783084976,
R,left,Distractor,0,44,44,44,1617.2970650801435,1619.2979864230147,left,1,3,0.5016715379897505,D22N08,2022-10-11_12h24.55.725,t1_Paradigm,2021.1.4,59.97373783084976,
W,right,Target,0,45,45,45,1620.7969365990139,1622.7973286188208,right,1,3,0.4585195187246427,D22N08,2022-10-11_12h24.55.725,t1_Paradigm,2021.1.4,59.97373783084976,
S,right,Target,0,46,46,46,1624.297033962328,1626.316199948138,right,1,3,0.42774563876446337,D22N08,2022-10-11_12h24.55.725,t1_Paradigm,2021.1.4,59.97373783084976,
D,left,Distractor,0,47,47,47,1627.797128438484,1629.7972686288995,left,1,3,0.6746565575595014,D22N08,2022-10-11_12h24.55.725,t1_Paradigm,2021.1.4,59.97373783084976,
T,left,Distractor,0,48,48,48,1631.2971096715773,1633.2973675963003,left,1,3,0.8704233205062337,D22N08,2022-10-11_12h24.55.725,t1_Paradigm,2021.1.4,59.97373783084976,
S,right,Target,0,49,49,49,1634.7970973207266,1636.7983696208685,right,1,3,0.48938001511851326,D22N08,2022-10-11_12h24.55.725,t1_Paradigm,2021.1.4,59.97373783084976,
K,left,Distractor,0,50,50,50,1638.2970865738462,1640.297510673874,left,1,3,0.4144920311518945,D22N08,2022-10-11_12h24.55.725,t1_Paradigm,2021.1.4,59.97373783084976,
S,left,Lure,0,51,51,51,1641.7971832955955,1643.7987334101344,left,1,3,0.5451196575304493,D22N08,2022-10-11_12h24.55.725,t1_Paradigm,2021.1.4,59.97373783084976,
T,left,Pretarget,0,52,52,52,1645.2968559173169,1647.2988747233758,left,1,3,0.6290427048224956,D22N08,2022-10-11_12h24.55.725,t1_Paradigm,2021.1.4,59.97373783084976,
V,left,Distractor,0,53,53,53,1648.7968804586562,1650.7971630850807,left,1,3,0.5706339910393581,D22N08,2022-10-11_12h24.55.725,t1_Paradigm,2021.1.4,59.97373783084976,
B,left,Distractor,0,54,54,54,1652.2971308444976,1654.2973092103493,left,1,3,0.5582924230839126,D22N08,2022-10-11_12h24.55.725,t1_Paradigm,2021.1.4,59.97373783084976,
T,right,Target,0,55,55,55,1655.7969805488246,1657.7972529096296,right,1,3,0.7065917401923798,D22N08,2022-10-11_12h24.55.725,t1_Paradigm,2021.1.4,59.97373783084976,
Y,left,Pretarget,0,56,56,56,1659.2970307543292,1661.2989738511387,left,1,3,0.5811110587092116,D22N08,2022-10-11_12h24.55.725,t1_Paradigm,2021.1.4,59.97373783084976,
T,left,Lure,0,57,57,57,1662.7971130399965,1664.797098283132,left,1,3,0.9227124181925319,D22N08,2022-10-11_12h24.55.725,t1_Paradigm,2021.1.4,59.97373783084976,
P,left,Pretarget,0,58,58,58,1666.2971099923598,1668.297586062341,left,1,3,0.494087140657939,D22N08,2022-10-11_12h24.55.725,t1_Paradigm,2021.1.4,59.97373783084976,
Y,right,Target,0,59,59,59,1669.796913180442,1671.7988190642209,right,1,3,0.43290220777271315,D22N08,2022-10-11_12h24.55.725,t1_Paradigm,2021.1.4,59.97373783084976,
R,left,Distractor,0,60,60,60,1673.2970519272494,1675.2974676864687,left,1,3,0.6143419599975459,D22N08,2022-10-11_12h24.55.725,t1_Paradigm,2021.1.4,59.97373783084976,
P,right,Target,0,61,61,61,1676.797423255397,1678.7989560466376,None,0,3,,D22N08,2022-10-11_12h24.55.725,t1_Paradigm,2021.1.4,59.97373783084976,
L,left,Distractor,0,62,62,62,1680.2969624235411,1682.2975199771463,left,1,3,0.8463811466353945,D22N08,2022-10-11_12h24.55.725,t1_Paradigm,2021.1.4,59.97373783084976,
V,left,Distractor,0,63,63,63,1683.7974344834802,1685.7968393960036,left,1,3,0.7389766870182939,D22N08,2022-10-11_12h24.55.725,t1_Paradigm,2021.1.4,59.97373783084976,
H,left,Lure,0,0,0,0,1788.989659273182,1790.9801709168241,left,1,3,0.33960083907004446,D22N08,2022-10-11_12h24.55.725,t1_Paradigm,2021.1.4,59.97373783084976,
B,left,Distractor,0,1,1,1,1792.4803180044983,1794.4826187953586,left,1,3,0.24523857876192778,D22N08,2022-10-11_12h24.55.725,t1_Paradigm,2021.1.4,59.97373783084976,
T,left,Distractor,0,2,2,2,1795.980357944325,1797.9818159887218,left,1,3,0.29826840781606734,D22N08,2022-10-11_12h24.55.725,t1_Paradigm,2021.1.4,59.97373783084976,
R,left,Distractor,0,3,3,3,1799.4803029267932,1801.4800324908574,left,1,3,0.6557196243084036,D22N08,2022-10-11_12h24.55.725,t1_Paradigm,2021.1.4,59.97373783084976,
H,left,Pretarget,0,4,4,4,1802.9802706862101,1804.980053182575,left,1,3,0.5157245839363895,D22N08,2022-10-11_12h24.55.725,t1_Paradigm,2021.1.4,59.97373783084976,
K,left,Distractor,0,5,5,5,1806.480036982044,1808.4800764406682,left,1,3,0.6637849036487751,D22N08,2022-10-11_12h24.55.725,t1_Paradigm,2021.1.4,59.97373783084976,
G,left,Distractor,0,6,6,6,1809.980665914074,1811.9804817738477,left,1,3,0.4752952099079266,D22N08,2022-10-11_12h24.55.725,t1_Paradigm,2021.1.4,59.97373783084976,
H,right,Target,0,7,7,7,1813.4802609017352,1815.4800607213983,right,1,3,0.5757106803357601,D22N08,2022-10-11_12h24.55.725,t1_Paradigm,2021.1.4,59.97373783084976,
Y,left,Pretarget,0,8,8,8,1816.9801808616612,1818.98084845033,left,1,3,0.5629440499469638,D22N08,2022-10-11_12h24.55.725,t1_Paradigm,2021.1.4,59.97373783084976,
S,left,Distractor,0,9,9,9,1820.480296831578,1822.480192570947,left,1,3,0.4874134997953661,D22N08,2022-10-11_12h24.55.725,t1_Paradigm,2021.1.4,59.97373783084976,
P,left,Distractor,0,10,10,10,1823.9803361297818,1825.9799248618074,left,1,3,0.6197622281033546,D22N08,2022-10-11_12h24.55.725,t1_Paradigm,2021.1.4,59.97373783084976,
Y,right,Target,0,11,11,11,1827.480424189882,1829.4811719789868,right,1,3,0.5746600542915985,D22N08,2022-10-11_12h24.55.725,t1_Paradigm,2021.1.4,59.97373783084976,
H,left,Lure,0,12,12,12,1830.9801317789825,1832.9801372326328,left,1,3,0.5155978671973571,D22N08,2022-10-11_12h24.55.725,t1_Paradigm,2021.1.4,59.97373783084976,
Q,left,Distractor,0,13,13,13,1834.4800235083676,1836.4806176333805,left,1,3,0.6631991194444709,D22N08,2022-10-11_12h24.55.725,t1_Paradigm,2021.1.4,59.97373783084976,
V,left,Pretarget,0,14,14,14,1837.9803396586212,1839.9800108366762,left,1,3,0.8434535089181736,D22N08,2022-10-11_12h24.55.725,t1_Paradigm,2021.1.4,59.97373783084976,
G,left,Distractor,0,15,15,15,1841.4802856034948,1843.480984309921,left,1,3,0.7187129172962159,D22N08,2022-10-11_12h24.55.725,t1_Paradigm,2021.1.4,59.97373783084976,
Z,left,Pretarget,0,16,16,16,1844.9801632175804,1846.9801805408788,left,1,3,0.6277678382466547,D22N08,2022-10-11_12h24.55.725,t1_Paradigm,2021.1.4,59.97373783084976,
V,right,Target,0,17,17,17,1848.4802621849813,1850.4821462542168,left,0,3,0.5655184848001227,D22N08,2022-10-11_12h24.55.725,t1_Paradigm,2021.1.4,59.97373783084976,
N,left,Distractor,0,18,18,18,1851.9797246814705,1853.9805796183646,left,1,3,0.5071524376398884,D22N08,2022-10-11_12h24.55.725,t1_Paradigm,2021.1.4,59.97373783084976,
Z,right,Target,0,19,19,19,1855.4804575532908,1857.4807077787118,left,0,3,0.7668842023704201,D22N08,2022-10-11_12h24.55.725,t1_Paradigm,2021.1.4,59.97373783084976,
R,left,Distractor,0,20,20,20,1858.98022994434,1860.9809879991226,left,1,3,0.6747492692666128,D22N08,2022-10-11_12h24.55.725,t1_Paradigm,2021.1.4,59.97373783084976,
P,left,Distractor,0,21,21,21,1862.480340139824,1864.4805704755126,left,1,3,0.5350400633178651,D22N08,2022-10-11_12h24.55.725,t1_Paradigm,2021.1.4,59.97373783084976,
Z,right,Target,0,22,22,22,1865.9803216936998,1867.980467016925,right,1,3,0.39518136373953894,D22N08,2022-10-11_12h24.55.725,t1_Paradigm,2021.1.4,59.97373783084976,
D,left,Pretarget,0,23,23,23,1869.4798493129783,1871.4806102549774,left,1,3,0.41516186541412026,D22N08,2022-10-11_12h24.55.725,t1_Paradigm,2021.1.4,59.97373783084976,
K,left,Distractor,0,24,24,24,1872.9801805408788,1874.980757663434,left,1,3,0.7229616169934161,D22N08,2022-10-11_12h24.55.725,t1_Paradigm,2021.1.4,59.97373783084976,
W,left,Distractor,0,25,25,25,1876.480195137381,1878.480747237336,left,1,3,0.4389522098354064,D22N08,2022-10-11_12h24.55.725,t1_Paradigm,2021.1.4,59.97373783084976,
D,right,Target,0,26,26,26,1879.9802164706634,1881.9800910371705,right,1,3,0.45968017977429554,D22N08,2022-10-11_12h24.55.725,t1_Paradigm,2021.1.4,59.97373783084976,
G,left,Pretarget,0,27,27,27,1883.4803484806325,1885.4820609209128,left,1,3,0.477834677323699,D22N08,2022-10-11_12h24.55.725,t1_Paradigm,2021.1.4,59.97373783084976,
V,left,Distractor,0,28,28,28,1886.9803191272658,1888.9795854534605,left,1,3,0.7240927643142641,D22N08,2022-10-11_12h24.55.725,t1_Paradigm,2021.1.4,59.97373783084976,
D,right,Target,0,29,29,29,1890.480336931767,1892.4802098942455,right,1,3,0.47147478064289317,D22N08,2022-10-11_12h24.55.725,t1_Paradigm,2021.1.4,59.97373783084976,
G,right,Target,0,30,30,30,1893.9799842101638,1895.9811073374585,right,1,3,0.41047815838828683,D22N08,2022-10-11_12h24.55.725,t1_Paradigm,2021.1.4,59.97373783084976,
B,left,Pretarget,0,31,31,31,1897.4802416536259,1899.4800206211512,left,1,3,0.47973959875525907,D22N08,2022-10-11_12h24.55.725,t1_Paradigm,2021.1.4,59.97373783084976,
N,left,Distractor,0,32,32,32,1900.9799906261615,1902.9804108766257,left,1,3,0.547397029818967,D22N08,2022-10-11_12h24.55.725,t1_Paradigm,2021.1.4,59.97373783084976,
F,left,Distractor,0,33,33,33,1904.48031126766,1906.4803972425289,left,1,3,0.5511494490783662,D22N08,2022-10-11_12h24.55.725,t1_Paradigm,2021.1.4,59.97373783084976,
B,right,Target,0,34,34,34,1907.980373663595,1909.9807797987596,right,1,3,0.6028909379383549,D22N08,2022-10-11_12h24.55.725,t1_Paradigm,2021.1.4,59.97373783084976,
Q,left,Pretarget,0,35,35,35,1911.4801508667297,1913.479999448231,left,1,3,0.46377296978607774,D22N08,2022-10-11_12h24.55.725,t1_Paradigm,2021.1.4,59.97373783084976,
S,left,Pretarget,0,36,36,36,1914.9803374129697,1916.9805918088532,left,1,3,0.4192068559350446,D22N08,2022-10-11_12h24.55.725,t1_Paradigm,2021.1.4,59.97373783084976,
W,left,Distractor,0,37,37,37,1918.4799862953369,1920.4812156080734,left,1,3,0.5343827403266914,D22N08,2022-10-11_12h24.55.725,t1_Paradigm,2021.1.4,59.97373783084976,
Q,right,Target,0,38,38,38,1921.980287047103,1923.9799691324588,right,1,3,0.37998273444827646,D22N08,2022-10-11_12h24.55.725,t1_Paradigm,2021.1.4,59.97373783084976,
S,right,Target,0,39,39,39,1925.4800203003688,1927.480747237336,right,1,3,0.4153136046952568,D22N08,2022-10-11_12h24.55.725,t1_Paradigm,2021.1.4,59.97373783084976,
T,left,Distractor,0,40,40,40,1928.9802459844504,1930.9800156487036,left,1,3,0.4836270755622536,D22N08,2022-10-11_12h24.55.725,t1_Paradigm,2021.1.4,59.97373783084976,
G,left,Distractor,0,41,41,41,1932.4803465558216,1934.4804960495094,left,1,3,0.37502185464836657,D22N08,2022-10-11_12h24.55.725,t1_Paradigm,2021.1.4,59.97373783084976,
D,left,Distractor,0,42,42,42,1935.9802244907478,1937.980019177543,left,1,3,0.5876586245140061,D22N08,2022-10-11_12h24.55.725,t1_Paradigm,2021.1.4,59.97373783084976,
S,left,Lure,0,43,43,43,1939.4802211223287,1941.4814985552803,left,1,3,1.1340861911303364,D22N08,2022-10-11_12h24.55.725,t1_Paradigm,2021.1.4,59.97373783084976,
Z,left,Pretarget,0,44,44,44,1942.9802158290986,1944.9810595379677,left,1,3,0.6586902494891547,D22N08,2022-10-11_12h24.55.725,t1_Paradigm,2021.1.4,59.97373783084976,
J,left,Distractor,0,45,45,45,1946.4800109970965,1948.48049252067,left,1,3,0.47107345750555396,D22N08,2022-10-11_12h24.55.725,t1_Paradigm,2021.1.4,59.97373783084976,
M,left,Pretarget,0,46,46,46,1949.9805016635219,1951.9801645007683,left,1,3,0.41139180201571435,D22N08,2022-10-11_12h24.55.725,t1_Paradigm,2021.1.4,59.97373783084976,
Z,right,Target,0,47,47,47,1953.4801803804585,1955.481110385037,right,1,3,0.9746601826045662,D22N08,2022-10-11_12h24.55.725,t1_Paradigm,2021.1.4,59.97373783084976,
P,left,Distractor,0,48,48,48,1956.9802931423183,1958.9810945053468,left,1,3,0.4987512787920423,D22N08,2022-10-11_12h24.55.725,t1_Paradigm,2021.1.4,59.97373783084976,
M,right,Target,0,49,49,49,1960.4802849618718,1962.4822039985447,right,1,3,0.5333837633952498,D22N08,2022-10-11_12h24.55.725,t1_Paradigm,2021.1.4,59.97373783084976,
K,left,Distractor,0,50,50,50,1963.9802408516407,1965.9801965809893,left,1,3,0.5234969711746089,D22N08,2022-10-11_12h24.55.725,t1_Paradigm,2021.1.4,59.97373783084976,
Y,left,Distractor,0,51,51,51,1967.4802272175439,1969.480092801561,left,1,3,0.8955969624803402,D22N08,2022-10-11_12h24.55.725,t1_Paradigm,2021.1.4,59.97373783084976,
X,left,Distractor,0,52,52,52,1970.980279027077,1972.981344089203,left,1,3,0.450245076615829,D22N08,2022-10-11_12h24.55.725,t1_Paradigm,2021.1.4,59.97373783084976,
F,left,Pretarget,0,53,53,53,1974.4803035684163,1976.4822556476574,left,1,3,0.6615072105196305,D22N08,2022-10-11_12h24.55.725,t1_Paradigm,2021.1.4,59.97373783084976,
M,left,Lure,0,54,54,54,1977.9800175735145,1979.9802447012626,left,1,3,0.5234430764103308,D22N08,2022-10-11_12h24.55.725,t1_Paradigm,2021.1.4,59.97373783084976,
V,left,Distractor,0,55,55,55,1981.4800818943186,1983.4805727211642,left,1,3,0.47922278696205467,D22N08,2022-10-11_12h24.55.725,t1_Paradigm,2021.1.4,59.97373783084976,
F,right,Target,0,56,56,56,1984.980273252644,1986.9810758988606,right,1,3,0.5466967194224708,D22N08,2022-10-11_12h24.55.725,t1_Paradigm,2021.1.4,59.97373783084976,
S,left,Distractor,0,57,57,57,1988.4799603103893,1990.4806157085695,left,1,3,1.2710101954289712,D22N08,2022-10-11_12h24.55.725,t1_Paradigm,2021.1.4,59.97373783084976,
D,left,Distractor,0,58,58,58,1991.9802530421293,1993.9807611922151,left,1,3,0.5868562990799546,D22N08,2022-10-11_12h24.55.725,t1_Paradigm,2021.1.4,59.97373783084976,
F,right,Target,0,59,59,59,1995.4804755182122,1997.4824423543178,right,1,3,1.4532070400891826,D22N08,2022-10-11_12h24.55.725,t1_Paradigm,2021.1.4,59.97373783084976,
V,left,Pretarget,0,60,60,60,1998.9803091824288,2000.9814634274808,left,1,3,0.7861249350244179,D22N08,2022-10-11_12h24.55.725,t1_Paradigm,2021.1.4,59.97373783084976,
J,left,Distractor,0,61,61,61,2002.4802268967615,2004.4821930913022,left,1,3,0.997728402086068,D22N08,2022-10-11_12h24.55.725,t1_Paradigm,2021.1.4,59.97373783084976,
V,left,Lure,0,62,62,62,2005.9803123904276,2007.9800326512195,right,0,3,0.5076265828101896,D22N08,2022-10-11_12h24.55.725,t1_Paradigm,2021.1.4,59.97373783084976,
V,right,Target,0,63,63,63,2009.480128731404,2011.480347518227,None,0,3,,D22N08,2022-10-11_12h24.55.725,t1_Paradigm,2021.1.4,59.97373783084976,
R,left,Distractor,0,0,0,0,2260.9045620910474,2262.8976427159505,left,1,4,0.5498210085788742,D22N08,2022-10-11_12h24.55.725,t1_Paradigm,2021.1.4,59.97373783084976,
F,left,Distractor,0,1,1,1,2264.3966191976215,2266.3969178641564,left,1,4,0.3791281182784587,D22N08,2022-10-11_12h24.55.725,t1_Paradigm,2021.1.4,59.97373783084976,
P,left,Pretarget,0,2,2,2,2267.896696992102,2269.89863784326,left,1,4,0.36476742348168045,D22N08,2022-10-11_12h24.55.725,t1_Paradigm,2021.1.4,59.97373783084976,
H,left,Distractor,0,3,3,3,2271.3966403705417,2273.3971222149557,left,1,4,0.338413872232195,D22N08,2022-10-11_12h24.55.725,t1_Paradigm,2021.1.4,59.97373783084976,
Z,left,Distractor,0,4,4,4,2274.896694425668,2276.8986019134754,left,1,4,0.5969698982080445,D22N08,2022-10-11_12h24.55.725,t1_Paradigm,2021.1.4,59.97373783084976,
T,left,Distractor,0,5,5,5,2278.396420621313,2280.397933202039,left,1,4,0.42538934922777116,D22N08,2022-10-11_12h24.55.725,t1_Paradigm,2021.1.4,59.97373783084976,
P,right,Target,0,6,6,6,2281.8969600495766,2283.8979631969705,right,1,4,0.41370606661075726,D22N08,2022-10-11_12h24.55.725,t1_Paradigm,2021.1.4,59.97373783084976,
G,left,Distractor,0,7,7,7,2285.39676516247,2287.3970038390253,left,1,4,0.46632976055843756,D22N08,2022-10-11_12h24.55.725,t1_Paradigm,2021.1.4,59.97373783084976,
L,left,Distractor,0,8,8,8,2288.896721373021,2290.8970585357747,left,1,4,0.7905013138661161,D22N08,2022-10-11_12h24.55.725,t1_Paradigm,2021.1.4,59.97373783084976,
P,left,Lure,0,9,9,9,2292.3963599897106,2294.3982244901126,left,1,4,0.7453381877276115,D22N08,2022-10-11_12h24.55.725,t1_Paradigm,2021.1.4,59.97373783084976,
Q,left,Pretarget,0,10,10,10,2295.8966084507992,2297.8978396882885,left,1,4,1.277647906448692,D22N08,2022-10-11_12h24.55.725,t1_Paradigm,2021.1.4,59.97373783084976,
D,left,Distractor,0,11,11,11,2299.39690439048,2301.3973573626718,left,1,4,0.7381580006913282,D22N08,2022-10-11_12h24.55.725,t1_Paradigm,2021.1.4,59.97373783084976,
M,left,Pretarget,0,12,12,12,2302.8969501047395,2304.897361372714,left,1,4,0.6782835433259606,D22N08,2022-10-11_12h24.55.725,t1_Paradigm,2021.1.4,59.97373783084976,
C,left,Distractor,0,13,13,13,2306.3966349169496,2308.397733663267,left,1,4,1.1298984437598847,D22N08,2022-10-11_12h24.55.725,t1_Paradigm,2021.1.4,59.97373783084976,
Q,right,Target,0,14,14,14,2309.896577653766,2311.8972147662425,None,0,4,,D22N08,2022-10-11_12h24.55.725,t1_Paradigm,2021.1.4,59.97373783084976,
R,left,Distractor,0,15,15,15,2313.396412601229,2315.397638385126,left,1,4,1.0899615006055683,D22N08,2022-10-11_12h24.55.725,t1_Paradigm,2021.1.4,59.97373783084976,
M,right,Target,0,16,16,16,2316.8967111073434,2318.897434194747,right,1,4,1.0621553585515358,D22N08,2022-10-11_12h24.55.725,t1_Paradigm,2021.1.4,59.97373783084976,
S,left,Distractor,0,17,17,17,2320.3966448617866,2322.3970740946825,left,1,4,0.5224453826667741,D22N08,2022-10-11_12h24.55.725,t1_Paradigm,2021.1.4,59.97373783084976,
Z,left,Distractor,0,18,18,18,2323.896632510936,2325.8964419545955,left,1,4,0.6869888223009184,D22N08,2022-10-11_12h24.55.725,t1_Paradigm,2021.1.4,59.97373783084976,
L,left,Pretarget,0,19,19,19,2327.3964167716913,2329.3965239194804,left,1,4,0.770893583947327,D22N08,2022-10-11_12h24.55.725,t1_Paradigm,2021.1.4,59.97373783084976,
M,right,Target,0,20,20,20,2330.896498094953,2332.8985987054766,right,1,4,0.4528095665737055,D22N08,2022-10-11_12h24.55.725,t1_Paradigm,2021.1.4,59.97373783084976,
P,left,Distractor,0,21,21,21,2334.3966198392445,2336.3963657642016,left,1,4,0.7633476827759296,D22N08,2022-10-11_12h24.55.725,t1_Paradigm,2021.1.4,59.97373783084976,
F,left,Distractor,0,22,22,22,2337.8968301248387,2339.8973126108176,left,1,4,0.6381290964200161,D22N08,2022-10-11_12h24.55.725,t1_Paradigm,2021.1.4,59.97373783084976,
L,right,Target,0,23,23,23,2341.3966217640555,2343.396527127479,right,1,4,0.48292163223959506,D22N08,2022-10-11_12h24.55.725,t1_Paradigm,2021.1.4,59.97373783084976,
L,left,Lure,0,24,24,24,2344.89697673131,2346.896339297993,left,1,4,0.40714342310093343,D22N08,2022-10-11_12h24.55.725,t1_Paradigm,2021.1.4,59.97373783084976,
V,left,Pretarget,0,25,25,25,2348.396686566004,2350.396406185231,left,1,4,0.6991093578399159,D22N08,2022-10-11_12h24.55.725,t1_Paradigm,2021.1.4,59.97373783084976,
Z,left,Distractor,0,26,26,26,2351.896503869386,2353.897004320228,left,1,4,0.5425237288582139,D22N08,2022-10-11_12h24.55.725,t1_Paradigm,2021.1.4,59.97373783084976,
H,left,Distractor,0,27,27,27,2355.39676002966,2357.3964982553152,left,1,4,0.5789886337006465,D22N08,2022-10-11_12h24.55.725,t1_Paradigm,2021.1.4,59.97373783084976,
X,left,Distractor,0,28,28,28,2358.896807347948,2360.8987918281928,left,1,4,0.48459397233091295,D22N08,2022-10-11_12h24.55.725,t1_Paradigm,2021.1.4,59.97373783084976,
V,right,Target,0,29,29,29,2362.3961495437543,2364.397294485534,right,1,4,0.7784102920559235,D22N08,2022-10-11_12h24.55.725,t1_Paradigm,2021.1.4,59.97373783084976,
C,left,Distractor,0,30,30,30,2365.89656963374,2367.8978974326164,left,1,4,0.765577255631797,D22N08,2022-10-11_12h24.55.725,t1_Paradigm,2021.1.4,59.97373783084976,
S,left,Pretarget,0,31,31,31,2369.3965502252104,2371.3968254732317,left,1,4,0.5149026895524003,D22N08,2022-10-11_12h24.55.725,t1_Paradigm,2021.1.4,59.97373783084976,
D,left,Distractor,0,32,32,32,2372.8966703655315,2374.8968333328958,left,1,4,0.5505463416338898,D22N08,2022-10-11_12h24.55.725,t1_Paradigm,2021.1.4,59.97373783084976,
V,left,Distractor,0,33,33,33,2376.3965790973743,2378.397519688413,right,0,4,0.45775889756623656,D22N08,2022-10-11_12h24.55.725,t1_Paradigm,2021.1.4,59.97373783084976,
R,left,Distractor,0,34,34,34,2379.896897172439,2381.8969170621713,left,1,4,0.7027151706279255,D22N08,2022-10-11_12h24.55.725,t1_Paradigm,2021.1.4,59.97373783084976,
S,right,Target,0,35,35,35,2383.3965697941603,2385.3979591869866,right,1,4,0.48138755781110376,D22N08,2022-10-11_12h24.55.725,t1_Paradigm,2021.1.4,59.97373783084976,
Y,left,Distractor,0,36,36,36,2386.8968586762203,2388.8968692626804,left,1,4,0.4544578464701772,D22N08,2022-10-11_12h24.55.725,t1_Paradigm,2021.1.4,59.97373783084976,
N,left,Pretarget,0,37,37,37,2390.3967526511988,2392.396530335536,left,1,4,0.7150795155321248,D22N08,2022-10-11_12h24.55.725,t1_Paradigm,2021.1.4,59.97373783084976,
Z,left,Pretarget,0,38,38,38,2393.896415328083,2395.896379719081,left,1,4,0.7349458117387258,D22N08,2022-10-11_12h24.55.725,t1_Paradigm,2021.1.4,59.97373783084976,
P,left,Pretarget,0,39,39,39,2397.3964921601,2399.397025974409,left,1,4,0.7863719523884356,D22N08,2022-10-11_12h24.55.725,t1_Paradigm,2021.1.4,59.97373783084976,
M,left,Distractor,0,40,40,40,2400.896681272774,2402.8967117489665,left,1,4,1.1110632047057152,D22N08,2022-10-11_12h24.55.725,t1_Paradigm,2021.1.4,59.97373783084976,
N,right,Target,0,41,41,41,2404.3965588868596,2406.3966204808676,right,1,4,0.8428366069565527,D22N08,2022-10-11_12h24.55.725,t1_Paradigm,2021.1.4,59.97373783084976,
Z,right,Target,0,42,42,42,2407.8965628969017,2409.896924761415,left,0,4,1.0544695878052153,D22N08,2022-10-11_12h24.55.725,t1_Paradigm,2021.1.4,59.97373783084976,
P,right,Target,0,43,43,43,2411.3964411526104,2413.3964562303154,right,1,4,1.2349000974791124,D22N08,2022-10-11_12h24.55.725,t1_Paradigm,2021.1.4,59.97373783084976,
X,left,Pretarget,0,44,44,44,2414.8965763705783,2416.896914174955,left,1,4,0.4864719464094378,D22N08,2022-10-11_12h24.55.725,t1_Paradigm,2021.1.4,59.97373783084976,
Z,left,Lure,0,45,45,45,2418.396437623771,2420.3982966705225,right,0,4,1.1133030432392843,D22N08,2022-10-11_12h24.55.725,t1_Paradigm,2021.1.4,59.97373783084976,
R,left,Pretarget,0,46,46,46,2421.896570916928,2423.8978743348853,left,1,4,0.6055892023141496,D22N08,2022-10-11_12h24.55.725,t1_Paradigm,2021.1.4,59.97373783084976,
K,left,Distractor,0,47,47,47,2425.3965720397537,2427.3983322795248,left,1,4,0.5133506502024829,D22N08,2022-10-11_12h24.55.725,t1_Paradigm,2021.1.4,59.97373783084976,
X,right,Target,0,48,48,48,2428.8963662454044,2430.8979224551586,right,1,4,0.7096845908090472,D22N08,2022-10-11_12h24.55.725,t1_Paradigm,2021.1.4,59.97373783084976,
B,left,Distractor,0,49,49,49,2432.3967542552273,2434.398071146803,left,1,4,0.48907108296407387,D22N08,2022-10-11_12h24.55.725,t1_Paradigm,2021.1.4,59.97373783084976,
R,right,Target,0,50,50,50,2435.8968589970027,2437.897671267332,right,1,4,0.6697537428699434,D22N08,2022-10-11_12h24.55.725,t1_Paradigm,2021.1.4,59.97373783084976,
Y,left,Pretarget,0,51,51,51,2439.396612781624,2441.3968838591827,left,1,4,0.7385371885029599,D22N08,2022-10-11_12h24.55.725,t1_Paradigm,2021.1.4,59.97373783084976,
W,left,Pretarget,0,52,52,52,2442.8965468567912,2444.89750862075,left,1,4,0.7259681719588116,D22N08,2022-10-11_12h24.55.725,t1_Paradigm,2021.1.4,59.97373783084976,
Z,left,Distractor,0,53,53,53,2446.3967176838196,2448.3982434173813,right,0,4,0.745352944592014,D22N08,2022-10-11_12h24.55.725,t1_Paradigm,2021.1.4,59.97373783084976,
Q,left,Distractor,0,54,54,54,2449.8970335132326,2451.897440931585,left,1,4,0.8938347979565151,D22N08,2022-10-11_12h24.55.725,t1_Paradigm,2021.1.4,59.97373783084976,
Y,right,Target,0,55,55,55,2453.3967096637352,2455.3975087811705,left,0,4,0.7379206073237583,D22N08,2022-10-11_12h24.55.725,t1_Paradigm,2021.1.4,59.97373783084976,
W,right,Target,0,56,56,56,2456.8968291624333,2458.8983998083277,right,1,4,0.4529465489904396,D22N08,2022-10-11_12h24.55.725,t1_Paradigm,2021.1.4,59.97373783084976,
H,left,Pretarget,0,57,57,57,2460.396634596109,2462.3969521899708,left,1,4,0.5384219564730301,D22N08,2022-10-11_12h24.55.725,t1_Paradigm,2021.1.4,59.97373783084976,
M,left,Distractor,0,58,58,58,2463.896593052312,2465.8978329514503,left,1,4,0.8617751441779546,D22N08,2022-10-11_12h24.55.725,t1_Paradigm,2021.1.4,59.97373783084976,
R,left,Pretarget,0,59,59,59,2467.396772540931,2469.397548560577,left,1,4,0.6899469361524098,D22N08,2022-10-11_12h24.55.725,t1_Paradigm,2021.1.4,59.97373783084976,
J,left,Distractor,0,60,60,60,2470.8968339744606,2472.895910385938,left,1,4,0.6954060212592594,D22N08,2022-10-11_12h24.55.725,t1_Paradigm,2021.1.4,59.97373783084976,
H,right,Target,0,61,61,61,2474.396851137397,2476.398795196612,right,1,4,0.4403740036068484,D22N08,2022-10-11_12h24.55.725,t1_Paradigm,2021.1.4,59.97373783084976,
Z,left,Distractor,0,62,62,62,2477.8964631275157,2479.8980472470867,left,1,4,0.5253768700058572,D22N08,2022-10-11_12h24.55.725,t1_Paradigm,2021.1.4,59.97373783084976,
R,right,Target,0,63,63,63,2481.3962704860023,2483.3972434780444,right,1,4,0.4339239615947008,D22N08,2022-10-11_12h24.55.725,t1_Paradigm,2021.1.4,59.97373783084976,
J,left,Pretarget,0,0,0,0,2539.857458113751,2541.8631337400875,left,1,4,0.30416185868671164,D22N08,2022-10-11_12h24.55.725,t1_Paradigm,2021.1.4,59.97373783084976,
G,left,Pretarget,0,1,1,1,2543.3630492087686,2545.363828115689,left,1,4,0.2438520731520839,D22N08,2022-10-11_12h24.55.725,t1_Paradigm,2021.1.4,59.97373783084976,
Z,left,Distractor,0,2,2,2,2546.863402571995,2548.8640858799336,left,1,4,0.3271867699222639,D22N08,2022-10-11_12h24.55.725,t1_Paradigm,2021.1.4,59.97373783084976,
F,left,Distractor,0,3,3,3,2550.363395353954,2552.363566020562,left,1,4,0.28373383841244504,D22N08,2022-10-11_12h24.55.725,t1_Paradigm,2021.1.4,59.97373783084976,
J,right,Target,0,4,4,4,2553.8633897399413,2555.863457749947,right,1,4,0.38375728903338313,D22N08,2022-10-11_12h24.55.725,t1_Paradigm,2021.1.4,59.97373783084976,
G,right,Target,0,5,5,5,2557.3630084669567,2559.3635612085345,right,1,4,0.5963196328375489,D22N08,2022-10-11_12h24.55.725,t1_Paradigm,2021.1.4,59.97373783084976,
H,left,Distractor,0,6,6,6,2560.8631895596045,2562.862893780286,left,1,4,0.45648820139467716,D22N08,2022-10-11_12h24.55.725,t1_Paradigm,2021.1.4,59.97373783084976,
P,left,Distractor,0,7,7,7,2564.363124918018,2566.364168807224,left,1,4,0.6993618288543075,D22N08,2022-10-11_12h24.55.725,t1_Paradigm,2021.1.4,59.97373783084976,
G,left,Lure,0,8,8,8,2567.863239283848,2569.8648448971217,left,1,4,1.0062941323267296,D22N08,2022-10-11_12h24.55.725,t1_Paradigm,2021.1.4,59.97373783084976,
S,left,Distractor,0,9,9,9,2571.3634822912863,2573.3649188419804,left,1,4,0.7704447821015492,D22N08,2022-10-11_12h24.55.725,t1_Paradigm,2021.1.4,59.97373783084976,
R,left,Pretarget,0,10,10,10,2574.8633714542375,2576.8649109823164,left,1,4,0.5184507580124773,D22N08,2022-10-11_12h24.55.725,t1_Paradigm,2021.1.4,59.97373783084976,
T,left,Pretarget,0,11,11,11,2578.363099253853,2580.36452746368,left,1,4,0.4267335089389235,D22N08,2022-10-11_12h24.55.725,t1_Paradigm,2021.1.4,59.97373783084976,
X,left,Distractor,0,12,12,12,2581.863001569698,2583.8633621509653,left,1,4,0.5279073549900204,D22N08,2022-10-11_12h24.55.725,t1_Paradigm,2021.1.4,59.97373783084976,
F,left,Pretarget,0,13,13,13,2585.3632025520783,2587.363600987941,left,1,4,0.6598656674614176,D22N08,2022-10-11_12h24.55.725,t1_Paradigm,2021.1.4,59.97373783084976,
R,right,Target,0,14,14,14,2588.8632216397673,2590.863432727405,right,1,4,0.6000649944762699,D22N08,2022-10-11_12h24.55.725,t1_Paradigm,2021.1.4,59.97373783084976,
T,right,Target,0,15,15,15,2592.3632131385384,2594.362850632402,right,1,4,0.444609229627531,D22N08,2022-10-11_12h24.55.725,t1_Paradigm,2021.1.4,59.97373783084976,
C,left,Distractor,0,16,16,16,2595.8629197652335,2597.862814863038,left,1,4,0.5128338384674862,D22N08,2022-10-11_12h24.55.725,t1_Paradigm,2021.1.4,59.97373783084976,
F,right,Target,0,17,17,17,2599.362902923138,2601.3625750636565,right,1,4,0.5329051270382479,D22N08,2022-10-11_12h24.55.725,t1_Paradigm,2021.1.4,59.97373783084976,
M,left,Distractor,0,18,18,18,2602.8629836047767,2604.8631619706284,left,1,4,0.50416577240685,D22N08,2022-10-11_12h24.55.725,t1_Paradigm,2021.1.4,59.97373783084976,
N,left,Distractor,0,19,19,19,2606.363190682372,2608.3648068821058,left,1,4,0.49039856099989265,D22N08,2022-10-11_12h24.55.725,t1_Paradigm,2021.1.4,59.97373783084976,
R,left,Lure,0,20,20,20,2609.8628796649864,2611.863484055677,left,1,4,0.6558970276964828,D22N08,2022-10-11_12h24.55.725,t1_Paradigm,2021.1.4,59.97373783084976,
F,right,Target,0,21,21,21,2613.363008787739,2615.3634607975255,right,1,4,0.7559657114325091,D22N08,2022-10-11_12h24.55.725,t1_Paradigm,2021.1.4,59.97373783084976,
P,left,Distractor,0,22,22,22,2616.8633242963697,2618.863419895293,left,1,4,0.6959927678690292,D22N08,2022-10-11_12h24.55.725,t1_Paradigm,2021.1.4,59.97373783084976,
L,left,Pretarget,0,23,23,23,2620.363356536953,2622.3648216390284,left,1,4,0.6824536464991979,D22N08,2022-10-11_12h24.55.725,t1_Paradigm,2021.1.4,59.97373783084976,
T,left,Distractor,0,24,24,24,2623.8631167375715,2625.8629361261264,left,1,4,0.8485677319695242,D22N08,2022-10-11_12h24.55.725,t1_Paradigm,2021.1.4,59.97373783084976,
F,left,Distractor,0,25,25,25,2627.3629163968144,2629.3629500810057,right,0,4,0.9003342434298247,D22N08,2022-10-11_12h24.55.725,t1_Paradigm,2021.1.4,59.97373783084976,
V,left,Distractor,0,26,26,26,2630.863181860361,2632.863490792515,left,1,4,0.5999225584091619,D22N08,2022-10-11_12h24.55.725,t1_Paradigm,2021.1.4,59.97373783084976,
L,right,Target,0,27,27,27,2634.3629632339,2636.3650580699905,right,1,4,0.7144735208712518,D22N08,2022-10-11_12h24.55.725,t1_Paradigm,2021.1.4,59.97373783084976,
S,left,Pretarget,0,28,28,28,2637.862997078453,2639.8645013183705,left,1,4,0.8470224295160733,D22N08,2022-10-11_12h24.55.725,t1_Paradigm,2021.1.4,59.97373783084976,
W,left,Distractor,0,29,29,29,2641.363168867887,2643.3632381610805,left,1,4,0.4999898947426118,D22N08,2022-10-11_12h24.55.725,t1_Paradigm,2021.1.4,59.97373783084976,
Q,left,Distractor,0,30,30,30,2644.8632665520418,2646.8631786523038,left,1,4,0.5201506870798767,D22N08,2022-10-11_12h24.55.725,t1_Paradigm,2021.1.4,59.97373783084976,
L,right,Target,0,31,31,31,2648.362877900596,2650.363397920388,right,1,4,0.47569621220463887,D22N08,2022-10-11_12h24.55.725,t1_Paradigm,2021.1.4,59.97373783084976,
S,right,Target,0,32,32,32,2651.863332316396,2653.8635093990597,right,1,4,0.43184965680120513,D22N08,2022-10-11_12h24.55.725,t1_Paradigm,2021.1.4,59.97373783084976,
Z,left,Pretarget,0,33,33,33,2655.3628493492142,2657.376190856565,left,1,4,0.6149643156095408,D22N08,2022-10-11_12h24.55.725,t1_Paradigm,2021.1.4,59.97373783084976,
F,left,Distractor,0,34,34,34,2658.862956336641,2660.8639623712515,left,1,4,0.8393931199098006,D22N08,2022-10-11_12h24.55.725,t1_Paradigm,2021.1.4,59.97373783084976,
V,left,Distractor,0,35,35,35,2662.362729690154,2664.3628278555116,left,1,4,0.5247057525557466,D22N08,2022-10-11_12h24.55.725,t1_Paradigm,2021.1.4,59.97373783084976,
M,left,Distractor,0,36,36,36,2665.863436897809,2667.864025248389,left,1,4,0.6073356476263143,D22N08,2022-10-11_12h24.55.725,t1_Paradigm,2021.1.4,59.97373783084976,
Z,right,Target,0,37,37,37,2669.3629702915205,2671.3639307722333,left,0,4,0.8832980611477979,D22N08,2022-10-11_12h24.55.725,t1_Paradigm,2021.1.4,59.97373783084976,
H,left,Pretarget,0,38,38,38,2672.8630897902185,2674.8633005570155,left,1,4,0.7279305168776773,D22N08,2022-10-11_12h24.55.725,t1_Paradigm,2021.1.4,59.97373783084976,
L,left,Distractor,0,39,39,39,2676.363068456878,2678.364894461003,left,1,4,0.49020511750131845,D22N08,2022-10-11_12h24.55.725,t1_Paradigm,2021.1.4,59.97373783084976,
G,left,Distractor,0,40,40,40,2679.8629649982904,2681.8634744316223,left,1,4,0.57591984316241,D22N08,2022-10-11_12h24.55.725,t1_Paradigm,2021.1.4,59.97373783084976,
K,left,Distractor,0,41,41,41,2683.363234632241,2685.3633234943845,left,1,4,0.56417689146474,D22N08,2022-10-11_12h24.55.725,t1_Paradigm,2021.1.4,59.97373783084976,
H,right,Target,0,42,42,42,2686.863048727566,2688.863429519348,right,1,4,0.8078971150098369,D22N08,2022-10-11_12h24.55.725,t1_Paradigm,2021.1.4,59.97373783084976,
B,left,Distractor,0,43,43,43,2690.3628692389466,2692.36319581524,left,1,4,0.5238723093643785,D22N08,2022-10-11_12h24.55.725,t1_Paradigm,2021.1.4,59.97373783084976,
Z,left,Distractor,0,44,44,44,2693.8632992738276,2695.863226772577,left,1,4,0.4642188844154589,D22N08,2022-10-11_12h24.55.725,t1_Paradigm,2021.1.4,59.97373783084976,
T,left,Pretarget,0,45,45,45,2697.3630379806855,2699.3642769174767,left,1,4,0.46687736932653934,D22N08,2022-10-11_12h24.55.725,t1_Paradigm,2021.1.4,59.97373783084976,
H,right,Target,0,46,46,46,2700.862982321589,2702.863482772489,right,1,4,0.39188191667199135,D22N08,2022-10-11_12h24.55.725,t1_Paradigm,2021.1.4,59.97373783084976,
F,left,Distractor,0,47,47,47,2704.3633581409813,2706.3650365762296,left,1,4,1.0022635778295808,D22N08,2022-10-11_12h24.55.725,t1_Paradigm,2021.1.4,59.97373783084976,
R,left,Distractor,0,48,48,48,2707.863210411684,2709.864338351006,left,1,4,0.7349381124950014,D22N08,2022-10-11_12h24.55.725,t1_Paradigm,2021.1.4,59.97373783084976,
T,right,Target,0,49,49,49,2711.3631300508277,2713.3637662008987,right,1,4,1.0274263126193546,D22N08,2022-10-11_12h24.55.725,t1_Paradigm,2021.1.4,59.97373783084976,
H,right,Target,0,50,50,50,2714.862923935638,2716.863763794885,right,1,4,1.095560455287341,D22N08,2022-10-11_12h24.55.725,t1_Paradigm,2021.1.4,59.97373783084976,
Y,left,Pretarget,0,51,51,51,2718.363177529536,2720.36391280737,left,1,4,0.5391399109503254,D22N08,2022-10-11_12h24.55.725,t1_Paradigm,2021.1.4,59.97373783084976,
H,left,Distractor,0,52,52,52,2721.8628212790354,2723.8632277349825,left,1,4,0.6082624441478401,D22N08,2022-10-11_12h24.55.725,t1_Paradigm,2021.1.4,59.97373783084976,
S,left,Distractor,0,53,53,53,2725.363122993207,2727.3640914940042,left,1,4,0.46706022636499256,D22N08,2022-10-11_12h24.55.725,t1_Paradigm,2021.1.4,59.97373783084976,
Q,left,Distractor,0,54,54,54,2728.8629807175603,2730.8638455993496,left,1,4,0.4714417380746454,D22N08,2022-10-11_12h24.55.725,t1_Paradigm,2021.1.4,59.97373783084976,
Y,right,Target,0,55,55,55,2732.3630716648768,2734.3628397251596,right,1,4,0.6044824359123595,D22N08,2022-10-11_12h24.55.725,t1_Paradigm,2021.1.4,59.97373783084976,
R,left,Distractor,0,56,56,56,2735.8629698103177,2737.8634173289174,left,1,4,0.9439273653551936,D22N08,2022-10-11_12h24.55.725,t1_Paradigm,2021.1.4,59.97373783084976,
H,left,Pretarget,0,57,57,57,2739.362916717597,2741.3630864217994,right,0,4,0.9000817723572254,D22N08,2022-10-11_12h24.55.725,t1_Paradigm,2021.1.4,59.97373783084976,
J,left,Distractor,0,58,58,58,2742.86275872268,2744.863294141018,left,1,4,0.5519306015921757,D22N08,2022-10-11_12h24.55.725,t1_Paradigm,2021.1.4,59.97373783084976,
V,left,Distractor,0,59,59,59,2746.3630392639316,2748.363472988014,left,1,4,0.5877625643042848,D22N08,2022-10-11_12h24.55.725,t1_Paradigm,2021.1.4,59.97373783084976,
Y,left,Lure,0,60,60,60,2749.8630477651604,2751.863191805198,left,1,4,0.8482539878459647,D22N08,2022-10-11_12h24.55.725,t1_Paradigm,2021.1.4,59.97373783084976,
H,right,Target,0,61,61,61,2753.363111765124,2755.3631900408072,right,1,4,0.9801754080108367,D22N08,2022-10-11_12h24.55.725,t1_Paradigm,2021.1.4,59.97373783084976,
L,left,Distractor,0,62,62,62,2756.8630522564054,2758.862924577261,left,1,4,0.6644698155578226,D22N08,2022-10-11_12h24.55.725,t1_Paradigm,2021.1.4,59.97373783084976,
P,left,Distractor,0,63,63,63,2760.363251634757,2762.363468175987,left,1,4,0.5717564767692238,D22N08,2022-10-11_12h24.55.725,t1_Paradigm,2021.1.4,59.97373783084976,
