Letter,CorrAnswer,Stimulus,nback_run.thisRepN,nback_run.thisTrialN,nback_run.thisN,nback_run.thisIndex,fixcross.started,nback_trial.started,trial_resp.keys,trial_resp.corr,currentlevel,trial_resp.rt,Participant,date,expName,psychopyVersion,frameRate,
H,left,Distractor,0,0,0,0,199.78538489053608,201.7323418404776,None,0,1,,D24A05,2022-11-29_09h19.08.590,t1_Paradigm,2021.1.4,60.002637110659876,
Q,left,Pretarget,0,1,1,1,203.231753970329,205.23322837752494,left,1,1,1.0446787726759794,D24A05,2022-11-29_09h19.08.590,t1_Paradigm,2021.1.4,60.002637110659876,
Q,right,Target,0,2,2,2,206.7292098479884,208.72920856477867,None,0,1,,D24A05,2022-11-29_09h19.08.590,t1_Paradigm,2021.1.4,60.002637110659876,
T,left,Distractor,0,3,3,3,210.22902522628283,212.23167826099234,left,1,1,0.7819818201387534,D24A05,2022-11-29_09h19.08.590,t1_Paradigm,2021.1.4,60.002637110659876,
Q,left,Lure,0,4,4,4,213.72917135171883,215.73069804967963,None,0,1,,D24A05,2022-11-29_09h19.08.590,t1_Paradigm,2021.1.4,60.002637110659876,
L,left,Distractor,0,5,5,5,217.2293068906729,219.23167665698566,left,1,1,0.7900596211038646,D24A05,2022-11-29_09h19.08.590,t1_Paradigm,2021.1.4,60.002637110659876,
V,left,Pretarget,0,6,6,6,220.729287482136,222.73270915906323,None,0,1,,D24A05,2022-11-29_09h19.08.590,t1_Paradigm,2021.1.4,60.002637110659876,
V,right,Target,0,7,7,7,224.22930175783404,226.22939575289638,right,1,1,0.6243469668988837,D24A05,2022-11-29_09h19.08.590,t1_Paradigm,2021.1.4,60.002637110659876,
K,left,Distractor,0,8,8,8,227.7293288656292,229.7331890792484,None,0,1,,D24A05,2022-11-29_09h19.08.590,t1_Paradigm,2021.1.4,60.002637110659876,
G,left,Pretarget,0,9,9,9,231.22925524150924,233.231851173412,left,1,1,0.6140395902039018,D24A05,2022-11-29_09h19.08.590,t1_Paradigm,2021.1.4,60.002637110659876,
G,right,Target,0,10,10,10,234.72929806861066,236.72932052476972,None,0,1,,D24A05,2022-11-29_09h19.08.590,t1_Paradigm,2021.1.4,60.002637110659876,
G,right,Target,0,11,11,11,238.22921449961723,240.22950931690139,right,1,1,0.656157398421783,D24A05,2022-11-29_09h19.08.590,t1_Paradigm,2021.1.4,60.002637110659876,
P,left,Pretarget,0,12,12,12,241.72929133176513,243.73191998549737,None,0,1,,D24A05,2022-11-29_09h19.08.590,t1_Paradigm,2021.1.4,60.002637110659876,
P,right,Target,0,13,13,13,245.2292401638042,247.2293123443087,right,1,1,0.4405901478457963,D24A05,2022-11-29_09h19.08.590,t1_Paradigm,2021.1.4,60.002637110659876,
G,left,Lure,0,14,14,14,248.729246419447,250.7309229320672,None,0,1,,D24A05,2022-11-29_09h19.08.590,t1_Paradigm,2021.1.4,60.002637110659876,
Y,left,Distractor,0,15,15,15,252.22933897090115,254.2327981816925,left,1,1,0.557072486873949,D24A05,2022-11-29_09h19.08.590,t1_Paradigm,2021.1.4,60.002637110659876,
B,left,Distractor,0,16,16,16,255.7292380785875,257.73192928876233,None,0,1,,D24A05,2022-11-29_09h19.08.590,t1_Paradigm,2021.1.4,60.002637110659876,
T,left,Pretarget,0,17,17,17,259.2292465798455,261.2311046665491,left,1,1,0.678766900266055,D24A05,2022-11-29_09h19.08.590,t1_Paradigm,2021.1.4,60.002637110659876,
T,right,Target,0,18,18,18,262.7292749708504,264.72937089072366,None,0,1,,D24A05,2022-11-29_09h19.08.590,t1_Paradigm,2021.1.4,60.002637110659876,
S,left,Distractor,0,19,19,19,266.22938773284113,268.23248443708144,left,1,1,0.4774484029694577,D24A05,2022-11-29_09h19.08.590,t1_Paradigm,2021.1.4,60.002637110659876,
T,left,Lure,0,20,20,20,269.72925796832715,271.73145225580083,None,0,1,,D24A05,2022-11-29_09h19.08.590,t1_Paradigm,2021.1.4,60.002637110659876,
J,left,Distractor,0,21,21,21,273.22924208861514,275.23291976575274,left,1,1,0.4528223380984855,D24A05,2022-11-29_09h19.08.590,t1_Paradigm,2021.1.4,60.002637110659876,
P,left,Distractor,0,22,22,22,276.72915884042595,278.7308789821618,None,0,1,,D24A05,2022-11-29_09h19.08.590,t1_Paradigm,2021.1.4,60.002637110659876,
F,left,Distractor,0,23,23,23,280.2292674319906,282.2321042863987,left,1,1,0.7977354568356532,D24A05,2022-11-29_09h19.08.590,t1_Paradigm,2021.1.4,60.002637110659876,
L,left,Distractor,0,24,24,24,283.72934266012453,285.7311571177197,None,0,1,,D24A05,2022-11-29_09h19.08.590,t1_Paradigm,2021.1.4,60.002637110659876,
W,left,Pretarget,0,25,25,25,287.229424625104,289.232410652563,left,1,1,0.5173424098975374,D24A05,2022-11-29_09h19.08.590,t1_Paradigm,2021.1.4,60.002637110659876,
W,right,Target,0,26,26,26,290.72925026907615,292.72936832430423,None,0,1,,D24A05,2022-11-29_09h19.08.590,t1_Paradigm,2021.1.4,60.002637110659876,
V,left,Distractor,0,27,27,27,294.22934025411087,296.2310103506825,left,1,1,0.6068189728903235,D24A05,2022-11-29_09h19.08.590,t1_Paradigm,2021.1.4,60.002637110659876,
W,left,Lure,0,28,28,28,297.72937923158315,299.73135280710267,None,0,1,,D24A05,2022-11-29_09h19.08.590,t1_Paradigm,2021.1.4,60.002637110659876,
R,left,Pretarget,0,29,29,29,301.2284304588902,303.23290308403375,left,1,1,0.5969267143300385,D24A05,2022-11-29_09h19.08.590,t1_Paradigm,2021.1.4,60.002637110659876,
R,right,Target,0,30,30,30,304.7293609458502,306.72937570275826,None,0,1,,D24A05,2022-11-29_09h19.08.590,t1_Paradigm,2021.1.4,60.002637110659876,
G,left,Distractor,0,31,31,31,308.22926294076024,310.2311280851136,left,1,1,0.430738631170243,D24A05,2022-11-29_09h19.08.590,t1_Paradigm,2021.1.4,60.002637110659876,
R,left,Lure,0,32,32,32,311.72942767272616,313.73104451612744,None,0,1,,D24A05,2022-11-29_09h19.08.590,t1_Paradigm,2021.1.4,60.002637110659876,
S,left,Distractor,0,33,33,33,315.2293142691269,317.23137574446446,left,1,1,0.3904933457597508,D24A05,2022-11-29_09h19.08.590,t1_Paradigm,2021.1.4,60.002637110659876,
R,left,Lure,0,34,34,34,318.72934811376035,320.7311814986897,None,0,1,,D24A05,2022-11-29_09h19.08.590,t1_Paradigm,2021.1.4,60.002637110659876,
P,left,Pretarget,0,35,35,35,322.2284949401437,324.23095228547754,left,1,1,0.5267515402520075,D24A05,2022-11-29_09h19.08.590,t1_Paradigm,2021.1.4,60.002637110659876,
P,right,Target,0,36,36,36,325.72940714137803,327.7295486151779,None,0,1,,D24A05,2022-11-29_09h19.08.590,t1_Paradigm,2021.1.4,60.002637110659876,
Y,left,Pretarget,0,37,37,37,329.2292963041982,331.2311794134803,left,1,1,0.4066961056232685,D24A05,2022-11-29_09h19.08.590,t1_Paradigm,2021.1.4,60.002637110659876,
Y,right,Target,0,38,38,38,332.72953385826986,334.7294655273945,None,0,1,,D24A05,2022-11-29_09h19.08.590,t1_Paradigm,2021.1.4,60.002637110659876,
J,left,Distractor,0,39,39,39,336.22932453479734,338.23148898765794,left,1,1,0.6383506272468367,D24A05,2022-11-29_09h19.08.590,t1_Paradigm,2021.1.4,60.002637110659876,
Y,left,Lure,0,40,40,40,339.7293914220718,341.73100377423543,None,0,1,,D24A05,2022-11-29_09h19.08.590,t1_Paradigm,2021.1.4,60.002637110659876,
T,left,Distractor,0,41,41,41,343.22938131679985,345.2316224414026,left,1,1,0.3742771122051636,D24A05,2022-11-29_09h19.08.590,t1_Paradigm,2021.1.4,60.002637110659876,
V,left,Distractor,0,42,42,42,346.72929678540095,348.7313524862984,None,0,1,,D24A05,2022-11-29_09h19.08.590,t1_Paradigm,2021.1.4,60.002637110659876,
N,left,Pretarget,0,43,43,43,350.22932934683195,352.2326429133973,left,1,1,0.525077594043978,D24A05,2022-11-29_09h19.08.590,t1_Paradigm,2021.1.4,60.002637110659876,
N,right,Target,0,44,44,44,353.7292900485554,355.72944788327004,None,0,1,,D24A05,2022-11-29_09h19.08.590,t1_Paradigm,2021.1.4,60.002637110659876,
N,right,Target,0,45,45,45,357.2294544597098,359.2293623894657,right,1,1,0.6327635350462515,D24A05,2022-11-29_09h19.08.590,t1_Paradigm,2021.1.4,60.002637110659876,
X,left,Distractor,0,46,46,46,360.72939398848393,362.73423489462584,None,0,1,,D24A05,2022-11-29_09h19.08.590,t1_Paradigm,2021.1.4,60.002637110659876,
Z,left,Distractor,0,47,47,47,364.2293364044817,366.2320112537418,left,1,1,0.47803290469164494,D24A05,2022-11-29_09h19.08.590,t1_Paradigm,2021.1.4,60.002637110659876,
H,left,Pretarget,0,48,48,48,367.72937506114977,369.73132393489504,None,0,1,,D24A05,2022-11-29_09h19.08.590,t1_Paradigm,2021.1.4,60.002637110659876,
H,right,Target,0,49,49,49,371.22930368265224,373.22928154729016,right,1,1,0.648687517750659,D24A05,2022-11-29_09h19.08.590,t1_Paradigm,2021.1.4,60.002637110659876,
K,left,Distractor,0,50,50,50,374.72939719651185,376.7315632533864,None,0,1,,D24A05,2022-11-29_09h19.08.590,t1_Paradigm,2021.1.4,60.002637110659876,
V,left,Pretarget,0,51,51,51,378.22946376298205,380.231098892109,left,1,1,1.0547192418816849,D24A05,2022-11-29_09h19.08.590,t1_Paradigm,2021.1.4,60.002637110659876,
V,right,Target,0,52,52,52,381.7285489953283,383.7294074621823,None,0,1,,D24A05,2022-11-29_09h19.08.590,t1_Paradigm,2021.1.4,60.002637110659876,
R,left,Distractor,0,53,53,53,385.2295898382654,387.2312859198282,left,1,1,0.5664841836478445,D24A05,2022-11-29_09h19.08.590,t1_Paradigm,2021.1.4,60.002637110659876,
V,left,Lure,0,54,54,54,388.7293490761731,390.73133291736303,None,0,1,,D24A05,2022-11-29_09h19.08.590,t1_Paradigm,2021.1.4,60.002637110659876,
Y,left,Distractor,0,55,55,55,392.22944355243817,394.2460623928346,left,1,1,0.49626794688083464,D24A05,2022-11-29_09h19.08.590,t1_Paradigm,2021.1.4,60.002637110659876,
Q,left,Distractor,0,56,56,56,395.7284992709756,397.73083246582974,None,0,1,,D24A05,2022-11-29_09h19.08.590,t1_Paradigm,2021.1.4,60.002637110659876,
Z,left,Pretarget,0,57,57,57,399.2294024897492,401.23175300792354,left,1,1,0.5661717222465086,D24A05,2022-11-29_09h19.08.590,t1_Paradigm,2021.1.4,60.002637110659876,
Z,right,Target,0,58,58,58,402.729416444643,404.7293686451085,None,0,1,,D24A05,2022-11-29_09h19.08.590,t1_Paradigm,2021.1.4,60.002637110659876,
B,left,Distractor,0,59,59,59,406.2294185298597,408.2307598041152,left,1,1,0.38296507907216437,D24A05,2022-11-29_09h19.08.590,t1_Paradigm,2021.1.4,60.002637110659876,
S,left,Pretarget,0,60,60,60,409.7292900485554,411.73116032574035,None,0,1,,D24A05,2022-11-29_09h19.08.590,t1_Paradigm,2021.1.4,60.002637110659876,
S,right,Target,0,61,61,61,413.22933544207626,415.22948269030894,right,1,1,0.47240699541725917,D24A05,2022-11-29_09h19.08.590,t1_Paradigm,2021.1.4,60.002637110659876,
T,left,Distractor,0,62,62,62,416.72953449987835,418.73135793993424,None,0,1,,D24A05,2022-11-29_09h19.08.590,t1_Paradigm,2021.1.4,60.002637110659876,
D,left,Distractor,0,63,63,63,420.22941660504875,422.2322297200808,left,1,1,0.4457858612804557,D24A05,2022-11-29_09h19.08.590,t1_Paradigm,2021.1.4,60.002637110659876,
R,left,Distractor,0,0,0,0,432.62624130425684,434.6316721657495,None,0,1,,D24A05,2022-11-29_09h19.08.590,t1_Paradigm,2021.1.4,60.002637110659876,
V,left,Distractor,0,1,1,1,436.12948509633134,438.1313114236109,left,1,1,0.9308225209606462,D24A05,2022-11-29_09h19.08.590,t1_Paradigm,2021.1.4,60.002637110659876,
N,left,Pretarget,0,2,2,2,439.62953081064916,441.63119320797705,None,0,1,,D24A05,2022-11-29_09h19.08.590,t1_Paradigm,2021.1.4,60.002637110659876,
N,right,Target,0,3,3,3,443.12935260499216,445.12953899111017,right,1,1,0.6522718414198607,D24A05,2022-11-29_09h19.08.590,t1_Paradigm,2021.1.4,60.002637110659876,
S,left,Distractor,0,4,4,4,446.62943938200624,448.63045696678455,None,0,1,,D24A05,2022-11-29_09h19.08.590,t1_Paradigm,2021.1.4,60.002637110659876,
N,left,Lure,0,5,5,5,450.129706770691,452.1317669628188,left,1,1,0.7861082996314508,D24A05,2022-11-29_09h19.08.590,t1_Paradigm,2021.1.4,60.002637110659876,
Z,left,Distractor,0,6,6,6,453.62937907117885,455.63124934837106,None,0,1,,D24A05,2022-11-29_09h19.08.590,t1_Paradigm,2021.1.4,60.002637110659876,
L,left,Pretarget,0,7,7,7,457.1294626401723,459.1312402055046,left,1,1,0.7468218921858352,D24A05,2022-11-29_09h19.08.590,t1_Paradigm,2021.1.4,60.002637110659876,
L,right,Target,0,8,8,8,460.62942975793703,462.6294432316354,None,0,1,,D24A05,2022-11-29_09h19.08.590,t1_Paradigm,2021.1.4,60.002637110659876,
H,left,Distractor,0,9,9,9,464.1294703394233,466.1311824610966,left,1,1,0.9788896071331692,D24A05,2022-11-29_09h19.08.590,t1_Paradigm,2021.1.4,60.002637110659876,
L,left,Lure,0,10,10,10,467.62939703610755,469.6313080551845,None,0,1,,D24A05,2022-11-29_09h19.08.590,t1_Paradigm,2021.1.4,60.002637110659876,
X,left,Pretarget,0,11,11,11,471.12943312636344,473.1314718247377,left,1,1,0.7625370326131815,D24A05,2022-11-29_09h19.08.590,t1_Paradigm,2021.1.4,60.002637110659876,
X,right,Target,0,12,12,12,474.62944900607545,476.6293919032687,None,0,1,,D24A05,2022-11-29_09h19.08.590,t1_Paradigm,2021.1.4,60.002637110659876,
X,right,Target,0,13,13,13,478.12967084084084,480.129439863209,right,1,1,0.6128680203401018,D24A05,2022-11-29_09h19.08.590,t1_Paradigm,2021.1.4,60.002637110659876,
R,left,Distractor,0,14,14,14,481.6294243043012,483.63110883697664,None,0,1,,D24A05,2022-11-29_09h19.08.590,t1_Paradigm,2021.1.4,60.002637110659876,
T,left,Distractor,0,15,15,15,485.1294571865292,487.1315478548786,left,1,1,0.026315730377973523,D24A05,2022-11-29_09h19.08.590,t1_Paradigm,2021.1.4,60.002637110659876,
V,left,Pretarget,0,16,16,16,488.6296309009558,490.6311457292395,None,0,1,,D24A05,2022-11-29_09h19.08.590,t1_Paradigm,2021.1.4,60.002637110659876,
V,right,Target,0,17,17,17,492.1295152517414,494.1295187805663,right,1,1,0.9325898206225247,D24A05,2022-11-29_09h19.08.590,t1_Paradigm,2021.1.4,60.002637110659876,
N,left,Distractor,0,18,18,18,495.62952311139816,497.63121823054826,None,0,1,,D24A05,2022-11-29_09h19.08.590,t1_Paradigm,2021.1.4,60.002637110659876,
B,left,Distractor,0,19,19,19,499.129413878225,501.13181732877274,left,1,1,0.874158254962822,D24A05,2022-11-29_09h19.08.590,t1_Paradigm,2021.1.4,60.002637110659876,
V,left,Lure,0,20,20,20,502.6295154121399,504.631542240837,None,0,1,,D24A05,2022-11-29_09h19.08.590,t1_Paradigm,2021.1.4,60.002637110659876,
P,left,Distractor,0,21,21,21,506.1294125950153,508.13160303286713,left,1,1,0.4822732689863187,D24A05,2022-11-29_09h19.08.590,t1_Paradigm,2021.1.4,60.002637110659876,
K,left,Pretarget,0,22,22,22,509.62940313135186,511.6313433434334,None,0,1,,D24A05,2022-11-29_09h19.08.590,t1_Paradigm,2021.1.4,60.002637110659876,
K,right,Target,0,23,23,23,513.1287485343346,515.1294430712296,right,1,1,0.6524008039268665,D24A05,2022-11-29_09h19.08.590,t1_Paradigm,2021.1.4,60.002637110659876,
J,left,Pretarget,0,24,24,24,516.6295673821078,518.6423305001153,None,0,1,,D24A05,2022-11-29_09h19.08.590,t1_Paradigm,2021.1.4,60.002637110659876,
J,right,Target,0,25,25,25,520.1295174973566,522.1294279935246,left,0,1,0.5486812621020363,D24A05,2022-11-29_09h19.08.590,t1_Paradigm,2021.1.4,60.002637110659876,
H,left,Distractor,0,26,26,26,523.6294881439535,525.631081247986,None,0,1,,D24A05,2022-11-29_09h19.08.590,t1_Paradigm,2021.1.4,60.002637110659876,
J,left,Lure,0,27,27,27,527.1294042541558,529.131065368274,left,1,1,0.49096957671281416,D24A05,2022-11-29_09h19.08.590,t1_Paradigm,2021.1.4,60.002637110659876,
V,left,Distractor,0,28,28,28,530.6294980888197,532.6312971479056,None,0,1,,D24A05,2022-11-29_09h19.08.590,t1_Paradigm,2021.1.4,60.002637110659876,
Z,left,Pretarget,0,29,29,29,534.1295316126561,536.131154872106,left,1,1,0.49873908670269884,D24A05,2022-11-29_09h19.08.590,t1_Paradigm,2021.1.4,60.002637110659876,
Z,right,Target,0,30,30,30,537.6294624797665,539.6295795725964,None,0,1,,D24A05,2022-11-29_09h19.08.590,t1_Paradigm,2021.1.4,60.002637110659876,
T,left,Distractor,0,31,31,31,541.1295053068679,543.1313123860164,left,1,1,0.7147554604525794,D24A05,2022-11-29_09h19.08.590,t1_Paradigm,2021.1.4,60.002637110659876,
Z,left,Lure,0,32,32,32,544.6296588107507,546.6313552131178,None,0,1,,D24A05,2022-11-29_09h19.08.590,t1_Paradigm,2021.1.4,60.002637110659876,
F,left,Distractor,0,33,33,33,548.1295104397068,550.1316052784823,left,1,1,0.9466059922633576,D24A05,2022-11-29_09h19.08.590,t1_Paradigm,2021.1.4,60.002637110659876,
Y,left,Pretarget,0,34,34,34,551.6295186201678,553.6315018197492,None,0,1,,D24A05,2022-11-29_09h19.08.590,t1_Paradigm,2021.1.4,60.002637110659876,
Y,right,Target,0,35,35,35,555.1295482943751,557.1295470111654,left,0,1,1.0363703148832428,D24A05,2022-11-29_09h19.08.590,t1_Paradigm,2021.1.4,60.002637110659876,
Y,right,Target,0,36,36,36,558.629511562518,560.6295320938589,None,0,1,,D24A05,2022-11-29_09h19.08.590,t1_Paradigm,2021.1.4,60.002637110659876,
W,left,Distractor,0,37,37,37,562.1295415575296,564.1315225114959,left,1,1,0.6104915171890752,D24A05,2022-11-29_09h19.08.590,t1_Paradigm,2021.1.4,60.002637110659876,
Q,left,Distractor,0,38,38,38,565.6295186201678,567.6313462306571,None,0,1,,D24A05,2022-11-29_09h19.08.590,t1_Paradigm,2021.1.4,60.002637110659876,
P,left,Pretarget,0,39,39,39,569.1295932066932,571.1316100905169,left,1,1,0.634345731807116,D24A05,2022-11-29_09h19.08.590,t1_Paradigm,2021.1.4,60.002637110659876,
P,right,Target,0,40,40,40,572.629526640223,574.6294470812645,None,0,1,,D24A05,2022-11-29_09h19.08.590,t1_Paradigm,2021.1.4,60.002637110659876,
J,left,Distractor,0,41,41,41,576.1295069108819,578.1313694888158,left,1,1,0.9145748487790115,D24A05,2022-11-29_09h19.08.590,t1_Paradigm,2021.1.4,60.002637110659876,
P,left,Lure,0,42,42,42,579.6295718733381,581.6312503107765,None,0,1,,D24A05,2022-11-29_09h19.08.590,t1_Paradigm,2021.1.4,60.002637110659876,
L,left,Distractor,0,43,43,43,583.1295091564971,585.1314913936803,left,1,1,0.5065640954926494,D24A05,2022-11-29_09h19.08.590,t1_Paradigm,2021.1.4,60.002637110659876,
Z,left,Distractor,0,44,44,44,586.6296713220436,588.6314241856016,None,0,1,,D24A05,2022-11-29_09h19.08.590,t1_Paradigm,2021.1.4,60.002637110659876,
F,left,Pretarget,0,45,45,45,590.1295771665755,592.1313377293918,left,1,1,0.6265791090336279,D24A05,2022-11-29_09h19.08.590,t1_Paradigm,2021.1.4,60.002637110659876,
F,right,Target,0,46,46,46,593.6293890160523,595.6295516628015,None,0,1,,D24A05,2022-11-29_09h19.08.590,t1_Paradigm,2021.1.4,60.002637110659876,
G,left,Pretarget,0,47,47,47,597.1295473319697,599.130548235029,left,1,1,0.6354210609861184,D24A05,2022-11-29_09h19.08.590,t1_Paradigm,2021.1.4,60.002637110659876,
G,right,Target,0,48,48,48,600.629575081366,602.6297640338962,None,0,1,,D24A05,2022-11-29_09h19.08.590,t1_Paradigm,2021.1.4,60.002637110659876,
V,left,Distractor,0,49,49,49,604.1295306502507,606.1315186618667,left,1,1,0.4344759775267448,D24A05,2022-11-29_09h19.08.590,t1_Paradigm,2021.1.4,60.002637110659876,
G,left,Lure,0,50,50,50,607.6295908006723,609.6314001254359,None,0,1,,D24A05,2022-11-29_09h19.08.590,t1_Paradigm,2021.1.4,60.002637110659876,
Q,left,Pretarget,0,51,51,51,611.1295662593038,613.1313107820024,left,1,1,0.458902503385616,D24A05,2022-11-29_09h19.08.590,t1_Paradigm,2021.1.4,60.002637110659876,
Q,right,Target,0,52,52,52,614.6294759534649,616.6295336978728,None,0,1,,D24A05,2022-11-29_09h19.08.590,t1_Paradigm,2021.1.4,60.002637110659876,
Y,left,Distractor,0,53,53,53,618.1295197429718,620.1314227419934,left,1,1,0.48255814139702125,D24A05,2022-11-29_09h19.08.590,t1_Paradigm,2021.1.4,60.002637110659876,
V,left,Distractor,0,54,54,54,621.629575081366,623.6312185513525,None,0,1,,D24A05,2022-11-29_09h19.08.590,t1_Paradigm,2021.1.4,60.002637110659876,
B,left,Distractor,0,55,55,55,625.1296082843983,627.1310644058685,left,1,1,0.45894805730495136,D24A05,2022-11-29_09h19.08.590,t1_Paradigm,2021.1.4,60.002637110659876,
J,left,Pretarget,0,56,56,56,628.6296472618706,630.631301318339,None,0,1,,D24A05,2022-11-29_09h19.08.590,t1_Paradigm,2021.1.4,60.002637110659876,
J,right,Target,0,57,57,57,632.1295582392413,634.1295011364418,right,1,1,0.7725168701872462,D24A05,2022-11-29_09h19.08.590,t1_Paradigm,2021.1.4,60.002637110659876,
H,left,Distractor,0,58,58,58,635.6295702693315,637.6316054388808,None,0,1,,D24A05,2022-11-29_09h19.08.590,t1_Paradigm,2021.1.4,60.002637110659876,
J,left,Lure,0,59,59,59,639.1296400438223,641.1313505614817,left,1,1,0.4265595400938764,D24A05,2022-11-29_09h19.08.590,t1_Paradigm,2021.1.4,60.002637110659876,
D,left,Pretarget,0,60,60,60,642.6296459786608,644.6316201957889,None,0,1,,D24A05,2022-11-29_09h19.08.590,t1_Paradigm,2021.1.4,60.002637110659876,
D,right,Target,0,61,61,61,646.1288024291134,648.12942895593,right,1,1,0.7565909626791836,D24A05,2022-11-29_09h19.08.590,t1_Paradigm,2021.1.4,60.002637110659876,
R,left,Distractor,0,62,62,62,649.6296337881795,651.6311498996656,None,0,1,,D24A05,2022-11-29_09h19.08.590,t1_Paradigm,2021.1.4,60.002637110659876,
F,left,Distractor,0,63,63,63,653.1296647455965,655.1315712734431,left,1,1,0.39465703832684085,D24A05,2022-11-29_09h19.08.590,t1_Paradigm,2021.1.4,60.002637110659876,
F,left,Distractor,0,0,0,0,961.2607990863544,963.2465285185172,None,0,2,,D24A05,2022-11-29_09h19.08.590,t1_Paradigm,2021.1.4,60.002637110659876,
N,left,Pretarget,0,1,1,1,964.7463413303994,966.7483678382923,None,0,2,,D24A05,2022-11-29_09h19.08.590,t1_Paradigm,2021.1.4,60.002637110659876,
V,left,Distractor,0,2,2,2,968.2464980423028,970.2486913673711,left,1,2,1.1815484162798384,D24A05,2022-11-29_09h19.08.590,t1_Paradigm,2021.1.4,60.002637110659876,
N,right,Target,0,3,3,3,971.7463945835771,973.7488516080994,None,0,2,,D24A05,2022-11-29_09h19.08.590,t1_Paradigm,2021.1.4,60.002637110659876,
N,left,Lure,0,4,4,4,975.2464880974367,977.2462757263347,None,0,2,,D24A05,2022-11-29_09h19.08.590,t1_Paradigm,2021.1.4,60.002637110659876,
X,left,Distractor,0,5,5,5,978.7466229947822,980.7488500040927,left,1,2,0.4417257878521923,D24A05,2022-11-29_09h19.08.590,t1_Paradigm,2021.1.4,60.002637110659876,
G,left,Pretarget,0,6,6,6,982.2464435059228,984.248417081435,None,0,2,,D24A05,2022-11-29_09h19.08.590,t1_Paradigm,2021.1.4,60.002637110659876,
H,left,Pretarget,0,7,7,7,985.7463862427176,987.7479386048653,None,0,2,,D24A05,2022-11-29_09h19.08.590,t1_Paradigm,2021.1.4,60.002637110659876,
G,right,Target,0,8,8,8,989.2463803078717,991.2483195575478,right,1,2,0.725926436833106,D24A05,2022-11-29_09h19.08.590,t1_Paradigm,2021.1.4,60.002637110659876,
H,right,Target,0,9,9,9,992.7464455911322,994.7482051915431,None,0,2,,D24A05,2022-11-29_09h19.08.590,t1_Paradigm,2021.1.4,60.002637110659876,
T,left,Pretarget,0,10,10,10,996.2464916262616,998.2486333021589,None,0,2,,D24A05,2022-11-29_09h19.08.590,t1_Paradigm,2021.1.4,60.002637110659876,
K,left,Distractor,0,11,11,11,999.7464686888998,1001.7485019336382,left,1,2,0.7058333079330623,D24A05,2022-11-29_09h19.08.590,t1_Paradigm,2021.1.4,60.002637110659876,
T,right,Target,0,12,12,12,1003.2464415811046,1005.248896360019,None,0,2,,D24A05,2022-11-29_09h19.08.590,t1_Paradigm,2021.1.4,60.002637110659876,
T,left,Lure,0,13,13,13,1006.7465007691208,1008.7463695609986,None,0,2,,D24A05,2022-11-29_09h19.08.590,t1_Paradigm,2021.1.4,60.002637110659876,
J,left,Distractor,0,14,14,14,1010.2464476763489,1012.2488081393967,left,1,2,0.8456703724732506,D24A05,2022-11-29_09h19.08.590,t1_Paradigm,2021.1.4,60.002637110659876,
Q,left,Pretarget,0,15,15,15,1013.7465049395541,1015.7486979438181,None,0,2,,D24A05,2022-11-29_09h19.08.590,t1_Paradigm,2021.1.4,60.002637110659876,
M,left,Distractor,0,16,16,16,1017.246550333075,1019.2459574904933,None,0,2,,D24A05,2022-11-29_09h19.08.590,t1_Paradigm,2021.1.4,60.002637110659876,
Q,right,Target,0,17,17,17,1020.7465152052246,1022.7486344249701,right,1,2,0.8095874964128598,D24A05,2022-11-29_09h19.08.590,t1_Paradigm,2021.1.4,60.002637110659876,
R,left,Distractor,0,18,18,18,1024.2463857615148,1026.2484693722072,None,0,2,,D24A05,2022-11-29_09h19.08.590,t1_Paradigm,2021.1.4,60.002637110659876,
W,left,Distractor,0,19,19,19,1027.7464629144597,1029.7486440490393,None,0,2,,D24A05,2022-11-29_09h19.08.590,t1_Paradigm,2021.1.4,60.002637110659876,
C,left,Pretarget,0,20,20,20,1031.2464880974367,1033.2489515380075,left,1,2,1.3815801757009467,D24A05,2022-11-29_09h19.08.590,t1_Paradigm,2021.1.4,60.002637110659876,
T,left,Distractor,0,21,21,21,1034.746430192623,1036.7488179238644,None,0,2,,D24A05,2022-11-29_09h19.08.590,t1_Paradigm,2021.1.4,60.002637110659876,
C,right,Target,0,22,22,22,1038.2457566682788,1040.2486602495555,None,0,2,,D24A05,2022-11-29_09h19.08.590,t1_Paradigm,2021.1.4,60.002637110659876,
F,left,Pretarget,0,23,23,23,1041.7464279470078,1043.7483566102092,left,1,2,0.9142245327093406,D24A05,2022-11-29_09h19.08.590,t1_Paradigm,2021.1.4,60.002637110659876,
C,right,Target,0,24,24,24,1045.2465182528467,1047.2484183646447,None,0,2,,D24A05,2022-11-29_09h19.08.590,t1_Paradigm,2021.1.4,60.002637110659876,
F,right,Target,0,25,25,25,1048.74649178666,1050.7487845604264,None,0,2,,D24A05,2022-11-29_09h19.08.590,t1_Paradigm,2021.1.4,60.002637110659876,
H,left,Distractor,0,26,26,26,1052.2464258617983,1054.2482220336606,left,1,2,0.8942478550379747,D24A05,2022-11-29_09h19.08.590,t1_Paradigm,2021.1.4,60.002637110659876,
H,left,Lure,0,27,27,27,1055.7464648392706,1057.746502693939,None,0,2,,D24A05,2022-11-29_09h19.08.590,t1_Paradigm,2021.1.4,60.002637110659876,
P,left,Distractor,0,28,28,28,1059.2464566588096,1061.2481665348678,None,0,2,,D24A05,2022-11-29_09h19.08.590,t1_Paradigm,2021.1.4,60.002637110659876,
G,left,Pretarget,0,29,29,29,1062.7463836762981,1064.7488374927998,left,1,2,0.8896244528368698,D24A05,2022-11-29_09h19.08.590,t1_Paradigm,2021.1.4,60.002637110659876,
K,left,Distractor,0,30,30,30,1066.2464640372636,1068.24856080085,None,0,2,,D24A05,2022-11-29_09h19.08.590,t1_Paradigm,2021.1.4,60.002637110659876,
G,right,Target,0,31,31,31,1069.7465838569115,1071.7486851117283,None,0,2,,D24A05,2022-11-29_09h19.08.590,t1_Paradigm,2021.1.4,60.002637110659876,
M,left,Pretarget,0,32,32,32,1073.2465875461348,1075.2488209714866,left,1,2,1.0616408714922727,D24A05,2022-11-29_09h19.08.590,t1_Paradigm,2021.1.4,60.002637110659876,
B,left,Distractor,0,33,33,33,1076.7464603480403,1078.7484336027555,None,0,2,,D24A05,2022-11-29_09h19.08.590,t1_Paradigm,2021.1.4,60.002637110659876,
M,right,Target,0,34,34,34,1080.2464406186991,1082.2487699639241,None,0,2,,D24A05,2022-11-29_09h19.08.590,t1_Paradigm,2021.1.4,60.002637110659876,
M,left,Lure,0,35,35,35,1083.746601501036,1085.7464536111875,left,1,2,0.9640332543640397,D24A05,2022-11-29_09h19.08.590,t1_Paradigm,2021.1.4,60.002637110659876,
T,left,Distractor,0,36,36,36,1087.2464277866093,1089.2483237279812,None,0,2,,D24A05,2022-11-29_09h19.08.590,t1_Paradigm,2021.1.4,60.002637110659876,
F,left,Distractor,0,37,37,37,1090.746697100105,1092.7484316779373,None,0,2,,D24A05,2022-11-29_09h19.08.590,t1_Paradigm,2021.1.4,60.002637110659876,
X,left,Distractor,0,38,38,38,1094.2463459820356,1096.2486859137352,left,1,2,0.7977899932157015,D24A05,2022-11-29_09h19.08.590,t1_Paradigm,2021.1.4,60.002637110659876,
C,left,Distractor,0,39,39,39,1097.7465222628744,1099.748921542996,None,0,2,,D24A05,2022-11-29_09h19.08.590,t1_Paradigm,2021.1.4,60.002637110659876,
R,left,Distractor,0,40,40,40,1101.2464537715932,1103.248579086583,None,0,2,,D24A05,2022-11-29_09h19.08.590,t1_Paradigm,2021.1.4,60.002637110659876,
B,left,Pretarget,0,41,41,41,1104.7466124083076,1106.748402805737,left,1,2,0.778108774429711,D24A05,2022-11-29_09h19.08.590,t1_Paradigm,2021.1.4,60.002637110659876,
H,left,Distractor,0,42,42,42,1108.2466186639576,1110.2478794168492,None,0,2,,D24A05,2022-11-29_09h19.08.590,t1_Paradigm,2021.1.4,60.002637110659876,
B,right,Target,0,43,43,43,1111.7466152955312,1113.7488557785327,None,0,2,,D24A05,2022-11-29_09h19.08.590,t1_Paradigm,2021.1.4,60.002637110659876,
W,left,Pretarget,0,44,44,44,1115.2465198568607,1117.248515567735,left,1,2,0.6460482775291894,D24A05,2022-11-29_09h19.08.590,t1_Paradigm,2021.1.4,60.002637110659876,
L,left,Pretarget,0,45,45,45,1118.7464574608166,1120.748329983624,None,0,2,,D24A05,2022-11-29_09h19.08.590,t1_Paradigm,2021.1.4,60.002637110659876,
W,right,Target,0,46,46,46,1122.2465484082568,1124.248084730294,None,0,2,,D24A05,2022-11-29_09h19.08.590,t1_Paradigm,2021.1.4,60.002637110659876,
L,right,Target,0,47,47,47,1125.7464606688372,1127.7488099038092,right,1,2,0.737610376025259,D24A05,2022-11-29_09h19.08.590,t1_Paradigm,2021.1.4,60.002637110659876,
W,right,Target,0,48,48,48,1129.2465554659066,1131.2489297234497,None,0,2,,D24A05,2022-11-29_09h19.08.590,t1_Paradigm,2021.1.4,60.002637110659876,
X,left,Distractor,0,49,49,49,1132.7464228141762,1134.7457818512557,None,0,2,,D24A05,2022-11-29_09h19.08.590,t1_Paradigm,2021.1.4,60.002637110659876,
R,left,Distractor,0,50,50,50,1136.2465166488328,1138.2488212922908,left,1,2,0.7815673436125508,D24A05,2022-11-29_09h19.08.590,t1_Paradigm,2021.1.4,60.002637110659876,
V,left,Pretarget,0,51,51,51,1139.7465463230474,1141.7488865755513,None,0,2,,D24A05,2022-11-29_09h19.08.590,t1_Paradigm,2021.1.4,60.002637110659876,
Z,left,Distractor,0,52,52,52,1143.2464951550864,1145.2488129514313,None,0,2,,D24A05,2022-11-29_09h19.08.590,t1_Paradigm,2021.1.4,60.002637110659876,
V,right,Target,0,53,53,53,1146.74646163125,1148.748961001671,right,1,2,0.5854230660042958,D24A05,2022-11-29_09h19.08.590,t1_Paradigm,2021.1.4,60.002637110659876,
V,left,Lure,0,54,54,54,1150.2465452002361,1152.2468031252574,None,0,2,,D24A05,2022-11-29_09h19.08.590,t1_Paradigm,2021.1.4,60.002637110659876,
N,left,Distractor,0,55,55,55,1153.7465973306025,1155.7484602293407,None,0,2,,D24A05,2022-11-29_09h19.08.590,t1_Paradigm,2021.1.4,60.002637110659876,
B,left,Distractor,0,56,56,56,1157.2457037359054,1159.248806856187,left,1,2,0.6298962044311338,D24A05,2022-11-29_09h19.08.590,t1_Paradigm,2021.1.4,60.002637110659876,
V,left,Lure,0,57,57,57,1160.7464308342314,1162.7484092217783,None,0,2,,D24A05,2022-11-29_09h19.08.590,t1_Paradigm,2021.1.4,60.002637110659876,
J,left,Distractor,0,58,58,58,1164.2465734308353,1166.2486150164332,None,0,2,,D24A05,2022-11-29_09h19.08.590,t1_Paradigm,2021.1.4,60.002637110659876,
H,left,Distractor,0,59,59,59,1167.7464882578352,1169.7485529411933,left,1,2,0.6097886394272791,D24A05,2022-11-29_09h19.08.590,t1_Paradigm,2021.1.4,60.002637110659876,
X,left,Pretarget,0,60,60,60,1171.246567014794,1173.2489958087172,None,0,2,,D24A05,2022-11-29_09h19.08.590,t1_Paradigm,2021.1.4,60.002637110659876,
P,left,Distractor,0,61,61,61,1174.7464892202406,1176.7484053721564,None,0,2,,D24A05,2022-11-29_09h19.08.590,t1_Paradigm,2021.1.4,60.002637110659876,
X,right,Target,0,62,62,62,1178.2465134408121,1180.2488469564705,right,1,2,0.6855714370540227,D24A05,2022-11-29_09h19.08.590,t1_Paradigm,2021.1.4,60.002637110659876,
Q,left,Distractor,0,63,63,63,1181.7465687792064,1183.748666184394,None,0,2,,D24A05,2022-11-29_09h19.08.590,t1_Paradigm,2021.1.4,60.002637110659876,
B,left,Pretarget,0,0,0,0,1218.9273074905723,1220.9326286376963,None,0,2,,D24A05,2022-11-29_09h19.08.590,t1_Paradigm,2021.1.4,60.002637110659876,
F,left,Distractor,0,1,1,1,1222.4298275527472,1224.4319166170753,None,0,2,,D24A05,2022-11-29_09h19.08.590,t1_Paradigm,2021.1.4,60.002637110659876,
B,right,Target,0,2,2,2,1225.9300163448788,1227.9318500506051,right,1,2,0.8907270502022584,D24A05,2022-11-29_09h19.08.590,t1_Paradigm,2021.1.4,60.002637110659876,
V,left,Distractor,0,3,3,3,1229.4298265903344,1231.4320045168934,left,1,2,0.8145920117021888,D24A05,2022-11-29_09h19.08.590,t1_Paradigm,2021.1.4,60.002637110659876,
G,left,Pretarget,0,4,4,4,1232.9298017281617,1234.9322876248916,left,1,2,0.7062798646875308,D24A05,2022-11-29_09h19.08.590,t1_Paradigm,2021.1.4,60.002637110659876,
B,left,Lure,0,5,5,5,1236.4299475327934,1238.431747875089,left,1,2,0.9831675052992068,D24A05,2022-11-29_09h19.08.590,t1_Paradigm,2021.1.4,60.002637110659876,
G,right,Target,0,6,6,6,1239.9299133673485,1241.9323049482118,right,1,2,0.6501394687802531,D24A05,2022-11-29_09h19.08.590,t1_Paradigm,2021.1.4,60.002637110659876,
Y,left,Pretarget,0,7,7,7,1243.4298888259727,1245.4318348125016,right,0,2,1.390770518919453,D24A05,2022-11-29_09h19.08.590,t1_Paradigm,2021.1.4,60.002637110659876,
P,left,Distractor,0,8,8,8,1246.9299432019616,1248.9321846473686,left,1,2,1.0422551115843817,D24A05,2022-11-29_09h19.08.590,t1_Paradigm,2021.1.4,60.002637110659876,
Y,right,Target,0,9,9,9,1250.4300726456713,1252.4322146423801,right,1,2,0.5182541299291188,D24A05,2022-11-29_09h19.08.590,t1_Paradigm,2021.1.4,60.002637110659876,
X,left,Distractor,0,10,10,10,1253.9298947608186,1255.932002752481,left,1,2,0.5544839334179414,D24A05,2022-11-29_09h19.08.590,t1_Paradigm,2021.1.4,60.002637110659876,
Y,right,Target,0,11,11,11,1257.4299510616183,1259.4322322865046,left,0,2,0.6543480736654601,D24A05,2022-11-29_09h19.08.590,t1_Paradigm,2021.1.4,60.002637110659876,
N,left,Distractor,0,12,12,12,1260.9297898584773,1262.931786531757,left,1,2,0.754726459927042,D24A05,2022-11-29_09h19.08.590,t1_Paradigm,2021.1.4,60.002637110659876,
Y,right,Target,0,13,13,13,1264.4298843347424,1266.4314889876623,left,0,2,0.6791284444116172,D24A05,2022-11-29_09h19.08.590,t1_Paradigm,2021.1.4,60.002637110659876,
Y,left,Lure,0,14,14,14,1267.9290863391143,1269.9300269313535,left,1,2,0.972547667202889,D24A05,2022-11-29_09h19.08.590,t1_Paradigm,2021.1.4,60.002637110659876,
K,left,Distractor,0,15,15,15,1271.4301454677843,1273.4319727574693,left,1,2,0.926437474838167,D24A05,2022-11-29_09h19.08.590,t1_Paradigm,2021.1.4,60.002637110659876,
T,left,Pretarget,0,16,16,16,1274.9299021392726,1276.9290558629,left,1,2,0.6294204546720721,D24A05,2022-11-29_09h19.08.590,t1_Paradigm,2021.1.4,60.002637110659876,
J,left,Distractor,0,17,17,17,1278.4299853874545,1280.4319576797643,left,1,2,0.45458033450267976,D24A05,2022-11-29_09h19.08.590,t1_Paradigm,2021.1.4,60.002637110659876,
T,right,Target,0,18,18,18,1281.9300198737037,1283.9321246573454,left,0,2,0.9384746173236636,D24A05,2022-11-29_09h19.08.590,t1_Paradigm,2021.1.4,60.002637110659876,
S,left,Pretarget,0,19,19,19,1285.429870540247,1287.4318595142759,left,1,2,0.6866435582123813,D24A05,2022-11-29_09h19.08.590,t1_Paradigm,2021.1.4,60.002637110659876,
R,left,Distractor,0,20,20,20,1288.9298639638,1290.9314628422726,left,1,2,0.6751703861009446,D24A05,2022-11-29_09h19.08.590,t1_Paradigm,2021.1.4,60.002637110659876,
S,right,Target,0,21,21,21,1292.4298561041433,1294.4322252288548,right,1,2,0.9022675907981466,D24A05,2022-11-29_09h19.08.590,t1_Paradigm,2021.1.4,60.002637110659876,
Q,left,Distractor,0,22,22,22,1295.9298177682722,1297.9318375393195,left,1,2,0.7788533564744284,D24A05,2022-11-29_09h19.08.590,t1_Paradigm,2021.1.4,60.002637110659876,
D,left,Distractor,0,23,23,23,1299.4300309413811,1301.432024406633,left,1,2,0.6705501919204835,D24A05,2022-11-29_09h19.08.590,t1_Paradigm,2021.1.4,60.002637110659876,
F,left,Distractor,0,24,24,24,1302.9299938887198,1304.9322988529748,left,1,2,0.7062663909964613,D24A05,2022-11-29_09h19.08.590,t1_Paradigm,2021.1.4,60.002637110659876,
Z,left,Distractor,0,25,25,25,1306.430021317312,1308.4323156950923,left,1,2,0.7743037387845106,D24A05,2022-11-29_09h19.08.590,t1_Paradigm,2021.1.4,60.002637110659876,
P,left,Distractor,0,26,26,26,1309.9298986104477,1311.9319924868105,left,1,2,0.6024701774222194,D24A05,2022-11-29_09h19.08.590,t1_Paradigm,2021.1.4,60.002637110659876,
H,left,Distractor,0,27,27,27,1313.429837176809,1315.431869459142,left,1,2,0.5590123781512375,D24A05,2022-11-29_09h19.08.590,t1_Paradigm,2021.1.4,60.002637110659876,
Z,left,Pretarget,0,28,28,28,1316.93001698648,1318.9319308927734,left,1,2,0.626547028812638,D24A05,2022-11-29_09h19.08.590,t1_Paradigm,2021.1.4,60.002637110659876,
J,left,Pretarget,0,29,29,29,1320.4300007859638,1322.429114409315,left,1,2,0.45747076288535027,D24A05,2022-11-29_09h19.08.590,t1_Paradigm,2021.1.4,60.002637110659876,
Z,right,Target,0,30,30,30,1323.9300240441298,1325.932062742504,right,1,2,0.6983836378058186,D24A05,2022-11-29_09h19.08.590,t1_Paradigm,2021.1.4,60.002637110659876,
J,right,Target,0,31,31,31,1327.4300132972567,1329.4322515346357,right,1,2,0.9586466635737452,D24A05,2022-11-29_09h19.08.590,t1_Paradigm,2021.1.4,60.002637110659876,
V,left,Pretarget,0,32,32,32,1330.929912404943,1332.9320874442783,left,1,2,0.6424132670945255,D24A05,2022-11-29_09h19.08.590,t1_Paradigm,2021.1.4,60.002637110659876,
Z,left,Lure,0,33,33,33,1334.429971272155,1336.4318912736999,left,1,2,0.8866474078386091,D24A05,2022-11-29_09h19.08.590,t1_Paradigm,2021.1.4,60.002637110659876,
V,right,Target,0,34,34,34,1337.929923633019,1339.9318907924971,left,0,2,1.0026405234166305,D24A05,2022-11-29_09h19.08.590,t1_Paradigm,2021.1.4,60.002637110659876,
X,left,Distractor,0,35,35,35,1341.430165357524,1343.4318264716421,left,1,2,0.6707593549945159,D24A05,2022-11-29_09h19.08.590,t1_Paradigm,2021.1.4,60.002637110659876,
S,left,Distractor,0,36,36,36,1344.9300230817244,1346.9322802464376,left,1,2,0.7064219800886349,D24A05,2022-11-29_09h19.08.590,t1_Paradigm,2021.1.4,60.002637110659876,
Q,left,Distractor,0,37,37,37,1348.4299218686065,1350.4320734893845,left,1,2,0.886490856333694,D24A05,2022-11-29_09h19.08.590,t1_Paradigm,2021.1.4,60.002637110659876,
P,left,Distractor,0,38,38,38,1351.9299454475768,1353.9318972085384,left,1,2,0.6506630180738284,D24A05,2022-11-29_09h19.08.590,t1_Paradigm,2021.1.4,60.002637110659876,
S,left,Lure,0,39,39,39,1355.4300787409156,1357.4322544218594,left,1,2,0.638557865509938,D24A05,2022-11-29_09h19.08.590,t1_Paradigm,2021.1.4,60.002637110659876,
K,left,Pretarget,0,40,40,40,1358.9299152921594,1360.932284416871,left,1,2,0.898257562512299,D24A05,2022-11-29_09h19.08.590,t1_Paradigm,2021.1.4,60.002637110659876,
L,left,Distractor,0,41,41,41,1362.4301114627451,1364.431775784884,left,1,2,0.790881516499212,D24A05,2022-11-29_09h19.08.590,t1_Paradigm,2021.1.4,60.002637110659876,
K,right,Target,0,42,42,42,1365.9300198737037,1367.9323168178962,left,0,2,0.8421980087805423,D24A05,2022-11-29_09h19.08.590,t1_Paradigm,2021.1.4,60.002637110659876,
B,left,Distractor,0,43,43,43,1369.429935663109,1371.4320731685802,left,1,2,0.6226345244140248,D24A05,2022-11-29_09h19.08.590,t1_Paradigm,2021.1.4,60.002637110659876,
N,left,Distractor,0,44,44,44,1372.929966620526,1374.932185609774,left,1,2,0.7704419211513596,D24A05,2022-11-29_09h19.08.590,t1_Paradigm,2021.1.4,60.002637110659876,
S,left,Pretarget,0,45,45,45,1376.4301855680678,1378.4320356347162,left,1,2,0.6146921020117588,D24A05,2022-11-29_09h19.08.590,t1_Paradigm,2021.1.4,60.002637110659876,
Z,left,Distractor,0,46,46,46,1379.9300009463695,1381.9317894189808,left,1,2,0.6507618251780514,D24A05,2022-11-29_09h19.08.590,t1_Paradigm,2021.1.4,60.002637110659876,
S,right,Target,0,47,47,47,1383.429989557888,1385.4319920056078,left,0,2,0.734598684386583,D24A05,2022-11-29_09h19.08.590,t1_Paradigm,2021.1.4,60.002637110659876,
C,left,Distractor,0,48,48,48,1386.9299967759362,1388.9321634744192,left,1,2,0.5146021169712185,D24A05,2022-11-29_09h19.08.590,t1_Paradigm,2021.1.4,60.002637110659876,
T,left,Pretarget,0,49,49,49,1390.4301538086438,1392.4319249579348,left,1,2,0.5666696073531057,D24A05,2022-11-29_09h19.08.590,t1_Paradigm,2021.1.4,60.002637110659876,
S,left,Lure,0,50,50,50,1393.9299679037358,1395.9321092588361,right,0,2,0.8588421925524017,D24A05,2022-11-29_09h19.08.590,t1_Paradigm,2021.1.4,60.002637110659876,
T,right,Target,0,51,51,51,1397.4302205355125,1399.4292193116562,right,1,2,0.9293619082600344,D24A05,2022-11-29_09h19.08.590,t1_Paradigm,2021.1.4,60.002637110659876,
N,left,Pretarget,0,52,52,52,1400.929888023973,1402.9322228228339,left,1,2,0.7864024753071135,D24A05,2022-11-29_09h19.08.590,t1_Paradigm,2021.1.4,60.002637110659876,
B,left,Distractor,0,53,53,53,1404.4300851569642,1406.4319602461837,left,1,2,0.8866919993524789,D24A05,2022-11-29_09h19.08.590,t1_Paradigm,2021.1.4,60.002637110659876,
N,right,Target,0,54,54,54,1407.929970149351,1409.9293086550824,right,1,2,0.5732415624952409,D24A05,2022-11-29_09h19.08.590,t1_Paradigm,2021.1.4,60.002637110659876,
N,left,Lure,0,55,55,55,1411.4302461996995,1413.4300533975402,left,1,2,0.4487054826677195,D24A05,2022-11-29_09h19.08.590,t1_Paradigm,2021.1.4,60.002637110659876,
X,left,Distractor,0,56,56,56,1414.9300105704315,1416.9319559153519,left,1,2,0.626550557637529,D24A05,2022-11-29_09h19.08.590,t1_Paradigm,2021.1.4,60.002637110659876,
W,left,Distractor,0,57,57,57,1418.4300428110655,1420.4321107024443,left,1,2,0.9186288269702345,D24A05,2022-11-29_09h19.08.590,t1_Paradigm,2021.1.4,60.002637110659876,
S,left,Distractor,0,58,58,58,1421.9300756932935,1423.9321397350504,left,1,2,0.6024971248116344,D24A05,2022-11-29_09h19.08.590,t1_Paradigm,2021.1.4,60.002637110659876,
L,left,Distractor,0,59,59,59,1425.4300870817751,1427.4318986521466,left,1,2,0.8310668118792819,D24A05,2022-11-29_09h19.08.590,t1_Paradigm,2021.1.4,60.002637110659876,
K,left,Pretarget,0,60,60,60,1428.9301388913373,1430.932101238781,None,0,2,,D24A05,2022-11-29_09h19.08.590,t1_Paradigm,2021.1.4,60.002637110659876,
V,left,Pretarget,0,61,61,61,1432.4300745704895,1434.4323333392167,left,1,2,0.6465965286042774,D24A05,2022-11-29_09h19.08.590,t1_Paradigm,2021.1.4,60.002637110659876,
K,right,Target,0,62,62,62,1435.930056124358,1437.9428760243609,right,1,2,0.7201353143973392,D24A05,2022-11-29_09h19.08.590,t1_Paradigm,2021.1.4,60.002637110659876,
V,right,Target,0,63,63,63,1439.4302320844,1441.4319191834948,right,1,2,0.5908144688219181,D24A05,2022-11-29_09h19.08.590,t1_Paradigm,2021.1.4,60.002637110659876,
R,left,Distractor,0,0,0,0,1537.2214841275054,1539.215464273053,None,0,3,,D24A05,2022-11-29_09h19.08.590,t1_Paradigm,2021.1.4,60.002637110659876,
P,left,Lure,0,1,1,1,1540.7135328830336,1542.7143143573485,None,0,3,,D24A05,2022-11-29_09h19.08.590,t1_Paradigm,2021.1.4,60.002637110659876,
V,left,Distractor,0,2,2,2,1544.2133934944504,1546.21572765171,None,0,3,,D24A05,2022-11-29_09h19.08.590,t1_Paradigm,2021.1.4,60.002637110659876,
P,left,Pretarget,0,3,3,3,1547.713473534619,1549.7152520623567,left,1,3,0.6433451976772631,D24A05,2022-11-29_09h19.08.590,t1_Paradigm,2021.1.4,60.002637110659876,
Z,left,Distractor,0,4,4,4,1551.2135558203954,1553.2156326942422,left,1,3,1.1271599215324386,D24A05,2022-11-29_09h19.08.590,t1_Paradigm,2021.1.4,60.002637110659876,
L,left,Pretarget,0,5,5,5,1554.713561434437,1556.7156338170462,left,1,3,0.7793586200350546,D24A05,2022-11-29_09h19.08.590,t1_Paradigm,2021.1.4,60.002637110659876,
P,right,Target,0,6,6,6,1558.2133437700977,1560.2158072106758,left,0,3,0.7189374387453427,D24A05,2022-11-29_09h19.08.590,t1_Paradigm,2021.1.4,60.002637110659876,
S,left,Distractor,0,7,7,7,1561.7135694544922,1563.7156229097745,left,1,3,0.9151259870704962,D24A05,2022-11-29_09h19.08.590,t1_Paradigm,2021.1.4,60.002637110659876,
L,right,Target,0,8,8,8,1565.2134130633858,1567.2158437821272,left,0,3,1.111048911116086,D24A05,2022-11-29_09h19.08.590,t1_Paradigm,2021.1.4,60.002637110659876,
D,left,Distractor,0,9,9,9,1568.7134244518675,1570.7125813835228,left,1,3,0.7664630106955883,D24A05,2022-11-29_09h19.08.590,t1_Paradigm,2021.1.4,60.002637110659876,
G,left,Distractor,0,10,10,10,1572.213405684939,1574.2149564430729,left,1,3,1.1677491069640382,D24A05,2022-11-29_09h19.08.590,t1_Paradigm,2021.1.4,60.002637110659876,
M,left,Pretarget,0,11,11,11,1575.7134953491695,1577.715362739138,left,1,3,0.7231624045452918,D24A05,2022-11-29_09h19.08.590,t1_Paradigm,2021.1.4,60.002637110659876,
Y,left,Distractor,0,12,12,12,1579.2135782765545,1581.215847310952,left,1,3,0.6630232084353338,D24A05,2022-11-29_09h19.08.590,t1_Paradigm,2021.1.4,60.002637110659876,
V,left,Distractor,0,13,13,13,1582.713483158681,1584.7160056268694,left,1,3,0.8428431421270943,D24A05,2022-11-29_09h19.08.590,t1_Paradigm,2021.1.4,60.002637110659876,
M,right,Target,0,14,14,14,1586.2134175546234,1588.2157712808184,None,0,3,,D24A05,2022-11-29_09h19.08.590,t1_Paradigm,2021.1.4,60.002637110659876,
S,left,Pretarget,0,15,15,15,1589.713714777914,1591.715722679277,None,0,3,,D24A05,2022-11-29_09h19.08.590,t1_Paradigm,2021.1.4,60.002637110659876,
Q,left,Distractor,0,16,16,16,1593.2135705772962,1595.2320548828502,left,1,3,1.1590348343161168,D24A05,2022-11-29_09h19.08.590,t1_Paradigm,2021.1.4,60.002637110659876,
R,left,Pretarget,0,17,17,17,1596.7135322414324,1598.7159921531784,left,1,3,1.3388842818094417,D24A05,2022-11-29_09h19.08.590,t1_Paradigm,2021.1.4,60.002637110659876,
S,right,Target,0,18,18,18,1600.2135571036051,1602.2155451152212,right,1,3,0.6073620911120088,D24A05,2022-11-29_09h19.08.590,t1_Paradigm,2021.1.4,60.002637110659876,
F,left,Distractor,0,19,19,19,1603.7135486023471,1605.7159498072797,left,1,3,0.4668080335322884,D24A05,2022-11-29_09h19.08.590,t1_Paradigm,2021.1.4,60.002637110659876,
R,right,Target,0,20,20,20,1607.2135542163815,1609.215542869606,right,1,3,1.0313622707690229,D24A05,2022-11-29_09h19.08.590,t1_Paradigm,2021.1.4,60.002637110659876,
P,left,Distractor,0,21,21,21,1610.7135078604551,1612.7153730048085,None,0,3,,D24A05,2022-11-29_09h19.08.590,t1_Paradigm,2021.1.4,60.002637110659876,
L,left,Distractor,0,22,22,22,1614.213310727464,1616.2157212356688,right,0,3,0.9590011500768014,D24A05,2022-11-29_09h19.08.590,t1_Paradigm,2021.1.4,60.002637110659876,
R,right,Target,0,23,23,23,1617.7137680310916,1619.715188864313,right,1,3,1.0276964633158059,D24A05,2022-11-29_09h19.08.590,t1_Paradigm,2021.1.4,60.002637110659876,
H,left,Pretarget,0,24,24,24,1621.2134297451048,1623.2154042830298,left,1,3,1.0795958533053636,D24A05,2022-11-29_09h19.08.590,t1_Paradigm,2021.1.4,60.002637110659876,
G,left,Pretarget,0,25,25,25,1624.7134613441303,1626.7154807943734,left,1,3,0.6836174304698943,D24A05,2022-11-29_09h19.08.590,t1_Paradigm,2021.1.4,60.002637110659876,
T,left,Distractor,0,26,26,26,1628.2133838703812,1630.2156182581384,right,0,3,0.7511815949328593,D24A05,2022-11-29_09h19.08.590,t1_Paradigm,2021.1.4,60.002637110659876,
H,right,Target,0,27,27,27,1631.7136278405014,1633.715812183109,left,0,3,0.8669485449208878,D24A05,2022-11-29_09h19.08.590,t1_Paradigm,2021.1.4,60.002637110659876,
G,right,Target,0,28,28,28,1635.213476903038,1637.2126633485022,None,0,3,,D24A05,2022-11-29_09h19.08.590,t1_Paradigm,2021.1.4,60.002637110659876,
D,left,Distractor,0,29,29,29,1638.7135367326628,1640.7155895463366,left,1,3,1.3553157736823778,D24A05,2022-11-29_09h19.08.590,t1_Paradigm,2021.1.4,60.002637110659876,
N,left,Pretarget,0,30,30,30,1642.213526948195,1644.2156407142975,right,0,3,0.7991918991028797,D24A05,2022-11-29_09h19.08.590,t1_Paradigm,2021.1.4,60.002637110659876,
V,left,Distractor,0,31,31,31,1645.7136316901306,1647.715509987378,right,0,3,1.3152658568578772,D24A05,2022-11-29_09h19.08.590,t1_Paradigm,2021.1.4,60.002637110659876,
R,left,Distractor,0,32,32,32,1649.213297253773,1651.2153282528961,None,0,3,,D24A05,2022-11-29_09h19.08.590,t1_Paradigm,2021.1.4,60.002637110659876,
N,right,Target,0,33,33,33,1652.7135293542087,1654.7156440827239,left,0,3,0.6511227277151193,D24A05,2022-11-29_09h19.08.590,t1_Paradigm,2021.1.4,60.002637110659876,
Z,left,Distractor,0,34,34,34,1656.2135670484713,1658.21557462903,left,1,3,0.6553608464018907,D24A05,2022-11-29_09h19.08.590,t1_Paradigm,2021.1.4,60.002637110659876,
N,left,Lure,0,35,35,35,1659.713595118672,1661.7154981176936,left,1,3,0.6274593904454377,D24A05,2022-11-29_09h19.08.590,t1_Paradigm,2021.1.4,60.002637110659876,
Y,left,Pretarget,0,36,36,36,1663.2135378554667,1665.2158643134753,left,1,3,0.5989137635406223,D24A05,2022-11-29_09h19.08.590,t1_Paradigm,2021.1.4,60.002637110659876,
Y,left,Lure,0,37,37,37,1666.7126022356679,1668.7135697752965,left,1,3,0.7653078017538064,D24A05,2022-11-29_09h19.08.590,t1_Paradigm,2021.1.4,60.002637110659876,
B,left,Distractor,0,38,38,38,1670.213543950711,1672.215466518668,left,1,3,0.7833670443069423,D24A05,2022-11-29_09h19.08.590,t1_Paradigm,2021.1.4,60.002637110659876,
Y,right,Target,0,39,39,39,1673.713610196377,1675.7153656263617,right,1,3,0.8034893662115792,D24A05,2022-11-29_09h19.08.590,t1_Paradigm,2021.1.4,60.002637110659876,
J,left,Distractor,0,40,40,40,1677.213435198748,1679.215311250373,left,1,3,0.8715841376106255,D24A05,2022-11-29_09h19.08.590,t1_Paradigm,2021.1.4,60.002637110659876,
X,left,Distractor,0,41,41,41,1680.7135309582227,1682.7156033408319,left,1,3,0.6352776623753016,D24A05,2022-11-29_09h19.08.590,t1_Paradigm,2021.1.4,60.002637110659876,
W,left,Pretarget,0,42,42,42,1684.2133482613353,1686.2154989197006,left,1,3,0.7833410593157168,D24A05,2022-11-29_09h19.08.590,t1_Paradigm,2021.1.4,60.002637110659876,
S,left,Pretarget,0,43,43,43,1687.7134866875058,1689.7158384888899,left,1,3,0.5951491489904583,D24A05,2022-11-29_09h19.08.590,t1_Paradigm,2021.1.4,60.002637110659876,
R,left,Distractor,0,44,44,44,1691.213469524584,1693.2157709600142,right,0,3,1.111286304796522,D24A05,2022-11-29_09h19.08.590,t1_Paradigm,2021.1.4,60.002637110659876,
W,right,Target,0,45,45,45,1694.713408411757,1696.7153377165596,left,0,3,0.8434934083197732,D24A05,2022-11-29_09h19.08.590,t1_Paradigm,2021.1.4,60.002637110659876,
S,right,Target,0,46,46,46,1698.213676121246,1700.2157180276408,right,1,3,0.7671164849089109,D24A05,2022-11-29_09h19.08.590,t1_Paradigm,2021.1.4,60.002637110659876,
D,left,Distractor,0,47,47,47,1701.713753915792,1703.7157460978415,left,1,3,0.8350710657177842,D24A05,2022-11-29_09h19.08.590,t1_Paradigm,2021.1.4,60.002637110659876,
T,left,Distractor,0,48,48,48,1705.2136581563173,1707.2154819171774,left,1,3,0.8234859336225782,D24A05,2022-11-29_09h19.08.590,t1_Paradigm,2021.1.4,60.002637110659876,
S,right,Target,0,49,49,49,1708.7136368229694,1710.7157512306803,left,0,3,1.0831172997422982,D24A05,2022-11-29_09h19.08.590,t1_Paradigm,2021.1.4,60.002637110659876,
K,left,Distractor,0,50,50,50,1712.213625755292,1714.2156480927515,right,0,3,0.703245075281302,D24A05,2022-11-29_09h19.08.590,t1_Paradigm,2021.1.4,60.002637110659876,
S,left,Lure,0,51,51,51,1715.713649334255,1717.7158256568,right,0,3,1.1871204307753942,D24A05,2022-11-29_09h19.08.590,t1_Paradigm,2021.1.4,60.002637110659876,
T,left,Pretarget,0,52,52,52,1719.2136116399925,1721.2158848448234,left,1,3,0.775298225802544,D24A05,2022-11-29_09h19.08.590,t1_Paradigm,2021.1.4,60.002637110659876,
V,left,Distractor,0,53,53,53,1722.7135864570082,1724.7157258872976,left,1,3,0.7151442727918038,D24A05,2022-11-29_09h19.08.590,t1_Paradigm,2021.1.4,60.002637110659876,
B,left,Distractor,0,54,54,54,1726.2136430786122,1728.2158210051712,right,0,3,0.8634652739565354,D24A05,2022-11-29_09h19.08.590,t1_Paradigm,2021.1.4,60.002637110659876,
T,right,Target,0,55,55,55,1729.71351138928,1731.7151834106771,right,1,3,0.7074331488183816,D24A05,2022-11-29_09h19.08.590,t1_Paradigm,2021.1.4,60.002637110659876,
Y,left,Pretarget,0,56,56,56,1733.213654306688,1735.215081876755,left,1,3,0.6800128962568124,D24A05,2022-11-29_09h19.08.590,t1_Paradigm,2021.1.4,60.002637110659876,
T,left,Lure,0,57,57,57,1736.7135277501948,1738.71576534598,right,0,3,0.6511785473121563,D24A05,2022-11-29_09h19.08.590,t1_Paradigm,2021.1.4,60.002637110659876,
P,left,Pretarget,0,58,58,58,1740.2135189281325,1742.2159506092867,left,1,3,0.6229617427306948,D24A05,2022-11-29_09h19.08.590,t1_Paradigm,2021.1.4,60.002637110659876,
Y,right,Target,0,59,59,59,1743.713655108695,1745.715663010058,right,1,3,0.8191932785484823,D24A05,2022-11-29_09h19.08.590,t1_Paradigm,2021.1.4,60.002637110659876,
R,left,Distractor,0,60,60,60,1747.2135115496858,1749.2149173051948,right,0,3,0.8241265757387737,D24A05,2022-11-29_09h19.08.590,t1_Paradigm,2021.1.4,60.002637110659876,
P,right,Target,0,61,61,61,1750.7136875097276,1752.7156918822584,left,0,3,1.2274670897022588,D24A05,2022-11-29_09h19.08.590,t1_Paradigm,2021.1.4,60.002637110659876,
L,left,Distractor,0,62,62,62,1754.2135519707663,1756.2155422280048,left,1,3,1.16734457531129,D24A05,2022-11-29_09h19.08.590,t1_Paradigm,2021.1.4,60.002637110659876,
V,left,Distractor,0,63,63,63,1757.7136878305246,1759.7159549401113,right,0,3,0.8989161695571966,D24A05,2022-11-29_09h19.08.590,t1_Paradigm,2021.1.4,60.002637110659876,
H,left,Lure,0,0,0,0,1774.9436668019407,1776.9323710334793,None,0,3,,D24A05,2022-11-29_09h19.08.590,t1_Paradigm,2021.1.4,60.002637110659876,
B,left,Distractor,0,1,1,1,1778.4302375380357,1780.4322739907948,None,0,3,,D24A05,2022-11-29_09h19.08.590,t1_Paradigm,2021.1.4,60.002637110659876,
T,left,Distractor,0,2,2,2,1781.930326881462,1783.9325744221132,None,0,3,,D24A05,2022-11-29_09h19.08.590,t1_Paradigm,2021.1.4,60.002637110659876,
R,left,Distractor,0,3,3,3,1785.4303174177985,1787.4323570785855,left,1,3,0.7665717626587139,D24A05,2022-11-29_09h19.08.590,t1_Paradigm,2021.1.4,60.002637110659876,
H,left,Pretarget,0,4,4,4,1788.9302559841672,1790.9322821712558,left,1,3,0.9148873101803474,D24A05,2022-11-29_09h19.08.590,t1_Paradigm,2021.1.4,60.002637110659876,
K,left,Distractor,0,5,5,5,1792.4302163650864,1794.4310587918299,left,1,3,0.7119538943006773,D24A05,2022-11-29_09h19.08.590,t1_Paradigm,2021.1.4,60.002637110659876,
G,left,Distractor,0,6,6,6,1795.930349337621,1797.932234371714,left,1,3,0.746830553849577,D24A05,2022-11-29_09h19.08.590,t1_Paradigm,2021.1.4,60.002637110659876,
H,right,Target,0,7,7,7,1799.4302442748813,1801.4324363167398,right,1,3,0.702501134837803,D24A05,2022-11-29_09h19.08.590,t1_Paradigm,2021.1.4,60.002637110659876,
Y,left,Pretarget,0,8,8,8,1802.9303336183148,1804.9325407378783,left,1,3,0.6422451667167479,D24A05,2022-11-29_09h19.08.590,t1_Paradigm,2021.1.4,60.002637110659876,
S,left,Distractor,0,9,9,9,1806.4302542197547,1808.4321729380827,left,1,3,1.2548613572798786,D24A05,2022-11-29_09h19.08.590,t1_Paradigm,2021.1.4,60.002637110659876,
P,left,Distractor,0,10,10,10,1809.9303974579598,1811.9326998558026,right,0,3,1.2585428840466193,D24A05,2022-11-29_09h19.08.590,t1_Paradigm,2021.1.4,60.002637110659876,
Y,right,Target,0,11,11,11,1813.4303456483976,1815.4321655596286,left,0,3,1.3749110174758243,D24A05,2022-11-29_09h19.08.590,t1_Paradigm,2021.1.4,60.002637110659876,
H,left,Lure,0,12,12,12,1816.9303387511463,1818.9325676852677,left,1,3,0.6263936853283667,D24A05,2022-11-29_09h19.08.590,t1_Paradigm,2021.1.4,60.002637110659876,
Q,left,Distractor,0,13,13,13,1820.430391202317,1822.4325049684267,left,1,3,1.030291432813101,D24A05,2022-11-29_09h19.08.590,t1_Paradigm,2021.1.4,60.002637110659876,
V,left,Pretarget,0,14,14,14,1823.9301315128905,1825.9320774994121,left,1,3,0.826881946370122,D24A05,2022-11-29_09h19.08.590,t1_Paradigm,2021.1.4,60.002637110659876,
G,left,Distractor,0,15,15,15,1827.4304168664967,1829.4325572591915,left,1,3,0.9423306605167454,D24A05,2022-11-29_09h19.08.590,t1_Paradigm,2021.1.4,60.002637110659876,
Z,left,Pretarget,0,16,16,16,1830.9302299991832,1832.9328079661645,right,0,3,0.8181798642035574,D24A05,2022-11-29_09h19.08.590,t1_Paradigm,2021.1.4,60.002637110659876,
V,right,Target,0,17,17,17,1834.4305108615663,1836.4318999353563,left,0,3,0.6791932464693673,D24A05,2022-11-29_09h19.08.590,t1_Paradigm,2021.1.4,60.002637110659876,
N,left,Distractor,0,18,18,18,1837.9301446657773,1839.9324181914126,left,1,3,0.8424751819402445,D24A05,2022-11-29_09h19.08.590,t1_Paradigm,2021.1.4,60.002637110659876,
Z,right,Target,0,19,19,19,1841.4303251170495,1843.4323756851154,right,1,3,0.8627810027319356,D24A05,2022-11-29_09h19.08.590,t1_Paradigm,2021.1.4,60.002637110659876,
R,left,Distractor,0,20,20,20,1844.930255663363,1846.9325526075627,right,0,3,1.4263564722714364,D24A05,2022-11-29_09h19.08.590,t1_Paradigm,2021.1.4,60.002637110659876,
P,left,Distractor,0,21,21,21,1848.4302401044552,1850.4319066722092,left,1,3,0.7751872282242402,D24A05,2022-11-29_09h19.08.590,t1_Paradigm,2021.1.4,60.002637110659876,
Z,right,Target,0,22,22,22,1851.93049466105,1853.9326084271524,right,1,3,0.8105216725962237,D24A05,2022-11-29_09h19.08.590,t1_Paradigm,2021.1.4,60.002637110659876,
D,left,Pretarget,0,23,23,23,1855.4302683350543,1857.4325903018253,left,1,3,0.4945988127074088,D24A05,2022-11-29_09h19.08.590,t1_Paradigm,2021.1.4,60.002637110659876,
K,left,Distractor,0,24,24,24,1858.9303592824945,1860.9322269932672,left,1,3,0.6908759024590836,D24A05,2022-11-29_09h19.08.590,t1_Paradigm,2021.1.4,60.002637110659876,
W,left,Distractor,0,25,25,25,1862.4304386810545,1864.429418850661,left,1,3,0.9377951581336674,D24A05,2022-11-29_09h19.08.590,t1_Paradigm,2021.1.4,60.002637110659876,
D,right,Target,0,26,26,26,1865.9303345807202,1867.9325808381618,right,1,3,0.5864005504990928,D24A05,2022-11-29_09h19.08.590,t1_Paradigm,2021.1.4,60.002637110659876,
G,left,Pretarget,0,27,27,27,1869.4303915231212,1871.4324488280326,left,1,3,0.862722295911226,D24A05,2022-11-29_09h19.08.590,t1_Paradigm,2021.1.4,60.002637110659876,
V,left,Distractor,0,28,28,28,1872.9303881546948,1874.931929930368,left,1,3,0.6751578748153406,D24A05,2022-11-29_09h19.08.590,t1_Paradigm,2021.1.4,60.002637110659876,
D,right,Target,0,29,29,29,1876.4303754830107,1878.432356436977,right,1,3,0.4387477804484661,D24A05,2022-11-29_09h19.08.590,t1_Paradigm,2021.1.4,60.002637110659876,
G,right,Target,0,30,30,30,1879.9303236734413,1881.932600086293,right,1,3,0.5061948520888109,D24A05,2022-11-29_09h19.08.590,t1_Paradigm,2021.1.4,60.002637110659876,
B,left,Pretarget,0,31,31,31,1883.4301008762704,1885.431914050656,left,1,3,0.9430428415362258,D24A05,2022-11-29_09h19.08.590,t1_Paradigm,2021.1.4,60.002637110659876,
N,left,Distractor,0,32,32,32,1886.9302954428422,1888.9298877031688,left,1,3,0.5653831902818638,D24A05,2022-11-29_09h19.08.590,t1_Paradigm,2021.1.4,60.002637110659876,
F,left,Distractor,0,33,33,33,1890.4303417987685,1892.4325967178738,left,1,3,0.6785744189037359,D24A05,2022-11-29_09h19.08.590,t1_Paradigm,2021.1.4,60.002637110659876,
B,right,Target,0,34,34,34,1893.9303445255864,1895.9327675450768,right,1,3,0.4261906174942851,D24A05,2022-11-29_09h19.08.590,t1_Paradigm,2021.1.4,60.002637110659876,
Q,left,Pretarget,0,35,35,35,1897.4302802047387,1899.4319984216563,left,1,3,0.47919228406681214,D24A05,2022-11-29_09h19.08.590,t1_Paradigm,2021.1.4,60.002637110659876,
S,left,Pretarget,0,36,36,36,1900.9303823802547,1902.932424286657,left,1,3,0.4025667388996226,D24A05,2022-11-29_09h19.08.590,t1_Paradigm,2021.1.4,60.002637110659876,
W,left,Distractor,0,37,37,37,1904.4304511923401,1906.4323971788617,left,1,3,1.2227291610906832,D24A05,2022-11-29_09h19.08.590,t1_Paradigm,2021.1.4,60.002637110659876,
Q,right,Target,0,38,38,38,1907.9303891171076,1909.9327117254797,left,0,3,1.4182860497530783,D24A05,2022-11-29_09h19.08.590,t1_Paradigm,2021.1.4,60.002637110659876,
S,right,Target,0,39,39,39,1911.4301589414827,1913.432688467321,right,1,3,0.5586209993925877,D24A05,2022-11-29_09h19.08.590,t1_Paradigm,2021.1.4,60.002637110659876,
T,left,Distractor,0,40,40,40,1914.9304503903331,1916.9322148027786,left,1,3,0.6108283595604007,D24A05,2022-11-29_09h19.08.590,t1_Paradigm,2021.1.4,60.002637110659876,
G,left,Distractor,0,41,41,41,1918.4303469316073,1920.4325675248692,left,1,3,1.3183737891667988,D24A05,2022-11-29_09h19.08.590,t1_Paradigm,2021.1.4,60.002637110659876,
D,left,Distractor,0,42,42,42,1921.930171933971,1923.9324762566248,left,1,3,1.0985450013395166,D24A05,2022-11-29_09h19.08.590,t1_Paradigm,2021.1.4,60.002637110659876,
S,left,Lure,0,43,43,43,1925.4303918439255,1927.4326278356893,left,1,3,0.9263213444210123,D24A05,2022-11-29_09h19.08.590,t1_Paradigm,2021.1.4,60.002637110659876,
Z,left,Pretarget,0,44,44,44,1928.930393608338,1930.9327762067405,left,1,3,0.5944289479157305,D24A05,2022-11-29_09h19.08.590,t1_Paradigm,2021.1.4,60.002637110659876,
J,left,Distractor,0,45,45,45,1932.4303100393445,1934.4324282966845,left,1,3,0.6787675418672734,D24A05,2022-11-29_09h19.08.590,t1_Paradigm,2021.1.4,60.002637110659876,
M,left,Pretarget,0,46,46,46,1935.9303916835197,1937.9324464220117,left,1,3,0.6186944310320541,D24A05,2022-11-29_09h19.08.590,t1_Paradigm,2021.1.4,60.002637110659876,
Z,right,Target,0,47,47,47,1939.4303504604322,1941.4326923169428,left,0,3,0.6543817579004099,D24A05,2022-11-29_09h19.08.590,t1_Paradigm,2021.1.4,60.002637110659876,
P,left,Distractor,0,48,48,48,1942.930558500695,1944.9309421802027,left,1,3,0.6124275588372257,D24A05,2022-11-29_09h19.08.590,t1_Paradigm,2021.1.4,60.002637110659876,
M,right,Target,0,49,49,49,1946.4304746109046,1948.4323371888386,right,1,3,0.726693795841129,D24A05,2022-11-29_09h19.08.590,t1_Paradigm,2021.1.4,60.002637110659876,
K,left,Distractor,0,50,50,50,1949.9301331168972,1951.9324002264839,left,1,3,0.5224460530953365,D24A05,2022-11-29_09h19.08.590,t1_Paradigm,2021.1.4,60.002637110659876,
Y,left,Distractor,0,51,51,51,1953.43043964346,1955.4324189934196,left,1,3,0.5265548884708551,D24A05,2022-11-29_09h19.08.590,t1_Paradigm,2021.1.4,60.002637110659876,
X,left,Distractor,0,52,52,52,1956.930343242384,1958.9311099597908,left,1,3,0.7236795377903036,D24A05,2022-11-29_09h19.08.590,t1_Paradigm,2021.1.4,60.002637110659876,
F,left,Pretarget,0,53,53,53,1960.4304454179,1962.4323978204702,left,1,3,0.6309680047925212,D24A05,2022-11-29_09h19.08.590,t1_Paradigm,2021.1.4,60.002637110659876,
M,left,Lure,0,54,54,54,1963.930448144718,1965.9323116850646,left,1,3,1.1789014768146444,D24A05,2022-11-29_09h19.08.590,t1_Paradigm,2021.1.4,60.002637110659876,
V,left,Distractor,0,55,55,55,1967.430269618264,1969.432589981021,right,0,3,1.086418034217786,D24A05,2022-11-29_09h19.08.590,t1_Paradigm,2021.1.4,60.002637110659876,
F,right,Target,0,56,56,56,1970.9304869617918,1972.9328538408881,right,1,3,0.9623663658057922,D24A05,2022-11-29_09h19.08.590,t1_Paradigm,2021.1.4,60.002637110659876,
S,left,Distractor,0,57,57,57,1974.430283091955,1976.4322322865046,left,1,3,1.334841531701386,D24A05,2022-11-29_09h19.08.590,t1_Paradigm,2021.1.4,60.002637110659876,
D,left,Distractor,0,58,58,58,1977.9305107011605,1979.9320075645155,left,1,3,0.5228249205611064,D24A05,2022-11-29_09h19.08.590,t1_Paradigm,2021.1.4,60.002637110659876,
F,right,Target,0,59,59,59,1981.429584705431,1983.4328588133212,right,1,3,0.43069179404119495,D24A05,2022-11-29_09h19.08.590,t1_Paradigm,2021.1.4,60.002637110659876,
V,left,Pretarget,0,60,60,60,1984.9302906308076,1986.9323822615625,left,1,3,1.170762081812427,D24A05,2022-11-29_09h19.08.590,t1_Paradigm,2021.1.4,60.002637110659876,
J,left,Distractor,0,61,61,61,1988.4303488564183,1990.4326358557446,None,0,3,,D24A05,2022-11-29_09h19.08.590,t1_Paradigm,2021.1.4,60.002637110659876,
V,left,Lure,0,62,62,62,1991.9305799944486,1993.9326520562608,left,1,3,0.8586391247226857,D24A05,2022-11-29_09h19.08.590,t1_Paradigm,2021.1.4,60.002637110659876,
V,right,Target,0,63,63,63,1995.430600044594,1997.4303305706926,right,1,3,0.5768653448540135,D24A05,2022-11-29_09h19.08.590,t1_Paradigm,2021.1.4,60.002637110659876,
R,left,Distractor,0,0,0,0,2057.9395977460445,2059.9327110838785,None,0,4,,D24A05,2022-11-29_09h19.08.590,t1_Paradigm,2021.1.4,60.002637110659876,
F,left,Distractor,0,1,1,1,2061.4305548114717,2063.4313516842885,None,0,4,,D24A05,2022-11-29_09h19.08.590,t1_Paradigm,2021.1.4,60.002637110659876,
P,left,Pretarget,0,2,2,2,2064.9304709216813,2066.9330838561073,None,0,4,,D24A05,2022-11-29_09h19.08.590,t1_Paradigm,2021.1.4,60.002637110659876,
H,left,Distractor,0,3,3,3,2068.4305317137114,2070.4323949332465,None,0,4,,D24A05,2022-11-29_09h19.08.590,t1_Paradigm,2021.1.4,60.002637110659876,
Z,left,Distractor,0,4,4,4,2071.930470600877,2073.932469519772,left,1,4,0.6346543435793137,D24A05,2022-11-29_09h19.08.590,t1_Paradigm,2021.1.4,60.002637110659876,
T,left,Distractor,0,5,5,5,2075.4303899191073,2077.4325126676777,left,1,4,0.3986276079158415,D24A05,2022-11-29_09h19.08.590,t1_Paradigm,2021.1.4,60.002637110659876,
P,right,Target,0,6,6,6,2078.947265882518,2080.9319283263612,right,1,4,0.643161698775657,D24A05,2022-11-29_09h19.08.590,t1_Paradigm,2021.1.4,60.002637110659876,
G,left,Distractor,0,7,7,7,2082.4304925758333,2084.4324991939866,left,1,4,0.7266071792328148,D24A05,2022-11-29_09h19.08.590,t1_Paradigm,2021.1.4,60.002637110659876,
L,left,Distractor,0,8,8,8,2085.9305331573196,2087.932795775676,left,1,4,1.0343072355317418,D24A05,2022-11-29_09h19.08.590,t1_Paradigm,2021.1.4,60.002637110659876,
P,left,Lure,0,9,9,9,2089.430402109596,2091.4315637345862,left,1,4,0.9279869497622713,D24A05,2022-11-29_09h19.08.590,t1_Paradigm,2021.1.4,60.002637110659876,
Q,left,Pretarget,0,10,10,10,2092.9304414078724,2094.9319719554696,left,1,4,0.7072878253966337,D24A05,2022-11-29_09h19.08.590,t1_Paradigm,2021.1.4,60.002637110659876,
D,left,Distractor,0,11,11,11,2096.4305727764004,2098.4321633140135,left,1,4,0.7113681093687774,D24A05,2022-11-29_09h19.08.590,t1_Paradigm,2021.1.4,60.002637110659876,
M,left,Pretarget,0,12,12,12,2099.9304234429437,2101.93252020653,left,1,4,0.7469130000317818,D24A05,2022-11-29_09h19.08.590,t1_Paradigm,2021.1.4,60.002637110659876,
C,left,Distractor,0,13,13,13,2103.4304143000845,2105.431798882644,left,1,4,0.6713865234196419,D24A05,2022-11-29_09h19.08.590,t1_Paradigm,2021.1.4,60.002637110659876,
Q,right,Target,0,14,14,14,2106.9303172574,2108.933000768324,right,1,4,0.5622932228943682,D24A05,2022-11-29_09h19.08.590,t1_Paradigm,2021.1.4,60.002637110659876,
R,left,Distractor,0,15,15,15,2110.430411412861,2112.4325046476224,left,1,4,0.8387679909938015,D24A05,2022-11-29_09h19.08.590,t1_Paradigm,2021.1.4,60.002637110659876,
M,right,Target,0,16,16,16,2113.930248284909,2115.9325827629727,right,1,4,1.0665802639196045,D24A05,2022-11-29_09h19.08.590,t1_Paradigm,2021.1.4,60.002637110659876,
S,left,Distractor,0,17,17,17,2117.4305548114717,2119.432072206175,left,1,4,0.6552209766159649,D24A05,2022-11-29_09h19.08.590,t1_Paradigm,2021.1.4,60.002637110659876,
Z,left,Distractor,0,18,18,18,2120.9304680344576,2122.9321541711543,left,1,4,1.1071450683884905,D24A05,2022-11-29_09h19.08.590,t1_Paradigm,2021.1.4,60.002637110659876,
L,left,Pretarget,0,19,19,19,2124.4304255281604,2126.4326599159176,left,1,4,1.0303815782535821,D24A05,2022-11-29_09h19.08.590,t1_Paradigm,2021.1.4,60.002637110659876,
M,right,Target,0,20,20,20,2127.9304327462087,2129.932306552226,right,1,4,0.8591783933225088,D24A05,2022-11-29_09h19.08.590,t1_Paradigm,2021.1.4,60.002637110659876,
P,left,Distractor,0,21,21,21,2131.4305362049417,2133.4325854897907,left,1,4,0.9592228244364378,D24A05,2022-11-29_09h19.08.590,t1_Paradigm,2021.1.4,60.002637110659876,
F,left,Distractor,0,22,22,22,2134.930296726052,2136.9312180701527,left,1,4,1.2519718913026736,D24A05,2022-11-29_09h19.08.590,t1_Paradigm,2021.1.4,60.002637110659876,
L,right,Target,0,23,23,23,2138.430458570794,2140.4327962568786,left,0,4,0.7745404908564524,D24A05,2022-11-29_09h19.08.590,t1_Paradigm,2021.1.4,60.002637110659876,
L,left,Lure,0,24,24,24,2141.930435312628,2143.9305177588103,left,1,4,1.1006549178200657,D24A05,2022-11-29_09h19.08.590,t1_Paradigm,2021.1.4,60.002637110659876,
V,left,Pretarget,0,25,25,25,2145.4307318943247,2147.432567204065,left,1,4,0.8787556721872534,D24A05,2022-11-29_09h19.08.590,t1_Paradigm,2021.1.4,60.002637110659876,
Z,left,Distractor,0,26,26,26,2148.930513588384,2150.932585329392,right,0,4,0.8826133193942951,D24A05,2022-11-29_09h19.08.590,t1_Paradigm,2021.1.4,60.002637110659876,
H,left,Distractor,0,27,27,27,2152.430470761283,2154.432583885784,left,1,4,0.854711542626319,D24A05,2022-11-29_09h19.08.590,t1_Paradigm,2021.1.4,60.002637110659876,
X,left,Distractor,0,28,28,28,2155.930552405458,2157.9323902816177,left,1,4,0.6668147703749128,D24A05,2022-11-29_09h19.08.590,t1_Paradigm,2021.1.4,60.002637110659876,
V,right,Target,0,29,29,29,2159.430461458018,2161.430845137518,right,1,4,0.43262943970330525,D24A05,2022-11-29_09h19.08.590,t1_Paradigm,2021.1.4,60.002637110659876,
C,left,Distractor,0,30,30,30,2162.930312124561,2164.932409529749,left,1,4,0.45081668235798134,D24A05,2022-11-29_09h19.08.590,t1_Paradigm,2021.1.4,60.002637110659876,
S,left,Pretarget,0,31,31,31,2166.4304242449507,2168.431981419133,left,1,4,0.903242188061995,D24A05,2022-11-29_09h19.08.590,t1_Paradigm,2021.1.4,60.002637110659876,
D,left,Distractor,0,32,32,32,2169.930441087068,2171.9296166252534,left,1,4,0.9576348532427801,D24A05,2022-11-29_09h19.08.590,t1_Paradigm,2021.1.4,60.002637110659876,
V,left,Distractor,0,33,33,33,2173.4304438138934,2175.431987193573,right,0,4,0.4793802741842228,D24A05,2022-11-29_09h19.08.590,t1_Paradigm,2021.1.4,60.002637110659876,
R,left,Distractor,0,34,34,34,2176.930601167398,2178.9328676353834,left,1,4,0.45037172961747274,D24A05,2022-11-29_09h19.08.590,t1_Paradigm,2021.1.4,60.002637110659876,
S,right,Target,0,35,35,35,2180.4305689267712,2182.4320978703545,right,1,4,0.615254789176106,D24A05,2022-11-29_09h19.08.590,t1_Paradigm,2021.1.4,60.002637110659876,
Y,left,Distractor,0,36,36,36,2183.9304770169256,2185.93282176066,left,1,4,0.426314447169716,D24A05,2022-11-29_09h19.08.590,t1_Paradigm,2021.1.4,60.002637110659876,
N,left,Pretarget,0,37,37,37,2187.4305451874025,2189.432634251738,left,1,4,1.1825964772724546,D24A05,2022-11-29_09h19.08.590,t1_Paradigm,2021.1.4,60.002637110659876,
Z,left,Pretarget,0,38,38,38,2190.9295563144333,2192.932406321728,right,0,4,0.7868320295456215,D24A05,2022-11-29_09h19.08.590,t1_Paradigm,2021.1.4,60.002637110659876,
P,left,Pretarget,0,39,39,39,2194.430473006898,2196.4319377900247,None,0,4,,D24A05,2022-11-29_09h19.08.590,t1_Paradigm,2021.1.4,60.002637110659876,
M,left,Distractor,0,40,40,40,2197.9304558439762,2199.932728728003,left,1,4,0.9066064413855202,D24A05,2022-11-29_09h19.08.590,t1_Paradigm,2021.1.4,60.002637110659876,
N,right,Target,0,41,41,41,2201.430340836363,2203.4324802666524,right,1,4,0.7187901905053877,D24A05,2022-11-29_09h19.08.590,t1_Paradigm,2021.1.4,60.002637110659876,
Z,right,Target,0,42,42,42,2204.9304689968703,2206.932325800364,right,1,4,0.4348991157094133,D24A05,2022-11-29_09h19.08.590,t1_Paradigm,2021.1.4,60.002637110659876,
P,right,Target,0,43,43,43,2208.430518240013,2210.431640085524,right,1,4,0.4236957383036497,D24A05,2022-11-29_09h19.08.590,t1_Paradigm,2021.1.4,60.002637110659876,
X,left,Pretarget,0,44,44,44,2211.930442370278,2213.929621437288,left,1,4,0.46185131777019706,D24A05,2022-11-29_09h19.08.590,t1_Paradigm,2021.1.4,60.002637110659876,
Z,left,Lure,0,45,45,45,2215.430452796354,2217.4324857202882,left,1,4,0.7987318686573417,D24A05,2022-11-29_09h19.08.590,t1_Paradigm,2021.1.4,60.002637110659876,
R,left,Pretarget,0,46,46,46,2218.930522891649,2220.9326231840605,left,1,4,0.5467789046888356,D24A05,2022-11-29_09h19.08.590,t1_Paradigm,2021.1.4,60.002637110659876,
K,left,Distractor,0,47,47,47,2222.4304665908494,2224.4306048566286,left,1,4,0.6330208184663206,D24A05,2022-11-29_09h19.08.590,t1_Paradigm,2021.1.4,60.002637110659876,
X,right,Target,0,48,48,48,2225.930555934283,2227.932039965548,right,1,4,0.587177212772076,D24A05,2022-11-29_09h19.08.590,t1_Paradigm,2021.1.4,60.002637110659876,
B,left,Distractor,0,49,49,49,2229.430598119776,2231.432822883464,left,1,4,0.7184623305947753,D24A05,2022-11-29_09h19.08.590,t1_Paradigm,2021.1.4,60.002637110659876,
R,right,Target,0,50,50,50,2232.930481508156,2234.9324031137076,right,1,4,0.8189116141656996,D24A05,2022-11-29_09h19.08.590,t1_Paradigm,2021.1.4,60.002637110659876,
Y,left,Pretarget,0,51,51,51,2236.4305092575523,2238.432645479814,left,1,4,0.9346942834672518,D24A05,2022-11-29_09h19.08.590,t1_Paradigm,2021.1.4,60.002637110659876,
W,left,Pretarget,0,52,52,52,2239.9305857688887,2241.9328827130885,left,1,4,0.6823938906381954,D24A05,2022-11-29_09h19.08.590,t1_Paradigm,2021.1.4,60.002637110659876,
Z,left,Distractor,0,53,53,53,2243.430514069587,2245.4328235250723,left,1,4,0.6225568902736995,D24A05,2022-11-29_09h19.08.590,t1_Paradigm,2021.1.4,60.002637110659876,
Q,left,Distractor,0,54,54,54,2246.930533798921,2248.9327816603763,left,1,4,0.5789152713114163,D24A05,2022-11-29_09h19.08.590,t1_Paradigm,2021.1.4,60.002637110659876,
Y,right,Target,0,55,55,55,2250.430555773877,2252.4330105527915,right,1,4,0.5342644084303174,D24A05,2022-11-29_09h19.08.590,t1_Paradigm,2021.1.4,60.002637110659876,
W,right,Target,0,56,56,56,2253.930380776248,2255.93266168033,right,1,4,0.5706218912237091,D24A05,2022-11-29_09h19.08.590,t1_Paradigm,2021.1.4,60.002637110659876,
H,left,Pretarget,0,57,57,57,2257.4305118239718,2259.4325909434338,left,1,4,0.7346811305760639,D24A05,2022-11-29_09h19.08.590,t1_Paradigm,2021.1.4,60.002637110659876,
M,left,Distractor,0,58,58,58,2260.93063485164,2262.9326084271524,left,1,4,0.8187598746953881,D24A05,2022-11-29_09h19.08.590,t1_Paradigm,2021.1.4,60.002637110659876,
R,left,Pretarget,0,59,59,59,2264.4305884957066,2266.4323981412745,left,1,4,0.5989288412456517,D24A05,2022-11-29_09h19.08.590,t1_Paradigm,2021.1.4,60.002637110659876,
J,left,Distractor,0,60,60,60,2267.930646079716,2269.9329308334272,left,1,4,0.6344397268694593,D24A05,2022-11-29_09h19.08.590,t1_Paradigm,2021.1.4,60.002637110659876,
H,right,Target,0,61,61,61,2271.430405638421,2273.4433971676335,right,1,4,1.139847330203338,D24A05,2022-11-29_09h19.08.590,t1_Paradigm,2021.1.4,60.002637110659876,
Z,left,Distractor,0,62,62,62,2274.930513909181,2276.9321082964307,left,1,4,0.6112944852502551,D24A05,2022-11-29_09h19.08.590,t1_Paradigm,2021.1.4,60.002637110659876,
R,right,Target,0,63,63,63,2278.4295911214795,2280.4324279758803,right,1,4,0.902861395778018,D24A05,2022-11-29_09h19.08.590,t1_Paradigm,2021.1.4,60.002637110659876,
J,left,Pretarget,0,0,0,0,2292.8276124131226,2294.8159477220615,None,0,4,,D24A05,2022-11-29_09h19.08.590,t1_Paradigm,2021.1.4,60.002637110659876,
G,left,Pretarget,0,1,1,1,2296.314019540063,2298.3160027396516,None,0,4,,D24A05,2022-11-29_09h19.08.590,t1_Paradigm,2021.1.4,60.002637110659876,
Z,left,Distractor,0,2,2,2,2299.813783589998,2301.8161940981954,None,0,4,,D24A05,2022-11-29_09h19.08.590,t1_Paradigm,2021.1.4,60.002637110659876,
F,left,Distractor,0,3,3,3,2303.31411128951,2305.315869606711,None,0,4,,D24A05,2022-11-29_09h19.08.590,t1_Paradigm,2021.1.4,60.002637110659876,
J,right,Target,0,4,4,4,2306.8139744673535,2308.8162611458683,right,1,4,0.5670731766003883,D24A05,2022-11-29_09h19.08.590,t1_Paradigm,2021.1.4,60.002637110659876,
G,right,Target,0,5,5,5,2310.3138992392196,2312.315634137849,right,1,4,0.4760272489511408,D24A05,2022-11-29_09h19.08.590,t1_Paradigm,2021.1.4,60.002637110659876,
H,left,Distractor,0,6,6,6,2313.8138410136016,2315.8160433211306,left,1,4,0.6550262496457435,D24A05,2022-11-29_09h19.08.590,t1_Paradigm,2021.1.4,60.002637110659876,
P,left,Distractor,0,7,7,7,2317.313720873164,2319.3153082027566,left,1,4,0.46797447054996155,D24A05,2022-11-29_09h19.08.590,t1_Paradigm,2021.1.4,60.002637110659876,
G,left,Lure,0,8,8,8,2320.8138605825516,2322.8159669702,right,0,4,0.6795913620735519,D24A05,2022-11-29_09h19.08.590,t1_Paradigm,2021.1.4,60.002637110659876,
S,left,Distractor,0,9,9,9,2324.3140561115288,2326.3158250152046,left,1,4,0.44350046596082393,D24A05,2022-11-29_09h19.08.590,t1_Paradigm,2021.1.4,60.002637110659876,
R,left,Pretarget,0,10,10,10,2327.813960672851,2329.8161347497808,left,1,4,0.5755378650937928,D24A05,2022-11-29_09h19.08.590,t1_Paradigm,2021.1.4,60.002637110659876,
T,left,Pretarget,0,11,11,11,2331.3139813645976,2333.316258098246,left,1,4,0.4030896465992555,D24A05,2022-11-29_09h19.08.590,t1_Paradigm,2021.1.4,60.002637110659876,
X,left,Distractor,0,12,12,12,2334.814213144229,2336.815911471407,left,1,4,0.8234358884656103,D24A05,2022-11-29_09h19.08.590,t1_Paradigm,2021.1.4,60.002637110659876,
F,left,Pretarget,0,13,13,13,2338.313919128952,2340.3162725343573,left,1,4,0.9231816526735201,D24A05,2022-11-29_09h19.08.590,t1_Paradigm,2021.1.4,60.002637110659876,
R,right,Target,0,14,14,14,2341.8139844122197,2343.8160593612556,right,1,4,0.847687256289646,D24A05,2022-11-29_09h19.08.590,t1_Paradigm,2021.1.4,60.002637110659876,
T,right,Target,0,15,15,15,2345.3136952089844,2347.316258098246,left,0,4,1.2351608903554734,D24A05,2022-11-29_09h19.08.590,t1_Paradigm,2021.1.4,60.002637110659876,
C,left,Distractor,0,16,16,16,2348.814149625381,2350.816383371537,left,1,4,1.2071195646130946,D24A05,2022-11-29_09h19.08.590,t1_Paradigm,2021.1.4,60.002637110659876,
F,right,Target,0,17,17,17,2352.31396404127,2354.3158067294717,left,0,4,0.6995513580477564,D24A05,2022-11-29_09h19.08.590,t1_Paradigm,2021.1.4,60.002637110659876,
M,left,Distractor,0,18,18,18,2355.8140030187496,2357.816030809845,left,1,4,0.7513188982993597,D24A05,2022-11-29_09h19.08.590,t1_Paradigm,2021.1.4,60.002637110659876,
N,left,Distractor,0,19,19,19,2359.3139229785884,2361.315901686932,left,1,4,0.6438790126412641,D24A05,2022-11-29_09h19.08.590,t1_Paradigm,2021.1.4,60.002637110659876,
R,left,Lure,0,20,20,20,2362.8140248333075,2364.8161751708685,left,1,4,0.8712659017764963,D24A05,2022-11-29_09h19.08.590,t1_Paradigm,2021.1.4,60.002637110659876,
F,right,Target,0,21,21,21,2366.3138642717677,2368.316165707205,right,1,4,0.7474442485836335,D24A05,2022-11-29_09h19.08.590,t1_Paradigm,2021.1.4,60.002637110659876,
P,left,Distractor,0,22,22,22,2369.8140216252796,2371.8162871308596,left,1,4,1.0551799139211653,D24A05,2022-11-29_09h19.08.590,t1_Paradigm,2021.1.4,60.002637110659876,
L,left,Pretarget,0,23,23,23,2373.31390373045,2375.3162863288453,left,1,4,0.9632286822889,D24A05,2022-11-29_09h19.08.590,t1_Paradigm,2021.1.4,60.002637110659876,
T,left,Distractor,0,24,24,24,2376.8140902769665,2378.8162605042744,left,1,4,0.8712110445776489,D24A05,2022-11-29_09h19.08.590,t1_Paradigm,2021.1.4,60.002637110659876,
F,left,Distractor,0,25,25,25,2380.313120652121,2382.3159328047623,right,0,4,0.6194624316412956,D24A05,2022-11-29_09h19.08.590,t1_Paradigm,2021.1.4,60.002637110659876,
V,left,Distractor,0,26,26,26,2383.8131798401446,2385.816090799868,left,1,4,0.9435089672333561,D24A05,2022-11-29_09h19.08.590,t1_Paradigm,2021.1.4,60.002637110659876,
L,right,Target,0,27,27,27,2387.31389218157,2389.315958468942,right,1,4,0.45144352997886017,D24A05,2022-11-29_09h19.08.590,t1_Paradigm,2021.1.4,60.002637110659876,
S,left,Pretarget,0,28,28,28,2390.814104071469,2392.8164215470024,left,1,4,0.8710018815036165,D24A05,2022-11-29_09h19.08.590,t1_Paradigm,2021.1.4,60.002637110659876,
W,left,Distractor,0,29,29,29,2394.3135611136386,2396.313271108389,left,1,4,1.038160391515703,D24A05,2022-11-29_09h19.08.590,t1_Paradigm,2021.1.4,60.002637110659876,
Q,left,Distractor,0,30,30,30,2397.814014246833,2399.81626146668,left,1,4,0.47928114629758056,D24A05,2022-11-29_09h19.08.590,t1_Paradigm,2021.1.4,60.002637110659876,
L,right,Target,0,31,31,31,2401.314021144077,2403.3164063088916,right,1,4,0.3870049419492716,D24A05,2022-11-29_09h19.08.590,t1_Paradigm,2021.1.4,60.002637110659876,
S,right,Target,0,32,32,32,2404.8139414247125,2406.816187361357,left,0,4,1.2073203868203564,D24A05,2022-11-29_09h19.08.590,t1_Paradigm,2021.1.4,60.002637110659876,
Z,left,Pretarget,0,33,33,33,2408.3138947479893,2410.316285045643,left,1,4,0.8275877113483148,D24A05,2022-11-29_09h19.08.590,t1_Paradigm,2021.1.4,60.002637110659876,
F,left,Distractor,0,34,34,34,2411.8138779058645,2413.8157902081584,right,0,4,1.1517205427226145,D24A05,2022-11-29_09h19.08.590,t1_Paradigm,2021.1.4,60.002637110659876,
V,left,Distractor,0,35,35,35,2415.313954096404,2417.313174226103,left,1,4,1.094372967912932,D24A05,2022-11-29_09h19.08.590,t1_Paradigm,2021.1.4,60.002637110659876,
M,left,Distractor,0,36,36,36,2418.813923459791,2420.8164401535323,left,1,4,0.9189874839066761,D24A05,2022-11-29_09h19.08.590,t1_Paradigm,2021.1.4,60.002637110659876,
Z,right,Target,0,37,37,37,2422.313144070693,2424.315663651665,left,0,4,0.7639081414672546,D24A05,2022-11-29_09h19.08.590,t1_Paradigm,2021.1.4,60.002637110659876,
H,left,Pretarget,0,38,38,38,2425.8140097556025,2427.8139529735927,left,1,4,0.7375272882345598,D24A05,2022-11-29_09h19.08.590,t1_Paradigm,2021.1.4,60.002637110659876,
L,left,Distractor,0,39,39,39,2429.3142357607867,2431.3159655265918,left,1,4,0.7715772403607843,D24A05,2022-11-29_09h19.08.590,t1_Paradigm,2021.1.4,60.002637110659876,
G,left,Distractor,0,40,40,40,2432.813793214067,2434.815726047702,right,0,4,0.8717384435003623,D24A05,2022-11-29_09h19.08.590,t1_Paradigm,2021.1.4,60.002637110659876,
K,left,Distractor,0,41,41,41,2436.3139518507815,2438.3160399527114,left,1,4,1.1636072289693402,D24A05,2022-11-29_09h19.08.590,t1_Paradigm,2021.1.4,60.002637110659876,
H,right,Target,0,42,42,42,2439.81403766539,2441.8163779179013,right,1,4,0.799055878946092,D24A05,2022-11-29_09h19.08.590,t1_Paradigm,2021.1.4,60.002637110659876,
B,left,Distractor,0,43,43,43,2443.3140561115288,2445.31475353564,left,1,4,0.7567699703504331,D24A05,2022-11-29_09h19.08.590,t1_Paradigm,2021.1.4,60.002637110659876,
Z,left,Distractor,0,44,44,44,2446.8141457757592,2448.8164273214497,left,1,4,0.5510057952924399,D24A05,2022-11-29_09h19.08.590,t1_Paradigm,2021.1.4,60.002637110659876,
T,left,Pretarget,0,45,45,45,2450.313985855828,2452.316359792574,left,1,4,0.4590526388346916,D24A05,2022-11-29_09h19.08.590,t1_Paradigm,2021.1.4,60.002637110659876,
H,right,Target,0,46,46,46,2453.8141056754685,2455.8163025293616,right,1,4,0.6709252097643912,D24A05,2022-11-29_09h19.08.590,t1_Paradigm,2021.1.4,60.002637110659876,
F,left,Distractor,0,47,47,47,2457.3139852142194,2459.316173406449,left,1,4,0.515260724016116,D24A05,2022-11-29_09h19.08.590,t1_Paradigm,2021.1.4,60.002637110659876,
R,left,Distractor,0,48,48,48,2460.814004301952,2462.8156298070244,left,1,4,0.7760341461835196,D24A05,2022-11-29_09h19.08.590,t1_Paradigm,2021.1.4,60.002637110659876,
T,right,Target,0,49,49,49,2464.3139775149757,2466.3160999427346,left,0,4,0.9234658834902802,D24A05,2022-11-29_09h19.08.590,t1_Paradigm,2021.1.4,60.002637110659876,
H,right,Target,0,50,50,50,2467.8138477504544,2469.816411922933,None,0,4,,D24A05,2022-11-29_09h19.08.590,t1_Paradigm,2021.1.4,60.002637110659876,
Y,left,Pretarget,0,51,51,51,2471.3141055150772,2473.315938579195,left,1,4,0.7076140813005622,D24A05,2022-11-29_09h19.08.590,t1_Paradigm,2021.1.4,60.002637110659876,
H,left,Distractor,0,52,52,52,2474.8141092042933,2476.815975311052,None,0,4,,D24A05,2022-11-29_09h19.08.590,t1_Paradigm,2021.1.4,60.002637110659876,
S,left,Distractor,0,53,53,53,2478.314110968713,2480.316380003118,left,1,4,0.6670893771224655,D24A05,2022-11-29_09h19.08.590,t1_Paradigm,2021.1.4,60.002637110659876,
Q,left,Distractor,0,54,54,54,2481.814171119142,2483.815797907402,left,1,4,0.7196108026982984,D24A05,2022-11-29_09h19.08.590,t1_Paradigm,2021.1.4,60.002637110659876,
Y,right,Target,0,55,55,55,2485.31385496851,2487.31648137662,right,1,4,0.8189911731315078,D24A05,2022-11-29_09h19.08.590,t1_Paradigm,2021.1.4,60.002637110659876,
R,left,Distractor,0,56,56,56,2488.8139866578276,2490.8144806933124,left,1,4,0.8730877378111472,D24A05,2022-11-29_09h19.08.590,t1_Paradigm,2021.1.4,60.002637110659876,
H,left,Pretarget,0,57,57,57,2492.3139720613253,2494.3161127748317,left,1,4,0.6514659861422842,D24A05,2022-11-29_09h19.08.590,t1_Paradigm,2021.1.4,60.002637110659876,
J,left,Distractor,0,58,58,58,2495.814057875934,2497.8164083941083,left,1,4,0.5271798112662509,D24A05,2022-11-29_09h19.08.590,t1_Paradigm,2021.1.4,60.002637110659876,
V,left,Distractor,0,59,59,59,2499.314171279533,2501.316360113371,left,1,4,0.5150868491909932,D24A05,2022-11-29_09h19.08.590,t1_Paradigm,2021.1.4,60.002637110659876,
Y,left,Lure,0,60,60,60,2502.8141201115795,2504.815949967684,left,1,4,0.5993744355801027,D24A05,2022-11-29_09h19.08.590,t1_Paradigm,2021.1.4,60.002637110659876,
H,right,Target,0,61,61,61,2506.3142671994137,2508.3162234516058,right,1,4,0.6032324035913916,D24A05,2022-11-29_09h19.08.590,t1_Paradigm,2021.1.4,60.002637110659876,
L,left,Distractor,0,62,62,62,2509.8139516903902,2511.8157135364163,left,1,4,0.7517012946045725,D24A05,2022-11-29_09h19.08.590,t1_Paradigm,2021.1.4,60.002637110659876,
P,left,Distractor,0,63,63,63,2513.313120331324,2515.315782669306,right,0,4,0.9798401442385511,D24A05,2022-11-29_09h19.08.590,t1_Paradigm,2021.1.4,60.002637110659876,
