Letter,CorrAnswer,Stimulus,finaln_nback_run.thisRepN,finaln_nback_run.thisTrialN,finaln_nback_run.thisN,finaln_nback_run.thisIndex,finaln_fixcross.started,finaln_nback_trial.started,finaln_trial_resp.keys,finaln_trial_resp.corr,finaln_level,finaln_money,finaln_trial_resp.rt,Participant,date,expName,psychopyVersion,frameRate,
T,left,Distractor,0,0,0,0,2879.9116600394336,2881.9163427900494,None,0,0,2.59,,D24A05,2022-11-29_09h19.08.590,t1_Paradigm,2021.1.4,60.002637110659876,
F,left,Distractor,0,1,1,1,2883.414265114203,2885.416704815405,left,1,0,2.59,0.7670436627959134,D24A05,2022-11-29_09h19.08.590,t1_Paradigm,2021.1.4,60.002637110659876,
G,left,Distractor,0,2,2,2,2886.914270407433,2888.9163713414455,left,1,0,2.59,0.4194245769758709,D24A05,2022-11-29_09h19.08.590,t1_Paradigm,2021.1.4,60.002637110659876,
V,left,Distractor,0,3,3,3,2890.4144284025533,2892.4166926249163,left,1,0,2.59,0.6150619870168157,D24A05,2022-11-29_09h19.08.590,t1_Paradigm,2021.1.4,60.002637110659876,
H,left,Distractor,0,4,4,4,2893.9142655954056,2895.916224414017,left,1,0,2.59,0.6674624701408902,D24A05,2022-11-29_09h19.08.590,t1_Paradigm,2021.1.4,60.002637110659876,
C,left,Pretarget,0,5,5,5,2897.4143581468525,2899.4159929551824,left,1,0,2.59,0.4639166427368764,D24A05,2022-11-29_09h19.08.590,t1_Paradigm,2021.1.4,60.002637110659876,
C,right,Target,0,6,6,6,2900.914432733378,2902.914347399972,right,1,0,2.59,0.517253547674045,D24A05,2022-11-29_09h19.08.590,t1_Paradigm,2021.1.4,60.002637110659876,
C,right,Target,0,7,7,7,2904.414494487821,2906.4143449939584,right,1,0,2.59,0.409568569084513,D24A05,2022-11-29_09h19.08.590,t1_Paradigm,2021.1.4,60.002637110659876,
W,left,Distractor,0,8,8,8,2907.9144128436456,2909.91664626899,left,1,0,2.59,0.4910051857732469,D24A05,2022-11-29_09h19.08.590,t1_Paradigm,2021.1.4,60.002637110659876,
R,left,Pretarget,0,9,9,9,2911.414409475212,2913.416333326386,left,1,0,2.59,0.7035087747499347,D24A05,2022-11-29_09h19.08.590,t1_Paradigm,2021.1.4,60.002637110659876,
R,right,Target,0,10,10,10,2914.9134475496394,2916.9144436406496,left,0,0,2.59,0.6933515335113043,D24A05,2022-11-29_09h19.08.590,t1_Paradigm,2021.1.4,60.002637110659876,
Z,left,Distractor,0,11,11,11,2918.4143764325854,2920.4161937774043,left,1,0,2.59,0.7118351974495454,D24A05,2022-11-29_09h19.08.590,t1_Paradigm,2021.1.4,60.002637110659876,
R,left,Lure,0,12,12,12,2921.9143765929766,2923.9160142885376,right,0,0,2.59,0.7157576467288891,D24A05,2022-11-29_09h19.08.590,t1_Paradigm,2021.1.4,60.002637110659876,
H,left,Pretarget,0,13,13,13,2925.414430648161,2927.416284885243,left,1,0,2.59,0.5436052079166984,D24A05,2022-11-29_09h19.08.590,t1_Paradigm,2021.1.4,60.002637110659876,
H,right,Target,0,14,14,14,2928.914311470129,2930.9144583975576,right,1,0,2.59,0.5494175032799831,D24A05,2022-11-29_09h19.08.590,t1_Paradigm,2021.1.4,60.002637110659876,
K,left,Distractor,0,15,15,15,2932.4142891743686,2934.416445286377,left,1,0,2.59,0.5994007413828513,D24A05,2022-11-29_09h19.08.590,t1_Paradigm,2021.1.4,60.002637110659876,
J,left,Distractor,0,16,16,16,2935.9143326430785,2937.9167162038793,left,1,0,2.59,0.6029128845402738,D24A05,2022-11-29_09h19.08.590,t1_Paradigm,2021.1.4,60.002637110659876,
H,left,Lure,0,17,17,17,2939.414289815977,2941.416649316612,right,0,0,2.59,0.7672127255937085,D24A05,2022-11-29_09h19.08.590,t1_Paradigm,2021.1.4,60.002637110659876,
S,left,Distractor,0,18,18,18,2942.914460963977,2944.916383211137,left,1,0,2.59,0.7074042766180355,D24A05,2022-11-29_09h19.08.590,t1_Paradigm,2021.1.4,60.002637110659876,
T,left,Pretarget,0,19,19,19,2946.414402096765,2948.4150908592273,left,1,0,2.59,0.6167689758585766,D24A05,2022-11-29_09h19.08.590,t1_Paradigm,2021.1.4,60.002637110659876,
T,right,Target,0,20,20,20,2949.9142931843962,2951.914548222194,right,1,0,2.59,0.5092306039005052,D24A05,2022-11-29_09h19.08.590,t1_Paradigm,2021.1.4,60.002637110659876,
X,left,Pretarget,0,21,21,21,2953.4143950391153,2955.4164359831047,left,1,0,2.59,0.4955916957114823,D24A05,2022-11-29_09h19.08.590,t1_Paradigm,2021.1.4,60.002637110659876,
X,right,Target,0,22,22,22,2956.914378517802,2958.9144035403733,right,1,0,2.59,0.709478904856951,D24A05,2022-11-29_09h19.08.590,t1_Paradigm,2021.1.4,60.002637110659876,
W,left,Distractor,0,23,23,23,2960.4144864677655,2962.41678020393,left,1,0,2.59,0.807203293996281,D24A05,2022-11-29_09h19.08.590,t1_Paradigm,2021.1.4,60.002637110659876,
K,left,Distractor,0,24,24,24,2963.914156201834,2965.9165551611513,left,1,0,2.59,0.7476514868321829,D24A05,2022-11-29_09h19.08.590,t1_Paradigm,2021.1.4,60.002637110659876,
F,left,Pretarget,0,25,25,25,2967.414293986396,2969.4164581184596,left,1,0,2.59,0.5275949294009479,D24A05,2022-11-29_09h19.08.590,t1_Paradigm,2021.1.4,60.002637110659876,
F,right,Target,0,26,26,26,2970.9143345678895,2972.914425996525,right,1,0,2.59,0.8536455167050008,D24A05,2022-11-29_09h19.08.590,t1_Paradigm,2021.1.4,60.002637110659876,
Z,left,Distractor,0,27,27,27,2974.4143228586036,2976.416261145874,left,1,0,2.59,0.4876258547301404,D24A05,2022-11-29_09h19.08.590,t1_Paradigm,2021.1.4,60.002637110659876,
F,left,Lure,0,28,28,28,2977.914316923765,2979.916277987999,left,1,0,2.59,0.587349804394762,D24A05,2022-11-29_09h19.08.590,t1_Paradigm,2021.1.4,60.002637110659876,
P,left,Distractor,0,29,29,29,2981.4142481116724,2983.4164651761093,left,1,0,2.59,0.49554742500185966,D24A05,2022-11-29_09h19.08.590,t1_Paradigm,2021.1.4,60.002637110659876,
F,left,Lure,0,30,30,30,2984.9144548687327,2986.916706259013,left,1,0,2.59,0.49904769848217256,D24A05,2022-11-29_09h19.08.590,t1_Paradigm,2021.1.4,60.002637110659876,
R,left,Distractor,0,31,31,31,2988.41441268324,2990.4165870809666,left,1,0,2.59,0.6478114067576826,D24A05,2022-11-29_09h19.08.590,t1_Paradigm,2021.1.4,60.002637110659876,
V,left,Distractor,0,32,32,32,2991.914323981415,2993.916793838027,left,1,0,2.59,0.6830018109321827,D24A05,2022-11-29_09h19.08.590,t1_Paradigm,2021.1.4,60.002637110659876,
M,left,Pretarget,0,33,33,33,2995.4143212545896,2997.4161280129338,left,1,0,2.59,0.41578122568898834,D24A05,2022-11-29_09h19.08.590,t1_Paradigm,2021.1.4,60.002637110659876,
M,right,Target,0,34,34,34,2998.9143512496084,3000.9142928635993,right,1,0,2.59,0.5015637506294297,D24A05,2022-11-29_09h19.08.590,t1_Paradigm,2021.1.4,60.002637110659876,
M,right,Target,0,35,35,35,3002.4143318410643,3004.4145204727974,right,1,0,2.59,0.5053735982946819,D24A05,2022-11-29_09h19.08.590,t1_Paradigm,2021.1.4,60.002637110659876,
D,left,Distractor,0,36,36,36,3005.9145023474703,3007.9165108904417,left,1,0,2.59,0.4912788301007822,D24A05,2022-11-29_09h19.08.590,t1_Paradigm,2021.1.4,60.002637110659876,
M,left,Lure,0,37,37,37,3009.414452141922,3011.4165511511237,right,0,0,2.59,0.4955092495365534,D24A05,2022-11-29_09h19.08.590,t1_Paradigm,2021.1.4,60.002637110659876,
F,left,Distractor,0,38,38,38,3012.9144596807746,3014.9167155622854,left,1,0,2.59,0.5311850275029428,D24A05,2022-11-29_09h19.08.590,t1_Paradigm,2021.1.4,60.002637110659876,
T,left,Pretarget,0,39,39,39,3016.4143039312767,3018.416461968096,left,1,0,2.59,0.5034673912450671,D24A05,2022-11-29_09h19.08.590,t1_Paradigm,2021.1.4,60.002637110659876,
T,right,Target,0,40,40,40,3019.9144754000736,3021.914488873779,right,1,0,2.59,0.6534697170573054,D24A05,2022-11-29_09h19.08.590,t1_Paradigm,2021.1.4,60.002637110659876,
Z,left,Distractor,0,41,41,41,3023.4142372044007,3025.416273336363,left,1,0,2.59,0.5437123558513122,D24A05,2022-11-29_09h19.08.590,t1_Paradigm,2021.1.4,60.002637110659876,
S,left,Distractor,0,42,42,42,3026.9144112396316,3028.916773627483,left,1,0,2.59,0.5792559633118799,D24A05,2022-11-29_09h19.08.590,t1_Paradigm,2021.1.4,60.002637110659876,
D,left,Distractor,0,43,43,43,3030.414502507876,3032.4167920736218,left,1,0,2.59,0.567122900945833,D24A05,2022-11-29_09h19.08.590,t1_Paradigm,2021.1.4,60.002637110659876,
Y,left,Pretarget,0,44,44,44,3033.9145135755534,3035.9166860484693,left,1,0,2.59,0.5230449909140589,D24A05,2022-11-29_09h19.08.590,t1_Paradigm,2021.1.4,60.002637110659876,
Y,right,Target,0,45,45,45,3037.414439309825,3039.4143446731614,right,1,0,2.59,0.6416362840245711,D24A05,2022-11-29_09h19.08.590,t1_Paradigm,2021.1.4,60.002637110659876,
Z,left,Pretarget,0,46,46,46,3040.9144365829998,3042.9159270303207,left,1,0,2.59,0.6441013286093948,D24A05,2022-11-29_09h19.08.590,t1_Paradigm,2021.1.4,60.002637110659876,
Z,right,Target,0,47,47,47,3044.414156362225,3046.414517585581,right,1,0,2.59,0.5693608175351983,D24A05,2022-11-29_09h19.08.590,t1_Paradigm,2021.1.4,60.002637110659876,
H,left,Pretarget,0,48,48,48,3047.9144465278805,3049.9166064895107,left,1,0,2.59,0.6512735047872411,D24A05,2022-11-29_09h19.08.590,t1_Paradigm,2021.1.4,60.002637110659876,
H,right,Target,0,49,49,49,3051.4145256056363,3053.414340181931,right,1,0,2.59,0.7696033440442989,D24A05,2022-11-29_09h19.08.590,t1_Paradigm,2021.1.4,60.002637110659876,
Z,left,Lure,0,50,50,50,3054.9144224677,3056.916465015718,left,1,0,2.59,0.5153229596617166,D24A05,2022-11-29_09h19.08.590,t1_Paradigm,2021.1.4,60.002637110659876,
R,left,Distractor,0,51,51,51,3058.414619921503,3060.416617236391,left,1,0,2.59,0.551598958671093,D24A05,2022-11-29_09h19.08.590,t1_Paradigm,2021.1.4,60.002637110659876,
H,left,Lure,0,52,52,52,3061.914358307258,3063.917158269396,left,1,0,2.59,0.6188095990510192,D24A05,2022-11-29_09h19.08.590,t1_Paradigm,2021.1.4,60.002637110659876,
L,left,Distractor,0,53,53,53,3065.414407550401,3067.4163869003532,left,1,0,2.59,0.6396389691362856,D24A05,2022-11-29_09h19.08.590,t1_Paradigm,2021.1.4,60.002637110659876,
N,left,Pretarget,0,54,54,54,3068.914506197092,3070.91672614876,left,1,0,2.59,0.4990704754454782,D24A05,2022-11-29_09h19.08.590,t1_Paradigm,2021.1.4,60.002637110659876,
N,right,Target,0,55,55,55,3072.414382207018,3074.414550949019,right,1,0,2.59,0.537394155311631,D24A05,2022-11-29_09h19.08.590,t1_Paradigm,2021.1.4,60.002637110659876,
W,left,Distractor,0,56,56,56,3075.913672752824,3077.9162981985282,left,1,0,2.59,0.635700800572522,D24A05,2022-11-29_09h19.08.590,t1_Paradigm,2021.1.4,60.002637110659876,
R,left,Pretarget,0,57,57,57,3079.414385735843,3081.4159631205694,left,1,0,2.59,0.6241114980366547,D24A05,2022-11-29_09h19.08.590,t1_Paradigm,2021.1.4,60.002637110659876,
R,right,Target,0,58,58,58,3082.9144506982993,3084.914474116871,right,1,0,2.59,0.5817097798280884,D24A05,2022-11-29_09h19.08.590,t1_Paradigm,2021.1.4,60.002637110659876,
Q,left,Distractor,0,59,59,59,3086.4144685028295,3088.416665998331,left,1,0,2.59,0.5992881397833116,D24A05,2022-11-29_09h19.08.590,t1_Paradigm,2021.1.4,60.002637110659876,
R,left,Lure,0,60,60,60,3089.914445565475,3091.9168698681606,left,1,0,2.59,0.81127523710893,D24A05,2022-11-29_09h19.08.590,t1_Paradigm,2021.1.4,60.002637110659876,
Z,left,Distractor,0,61,61,61,3093.4137620962574,3095.4163528953213,left,1,0,2.59,0.6876175138750114,D24A05,2022-11-29_09h19.08.590,t1_Paradigm,2021.1.4,60.002637110659876,
K,left,Pretarget,0,62,62,62,3096.9146261771384,3098.9165558027453,left,1,0,2.59,0.5317637547996128,D24A05,2022-11-29_09h19.08.590,t1_Paradigm,2021.1.4,60.002637110659876,
K,right,Target,0,63,63,63,3100.413478186252,3102.4144367434055,right,1,0,2.59,0.8576237855595537,D24A05,2022-11-29_09h19.08.590,t1_Paradigm,2021.1.4,60.002637110659876,
