Letter,CorrAnswer,Stimulus,nback_run.thisRepN,nback_run.thisTrialN,nback_run.thisN,nback_run.thisIndex,fixcross.started,nback_trial.started,trial_resp.keys,trial_resp.corr,currentlevel,trial_resp.rt,Participant,date,expName,psychopyVersion,frameRate,
H,left,Distractor,0,0,0,0,40.856718985247426,42.80205390637275,None,0,1,,D24O05,2022-11-04_10h42.41.050,t1_Paradigm,2021.1.4,59.902263378370556,
Q,left,Pretarget,0,1,1,1,44.3010651927907,46.3045090084197,left,1,1,0.5664911449421197,D24O05,2022-11-04_10h42.41.050,t1_Paradigm,2021.1.4,59.902263378370556,
Q,right,Target,0,2,2,2,47.801016109995544,49.80123970936984,right,1,1,0.6538591586286202,D24O05,2022-11-04_10h42.41.050,t1_Paradigm,2021.1.4,59.902263378370556,
T,left,Distractor,0,3,3,3,51.30124131345656,53.303203342016786,left,1,1,0.5438925285125151,D24O05,2022-11-04_10h42.41.050,t1_Paradigm,2021.1.4,59.902263378370556,
Q,left,Lure,0,4,4,4,54.8011264661327,56.80301855970174,right,0,1,0.7880717263324186,D24O05,2022-11-04_10h42.41.050,t1_Paradigm,2021.1.4,59.902263378370556,
L,left,Distractor,0,5,5,5,58.301297133089975,60.30317479057703,left,1,1,0.8878920127172023,D24O05,2022-11-04_10h42.41.050,t1_Paradigm,2021.1.4,59.902263378370556,
V,left,Pretarget,0,6,6,6,61.8012345766183,63.80117522808723,left,1,1,0.7018149725627154,D24O05,2022-11-04_10h42.41.050,t1_Paradigm,2021.1.4,59.902263378370556,
V,right,Target,0,7,7,7,65.30094136309344,67.30116239597555,right,1,1,0.6419769522035494,D24O05,2022-11-04_10h42.41.050,t1_Paradigm,2021.1.4,59.902263378370556,
K,left,Distractor,0,8,8,8,68.80111203005072,70.8032168156933,left,1,1,0.5639670703094453,D24O05,2022-11-04_10h42.41.050,t1_Paradigm,2021.1.4,59.902263378370556,
G,left,Pretarget,0,9,9,9,72.30117137846537,74.30062858050223,left,1,1,0.714603767148219,D24O05,2022-11-04_10h42.41.050,t1_Paradigm,2021.1.4,59.902263378370556,
G,right,Target,0,10,10,10,75.80117747373879,77.8011322405655,right,1,1,0.9580204171361402,D24O05,2022-11-04_10h42.41.050,t1_Paradigm,2021.1.4,59.902263378370556,
G,right,Target,0,11,11,11,79.30106904241256,81.30126216565259,right,1,1,0.3857862646691501,D24O05,2022-11-04_10h42.41.050,t1_Paradigm,2021.1.4,59.902263378370556,
P,left,Pretarget,0,12,12,12,82.80120345868636,84.80357226496562,left,1,1,0.4674609951907769,D24O05,2022-11-04_10h42.41.050,t1_Paradigm,2021.1.4,59.902263378370556,
P,right,Target,0,13,13,13,86.30119415547233,88.30129200022202,left,0,1,0.4418978424509987,D24O05,2022-11-04_10h42.41.050,t1_Paradigm,2021.1.4,59.902263378370556,
G,left,Lure,0,14,14,14,89.80127788498066,91.80281613324769,left,1,1,0.8603052372345701,D24O05,2022-11-04_10h42.41.050,t1_Paradigm,2021.1.4,59.902263378370556,
Y,left,Distractor,0,15,15,15,93.3002814721549,95.30316677049268,left,1,1,0.9120792433386669,D24O05,2022-11-04_10h42.41.050,t1_Paradigm,2021.1.4,59.902263378370556,
B,left,Distractor,0,16,16,16,96.80028115131427,98.80322643974796,left,1,1,0.4838376456173137,D24O05,2022-11-04_10h42.41.050,t1_Paradigm,2021.1.4,59.902263378370556,
T,left,Pretarget,0,17,17,17,100.30031900608446,102.30305833916645,left,1,1,0.5360110509209335,D24O05,2022-11-04_10h42.41.050,t1_Paradigm,2021.1.4,59.902263378370556,
T,right,Target,0,18,18,18,103.80117971939035,105.80121500766836,right,1,1,0.9260062454268336,D24O05,2022-11-04_10h42.41.050,t1_Paradigm,2021.1.4,59.902263378370556,
S,left,Distractor,0,19,19,19,107.30030585313216,109.30385136313271,left,1,1,0.4473431451478973,D24O05,2022-11-04_10h42.41.050,t1_Paradigm,2021.1.4,59.902263378370556,
T,left,Lure,0,20,20,20,110.80117939854972,112.80242250848096,left,1,1,0.6128798382123932,D24O05,2022-11-04_10h42.41.050,t1_Paradigm,2021.1.4,59.902263378370556,
J,left,Distractor,0,21,21,21,114.30106583447196,116.30330760276411,left,1,1,0.4718713889596984,D24O05,2022-11-04_10h42.41.050,t1_Paradigm,2021.1.4,59.902263378370556,
P,left,Distractor,0,22,22,22,117.80124805029482,119.80329412908759,left,1,1,0.5078320739557967,D24O05,2022-11-04_10h42.41.050,t1_Paradigm,2021.1.4,59.902263378370556,
F,left,Distractor,0,23,23,23,121.30034691584297,123.30356937774923,left,1,1,0.527747176703997,D24O05,2022-11-04_10h42.41.050,t1_Paradigm,2021.1.4,59.902263378370556,
L,left,Distractor,0,24,24,24,124.80139048665296,126.8030297877267,left,1,1,0.45192260190378875,D24O05,2022-11-04_10h42.41.050,t1_Paradigm,2021.1.4,59.902263378370556,
W,left,Pretarget,0,25,25,25,128.30120570433792,130.30372047575656,left,1,1,0.455540934111923,D24O05,2022-11-04_10h42.41.050,t1_Paradigm,2021.1.4,59.902263378370556,
W,right,Target,0,26,26,26,131.80108508258127,133.80127178970724,right,1,1,0.4779236502945423,D24O05,2022-11-04_10h42.41.050,t1_Paradigm,2021.1.4,59.902263378370556,
V,left,Distractor,0,27,27,27,135.3013779753819,137.30309426912572,left,1,1,0.6081528124632314,D24O05,2022-11-04_10h42.41.050,t1_Paradigm,2021.1.4,59.902263378370556,
W,left,Lure,0,28,28,28,138.80126120324712,140.8028748400975,left,1,1,0.7564065877813846,D24O05,2022-11-04_10h42.41.050,t1_Paradigm,2021.1.4,59.902263378370556,
R,left,Pretarget,0,29,29,29,142.30136097280774,144.30305577279069,left,1,1,0.47224223683588207,D24O05,2022-11-04_10h42.41.050,t1_Paradigm,2021.1.4,59.902263378370556,
R,right,Target,0,30,30,30,145.80130386992823,147.80126184481196,right,1,1,0.6539740059524775,D24O05,2022-11-04_10h42.41.050,t1_Paradigm,2021.1.4,59.902263378370556,
G,left,Distractor,0,31,31,31,149.30122687737457,151.30288093537092,left,1,1,0.4806677954038605,D24O05,2022-11-04_10h42.41.050,t1_Paradigm,2021.1.4,59.902263378370556,
R,left,Lure,0,32,32,32,152.801274356083,154.8035748313414,left,1,1,0.7237501692725345,D24O05,2022-11-04_10h42.41.050,t1_Paradigm,2021.1.4,59.902263378370556,
S,left,Distractor,0,33,33,33,156.3003603896359,158.3034461895004,left,1,1,0.5357130253687501,D24O05,2022-11-04_10h42.41.050,t1_Paradigm,2021.1.4,59.902263378370556,
R,left,Lure,0,34,34,34,159.8014116595732,161.8033557231538,left,1,1,0.6198528029490262,D24O05,2022-11-04_10h42.41.050,t1_Paradigm,2021.1.4,59.902263378370556,
P,left,Pretarget,0,35,35,35,163.30128782975953,165.30315361754037,left,1,1,0.4962251160759479,D24O05,2022-11-04_10h42.41.050,t1_Paradigm,2021.1.4,59.902263378370556,
P,right,Target,0,36,36,36,166.801332421368,168.80136835121084,right,1,1,0.630006525083445,D24O05,2022-11-04_10h42.41.050,t1_Paradigm,2021.1.4,59.902263378370556,
Y,left,Pretarget,0,37,37,37,170.3014347574208,172.30365278641693,left,1,1,0.4876568003091961,D24O05,2022-11-04_10h42.41.050,t1_Paradigm,2021.1.4,59.902263378370556,
Y,right,Target,0,38,38,38,173.80129969946574,175.80152971495409,right,1,1,0.653746236115694,D24O05,2022-11-04_10h42.41.050,t1_Paradigm,2021.1.4,59.902263378370556,
J,left,Distractor,0,39,39,39,177.3014803113183,179.3030779081164,left,1,1,0.48025331855751574,D24O05,2022-11-04_10h42.41.050,t1_Paradigm,2021.1.4,59.902263378370556,
Y,left,Lure,0,40,40,40,180.8014042811701,182.80335893121082,left,1,1,0.46782767260447145,D24O05,2022-11-04_10h42.41.050,t1_Paradigm,2021.1.4,59.902263378370556,
T,left,Distractor,0,41,41,41,184.30133947904687,186.30353729741182,left,1,1,0.567675227066502,D24O05,2022-11-04_10h42.41.050,t1_Paradigm,2021.1.4,59.902263378370556,
V,left,Distractor,0,42,42,42,187.80118709779344,189.80320173793007,left,1,1,0.5721558767836541,D24O05,2022-11-04_10h42.41.050,t1_Paradigm,2021.1.4,59.902263378370556,
N,left,Pretarget,0,43,43,43,191.3012698648963,193.30330407398287,left,1,1,0.4159423478413373,D24O05,2022-11-04_10h42.41.050,t1_Paradigm,2021.1.4,59.902263378370556,
N,right,Target,0,44,44,44,194.8012785265455,196.80151046684477,right,1,1,0.6138618149561808,D24O05,2022-11-04_10h42.41.050,t1_Paradigm,2021.1.4,59.902263378370556,
N,right,Target,0,45,45,45,198.30135231115855,200.30148255696986,right,1,1,0.6979788155294955,D24O05,2022-11-04_10h42.41.050,t1_Paradigm,2021.1.4,59.902263378370556,
X,left,Distractor,0,46,46,46,201.8014116595732,203.80355462082662,left,1,1,0.6038190904073417,D24O05,2022-11-04_10h42.41.050,t1_Paradigm,2021.1.4,59.902263378370556,
Z,left,Distractor,0,47,47,47,205.30136803048663,207.30347089131828,left,1,1,0.41581049805972725,D24O05,2022-11-04_10h42.41.050,t1_Paradigm,2021.1.4,59.902263378370556,
H,left,Pretarget,0,48,48,48,208.80154062225483,210.8033938986482,left,1,1,0.43591968645341694,D24O05,2022-11-04_10h42.41.050,t1_Paradigm,2021.1.4,59.902263378370556,
H,right,Target,0,49,49,49,212.30135102791246,214.30147614097223,right,1,1,0.4259196287021041,D24O05,2022-11-04_10h42.41.050,t1_Paradigm,2021.1.4,59.902263378370556,
K,left,Distractor,0,50,50,50,215.8013734840788,217.80301182286348,left,1,1,0.6043368658283725,D24O05,2022-11-04_10h42.41.050,t1_Paradigm,2021.1.4,59.902263378370556,
V,left,Pretarget,0,51,51,51,219.30149089789484,221.3032957330579,left,1,1,0.44816472055390477,D24O05,2022-11-04_10h42.41.050,t1_Paradigm,2021.1.4,59.902263378370556,
V,right,Target,0,52,52,52,222.80138503294438,224.80157045682427,right,1,1,0.6777377772377804,D24O05,2022-11-04_10h42.41.050,t1_Paradigm,2021.1.4,59.902263378370556,
R,left,Distractor,0,53,53,53,226.3014992387034,228.3032299685292,left,1,1,0.4562133363215253,D24O05,2022-11-04_10h42.41.050,t1_Paradigm,2021.1.4,59.902263378370556,
V,left,Lure,0,54,54,54,229.80151463719085,231.80318826425355,left,1,1,0.588266902603209,D24O05,2022-11-04_10h42.41.050,t1_Paradigm,2021.1.4,59.902263378370556,
Y,left,Distractor,0,55,55,55,233.3013558399398,235.30079539783765,left,1,1,0.54668286931701,D24O05,2022-11-04_10h42.41.050,t1_Paradigm,2021.1.4,59.902263378370556,
Q,left,Distractor,0,56,56,56,236.8014171132818,238.80329316668212,left,1,1,0.4522979408502579,D24O05,2022-11-04_10h42.41.050,t1_Paradigm,2021.1.4,59.902263378370556,
Z,left,Pretarget,0,57,57,57,240.30146362958476,242.30345420958474,left,1,1,0.5519661668222398,D24O05,2022-11-04_10h42.41.050,t1_Paradigm,2021.1.4,59.902263378370556,
Z,right,Target,0,58,58,58,243.80141198041383,245.80137091770303,right,1,1,0.654470929177478,D24O05,2022-11-04_10h42.41.050,t1_Paradigm,2021.1.4,59.902263378370556,
B,left,Distractor,0,59,59,59,247.30149827629793,249.3034416983137,left,1,1,0.4319776644697413,D24O05,2022-11-04_10h42.41.050,t1_Paradigm,2021.1.4,59.902263378370556,
S,left,Pretarget,0,60,60,60,250.80161376518663,252.80323670548387,left,1,1,0.40420931461267173,D24O05,2022-11-04_10h42.41.050,t1_Paradigm,2021.1.4,59.902263378370556,
S,right,Target,0,61,61,61,254.30071519722696,256.3014248125255,None,0,1,,D24O05,2022-11-04_10h42.41.050,t1_Paradigm,2021.1.4,59.902263378370556,
T,left,Distractor,0,62,62,62,257.80154800065793,259.80348211934324,left,1,1,0.5239158316981047,D24O05,2022-11-04_10h42.41.050,t1_Paradigm,2021.1.4,59.902263378370556,
D,left,Distractor,0,63,63,63,261.3013837498147,263.30242667894345,left,1,1,0.48122855834662914,D24O05,2022-11-04_10h42.41.050,t1_Paradigm,2021.1.4,59.902263378370556,
R,left,Distractor,0,0,0,0,274.713565970771,276.71975842281245,None,0,1,,D24O05,2022-11-04_10h42.41.050,t1_Paradigm,2021.1.4,59.902263378370556,
V,left,Distractor,0,1,1,1,278.2181001943536,280.2202447594609,left,1,1,0.5872072916245088,D24O05,2022-11-04_10h42.41.050,t1_Paradigm,2021.1.4,59.902263378370556,
N,left,Pretarget,0,2,2,2,281.71824712189846,283.7201315162238,left,1,1,0.4954555107979104,D24O05,2022-11-04_10h42.41.050,t1_Paradigm,2021.1.4,59.902263378370556,
N,right,Target,0,3,3,3,285.21826316206716,287.2181130264653,right,1,1,0.6134986664401367,D24O05,2022-11-04_10h42.41.050,t1_Paradigm,2021.1.4,59.902263378370556,
S,left,Distractor,0,4,4,4,288.71819739753846,290.72050717601087,left,1,1,0.40701890364289284,D24O05,2022-11-04_10h42.41.050,t1_Paradigm,2021.1.4,59.902263378370556,
N,left,Lure,0,5,5,5,292.21817686618306,294.2202373810578,left,1,1,0.44315795483998954,D24O05,2022-11-04_10h42.41.050,t1_Paradigm,2021.1.4,59.902263378370556,
Z,left,Distractor,0,6,6,6,295.7182407057844,297.7201600676635,left,1,1,0.41522727895062417,D24O05,2022-11-04_10h42.41.050,t1_Paradigm,2021.1.4,59.902263378370556,
L,left,Pretarget,0,7,7,7,299.2181759037776,301.2203997070901,left,1,1,0.45126431493554264,D24O05,2022-11-04_10h42.41.050,t1_Paradigm,2021.1.4,59.902263378370556,
L,right,Target,0,8,8,8,302.7183616483817,304.71830390393734,right,1,1,0.6813182546757162,D24O05,2022-11-04_10h42.41.050,t1_Paradigm,2021.1.4,59.902263378370556,
H,left,Distractor,0,9,9,9,306.21817397885025,308.2203159776982,left,1,1,0.5711463110055774,D24O05,2022-11-04_10h42.41.050,t1_Paradigm,2021.1.4,59.902263378370556,
L,left,Lure,0,10,10,10,309.71829363831785,311.7205796773778,left,1,1,0.5428720556665212,D24O05,2022-11-04_10h42.41.050,t1_Paradigm,2021.1.4,59.902263378370556,
X,left,Pretarget,0,11,11,11,313.2181104599731,315.2206483291229,left,1,1,0.5148172292392701,D24O05,2022-11-04_10h42.41.050,t1_Paradigm,2021.1.4,59.902263378370556,
X,right,Target,0,12,12,12,316.717456664308,318.71820445510093,right,1,1,0.7293866703985259,D24O05,2022-11-04_10h42.41.050,t1_Paradigm,2021.1.4,59.902263378370556,
X,right,Target,0,13,13,13,320.2173270600615,322.2183205856709,right,1,1,0.5412420576903969,D24O05,2022-11-04_10h42.41.050,t1_Paradigm,2021.1.4,59.902263378370556,
R,left,Distractor,0,14,14,14,323.7182022095658,325.7204619428376,left,1,1,0.4149696745444089,D24O05,2022-11-04_10h42.41.050,t1_Paradigm,2021.1.4,59.902263378370556,
T,left,Distractor,0,15,15,15,327.2180697181029,329.21964132983703,left,1,1,0.4198522896040231,D24O05,2022-11-04_10h42.41.050,t1_Paradigm,2021.1.4,59.902263378370556,
V,left,Pretarget,0,16,16,16,330.7184229217237,332.7200545235537,left,1,1,0.39164379879366606,D24O05,2022-11-04_10h42.41.050,t1_Paradigm,2021.1.4,59.902263378370556,
V,right,Target,0,17,17,17,334.21827631490305,336.218360365252,right,1,1,0.5732004098827019,D24O05,2022-11-04_10h42.41.050,t1_Paradigm,2021.1.4,59.902263378370556,
N,left,Distractor,0,18,18,18,337.71832154807635,339.7201886191033,left,1,1,0.5114593886537477,D24O05,2022-11-04_10h42.41.050,t1_Paradigm,2021.1.4,59.902263378370556,
B,left,Distractor,0,19,19,19,341.21828369342256,343.21739795745816,left,1,1,0.5181407438358292,D24O05,2022-11-04_10h42.41.050,t1_Paradigm,2021.1.4,59.902263378370556,
V,left,Lure,0,20,20,20,344.7182371770032,346.73496093589347,left,1,1,0.6490439121844247,D24O05,2022-11-04_10h42.41.050,t1_Paradigm,2021.1.4,59.902263378370556,
P,left,Distractor,0,21,21,21,348.2182859389577,350.22070286562666,left,1,1,0.41099204344209284,D24O05,2022-11-04_10h42.41.050,t1_Paradigm,2021.1.4,59.902263378370556,
K,left,Pretarget,0,22,22,22,351.71822819451336,353.7205620332388,left,1,1,0.4312202496221289,D24O05,2022-11-04_10h42.41.050,t1_Paradigm,2021.1.4,59.902263378370556,
K,right,Target,0,23,23,23,355.21821311686654,357.2182750317734,right,1,1,0.6295734415762126,D24O05,2022-11-04_10h42.41.050,t1_Paradigm,2021.1.4,59.902263378370556,
J,left,Pretarget,0,24,24,24,358.71841201442294,360.7201972807525,left,1,1,0.4873138623079285,D24O05,2022-11-04_10h42.41.050,t1_Paradigm,2021.1.4,59.902263378370556,
J,right,Target,0,25,25,25,362.2182641244726,364.21843414974865,right,1,1,0.5892030044924468,D24O05,2022-11-04_10h42.41.050,t1_Paradigm,2021.1.4,59.902263378370556,
H,left,Distractor,0,26,26,26,365.71826893649995,367.7204779830063,left,1,1,0.4150534039363265,D24O05,2022-11-04_10h42.41.050,t1_Paradigm,2021.1.4,59.902263378370556,
J,left,Lure,0,27,27,27,369.21834207943175,371.2203233561013,left,1,1,0.6431741875130683,D24O05,2022-11-04_10h42.41.050,t1_Paradigm,2021.1.4,59.902263378370556,
V,left,Distractor,0,28,28,28,372.71832732250914,374.71762155683246,left,1,1,0.4420794165926054,D24O05,2022-11-04_10h42.41.050,t1_Paradigm,2021.1.4,59.902263378370556,
Z,left,Pretarget,0,29,29,29,376.21815825952217,378.2199332602322,left,1,1,0.42798495560418814,D24O05,2022-11-04_10h42.41.050,t1_Paradigm,2021.1.4,59.902263378370556,
Z,right,Target,0,30,30,30,379.7181409362238,381.7184771373868,right,1,1,0.59288100595586,D24O05,2022-11-04_10h42.41.050,t1_Paradigm,2021.1.4,59.902263378370556,
T,left,Distractor,0,31,31,31,383.2183677436551,385.2202694612788,left,1,1,0.6275899193715304,D24O05,2022-11-04_10h42.41.050,t1_Paradigm,2021.1.4,59.902263378370556,
Z,left,Lure,0,32,32,32,386.7182708613109,388.7206409507198,left,1,1,0.6471104349475354,D24O05,2022-11-04_10h42.41.050,t1_Paradigm,2021.1.4,59.902263378370556,
F,left,Distractor,0,33,33,33,390.21837736770976,392.2207442490617,left,1,1,0.5229694640729576,D24O05,2022-11-04_10h42.41.050,t1_Paradigm,2021.1.4,59.902263378370556,
Y,left,Pretarget,0,34,34,34,393.7182859389577,395.720184769365,left,1,1,0.735504696262069,D24O05,2022-11-04_10h42.41.050,t1_Paradigm,2021.1.4,59.902263378370556,
Y,right,Target,0,35,35,35,397.21832603937946,399.21831705688965,right,1,1,0.45329499524086714,D24O05,2022-11-04_10h42.41.050,t1_Paradigm,2021.1.4,59.902263378370556,
Y,right,Target,0,36,36,36,400.7183385506505,402.718389237416,right,1,1,0.5052300443639979,D24O05,2022-11-04_10h42.41.050,t1_Paradigm,2021.1.4,59.902263378370556,
W,left,Distractor,0,37,37,37,404.2183853877941,406.2197141520446,left,1,1,0.47607005306053907,D24O05,2022-11-04_10h42.41.050,t1_Paradigm,2021.1.4,59.902263378370556,
Q,left,Distractor,0,38,38,38,407.7183183400193,409.72049402305856,left,1,1,0.6390515535604209,D24O05,2022-11-04_10h42.41.050,t1_Paradigm,2021.1.4,59.902263378370556,
P,left,Pretarget,0,39,39,39,411.2183253976982,413.2207763293991,left,1,1,0.5310110220452771,D24O05,2022-11-04_10h42.41.050,t1_Paradigm,2021.1.4,59.902263378370556,
P,right,Target,0,40,40,40,414.71819900150876,416.71836100681685,right,1,1,0.665598607971333,D24O05,2022-11-04_10h42.41.050,t1_Paradigm,2021.1.4,59.902263378370556,
J,left,Distractor,0,41,41,41,418.21837415965274,420.220850755577,left,1,1,0.554912096937187,D24O05,2022-11-04_10h42.41.050,t1_Paradigm,2021.1.4,59.902263378370556,
P,left,Lure,0,42,42,42,421.7183484955458,423.71878959902097,left,1,1,0.592616664711386,D24O05,2022-11-04_10h42.41.050,t1_Paradigm,2021.1.4,59.902263378370556,
L,left,Distractor,0,43,43,43,425.2184059191495,427.22066789807286,left,1,1,0.48298463167157024,D24O05,2022-11-04_10h42.41.050,t1_Paradigm,2021.1.4,59.902263378370556,
Z,left,Distractor,0,44,44,44,428.71839469112456,430.7207067152485,left,1,1,0.40705611661542207,D24O05,2022-11-04_10h42.41.050,t1_Paradigm,2021.1.4,59.902263378370556,
F,left,Pretarget,0,45,45,45,432.2183048663428,434.21766229881905,left,1,1,0.5101758574601263,D24O05,2022-11-04_10h42.41.050,t1_Paradigm,2021.1.4,59.902263378370556,
F,right,Target,0,46,46,46,435.71834464592393,437.7185579795623,right,1,1,0.6892071107868105,D24O05,2022-11-04_10h42.41.050,t1_Paradigm,2021.1.4,59.902263378370556,
G,left,Pretarget,0,47,47,47,439.2183616483817,441.2203294513747,left,1,1,0.4833198703126982,D24O05,2022-11-04_10h42.41.050,t1_Paradigm,2021.1.4,59.902263378370556,
G,right,Target,0,48,48,48,442.7185810774099,444.7184084856417,right,1,1,0.6657551596872509,D24O05,2022-11-04_10h42.41.050,t1_Paradigm,2021.1.4,59.902263378370556,
V,left,Distractor,0,49,49,49,446.21806105645373,448.2207108855946,left,1,1,0.4270122821908444,D24O05,2022-11-04_10h42.41.050,t1_Paradigm,2021.1.4,59.902263378370556,
G,left,Lure,0,50,50,50,449.7186131576309,451.7205042887945,left,1,1,0.43113299121614546,D24O05,2022-11-04_10h42.41.050,t1_Paradigm,2021.1.4,59.902263378370556,
Q,left,Pretarget,0,51,51,51,453.21853808977176,455.22033939627,left,1,1,0.483339439262636,D24O05,2022-11-04_10h42.41.050,t1_Paradigm,2021.1.4,59.902263378370556,
Q,right,Target,0,52,52,52,456.7184726460837,458.718456605915,right,1,1,0.4894510491285473,D24O05,2022-11-04_10h42.41.050,t1_Paradigm,2021.1.4,59.902263378370556,
Y,left,Distractor,0,53,53,53,460.2184299794026,462.2207577228546,left,1,1,0.5390849811956286,D24O05,2022-11-04_10h42.41.050,t1_Paradigm,2021.1.4,59.902263378370556,
V,left,Distractor,0,54,54,54,463.7184832325438,465.72026432841085,left,1,1,0.5117355996044353,D24O05,2022-11-04_10h42.41.050,t1_Paradigm,2021.1.4,59.902263378370556,
B,left,Distractor,0,55,55,55,467.218556375592,469.220125741791,left,1,1,0.5797826370690018,D24O05,2022-11-04_10h42.41.050,t1_Paradigm,2021.1.4,59.902263378370556,
J,left,Pretarget,0,56,56,56,470.7182403850602,472.7200211600866,left,1,1,0.4877873668447137,D24O05,2022-11-04_10h42.41.050,t1_Paradigm,2021.1.4,59.902263378370556,
J,right,Target,0,57,57,57,474.2185079343617,476.21854226023424,right,1,1,0.685196116217412,D24O05,2022-11-04_10h42.41.050,t1_Paradigm,2021.1.4,59.902263378370556,
H,left,Distractor,0,58,58,58,477.7183176984545,479.720313411206,left,1,1,0.39945405814796686,D24O05,2022-11-04_10h42.41.050,t1_Paradigm,2021.1.4,59.902263378370556,
J,left,Lure,0,59,59,59,481.2183193024248,483.2206229857402,left,1,1,0.45124282117467374,D24O05,2022-11-04_10h42.41.050,t1_Paradigm,2021.1.4,59.902263378370556,
D,left,Pretarget,0,60,60,60,484.71856856602244,486.719760668464,left,1,1,0.47210236673709005,D24O05,2022-11-04_10h42.41.050,t1_Paradigm,2021.1.4,59.902263378370556,
D,right,Target,0,61,61,61,488.2183972575003,490.21847777895164,right,1,1,0.7335384972393513,D24O05,2022-11-04_10h42.41.050,t1_Paradigm,2021.1.4,59.902263378370556,
R,left,Distractor,0,62,62,62,491.7185605460545,493.71862855611835,left,1,1,0.6251117194769904,D24O05,2022-11-04_10h42.41.050,t1_Paradigm,2021.1.4,59.902263378370556,
F,left,Distractor,0,63,63,63,495.2184578891611,497.2208308657864,left,1,1,0.4829493433935568,D24O05,2022-11-04_10h42.41.050,t1_Paradigm,2021.1.4,59.902263378370556,
F,left,Distractor,0,0,0,0,565.7733074295102,567.7852406436577,None,0,2,,D24O05,2022-11-04_10h42.41.050,t1_Paradigm,2021.1.4,59.902263378370556,
N,left,Pretarget,0,1,1,1,569.2852663077647,571.2876463420689,None,0,2,,D24O05,2022-11-04_10h42.41.050,t1_Paradigm,2021.1.4,59.902263378370556,
V,left,Distractor,0,2,2,2,572.7853570949519,574.7869274235563,left,1,2,0.6130165002541617,D24O05,2022-11-04_10h42.41.050,t1_Paradigm,2021.1.4,59.902263378370556,
N,right,Target,0,3,3,3,576.2854247842915,578.287206842564,right,1,2,0.7128948519239202,D24O05,2022-11-04_10h42.41.050,t1_Paradigm,2021.1.4,59.902263378370556,
N,left,Lure,0,4,4,4,579.7852319818921,581.7853214858333,left,1,2,0.6706634389702231,D24O05,2022-11-04_10h42.41.050,t1_Paradigm,2021.1.4,59.902263378370556,
X,left,Distractor,0,5,5,5,583.285293896799,585.2869729774538,left,1,2,0.9613923729630187,D24O05,2022-11-04_10h42.41.050,t1_Paradigm,2021.1.4,59.902263378370556,
G,left,Pretarget,0,6,6,6,586.7855008144397,588.7875504221302,left,1,2,1.012562949443236,D24O05,2022-11-04_10h42.41.050,t1_Paradigm,2021.1.4,59.902263378370556,
H,left,Pretarget,0,7,7,7,590.285513967392,592.2874573894078,left,1,2,0.9045971650630236,D24O05,2022-11-04_10h42.41.050,t1_Paradigm,2021.1.4,59.902263378370556,
G,right,Target,0,8,8,8,593.7852547588991,595.7875552341575,right,1,2,0.6843799945199862,D24O05,2022-11-04_10h42.41.050,t1_Paradigm,2021.1.4,59.902263378370556,
H,right,Target,0,9,9,9,597.2855322530959,599.2874798455741,right,1,2,0.7205334819154814,D24O05,2022-11-04_10h42.41.050,t1_Paradigm,2021.1.4,59.902263378370556,
T,left,Pretarget,0,10,10,10,600.7845496349037,602.7858225795208,left,1,2,0.7422694599954411,D24O05,2022-11-04_10h42.41.050,t1_Paradigm,2021.1.4,59.902263378370556,
K,left,Distractor,0,11,11,11,604.2853628693847,606.2876944624586,left,1,2,0.504375426331535,D24O05,2022-11-04_10h42.41.050,t1_Paradigm,2021.1.4,59.902263378370556,
T,right,Target,0,12,12,12,607.7853513205191,609.7870586317731,right,1,2,0.4769265957875177,D24O05,2022-11-04_10h42.41.050,t1_Paradigm,2021.1.4,59.902263378370556,
T,left,Lure,0,13,13,13,611.2853141074302,613.2853314307285,left,1,2,0.6907716649584472,D24O05,2022-11-04_10h42.41.050,t1_Paradigm,2021.1.4,59.902263378370556,
J,left,Distractor,0,14,14,14,614.7853927040705,616.7872145418078,left,1,2,0.7409124651458114,D24O05,2022-11-04_10h42.41.050,t1_Paradigm,2021.1.4,59.902263378370556,
Q,left,Pretarget,0,15,15,15,618.2853506788379,620.2874487277586,left,1,2,0.6967235149350017,D24O05,2022-11-04_10h42.41.050,t1_Paradigm,2021.1.4,59.902263378370556,
M,left,Distractor,0,16,16,16,621.7855226290412,623.7888009105809,left,1,2,0.6192131226416677,D24O05,2022-11-04_10h42.41.050,t1_Paradigm,2021.1.4,59.902263378370556,
Q,right,Target,0,17,17,17,625.2854504485149,627.2872215994867,right,1,2,0.640893281204626,D24O05,2022-11-04_10h42.41.050,t1_Paradigm,2021.1.4,59.902263378370556,
R,left,Distractor,0,18,18,18,628.7853734558448,630.7875792942941,left,1,2,0.5322175606852397,D24O05,2022-11-04_10h42.41.050,t1_Paradigm,2021.1.4,59.902263378370556,
W,left,Distractor,0,19,19,19,632.2853471500566,634.2874875448178,left,1,2,0.40864505188073963,D24O05,2022-11-04_10h42.41.050,t1_Paradigm,2021.1.4,59.902263378370556,
C,left,Pretarget,0,20,20,20,635.7854738670867,637.7878856607713,left,1,2,0.9562970657134429,D24O05,2022-11-04_10h42.41.050,t1_Paradigm,2021.1.4,59.902263378370556,
T,left,Distractor,0,21,21,21,639.285411310615,641.2874535397859,left,1,2,0.4166089757345617,D24O05,2022-11-04_10h42.41.050,t1_Paradigm,2021.1.4,59.902263378370556,
C,right,Target,0,22,22,22,642.7855710702715,644.7872238451382,right,1,2,0.5808518719859421,D24O05,2022-11-04_10h42.41.050,t1_Paradigm,2021.1.4,59.902263378370556,
F,left,Pretarget,0,23,23,23,646.2853185986169,648.2984955642605,left,1,2,0.5415702387690544,D24O05,2022-11-04_10h42.41.050,t1_Paradigm,2021.1.4,59.902263378370556,
C,right,Target,0,24,24,24,649.785340734059,651.7872636246029,right,1,2,0.6207901880843565,D24O05,2022-11-04_10h42.41.050,t1_Paradigm,2021.1.4,59.902263378370556,
F,right,Target,0,25,25,25,653.2854757918976,655.2872498300858,right,1,2,0.656948808231391,D24O05,2022-11-04_10h42.41.050,t1_Paradigm,2021.1.4,59.902263378370556,
H,left,Distractor,0,26,26,26,656.785291971988,658.7875780111644,left,1,2,0.46852766384836286,D24O05,2022-11-04_10h42.41.050,t1_Paradigm,2021.1.4,59.902263378370556,
H,left,Lure,0,27,27,27,660.285390458419,662.2854591101641,left,1,2,0.5546272242208943,D24O05,2022-11-04_10h42.41.050,t1_Paradigm,2021.1.4,59.902263378370556,
P,left,Distractor,0,28,28,28,663.7844906072132,665.786884115194,left,1,2,0.5571782462066039,D24O05,2022-11-04_10h42.41.050,t1_Paradigm,2021.1.4,59.902263378370556,
G,left,Pretarget,0,29,29,29,667.2854741879273,669.2870804463746,left,1,2,0.6571400066604838,D24O05,2022-11-04_10h42.41.050,t1_Paradigm,2021.1.4,59.902263378370556,
K,left,Distractor,0,30,30,30,670.7855245538522,672.7874772790819,left,1,2,0.5485627724556252,D24O05,2022-11-04_10h42.41.050,t1_Paradigm,2021.1.4,59.902263378370556,
G,right,Target,0,31,31,31,674.2854831703007,676.2873707726831,right,1,2,0.8249136559898034,D24O05,2022-11-04_10h42.41.050,t1_Paradigm,2021.1.4,59.902263378370556,
M,left,Pretarget,0,32,32,32,677.7855415564263,679.7876793846954,left,1,2,0.5402238303795457,D24O05,2022-11-04_10h42.41.050,t1_Paradigm,2021.1.4,59.902263378370556,
B,left,Distractor,0,33,33,33,681.285404894501,683.2873820008244,left,1,2,0.5289123316761106,D24O05,2022-11-04_10h42.41.050,t1_Paradigm,2021.1.4,59.902263378370556,
M,right,Target,0,34,34,34,684.7854116313392,686.7876957457047,right,1,2,0.6924391966313124,D24O05,2022-11-04_10h42.41.050,t1_Paradigm,2021.1.4,59.902263378370556,
M,left,Lure,0,35,35,35,688.2854709798703,690.2854674509726,left,1,2,0.5867572056595236,D24O05,2022-11-04_10h42.41.050,t1_Paradigm,2021.1.4,59.902263378370556,
T,left,Distractor,0,36,36,36,691.7856406844221,693.7878606382292,left,1,2,0.6043349409010261,D24O05,2022-11-04_10h42.41.050,t1_Paradigm,2021.1.4,59.902263378370556,
F,left,Distractor,0,37,37,37,695.2854719422758,697.2873913040385,left,1,2,0.736768658272922,D24O05,2022-11-04_10h42.41.050,t1_Paradigm,2021.1.4,59.902263378370556,
X,left,Distractor,0,38,38,38,698.7853413756238,700.7875218706904,left,1,2,0.46865566400811076,D24O05,2022-11-04_10h42.41.050,t1_Paradigm,2021.1.4,59.902263378370556,
C,left,Distractor,0,39,39,39,702.2853920623893,704.287276135874,left,1,2,0.4889688828261569,D24O05,2022-11-04_10h42.41.050,t1_Paradigm,2021.1.4,59.902263378370556,
R,left,Distractor,0,40,40,40,705.7854976064991,707.7880819919519,left,1,2,0.4282371064182371,D24O05,2022-11-04_10h42.41.050,t1_Paradigm,2021.1.4,59.902263378370556,
B,left,Pretarget,0,41,41,41,709.2845794694731,711.2878866231767,left,1,2,0.8808587371604517,D24O05,2022-11-04_10h42.41.050,t1_Paradigm,2021.1.4,59.902263378370556,
H,left,Distractor,0,42,42,42,712.7855389900506,714.7868321451824,left,1,2,1.061734925955534,D24O05,2022-11-04_10h42.41.050,t1_Paradigm,2021.1.4,59.902263378370556,
B,right,Target,0,43,43,43,716.2854732255219,718.2876049585175,left,0,2,1.2086888093035668,D24O05,2022-11-04_10h42.41.050,t1_Paradigm,2021.1.4,59.902263378370556,
W,left,Pretarget,0,44,44,44,719.7857074113563,721.7873807175783,left,1,2,0.5245693065226078,D24O05,2022-11-04_10h42.41.050,t1_Paradigm,2021.1.4,59.902263378370556,
L,left,Pretarget,0,45,45,45,723.285530328285,725.2876177906292,left,1,2,0.640711706946604,D24O05,2022-11-04_10h42.41.050,t1_Paradigm,2021.1.4,59.902263378370556,
W,right,Target,0,46,46,46,726.7855521428864,728.7874015697744,right,1,2,0.4368198583833873,D24O05,2022-11-04_10h42.41.050,t1_Paradigm,2021.1.4,59.902263378370556,
L,right,Target,0,47,47,47,730.2856669902103,732.2880293803755,right,1,2,0.8722929876530543,D24O05,2022-11-04_10h42.41.050,t1_Paradigm,2021.1.4,59.902263378370556,
W,right,Target,0,48,48,48,733.7855293658795,735.7874407076743,right,1,2,0.9249190455302596,D24O05,2022-11-04_10h42.41.050,t1_Paradigm,2021.1.4,59.902263378370556,
X,left,Distractor,0,49,49,49,737.2855794110801,739.2875472140731,left,1,2,0.5128529550274834,D24O05,2022-11-04_10h42.41.050,t1_Paradigm,2021.1.4,59.902263378370556,
R,left,Distractor,0,50,50,50,740.7855008144397,742.7878641670104,left,1,2,0.452354081440717,D24O05,2022-11-04_10h42.41.050,t1_Paradigm,2021.1.4,59.902263378370556,
V,left,Pretarget,0,51,51,51,744.285533536342,746.287880848744,left,1,2,0.6163531678030267,D24O05,2022-11-04_10h42.41.050,t1_Paradigm,2021.1.4,59.902263378370556,
Z,left,Distractor,0,52,52,52,747.7857321131742,749.7873752638698,left,1,2,0.5727971609449014,D24O05,2022-11-04_10h42.41.050,t1_Paradigm,2021.1.4,59.902263378370556,
V,right,Target,0,53,53,53,751.2856127745472,753.2874666926218,left,0,2,0.7208151464583352,D24O05,2022-11-04_10h42.41.050,t1_Paradigm,2021.1.4,59.902263378370556,
V,left,Lure,0,54,54,54,754.7857346795499,756.7855457268888,left,1,2,0.7427949346601963,D24O05,2022-11-04_10h42.41.050,t1_Paradigm,2021.1.4,59.902263378370556,
N,left,Distractor,0,55,55,55,758.2857176769758,760.2878539013909,left,1,2,0.5684602310648188,D24O05,2022-11-04_10h42.41.050,t1_Paradigm,2021.1.4,59.902263378370556,
B,left,Distractor,0,56,56,56,761.7855967344949,763.8023012451595,left,1,2,1.0060596397379413,D24O05,2022-11-04_10h42.41.050,t1_Paradigm,2021.1.4,59.902263378370556,
V,left,Lure,0,57,57,57,765.2855094762053,767.2880710846512,left,1,2,0.6563049574615434,D24O05,2022-11-04_10h42.41.050,t1_Paradigm,2021.1.4,59.902263378370556,
J,left,Distractor,0,58,58,58,768.7855274410686,770.7871369075729,left,1,2,0.5169107867404819,D24O05,2022-11-04_10h42.41.050,t1_Paradigm,2021.1.4,59.902263378370556,
H,left,Distractor,0,59,59,59,772.285594809684,774.2878192546777,left,1,2,0.42463000235147774,D24O05,2022-11-04_10h42.41.050,t1_Paradigm,2021.1.4,59.902263378370556,
X,left,Pretarget,0,60,60,60,775.7857770255068,777.7877121065976,left,1,2,0.41274426714517176,D24O05,2022-11-04_10h42.41.050,t1_Paradigm,2021.1.4,59.902263378370556,
P,left,Distractor,0,61,61,61,779.2856076417957,781.2871304915752,left,1,2,0.7531433840049431,D24O05,2022-11-04_10h42.41.050,t1_Paradigm,2021.1.4,59.902263378370556,
X,right,Target,0,62,62,62,782.7857144690352,784.7875433644513,right,1,2,0.5007092944579199,D24O05,2022-11-04_10h42.41.050,t1_Paradigm,2021.1.4,59.902263378370556,
Q,left,Distractor,0,63,63,63,786.2855919224676,788.2877137105679,left,1,2,0.5206272845389321,D24O05,2022-11-04_10h42.41.050,t1_Paradigm,2021.1.4,59.902263378370556,
B,left,Pretarget,0,0,0,0,795.548150541028,797.553936536191,None,0,2,,D24O05,2022-11-04_10h42.41.050,t1_Paradigm,2021.1.4,59.902263378370556,
F,left,Distractor,0,1,1,1,799.0515885822242,801.0540055087768,None,0,2,,D24O05,2022-11-04_10h42.41.050,t1_Paradigm,2021.1.4,59.902263378370556,
B,right,Target,0,2,2,2,802.5524550699629,804.5535053776111,right,1,2,0.5590129161719233,D24O05,2022-11-04_10h42.41.050,t1_Paradigm,2021.1.4,59.902263378370556,
V,left,Distractor,0,3,3,3,806.0524188192794,808.0514949078206,left,1,2,0.5810084235854447,D24O05,2022-11-04_10h42.41.050,t1_Paradigm,2021.1.4,59.902263378370556,
G,left,Pretarget,0,4,4,4,809.5524162529036,811.5546458307654,left,1,2,0.42178769153542817,D24O05,2022-11-04_10h42.41.050,t1_Paradigm,2021.1.4,59.902263378370556,
B,left,Lure,0,5,5,5,813.0523870597826,815.0545819910476,left,1,2,0.7300308418925852,D24O05,2022-11-04_10h42.41.050,t1_Paradigm,2021.1.4,59.902263378370556,
G,right,Target,0,6,6,6,816.5522555307252,818.5548087984789,right,1,2,0.589653090457432,D24O05,2022-11-04_10h42.41.050,t1_Paradigm,2021.1.4,59.902263378370556,
Y,left,Pretarget,0,7,7,7,820.0514259353513,822.05457846215,left,1,2,0.5459482314763591,D24O05,2022-11-04_10h42.41.050,t1_Paradigm,2021.1.4,59.902263378370556,
P,left,Distractor,0,8,8,8,823.5514509578934,825.5541748926044,left,1,2,0.5661899113329127,D24O05,2022-11-04_10h42.41.050,t1_Paradigm,2021.1.4,59.902263378370556,
Y,right,Target,0,9,9,9,827.0523854558123,829.0542849277845,right,1,2,0.6180806895717978,D24O05,2022-11-04_10h42.41.050,t1_Paradigm,2021.1.4,59.902263378370556,
X,left,Distractor,0,10,10,10,830.5523540171562,832.5539628420956,left,1,2,0.5585968352388591,D24O05,2022-11-04_10h42.41.050,t1_Paradigm,2021.1.4,59.902263378370556,
Y,right,Target,0,11,11,11,834.0522690045182,836.0544565572636,right,1,2,0.6900376686826348,D24O05,2022-11-04_10h42.41.050,t1_Paradigm,2021.1.4,59.902263378370556,
N,left,Distractor,0,12,12,12,837.5524640524527,839.5545948231593,left,1,2,0.4698179317638278,D24O05,2022-11-04_10h42.41.050,t1_Paradigm,2021.1.4,59.902263378370556,
Y,right,Target,0,13,13,13,841.052266438026,843.0651627014158,right,1,2,0.44738099991809577,D24O05,2022-11-04_10h42.41.050,t1_Paradigm,2021.1.4,59.902263378370556,
Y,left,Lure,0,14,14,14,844.5523687740788,846.5521384378662,left,1,2,0.5763843753375113,D24O05,2022-11-04_10h42.41.050,t1_Paradigm,2021.1.4,59.902263378370556,
K,left,Distractor,0,15,15,15,848.0525128144072,850.0548309338046,left,1,2,0.36959664209280163,D24O05,2022-11-04_10h42.41.050,t1_Paradigm,2021.1.4,59.902263378370556,
T,left,Pretarget,0,16,16,16,851.5522850445705,853.5545608180109,left,1,2,1.0460447929799557,D24O05,2022-11-04_10h42.41.050,t1_Paradigm,2021.1.4,59.902263378370556,
J,left,Distractor,0,17,17,17,855.0523543379968,857.0545072440291,left,1,2,0.5060105569427833,D24O05,2022-11-04_10h42.41.050,t1_Paradigm,2021.1.4,59.902263378370556,
T,right,Target,0,18,18,18,858.5525699172867,860.5544466123683,left,0,2,0.6859721376094967,D24O05,2022-11-04_10h42.41.050,t1_Paradigm,2021.1.4,59.902263378370556,
S,left,Pretarget,0,19,19,19,862.0524653356988,864.054775755736,left,1,2,0.49773256736807525,D24O05,2022-11-04_10h42.41.050,t1_Paradigm,2021.1.4,59.902263378370556,
R,left,Distractor,0,20,20,20,865.552264513215,867.554271454108,left,1,2,0.614532292354852,D24O05,2022-11-04_10h42.41.050,t1_Paradigm,2021.1.4,59.902263378370556,
S,right,Target,0,21,21,21,869.052409515949,871.0544369881973,right,1,2,0.5859818259486929,D24O05,2022-11-04_10h42.41.050,t1_Paradigm,2021.1.4,59.902263378370556,
Q,left,Distractor,0,22,22,22,872.5525080023799,874.5540699900594,left,1,2,0.46253924223128706,D24O05,2022-11-04_10h42.41.050,t1_Paradigm,2021.1.4,59.902263378370556,
D,left,Distractor,0,23,23,23,876.0524602028308,878.0514599403832,left,1,2,0.4689915442140773,D24O05,2022-11-04_10h42.41.050,t1_Paradigm,2021.1.4,59.902263378370556,
F,left,Distractor,0,24,24,24,879.5523588291835,881.5543696196983,left,1,2,0.3741667955182493,D24O05,2022-11-04_10h42.41.050,t1_Paradigm,2021.1.4,59.902263378370556,
Z,left,Distractor,0,25,25,25,883.0524515411817,885.0547276353464,left,1,2,0.42573709203861654,D24O05,2022-11-04_10h42.41.050,t1_Paradigm,2021.1.4,59.902263378370556,
P,left,Distractor,0,26,26,26,886.5524573156144,888.5546740613645,left,1,2,0.3817887438926846,D24O05,2022-11-04_10h42.41.050,t1_Paradigm,2021.1.4,59.902263378370556,
H,left,Distractor,0,27,27,27,890.0524278017692,892.0546355650295,left,1,2,0.4498559917556122,D24O05,2022-11-04_10h42.41.050,t1_Paradigm,2021.1.4,59.902263378370556,
Z,left,Pretarget,0,28,28,28,893.5525423282525,895.5547876254423,left,1,2,0.5016938375774771,D24O05,2022-11-04_10h42.41.050,t1_Paradigm,2021.1.4,59.902263378370556,
J,left,Pretarget,0,29,29,29,897.0525596515508,899.0545688380953,left,1,2,0.4420867951121181,D24O05,2022-11-04_10h42.41.050,t1_Paradigm,2021.1.4,59.902263378370556,
Z,right,Target,0,30,30,30,900.5525519523071,902.5545450986829,right,1,2,0.9421471059322357,D24O05,2022-11-04_10h42.41.050,t1_Paradigm,2021.1.4,59.902263378370556,
J,right,Target,0,31,31,31,904.0527380178683,906.0548784126295,right,1,2,0.5297326238360256,D24O05,2022-11-04_10h42.41.050,t1_Paradigm,2021.1.4,59.902263378370556,
V,left,Pretarget,0,32,32,32,907.5525599723915,909.5651819495251,left,1,2,0.8913833070546389,D24O05,2022-11-04_10h42.41.050,t1_Paradigm,2021.1.4,59.902263378370556,
Z,left,Lure,0,33,33,33,911.0525102480315,913.054398171138,left,1,2,0.5382034158101305,D24O05,2022-11-04_10h42.41.050,t1_Paradigm,2021.1.4,59.902263378370556,
V,right,Target,0,34,34,34,914.5516521011014,916.5515346874017,right,1,2,0.4011212692130357,D24O05,2022-11-04_10h42.41.050,t1_Paradigm,2021.1.4,59.902263378370556,
X,left,Distractor,0,35,35,35,918.0515773540828,920.0541479451349,left,1,2,0.8184559002984315,D24O05,2022-11-04_10h42.41.050,t1_Paradigm,2021.1.4,59.902263378370556,
S,left,Distractor,0,36,36,36,921.5525410450064,923.554579745396,left,1,2,0.9499531949404627,D24O05,2022-11-04_10h42.41.050,t1_Paradigm,2021.1.4,59.902263378370556,
Q,left,Distractor,0,37,37,37,925.0525416866876,927.0543571084272,left,1,2,0.6501436233520508,D24O05,2022-11-04_10h42.41.050,t1_Paradigm,2021.1.4,59.902263378370556,
P,left,Distractor,0,38,38,38,928.5525368746603,930.5539403859293,left,1,2,0.7824057113612071,D24O05,2022-11-04_10h42.41.050,t1_Paradigm,2021.1.4,59.902263378370556,
S,left,Lure,0,39,39,39,932.052514418494,934.0541392834857,left,1,2,0.5947512849234045,D24O05,2022-11-04_10h42.41.050,t1_Paradigm,2021.1.4,59.902263378370556,
K,left,Pretarget,0,40,40,40,935.5525089647854,937.5517364721745,left,1,2,0.8409085514722392,D24O05,2022-11-04_10h42.41.050,t1_Paradigm,2021.1.4,59.902263378370556,
L,left,Distractor,0,41,41,41,939.0525779373711,941.054584878264,left,1,2,1.1301111067878082,D24O05,2022-11-04_10h42.41.050,t1_Paradigm,2021.1.4,59.902263378370556,
K,right,Target,0,42,42,42,942.552562218043,944.5545720461523,right,1,2,0.9902536970330402,D24O05,2022-11-04_10h42.41.050,t1_Paradigm,2021.1.4,59.902263378370556,
B,left,Distractor,0,43,43,43,946.0525705588516,948.0545813493663,None,0,2,,D24O05,2022-11-04_10h42.41.050,t1_Paradigm,2021.1.4,59.902263378370556,
N,left,Distractor,0,44,44,44,949.5525602932321,951.5547937207157,left,1,2,1.014171453542076,D24O05,2022-11-04_10h42.41.050,t1_Paradigm,2021.1.4,59.902263378370556,
S,left,Pretarget,0,45,45,45,953.052613867214,955.0538467115257,left,1,2,0.7628803835250437,D24O05,2022-11-04_10h42.41.050,t1_Paradigm,2021.1.4,59.902263378370556,
Z,left,Distractor,0,46,46,46,956.5525878822664,958.5544924871065,left,1,2,0.8782300809398293,D24O05,2022-11-04_10h42.41.050,t1_Paradigm,2021.1.4,59.902263378370556,
S,right,Target,0,47,47,47,960.0525404034415,962.0516751989489,right,1,2,0.9331957517424598,D24O05,2022-11-04_10h42.41.050,t1_Paradigm,2021.1.4,59.902263378370556,
C,left,Distractor,0,48,48,48,963.5524043831974,965.554502752726,left,1,2,0.5820471823681146,D24O05,2022-11-04_10h42.41.050,t1_Paradigm,2021.1.4,59.902263378370556,
T,left,Pretarget,0,49,49,49,967.0525416866876,969.0544501411496,left,1,2,0.9382362017640844,D24O05,2022-11-04_10h42.41.050,t1_Paradigm,2021.1.4,59.902263378370556,
S,left,Lure,0,50,50,50,970.5525096063502,972.5533760942053,None,0,2,,D24O05,2022-11-04_10h42.41.050,t1_Paradigm,2021.1.4,59.902263378370556,
T,right,Target,0,51,51,51,974.0526231705444,976.05465545482,right,1,2,1.2659687499981374,D24O05,2022-11-04_10h42.41.050,t1_Paradigm,2021.1.4,59.902263378370556,
N,left,Pretarget,0,52,52,52,977.5527162032668,979.5548614100553,left,1,2,0.5337663954123855,D24O05,2022-11-04_10h42.41.050,t1_Paradigm,2021.1.4,59.902263378370556,
B,left,Distractor,0,53,53,53,981.0526080927812,983.054289098247,left,1,2,0.5224224957637489,D24O05,2022-11-04_10h42.41.050,t1_Paradigm,2021.1.4,59.902263378370556,
N,right,Target,0,54,54,54,984.5526398522779,986.5545242466033,right,1,2,0.6061968790600076,D24O05,2022-11-04_10h42.41.050,t1_Paradigm,2021.1.4,59.902263378370556,
N,left,Lure,0,55,55,55,988.0526125840843,990.0525548395235,left,1,2,0.4360746340826154,D24O05,2022-11-04_10h42.41.050,t1_Paradigm,2021.1.4,59.902263378370556,
X,left,Distractor,0,56,56,56,991.5526129048085,993.5546551339794,left,1,2,0.3900385027518496,D24O05,2022-11-04_10h42.41.050,t1_Paradigm,2021.1.4,59.902263378370556,
W,left,Distractor,0,57,57,57,995.0526212457335,997.0546772694215,left,1,2,0.7145303033757955,D24O05,2022-11-04_10h42.41.050,t1_Paradigm,2021.1.4,59.902263378370556,
S,left,Distractor,0,58,58,58,998.552613867214,1000.5542948726797,left,1,2,0.7827075865352526,D24O05,2022-11-04_10h42.41.050,t1_Paradigm,2021.1.4,59.902263378370556,
L,left,Distractor,0,59,59,59,1002.0522985183634,1004.0548495403491,left,1,2,0.801825815695338,D24O05,2022-11-04_10h42.41.050,t1_Paradigm,2021.1.4,59.902263378370556,
K,left,Pretarget,0,60,60,60,1005.5528047448024,1007.5550708941882,left,1,2,1.01397961366456,D24O05,2022-11-04_10h42.41.050,t1_Paradigm,2021.1.4,59.902263378370556,
V,left,Pretarget,0,61,61,61,1009.0527752309572,1011.054295514361,left,1,2,1.018642799812369,D24O05,2022-11-04_10h42.41.050,t1_Paradigm,2021.1.4,59.902263378370556,
K,right,Target,0,62,62,62,1012.5526427394943,1014.5548492195085,right,1,2,0.5739613536279649,D24O05,2022-11-04_10h42.41.050,t1_Paradigm,2021.1.4,59.902263378370556,
V,right,Target,0,63,63,63,1016.0526366442209,1018.0544902414549,right,1,2,0.4502162530552596,D24O05,2022-11-04_10h42.41.050,t1_Paradigm,2021.1.4,59.902263378370556,
R,left,Distractor,0,0,0,0,1085.0890426031547,1087.0885209782282,None,0,3,,D24O05,2022-11-04_10h42.41.050,t1_Paradigm,2021.1.4,59.902263378370556,
P,left,Lure,0,1,1,1,1088.5860238509485,1090.5991944005946,None,0,3,,D24O05,2022-11-04_10h42.41.050,t1_Paradigm,2021.1.4,59.902263378370556,
V,left,Distractor,0,2,2,2,1092.086124583031,1094.0881443560356,None,0,3,,D24O05,2022-11-04_10h42.41.050,t1_Paradigm,2021.1.4,59.902263378370556,
P,left,Pretarget,0,3,3,3,1095.586142868735,1097.588123182999,left,1,3,0.9327514402102679,D24O05,2022-11-04_10h42.41.050,t1_Paradigm,2021.1.4,59.902263378370556,
Z,left,Distractor,0,4,4,4,1099.0861172045115,1101.0881177294068,left,1,3,0.5527550204424188,D24O05,2022-11-04_10h42.41.050,t1_Paradigm,2021.1.4,59.902263378370556,
L,left,Pretarget,0,5,5,5,1102.5862086332636,1104.5882813386852,left,1,3,0.6365659752627835,D24O05,2022-11-04_10h42.41.050,t1_Paradigm,2021.1.4,59.902263378370556,
P,right,Target,0,6,6,6,1106.0852131829597,1108.0882502208697,right,1,3,0.6727005352731794,D24O05,2022-11-04_10h42.41.050,t1_Paradigm,2021.1.4,59.902263378370556,
S,left,Distractor,0,7,7,7,1109.5863141773734,1111.5883894491708,left,1,3,1.0446563594741747,D24O05,2022-11-04_10h42.41.050,t1_Paradigm,2021.1.4,59.902263378370556,
L,right,Target,0,8,8,8,1113.0861518512247,1115.0880439447938,right,1,3,0.5848298238124698,D24O05,2022-11-04_10h42.41.050,t1_Paradigm,2021.1.4,59.902263378370556,
D,left,Distractor,0,9,9,9,1116.5861836107215,1118.5880109021673,left,1,3,0.7807795631233603,D24O05,2022-11-04_10h42.41.050,t1_Paradigm,2021.1.4,59.902263378370556,
G,left,Distractor,0,10,10,10,1120.0863103277516,1122.088452968048,left,1,3,0.6885420870967209,D24O05,2022-11-04_10h42.41.050,t1_Paradigm,2021.1.4,59.902263378370556,
M,left,Pretarget,0,11,11,11,1123.5853055740008,1125.5882367471932,left,1,3,0.5646192618878558,D24O05,2022-11-04_10h42.41.050,t1_Paradigm,2021.1.4,59.902263378370556,
Y,left,Distractor,0,12,12,12,1127.0862092749448,1129.087848255178,left,1,3,0.5370693786535412,D24O05,2022-11-04_10h42.41.050,t1_Paradigm,2021.1.4,59.902263378370556,
V,left,Distractor,0,13,13,13,1130.5860960315913,1132.5879701601807,left,1,3,0.38133063772693276,D24O05,2022-11-04_10h42.41.050,t1_Paradigm,2021.1.4,59.902263378370556,
M,right,Target,0,14,14,14,1134.0860899363179,1136.0880468320101,right,1,3,0.9928663132013753,D24O05,2022-11-04_10h42.41.050,t1_Paradigm,2021.1.4,59.902263378370556,
S,left,Pretarget,0,15,15,15,1137.5862952499883,1139.58835897292,left,1,3,0.4686203757300973,D24O05,2022-11-04_10h42.41.050,t1_Paradigm,2021.1.4,59.902263378370556,
Q,left,Distractor,0,16,16,16,1141.0854406319559,1143.0885780811077,left,1,3,1.2884018322220072,D24O05,2022-11-04_10h42.41.050,t1_Paradigm,2021.1.4,59.902263378370556,
R,left,Pretarget,0,17,17,17,1144.5853309175,1146.5878549921326,left,1,3,0.5090896199690178,D24O05,2022-11-04_10h42.41.050,t1_Paradigm,2021.1.4,59.902263378370556,
S,right,Target,0,18,18,18,1148.0862294854596,1150.0885187325766,right,1,3,0.8483633615542203,D24O05,2022-11-04_10h42.41.050,t1_Paradigm,2021.1.4,59.902263378370556,
F,left,Distractor,0,19,19,19,1151.586289154715,1153.5993512730347,left,1,3,0.4096729033626616,D24O05,2022-11-04_10h42.41.050,t1_Paradigm,2021.1.4,59.902263378370556,
R,right,Target,0,20,20,20,1155.086129715899,1157.0882572785486,right,1,3,0.888769087032415,D24O05,2022-11-04_10h42.41.050,t1_Paradigm,2021.1.4,59.902263378370556,
P,left,Distractor,0,21,21,21,1158.58616179612,1160.5871254870435,left,1,3,0.7176857175072655,D24O05,2022-11-04_10h42.41.050,t1_Paradigm,2021.1.4,59.902263378370556,
L,left,Distractor,0,22,22,22,1162.0861977259628,1164.088023734279,left,1,3,0.785001645796001,D24O05,2022-11-04_10h42.41.050,t1_Paradigm,2021.1.4,59.902263378370556,
R,right,Target,0,23,23,23,1165.5861290742178,1167.5878450472374,right,1,3,0.4211865075631067,D24O05,2022-11-04_10h42.41.050,t1_Paradigm,2021.1.4,59.902263378370556,
H,left,Pretarget,0,24,24,24,1169.0861136757303,1171.0881645665504,left,1,3,0.6167673238087445,D24O05,2022-11-04_10h42.41.050,t1_Paradigm,2021.1.4,59.902263378370556,
G,left,Pretarget,0,25,25,25,1172.5862846635282,1174.5883442159975,left,1,3,0.9407808078685775,D24O05,2022-11-04_10h42.41.050,t1_Paradigm,2021.1.4,59.902263378370556,
T,left,Distractor,0,26,26,26,1176.0863671097904,1178.0884269831004,left,1,3,0.9770388767356053,D24O05,2022-11-04_10h42.41.050,t1_Paradigm,2021.1.4,59.902263378370556,
H,right,Target,0,27,27,27,1179.586361014517,1181.587711593369,right,1,3,0.6454550937050954,D24O05,2022-11-04_10h42.41.050,t1_Paradigm,2021.1.4,59.902263378370556,
G,right,Target,0,28,28,28,1183.0862464880338,1185.0878630121006,right,1,3,0.6491398320067674,D24O05,2022-11-04_10h42.41.050,t1_Paradigm,2021.1.4,59.902263378370556,
D,left,Distractor,0,29,29,29,1186.5863651849795,1188.5881860603113,left,1,3,0.4774963413365185,D24O05,2022-11-04_10h42.41.050,t1_Paradigm,2021.1.4,59.902263378370556,
N,left,Pretarget,0,30,30,30,1190.0864338367246,1192.085383849917,left,1,3,0.6757757486775517,D24O05,2022-11-04_10h42.41.050,t1_Paradigm,2021.1.4,59.902263378370556,
V,left,Distractor,0,31,31,31,1193.5862163325073,1195.5885825722944,left,1,3,0.5808217165758833,D24O05,2022-11-04_10h42.41.050,t1_Paradigm,2021.1.4,59.902263378370556,
R,left,Distractor,0,32,32,32,1197.0860536856344,1199.0882967371726,left,1,3,0.4727375559741631,D24O05,2022-11-04_10h42.41.050,t1_Paradigm,2021.1.4,59.902263378370556,
N,right,Target,0,33,33,33,1200.5863042324781,1202.5884975596564,right,1,3,0.9246704234974459,D24O05,2022-11-04_10h42.41.050,t1_Paradigm,2021.1.4,59.902263378370556,
Z,left,Distractor,0,34,34,34,1204.086232372676,1206.088353519328,left,1,3,0.6568095799302682,D24O05,2022-11-04_10h42.41.050,t1_Paradigm,2021.1.4,59.902263378370556,
N,left,Lure,0,35,35,35,1207.586321234936,1209.5879756138893,left,1,3,1.4132703832583502,D24O05,2022-11-04_10h42.41.050,t1_Paradigm,2021.1.4,59.902263378370556,
Y,left,Pretarget,0,36,36,36,1211.0864508391824,1213.0870513815898,None,0,3,,D24O05,2022-11-04_10h42.41.050,t1_Paradigm,2021.1.4,59.902263378370556,
Y,left,Lure,0,37,37,37,1214.5863905283622,1216.5864482728066,None,0,3,,D24O05,2022-11-04_10h42.41.050,t1_Paradigm,2021.1.4,59.902263378370556,
B,left,Distractor,0,38,38,38,1218.0863125732867,1220.08827139379,left,1,3,0.8167931805364788,D24O05,2022-11-04_10h42.41.050,t1_Paradigm,2021.1.4,59.902263378370556,
Y,right,Target,0,39,39,39,1221.5863975860411,1223.5882495791884,right,1,3,0.9647636871086434,D24O05,2022-11-04_10h42.41.050,t1_Paradigm,2021.1.4,59.902263378370556,
J,left,Distractor,0,40,40,40,1225.08640753082,1227.0881664913613,left,1,3,0.9849254871951416,D24O05,2022-11-04_10h42.41.050,t1_Paradigm,2021.1.4,59.902263378370556,
X,left,Distractor,0,41,41,41,1228.5864979971666,1230.5880266214954,None,0,3,,D24O05,2022-11-04_10h42.41.050,t1_Paradigm,2021.1.4,59.902263378370556,
W,left,Pretarget,0,42,42,42,1232.086180723505,1234.088144035195,left,1,3,1.0890605681343004,D24O05,2022-11-04_10h42.41.050,t1_Paradigm,2021.1.4,59.902263378370556,
S,left,Pretarget,0,43,43,43,1235.5863071196945,1237.5878476136131,None,0,3,,D24O05,2022-11-04_10h42.41.050,t1_Paradigm,2021.1.4,59.902263378370556,
R,left,Distractor,0,44,44,44,1239.086511150119,1241.0881883059628,left,1,3,1.4329131247941405,D24O05,2022-11-04_10h42.41.050,t1_Paradigm,2021.1.4,59.902263378370556,
W,right,Target,0,45,45,45,1242.5863411247265,1244.585519870161,right,1,3,0.975704658892937,D24O05,2022-11-04_10h42.41.050,t1_Paradigm,2021.1.4,59.902263378370556,
S,right,Target,0,46,46,46,1246.0862830594415,1248.0888055301039,left,0,3,1.3125136742601171,D24O05,2022-11-04_10h42.41.050,t1_Paradigm,2021.1.4,59.902263378370556,
D,left,Distractor,0,47,47,47,1249.586352673592,1251.5887144221924,None,0,3,,D24O05,2022-11-04_10h42.41.050,t1_Paradigm,2021.1.4,59.902263378370556,
T,left,Distractor,0,48,48,48,1253.0863279718906,1255.0884247374488,left,1,3,0.7448525624349713,D24O05,2022-11-04_10h42.41.050,t1_Paradigm,2021.1.4,59.902263378370556,
S,right,Target,0,49,49,49,1256.5863417662913,1258.588213328505,right,1,3,1.036946832202375,D24O05,2022-11-04_10h42.41.050,t1_Paradigm,2021.1.4,59.902263378370556,
K,left,Distractor,0,50,50,50,1260.0864251750754,1262.0885306022828,left,1,3,0.4811605482827872,D24O05,2022-11-04_10h42.41.050,t1_Paradigm,2021.1.4,59.902263378370556,
S,left,Lure,0,51,51,51,1263.5861447935458,1265.5878360647475,left,1,3,1.4294397953199223,D24O05,2022-11-04_10h42.41.050,t1_Paradigm,2021.1.4,59.902263378370556,
T,left,Pretarget,0,52,52,52,1267.086456292891,1269.0881549424957,left,1,3,0.7452269388595596,D24O05,2022-11-04_10h42.41.050,t1_Paradigm,2021.1.4,59.902263378370556,
V,left,Distractor,0,53,53,53,1270.5864447440254,1272.58859412116,left,1,3,0.8287581539480016,D24O05,2022-11-04_10h42.41.050,t1_Paradigm,2021.1.4,59.902263378370556,
B,left,Distractor,0,54,54,54,1274.0863972652005,1276.0856302262982,left,1,3,0.6116915856255218,D24O05,2022-11-04_10h42.41.050,t1_Paradigm,2021.1.4,59.902263378370556,
T,right,Target,0,55,55,55,1277.5864880522713,1279.588598612463,right,1,3,0.5325633857864887,D24O05,2022-11-04_10h42.41.050,t1_Paradigm,2021.1.4,59.902263378370556,
Y,left,Pretarget,0,56,56,56,1281.0864566136152,1283.0863905283622,left,1,3,0.6830938969505951,D24O05,2022-11-04_10h42.41.050,t1_Paradigm,2021.1.4,59.902263378370556,
T,left,Lure,0,57,57,57,1284.586579801864,1286.5886640561512,left,1,3,0.8766196520300582,D24O05,2022-11-04_10h42.41.050,t1_Paradigm,2021.1.4,59.902263378370556,
P,left,Pretarget,0,58,58,58,1288.0865599120734,1290.088274601847,left,1,3,0.9774138949578628,D24O05,2022-11-04_10h42.41.050,t1_Paradigm,2021.1.4,59.902263378370556,
Y,right,Target,0,59,59,59,1291.586498959572,1293.5885421511484,right,1,3,0.75639279326424,D24O05,2022-11-04_10h42.41.050,t1_Paradigm,2021.1.4,59.902263378370556,
R,left,Distractor,0,60,60,60,1295.0863953403896,1297.0884135093074,left,1,3,0.47291463892906904,D24O05,2022-11-04_10h42.41.050,t1_Paradigm,2021.1.4,59.902263378370556,
P,right,Target,0,61,61,61,1298.5862949291477,1300.5884051684989,right,1,3,1.2130199647508562,D24O05,2022-11-04_10h42.41.050,t1_Paradigm,2021.1.4,59.902263378370556,
L,left,Distractor,0,62,62,62,1302.0855776146054,1304.088667905773,left,1,3,0.6246741447830573,D24O05,2022-11-04_10h42.41.050,t1_Paradigm,2021.1.4,59.902263378370556,
V,left,Distractor,0,63,63,63,1305.586405606009,1307.588725971058,left,1,3,0.7403462486108765,D24O05,2022-11-04_10h42.41.050,t1_Paradigm,2021.1.4,59.902263378370556,
H,left,Lure,0,0,0,0,1314.8535443230066,1316.8523124411004,None,0,3,,D24O05,2022-11-04_10h42.41.050,t1_Paradigm,2021.1.4,59.902263378370556,
B,left,Distractor,0,1,1,1,1318.3531426781556,1320.3553173987893,None,0,3,,D24O05,2022-11-04_10h42.41.050,t1_Paradigm,2021.1.4,59.902263378370556,
T,left,Distractor,0,2,2,2,1321.8522476389771,1323.8523012130754,None,0,3,,D24O05,2022-11-04_10h42.41.050,t1_Paradigm,2021.1.4,59.902263378370556,
R,left,Distractor,0,3,3,3,1325.3531558311079,1327.3546100291423,left,1,3,0.3825987702002749,D24O05,2022-11-04_10h42.41.050,t1_Paradigm,2021.1.4,59.902263378370556,
H,left,Pretarget,0,4,4,4,1328.853317836416,1330.8551967770327,left,1,3,0.6422566920518875,D24O05,2022-11-04_10h42.41.050,t1_Paradigm,2021.1.4,59.902263378370556,
K,left,Distractor,0,5,5,5,1332.3530239812098,1334.3550196940778,left,1,3,0.9662210932001472,D24O05,2022-11-04_10h42.41.050,t1_Paradigm,2021.1.4,59.902263378370556,
G,left,Distractor,0,6,6,6,1335.8521940649953,1337.855277298484,None,0,3,,D24O05,2022-11-04_10h42.41.050,t1_Paradigm,2021.1.4,59.902263378370556,
H,right,Target,0,7,7,7,1339.353137545404,1341.3550755137112,left,0,3,1.2945875473087654,D24O05,2022-11-04_10h42.41.050,t1_Paradigm,2021.1.4,59.902263378370556,
Y,left,Pretarget,0,8,8,8,1342.853258487885,1344.8550867417362,left,1,3,0.8022704480681568,D24O05,2022-11-04_10h42.41.050,t1_Paradigm,2021.1.4,59.902263378370556,
S,left,Distractor,0,9,9,9,1346.3532652247231,1348.3550469622714,left,1,3,0.7584414384327829,D24O05,2022-11-04_10h42.41.050,t1_Paradigm,2021.1.4,59.902263378370556,
P,left,Distractor,0,10,10,10,1349.8522986465832,1351.8557851290097,left,1,3,0.5695493557723239,D24O05,2022-11-04_10h42.41.050,t1_Paradigm,2021.1.4,59.902263378370556,
Y,right,Target,0,11,11,11,1353.3531763624633,1355.3551701504039,right,1,3,0.41468993469607085,D24O05,2022-11-04_10h42.41.050,t1_Paradigm,2021.1.4,59.902263378370556,
H,left,Lure,0,12,12,12,1356.8532033099327,1358.8523134035058,left,1,3,0.6451002861140296,D24O05,2022-11-04_10h42.41.050,t1_Paradigm,2021.1.4,59.902263378370556,
Q,left,Distractor,0,13,13,13,1360.353355049505,1362.3659234526567,left,1,3,0.57140166987665,D24O05,2022-11-04_10h42.41.050,t1_Paradigm,2021.1.4,59.902263378370556,
V,left,Pretarget,0,14,14,14,1363.8529803521233,1365.8549940298544,left,1,3,0.6183700534747913,D24O05,2022-11-04_10h42.41.050,t1_Paradigm,2021.1.4,59.902263378370556,
G,left,Distractor,0,15,15,15,1367.3532145379577,1369.3550630024401,left,1,3,0.5423238039948046,D24O05,2022-11-04_10h42.41.050,t1_Paradigm,2021.1.4,59.902263378370556,
Z,left,Pretarget,0,16,16,16,1370.85323827737,1372.8559124876047,left,1,3,0.8974346059840173,D24O05,2022-11-04_10h42.41.050,t1_Paradigm,2021.1.4,59.902263378370556,
V,right,Target,0,17,17,17,1374.3532090843655,1376.355283714598,right,1,3,0.47014932078309357,D24O05,2022-11-04_10h42.41.050,t1_Paradigm,2021.1.4,59.902263378370556,
N,left,Distractor,0,18,18,18,1377.8531760416226,1379.8550347717246,left,1,3,0.8904298818670213,D24O05,2022-11-04_10h42.41.050,t1_Paradigm,2021.1.4,59.902263378370556,
Z,right,Target,0,19,19,19,1381.3532126131468,1383.3552282156888,right,1,3,0.4146790273953229,D24O05,2022-11-04_10h42.41.050,t1_Paradigm,2021.1.4,59.902263378370556,
R,left,Distractor,0,20,20,20,1384.8532658664044,1386.855626652483,left,1,3,0.49768957984633744,D24O05,2022-11-04_10h42.41.050,t1_Paradigm,2021.1.4,59.902263378370556,
P,left,Distractor,0,21,21,21,1388.3532854353543,1390.3559529087506,left,1,3,0.4375034887343645,D24O05,2022-11-04_10h42.41.050,t1_Paradigm,2021.1.4,59.902263378370556,
Z,right,Target,0,22,22,22,1391.8523490126245,1393.8552859601332,right,1,3,0.6500762547366321,D24O05,2022-11-04_10h42.41.050,t1_Paradigm,2021.1.4,59.902263378370556,
D,left,Pretarget,0,23,23,23,1395.3534987691091,1397.3551893986296,left,1,3,0.5582615965977311,D24O05,2022-11-04_10h42.41.050,t1_Paradigm,2021.1.4,59.902263378370556,
K,left,Distractor,0,24,24,24,1398.853182136896,1400.8555050683208,left,1,3,0.4658428670372814,D24O05,2022-11-04_10h42.41.050,t1_Paradigm,2021.1.4,59.902263378370556,
W,left,Distractor,0,25,25,25,1402.352495619445,1404.3551056691213,left,1,3,0.6623915446689352,D24O05,2022-11-04_10h42.41.050,t1_Paradigm,2021.1.4,59.902263378370556,
D,right,Target,0,26,26,26,1405.8532777361106,1407.8550383006223,right,1,3,0.6663319626823068,D24O05,2022-11-04_10h42.41.050,t1_Paradigm,2021.1.4,59.902263378370556,
G,left,Pretarget,0,27,27,27,1409.3532953802496,1411.3557200060459,left,1,3,0.5417463593184948,D24O05,2022-11-04_10h42.41.050,t1_Paradigm,2021.1.4,59.902263378370556,
V,left,Distractor,0,28,28,28,1412.8532940970035,1414.8552853185683,left,1,3,0.530157366534695,D24O05,2022-11-04_10h42.41.050,t1_Paradigm,2021.1.4,59.902263378370556,
D,right,Target,0,29,29,29,1416.3532799816458,1418.3554534191499,right,1,3,0.4699751250445843,D24O05,2022-11-04_10h42.41.050,t1_Paradigm,2021.1.4,59.902263378370556,
G,right,Target,0,30,30,30,1419.8534532150952,1421.8551460902672,right,1,3,0.7304302410921082,D24O05,2022-11-04_10h42.41.050,t1_Paradigm,2021.1.4,59.902263378370556,
B,left,Pretarget,0,31,31,31,1423.353426909307,1425.3548775785603,left,1,3,0.7345310604432598,D24O05,2022-11-04_10h42.41.050,t1_Paradigm,2021.1.4,59.902263378370556,
N,left,Distractor,0,32,32,32,1426.8531545478618,1428.85541428125,left,1,3,0.6739410788286477,D24O05,2022-11-04_10h42.41.050,t1_Paradigm,2021.1.4,59.902263378370556,
F,left,Distractor,0,33,33,33,1430.3529963921756,1432.3525132635841,left,1,3,0.5689183371141553,D24O05,2022-11-04_10h42.41.050,t1_Paradigm,2021.1.4,59.902263378370556,
B,right,Target,0,34,34,34,1433.853440062143,1435.8553276645252,right,1,3,0.6181060329545289,D24O05,2022-11-04_10h42.41.050,t1_Paradigm,2021.1.4,59.902263378370556,
Q,left,Pretarget,0,35,35,35,1437.3529874098022,1439.3554043363547,left,1,3,0.5105855223955587,D24O05,2022-11-04_10h42.41.050,t1_Paradigm,2021.1.4,59.902263378370556,
S,left,Pretarget,0,36,36,36,1440.853293134598,1442.8552493887255,left,1,3,0.4661543663823977,D24O05,2022-11-04_10h42.41.050,t1_Paradigm,2021.1.4,59.902263378370556,
W,left,Distractor,0,37,37,37,1444.3529556503054,1446.3555172588676,left,1,3,0.7581469416618347,D24O05,2022-11-04_10h42.41.050,t1_Paradigm,2021.1.4,59.902263378370556,
Q,right,Target,0,38,38,38,1447.8534451950109,1449.8552041555522,right,1,3,0.3946914231637493,D24O05,2022-11-04_10h42.41.050,t1_Paradigm,2021.1.4,59.902263378370556,
S,right,Target,0,39,39,39,1451.353030397324,1453.3553244564682,right,1,3,0.8302255049347878,D24O05,2022-11-04_10h42.41.050,t1_Paradigm,2021.1.4,59.902263378370556,
T,left,Distractor,0,40,40,40,1454.8533717312384,1456.855418451596,left,1,3,0.5621882199775428,D24O05,2022-11-04_10h42.41.050,t1_Paradigm,2021.1.4,59.902263378370556,
G,left,Distractor,0,41,41,41,1458.353416322847,1460.3553119451972,left,1,3,0.5821732577169314,D24O05,2022-11-04_10h42.41.050,t1_Paradigm,2021.1.4,59.902263378370556,
D,left,Distractor,0,42,42,42,1461.8534461574163,1463.85567060241,left,1,3,0.6177531501743942,D24O05,2022-11-04_10h42.41.050,t1_Paradigm,2021.1.4,59.902263378370556,
S,left,Lure,0,43,43,43,1465.3522601503646,1467.3555663416628,left,1,3,0.6060457810526714,D24O05,2022-11-04_10h42.41.050,t1_Paradigm,2021.1.4,59.902263378370556,
Z,left,Pretarget,0,44,44,44,1468.8535805736901,1470.855475233635,left,1,3,0.5303184094373137,D24O05,2022-11-04_10h42.41.050,t1_Paradigm,2021.1.4,59.902263378370556,
J,left,Distractor,0,45,45,45,1472.3533836009447,1474.355194210657,left,1,3,0.5503294322406873,D24O05,2022-11-04_10h42.41.050,t1_Paradigm,2021.1.4,59.902263378370556,
M,left,Pretarget,0,46,46,46,1475.8533329141792,1477.8556779809296,left,1,3,0.4102497062413022,D24O05,2022-11-04_10h42.41.050,t1_Paradigm,2021.1.4,59.902263378370556,
Z,right,Target,0,47,47,47,1479.353474708856,1481.3559420014499,left,0,3,0.5415426497347653,D24O05,2022-11-04_10h42.41.050,t1_Paradigm,2021.1.4,59.902263378370556,
P,left,Distractor,0,48,48,48,1482.853552343091,1484.8552246869076,left,1,3,1.0904028061777353,D24O05,2022-11-04_10h42.41.050,t1_Paradigm,2021.1.4,59.902263378370556,
M,right,Target,0,49,49,49,1486.3535568342777,1488.3550424709683,right,1,3,0.6150388395180926,D24O05,2022-11-04_10h42.41.050,t1_Paradigm,2021.1.4,59.902263378370556,
K,left,Distractor,0,50,50,50,1489.8524455742445,1491.8558630839689,left,1,3,0.7298614581814036,D24O05,2022-11-04_10h42.41.050,t1_Paradigm,2021.1.4,59.902263378370556,
Y,left,Distractor,0,51,51,51,1493.3526919506257,1495.3552586919395,left,1,3,0.3985311092110351,D24O05,2022-11-04_10h42.41.050,t1_Paradigm,2021.1.4,59.902263378370556,
X,left,Distractor,0,52,52,52,1496.8534605934983,1498.8552426517708,left,1,3,0.7862800438888371,D24O05,2022-11-04_10h42.41.050,t1_Paradigm,2021.1.4,59.902263378370556,
F,left,Pretarget,0,53,53,53,1500.352563629509,1502.3555695496034,left,1,3,0.7901008025510237,D24O05,2022-11-04_10h42.41.050,t1_Paradigm,2021.1.4,59.902263378370556,
M,left,Lure,0,54,54,54,1503.8534127939492,1505.8555053891614,left,1,3,0.41063370706979185,D24O05,2022-11-04_10h42.41.050,t1_Paradigm,2021.1.4,59.902263378370556,
V,left,Distractor,0,55,55,55,1507.3536242028931,1509.3556086876197,left,1,3,0.49419219023548067,D24O05,2022-11-04_10h42.41.050,t1_Paradigm,2021.1.4,59.902263378370556,
F,right,Target,0,56,56,56,1510.8532979466254,1512.8555538302753,right,1,3,0.674068758264184,D24O05,2022-11-04_10h42.41.050,t1_Paradigm,2021.1.4,59.902263378370556,
S,left,Distractor,0,57,57,57,1514.3533996411134,1516.3554585519014,left,1,3,0.5661151641979814,D24O05,2022-11-04_10h42.41.050,t1_Paradigm,2021.1.4,59.902263378370556,
D,left,Distractor,0,58,58,58,1517.8536213156767,1519.8554582311772,left,1,3,0.47426746343262494,D24O05,2022-11-04_10h42.41.050,t1_Paradigm,2021.1.4,59.902263378370556,
F,right,Target,0,59,59,59,1521.3535500974394,1523.3557065323694,right,1,3,0.8620619521243498,D24O05,2022-11-04_10h42.41.050,t1_Paradigm,2021.1.4,59.902263378370556,
V,left,Pretarget,0,60,60,60,1524.8534490446327,1526.8556837553624,left,1,3,0.5621311170980334,D24O05,2022-11-04_10h42.41.050,t1_Paradigm,2021.1.4,59.902263378370556,
J,left,Distractor,0,61,61,61,1528.353510638699,1530.355714231613,left,1,3,0.8858764101751149,D24O05,2022-11-04_10h42.41.050,t1_Paradigm,2021.1.4,59.902263378370556,
V,left,Lure,0,62,62,62,1531.8535077514825,1533.855920507689,left,1,3,0.8417901168577373,D24O05,2022-11-04_10h42.41.050,t1_Paradigm,2021.1.4,59.902263378370556,
V,right,Target,0,63,63,63,1535.3534410245484,1537.3534564231522,right,1,3,1.200115681393072,D24O05,2022-11-04_10h42.41.050,t1_Paradigm,2021.1.4,59.902263378370556,
R,left,Distractor,0,0,0,0,1588.038988419692,1590.0389990061522,None,0,4,,D24O05,2022-11-04_10h42.41.050,t1_Paradigm,2021.1.4,59.902263378370556,
F,left,Distractor,0,1,1,1,1591.5367832228076,1593.5387936924817,None,0,4,,D24O05,2022-11-04_10h42.41.050,t1_Paradigm,2021.1.4,59.902263378370556,
P,left,Pretarget,0,2,2,2,1595.0370068221819,1597.0360591713106,None,0,4,,D24O05,2022-11-04_10h42.41.050,t1_Paradigm,2021.1.4,59.902263378370556,
H,left,Distractor,0,3,3,3,1598.5370090678334,1600.5387491008732,None,0,4,,D24O05,2022-11-04_10h42.41.050,t1_Paradigm,2021.1.4,59.902263378370556,
Z,left,Distractor,0,4,4,4,1602.0368621401722,1604.0388427752769,left,1,4,0.43490691273473203,D24O05,2022-11-04_10h42.41.050,t1_Paradigm,2021.1.4,59.902263378370556,
T,left,Distractor,0,5,5,5,1605.5367877139943,1607.5395668266574,left,1,4,0.4062537894351408,D24O05,2022-11-04_10h42.41.050,t1_Paradigm,2021.1.4,59.902263378370556,
P,right,Target,0,6,6,6,1609.0370517345145,1611.0361993621336,right,1,4,0.47757910832297057,D24O05,2022-11-04_10h42.41.050,t1_Paradigm,2021.1.4,59.902263378370556,
G,left,Distractor,0,7,7,7,1612.5367889972404,1614.5389521688921,left,1,4,0.3667607473907992,D24O05,2022-11-04_10h42.41.050,t1_Paradigm,2021.1.4,59.902263378370556,
L,left,Distractor,0,8,8,8,1616.0368688770104,1618.0394442800898,left,1,4,0.46630193560849875,D24O05,2022-11-04_10h42.41.050,t1_Paradigm,2021.1.4,59.902263378370556,
P,left,Lure,0,9,9,9,1619.5368015085114,1621.5500846597133,left,1,4,1.0035904223332182,D24O05,2022-11-04_10h42.41.050,t1_Paradigm,2021.1.4,59.902263378370556,
Q,left,Pretarget,0,10,10,10,1623.0369336791337,1625.0497869550018,left,1,4,0.5759907505707815,D24O05,2022-11-04_10h42.41.050,t1_Paradigm,2021.1.4,59.902263378370556,
D,left,Distractor,0,11,11,11,1626.536940415972,1628.5390378232114,left,1,4,0.9586700423387811,D24O05,2022-11-04_10h42.41.050,t1_Paradigm,2021.1.4,59.902263378370556,
M,left,Pretarget,0,12,12,12,1630.0370055389358,1632.0390073469607,left,1,4,0.6270169659983367,D24O05,2022-11-04_10h42.41.050,t1_Paradigm,2021.1.4,59.902263378370556,
C,left,Distractor,0,13,13,13,1633.5369410576532,1635.5388488705503,left,1,4,0.5829005172709003,D24O05,2022-11-04_10h42.41.050,t1_Paradigm,2021.1.4,59.902263378370556,
Q,right,Target,0,14,14,14,1637.0370347319404,1639.0386101934128,right,1,4,0.3470833592582494,D24O05,2022-11-04_10h42.41.050,t1_Paradigm,2021.1.4,59.902263378370556,
R,left,Distractor,0,15,15,15,1640.536944907275,1642.5364027508767,left,1,4,0.9134763386100531,D24O05,2022-11-04_10h42.41.050,t1_Paradigm,2021.1.4,59.902263378370556,
M,right,Target,0,16,16,16,1644.037041468895,1646.0387956172926,None,0,4,,D24O05,2022-11-04_10h42.41.050,t1_Paradigm,2021.1.4,59.902263378370556,
S,left,Distractor,0,17,17,17,1647.5360623793676,1649.5363533473574,left,1,4,1.0339781250804663,D24O05,2022-11-04_10h42.41.050,t1_Paradigm,2021.1.4,59.902263378370556,
Z,left,Distractor,0,18,18,18,1651.0368608570425,1653.0390747155761,left,1,4,0.7628964238101617,D24O05,2022-11-04_10h42.41.050,t1_Paradigm,2021.1.4,59.902263378370556,
L,left,Pretarget,0,19,19,19,1654.5369866115507,1656.538787918049,left,1,4,0.5429811285575852,D24O05,2022-11-04_10h42.41.050,t1_Paradigm,2021.1.4,59.902263378370556,
M,right,Target,0,20,20,20,1658.0371620906517,1660.0390923597151,left,0,4,1.2507084924727678,D24O05,2022-11-04_10h42.41.050,t1_Paradigm,2021.1.4,59.902263378370556,
P,left,Distractor,0,21,21,21,1661.5370658498723,1663.539129572804,left,1,4,0.6788747016107664,D24O05,2022-11-04_10h42.41.050,t1_Paradigm,2021.1.4,59.902263378370556,
F,left,Distractor,0,22,22,22,1665.0370796443895,1667.039614947047,left,1,4,0.8743727508699521,D24O05,2022-11-04_10h42.41.050,t1_Paradigm,2021.1.4,59.902263378370556,
L,right,Target,0,23,23,23,1668.5371418800205,1670.5395280095981,right,1,4,0.6384288758272305,D24O05,2022-11-04_10h42.41.050,t1_Paradigm,2021.1.4,59.902263378370556,
L,left,Lure,0,24,24,24,1672.0368740098784,1674.037147333729,left,1,4,0.5331668155267835,D24O05,2022-11-04_10h42.41.050,t1_Paradigm,2021.1.4,59.902263378370556,
V,left,Pretarget,0,25,25,25,1675.5370366567513,1677.5394468464656,left,1,4,0.6307844714028761,D24O05,2022-11-04_10h42.41.050,t1_Paradigm,2021.1.4,59.902263378370556,
Z,left,Distractor,0,26,26,26,1679.0361582993064,1681.0389345247531,left,1,4,0.6189677086658776,D24O05,2022-11-04_10h42.41.050,t1_Paradigm,2021.1.4,59.902263378370556,
H,left,Distractor,0,27,27,27,1682.5370822107652,1684.5387962588575,left,1,4,0.5912125118775293,D24O05,2022-11-04_10h42.41.050,t1_Paradigm,2021.1.4,59.902263378370556,
X,left,Distractor,0,28,28,28,1686.0360784195364,1688.0391497833189,left,1,4,0.5469802533043548,D24O05,2022-11-04_10h42.41.050,t1_Paradigm,2021.1.4,59.902263378370556,
V,right,Target,0,29,29,29,1689.5372118150117,1691.539655368193,left,0,4,0.5022610165178776,D24O05,2022-11-04_10h42.41.050,t1_Paradigm,2021.1.4,59.902263378370556,
C,left,Distractor,0,30,30,30,1693.0370648874668,1695.039178013918,left,1,4,0.5387978629441932,D24O05,2022-11-04_10h42.41.050,t1_Paradigm,2021.1.4,59.902263378370556,
S,left,Pretarget,0,31,31,31,1696.5370600754395,1698.5391696731094,left,1,4,0.7506170638371259,D24O05,2022-11-04_10h42.41.050,t1_Paradigm,2021.1.4,59.902263378370556,
D,left,Distractor,0,32,32,32,1700.0362535776803,1702.0360720034223,left,1,4,0.4538814224069938,D24O05,2022-11-04_10h42.41.050,t1_Paradigm,2021.1.4,59.902263378370556,
V,left,Distractor,0,33,33,33,1703.537269559456,1705.539120911155,right,0,4,0.5987735076341778,D24O05,2022-11-04_10h42.41.050,t1_Paradigm,2021.1.4,59.902263378370556,
R,left,Distractor,0,34,34,34,1707.0370344112162,1709.0392457032576,left,1,4,0.938758468371816,D24O05,2022-11-04_10h42.41.050,t1_Paradigm,2021.1.4,59.902263378370556,
S,right,Target,0,35,35,35,1710.5371322559658,1712.5394911172334,right,1,4,0.5903967107878998,D24O05,2022-11-04_10h42.41.050,t1_Paradigm,2021.1.4,59.902263378370556,
Y,left,Distractor,0,36,36,36,1714.036726119928,1716.0389913069084,left,1,4,0.754955276963301,D24O05,2022-11-04_10h42.41.050,t1_Paradigm,2021.1.4,59.902263378370556,
N,left,Pretarget,0,37,37,37,1717.537053980166,1719.538974625175,left,1,4,1.1429582873824984,D24O05,2022-11-04_10h42.41.050,t1_Paradigm,2021.1.4,59.902263378370556,
Z,left,Pretarget,0,38,38,38,1721.0371527873212,1723.03909300128,left,1,4,1.0668539726175368,D24O05,2022-11-04_10h42.41.050,t1_Paradigm,2021.1.4,59.902263378370556,
P,left,Pretarget,0,39,39,39,1724.537059113034,1726.5391151366057,left,1,4,1.0388546450994909,D24O05,2022-11-04_10h42.41.050,t1_Paradigm,2021.1.4,59.902263378370556,
M,left,Distractor,0,40,40,40,1728.0370167670771,1730.0385996069526,left,1,4,0.6433201526524499,D24O05,2022-11-04_10h42.41.050,t1_Paradigm,2021.1.4,59.902263378370556,
N,right,Target,0,41,41,41,1731.5371579201892,1733.5392447408522,left,0,4,0.7270310170715675,D24O05,2022-11-04_10h42.41.050,t1_Paradigm,2021.1.4,59.902263378370556,
Z,right,Target,0,42,42,42,1735.037080606795,1737.0394025758142,right,1,4,0.4266475298209116,D24O05,2022-11-04_10h42.41.050,t1_Paradigm,2021.1.4,59.902263378370556,
P,right,Target,0,43,43,43,1738.5362789211795,1740.5390391064575,right,1,4,0.44703068351373076,D24O05,2022-11-04_10h42.41.050,t1_Paradigm,2021.1.4,59.902263378370556,
X,left,Pretarget,0,44,44,44,1742.037202190957,1744.0362895076396,left,1,4,0.6138435292523354,D24O05,2022-11-04_10h42.41.050,t1_Paradigm,2021.1.4,59.902263378370556,
Z,left,Lure,0,45,45,45,1745.5372608978068,1747.5390086302068,left,1,4,1.127252434962429,D24O05,2022-11-04_10h42.41.050,t1_Paradigm,2021.1.4,59.902263378370556,
R,left,Pretarget,0,46,46,46,1749.0372034740867,1751.0391539537814,left,1,4,0.9389596115797758,D24O05,2022-11-04_10h42.41.050,t1_Paradigm,2021.1.4,59.902263378370556,
K,left,Distractor,0,47,47,47,1752.5371242358815,1754.5391289311228,left,1,4,1.0868845643708482,D24O05,2022-11-04_10h42.41.050,t1_Paradigm,2021.1.4,59.902263378370556,
X,right,Target,0,48,48,48,1756.0372637850232,1758.039232871146,left,0,4,1.1867488006828353,D24O05,2022-11-04_10h42.41.050,t1_Paradigm,2021.1.4,59.902263378370556,
B,left,Distractor,0,49,49,49,1759.5370116342092,1761.5363324951613,left,1,4,0.9695875955512747,D24O05,2022-11-04_10h42.41.050,t1_Paradigm,2021.1.4,59.902263378370556,
R,right,Target,0,50,50,50,1763.037219835096,1765.0395116485888,right,1,4,1.3865853839088231,D24O05,2022-11-04_10h42.41.050,t1_Paradigm,2021.1.4,59.902263378370556,
Y,left,Pretarget,0,51,51,51,1766.5372358751483,1768.539307939005,left,1,4,0.7347309204051271,D24O05,2022-11-04_10h42.41.050,t1_Paradigm,2021.1.4,59.902263378370556,
W,left,Pretarget,0,52,52,52,1770.037224005442,1772.0397320400225,left,1,4,0.46607095771469176,D24O05,2022-11-04_10h42.41.050,t1_Paradigm,2021.1.4,59.902263378370556,
Z,left,Distractor,0,53,53,53,1773.5372846372193,1775.5394308064133,left,1,4,0.4706115972949192,D24O05,2022-11-04_10h42.41.050,t1_Paradigm,2021.1.4,59.902263378370556,
Q,left,Distractor,0,54,54,54,1777.0372256095288,1779.0397201703163,left,1,4,0.6503460496896878,D24O05,2022-11-04_10h42.41.050,t1_Paradigm,2021.1.4,59.902263378370556,
Y,right,Target,0,55,55,55,1780.5371582410298,1782.5388668354135,right,1,4,0.719241609913297,D24O05,2022-11-04_10h42.41.050,t1_Paradigm,2021.1.4,59.902263378370556,
W,right,Target,0,56,56,56,1784.037226892775,1786.0390246703755,right,1,4,0.4348613587208092,D24O05,2022-11-04_10h42.41.050,t1_Paradigm,2021.1.4,59.902263378370556,
H,left,Pretarget,0,57,57,57,1787.5364515129477,1789.5392639890779,left,1,4,0.7909233403624967,D24O05,2022-11-04_10h42.41.050,t1_Paradigm,2021.1.4,59.902263378370556,
M,left,Distractor,0,58,58,58,1791.037336927955,1793.0390904349042,left,1,4,1.163180398172699,D24O05,2022-11-04_10h42.41.050,t1_Paradigm,2021.1.4,59.902263378370556,
R,left,Pretarget,0,59,59,59,1794.537237479235,1796.539718566346,left,1,4,0.670383378281258,D24O05,2022-11-04_10h42.41.050,t1_Paradigm,2021.1.4,59.902263378370556,
J,left,Distractor,0,60,60,60,1798.0372227223124,1800.0373738203198,left,1,4,0.5968599201878533,D24O05,2022-11-04_10h42.41.050,t1_Paradigm,2021.1.4,59.902263378370556,
H,right,Target,0,61,61,61,1801.5372795043513,1803.539484059671,right,1,4,0.45466674712952226,D24O05,2022-11-04_10h42.41.050,t1_Paradigm,2021.1.4,59.902263378370556,
Z,left,Distractor,0,62,62,62,1805.0371723562712,1807.0398119197926,left,1,4,0.6343755354173481,D24O05,2022-11-04_10h42.41.050,t1_Paradigm,2021.1.4,59.902263378370556,
R,right,Target,0,63,63,63,1808.5363520641113,1810.5390304448083,right,1,4,0.8632694529369473,D24O05,2022-11-04_10h42.41.050,t1_Paradigm,2021.1.4,59.902263378370556,
J,left,Pretarget,0,0,0,0,1815.6398978307843,1817.639452236006,None,0,4,,D24O05,2022-11-04_10h42.41.050,t1_Paradigm,2021.1.4,59.902263378370556,
G,left,Pretarget,0,1,1,1,1819.137242868659,1821.1390191524988,None,0,4,,D24O05,2022-11-04_10h42.41.050,t1_Paradigm,2021.1.4,59.902263378370556,
Z,left,Distractor,0,2,2,2,1822.6372743073152,1824.639217729331,None,0,4,,D24O05,2022-11-04_10h42.41.050,t1_Paradigm,2021.1.4,59.902263378370556,
F,left,Distractor,0,3,3,3,1826.1363144660136,1828.139015302877,None,0,4,,D24O05,2022-11-04_10h42.41.050,t1_Paradigm,2021.1.4,59.902263378370556,
J,right,Target,0,4,4,4,1829.6373006131034,1831.639268736937,right,1,4,0.5469398321583867,D24O05,2022-11-04_10h42.41.050,t1_Paradigm,2021.1.4,59.902263378370556,
G,right,Target,0,5,5,5,1833.1372505679028,1835.1389399142936,right,1,4,0.5672174418577924,D24O05,2022-11-04_10h42.41.050,t1_Paradigm,2021.1.4,59.902263378370556,
H,left,Distractor,0,6,6,6,1836.6364530527499,1838.6393277646275,left,1,4,1.178969017462805,D24O05,2022-11-04_10h42.41.050,t1_Paradigm,2021.1.4,59.902263378370556,
P,left,Distractor,0,7,7,7,1840.137475129799,1842.139568366576,left,1,4,1.0227214837213978,D24O05,2022-11-04_10h42.41.050,t1_Paradigm,2021.1.4,59.902263378370556,
G,left,Lure,0,8,8,8,1843.6373468086822,1845.6394012284,left,1,4,1.1388600345235318,D24O05,2022-11-04_10h42.41.050,t1_Paradigm,2021.1.4,59.902263378370556,
S,left,Distractor,0,9,9,9,1847.13729163073,1849.1393004964339,left,1,4,0.6312560511287302,D24O05,2022-11-04_10h42.41.050,t1_Paradigm,2021.1.4,59.902263378370556,
R,left,Pretarget,0,10,10,10,1850.6364074988523,1852.6389521048404,left,1,4,0.4432189072249457,D24O05,2022-11-04_10h42.41.050,t1_Paradigm,2021.1.4,59.902263378370556,
T,left,Pretarget,0,11,11,11,1854.1373099164339,1856.1395930682775,left,1,4,0.4787641529692337,D24O05,2022-11-04_10h42.41.050,t1_Paradigm,2021.1.4,59.902263378370556,
X,left,Distractor,0,12,12,12,1857.637439841521,1859.639833670226,left,1,4,0.5145374892745167,D24O05,2022-11-04_10h42.41.050,t1_Paradigm,2021.1.4,59.902263378370556,
F,left,Pretarget,0,13,13,13,1861.1364376542624,1863.1401069940766,left,1,4,0.5181118715554476,D24O05,2022-11-04_10h42.41.050,t1_Paradigm,2021.1.4,59.902263378370556,
R,right,Target,0,14,14,14,1864.6372807234293,1866.6367279805709,right,1,4,0.8935230602510273,D24O05,2022-11-04_10h42.41.050,t1_Paradigm,2021.1.4,59.902263378370556,
T,right,Target,0,15,15,15,1868.1373317310354,1870.1398461816134,right,1,4,0.7503325118450448,D24O05,2022-11-04_10h42.41.050,t1_Paradigm,2021.1.4,59.902263378370556,
C,left,Distractor,0,16,16,16,1871.6373323726002,1873.6383198029362,left,1,4,0.6761873384239152,D24O05,2022-11-04_10h42.41.050,t1_Paradigm,2021.1.4,59.902263378370556,
F,right,Target,0,17,17,17,1875.1376210949384,1877.1392696993425,left,0,4,0.98293169925455,D24O05,2022-11-04_10h42.41.050,t1_Paradigm,2021.1.4,59.902263378370556,
M,left,Distractor,0,18,18,18,1878.6374039115617,1880.6397101612529,left,1,4,0.44247336219996214,D24O05,2022-11-04_10h42.41.050,t1_Paradigm,2021.1.4,59.902263378370556,
N,left,Distractor,0,19,19,19,1882.1364556191256,1884.1368790785782,left,1,4,0.6095027496339753,D24O05,2022-11-04_10h42.41.050,t1_Paradigm,2021.1.4,59.902263378370556,
R,left,Lure,0,20,20,20,1885.637352583115,1887.639074651408,None,0,4,,D24O05,2022-11-04_10h42.41.050,t1_Paradigm,2021.1.4,59.902263378370556,
F,right,Target,0,21,21,21,1889.1374096859945,1891.1394657096826,left,0,4,1.3827813069801778,D24O05,2022-11-04_10h42.41.050,t1_Paradigm,2021.1.4,59.902263378370556,
P,left,Distractor,0,22,22,22,1892.6374716009013,1894.639219654142,left,1,4,0.9870305936783552,D24O05,2022-11-04_10h42.41.050,t1_Paradigm,2021.1.4,59.902263378370556,
L,left,Pretarget,0,23,23,23,1896.1374706384959,1898.139168004971,left,1,4,0.7190558651927859,D24O05,2022-11-04_10h42.41.050,t1_Paradigm,2021.1.4,59.902263378370556,
T,left,Distractor,0,24,24,24,1899.6373644528212,1901.6396466423757,left,1,4,0.5948212199145928,D24O05,2022-11-04_10h42.41.050,t1_Paradigm,2021.1.4,59.902263378370556,
F,left,Distractor,0,25,25,25,1903.1374959818786,1905.1393569576321,right,0,4,0.42281008942518383,D24O05,2022-11-04_10h42.41.050,t1_Paradigm,2021.1.4,59.902263378370556,
V,left,Distractor,0,26,26,26,1906.6375043228036,1908.6394608976552,left,1,4,0.47505471284966916,D24O05,2022-11-04_10h42.41.050,t1_Paradigm,2021.1.4,59.902263378370556,
L,right,Target,0,27,27,27,1910.1375915810931,1912.1398936603218,right,1,4,0.6226582214003429,D24O05,2022-11-04_10h42.41.050,t1_Paradigm,2021.1.4,59.902263378370556,
S,left,Pretarget,0,28,28,28,1913.6374331045663,1915.639775604941,left,1,4,1.0106618733843789,D24O05,2022-11-04_10h42.41.050,t1_Paradigm,2021.1.4,59.902263378370556,
W,left,Distractor,0,29,29,29,1917.1373612448806,1919.1395988428267,left,1,4,0.6467905949102715,D24O05,2022-11-04_10h42.41.050,t1_Paradigm,2021.1.4,59.902263378370556,
Q,left,Distractor,0,30,30,30,1920.6376031299587,1922.6393024212448,left,1,4,0.5231199205154553,D24O05,2022-11-04_10h42.41.050,t1_Paradigm,2021.1.4,59.902263378370556,
L,right,Target,0,31,31,31,1924.137628794182,1926.1396594744874,left,0,4,0.9586517566349357,D24O05,2022-11-04_10h42.41.050,t1_Paradigm,2021.1.4,59.902263378370556,
S,right,Target,0,32,32,32,1927.637523570913,1929.6391538896132,right,1,4,0.4192219126271084,D24O05,2022-11-04_10h42.41.050,t1_Paradigm,2021.1.4,59.902263378370556,
Z,left,Pretarget,0,33,33,33,1931.1373711897759,1933.1396267525852,left,1,4,0.48671267833560705,D24O05,2022-11-04_10h42.41.050,t1_Paradigm,2021.1.4,59.902263378370556,
F,left,Distractor,0,34,34,34,1934.6374411246506,1936.6399372895248,left,1,4,0.6023735540220514,D24O05,2022-11-04_10h42.41.050,t1_Paradigm,2021.1.4,59.902263378370556,
V,left,Distractor,0,35,35,35,1938.1375713705784,1940.139365298557,left,1,4,0.41478104272391647,D24O05,2022-11-04_10h42.41.050,t1_Paradigm,2021.1.4,59.902263378370556,
M,left,Distractor,0,36,36,36,1941.6376146788243,1943.6398782618344,left,1,4,0.9786499473266304,D24O05,2022-11-04_10h42.41.050,t1_Paradigm,2021.1.4,59.902263378370556,
Z,right,Target,0,37,37,37,1945.137514588423,1947.1393441255204,right,1,4,0.934977489290759,D24O05,2022-11-04_10h42.41.050,t1_Paradigm,2021.1.4,59.902263378370556,
H,left,Pretarget,0,38,38,38,1948.6374921322567,1950.6397897202987,left,1,4,0.6025406921980903,D24O05,2022-11-04_10h42.41.050,t1_Paradigm,2021.1.4,59.902263378370556,
L,left,Distractor,0,39,39,39,1952.137205334846,1954.1397181813372,left,1,4,0.7987393741495907,D24O05,2022-11-04_10h42.41.050,t1_Paradigm,2021.1.4,59.902263378370556,
G,left,Distractor,0,40,40,40,1955.6376650448656,1957.6399629537482,left,1,4,0.41841252765152603,D24O05,2022-11-04_10h42.41.050,t1_Paradigm,2021.1.4,59.902263378370556,
K,left,Distractor,0,41,41,41,1959.137439841521,1961.1391176389297,left,1,4,1.0154710247879848,D24O05,2022-11-04_10h42.41.050,t1_Paradigm,2021.1.4,59.902263378370556,
H,right,Target,0,42,42,42,1962.63751779648,1964.6394361958373,right,1,4,0.4910650068195537,D24O05,2022-11-04_10h42.41.050,t1_Paradigm,2021.1.4,59.902263378370556,
B,left,Distractor,0,43,43,43,1966.137481224956,1968.1400428335182,left,1,4,0.9904416874051094,D24O05,2022-11-04_10h42.41.050,t1_Paradigm,2021.1.4,59.902263378370556,
Z,left,Distractor,0,44,44,44,1969.6375999219017,1971.6401782121975,left,1,4,1.2502346670953557,D24O05,2022-11-04_10h42.41.050,t1_Paradigm,2021.1.4,59.902263378370556,
T,left,Pretarget,0,45,45,45,1973.1376124332892,1975.1394050780218,left,1,4,0.663148317951709,D24O05,2022-11-04_10h42.41.050,t1_Paradigm,2021.1.4,59.902263378370556,
H,right,Target,0,46,46,46,1976.6375226085074,1978.6395135092316,left,0,4,0.858723039040342,D24O05,2022-11-04_10h42.41.050,t1_Paradigm,2021.1.4,59.902263378370556,
F,left,Distractor,0,47,47,47,1980.1374501071405,1982.1370157405036,left,1,4,1.0894156965659931,D24O05,2022-11-04_10h42.41.050,t1_Paradigm,2021.1.4,59.902263378370556,
R,left,Distractor,0,48,48,48,1983.637627510936,1985.6384205349023,left,1,4,0.548263784381561,D24O05,2022-11-04_10h42.41.050,t1_Paradigm,2021.1.4,59.902263378370556,
T,right,Target,0,49,49,49,1987.13753736543,1989.1389450471615,left,0,4,1.191603185259737,D24O05,2022-11-04_10h42.41.050,t1_Paradigm,2021.1.4,59.902263378370556,
H,right,Target,0,50,50,50,1990.637618207722,1992.6397608480183,right,1,4,1.1468239582609385,D24O05,2022-11-04_10h42.41.050,t1_Paradigm,2021.1.4,59.902263378370556,
Y,left,Pretarget,0,51,51,51,1994.1374273301335,1996.1367456247099,left,1,4,0.4818733715219423,D24O05,2022-11-04_10h42.41.050,t1_Paradigm,2021.1.4,59.902263378370556,
H,left,Distractor,0,52,52,52,1997.6373801721493,1999.638326860615,left,1,4,1.348274178453721,D24O05,2022-11-04_10h42.41.050,t1_Paradigm,2021.1.4,59.902263378370556,
S,left,Distractor,0,53,53,53,2001.1375296661863,2003.1397457703715,left,1,4,0.9666881817393005,D24O05,2022-11-04_10h42.41.050,t1_Paradigm,2021.1.4,59.902263378370556,
Q,left,Distractor,0,54,54,54,2004.6366493839305,2006.6393325766549,left,1,4,0.8434409667970613,D24O05,2022-11-04_10h42.41.050,t1_Paradigm,2021.1.4,59.902263378370556,
Y,right,Target,0,55,55,55,2008.137528062216,2010.1398567680735,right,1,4,0.44689658808056265,D24O05,2022-11-04_10h42.41.050,t1_Paradigm,2021.1.4,59.902263378370556,
R,left,Distractor,0,56,56,56,2011.637580994633,2013.6399161164882,left,1,4,0.48254256567452103,D24O05,2022-11-04_10h42.41.050,t1_Paradigm,2021.1.4,59.902263378370556,
H,left,Pretarget,0,57,57,57,2015.1376666488359,2017.1398763370235,left,1,4,1.0948873051675037,D24O05,2022-11-04_10h42.41.050,t1_Paradigm,2021.1.4,59.902263378370556,
J,left,Distractor,0,58,58,58,2018.6376092252322,2020.6386136580259,left,1,4,0.9878893821733072,D24O05,2022-11-04_10h42.41.050,t1_Paradigm,2021.1.4,59.902263378370556,
V,left,Distractor,0,59,59,59,2022.1376332853688,2024.1367565320106,left,1,4,0.45007477910257876,D24O05,2022-11-04_10h42.41.050,t1_Paradigm,2021.1.4,59.902263378370556,
Y,left,Lure,0,60,60,60,2025.6377747593215,2027.6404277966358,left,1,4,0.5782132708700374,D24O05,2022-11-04_10h42.41.050,t1_Paradigm,2021.1.4,59.902263378370556,
H,right,Target,0,61,61,61,2029.1375909395283,2031.1399520464474,right,1,4,0.518521215650253,D24O05,2022-11-04_10h42.41.050,t1_Paradigm,2021.1.4,59.902263378370556,
L,left,Distractor,0,62,62,62,2032.6373708689352,2034.6397740009706,left,1,4,0.5228421054780483,D24O05,2022-11-04_10h42.41.050,t1_Paradigm,2021.1.4,59.902263378370556,
P,left,Distractor,0,63,63,63,2036.1376814057585,2038.139358882443,left,1,4,0.511296741780825,D24O05,2022-11-04_10h42.41.050,t1_Paradigm,2021.1.4,59.902263378370556,
