Letter,CorrAnswer,Stimulus,nback_run.thisRepN,nback_run.thisTrialN,nback_run.thisN,nback_run.thisIndex,fixcross.started,nback_trial.started,trial_resp.keys,trial_resp.corr,currentlevel,trial_resp.rt,Participant,date,expName,psychopyVersion,frameRate,
H,left,Distractor,0,0,0,0,283.80446042750054,285.7421578408762,None,0,1,,D24T05,2023-01-19_14h48.36.368,t1_Paradigm,2021.1.4,59.980796539546944,
Q,left,Pretarget,0,1,1,1,287.2447341997122,289.24405794962786,left,1,1,1.0747926818708038,D24T05,2023-01-19_14h48.36.368,t1_Paradigm,2021.1.4,59.980796539546944,
Q,right,Target,0,2,2,2,290.74103984678504,292.7409641375725,right,1,1,1.0018462140583324,D24T05,2023-01-19_14h48.36.368,t1_Paradigm,2021.1.4,59.980796539546944,
T,left,Distractor,0,3,3,3,294.2410122578349,296.2424597153208,left,1,1,1.308481998210027,D24T05,2023-01-19_14h48.36.368,t1_Paradigm,2021.1.4,59.980796539546944,
Q,left,Lure,0,4,4,4,297.74072770668454,299.7425569182501,left,1,1,1.296434609375865,D24T05,2023-01-19_14h48.36.368,t1_Paradigm,2021.1.4,59.980796539546944,
L,left,Distractor,0,5,5,5,301.24077358133445,303.24273400081483,left,1,1,1.4282805988727887,D24T05,2023-01-19_14h48.36.368,t1_Paradigm,2021.1.4,59.980796539546944,
V,left,Pretarget,0,6,6,6,304.74092788697544,306.7424542616909,left,1,1,1.016396818929934,D24T05,2023-01-19_14h48.36.368,t1_Paradigm,2021.1.4,59.980796539546944,
V,right,Target,0,7,7,7,308.2410866838404,310.2407594660576,right,1,1,0.7824909614105309,D24T05,2023-01-19_14h48.36.368,t1_Paradigm,2021.1.4,59.980796539546944,
K,left,Distractor,0,8,8,8,311.741004558593,313.742564617492,left,1,1,0.8162521373415075,D24T05,2023-01-19_14h48.36.368,t1_Paradigm,2021.1.4,59.980796539546944,
G,left,Pretarget,0,9,9,9,315.24015667957383,317.2424799258306,left,1,1,0.8363279107143171,D24T05,2023-01-19_14h48.36.368,t1_Paradigm,2021.1.4,59.980796539546944,
G,right,Target,0,10,10,10,318.74107770139153,320.7412939217693,right,1,1,0.9055489078305072,D24T05,2023-01-19_14h48.36.368,t1_Paradigm,2021.1.4,59.980796539546944,
G,right,Target,0,11,11,11,322.2411684882859,324.2408393456931,right,1,1,0.7339183687872719,D24T05,2023-01-19_14h48.36.368,t1_Paradigm,2021.1.4,59.980796539546944,
P,left,Pretarget,0,12,12,12,325.7409763280393,327.74291942422497,left,1,1,0.8640086103187059,D24T05,2023-01-19_14h48.36.368,t1_Paradigm,2021.1.4,59.980796539546944,
P,right,Target,0,13,13,13,329.24098370647926,331.24099268892815,None,0,1,,D24T05,2023-01-19_14h48.36.368,t1_Paradigm,2021.1.4,59.980796539546944,
G,left,Lure,0,14,14,14,332.74093783182934,334.7433284464537,left,1,1,0.7276229552899167,D24T05,2023-01-19_14h48.36.368,t1_Paradigm,2021.1.4,59.980796539546944,
Y,left,Distractor,0,15,15,15,336.2409561175291,338.2433537897914,right,0,1,0.7798555750532614,D24T05,2023-01-19_14h48.36.368,t1_Paradigm,2021.1.4,59.980796539546944,
B,left,Distractor,0,16,16,16,339.7409865936952,341.74291364979354,left,1,1,0.7519599382776505,D24T05,2023-01-19_14h48.36.368,t1_Paradigm,2021.1.4,59.980796539546944,
T,left,Pretarget,0,17,17,17,343.24099204732465,345.2420381818242,left,1,1,0.6930097299168665,D24T05,2023-01-19_14h48.36.368,t1_Paradigm,2021.1.4,59.980796539546944,
T,right,Target,0,18,18,18,346.7410263731117,348.74096125035703,right,1,1,0.6979837610151662,D24T05,2023-01-19_14h48.36.368,t1_Paradigm,2021.1.4,59.980796539546944,
S,left,Distractor,0,19,19,19,350.24094488946776,352.2424395048106,left,1,1,0.7003621851731623,D24T05,2023-01-19_14h48.36.368,t1_Paradigm,2021.1.4,59.980796539546944,
T,left,Lure,0,20,20,20,353.7407601076611,355.74280938922584,left,1,1,0.9281769799081303,D24T05,2023-01-19_14h48.36.368,t1_Paradigm,2021.1.4,59.980796539546944,
J,left,Distractor,0,21,21,21,357.24098081926377,359.24228744478205,left,1,1,0.788514976629358,D24T05,2023-01-19_14h48.36.368,t1_Paradigm,2021.1.4,59.980796539546944,
P,left,Distractor,0,22,22,22,360.74086853865174,362.74327294775094,left,1,1,0.8396379431478636,D24T05,2023-01-19_14h48.36.368,t1_Paradigm,2021.1.4,59.980796539546944,
F,left,Distractor,0,23,23,23,364.2408249096143,366.2433438449375,left,1,1,0.6994074791718958,D24T05,2023-01-19_14h48.36.368,t1_Paradigm,2021.1.4,59.980796539546944,
L,left,Distractor,0,24,24,24,367.74062280451335,369.7428966473012,left,1,1,0.6559850378066585,D24T05,2023-01-19_14h48.36.368,t1_Paradigm,2021.1.4,59.980796539546944,
W,left,Pretarget,0,25,25,25,371.2409740824269,373.2432748725614,left,1,1,0.7236177454697099,D24T05,2023-01-19_14h48.36.368,t1_Paradigm,2021.1.4,59.980796539546944,
W,right,Target,0,26,26,26,374.7408300424422,376.74093783182934,right,1,1,1.241938412480522,D24T05,2023-01-19_14h48.36.368,t1_Paradigm,2021.1.4,59.980796539546944,
V,left,Distractor,0,27,27,27,378.24100776661044,380.2425411989648,left,1,1,0.8602202624797428,D24T05,2023-01-19_14h48.36.368,t1_Paradigm,2021.1.4,59.980796539546944,
W,left,Lure,0,28,28,28,381.7408476865385,383.7423182417497,left,1,1,0.8323913524677664,D24T05,2023-01-19_14h48.36.368,t1_Paradigm,2021.1.4,59.980796539546944,
R,left,Pretarget,0,29,29,29,385.2408143231564,387.2439825612173,left,1,1,0.658799431539137,D24T05,2023-01-19_14h48.36.368,t1_Paradigm,2021.1.4,59.980796539546944,
R,right,Target,0,30,30,30,388.74096285436553,390.7408294008387,right,1,1,0.7942534782932853,D24T05,2023-01-19_14h48.36.368,t1_Paradigm,2021.1.4,59.980796539546944,
G,left,Distractor,0,31,31,31,392.24077326053293,394.25716494663493,left,1,1,0.7817325860787605,D24T05,2023-01-19_14h48.36.368,t1_Paradigm,2021.1.4,59.980796539546944,
R,left,Lure,0,32,32,32,395.74081239834595,397.7427279055819,left,1,1,0.7519881688313035,D24T05,2023-01-19_14h48.36.368,t1_Paradigm,2021.1.4,59.980796539546944,
S,left,Distractor,0,33,33,33,399.2408332504597,401.2428668127386,left,1,1,0.771995290630457,D24T05,2023-01-19_14h48.36.368,t1_Paradigm,2021.1.4,59.980796539546944,
R,left,Lure,0,34,34,34,402.74090799726673,404.74268267253547,left,1,1,0.7922879259845104,D24T05,2023-01-19_14h48.36.368,t1_Paradigm,2021.1.4,59.980796539546944,
P,left,Pretarget,0,35,35,35,406.2409590047446,408.2425642966905,left,1,1,0.9881720395615048,D24T05,2023-01-19_14h48.36.368,t1_Paradigm,2021.1.4,59.980796539546944,
P,right,Target,0,36,36,36,409.74078865901674,411.74096894959894,right,1,1,0.753821230018275,D24T05,2023-01-19_14h48.36.368,t1_Paradigm,2021.1.4,59.980796539546944,
Y,left,Pretarget,0,37,37,37,413.24090446844775,415.24298967980803,left,1,1,0.8357161417816314,D24T05,2023-01-19_14h48.36.368,t1_Paradigm,2021.1.4,59.980796539546944,
Y,right,Target,0,38,38,38,416.74099108491964,418.74084191210704,right,1,1,0.8739666173701153,D24T05,2023-01-19_14h48.36.368,t1_Paradigm,2021.1.4,59.980796539546944,
J,left,Distractor,0,39,39,39,420.240845761728,422.24284628142686,left,1,1,0.7481074300890214,D24T05,2023-01-19_14h48.36.368,t1_Paradigm,2021.1.4,59.980796539546944,
Y,left,Lure,0,40,40,40,423.74088714515347,425.74281516365727,left,1,1,1.4400325292972411,D24T05,2023-01-19_14h48.36.368,t1_Paradigm,2021.1.4,59.980796539546944,
T,left,Distractor,0,41,41,41,427.2406985137254,429.2428321661496,left,1,1,0.7400193764256073,D24T05,2023-01-19_14h48.36.368,t1_Paradigm,2021.1.4,59.980796539546944,
V,left,Distractor,0,42,42,42,430.7408329296577,432.74264674273945,left,1,1,0.7281776215118043,D24T05,2023-01-19_14h48.36.368,t1_Paradigm,2021.1.4,59.980796539546944,
N,left,Pretarget,0,43,43,43,434.2407357267284,436.24277153461935,left,1,1,0.6519217628697334,D24T05,2023-01-19_14h48.36.368,t1_Paradigm,2021.1.4,59.980796539546944,
N,right,Target,0,44,44,44,437.74078962142175,439.740882653929,right,1,1,0.6419319964456918,D24T05,2023-01-19_14h48.36.368,t1_Paradigm,2021.1.4,59.980796539546944,
N,right,Target,0,45,45,45,441.2408316464507,443.24073251871096,right,1,1,0.8379620748173693,D24T05,2023-01-19_14h48.36.368,t1_Paradigm,2021.1.4,59.980796539546944,
X,left,Distractor,0,46,46,46,444.7406067644256,446.7422649886598,left,1,1,0.6004468768346669,D24T05,2023-01-19_14h48.36.368,t1_Paradigm,2021.1.4,59.980796539546944,
Z,left,Distractor,0,47,47,47,448.240886182748,450.2427532489196,left,1,1,0.6839474013454492,D24T05,2023-01-19_14h48.36.368,t1_Paradigm,2021.1.4,59.980796539546944,
H,left,Pretarget,0,48,48,48,451.7408460825295,453.74280168998393,left,1,1,0.7040408188145193,D24T05,2023-01-19_14h48.36.368,t1_Paradigm,2021.1.4,59.980796539546944,
H,right,Target,0,49,49,49,455.2408236264073,457.2408249096143,right,1,1,0.7259592774262273,D24T05,2023-01-19_14h48.36.368,t1_Paradigm,2021.1.4,59.980796539546944,
K,left,Distractor,0,50,50,50,458.7408021326901,460.7431718952007,left,1,1,0.7116553690984802,D24T05,2023-01-19_14h48.36.368,t1_Paradigm,2021.1.4,59.980796539546944,
V,left,Pretarget,0,51,51,51,462.24076588209255,464.2427696098089,left,1,1,0.7158950849966459,D24T05,2023-01-19_14h48.36.368,t1_Paradigm,2021.1.4,59.980796539546944,
V,right,Target,0,52,52,52,465.7408723882727,467.7407851301973,right,1,1,0.6420211793315502,D24T05,2023-01-19_14h48.36.368,t1_Paradigm,2021.1.4,59.980796539546944,
R,left,Distractor,0,53,53,53,469.241043696406,471.23984486027484,left,1,1,0.7269704445352545,D24T05,2023-01-19_14h48.36.368,t1_Paradigm,2021.1.4,59.980796539546944,
V,left,Lure,0,54,54,54,472.7408383832876,474.7426813893285,left,1,1,0.6159974207539562,D24T05,2023-01-19_14h48.36.368,t1_Paradigm,2021.1.4,59.980796539546944,
Y,left,Distractor,0,55,55,55,476.2407501628072,478.2426996750278,left,1,1,0.8759680994744485,D24T05,2023-01-19_14h48.36.368,t1_Paradigm,2021.1.4,59.980796539546944,
Q,left,Distractor,0,56,56,56,479.7407982830691,481.7427330384098,left,1,1,0.7040247787267617,D24T05,2023-01-19_14h48.36.368,t1_Paradigm,2021.1.4,59.980796539546944,
Z,left,Pretarget,0,57,57,57,483.24081015273396,485.24271314870157,left,1,1,0.628153240579195,D24T05,2023-01-19_14h48.36.368,t1_Paradigm,2021.1.4,59.980796539546944,
Z,right,Target,0,58,58,58,486.74071006258873,488.7407042881573,right,1,1,0.7461264792968905,D24T05,2023-01-19_14h48.36.368,t1_Paradigm,2021.1.4,59.980796539546944,
B,left,Distractor,0,59,59,59,490.2409124884912,492.2427696098089,left,1,1,0.715845360725325,D24T05,2023-01-19_14h48.36.368,t1_Paradigm,2021.1.4,59.980796539546944,
S,left,Pretarget,0,60,60,60,493.74064109021265,495.74274811609166,left,1,1,0.640057231031733,D24T05,2023-01-19_14h48.36.368,t1_Paradigm,2021.1.4,59.980796539546944,
S,right,Target,0,61,61,61,497.2407411803579,499.2406744535947,right,1,1,0.6302429431634664,D24T05,2023-01-19_14h48.36.368,t1_Paradigm,2021.1.4,59.980796539546944,
T,left,Distractor,0,62,62,62,500.7405900827348,502.74223868291665,left,1,1,0.7445484555000803,D24T05,2023-01-19_14h48.36.368,t1_Paradigm,2021.1.4,59.980796539546944,
D,left,Distractor,0,63,63,63,504.2409015812318,506.24406661127523,left,1,1,0.6345949396732067,D24T05,2023-01-19_14h48.36.368,t1_Paradigm,2021.1.4,59.980796539546944,
R,left,Distractor,0,0,0,0,522.4720167843475,524.4760008212525,left,1,1,0.9948575479838837,D24T05,2023-01-19_14h48.36.368,t1_Paradigm,2021.1.4,59.980796539546944,
V,left,Distractor,0,1,1,1,525.9741125821656,527.975916129591,left,1,1,0.6471373256040351,D24T05,2023-01-19_14h48.36.368,t1_Paradigm,2021.1.4,59.980796539546944,
N,left,Pretarget,0,2,2,2,529.4741100157516,531.4761743749982,left,1,1,0.5225437012181828,D24T05,2023-01-19_14h48.36.368,t1_Paradigm,2021.1.4,59.980796539546944,
N,right,Target,0,3,3,3,532.9740651035067,534.9741321510719,right,1,1,0.7044825628208855,D24T05,2023-01-19_14h48.36.368,t1_Paradigm,2021.1.4,59.980796539546944,
S,left,Distractor,0,4,4,4,536.4740535546439,538.4758760293726,left,1,1,0.562931358050264,D24T05,2023-01-19_14h48.36.368,t1_Paradigm,2021.1.4,59.980796539546944,
N,left,Lure,0,5,5,5,539.9741854041622,541.9759039391247,left,1,1,1.0629313580498092,D24T05,2023-01-19_14h48.36.368,t1_Paradigm,2021.1.4,59.980796539546944,
Z,left,Distractor,0,6,6,6,543.4739659757665,545.4759600794305,left,1,1,0.7306875743861383,D24T05,2023-01-19_14h48.36.368,t1_Paradigm,2021.1.4,59.980796539546944,
L,left,Pretarget,0,7,7,7,546.9740981460868,548.9754500046515,left,1,1,0.6712972260270362,D24T05,2023-01-19_14h48.36.368,t1_Paradigm,2021.1.4,59.980796539546944,
L,right,Target,0,8,8,8,550.4741010333028,552.4741700056784,right,1,1,0.7884148864845884,D24T05,2023-01-19_14h48.36.368,t1_Paradigm,2021.1.4,59.980796539546944,
H,left,Distractor,0,9,9,9,553.9741433791332,555.9758503652329,left,1,1,0.5507351172050221,D24T05,2023-01-19_14h48.36.368,t1_Paradigm,2021.1.4,59.980796539546944,
L,left,Lure,0,10,10,10,557.4740173040464,559.4752636188364,left,1,1,0.9554271635670375,D24T05,2023-01-19_14h48.36.368,t1_Paradigm,2021.1.4,59.980796539546944,
X,left,Pretarget,0,11,11,11,560.9740747275591,562.9762218536566,left,1,1,0.638497172132702,D24T05,2023-01-19_14h48.36.368,t1_Paradigm,2021.1.4,59.980796539546944,
X,right,Target,0,12,12,12,564.4740936548624,566.4740176248483,right,1,1,0.7726150796070215,D24T05,2023-01-19_14h48.36.368,t1_Paradigm,2021.1.4,59.980796539546944,
X,right,Target,0,13,13,13,567.9740394393671,569.9741838001532,right,1,1,0.4724626987767806,D24T05,2023-01-19_14h48.36.368,t1_Paradigm,2021.1.4,59.980796539546944,
R,left,Distractor,0,14,14,14,571.4740301361162,573.4759135631771,left,1,1,0.5387239789683917,D24T05,2023-01-19_14h48.36.368,t1_Paradigm,2021.1.4,59.980796539546944,
T,left,Distractor,0,15,15,15,574.9730821669518,576.9755962902486,left,1,1,0.6870200404850948,D24T05,2023-01-19_14h48.36.368,t1_Paradigm,2021.1.4,59.980796539546944,
V,left,Pretarget,0,16,16,16,578.4740391185651,580.476032259824,left,1,1,0.6425479358013035,D24T05,2023-01-19_14h48.36.368,t1_Paradigm,2021.1.4,59.980796539546944,
V,right,Target,0,17,17,17,581.9741388879088,583.9740942964659,right,1,1,0.616716658272253,D24T05,2023-01-19_14h48.36.368,t1_Paradigm,2021.1.4,59.980796539546944,
N,left,Distractor,0,18,18,18,585.4739788078368,587.4760088412963,left,1,1,0.5546367080605705,D24T05,2023-01-19_14h48.36.368,t1_Paradigm,2021.1.4,59.980796539546944,
B,left,Distractor,0,19,19,19,588.9740612538858,590.9748257244505,left,1,1,0.7357668284575993,D24T05,2023-01-19_14h48.36.368,t1_Paradigm,2021.1.4,59.980796539546944,
V,left,Lure,0,20,20,20,592.4741610232295,594.4906473458468,left,1,1,0.7879118693435885,D24T05,2023-01-19_14h48.36.368,t1_Paradigm,2021.1.4,59.980796539546944,
P,left,Distractor,0,21,21,21,595.9740006223556,597.9764197883351,left,1,1,1.0304983013547826,D24T05,2023-01-19_14h48.36.368,t1_Paradigm,2021.1.4,59.980796539546944,
K,left,Pretarget,0,22,22,22,599.4740224368743,601.4757733728134,left,1,1,0.5708333467000557,D24T05,2023-01-19_14h48.36.368,t1_Paradigm,2021.1.4,59.980796539546944,
K,right,Target,0,23,23,23,602.9740365521511,604.9740144168309,right,1,1,0.7045310038847674,D24T05,2023-01-19_14h48.36.368,t1_Paradigm,2021.1.4,59.980796539546944,
J,left,Pretarget,0,24,24,24,606.473930045971,608.4758224554807,left,1,1,0.5949040642371983,D24T05,2023-01-19_14h48.36.368,t1_Paradigm,2021.1.4,59.980796539546944,
J,right,Target,0,25,25,25,609.9740436097895,611.9731828987005,right,1,1,0.4734421065127208,D24T05,2023-01-19_14h48.36.368,t1_Paradigm,2021.1.4,59.980796539546944,
H,left,Distractor,0,26,26,26,613.4740028679676,615.4762449513828,left,1,1,0.602330945499034,D24T05,2023-01-19_14h48.36.368,t1_Paradigm,2021.1.4,59.980796539546944,
J,left,Lure,0,27,27,27,616.9741343966843,618.9766469159727,left,1,1,0.6859434298194174,D24T05,2023-01-19_14h48.36.368,t1_Paradigm,2021.1.4,59.980796539546944,
V,left,Distractor,0,28,28,28,620.474006075985,622.4746913085182,left,1,1,1.0919645578228483,D24T05,2023-01-19_14h48.36.368,t1_Paradigm,2021.1.4,59.980796539546944,
Z,left,Pretarget,0,29,29,29,623.9741077701392,625.9754981249139,left,1,1,0.6312534686690014,D24T05,2023-01-19_14h48.36.368,t1_Paradigm,2021.1.4,59.980796539546944,
Z,right,Target,0,30,30,30,627.4740259656937,629.4739823366558,right,1,1,0.7167172998756541,D24T05,2023-01-19_14h48.36.368,t1_Paradigm,2021.1.4,59.980796539546944,
T,left,Distractor,0,31,31,31,630.9739717501984,632.976190735887,left,1,1,0.6384840192608863,D24T05,2023-01-19_14h48.36.368,t1_Paradigm,2021.1.4,59.980796539546944,
Z,left,Lure,0,32,32,32,634.4739464068603,636.4758827662095,right,0,1,0.6906438170276488,D24T05,2023-01-19_14h48.36.368,t1_Paradigm,2021.1.4,59.980796539546944,
F,left,Distractor,0,33,33,33,637.974047138609,639.9756562801754,left,1,1,0.5348839820476314,D24T05,2023-01-19_14h48.36.368,t1_Paradigm,2021.1.4,59.980796539546944,
Y,left,Pretarget,0,34,34,34,641.474002547166,643.4752392379037,left,1,1,0.5074560742209542,D24T05,2023-01-19_14h48.36.368,t1_Paradigm,2021.1.4,59.980796539546944,
Y,right,Target,0,35,35,35,644.973965654965,646.9740625370928,right,1,1,0.6884719891950226,D24T05,2023-01-19_14h48.36.368,t1_Paradigm,2021.1.4,59.980796539546944,
Y,right,Target,0,36,36,36,648.4740041511745,650.4740532338419,right,1,1,0.46847866187181353,D24T05,2023-01-19_14h48.36.368,t1_Paradigm,2021.1.4,59.980796539546944,
W,left,Distractor,0,37,37,37,651.9739765622244,653.9758631973027,left,1,1,0.5346882929816275,D24T05,2023-01-19_14h48.36.368,t1_Paradigm,2021.1.4,59.980796539546944,
Q,left,Distractor,0,38,38,38,655.47400511358,657.4759373025067,left,1,1,0.7947946708413838,D24T05,2023-01-19_14h48.36.368,t1_Paradigm,2021.1.4,59.980796539546944,
P,left,Pretarget,0,39,39,39,658.9739380660149,660.9758648013117,left,1,1,0.7026501432378609,D24T05,2023-01-19_14h48.36.368,t1_Paradigm,2021.1.4,59.980796539546944,
P,right,Target,0,40,40,40,662.4739387076183,664.4739650133615,right,1,1,0.6445430018702609,D24T05,2023-01-19_14h48.36.368,t1_Paradigm,2021.1.4,59.980796539546944,
J,left,Distractor,0,41,41,41,665.9737333944995,667.9759376233083,left,1,1,0.630562140902839,D24T05,2023-01-19_14h48.36.368,t1_Paradigm,2021.1.4,59.980796539546944,
P,left,Lure,0,42,42,42,669.4739768830264,671.4758121898249,left,1,1,0.7466981480115464,D24T05,2023-01-19_14h48.36.368,t1_Paradigm,2021.1.4,59.980796539546944,
L,left,Distractor,0,43,43,43,672.9738979657964,674.9757355182073,None,0,1,,D24T05,2023-01-19_14h48.36.368,t1_Paradigm,2021.1.4,59.980796539546944,
Z,left,Distractor,0,44,44,44,676.4739868278803,678.4759132423756,left,1,1,0.7546052694892751,D24T05,2023-01-19_14h48.36.368,t1_Paradigm,2021.1.4,59.980796539546944,
F,left,Pretarget,0,45,45,45,679.9739473692653,681.9762930716447,left,1,1,0.75850204831886,D24T05,2023-01-19_14h48.36.368,t1_Paradigm,2021.1.4,59.980796539546944,
F,right,Target,0,46,46,46,683.4738225773854,685.4739967727346,left,0,1,0.5246192885260825,D24T05,2023-01-19_14h48.36.368,t1_Paradigm,2021.1.4,59.980796539546944,
G,left,Pretarget,0,47,47,47,686.9738601111899,688.9763588360029,left,1,1,0.9583631411624083,D24T05,2023-01-19_14h48.36.368,t1_Paradigm,2021.1.4,59.980796539546944,
G,right,Target,0,48,48,48,690.473968542181,692.4739345371954,right,1,1,0.708376775236502,D24T05,2023-01-19_14h48.36.368,t1_Paradigm,2021.1.4,59.980796539546944,
V,left,Distractor,0,49,49,49,693.9737933844267,695.9762972420676,left,1,1,0.7422159059919977,D24T05,2023-01-19_14h48.36.368,t1_Paradigm,2021.1.4,59.980796539546944,
G,left,Lure,0,50,50,50,697.4739207427201,699.4759777235267,left,1,1,0.9546354248536773,D24T05,2023-01-19_14h48.36.368,t1_Paradigm,2021.1.4,59.980796539546944,
Q,left,Pretarget,0,51,51,51,700.9736685925468,702.9756691122452,left,1,1,0.8790279065437971,D24T05,2023-01-19_14h48.36.368,t1_Paradigm,2021.1.4,59.980796539546944,
Q,right,Target,0,52,52,52,704.4739839406648,706.4739788078368,right,1,1,0.8204671515049995,D24T05,2023-01-19_14h48.36.368,t1_Paradigm,2021.1.4,59.980796539546944,
Y,left,Distractor,0,53,53,53,707.9739605221371,709.9757226861375,left,1,1,0.7427564569375136,D24T05,2023-01-19_14h48.36.368,t1_Paradigm,2021.1.4,59.980796539546944,
V,left,Distractor,0,54,54,54,711.4740487426175,713.4750570225106,left,1,1,0.6992403414615183,D24T05,2023-01-19_14h48.36.368,t1_Paradigm,2021.1.4,59.980796539546944,
B,left,Distractor,0,55,55,55,714.9738767928807,716.9759312072733,left,1,1,0.6546418408888712,D24T05,2023-01-19_14h48.36.368,t1_Paradigm,2021.1.4,59.980796539546944,
J,left,Pretarget,0,56,56,56,718.4738174445574,720.475523468252,left,1,1,0.6429370683213165,D24T05,2023-01-19_14h48.36.368,t1_Paradigm,2021.1.4,59.980796539546944,
J,right,Target,0,57,57,57,721.9738812841056,723.9739072690468,right,1,1,0.7126273983940337,D24T05,2023-01-19_14h48.36.368,t1_Paradigm,2021.1.4,59.980796539546944,
H,left,Distractor,0,58,58,58,725.4739884318892,727.4756248416043,left,1,1,0.7153025641687236,D24T05,2023-01-19_14h48.36.368,t1_Paradigm,2021.1.4,59.980796539546944,
J,left,Lure,0,59,59,59,728.9737276200681,730.9757454630612,left,1,1,0.606834039631849,D24T05,2023-01-19_14h48.36.368,t1_Paradigm,2021.1.4,59.980796539546944,
D,left,Pretarget,0,60,60,60,732.4738626776038,734.4761429364266,None,0,1,,D24T05,2023-01-19_14h48.36.368,t1_Paradigm,2021.1.4,59.980796539546944,
D,right,Target,0,61,61,61,735.9739403116268,737.9739226675306,right,1,1,0.7926680760556337,D24T05,2023-01-19_14h48.36.368,t1_Paradigm,2021.1.4,59.980796539546944,
R,left,Distractor,0,62,62,62,739.4738899457525,741.4753152679177,left,1,1,0.5235067480648468,D24T05,2023-01-19_14h48.36.368,t1_Paradigm,2021.1.4,59.980796539546944,
F,left,Distractor,0,63,63,63,742.9738992490034,744.9757579743296,left,1,1,0.9427173191243128,D24T05,2023-01-19_14h48.36.368,t1_Paradigm,2021.1.4,59.980796539546944,
F,left,Distractor,0,0,0,0,827.3635100844031,829.3571104103376,left,1,2,0.7052640358783719,D24T05,2023-01-19_14h48.36.368,t1_Paradigm,2021.1.4,59.980796539546944,
N,left,Pretarget,0,1,1,1,830.8571578889964,832.8589123537545,left,1,2,0.8194752325011905,D24T05,2023-01-19_14h48.36.368,t1_Paradigm,2021.1.4,59.980796539546944,
V,left,Distractor,0,2,2,2,834.3570921246378,836.3595225186787,left,1,2,0.9029016518084063,D24T05,2023-01-19_14h48.36.368,t1_Paradigm,2021.1.4,59.980796539546944,
N,right,Target,0,3,3,3,837.8571242048129,839.8592354011148,None,0,2,,D24T05,2023-01-19_14h48.36.368,t1_Paradigm,2021.1.4,59.980796539546944,
N,left,Lure,0,4,4,4,841.3569974881225,843.3570427211689,left,1,2,1.1853252448518106,D24T05,2023-01-19_14h48.36.368,t1_Paradigm,2021.1.4,59.980796539546944,
X,left,Distractor,0,5,5,5,844.8571479441421,846.8589851757515,left,1,2,0.7874377243606432,D24T05,2023-01-19_14h48.36.368,t1_Paradigm,2021.1.4,59.980796539546944,
G,left,Pretarget,0,6,6,6,848.3570648564896,850.3576737382068,None,0,2,,D24T05,2023-01-19_14h48.36.368,t1_Paradigm,2021.1.4,59.980796539546944,
H,left,Pretarget,0,7,7,7,851.8572531671152,853.8591192708818,left,1,2,0.7954083645850005,D24T05,2023-01-19_14h48.36.368,t1_Paradigm,2021.1.4,59.980796539546944,
G,right,Target,0,8,8,8,855.3572198037336,857.3574626506565,right,1,2,0.8168404877469584,D24T05,2023-01-19_14h48.36.368,t1_Paradigm,2021.1.4,59.980796539546944,
H,right,Target,0,9,9,9,858.8570847461979,860.8577276329002,left,0,2,0.6927479556911749,D24T05,2023-01-19_14h48.36.368,t1_Paradigm,2021.1.4,59.980796539546944,
T,left,Pretarget,0,10,10,10,862.3572246157596,864.359380082703,left,1,2,0.6475007939839088,D24T05,2023-01-19_14h48.36.368,t1_Paradigm,2021.1.4,59.980796539546944,
K,left,Distractor,0,11,11,11,865.8562455288256,867.8589620780253,left,1,2,1.035523019129414,D24T05,2023-01-19_14h48.36.368,t1_Paradigm,2021.1.4,59.980796539546944,
T,right,Target,0,12,12,12,869.3570494580053,871.3562885162601,None,0,2,,D24T05,2023-01-19_14h48.36.368,t1_Paradigm,2021.1.4,59.980796539546944,
T,left,Lure,0,13,13,13,872.856994280105,874.8572021596374,None,0,2,,D24T05,2023-01-19_14h48.36.368,t1_Paradigm,2021.1.4,59.980796539546944,
J,left,Distractor,0,14,14,14,876.3570577988512,878.3588395317579,None,0,2,,D24T05,2023-01-19_14h48.36.368,t1_Paradigm,2021.1.4,59.980796539546944,
Q,left,Pretarget,0,15,15,15,879.8569897888806,881.8591953008963,None,0,2,,D24T05,2023-01-19_14h48.36.368,t1_Paradigm,2021.1.4,59.980796539546944,
M,left,Distractor,0,16,16,16,883.3571742498852,885.3597868593188,left,1,2,0.9585732663072122,D24T05,2023-01-19_14h48.36.368,t1_Paradigm,2021.1.4,59.980796539546944,
Q,right,Target,0,17,17,17,886.8570972574662,888.8592081329662,right,1,2,1.3633737436598494,D24T05,2023-01-19_14h48.36.368,t1_Paradigm,2021.1.4,59.980796539546944,
R,left,Distractor,0,18,18,18,890.3570478539968,892.3578383095032,left,1,2,1.2566298493193244,D24T05,2023-01-19_14h48.36.368,t1_Paradigm,2021.1.4,59.980796539546944,
W,left,Distractor,0,19,19,19,893.8570090369853,895.8594811352532,left,1,2,1.147257947061462,D24T05,2023-01-19_14h48.36.368,t1_Paradigm,2021.1.4,59.980796539546944,
C,left,Pretarget,0,20,20,20,897.3570128866063,899.3589380178946,left,1,2,1.3594233909384457,D24T05,2023-01-19_14h48.36.368,t1_Paradigm,2021.1.4,59.980796539546944,
T,left,Distractor,0,21,21,21,900.8561024512464,902.8591183084768,None,0,2,,D24T05,2023-01-19_14h48.36.368,t1_Paradigm,2021.1.4,59.980796539546944,
C,right,Target,0,22,22,22,904.35695482149,906.3561464010859,right,1,2,1.4022141736627418,D24T05,2023-01-19_14h48.36.368,t1_Paradigm,2021.1.4,59.980796539546944,
F,left,Pretarget,0,23,23,23,907.8570019793469,909.8591317821501,left,1,2,1.1793560867322412,D24T05,2023-01-19_14h48.36.368,t1_Paradigm,2021.1.4,59.980796539546944,
C,right,Target,0,24,24,24,911.3569362149888,913.3597217365641,right,1,2,1.3107895251814625,D24T05,2023-01-19_14h48.36.368,t1_Paradigm,2021.1.4,59.980796539546944,
F,right,Target,0,25,25,25,914.85699524251,916.8597066588818,None,0,2,,D24T05,2023-01-19_14h48.36.368,t1_Paradigm,2021.1.4,59.980796539546944,
H,left,Distractor,0,26,26,26,918.3567815885463,920.3590445240748,left,1,2,1.1755000497246328,D24T05,2023-01-19_14h48.36.368,t1_Paradigm,2021.1.4,59.980796539546944,
H,left,Lure,0,27,27,27,921.8568560145518,923.8570000545365,left,1,2,1.037436601554873,D24T05,2023-01-19_14h48.36.368,t1_Paradigm,2021.1.4,59.980796539546944,
P,left,Distractor,0,28,28,28,925.3570099993908,927.359258819642,left,1,2,1.1030482582068544,D24T05,2023-01-19_14h48.36.368,t1_Paradigm,2021.1.4,59.980796539546944,
G,left,Pretarget,0,29,29,29,928.8569891472771,930.8589620780253,left,1,2,1.1394675974192978,D24T05,2023-01-19_14h48.36.368,t1_Paradigm,2021.1.4,59.980796539546944,
K,left,Distractor,0,30,30,30,932.3570160946238,934.3593037318869,left,1,2,1.2870383261847564,D24T05,2023-01-19_14h48.36.368,t1_Paradigm,2021.1.4,59.980796539546944,
G,right,Target,0,31,31,31,935.8569086260381,937.8588090555918,None,0,2,,D24T05,2023-01-19_14h48.36.368,t1_Paradigm,2021.1.4,59.980796539546944,
M,left,Pretarget,0,32,32,32,939.3570478539968,941.3588530054312,left,1,2,0.8478164629041203,D24T05,2023-01-19_14h48.36.368,t1_Paradigm,2021.1.4,59.980796539546944,
B,left,Distractor,0,33,33,33,942.8569131172626,944.8592039625432,left,1,2,1.0112582165347703,D24T05,2023-01-19_14h48.36.368,t1_Paradigm,2021.1.4,59.980796539546944,
M,right,Target,0,34,34,34,946.3569243453239,948.3590018574423,right,1,2,0.903379967213823,D24T05,2023-01-19_14h48.36.368,t1_Paradigm,2021.1.4,59.980796539546944,
M,left,Lure,0,35,35,35,949.8570504204108,951.8569054180207,right,0,2,1.3255268366701785,D24T05,2023-01-19_14h48.36.368,t1_Paradigm,2021.1.4,59.980796539546944,
T,left,Distractor,0,36,36,36,953.3569692575688,955.3575181493588,left,1,2,1.104776738023702,D24T05,2023-01-19_14h48.36.368,t1_Paradigm,2021.1.4,59.980796539546944,
F,left,Distractor,0,37,37,37,956.8570176986327,958.8590118022962,left,1,2,1.3478950593321315,D24T05,2023-01-19_14h48.36.368,t1_Paradigm,2021.1.4,59.980796539546944,
X,left,Distractor,0,38,38,38,960.3568845659074,962.3590130855032,left,1,2,0.999281083283222,D24T05,2023-01-19_14h48.36.368,t1_Paradigm,2021.1.4,59.980796539546944,
C,left,Distractor,0,39,39,39,963.8569660495514,965.859411842076,left,1,2,0.8910066438038484,D24T05,2023-01-19_14h48.36.368,t1_Paradigm,2021.1.4,59.980796539546944,
R,left,Distractor,0,40,40,40,967.357072876533,969.3590047446578,left,1,2,0.7033575110917809,D24T05,2023-01-19_14h48.36.368,t1_Paradigm,2021.1.4,59.980796539546944,
B,left,Pretarget,0,41,41,41,970.8569490470586,972.8591314613482,left,1,2,0.8511524802788699,D24T05,2023-01-19_14h48.36.368,t1_Paradigm,2021.1.4,59.980796539546944,
H,left,Distractor,0,42,42,42,974.3569910720876,976.3595472204133,None,0,2,,D24T05,2023-01-19_14h48.36.368,t1_Paradigm,2021.1.4,59.980796539546944,
B,right,Target,0,43,43,43,977.8568579393623,979.8699857884826,left,0,2,0.24024618326120617,D24T05,2023-01-19_14h48.36.368,t1_Paradigm,2021.1.4,59.980796539546944,
W,left,Pretarget,0,44,44,44,981.3561550627328,983.3592200026305,left,1,2,1.1350851247439095,D24T05,2023-01-19_14h48.36.368,t1_Paradigm,2021.1.4,59.980796539546944,
L,left,Pretarget,0,45,45,45,984.8569872224666,986.8591651455317,left,1,2,1.267108838409058,D24T05,2023-01-19_14h48.36.368,t1_Paradigm,2021.1.4,59.980796539546944,
W,right,Target,0,46,46,46,988.3569772776123,990.3589399427051,right,1,2,1.1755266762693282,D24T05,2023-01-19_14h48.36.368,t1_Paradigm,2021.1.4,59.980796539546944,
L,right,Target,0,47,47,47,991.8567302602664,993.8586627699947,right,1,2,1.0195878339141018,D24T05,2023-01-19_14h48.36.368,t1_Paradigm,2021.1.4,59.980796539546944,
W,right,Target,0,48,48,48,995.3569997337345,997.3589505291625,right,1,2,1.007396405095733,D24T05,2023-01-19_14h48.36.368,t1_Paradigm,2021.1.4,59.980796539546944,
X,left,Distractor,0,49,49,49,998.8569926760961,1000.8587817874431,left,1,2,0.8674537002880243,D24T05,2023-01-19_14h48.36.368,t1_Paradigm,2021.1.4,59.980796539546944,
R,left,Distractor,0,50,50,50,1002.3567825509513,1004.3591532758674,left,1,2,1.0792858311492637,D24T05,2023-01-19_14h48.36.368,t1_Paradigm,2021.1.4,59.980796539546944,
V,left,Pretarget,0,51,51,51,1005.8568980395808,1007.8589226194104,None,0,2,,D24T05,2023-01-19_14h48.36.368,t1_Paradigm,2021.1.4,59.980796539546944,
Z,left,Distractor,0,52,52,52,1009.3569140796681,1011.3587519528805,left,1,2,1.2314828419184778,D24T05,2023-01-19_14h48.36.368,t1_Paradigm,2021.1.4,59.980796539546944,
V,right,Target,0,53,53,53,1012.8570725557315,1014.8591872808524,right,1,2,1.0271635671870172,D24T05,2023-01-19_14h48.36.368,t1_Paradigm,2021.1.4,59.980796539546944,
V,left,Lure,0,54,54,54,1016.3569785608192,1018.3569468014462,None,0,2,,D24T05,2023-01-19_14h48.36.368,t1_Paradigm,2021.1.4,59.980796539546944,
N,left,Distractor,0,55,55,55,1019.8570266810816,1021.8589492459555,left,1,2,1.0034508644002926,D24T05,2023-01-19_14h48.36.368,t1_Paradigm,2021.1.4,59.980796539546944,
B,left,Distractor,0,56,56,56,1023.3566978592899,1025.3588074515833,left,1,2,0.8796557155646951,D24T05,2023-01-19_14h48.36.368,t1_Paradigm,2021.1.4,59.980796539546944,
V,left,Lure,0,57,57,57,1026.856210882237,1028.858673998056,left,1,2,1.3155806992840553,D24T05,2023-01-19_14h48.36.368,t1_Paradigm,2021.1.4,59.980796539546944,
J,left,Distractor,0,58,58,58,1030.3569378189973,1032.356019042792,left,1,2,0.7622381054729885,D24T05,2023-01-19_14h48.36.368,t1_Paradigm,2021.1.4,59.980796539546944,
H,left,Distractor,0,59,59,59,1033.8567405259223,1035.856050802165,left,1,2,1.0222328443246624,D24T05,2023-01-19_14h48.36.368,t1_Paradigm,2021.1.4,59.980796539546944,
X,left,Pretarget,0,60,60,60,1037.3568794330795,1039.3576490364721,left,1,2,0.9606029789647437,D24T05,2023-01-19_14h48.36.368,t1_Paradigm,2021.1.4,59.980796539546944,
P,left,Distractor,0,61,61,61,1040.8569410270147,1042.8588222084636,left,1,2,1.0756463353213803,D24T05,2023-01-19_14h48.36.368,t1_Paradigm,2021.1.4,59.980796539546944,
X,right,Target,0,62,62,62,1044.3566882352375,1046.3590467696868,right,1,2,0.8711496572232136,D24T05,2023-01-19_14h48.36.368,t1_Paradigm,2021.1.4,59.980796539546944,
Q,left,Distractor,0,63,63,63,1047.8570635732826,1049.8591818272225,left,1,2,1.0190235436402872,D24T05,2023-01-19_14h48.36.368,t1_Paradigm,2021.1.4,59.980796539546944,
B,left,Pretarget,0,0,0,0,1068.018029699826,1070.0085602738363,left,1,2,0.4696402850004233,D24T05,2023-01-19_14h48.36.368,t1_Paradigm,2021.1.4,59.980796539546944,
F,left,Distractor,0,1,1,1,1071.5068888967307,1073.508116925821,left,1,2,1.0500447518434157,D24T05,2023-01-19_14h48.36.368,t1_Paradigm,2021.1.4,59.980796539546944,
B,right,Target,0,2,2,2,1075.006680375595,1077.0090854262976,right,1,2,0.7012963598622264,D24T05,2023-01-19_14h48.36.368,t1_Paradigm,2021.1.4,59.980796539546944,
V,left,Distractor,0,3,3,3,1078.5069347713807,1080.50912809293,left,1,2,0.9292250392181813,D24T05,2023-01-19_14h48.36.368,t1_Paradigm,2021.1.4,59.980796539546944,
G,left,Pretarget,0,4,4,4,1082.006788164982,1084.0089455567354,left,1,2,1.1255091925740999,D24T05,2023-01-19_14h48.36.368,t1_Paradigm,2021.1.4,59.980796539546944,
B,left,Lure,0,5,5,5,1085.5070191422406,1087.5088063287772,right,0,2,0.8735303269932047,D24T05,2023-01-19_14h48.36.368,t1_Paradigm,2021.1.4,59.980796539546944,
G,right,Target,0,6,6,6,1089.0068256987865,1091.0086523439381,None,0,2,,D24T05,2023-01-19_14h48.36.368,t1_Paradigm,2021.1.4,59.980796539546944,
Y,left,Pretarget,0,7,7,7,1092.5068597037716,1094.5088348801323,left,1,2,0.8013018134920458,D24T05,2023-01-19_14h48.36.368,t1_Paradigm,2021.1.4,59.980796539546944,
P,left,Distractor,0,8,8,8,1096.0067621800404,1098.0087139378738,left,1,2,1.3978695555933882,D24T05,2023-01-19_14h48.36.368,t1_Paradigm,2021.1.4,59.980796539546944,
Y,right,Target,0,9,9,9,1099.5068908215412,1101.5087813062405,right,1,2,0.8734876603607518,D24T05,2023-01-19_14h48.36.368,t1_Paradigm,2021.1.4,59.980796539546944,
X,left,Distractor,0,10,10,10,1103.0068112627077,1105.0079969459675,left,1,2,0.7021869055142815,D24T05,2023-01-19_14h48.36.368,t1_Paradigm,2021.1.4,59.980796539546944,
Y,right,Target,0,11,11,11,1106.506915523276,1108.5081955222495,right,1,2,0.865988598705826,D24T05,2023-01-19_14h48.36.368,t1_Paradigm,2021.1.4,59.980796539546944,
N,left,Distractor,0,12,12,12,1110.006903653611,1112.019907673257,left,1,2,0.8582489357399936,D24T05,2023-01-19_14h48.36.368,t1_Paradigm,2021.1.4,59.980796539546944,
Y,right,Target,0,13,13,13,1113.5068664406085,1115.5087649453517,right,1,2,0.8415492799604181,D24T05,2023-01-19_14h48.36.368,t1_Paradigm,2021.1.4,59.980796539546944,
Y,left,Lure,0,14,14,14,1117.0068866511187,1119.0067390823147,None,0,2,,D24T05,2023-01-19_14h48.36.368,t1_Paradigm,2021.1.4,59.980796539546944,
K,left,Distractor,0,15,15,15,1120.506823453174,1122.5085978076409,None,0,2,,D24T05,2023-01-19_14h48.36.368,t1_Paradigm,2021.1.4,59.980796539546944,
T,left,Pretarget,0,16,16,16,1124.0068253779846,1126.0084399731809,left,1,2,1.365734523721585,D24T05,2023-01-19_14h48.36.368,t1_Paradigm,2021.1.4,59.980796539546944,
J,left,Distractor,0,17,17,17,1127.5067782201277,1129.5086462487047,left,1,2,1.08157988444691,D24T05,2023-01-19_14h48.36.368,t1_Paradigm,2021.1.4,59.980796539546944,
T,right,Target,0,18,18,18,1131.0068507213227,1133.0088502786166,right,1,2,1.0853268488604044,D24T05,2023-01-19_14h48.36.368,t1_Paradigm,2021.1.4,59.980796539546944,
S,left,Pretarget,0,19,19,19,1134.506715984589,1136.508510228764,left,1,2,0.6893875573832702,D24T05,2023-01-19_14h48.36.368,t1_Paradigm,2021.1.4,59.980796539546944,
R,left,Distractor,0,20,20,20,1138.0069488866575,1140.0086709504394,left,1,2,0.8535074859091765,D24T05,2023-01-19_14h48.36.368,t1_Paradigm,2021.1.4,59.980796539546944,
S,right,Target,0,21,21,21,1141.506756726411,1143.50753852027,right,1,2,0.778675666224899,D24T05,2023-01-19_14h48.36.368,t1_Paradigm,2021.1.4,59.980796539546944,
Q,left,Distractor,0,22,22,22,1145.0068080546903,1147.0086484943172,left,1,2,1.085493024166226,D24T05,2023-01-19_14h48.36.368,t1_Paradigm,2021.1.4,59.980796539546944,
D,left,Distractor,0,23,23,23,1148.5066210272716,1150.5089914313853,left,1,2,0.8977316108416744,D24T05,2023-01-19_14h48.36.368,t1_Paradigm,2021.1.4,59.980796539546944,
F,left,Distractor,0,24,24,24,1152.0068350020374,1154.008516323997,left,1,2,0.6617860958108395,D24T05,2023-01-19_14h48.36.368,t1_Paradigm,2021.1.4,59.980796539546944,
Z,left,Distractor,0,25,25,25,1155.5065992127525,1157.5081846149901,left,1,2,0.7143680686772313,D24T05,2023-01-19_14h48.36.368,t1_Paradigm,2021.1.4,59.980796539546944,
P,left,Distractor,0,26,26,26,1159.0068026010608,1161.0088445041852,left,1,2,0.7813774585447391,D24T05,2023-01-19_14h48.36.368,t1_Paradigm,2021.1.4,59.980796539546944,
H,left,Distractor,0,27,27,27,1162.5066989820962,1164.5082051463019,left,1,2,0.7378918192348465,D24T05,2023-01-19_14h48.36.368,t1_Paradigm,2021.1.4,59.980796539546944,
Z,left,Pretarget,0,28,28,28,1166.0072485154901,1168.008903210905,left,1,2,1.1092252958592326,D24T05,2023-01-19_14h48.36.368,t1_Paradigm,2021.1.4,59.980796539546944,
J,left,Pretarget,0,29,29,29,1169.5068083754923,1171.5086757624658,left,1,2,1.3694683352637185,D24T05,2023-01-19_14h48.36.368,t1_Paradigm,2021.1.4,59.980796539546944,
Z,right,Target,0,30,30,30,1173.0067557640054,1175.0087280531507,right,1,2,0.9093978871997024,D24T05,2023-01-19_14h48.36.368,t1_Paradigm,2021.1.4,59.980796539546944,
J,right,Target,0,31,31,31,1176.5067471023585,1178.5087213163138,right,1,2,1.3137360892342258,D24T05,2023-01-19_14h48.36.368,t1_Paradigm,2021.1.4,59.980796539546944,
V,left,Pretarget,0,32,32,32,1180.00578373471,1182.0198005254733,left,1,2,0.6505057439553639,D24T05,2023-01-19_14h48.36.368,t1_Paradigm,2021.1.4,59.980796539546944,
Z,left,Lure,0,33,33,33,1183.5057830931064,1185.5086449654978,left,1,2,0.9214715817770411,D24T05,2023-01-19_14h48.36.368,t1_Paradigm,2021.1.4,59.980796539546944,
V,right,Target,0,34,34,34,1187.0068767062644,1189.0083244845518,right,1,2,0.9419364876698637,D24T05,2023-01-19_14h48.36.368,t1_Paradigm,2021.1.4,59.980796539546944,
X,left,Distractor,0,35,35,35,1190.506821207562,1192.5093465589202,left,1,2,0.8327708609358524,D24T05,2023-01-19_14h48.36.368,t1_Paradigm,2021.1.4,59.980796539546944,
S,left,Distractor,0,36,36,36,1194.0066569570672,1196.0085894667955,left,1,2,0.6934976693751196,D24T05,2023-01-19_14h48.36.368,t1_Paradigm,2021.1.4,59.980796539546944,
Q,left,Distractor,0,37,37,37,1197.506791052198,1199.5087723237916,left,1,2,0.7615307376190685,D24T05,2023-01-19_14h48.36.368,t1_Paradigm,2021.1.4,59.980796539546944,
P,left,Distractor,0,38,38,38,1201.0067987514399,1203.0086760832673,None,0,2,,D24T05,2023-01-19_14h48.36.368,t1_Paradigm,2021.1.4,59.980796539546944,
S,left,Lure,0,39,39,39,1204.5067519143845,1206.5085285144633,None,0,2,,D24T05,2023-01-19_14h48.36.368,t1_Paradigm,2021.1.4,59.980796539546944,
K,left,Pretarget,0,40,40,40,1208.0067252878393,1210.0085105495655,left,1,2,1.0138531818720367,D24T05,2023-01-19_14h48.36.368,t1_Paradigm,2021.1.4,59.980796539546944,
L,left,Distractor,0,41,41,41,1211.506626480901,1213.508746659652,left,1,2,1.0813476239818556,D24T05,2023-01-19_14h48.36.368,t1_Paradigm,2021.1.4,59.980796539546944,
K,right,Target,0,42,42,42,1215.0064769872865,1217.00873896041,right,1,2,0.685472172052414,D24T05,2023-01-19_14h48.36.368,t1_Paradigm,2021.1.4,59.980796539546944,
B,left,Distractor,0,43,43,43,1218.5067900897925,1220.50803415897,left,1,2,0.642149820832401,D24T05,2023-01-19_14h48.36.368,t1_Paradigm,2021.1.4,59.980796539546944,
N,left,Distractor,0,44,44,44,1222.0065863806826,1224.0086263589965,left,1,2,0.581423012392861,D24T05,2023-01-19_14h48.36.368,t1_Paradigm,2021.1.4,59.980796539546944,
S,left,Pretarget,0,45,45,45,1225.50647762889,1227.5081810861707,None,0,2,,D24T05,2023-01-19_14h48.36.368,t1_Paradigm,2021.1.4,59.980796539546944,
Z,left,Distractor,0,46,46,46,1229.0067673128683,1231.0090357020267,None,0,2,,D24T05,2023-01-19_14h48.36.368,t1_Paradigm,2021.1.4,59.980796539546944,
S,right,Target,0,47,47,47,1232.5067769369207,1234.508542950542,right,1,2,0.993547714448141,D24T05,2023-01-19_14h48.36.368,t1_Paradigm,2021.1.4,59.980796539546944,
C,left,Distractor,0,48,48,48,1236.006720796615,1238.008388003298,left,1,2,0.9017034572807461,D24T05,2023-01-19_14h48.36.368,t1_Paradigm,2021.1.4,59.980796539546944,
T,left,Pretarget,0,49,49,49,1239.506471212855,1241.5083289757763,left,1,2,1.0497460854162455,D24T05,2023-01-19_14h48.36.368,t1_Paradigm,2021.1.4,59.980796539546944,
S,left,Lure,0,50,50,50,1243.006711814166,1245.0229758211722,None,0,2,,D24T05,2023-01-19_14h48.36.368,t1_Paradigm,2021.1.4,59.980796539546944,
T,right,Target,0,51,51,51,1246.506756405609,1248.507773988753,right,1,2,1.170300494996809,D24T05,2023-01-19_14h48.36.368,t1_Paradigm,2021.1.4,59.980796539546944,
N,left,Pretarget,0,52,52,52,1250.0067047565276,1252.0085965244339,left,1,2,0.8215726343273673,D24T05,2023-01-19_14h48.36.368,t1_Paradigm,2021.1.4,59.980796539546944,
B,left,Distractor,0,53,53,53,1253.506748706367,1255.5086924441566,left,1,2,1.0977826183197976,D24T05,2023-01-19_14h48.36.368,t1_Paradigm,2021.1.4,59.980796539546944,
N,right,Target,0,54,54,54,1257.00686676141,1259.0090183787324,right,1,2,0.892990481812376,D24T05,2023-01-19_14h48.36.368,t1_Paradigm,2021.1.4,59.980796539546944,
N,left,Lure,0,55,55,55,1260.507148425345,1262.506747743962,left,1,2,1.0593996516095103,D24T05,2023-01-19_14h48.36.368,t1_Paradigm,2021.1.4,59.980796539546944,
X,left,Distractor,0,56,56,56,1264.0066460498078,1266.008900644491,left,1,2,0.9011718887845745,D24T05,2023-01-19_14h48.36.368,t1_Paradigm,2021.1.4,59.980796539546944,
W,left,Distractor,0,57,57,57,1267.5068712526345,1269.5080979985182,left,1,2,1.0179215896368987,D24T05,2023-01-19_14h48.36.368,t1_Paradigm,2021.1.4,59.980796539546944,
S,left,Distractor,0,58,58,58,1271.0066569570672,1273.0085166447989,left,1,2,0.701506485007485,D24T05,2023-01-19_14h48.36.368,t1_Paradigm,2021.1.4,59.980796539546944,
L,left,Distractor,0,59,59,59,1274.5067204758134,1276.5085894667955,left,1,2,1.2174490486622744,D24T05,2023-01-19_14h48.36.368,t1_Paradigm,2021.1.4,59.980796539546944,
K,left,Pretarget,0,60,60,60,1278.0066361049535,1280.008620905367,left,1,2,0.9014686304012685,D24T05,2023-01-19_14h48.36.368,t1_Paradigm,2021.1.4,59.980796539546944,
V,left,Pretarget,0,61,61,61,1281.5064744208726,1283.508816594433,left,1,2,0.7772429656197346,D24T05,2023-01-19_14h48.36.368,t1_Paradigm,2021.1.4,59.980796539546944,
K,right,Target,0,62,62,62,1285.0067634632474,1287.0081432315646,right,1,2,0.813964820880301,D24T05,2023-01-19_14h48.36.368,t1_Paradigm,2021.1.4,59.980796539546944,
V,right,Target,0,63,63,63,1288.5064291878261,1290.5089975266187,right,1,2,1.0251232680716384,D24T05,2023-01-19_14h48.36.368,t1_Paradigm,2021.1.4,59.980796539546944,
R,left,Distractor,0,0,0,0,1354.8164641872968,1356.8085089455567,left,1,3,0.6617046121664316,D24T05,2023-01-19_14h48.36.368,t1_Paradigm,2021.1.4,59.980796539546944,
P,left,Lure,0,1,1,1,1358.3066255184958,1360.3085439129472,left,1,3,0.8894863643213284,D24T05,2023-01-19_14h48.36.368,t1_Paradigm,2021.1.4,59.980796539546944,
V,left,Distractor,0,2,2,2,1361.8066219896768,1363.8080874120606,left,1,3,0.5420186129176727,D24T05,2023-01-19_14h48.36.368,t1_Paradigm,2021.1.4,59.980796539546944,
P,left,Pretarget,0,3,3,3,1365.3063781803485,1367.308320634931,left,1,3,0.9137639989862691,D24T05,2023-01-19_14h48.36.368,t1_Paradigm,2021.1.4,59.980796539546944,
Z,left,Distractor,0,4,4,4,1368.8065902303038,1370.8084630709068,left,1,3,0.7576516028857441,D24T05,2023-01-19_14h48.36.368,t1_Paradigm,2021.1.4,59.980796539546944,
L,left,Pretarget,0,5,5,5,1372.3066502202305,1374.3071128163506,None,0,3,,D24T05,2023-01-19_14h48.36.368,t1_Paradigm,2021.1.4,59.980796539546944,
P,right,Target,0,6,6,6,1375.8066460498076,1377.8085548202066,right,1,3,0.9255268366700875,D24T05,2023-01-19_14h48.36.368,t1_Paradigm,2021.1.4,59.980796539546944,
S,left,Distractor,0,7,7,7,1379.306680054793,1381.3078914021926,left,1,3,0.9782496415041351,D24T05,2023-01-19_14h48.36.368,t1_Paradigm,2021.1.4,59.980796539546944,
L,right,Target,0,8,8,8,1382.806565849371,1384.8082391512871,right,1,3,0.8697240142564624,D24T05,2023-01-19_14h48.36.368,t1_Paradigm,2021.1.4,59.980796539546944,
D,left,Distractor,0,9,9,9,1386.3066332177377,1388.3085830507607,left,1,3,0.8732602119216608,D24T05,2023-01-19_14h48.36.368,t1_Paradigm,2021.1.4,59.980796539546944,
G,left,Distractor,0,10,10,10,1389.8065504508868,1391.8079488257054,left,1,3,0.7659975811548065,D24T05,2023-01-19_14h48.36.368,t1_Paradigm,2021.1.4,59.980796539546944,
M,left,Pretarget,0,11,11,11,1393.3065831726653,1395.3086135269268,left,1,3,1.1533422730090024,D24T05,2023-01-19_14h48.36.368,t1_Paradigm,2021.1.4,59.980796539546944,
Y,left,Distractor,0,12,12,12,1396.8067108517607,1398.8085734267083,None,0,3,,D24T05,2023-01-19_14h48.36.368,t1_Paradigm,2021.1.4,59.980796539546944,
V,left,Distractor,0,13,13,13,1400.3065982503472,1402.3082779682986,left,1,3,1.3856665779112518,D24T05,2023-01-19_14h48.36.368,t1_Paradigm,2021.1.4,59.980796539546944,
M,right,Target,0,14,14,14,1403.806573227811,1405.807234400213,right,1,3,0.766698212171832,D24T05,2023-01-19_14h48.36.368,t1_Paradigm,2021.1.4,59.980796539546944,
S,left,Pretarget,0,15,15,15,1407.3066290473153,1409.3056647172616,left,1,3,0.8522303741510768,D24T05,2023-01-19_14h48.36.368,t1_Paradigm,2021.1.4,59.980796539546944,
Q,left,Distractor,0,16,16,16,1410.8066251976943,1412.8071628614234,left,1,3,1.0151027046795207,D24T05,2023-01-19_14h48.36.368,t1_Paradigm,2021.1.4,59.980796539546944,
R,left,Pretarget,0,17,17,17,1414.3056291082676,1416.3086590807748,left,1,3,0.8574761243298781,D24T05,2023-01-19_14h48.36.368,t1_Paradigm,2021.1.4,59.980796539546944,
S,right,Target,0,18,18,18,1417.8066993028979,1419.8085320432829,right,1,3,1.165367847323978,D24T05,2023-01-19_14h48.36.368,t1_Paradigm,2021.1.4,59.980796539546944,
F,left,Distractor,0,19,19,19,1421.3065895887003,1423.3077621190882,left,1,3,0.8023877274081315,D24T05,2023-01-19_14h48.36.368,t1_Paradigm,2021.1.4,59.980796539546944,
R,right,Target,0,20,20,20,1424.806691603656,1426.8079529961278,None,0,3,,D24T05,2023-01-19_14h48.36.368,t1_Paradigm,2021.1.4,59.980796539546944,
P,left,Distractor,0,21,21,21,1428.3066633731023,1430.3084524844494,left,1,3,0.7296327782396475,D24T05,2023-01-19_14h48.36.368,t1_Paradigm,2021.1.4,59.980796539546944,
L,left,Distractor,0,22,22,22,1431.8065523756973,1433.807238249834,left,1,3,1.054667184227128,D24T05,2023-01-19_14h48.36.368,t1_Paradigm,2021.1.4,59.980796539546944,
R,right,Target,0,23,23,23,1435.3065514132923,1437.30840308098,right,1,3,0.5615929731584401,D24T05,2023-01-19_14h48.36.368,t1_Paradigm,2021.1.4,59.980796539546944,
H,left,Pretarget,0,24,24,24,1438.8063505913983,1440.8084284243182,left,1,3,0.6934870829177271,D24T05,2023-01-19_14h48.36.368,t1_Paradigm,2021.1.4,59.980796539546944,
G,left,Pretarget,0,25,25,25,1442.3065267115576,1444.308609035702,left,1,3,0.7935807570279394,D24T05,2023-01-19_14h48.36.368,t1_Paradigm,2021.1.4,59.980796539546944,
T,left,Distractor,0,26,26,26,1445.8068988415848,1447.8085131159796,left,1,3,0.6533929596848793,D24T05,2023-01-19_14h48.36.368,t1_Paradigm,2021.1.4,59.980796539546944,
H,right,Target,0,27,27,27,1449.3065212579281,1451.308100564932,right,1,3,0.5619487422968632,D24T05,2023-01-19_14h48.36.368,t1_Paradigm,2021.1.4,59.980796539546944,
G,right,Target,0,28,28,28,1452.806565849371,1454.8082025798876,right,1,3,1.1578363846929278,D24T05,2023-01-19_14h48.36.368,t1_Paradigm,2021.1.4,59.980796539546944,
D,left,Distractor,0,29,29,29,1456.3064728168642,1458.308281176316,left,1,3,0.7457511412521853,D24T05,2023-01-19_14h48.36.368,t1_Paradigm,2021.1.4,59.980796539546944,
N,left,Pretarget,0,30,30,30,1459.8065254283506,1461.822682608375,left,1,3,0.7836278828049217,D24T05,2023-01-19_14h48.36.368,t1_Paradigm,2021.1.4,59.980796539546944,
V,left,Distractor,0,31,31,31,1463.3065841350704,1465.3085445545507,left,1,3,0.9295368585167125,D24T05,2023-01-19_14h48.36.368,t1_Paradigm,2021.1.4,59.980796539546944,
R,left,Distractor,0,32,32,32,1466.8064224509894,1468.8069315633634,left,1,3,1.1590868699054226,D24T05,2023-01-19_14h48.36.368,t1_Paradigm,2021.1.4,59.980796539546944,
N,right,Target,0,33,33,33,1470.3063246064567,1472.307155482983,right,1,3,1.2269107754100332,D24T05,2023-01-19_14h48.36.368,t1_Paradigm,2021.1.4,59.980796539546944,
Z,left,Distractor,0,34,34,34,1473.8056993638502,1475.808922138208,left,1,3,0.748947930668237,D24T05,2023-01-19_14h48.36.368,t1_Paradigm,2021.1.4,59.980796539546944,
N,left,Lure,0,35,35,35,1477.3065048970388,1479.3082933667824,right,0,3,0.961670927983505,D24T05,2023-01-19_14h48.36.368,t1_Paradigm,2021.1.4,59.980796539546944,
Y,left,Pretarget,0,36,36,36,1480.8065109922718,1482.8084062889975,left,1,3,0.789579717630204,D24T05,2023-01-19_14h48.36.368,t1_Paradigm,2021.1.4,59.980796539546944,
Y,left,Lure,0,37,37,37,1484.3064888569515,1486.306224837113,left,1,3,0.9715952508508963,D24T05,2023-01-19_14h48.36.368,t1_Paradigm,2021.1.4,59.980796539546944,
B,left,Distractor,0,38,38,38,1487.8062691077544,1489.8084277827147,left,1,3,0.6215007747364325,D24T05,2023-01-19_14h48.36.368,t1_Paradigm,2021.1.4,59.980796539546944,
Y,right,Target,0,39,39,39,1491.3064651176219,1493.3087065594336,right,1,3,0.8171314549322233,D24T05,2023-01-19_14h48.36.368,t1_Paradigm,2021.1.4,59.980796539546944,
J,left,Distractor,0,40,40,40,1494.8063916540218,1496.807816655385,left,1,3,0.822088162736236,D24T05,2023-01-19_14h48.36.368,t1_Paradigm,2021.1.4,59.980796539546944,
X,left,Distractor,0,41,41,41,1498.3064503607416,1500.308633095833,left,1,3,0.9209935871731432,D24T05,2023-01-19_14h48.36.368,t1_Paradigm,2021.1.4,59.980796539546944,
W,left,Pretarget,0,42,42,42,1501.806227724329,1503.8072093776768,left,1,3,0.766639826253595,D24T05,2023-01-19_14h48.36.368,t1_Paradigm,2021.1.4,59.980796539546944,
S,left,Pretarget,0,43,43,43,1505.3064850073306,1507.3079988707777,left,1,3,0.722103240418619,D24T05,2023-01-19_14h48.36.368,t1_Paradigm,2021.1.4,59.980796539546944,
R,left,Distractor,0,44,44,44,1508.8064760248817,1510.8082632114183,left,1,3,0.757727953702215,D24T05,2023-01-19_14h48.36.368,t1_Paradigm,2021.1.4,59.980796539546944,
W,right,Target,0,45,45,45,1512.3064773080887,1514.3088496370128,left,0,3,0.9850471097365698,D24T05,2023-01-19_14h48.36.368,t1_Paradigm,2021.1.4,59.980796539546944,
S,right,Target,0,46,46,46,1515.8065244659456,1517.8083078028612,right,1,3,0.7816065109923329,D24T05,2023-01-19_14h48.36.368,t1_Paradigm,2021.1.4,59.980796539546944,
D,left,Distractor,0,47,47,47,1519.3065116338753,1521.308368755193,left,1,3,0.865388057834025,D24T05,2023-01-19_14h48.36.368,t1_Paradigm,2021.1.4,59.980796539546944,
T,left,Distractor,0,48,48,48,1522.8062691077544,1524.8078529059826,left,1,3,0.7262191268418974,D24T05,2023-01-19_14h48.36.368,t1_Paradigm,2021.1.4,59.980796539546944,
S,right,Target,0,49,49,49,1526.3064641552169,1528.3085342888949,right,1,3,0.6012674877051722,D24T05,2023-01-19_14h48.36.368,t1_Paradigm,2021.1.4,59.980796539546944,
K,left,Distractor,0,50,50,50,1529.806307603964,1531.806992836497,left,1,3,0.9749902957469203,D24T05,2023-01-19_14h48.36.368,t1_Paradigm,2021.1.4,59.980796539546944,
S,left,Lure,0,51,51,51,1533.3065004058144,1535.3081207754421,left,1,3,1.0095284535109386,D24T05,2023-01-19_14h48.36.368,t1_Paradigm,2021.1.4,59.980796539546944,
T,left,Pretarget,0,52,52,52,1536.8064455487156,1538.8074339389004,None,0,3,,D24T05,2023-01-19_14h48.36.368,t1_Paradigm,2021.1.4,59.980796539546944,
V,left,Distractor,0,53,53,53,1540.3061731880316,1542.3084521636474,left,1,3,1.0493652937420848,D24T05,2023-01-19_14h48.36.368,t1_Paradigm,2021.1.4,59.980796539546944,
B,left,Distractor,0,54,54,54,1543.8062370275793,1545.8083087652662,left,1,3,0.7175032641575854,D24T05,2023-01-19_14h48.36.368,t1_Paradigm,2021.1.4,59.980796539546944,
T,right,Target,0,55,55,55,1547.3063890876078,1549.3088127448118,right,1,3,1.02529393460145,D24T05,2023-01-19_14h48.36.368,t1_Paradigm,2021.1.4,59.980796539546944,
Y,left,Pretarget,0,56,56,56,1550.8064490775346,1552.8071830719337,left,1,3,0.8866594593209811,D24T05,2023-01-19_14h48.36.368,t1_Paradigm,2021.1.4,59.980796539546944,
T,left,Lure,0,57,57,57,1554.3064356038612,1556.3078035025137,left,1,3,1.08209509205426,D24T05,2023-01-19_14h48.36.368,t1_Paradigm,2021.1.4,59.980796539546944,
P,left,Pretarget,0,58,58,58,1557.8063932580308,1559.8076392520188,left,1,3,0.8941934883659997,D24T05,2023-01-19_14h48.36.368,t1_Paradigm,2021.1.4,59.980796539546944,
Y,right,Target,0,59,59,59,1561.3062411980018,1563.3076030014208,right,1,3,0.7861824271221849,D24T05,2023-01-19_14h48.36.368,t1_Paradigm,2021.1.4,59.980796539546944,
R,left,Distractor,0,60,60,60,1564.8062598045035,1566.808253266564,left,1,3,0.8056611884421727,D24T05,2023-01-19_14h48.36.368,t1_Paradigm,2021.1.4,59.980796539546944,
P,right,Target,0,61,61,61,1568.3064564559745,1570.3083318629924,left,0,3,1.0980912296017777,D24T05,2023-01-19_14h48.36.368,t1_Paradigm,2021.1.4,59.980796539546944,
L,left,Distractor,0,62,62,62,1571.806414751748,1573.808137457133,left,1,3,1.341659635761971,D24T05,2023-01-19_14h48.36.368,t1_Paradigm,2021.1.4,59.980796539546944,
V,left,Distractor,0,63,63,63,1575.306416676558,1577.3081977678612,left,1,3,0.8654830151508577,D24T05,2023-01-19_14h48.36.368,t1_Paradigm,2021.1.4,59.980796539546944,
H,left,Lure,0,0,0,0,1599.716882191974,1601.708294329188,None,0,3,,D24T05,2023-01-19_14h48.36.368,t1_Paradigm,2021.1.4,59.980796539546944,
B,left,Distractor,0,1,1,1,1603.2063493081914,1605.207710790808,None,0,3,,D24T05,2023-01-19_14h48.36.368,t1_Paradigm,2021.1.4,59.980796539546944,
T,left,Distractor,0,2,2,2,1606.706378180348,1608.7078914021922,None,0,3,,D24T05,2023-01-19_14h48.36.368,t1_Paradigm,2021.1.4,59.980796539546944,
R,left,Distractor,0,3,3,3,1610.2063679146922,1612.208173386929,left,1,3,0.42975083328201436,D24T05,2023-01-19_14h48.36.368,t1_Paradigm,2021.1.4,59.980796539546944,
H,left,Pretarget,0,4,4,4,1613.7063258896633,1615.7083716424086,None,0,3,,D24T05,2023-01-19_14h48.36.368,t1_Paradigm,2021.1.4,59.980796539546944,
K,left,Distractor,0,5,5,5,1617.2063906916164,1619.2082182991735,left,1,3,0.9814111427276657,D24T05,2023-01-19_14h48.36.368,t1_Paradigm,2021.1.4,59.980796539546944,
G,left,Distractor,0,6,6,6,1620.706111594096,1622.7085891459938,left,1,3,0.6811573885452162,D24T05,2023-01-19_14h48.36.368,t1_Paradigm,2021.1.4,59.980796539546944,
H,right,Target,0,7,7,7,1624.2064830825202,1626.2086286046087,left,0,3,1.0209044042876485,D24T05,2023-01-19_14h48.36.368,t1_Paradigm,2021.1.4,59.980796539546944,
Y,left,Pretarget,0,8,8,8,1627.7062296491395,1629.708053727877,left,1,3,0.5619230781576334,D24T05,2023-01-19_14h48.36.368,t1_Paradigm,2021.1.4,59.980796539546944,
S,left,Distractor,0,9,9,9,1631.2064038444887,1633.2084637125108,left,1,3,0.7254812828214199,D24T05,2023-01-19_14h48.36.368,t1_Paradigm,2021.1.4,59.980796539546944,
P,left,Distractor,0,10,10,10,1634.7064465111207,1636.7069639643396,left,1,3,0.6668008687311158,D24T05,2023-01-19_14h48.36.368,t1_Paradigm,2021.1.4,59.980796539546944,
Y,right,Target,0,11,11,11,1638.2062825814273,1640.2086420782825,right,1,3,0.9888877482608223,D24T05,2023-01-19_14h48.36.368,t1_Paradigm,2021.1.4,59.980796539546944,
H,left,Lure,0,12,12,12,1641.706393578832,1643.7084797525977,None,0,3,,D24T05,2023-01-19_14h48.36.368,t1_Paradigm,2021.1.4,59.980796539546944,
Q,left,Distractor,0,13,13,13,1645.2063560450279,1647.2075369162612,left,1,3,0.8542058713137521,D24T05,2023-01-19_14h48.36.368,t1_Paradigm,2021.1.4,59.980796539546944,
V,left,Pretarget,0,14,14,14,1648.7063300600867,1650.7189908218625,left,1,3,0.8628691225103466,D24T05,2023-01-19_14h48.36.368,t1_Paradigm,2021.1.4,59.980796539546944,
G,left,Distractor,0,15,15,15,1652.2063242856548,1654.2085804843464,left,1,3,0.8134354979965792,D24T05,2023-01-19_14h48.36.368,t1_Paradigm,2021.1.4,59.980796539546944,
Z,left,Pretarget,0,16,16,16,1655.7063287768797,1657.707715923637,left,1,3,0.8022225145077755,D24T05,2023-01-19_14h48.36.368,t1_Paradigm,2021.1.4,59.980796539546944,
V,right,Target,0,17,17,17,1659.2063570074333,1661.2069556234947,None,0,3,,D24T05,2023-01-19_14h48.36.368,t1_Paradigm,2021.1.4,59.980796539546944,
N,left,Distractor,0,18,18,18,1662.7064269422144,1664.7073752321803,left,1,3,0.8424699809766025,D24T05,2023-01-19_14h48.36.368,t1_Paradigm,2021.1.4,59.980796539546944,
Z,right,Target,0,19,19,19,1666.206228686734,1668.208055652687,right,1,3,1.0374757393674372,D24T05,2023-01-19_14h48.36.368,t1_Paradigm,2021.1.4,59.980796539546944,
R,left,Distractor,0,20,20,20,1669.7063156240074,1671.7084887350466,left,1,3,0.6412756360696221,D24T05,2023-01-19_14h48.36.368,t1_Paradigm,2021.1.4,59.980796539546944,
P,left,Distractor,0,21,21,21,1673.2062947718941,1675.2069421498209,left,1,3,1.222865786172406,D24T05,2023-01-19_14h48.36.368,t1_Paradigm,2021.1.4,59.980796539546944,
Z,right,Target,0,22,22,22,1676.7062800150134,1678.7226072199646,right,1,3,0.9870963913008381,D24T05,2023-01-19_14h48.36.368,t1_Paradigm,2021.1.4,59.980796539546944,
D,left,Pretarget,0,23,23,23,1680.2063560450279,1682.207708224394,left,1,3,0.7339992108281876,D24T05,2023-01-19_14h48.36.368,t1_Paradigm,2021.1.4,59.980796539546944,
K,left,Distractor,0,24,24,24,1683.7062928470832,1685.7081698581096,left,1,3,1.0095323031318912,D24T05,2023-01-19_14h48.36.368,t1_Paradigm,2021.1.4,59.980796539546944,
W,left,Distractor,0,25,25,25,1687.2064263006105,1689.2070053477655,left,1,3,1.0147722788788087,D24T05,2023-01-19_14h48.36.368,t1_Paradigm,2021.1.4,59.980796539546944,
D,right,Target,0,26,26,26,1690.7062697493575,1692.708104093751,right,1,3,1.0656023534020278,D24T05,2023-01-19_14h48.36.368,t1_Paradigm,2021.1.4,59.980796539546944,
G,left,Pretarget,0,27,27,27,1694.2055424917953,1696.2079757730526,left,1,3,1.453695154930756,D24T05,2023-01-19_14h48.36.368,t1_Paradigm,2021.1.4,59.980796539546944,
V,left,Distractor,0,28,28,28,1697.7062886766607,1699.7080902992757,left,1,3,1.073712863187211,D24T05,2023-01-19_14h48.36.368,t1_Paradigm,2021.1.4,59.980796539546944,
D,right,Target,0,29,29,29,1701.2062556340807,1703.2081153218123,right,1,3,0.6457418380014133,D24T05,2023-01-19_14h48.36.368,t1_Paradigm,2021.1.4,59.980796539546944,
G,right,Target,0,30,30,30,1704.7062023809904,1706.7085516121897,right,1,3,1.0811798446675311,D24T05,2023-01-19_14h48.36.368,t1_Paradigm,2021.1.4,59.980796539546944,
B,left,Pretarget,0,31,31,31,1708.2062485764427,1710.207404745941,left,1,3,1.0060718146796717,D24T05,2023-01-19_14h48.36.368,t1_Paradigm,2021.1.4,59.980796539546944,
N,left,Distractor,0,32,32,32,1711.705991293441,1713.7086642136028,left,1,3,0.7051427728174531,D24T05,2023-01-19_14h48.36.368,t1_Paradigm,2021.1.4,59.980796539546944,
F,left,Distractor,0,33,33,33,1715.2062546716752,1717.219296545928,left,1,3,0.6825775778825118,D24T05,2023-01-19_14h48.36.368,t1_Paradigm,2021.1.4,59.980796539546944,
B,right,Target,0,34,34,34,1718.7062889974623,1720.7080354421769,right,1,3,0.48943182802395313,D24T05,2023-01-19_14h48.36.368,t1_Paradigm,2021.1.4,59.980796539546944,
Q,left,Pretarget,0,35,35,35,1722.2062899598677,1724.20678046574,left,1,3,0.7828887555779147,D24T05,2023-01-19_14h48.36.368,t1_Paradigm,2021.1.4,59.980796539546944,
S,left,Pretarget,0,36,36,36,1725.7060891379733,1727.7084855270296,left,1,3,0.7371886218043073,D24T05,2023-01-19_14h48.36.368,t1_Paradigm,2021.1.4,59.980796539546944,
W,left,Distractor,0,37,37,37,1729.2061369374342,1731.2066242352894,left,1,3,1.079119655843897,D24T05,2023-01-19_14h48.36.368,t1_Paradigm,2021.1.4,59.980796539546944,
Q,right,Target,0,38,38,38,1732.706233177959,1734.7077900288405,right,1,3,0.793855363323928,D24T05,2023-01-19_14h48.36.368,t1_Paradigm,2021.1.4,59.980796539546944,
S,right,Target,0,39,39,39,1736.206194360947,1738.2068183203464,left,0,3,1.2149198476836318,D24T05,2023-01-19_14h48.36.368,t1_Paradigm,2021.1.4,59.980796539546944,
T,left,Distractor,0,40,40,40,1739.7059954638635,1741.7077653271053,left,1,3,0.7859216153010493,D24T05,2023-01-19_14h48.36.368,t1_Paradigm,2021.1.4,59.980796539546944,
G,left,Distractor,0,41,41,41,1743.2062880350577,1745.2071907711752,left,1,3,0.9663674655703289,D24T05,2023-01-19_14h48.36.368,t1_Paradigm,2021.1.4,59.980796539546944,
D,left,Distractor,0,42,42,42,1746.7061988521718,1748.7077752719597,left,1,3,0.7938752530326383,D24T05,2023-01-19_14h48.36.368,t1_Paradigm,2021.1.4,59.980796539546944,
S,left,Lure,0,43,43,43,1750.206190511326,1752.2071554829836,left,1,3,1.3266984046531434,D24T05,2023-01-19_14h48.36.368,t1_Paradigm,2021.1.4,59.980796539546944,
Z,left,Pretarget,0,44,44,44,1753.7062428020108,1755.7070303703013,left,1,3,0.7226052951536985,D24T05,2023-01-19_14h48.36.368,t1_Paradigm,2021.1.4,59.980796539546944,
J,left,Distractor,0,45,45,45,1757.2062652581335,1759.2080457078328,left,1,3,0.6297687981805211,D24T05,2023-01-19_14h48.36.368,t1_Paradigm,2021.1.4,59.980796539546944,
M,left,Pretarget,0,46,46,46,1760.706024336021,1762.708727090745,left,1,3,0.7130896737126022,D24T05,2023-01-19_14h48.36.368,t1_Paradigm,2021.1.4,59.980796539546944,
Z,right,Target,0,47,47,47,1764.2061966065594,1766.207044485578,right,1,3,0.8307648876070743,D24T05,2023-01-19_14h48.36.368,t1_Paradigm,2021.1.4,59.980796539546944,
P,left,Distractor,0,48,48,48,1767.705956967654,1769.7084964342885,left,1,3,0.6412708240432039,D24T05,2023-01-19_14h48.36.368,t1_Paradigm,2021.1.4,59.980796539546944,
M,right,Target,0,49,49,49,1771.206041659315,1773.208072334378,left,0,3,1.1256134531422504,D24T05,2023-01-19_14h48.36.368,t1_Paradigm,2021.1.4,59.980796539546944,
K,left,Distractor,0,50,50,50,1774.7061603559614,1776.7082003342757,left,1,3,1.3694567864013152,D24T05,2023-01-19_14h48.36.368,t1_Paradigm,2021.1.4,59.980796539546944,
Y,left,Distractor,0,51,51,51,1778.2059948222595,1780.2078067105313,left,1,3,0.6219248746465382,D24T05,2023-01-19_14h48.36.368,t1_Paradigm,2021.1.4,59.980796539546944,
X,left,Distractor,0,52,52,52,1781.7059560052485,1783.707395763492,left,1,3,0.6903631154982577,D24T05,2023-01-19_14h48.36.368,t1_Paradigm,2021.1.4,59.980796539546944,
F,left,Pretarget,0,53,53,53,1785.2062184210781,1787.219075192722,left,1,3,0.6985804522664694,D24T05,2023-01-19_14h48.36.368,t1_Paradigm,2021.1.4,59.980796539546944,
M,left,Lure,0,54,54,54,1788.7063422505526,1790.7080630311275,left,1,3,0.7457238731030884,D24T05,2023-01-19_14h48.36.368,t1_Paradigm,2021.1.4,59.980796539546944,
V,left,Distractor,0,55,55,55,1792.2060583410057,1794.2087097674512,left,1,3,0.6528998873982346,D24T05,2023-01-19_14h48.36.368,t1_Paradigm,2021.1.4,59.980796539546944,
F,right,Target,0,56,56,56,1795.706264295728,1797.7194393027057,right,1,3,0.8064394534821986,D24T05,2023-01-19_14h48.36.368,t1_Paradigm,2021.1.4,59.980796539546944,
S,left,Distractor,0,57,57,57,1799.2062055890083,1801.2076183999052,left,1,3,0.6461855068182558,D24T05,2023-01-19_14h48.36.368,t1_Paradigm,2021.1.4,59.980796539546944,
D,left,Distractor,0,58,58,58,1802.7061805664716,1804.7081939182408,left,1,3,0.6173204071619693,D24T05,2023-01-19_14h48.36.368,t1_Paradigm,2021.1.4,59.980796539546944,
F,right,Target,0,59,59,59,1806.2060602658166,1808.207117628377,right,1,3,1.1664726885428536,D24T05,2023-01-19_14h48.36.368,t1_Paradigm,2021.1.4,59.980796539546944,
V,left,Pretarget,0,60,60,60,1809.7061719048243,1811.7076973171352,left,1,3,0.9782217317524555,D24T05,2023-01-19_14h48.36.368,t1_Paradigm,2021.1.4,59.980796539546944,
J,left,Distractor,0,61,61,61,1813.2061093484836,1815.207430730883,left,1,3,0.7262534526280433,D24T05,2023-01-19_14h48.36.368,t1_Paradigm,2021.1.4,59.980796539546944,
V,left,Lure,0,62,62,62,1816.7061991729734,1818.7080027203992,None,0,3,,D24T05,2023-01-19_14h48.36.368,t1_Paradigm,2021.1.4,59.980796539546944,
V,right,Target,0,63,63,63,1820.206228045131,1822.2059021105551,right,1,3,0.8478373150182961,D24T05,2023-01-19_14h48.36.368,t1_Paradigm,2021.1.4,59.980796539546944,
R,left,Distractor,0,0,0,0,1896.0792604878116,1898.0747397495825,left,1,4,0.9789916559457197,D24T05,2023-01-19_14h48.36.368,t1_Paradigm,2021.1.4,59.980796539546944,
F,left,Distractor,0,1,1,1,1899.5724864381064,1901.5744144566097,left,1,4,0.5191650172109803,D24T05,2023-01-19_14h48.36.368,t1_Paradigm,2021.1.4,59.980796539546944,
P,left,Pretarget,0,2,2,2,1903.0727363426677,1905.0745475893355,left,1,4,0.4112707278027301,D24T05,2023-01-19_14h48.36.368,t1_Paradigm,2021.1.4,59.980796539546944,
H,left,Distractor,0,3,3,3,1906.5726080219683,1908.5750573433124,left,1,4,0.46266958382329904,D24T05,2023-01-19_14h48.36.368,t1_Paradigm,2021.1.4,59.980796539546944,
Z,left,Distractor,0,4,4,4,1910.07246879401,1912.089325001043,left,1,4,0.612198165656082,D24T05,2023-01-19_14h48.36.368,t1_Paradigm,2021.1.4,59.980796539546944,
T,left,Distractor,0,5,5,5,1913.5727587987903,1915.5750814034436,left,1,4,1.286453825400713,D24T05,2023-01-19_14h48.36.368,t1_Paradigm,2021.1.4,59.980796539546944,
P,right,Target,0,6,6,6,1917.0727822173176,1919.074696762148,right,1,4,0.9708580484348204,D24T05,2023-01-19_14h48.36.368,t1_Paradigm,2021.1.4,59.980796539546944,
G,left,Distractor,0,7,7,7,1920.5727331346507,1922.574975538867,left,1,4,0.6543037158462539,D24T05,2023-01-19_14h48.36.368,t1_Paradigm,2021.1.4,59.980796539546944,
L,left,Distractor,0,8,8,8,1924.0728030694308,1926.0747182558653,left,1,4,0.5949967759424908,D24T05,2023-01-19_14h48.36.368,t1_Paradigm,2021.1.4,59.980796539546944,
P,left,Lure,0,9,9,9,1927.5728364328133,1929.5745321908516,right,0,4,0.9669882169509947,D24T05,2023-01-19_14h48.36.368,t1_Paradigm,2021.1.4,59.980796539546944,
Q,left,Pretarget,0,10,10,10,1931.0727761220842,1933.0746284313755,left,1,4,0.9389908860221112,D24T05,2023-01-19_14h48.36.368,t1_Paradigm,2021.1.4,59.980796539546944,
D,left,Distractor,0,11,11,11,1934.5727725932657,1936.5745937847869,left,1,4,0.8950769763796416,D24T05,2023-01-19_14h48.36.368,t1_Paradigm,2021.1.4,59.980796539546944,
M,left,Pretarget,0,12,12,12,1938.0727620068074,1940.0749473083133,left,1,4,0.5787093504086442,D24T05,2023-01-19_14h48.36.368,t1_Paradigm,2021.1.4,59.980796539546944,
C,left,Distractor,0,13,13,13,1941.572788312551,1943.5735412342528,left,1,4,0.6480878611828302,D24T05,2023-01-19_14h48.36.368,t1_Paradigm,2021.1.4,59.980796539546944,
Q,right,Target,0,14,14,14,1945.0726131547963,1947.0749874085313,right,1,4,0.6185808372283645,D24T05,2023-01-19_14h48.36.368,t1_Paradigm,2021.1.4,59.980796539546944,
R,left,Distractor,0,15,15,15,1948.5726907888193,1950.5750611929334,left,1,4,0.606282260626358,D24T05,2023-01-19_14h48.36.368,t1_Paradigm,2021.1.4,59.980796539546944,
M,right,Target,0,16,16,16,1952.0726943176387,1954.071931130281,None,0,4,,D24T05,2023-01-19_14h48.36.368,t1_Paradigm,2021.1.4,59.980796539546944,
S,left,Distractor,0,17,17,17,1955.572701696079,1957.5752081201335,left,1,4,0.7583974669496456,D24T05,2023-01-19_14h48.36.368,t1_Paradigm,2021.1.4,59.980796539546944,
Z,left,Distractor,0,18,18,18,1959.0725060070126,1961.0747022157775,None,0,4,,D24T05,2023-01-19_14h48.36.368,t1_Paradigm,2021.1.4,59.980796539546944,
L,left,Pretarget,0,19,19,19,1962.5727385882801,1964.5735171741217,None,0,4,,D24T05,2023-01-19_14h48.36.368,t1_Paradigm,2021.1.4,59.980796539546944,
M,right,Target,0,20,20,20,1966.0727427587026,1968.0744985066676,None,0,4,,D24T05,2023-01-19_14h48.36.368,t1_Paradigm,2021.1.4,59.980796539546944,
P,left,Distractor,0,21,21,21,1969.5728098062682,1971.5748645414624,left,1,4,0.9986054748023889,D24T05,2023-01-19_14h48.36.368,t1_Paradigm,2021.1.4,59.980796539546944,
F,left,Distractor,0,22,22,22,1973.0726956008457,1975.0747314087366,left,1,4,0.811083700384188,D24T05,2023-01-19_14h48.36.368,t1_Paradigm,2021.1.4,59.980796539546944,
L,right,Target,0,23,23,23,1976.5726532550152,1978.5750133934735,right,1,4,0.5585742287130415,D24T05,2023-01-19_14h48.36.368,t1_Paradigm,2021.1.4,59.980796539546944,
L,left,Lure,0,24,24,24,1980.0726933552332,1982.072701696079,left,1,4,1.3007086510606314,D24T05,2023-01-19_14h48.36.368,t1_Paradigm,2021.1.4,59.980796539546944,
V,left,Pretarget,0,25,25,25,1983.5726115507878,1985.5735454046753,left,1,4,0.9678482864374018,D24T05,2023-01-19_14h48.36.368,t1_Paradigm,2021.1.4,59.980796539546944,
Z,left,Distractor,0,26,26,26,1987.0725595809045,1989.0748106467681,left,1,4,0.8587846746586365,D24T05,2023-01-19_14h48.36.368,t1_Paradigm,2021.1.4,59.980796539546944,
H,left,Distractor,0,27,27,27,1990.5727645732213,1992.5746008424258,left,1,4,0.6706758330419689,D24T05,2023-01-19_14h48.36.368,t1_Paradigm,2021.1.4,59.980796539546944,
X,left,Distractor,0,28,28,28,1994.0726057763568,1996.0720129347264,left,1,4,0.7415967586193801,D24T05,2023-01-19_14h48.36.368,t1_Paradigm,2021.1.4,59.980796539546944,
V,right,Target,0,29,29,29,1997.5727212649854,1999.5733785877665,right,1,4,1.2242192487465218,D24T05,2023-01-19_14h48.36.368,t1_Paradigm,2021.1.4,59.980796539546944,
C,left,Distractor,0,30,30,30,2001.0726426685578,2003.074124131028,left,1,4,0.8594760024252537,D24T05,2023-01-19_14h48.36.368,t1_Paradigm,2021.1.4,59.980796539546944,
S,left,Pretarget,0,31,31,31,2004.5727956909914,2006.5744247222656,left,1,4,0.7028269050006202,D24T05,2023-01-19_14h48.36.368,t1_Paradigm,2021.1.4,59.980796539546944,
D,left,Distractor,0,32,32,32,2008.0726458765748,2010.0748600502375,left,1,4,0.8825971467895215,D24T05,2023-01-19_14h48.36.368,t1_Paradigm,2021.1.4,59.980796539546944,
V,left,Distractor,0,33,33,33,2011.57251466866,2013.5734770739036,left,1,4,1.0325469413155588,D24T05,2023-01-19_14h48.36.368,t1_Paradigm,2021.1.4,59.980796539546944,
R,left,Distractor,0,34,34,34,2015.0726721823185,2017.0750361703967,left,1,4,0.9864008931126591,D24T05,2023-01-19_14h48.36.368,t1_Paradigm,2021.1.4,59.980796539546944,
S,right,Target,0,35,35,35,2018.5726250244616,2020.5744661056915,right,1,4,0.9750910274960916,D24T05,2023-01-19_14h48.36.368,t1_Paradigm,2021.1.4,59.980796539546944,
Y,left,Distractor,0,36,36,36,2022.0726920720263,2024.0731886731319,left,1,4,1.0281910951853206,D24T05,2023-01-19_14h48.36.368,t1_Paradigm,2021.1.4,59.980796539546944,
N,left,Pretarget,0,37,37,37,2025.5730411043278,2027.5746563411276,left,1,4,0.8228622573533357,D24T05,2023-01-19_14h48.36.368,t1_Paradigm,2021.1.4,59.980796539546944,
Z,left,Pretarget,0,38,38,38,2029.0726862975953,2031.074426326275,left,1,4,1.450985021766428,D24T05,2023-01-19_14h48.36.368,t1_Paradigm,2021.1.4,59.980796539546944,
P,left,Pretarget,0,39,39,39,2032.5725085734266,2034.5718862180365,left,1,4,1.4576974775363851,D24T05,2023-01-19_14h48.36.368,t1_Paradigm,2021.1.4,59.980796539546944,
M,left,Distractor,0,40,40,40,2036.0725371247827,2038.0746576243346,left,1,4,0.9629618342160029,D24T05,2023-01-19_14h48.36.368,t1_Paradigm,2021.1.4,59.980796539546944,
N,right,Target,0,41,41,41,2039.5725964731055,2041.5746277897724,left,0,4,0.8548955950718664,D24T05,2023-01-19_14h48.36.368,t1_Paradigm,2021.1.4,59.980796539546944,
Z,right,Target,0,42,42,42,2043.072428693792,2045.074068632326,left,0,4,1.2273711259176707,D24T05,2023-01-19_14h48.36.368,t1_Paradigm,2021.1.4,59.980796539546944,
P,right,Target,0,43,43,43,2046.5726689743005,2048.574536361274,left,0,4,0.7188403658419702,D24T05,2023-01-19_14h48.36.368,t1_Paradigm,2021.1.4,59.980796539546944,
X,left,Pretarget,0,44,44,44,2050.0726288740825,2052.0732784976217,left,1,4,1.0761018738030543,D24T05,2023-01-19_14h48.36.368,t1_Paradigm,2021.1.4,59.980796539546944,
Z,left,Lure,0,45,45,45,2053.572743721108,2055.5745761406906,right,0,4,1.446859511290313,D24T05,2023-01-19_14h48.36.368,t1_Paradigm,2021.1.4,59.980796539546944,
R,left,Pretarget,0,46,46,46,2057.072376082305,2059.0744150982136,left,1,4,1.1472156012305277,D24T05,2023-01-19_14h48.36.368,t1_Paradigm,2021.1.4,59.980796539546944,
K,left,Distractor,0,47,47,47,2060.5726670494905,2062.5748802607477,left,1,4,0.9109162418708365,D24T05,2023-01-19_14h48.36.368,t1_Paradigm,2021.1.4,59.980796539546944,
X,right,Target,0,48,48,48,2064.072615079607,2066.0733955902597,left,0,4,1.1880004106269553,D24T05,2023-01-19_14h48.36.368,t1_Paradigm,2021.1.4,59.980796539546944,
B,left,Distractor,0,49,49,49,2067.5727065081055,2069.574582235924,left,1,4,0.7750602305277425,D24T05,2023-01-19_14h48.36.368,t1_Paradigm,2021.1.4,59.980796539546944,
R,right,Target,0,50,50,50,2071.072360683821,2073.073415159166,left,0,4,1.3721778268245544,D24T05,2023-01-19_14h48.36.368,t1_Paradigm,2021.1.4,59.980796539546944,
Y,left,Pretarget,0,51,51,51,2074.5723972552205,2076.5747727921625,left,1,4,0.7345609346884885,D24T05,2023-01-19_14h48.36.368,t1_Paradigm,2021.1.4,59.980796539546944,
W,left,Pretarget,0,52,52,52,2078.072568242552,2080.074973614056,left,1,4,0.6424324471727232,D24T05,2023-01-19_14h48.36.368,t1_Paradigm,2021.1.4,59.980796539546944,
Z,left,Distractor,0,53,53,53,2081.5728986683516,2083.5748327820893,None,0,4,,D24T05,2023-01-19_14h48.36.368,t1_Paradigm,2021.1.4,59.980796539546944,
Q,left,Distractor,0,54,54,54,2085.0726779567494,2087.0748218748295,left,1,4,0.8109630789276707,D24T05,2023-01-19_14h48.36.368,t1_Paradigm,2021.1.4,59.980796539546944,
Y,right,Target,0,55,55,55,2088.5725842826396,2090.5733939862503,left,0,4,0.7198877835489839,D24T05,2023-01-19_14h48.36.368,t1_Paradigm,2021.1.4,59.980796539546944,
W,right,Target,0,56,56,56,2092.072377365512,2094.074296401567,right,1,4,0.9952630413927182,D24T05,2023-01-19_14h48.36.368,t1_Paradigm,2021.1.4,59.980796539546944,
H,left,Pretarget,0,57,57,57,2095.5726391397384,2097.572855039314,left,1,4,1.2726234204519642,D24T05,2023-01-19_14h48.36.368,t1_Paradigm,2021.1.4,59.980796539546944,
M,left,Distractor,0,58,58,58,2099.072279841781,2101.0746415842477,left,1,4,1.0348656963487883,D24T05,2023-01-19_14h48.36.368,t1_Paradigm,2021.1.4,59.980796539546944,
R,left,Pretarget,0,59,59,59,2102.5725104982375,2104.573113605523,None,0,4,,D24T05,2023-01-19_14h48.36.368,t1_Paradigm,2021.1.4,59.980796539546944,
J,left,Distractor,0,60,60,60,2106.072563751328,2108.0717341580075,left,1,4,0.7576576981191465,D24T05,2023-01-19_14h48.36.368,t1_Paradigm,2021.1.4,59.980796539546944,
H,right,Target,0,61,61,61,2109.5725874906566,2111.574376602004,None,0,4,,D24T05,2023-01-19_14h48.36.368,t1_Paradigm,2021.1.4,59.980796539546944,
Z,left,Distractor,0,62,62,62,2113.07281943032,2115.0748485013746,None,0,4,,D24T05,2023-01-19_14h48.36.368,t1_Paradigm,2021.1.4,59.980796539546944,
R,right,Target,0,63,63,63,2116.572526859127,2118.5744019453423,right,1,4,0.6068038842668102,D24T05,2023-01-19_14h48.36.368,t1_Paradigm,2021.1.4,59.980796539546944,
J,left,Pretarget,0,0,0,0,2137.003263836981,2139.0078099185484,left,1,4,0.5576730966031391,D24T05,2023-01-19_14h48.36.368,t1_Paradigm,2021.1.4,59.980796539546944,
G,left,Pretarget,0,1,1,1,2140.505594461679,2142.5082968956012,left,1,4,0.43297681565763924,D24T05,2023-01-19_14h48.36.368,t1_Paradigm,2021.1.4,59.980796539546944,
Z,left,Distractor,0,2,2,2,2144.005658622028,2146.008050199058,left,1,4,0.5012338035212451,D24T05,2023-01-19_14h48.36.368,t1_Paradigm,2021.1.4,59.980796539546944,
F,left,Distractor,0,3,3,3,2147.505749088121,2149.5078137681694,left,1,4,0.47362432190493564,D24T05,2023-01-19_14h48.36.368,t1_Paradigm,2021.1.4,59.980796539546944,
J,right,Target,0,4,4,4,2151.005663754856,2153.007125327619,right,1,4,0.65418020717334,D24T05,2023-01-19_14h48.36.368,t1_Paradigm,2021.1.4,59.980796539546944,
G,right,Target,0,5,5,5,2154.505736256051,2156.5065783606387,right,1,4,0.7066720347493174,D24T05,2023-01-19_14h48.36.368,t1_Paradigm,2021.1.4,59.980796539546944,
H,left,Distractor,0,6,6,6,2158.0056201258185,2160.0072581395425,left,1,4,0.7743502962603088,D24T05,2023-01-19_14h48.36.368,t1_Paradigm,2021.1.4,59.980796539546944,
P,left,Distractor,0,7,7,7,2161.505772506649,2163.518686381003,left,1,4,0.7827229010736119,D24T05,2023-01-19_14h48.36.368,t1_Paradigm,2021.1.4,59.980796539546944,
G,left,Lure,0,8,8,8,2165.0057391432674,2167.0075369162614,left,1,4,1.0697634728712728,D24T05,2023-01-19_14h48.36.368,t1_Paradigm,2021.1.4,59.980796539546944,
S,left,Distractor,0,9,9,9,2168.505799133194,2170.5080957529062,left,1,4,0.6576817582499643,D24T05,2023-01-19_14h48.36.368,t1_Paradigm,2021.1.4,59.980796539546944,
R,left,Pretarget,0,10,10,10,2172.0055190732683,2174.0076947507214,left,1,4,0.6780202682548406,D24T05,2023-01-19_14h48.36.368,t1_Paradigm,2021.1.4,59.980796539546944,
T,left,Pretarget,0,11,11,11,2175.505839875016,2177.5080229309087,left,1,4,0.6014044700514205,D24T05,2023-01-19_14h48.36.368,t1_Paradigm,2021.1.4,59.980796539546944,
X,left,Distractor,0,12,12,12,2179.005633920294,2181.0063958244446,left,1,4,0.5429531084082555,D24T05,2023-01-19_14h48.36.368,t1_Paradigm,2021.1.4,59.980796539546944,
F,left,Pretarget,0,13,13,13,2182.505780847494,2184.5053243466073,None,0,4,,D24T05,2023-01-19_14h48.36.368,t1_Paradigm,2021.1.4,59.980796539546944,
R,right,Target,0,14,14,14,2186.005705779885,2188.0076004350076,None,0,4,,D24T05,2023-01-19_14h48.36.368,t1_Paradigm,2021.1.4,59.980796539546944,
T,right,Target,0,15,15,15,2189.5057417096814,2191.5080357629786,None,0,4,,D24T05,2023-01-19_14h48.36.368,t1_Paradigm,2021.1.4,59.980796539546944,
C,left,Distractor,0,16,16,16,2193.0057632033977,2195.008062710326,left,1,4,0.8133864153287504,D24T05,2023-01-19_14h48.36.368,t1_Paradigm,2021.1.4,59.980796539546944,
F,right,Target,0,17,17,17,2196.505514902845,2198.508082600034,left,0,4,1.2172212794221196,D24T05,2023-01-19_14h48.36.368,t1_Paradigm,2021.1.4,59.980796539546944,
M,left,Distractor,0,18,18,18,2200.0057372184565,2202.00801394846,left,1,4,0.6135243600811009,D24T05,2023-01-19_14h48.36.368,t1_Paradigm,2021.1.4,59.980796539546944,
N,left,Distractor,0,19,19,19,2203.505808115643,2205.508053407075,left,1,4,0.6810537695810126,D24T05,2023-01-19_14h48.36.368,t1_Paradigm,2021.1.4,59.980796539546944,
R,left,Lure,0,20,20,20,2207.005497579551,2209.0049595950204,left,1,4,0.6883885807410479,D24T05,2023-01-19_14h48.36.368,t1_Paradigm,2021.1.4,59.980796539546944,
F,right,Target,0,21,21,21,2210.5057243863866,2212.5075827909113,left,0,4,0.9618903563787171,D24T05,2023-01-19_14h48.36.368,t1_Paradigm,2021.1.4,59.980796539546944,
P,left,Distractor,0,22,22,22,2214.0056531683986,2216.0187835839333,None,0,4,,D24T05,2023-01-19_14h48.36.368,t1_Paradigm,2021.1.4,59.980796539546944,
L,left,Pretarget,0,23,23,23,2217.5057519753373,2219.507109608333,left,1,4,0.730276948149367,D24T05,2023-01-19_14h48.36.368,t1_Paradigm,2021.1.4,59.980796539546944,
T,left,Distractor,0,24,24,24,2221.005734972844,2223.0078035025135,left,1,4,0.9255399895419032,D24T05,2023-01-19_14h48.36.368,t1_Paradigm,2021.1.4,59.980796539546944,
F,left,Distractor,0,25,25,25,2224.505820306109,2226.5060095791405,right,0,4,0.9954385199489479,D24T05,2023-01-19_14h48.36.368,t1_Paradigm,2021.1.4,59.980796539546944,
V,left,Distractor,0,26,26,26,2228.005724065585,2230.0075879237393,left,1,4,0.6619096044832986,D24T05,2023-01-19_14h48.36.368,t1_Paradigm,2021.1.4,59.980796539546944,
L,right,Target,0,27,27,27,2231.505751012932,2233.507574770868,right,1,4,1.1139410815512747,D24T05,2023-01-19_14h48.36.368,t1_Paradigm,2021.1.4,59.980796539546944,
S,left,Pretarget,0,28,28,28,2235.0057766770715,2237.007217718522,left,1,4,0.846191922852995,D24T05,2023-01-19_14h48.36.368,t1_Paradigm,2021.1.4,59.980796539546944,
W,left,Distractor,0,29,29,29,2238.505612747378,2240.507226059368,left,1,4,0.6100597012055005,D24T05,2023-01-19_14h48.36.368,t1_Paradigm,2021.1.4,59.980796539546944,
Q,left,Distractor,0,30,30,30,2242.0047048784327,2244.0076164750944,left,1,4,0.5656475864479944,D24T05,2023-01-19_14h48.36.368,t1_Paradigm,2021.1.4,59.980796539546944,
L,right,Target,0,31,31,31,2245.505609539361,2247.5075706004445,None,0,4,,D24T05,2023-01-19_14h48.36.368,t1_Paradigm,2021.1.4,59.980796539546944,
S,right,Target,0,32,32,32,2249.0055598150902,2251.0063691978994,left,0,4,0.718865709180136,D24T05,2023-01-19_14h48.36.368,t1_Paradigm,2021.1.4,59.980796539546944,
Z,left,Pretarget,0,33,33,33,2252.5055482662274,2254.506835964443,left,1,4,0.8985050638557368,D24T05,2023-01-19_14h48.36.368,t1_Paradigm,2021.1.4,59.980796539546944,
F,left,Distractor,0,34,34,34,2256.0057638450016,2258.0080261389267,None,0,4,,D24T05,2023-01-19_14h48.36.368,t1_Paradigm,2021.1.4,59.980796539546944,
V,left,Distractor,0,35,35,35,2259.505657980425,2261.5059739701464,left,1,4,0.8271648503941833,D24T05,2023-01-19_14h48.36.368,t1_Paradigm,2021.1.4,59.980796539546944,
M,left,Distractor,0,36,36,36,2263.005694872626,2265.0074961744394,None,0,4,,D24T05,2023-01-19_14h48.36.368,t1_Paradigm,2021.1.4,59.980796539546944,
Z,right,Target,0,37,37,37,2266.5056364867078,2268.506503613832,right,1,4,1.058895992865473,D24T05,2023-01-19_14h48.36.368,t1_Paradigm,2021.1.4,59.980796539546944,
H,left,Pretarget,0,38,38,38,2270.0056409779318,2272.0063768971413,left,1,4,0.6791671345017676,D24T05,2023-01-19_14h48.36.368,t1_Paradigm,2021.1.4,59.980796539546944,
L,left,Distractor,0,39,39,39,2273.505619805017,2275.506331343293,left,1,4,0.9549526977825735,D24T05,2023-01-19_14h48.36.368,t1_Paradigm,2021.1.4,59.980796539546944,
G,left,Distractor,0,40,40,40,2277.0056785117367,2279.0077476830093,left,1,4,0.8136186757947144,D24T05,2023-01-19_14h48.36.368,t1_Paradigm,2021.1.4,59.980796539546944,
K,left,Distractor,0,41,41,41,2280.505649639579,2282.507466019075,right,0,4,0.6897166999769979,D24T05,2023-01-19_14h48.36.368,t1_Paradigm,2021.1.4,59.980796539546944,
H,right,Target,0,42,42,42,2284.0055774591865,2286.0073136382453,right,1,4,1.2538706334871677,D24T05,2023-01-19_14h48.36.368,t1_Paradigm,2021.1.4,59.980796539546944,
B,left,Distractor,0,43,43,43,2287.505479935455,2289.5071047963074,left,1,4,0.6021795270735311,D24T05,2023-01-19_14h48.36.368,t1_Paradigm,2021.1.4,59.980796539546944,
Z,left,Distractor,0,44,44,44,2291.00542764477,2293.007586961334,None,0,4,,D24T05,2023-01-19_14h48.36.368,t1_Paradigm,2021.1.4,59.980796539546944,
T,left,Pretarget,0,45,45,45,2294.5057048174804,2296.5076941091174,left,1,4,0.8654868647718104,D24T05,2023-01-19_14h48.36.368,t1_Paradigm,2021.1.4,59.980796539546944,
H,right,Target,0,46,46,46,2298.0054253991575,2300.0078933270033,right,1,4,1.1416233851641664,D24T05,2023-01-19_14h48.36.368,t1_Paradigm,2021.1.4,59.980796539546944,
F,left,Distractor,0,47,47,47,2301.505661830046,2303.5075529563483,left,1,4,0.6654737119006313,D24T05,2023-01-19_14h48.36.368,t1_Paradigm,2021.1.4,59.980796539546944,
R,left,Distractor,0,48,48,48,2305.0053968478023,2307.005197950719,left,1,4,0.7199987809535742,D24T05,2023-01-19_14h48.36.368,t1_Paradigm,2021.1.4,59.980796539546944,
T,right,Target,0,49,49,49,2308.5056762661243,2310.506046792143,left,0,4,0.9313243658552892,D24T05,2023-01-19_14h48.36.368,t1_Paradigm,2021.1.4,59.980796539546944,
H,right,Target,0,50,50,50,2312.0052701311115,2314.0075789412904,right,1,4,0.901697041245825,D24T05,2023-01-19_14h48.36.368,t1_Paradigm,2021.1.4,59.980796539546944,
Y,left,Pretarget,0,51,51,51,2315.5052823215783,2317.5065020098227,left,1,4,0.7787609994902596,D24T05,2023-01-19_14h48.36.368,t1_Paradigm,2021.1.4,59.980796539546944,
H,left,Distractor,0,52,52,52,2319.0053586723943,2321.0061077444752,right,0,4,1.2950657483179384,D24T05,2023-01-19_14h48.36.368,t1_Paradigm,2021.1.4,59.980796539546944,
S,left,Distractor,0,53,53,53,2322.505646431562,2324.507541086684,left,1,4,1.1696691571569318,D24T05,2023-01-19_14h48.36.368,t1_Paradigm,2021.1.4,59.980796539546944,
Q,left,Distractor,0,54,54,54,2326.0056692084863,2328.007873116493,left,1,4,0.9492931133490856,D24T05,2023-01-19_14h48.36.368,t1_Paradigm,2021.1.4,59.980796539546944,
Y,right,Target,0,55,55,55,2329.5057779602785,2331.5079148207196,left,0,4,0.7133190469621695,D24T05,2023-01-19_14h48.36.368,t1_Paradigm,2021.1.4,59.980796539546944,
R,left,Distractor,0,56,56,56,2333.0056717749003,2335.0075840741183,left,1,4,1.117583143792217,D24T05,2023-01-19_14h48.36.368,t1_Paradigm,2021.1.4,59.980796539546944,
H,left,Pretarget,0,57,57,57,2336.5055588526848,2338.5061038948543,None,0,4,,D24T05,2023-01-19_14h48.36.368,t1_Paradigm,2021.1.4,59.980796539546944,
J,left,Distractor,0,58,58,58,2340.0053419907035,2342.0075381994684,left,1,4,0.5818724556411325,D24T05,2023-01-19_14h48.36.368,t1_Paradigm,2021.1.4,59.980796539546944,
V,left,Distractor,0,59,59,59,2343.5056271834574,2345.507355342472,left,1,4,0.6498173034042338,D24T05,2023-01-19_14h48.36.368,t1_Paradigm,2021.1.4,59.980796539546944,
Y,left,Lure,0,60,60,60,2347.0053503315485,2349.0051206374974,None,0,4,,D24T05,2023-01-19_14h48.36.368,t1_Paradigm,2021.1.4,59.980796539546944,
H,right,Target,0,61,61,61,2350.5053272338228,2352.50753852027,right,1,4,0.7374786265836519,D24T05,2023-01-19_14h48.36.368,t1_Paradigm,2021.1.4,59.980796539546944,
L,left,Distractor,0,62,62,62,2354.0057429928884,2356.007153558173,left,1,4,1.0462108501569674,D24T05,2023-01-19_14h48.36.368,t1_Paradigm,2021.1.4,59.980796539546944,
P,left,Distractor,0,63,63,63,2357.5056259002504,2359.5072376082308,left,1,4,0.7461235920818581,D24T05,2023-01-19_14h48.36.368,t1_Paradigm,2021.1.4,59.980796539546944,
