Letter,CorrAnswer,Stimulus,nback_run.thisRepN,nback_run.thisTrialN,nback_run.thisN,nback_run.thisIndex,fixcross.started,nback_trial.started,trial_resp.keys,trial_resp.corr,currentlevel,trial_resp.rt,Participant,date,expName,psychopyVersion,frameRate,
H,left,Distractor,0,0,0,0,52.97345424588343,54.9193098642877,None,0,1,,D27A02,2022-09-19_09h14.32.986,t1_Paradigm,2021.1.4,59.970526332014295,
Q,left,Pretarget,0,1,1,1,56.419884421323786,58.42454118845717,left,1,1,0.8305865165482373,D27A02,2022-09-19_09h14.32.986,t1_Paradigm,2021.1.4,59.970526332014295,
Q,right,Target,0,2,2,2,59.92020779010795,61.91990046144201,left,0,1,0.8392937343448921,D27A02,2022-09-19_09h14.32.986,t1_Paradigm,2021.1.4,59.970526332014295,
T,left,Distractor,0,3,3,3,63.41985779472748,65.42179127058262,left,1,1,1.2093857789593585,D27A02,2022-09-19_09h14.32.986,t1_Paradigm,2021.1.4,59.970526332014295,
Q,left,Lure,0,4,4,4,66.91986677719365,68.92129402691648,left,1,1,1.0538524514433902,D27A02,2022-09-19_09h14.32.986,t1_Paradigm,2021.1.4,59.970526332014295,
L,left,Distractor,0,5,5,5,70.41995820586772,72.42175758633425,left,1,1,0.8332488553771782,D27A02,2022-09-19_09h14.32.986,t1_Paradigm,2021.1.4,59.970526332014295,
V,left,Pretarget,0,6,6,6,73.91969065669514,75.92140053330172,left,1,1,0.9017568420729276,D27A02,2022-09-19_09h14.32.986,t1_Paradigm,2021.1.4,59.970526332014295,
V,right,Target,0,7,7,7,77.41981833603654,79.42000055178005,right,1,1,0.9711085389890286,D27A02,2022-09-19_09h14.32.986,t1_Paradigm,2021.1.4,59.970526332014295,
K,left,Distractor,0,8,8,8,80.91990527347753,82.92168476419738,left,1,1,0.9416040246583179,D27A02,2022-09-19_09h14.32.986,t1_Paradigm,2021.1.4,59.970526332014295,
G,left,Pretarget,0,9,9,9,84.4197211329199,86.41932750841784,left,1,1,0.7558604176076642,D27A02,2022-09-19_09h14.32.986,t1_Paradigm,2021.1.4,59.970526332014295,
G,right,Target,0,10,10,10,87.91995980987963,89.91989019576636,right,1,1,0.7913594449348693,D27A02,2022-09-19_09h14.32.986,t1_Paradigm,2021.1.4,59.970526332014295,
G,right,Target,0,11,11,11,91.4198863461379,93.41984592503991,right,1,1,0.7635134788322375,D27A02,2022-09-19_09h14.32.986,t1_Paradigm,2021.1.4,59.970526332014295,
P,left,Pretarget,0,12,12,12,94.91989917823253,96.92160777162962,left,1,1,0.9416906412968729,D27A02,2022-09-19_09h14.32.986,t1_Paradigm,2021.1.4,59.970526332014295,
P,right,Target,0,13,13,13,98.41999445653505,100.41985939873939,right,1,1,0.7553019006900286,D27A02,2022-09-19_09h14.32.986,t1_Paradigm,2021.1.4,59.970526332014295,
G,left,Lure,0,14,14,14,101.91985683232042,103.92186216790537,left,1,1,1.2533151716420434,D27A02,2022-09-19_09h14.32.986,t1_Paradigm,2021.1.4,59.970526332014295,
Y,left,Distractor,0,15,15,15,105.41981641122243,107.42226028364053,left,1,1,0.9849585395022586,D27A02,2022-09-19_09h14.32.986,t1_Paradigm,2021.1.4,59.970526332014295,
B,left,Distractor,0,16,16,16,108.91988538373084,110.91965472683023,left,1,1,0.8637462530282392,D27A02,2022-09-19_09h14.32.986,t1_Paradigm,2021.1.4,59.970526332014295,
T,left,Pretarget,0,17,17,17,112.41986549398416,114.42141176138466,left,1,1,0.8497743476161759,D27A02,2022-09-19_09h14.32.986,t1_Paradigm,2021.1.4,59.970526332014295,
T,right,Target,0,18,18,18,115.91988025089313,117.91993992013295,right,1,1,0.8398192086190193,D27A02,2022-09-19_09h14.32.986,t1_Paradigm,2021.1.4,59.970526332014295,
S,left,Distractor,0,19,19,19,119.41992580482884,121.42170850357229,left,1,1,1.0814629486098966,D27A02,2022-09-19_09h14.32.986,t1_Paradigm,2021.1.4,59.970526332014295,
T,left,Lure,0,20,20,20,122.93658699646858,124.9216494759371,left,1,1,1.2617808252578016,D27A02,2022-09-19_09h14.32.986,t1_Paradigm,2021.1.4,59.970526332014295,
J,left,Distractor,0,21,21,21,126.41994794019206,128.42225418839553,left,1,1,1.0089616140721773,D27A02,2022-09-19_09h14.32.986,t1_Paradigm,2021.1.4,59.970526332014295,
P,left,Distractor,0,22,22,22,129.9199950981399,131.92150030283733,left,1,1,0.9496914522851512,D27A02,2022-09-19_09h14.32.986,t1_Paradigm,2021.1.4,59.970526332014295,
F,left,Distractor,0,23,23,23,133.41989757422084,135.42187082956912,left,1,1,0.7615719829179852,D27A02,2022-09-19_09h14.32.986,t1_Paradigm,2021.1.4,59.970526332014295,
L,left,Distractor,0,24,24,24,136.91995852667014,138.92119714460227,left,1,1,0.749983318276918,D27A02,2022-09-19_09h14.32.986,t1_Paradigm,2021.1.4,59.970526332014295,
W,left,Pretarget,0,25,25,25,140.41987960928827,142.4217752304644,left,1,1,0.6735794229662133,D27A02,2022-09-19_09h14.32.986,t1_Paradigm,2021.1.4,59.970526332014295,
W,right,Target,0,26,26,26,143.91990848150112,145.9199421657495,right,1,1,0.5996482722866858,D27A02,2022-09-19_09h14.32.986,t1_Paradigm,2021.1.4,59.970526332014295,
V,left,Distractor,0,27,27,27,147.41990623588458,149.42213549152052,left,1,1,0.7930609806799112,D27A02,2022-09-19_09h14.32.986,t1_Paradigm,2021.1.4,59.970526332014295,
W,left,Lure,0,28,28,28,150.9199671883341,152.9216635912412,left,1,1,0.9896849207491414,D27A02,2022-09-19_09h14.32.986,t1_Paradigm,2021.1.4,59.970526332014295,
R,left,Pretarget,0,29,29,29,154.41995852667014,156.42259520130983,left,1,1,0.6887706981685824,D27A02,2022-09-19_09h14.32.986,t1_Paradigm,2021.1.4,59.970526332014295,
R,right,Target,0,30,30,30,157.91991778476972,159.92011732384094,right,1,1,0.8710871735515866,D27A02,2022-09-19_09h14.32.986,t1_Paradigm,2021.1.4,59.970526332014295,
G,left,Distractor,0,31,31,31,161.4199222760028,163.4215185885721,left,1,1,0.953739978134081,D27A02,2022-09-19_09h14.32.986,t1_Paradigm,2021.1.4,59.970526332014295,
R,left,Lure,0,32,32,32,164.92004835133253,166.92150864369887,left,1,1,1.085819765532051,D27A02,2022-09-19_09h14.32.986,t1_Paradigm,2021.1.4,59.970526332014295,
S,left,Distractor,0,33,33,33,168.4199264464337,170.42148843314976,left,1,1,0.8657798192216433,D27A02,2022-09-19_09h14.32.986,t1_Paradigm,2021.1.4,59.970526332014295,
R,left,Lure,0,34,34,34,171.91997071716014,173.9214733554386,left,1,1,0.7097964059869355,D27A02,2022-09-19_09h14.32.986,t1_Paradigm,2021.1.4,59.970526332014295,
P,left,Pretarget,0,35,35,35,175.41988410052136,177.42183137087818,left,1,1,0.8735599181827638,D27A02,2022-09-19_09h14.32.986,t1_Paradigm,2021.1.4,59.970526332014295,
P,right,Target,0,36,36,36,178.91998451166182,180.9199328624809,right,1,1,0.671342147271389,D27A02,2022-09-19_09h14.32.986,t1_Paradigm,2021.1.4,59.970526332014295,
Y,left,Pretarget,0,37,37,37,182.41992805044538,184.43280024534965,left,1,1,0.8544580621482964,D27A02,2022-09-19_09h14.32.986,t1_Paradigm,2021.1.4,59.970526332014295,
Y,right,Target,0,38,38,38,185.92003231121407,187.919993494128,right,1,1,1.1112529770459787,D27A02,2022-09-19_09h14.32.986,t1_Paradigm,2021.1.4,59.970526332014295,
J,left,Distractor,0,39,39,39,189.42002589516687,191.4217206940623,left,1,1,0.6335147363774922,D27A02,2022-09-19_09h14.32.986,t1_Paradigm,2021.1.4,59.970526332014295,
Y,left,Lure,0,40,40,40,192.9199543562395,194.9219077218413,left,1,1,0.8933559905349284,D27A02,2022-09-19_09h14.32.986,t1_Paradigm,2021.1.4,59.970526332014295,
T,left,Distractor,0,41,41,41,196.42008139397603,198.4218891153041,left,1,1,0.977447593725401,D27A02,2022-09-19_09h14.32.986,t1_Paradigm,2021.1.4,59.970526332014295,
V,left,Distractor,0,42,42,42,199.92011764464337,201.9217444334372,left,1,1,0.6138864436620679,D27A02,2022-09-19_09h14.32.986,t1_Paradigm,2021.1.4,59.970526332014295,
N,left,Pretarget,0,43,43,43,203.41996205549617,205.42181148113173,left,1,1,0.7296441275202596,D27A02,2022-09-19_09h14.32.986,t1_Paradigm,2021.1.4,59.970526332014295,
N,right,Target,0,44,44,44,206.9201368927852,208.9200512385537,right,1,1,0.49517769884619156,D27A02,2022-09-19_09h14.32.986,t1_Paradigm,2021.1.4,59.970526332014295,
N,right,Target,0,45,45,45,210.4197554587729,212.4201089829794,right,1,1,0.7869776054285467,D27A02,2022-09-19_09h14.32.986,t1_Paradigm,2021.1.4,59.970526332014295,
X,left,Distractor,0,46,46,46,213.9199777748122,215.92185543105575,left,1,1,0.8534885974006556,D27A02,2022-09-19_09h14.32.986,t1_Paradigm,2021.1.4,59.970526332014295,
Z,left,Distractor,0,47,47,47,217.42001562949122,219.42197220311664,left,1,1,0.697759259639497,D27A02,2022-09-19_09h14.32.986,t1_Paradigm,2021.1.4,59.970526332014295,
H,left,Pretarget,0,48,48,48,220.9201263063071,222.91918475136526,left,1,1,0.9121274201331744,D27A02,2022-09-19_09h14.32.986,t1_Paradigm,2021.1.4,59.970526332014295,
H,right,Target,0,49,49,49,224.41995082741346,226.4199675091363,right,1,1,1.1074469777850027,D27A02,2022-09-19_09h14.32.986,t1_Paradigm,2021.1.4,59.970526332014295,
K,left,Distractor,0,50,50,50,227.92002878238804,229.92143550075957,left,1,1,0.8379008104750483,D27A02,2022-09-19_09h14.32.986,t1_Paradigm,2021.1.4,59.970526332014295,
V,left,Pretarget,0,51,51,51,231.42007978996412,233.42197444873318,left,1,1,0.6812757925101778,D27A02,2022-09-19_09h14.32.986,t1_Paradigm,2021.1.4,59.970526332014295,
V,right,Target,0,52,52,52,234.92003904806393,236.9199809828358,right,1,1,0.8474748362625633,D27A02,2022-09-19_09h14.32.986,t1_Paradigm,2021.1.4,59.970526332014295,
R,left,Distractor,0,53,53,53,238.42001979992187,240.4217864585471,left,1,1,0.9779695391737278,D27A02,2022-09-19_09h14.32.986,t1_Paradigm,2021.1.4,59.970526332014295,
V,left,Lure,0,54,54,54,241.91999253172094,243.91905193918615,left,1,1,0.8084177899027054,D27A02,2022-09-19_09h14.32.986,t1_Paradigm,2021.1.4,59.970526332014295,
Y,left,Distractor,0,55,55,55,245.42015389531048,247.421834578902,None,0,1,,D27A02,2022-09-19_09h14.32.986,t1_Paradigm,2021.1.4,59.970526332014295,
Q,left,Distractor,0,56,56,56,248.9199777748122,250.92183682451855,left,1,1,1.309502422699552,D27A02,2022-09-19_09h14.32.986,t1_Paradigm,2021.1.4,59.970526332014295,
Z,left,Pretarget,0,57,57,57,252.420130476738,254.4221691757689,left,1,1,0.5934407465199456,D27A02,2022-09-19_09h14.32.986,t1_Paradigm,2021.1.4,59.970526332014295,
Z,right,Target,0,58,58,58,255.91985683232042,257.9199578850655,right,1,1,0.7595185269781268,D27A02,2022-09-19_09h14.32.986,t1_Paradigm,2021.1.4,59.970526332014295,
B,left,Distractor,0,59,59,59,259.420176993081,261.4218130851434,left,1,1,1.0175286412352307,D27A02,2022-09-19_09h14.32.986,t1_Paradigm,2021.1.4,59.970526332014295,
S,left,Pretarget,0,60,60,60,262.9200794691619,264.9214278015029,left,1,1,0.6859684895084683,D27A02,2022-09-19_09h14.32.986,t1_Paradigm,2021.1.4,59.970526332014295,
S,right,Target,0,61,61,61,266.42005957941524,268.420071769905,right,1,1,0.835166932718721,D27A02,2022-09-19_09h14.32.986,t1_Paradigm,2021.1.4,59.970526332014295,
T,left,Distractor,0,62,62,62,269.91998707808057,271.9213360520264,left,1,1,1.062218335523312,D27A02,2022-09-19_09h14.32.986,t1_Paradigm,2021.1.4,59.970526332014295,
D,left,Distractor,0,63,63,63,273.4201725018477,275.42242998809184,left,1,1,0.8569802103436359,D27A02,2022-09-19_09h14.32.986,t1_Paradigm,2021.1.4,59.970526332014295,
R,left,Distractor,0,0,0,0,316.9845321931591,318.9883654606208,left,1,1,1.1792008428119516,D27A02,2022-09-19_09h14.32.986,t1_Paradigm,2021.1.4,59.970526332014295,
V,left,Distractor,0,1,1,1,320.4867845465649,322.48861247844184,left,1,1,1.1028123460146162,D27A02,2022-09-19_09h14.32.986,t1_Paradigm,2021.1.4,59.970526332014295,
N,left,Pretarget,0,2,2,2,323.9867903210077,325.9886747141011,left,1,1,0.7387395161790664,D27A02,2022-09-19_09h14.32.986,t1_Paradigm,2021.1.4,59.970526332014295,
N,right,Target,0,3,3,3,327.48685512308543,329.486835233339,right,1,1,0.5365695448199403,D27A02,2022-09-19_09h14.32.986,t1_Paradigm,2021.1.4,59.970526332014295,
S,left,Distractor,0,4,4,4,330.9866440351291,332.9886766389152,left,1,1,0.5867690197310367,D27A02,2022-09-19_09h14.32.986,t1_Paradigm,2021.1.4,59.970526332014295,
N,left,Lure,0,5,5,5,334.48690099782357,336.48852714501277,left,1,1,0.7347968551102895,D27A02,2022-09-19_09h14.32.986,t1_Paradigm,2021.1.4,59.970526332014295,
Z,left,Distractor,0,6,6,6,337.98687693764646,339.98874432821435,left,1,1,0.6589566095553892,D27A02,2022-09-19_09h14.32.986,t1_Paradigm,2021.1.4,59.970526332014295,
L,left,Pretarget,0,7,7,7,341.4866988923334,343.4888591754609,left,1,1,0.7107142215540989,D27A02,2022-09-19_09h14.32.986,t1_Paradigm,2021.1.4,59.970526332014295,
L,right,Target,0,8,8,8,344.98579358805887,346.9869359652814,right,1,1,0.7646571392642727,D27A02,2022-09-19_09h14.32.986,t1_Paradigm,2021.1.4,59.970526332014295,
H,left,Distractor,0,9,9,9,348.4865821202727,350.4887324585268,left,1,1,0.9427351737977006,D27A02,2022-09-19_09h14.32.986,t1_Paradigm,2021.1.4,59.970526332014295,
L,left,Lure,0,10,10,10,351.98695296780693,353.9877257807045,left,1,1,0.6437098355440867,D27A02,2022-09-19_09h14.32.986,t1_Paradigm,2021.1.4,59.970526332014295,
X,left,Pretarget,0,11,11,11,355.4865997644026,357.4890025741181,left,1,1,0.7425519314870144,D27A02,2022-09-19_09h14.32.986,t1_Paradigm,2021.1.4,59.970526332014295,
X,right,Target,0,12,12,12,358.9868900905433,360.98691126349945,right,1,1,0.7005412577505012,D27A02,2022-09-19_09h14.32.986,t1_Paradigm,2021.1.4,59.970526332014295,
X,right,Target,0,13,13,13,362.4869202459656,364.48676850644665,right,1,1,0.592805237034554,D27A02,2022-09-19_09h14.32.986,t1_Paradigm,2021.1.4,59.970526332014295,
R,left,Distractor,0,14,14,14,365.98680892754487,367.98886334589156,left,1,1,0.6265943877551763,D27A02,2022-09-19_09h14.32.986,t1_Paradigm,2021.1.4,59.970526332014295,
T,left,Distractor,0,15,15,15,369.4868063611259,371.48835070371183,left,1,1,0.5830284641519938,D27A02,2022-09-19_09h14.32.986,t1_Paradigm,2021.1.4,59.970526332014295,
V,left,Pretarget,0,16,16,16,372.9865073733215,374.98892397753866,left,1,1,0.8425793921692275,D27A02,2022-09-19_09h14.32.986,t1_Paradigm,2021.1.4,59.970526332014295,
V,right,Target,0,17,17,17,376.48679641625245,378.48696804551787,right,1,1,0.5125664702500217,D27A02,2022-09-19_09h14.32.986,t1_Paradigm,2021.1.4,59.970526332014295,
N,left,Distractor,0,18,18,18,379.9865461904076,381.99980912259275,left,1,1,0.5838609462898603,D27A02,2022-09-19_09h14.32.986,t1_Paradigm,2021.1.4,59.970526332014295,
B,left,Distractor,0,19,19,19,383.4869080554756,385.4888123383155,left,1,1,0.7110398359545798,D27A02,2022-09-19_09h14.32.986,t1_Paradigm,2021.1.4,59.970526332014295,
V,left,Lure,0,20,20,20,386.9868224012441,388.9881492398265,left,1,1,0.6673555362790466,D27A02,2022-09-19_09h14.32.986,t1_Paradigm,2021.1.4,59.970526332014295,
P,left,Distractor,0,21,21,21,390.4869465517593,392.4889807595571,left,1,1,0.6546418177431406,D27A02,2022-09-19_09h14.32.986,t1_Paradigm,2021.1.4,59.970526332014295,
K,left,Pretarget,0,22,22,22,393.98691767954665,395.9995550471192,left,1,1,0.6319979827949282,D27A02,2022-09-19_09h14.32.986,t1_Paradigm,2021.1.4,59.970526332014295,
K,right,Target,0,23,23,23,397.4869571382376,399.4868862409146,right,1,1,0.6330441193076695,D27A02,2022-09-19_09h14.32.986,t1_Paradigm,2021.1.4,59.970526332014295,
J,left,Pretarget,0,24,24,24,400.9868612183302,402.9887016614996,left,1,1,0.5708838490122616,D27A02,2022-09-19_09h14.32.986,t1_Paradigm,2021.1.4,59.970526332014295,
J,right,Target,0,25,25,25,404.4867672232374,406.5035339588551,right,1,1,0.592074449246411,D27A02,2022-09-19_09h14.32.986,t1_Paradigm,2021.1.4,59.970526332014295,
H,left,Distractor,0,26,26,26,407.98684036617647,409.9888517970064,left,1,1,0.5469590502198116,D27A02,2022-09-19_09h14.32.986,t1_Paradigm,2021.1.4,59.970526332014295,
J,left,Lure,0,27,27,27,411.4868390829672,413.4876324272161,right,0,1,0.9199302960619207,D27A02,2022-09-19_09h14.32.986,t1_Paradigm,2021.1.4,59.970526332014295,
V,left,Distractor,0,28,28,28,414.9868910529501,416.9889512457396,left,1,1,0.762677147065915,D27A02,2022-09-19_09h14.32.986,t1_Paradigm,2021.1.4,59.970526332014295,
Z,left,Pretarget,0,29,29,29,418.48678839619356,420.489056789718,left,1,1,0.6385757144907984,D27A02,2022-09-19_09h14.32.986,t1_Paradigm,2021.1.4,59.970526332014295,
Z,right,Target,0,30,30,30,421.9868798248674,423.9869571382376,right,1,1,0.8525736690548911,D27A02,2022-09-19_09h14.32.986,t1_Paradigm,2021.1.4,59.970526332014295,
T,left,Distractor,0,31,31,31,425.4868567270971,427.48927718094296,left,1,1,0.6466907311214527,D27A02,2022-09-19_09h14.32.986,t1_Paradigm,2021.1.4,59.970526332014295,
Z,left,Lure,0,32,32,32,428.9869850480434,430.98880656387314,left,1,1,0.7788632304027487,D27A02,2022-09-19_09h14.32.986,t1_Paradigm,2021.1.4,59.970526332014295,
F,left,Distractor,0,33,33,33,432.4860553627889,434.4892515167537,left,1,1,0.6703656248719199,D27A02,2022-09-19_09h14.32.986,t1_Paradigm,2021.1.4,59.970526332014295,
Y,left,Pretarget,0,34,34,34,435.98700044655675,437.9888764987884,left,1,1,0.8187261323041639,D27A02,2022-09-19_09h14.32.986,t1_Paradigm,2021.1.4,59.970526332014295,
Y,right,Target,0,35,35,35,439.4867720352729,441.48688207048394,right,1,1,1.3046775551265455,D27A02,2022-09-19_09h14.32.986,t1_Paradigm,2021.1.4,59.970526332014295,
Y,right,Target,0,36,36,36,442.98680219069524,444.9869898600789,right,1,1,0.892700270500427,D27A02,2022-09-19_09h14.32.986,t1_Paradigm,2021.1.4,59.970526332014295,
W,left,Distractor,0,37,37,37,446.486898752207,448.48914661438016,left,1,1,1.1024254583621769,D27A02,2022-09-19_09h14.32.986,t1_Paradigm,2021.1.4,59.970526332014295,
Q,left,Distractor,0,38,38,38,449.9870010881616,451.9892114164579,left,1,1,0.5307527563336407,D27A02,2022-09-19_09h14.32.986,t1_Paradigm,2021.1.4,59.970526332014295,
P,left,Pretarget,0,39,39,39,453.4869824816244,455.48763114400685,left,1,1,0.7760674377900614,D27A02,2022-09-19_09h14.32.986,t1_Paradigm,2021.1.4,59.970526332014295,
P,right,Target,0,40,40,40,456.98691030109217,458.98691286751114,right,1,1,0.460899645320751,D27A02,2022-09-19_09h14.32.986,t1_Paradigm,2021.1.4,59.970526332014295,
J,left,Distractor,0,41,41,41,460.48684293259544,462.4892826345829,left,1,1,0.5423667643617591,D27A02,2022-09-19_09h14.32.986,t1_Paradigm,2021.1.4,59.970526332014295,
P,left,Lure,0,42,42,42,463.9869218499773,465.98889414291875,left,1,1,0.7708040333836834,D27A02,2022-09-19_09h14.32.986,t1_Paradigm,2021.1.4,59.970526332014295,
L,left,Distractor,0,43,43,43,467.48701744908226,469.4886990950806,left,1,1,0.6472617593312862,D27A02,2022-09-19_09h14.32.986,t1_Paradigm,2021.1.4,59.970526332014295,
Z,left,Distractor,0,44,44,44,470.9868419701886,472.9891023436537,left,1,1,1.0025022584486578,D27A02,2022-09-19_09h14.32.986,t1_Paradigm,2021.1.4,59.970526332014295,
F,left,Pretarget,0,45,45,45,474.486923133187,476.48906352656763,left,1,1,0.8309214342175437,D27A02,2022-09-19_09h14.32.986,t1_Paradigm,2021.1.4,59.970526332014295,
F,right,Target,0,46,46,46,477.98704343407394,479.9870257899436,right,1,1,0.8845345670961251,D27A02,2022-09-19_09h14.32.986,t1_Paradigm,2021.1.4,59.970526332014295,
G,left,Pretarget,0,47,47,47,481.4867707520632,483.4891385943208,left,1,1,0.9824556394491992,D27A02,2022-09-19_09h14.32.986,t1_Paradigm,2021.1.4,59.970526332014295,
G,right,Target,0,48,48,48,484.9859549516484,486.98606530766233,right,1,1,0.6695501452595636,D27A02,2022-09-19_09h14.32.986,t1_Paradigm,2021.1.4,59.970526332014295,
V,left,Distractor,0,49,49,49,488.4869776695889,490.4887873157311,left,1,1,0.6229442984435991,D27A02,2022-09-19_09h14.32.986,t1_Paradigm,2021.1.4,59.970526332014295,
G,left,Lure,0,50,50,50,491.9869263412104,493.9888434561451,left,1,1,0.7548152435015254,D27A02,2022-09-19_09h14.32.986,t1_Paradigm,2021.1.4,59.970526332014295,
Q,left,Pretarget,0,51,51,51,495.48694751416656,497.4893891409681,left,1,1,0.7103555645094275,D27A02,2022-09-19_09h14.32.986,t1_Paradigm,2021.1.4,59.970526332014295,
Q,right,Target,0,52,52,52,498.987060436599,500.9868807872747,right,1,1,0.6047278569371883,D27A02,2022-09-19_09h14.32.986,t1_Paradigm,2021.1.4,59.970526332014295,
Y,left,Distractor,0,53,53,53,502.48695040138796,504.4882865432389,left,1,1,0.7992290477559436,D27A02,2022-09-19_09h14.32.986,t1_Paradigm,2021.1.4,59.970526332014295,
V,left,Distractor,0,54,54,54,505.98686795517983,507.98919409313,left,1,1,0.6586585841582746,D27A02,2022-09-19_09h14.32.986,t1_Paradigm,2021.1.4,59.970526332014295,
B,left,Distractor,0,55,55,55,509.4869590630517,511.48890216297764,left,1,1,0.5506829240753177,D27A02,2022-09-19_09h14.32.986,t1_Paradigm,2021.1.4,59.970526332014295,
J,left,Pretarget,0,56,56,56,512.987023544327,514.9886772805196,left,1,1,0.5869467442407768,D27A02,2022-09-19_09h14.32.986,t1_Paradigm,2021.1.4,59.970526332014295,
J,right,Target,0,57,57,57,516.4870283563625,518.4870450380856,right,1,1,0.7045920292157462,D27A02,2022-09-19_09h14.32.986,t1_Paradigm,2021.1.4,59.970526332014295,
H,left,Distractor,0,58,58,58,519.9869263412104,521.9892656320578,left,1,1,0.5466180373055067,D27A02,2022-09-19_09h14.32.986,t1_Paradigm,2021.1.4,59.970526332014295,
J,left,Lure,0,59,59,59,523.4870909128238,525.4889422632734,left,1,1,0.7269144201945892,D27A02,2022-09-19_09h14.32.986,t1_Paradigm,2021.1.4,59.970526332014295,
D,left,Pretarget,0,60,60,60,526.9869346820722,528.9889037669898,left,1,1,0.666746332587536,D27A02,2022-09-19_09h14.32.986,t1_Paradigm,2021.1.4,59.970526332014295,
D,right,Target,0,61,61,61,530.4861583403483,532.4869064514639,right,1,1,0.6568575996793697,D27A02,2022-09-19_09h14.32.986,t1_Paradigm,2021.1.4,59.970526332014295,
R,left,Distractor,0,62,62,62,533.9869430229335,535.9886086288136,left,1,1,0.5792275977291865,D27A02,2022-09-19_09h14.32.986,t1_Paradigm,2021.1.4,59.970526332014295,
F,left,Distractor,0,63,63,63,537.4869321156532,539.4887533106805,left,1,1,0.8229735556196829,D27A02,2022-09-19_09h14.32.986,t1_Paradigm,2021.1.4,59.970526332014295,
F,left,Distractor,0,0,0,0,703.7474018216442,705.7370463212949,left,1,2,0.510879370611292,D27A02,2022-09-19_09h14.32.986,t1_Paradigm,2021.1.4,59.970526332014295,
N,left,Pretarget,0,1,1,1,707.2372234042007,709.2370941208476,left,1,2,0.6269386086928534,D27A02,2022-09-19_09h14.32.986,t1_Paradigm,2021.1.4,59.970526332014295,
V,left,Distractor,0,2,2,2,710.7371220306534,712.7390539024966,left,1,2,0.724813164702482,D27A02,2022-09-19_09h14.32.986,t1_Paradigm,2021.1.4,59.970526332014295,
N,right,Target,0,3,3,3,714.2372173089559,716.2390038573274,right,1,2,1.0167638483967494,D27A02,2022-09-19_09h14.32.986,t1_Paradigm,2021.1.4,59.970526332014295,
N,left,Lure,0,4,4,4,717.7372397651213,719.737197419209,left,1,2,0.7667099535992747,D27A02,2022-09-19_09h14.32.986,t1_Paradigm,2021.1.4,59.970526332014295,
X,left,Distractor,0,5,5,5,721.2368525566665,723.2393127900052,left,1,2,0.7525385091162207,D27A02,2022-09-19_09h14.32.986,t1_Paradigm,2021.1.4,59.970526332014295,
G,left,Pretarget,0,6,6,6,724.7372580508561,726.736289869318,left,1,2,0.9195745262391029,D27A02,2022-09-19_09h14.32.986,t1_Paradigm,2021.1.4,59.970526332014295,
H,left,Pretarget,0,7,7,7,728.237114010594,730.2398366602677,left,1,2,0.8721551246253512,D27A02,2022-09-19_09h14.32.986,t1_Paradigm,2021.1.4,59.970526332014295,
G,right,Target,0,8,8,8,731.7372375195048,733.7396749758757,right,1,2,0.6521857548355001,D27A02,2022-09-19_09h14.32.986,t1_Paradigm,2021.1.4,59.970526332014295,
H,right,Target,0,9,9,9,735.2372038352562,737.2391568800556,right,1,2,0.8968488866876214,D27A02,2022-09-19_09h14.32.986,t1_Paradigm,2021.1.4,59.970526332014295,
T,left,Pretarget,0,10,10,10,738.7371868327311,740.738995516466,left,1,2,1.0450615042291247,D27A02,2022-09-19_09h14.32.986,t1_Paradigm,2021.1.4,59.970526332014295,
K,left,Distractor,0,11,11,11,742.2370950832544,744.2363126462858,left,1,2,1.0356016840837583,D27A02,2022-09-19_09h14.32.986,t1_Paradigm,2021.1.4,59.970526332014295,
T,right,Target,0,12,12,12,745.737246501971,747.7392021131893,right,1,2,0.7812631528968268,D27A02,2022-09-19_09h14.32.986,t1_Paradigm,2021.1.4,59.970526332014295,
T,left,Lure,0,13,13,13,749.2371964568022,751.2373048880015,left,1,2,1.3946161022254273,D27A02,2022-09-19_09h14.32.986,t1_Paradigm,2021.1.4,59.970526332014295,
J,left,Distractor,0,14,14,14,752.7372134593272,754.7395164995071,left,1,2,1.2523639926289434,D27A02,2022-09-19_09h14.32.986,t1_Paradigm,2021.1.4,59.970526332014295,
Q,left,Pretarget,0,15,15,15,756.2370690982632,758.2383869543794,left,1,2,1.1776103046854587,D27A02,2022-09-19_09h14.32.986,t1_Paradigm,2021.1.4,59.970526332014295,
M,left,Distractor,0,16,16,16,759.7368904113457,761.740395497988,left,1,2,1.0035490365662554,D27A02,2022-09-19_09h14.32.986,t1_Paradigm,2021.1.4,59.970526332014295,
Q,right,Target,0,17,17,17,763.2372234042007,765.2395517877674,right,1,2,0.5604497520839686,D27A02,2022-09-19_09h14.32.986,t1_Paradigm,2021.1.4,59.970526332014295,
R,left,Distractor,0,18,18,18,766.7372060808727,768.7390923987803,left,1,2,0.7409151978195041,D27A02,2022-09-19_09h14.32.986,t1_Paradigm,2021.1.4,59.970526332014295,
W,left,Distractor,0,19,19,19,770.2372067224776,772.2389477169138,left,1,2,0.9847503387672987,D27A02,2022-09-19_09h14.32.986,t1_Paradigm,2021.1.4,59.970526332014295,
C,left,Pretarget,0,20,20,20,773.7373013591753,775.7395636574549,left,1,2,0.6523535344722404,D27A02,2022-09-19_09h14.32.986,t1_Paradigm,2021.1.4,59.970526332014295,
T,left,Distractor,0,21,21,21,777.2372131385248,779.2390147646081,left,1,2,1.0729780468527679,D27A02,2022-09-19_09h14.32.986,t1_Paradigm,2021.1.4,59.970526332014295,
C,right,Target,0,22,22,22,780.7370280355601,782.7392162284934,right,1,2,0.6288717637457921,D27A02,2022-09-19_09h14.32.986,t1_Paradigm,2021.1.4,59.970526332014295,
F,left,Pretarget,0,23,23,23,784.2372028728494,786.2392050004107,left,1,2,1.1288868414567332,D27A02,2022-09-19_09h14.32.986,t1_Paradigm,2021.1.4,59.970526332014295,
C,right,Target,0,24,24,24,787.7369398149096,789.7388588546585,right,1,2,0.6211680157475712,D27A02,2022-09-19_09h14.32.986,t1_Paradigm,2021.1.4,59.970526332014295,
F,right,Target,0,25,25,25,791.2370610782039,793.239015406213,right,1,2,1.1050480176982092,D27A02,2022-09-19_09h14.32.986,t1_Paradigm,2021.1.4,59.970526332014295,
H,left,Distractor,0,26,26,26,794.7372272538289,796.7395322188229,left,1,2,0.8364254403973064,D27A02,2022-09-19_09h14.32.986,t1_Paradigm,2021.1.4,59.970526332014295,
H,left,Lure,0,27,27,27,798.2372635044965,800.2373947126637,left,1,2,1.1629236516032506,D27A02,2022-09-19_09h14.32.986,t1_Paradigm,2021.1.4,59.970526332014295,
P,left,Distractor,0,28,28,28,801.7373456299017,803.7392688400812,left,1,2,0.8288519381594597,D27A02,2022-09-19_09h14.32.986,t1_Paradigm,2021.1.4,59.970526332014295,
G,left,Pretarget,0,29,29,29,805.2372513140065,807.2393423038227,left,1,2,0.7205785734818164,D27A02,2022-09-19_09h14.32.986,t1_Paradigm,2021.1.4,59.970526332014295,
K,left,Distractor,0,30,30,30,808.7371874743355,810.7392178325051,left,1,2,0.5806647923254786,D27A02,2022-09-19_09h14.32.986,t1_Paradigm,2021.1.4,59.970526332014295,
G,right,Target,0,31,31,31,812.2371987024187,814.2391453311704,right,1,2,0.5049272035271315,D27A02,2022-09-19_09h14.32.986,t1_Paradigm,2021.1.4,59.970526332014295,
M,left,Pretarget,0,32,32,32,815.7371460908305,817.7390834163141,left,1,2,0.8451291293681606,D27A02,2022-09-19_09h14.32.986,t1_Paradigm,2021.1.4,59.970526332014295,
B,left,Distractor,0,33,33,33,819.2375198255861,821.2389473961114,left,1,2,0.7850447711780362,D27A02,2022-09-19_09h14.32.986,t1_Paradigm,2021.1.4,59.970526332014295,
M,right,Target,0,34,34,34,822.7371589229253,824.7395514669649,right,1,2,0.7565472554715598,D27A02,2022-09-19_09h14.32.986,t1_Paradigm,2021.1.4,59.970526332014295,
M,left,Lure,0,35,35,35,826.2372635044965,828.2373741813124,left,1,2,1.2107270536484975,D27A02,2022-09-19_09h14.32.986,t1_Paradigm,2021.1.4,59.970526332014295,
T,left,Distractor,0,36,36,36,829.7369840856361,831.7389329600048,left,1,2,0.9731356891347787,D27A02,2022-09-19_09h14.32.986,t1_Paradigm,2021.1.4,59.970526332014295,
F,left,Distractor,0,37,37,37,833.2372737701719,835.2393374917872,left,1,2,0.8646647102000315,D27A02,2022-09-19_09h14.32.986,t1_Paradigm,2021.1.4,59.970526332014295,
X,left,Distractor,0,38,38,38,836.737278261405,838.7390067445488,left,1,2,0.9329661001725071,D27A02,2022-09-19_09h14.32.986,t1_Paradigm,2021.1.4,59.970526332014295,
C,left,Distractor,0,39,39,39,840.2371916447667,842.2365211678232,left,1,2,0.651495388145122,D27A02,2022-09-19_09h14.32.986,t1_Paradigm,2021.1.4,59.970526332014295,
R,left,Distractor,0,40,40,40,843.7371653389725,845.7392422134851,left,1,2,0.8927647517762125,D27A02,2022-09-19_09h14.32.986,t1_Paradigm,2021.1.4,59.970526332014295,
B,left,Pretarget,0,41,41,41,847.2372991135587,849.2392563287892,left,1,2,1.0247187846466659,D27A02,2022-09-19_09h14.32.986,t1_Paradigm,2021.1.4,59.970526332014295,
H,left,Distractor,0,42,42,42,850.7373574995893,852.7386050999878,left,1,2,0.7255654462492203,D27A02,2022-09-19_09h14.32.986,t1_Paradigm,2021.1.4,59.970526332014295,
B,right,Target,0,43,43,43,854.2374017703157,856.2389092206297,right,1,2,0.7292784128239873,D27A02,2022-09-19_09h14.32.986,t1_Paradigm,2021.1.4,59.970526332014295,
W,left,Pretarget,0,44,44,44,857.737309700037,859.739431166078,left,1,2,1.068586904077165,D27A02,2022-09-19_09h14.32.986,t1_Paradigm,2021.1.4,59.970526332014295,
L,left,Pretarget,0,45,45,45,861.2372144217345,863.2387847493121,left,1,2,1.1532296457316988,D27A02,2022-09-19_09h14.32.986,t1_Paradigm,2021.1.4,59.970526332014295,
W,right,Target,0,46,46,46,864.7374912741755,866.7392640280457,right,1,2,0.5486374881943448,D27A02,2022-09-19_09h14.32.986,t1_Paradigm,2021.1.4,59.970526332014295,
L,right,Target,0,47,47,47,868.2372416899354,870.2394728703855,right,1,2,1.3525361351780703,D27A02,2022-09-19_09h14.32.986,t1_Paradigm,2021.1.4,59.970526332014295,
W,right,Target,0,48,48,48,871.7371255594792,873.7395213115426,right,1,2,1.2447054777644553,D27A02,2022-09-19_09h14.32.986,t1_Paradigm,2021.1.4,59.970526332014295,
X,left,Distractor,0,49,49,49,875.2372955847329,877.2365333583132,left,1,2,1.4117100562561973,D27A02,2022-09-19_09h14.32.986,t1_Paradigm,2021.1.4,59.970526332014295,
R,left,Distractor,0,50,50,50,878.7373876550116,880.7363553130006,left,1,2,0.9841222077366183,D27A02,2022-09-19_09h14.32.986,t1_Paradigm,2021.1.4,59.970526332014295,
V,left,Pretarget,0,51,51,51,882.2373607076131,884.238812017513,left,1,2,1.0331741725867687,D27A02,2022-09-19_09h14.32.986,t1_Paradigm,2021.1.4,59.970526332014295,
Z,left,Distractor,0,52,52,52,885.7373228529339,887.739103306061,left,1,2,0.8131162613435663,D27A02,2022-09-19_09h14.32.986,t1_Paradigm,2021.1.4,59.970526332014295,
V,right,Target,0,53,53,53,889.2372625420892,891.2388264536196,right,1,2,0.5294044239926734,D27A02,2022-09-19_09h14.32.986,t1_Paradigm,2021.1.4,59.970526332014295,
V,left,Lure,0,54,54,54,892.7372920559067,894.7374091487702,left,1,2,1.1587830554758511,D27A02,2022-09-19_09h14.32.986,t1_Paradigm,2021.1.4,59.970526332014295,
N,left,Distractor,0,55,55,55,896.2373398554594,898.2389207695148,left,1,2,0.9848946998317842,D27A02,2022-09-19_09h14.32.986,t1_Paradigm,2021.1.4,59.970526332014295,
B,left,Distractor,0,56,56,56,899.737050812528,901.7390574313224,left,1,2,0.7971412659630914,D27A02,2022-09-19_09h14.32.986,t1_Paradigm,2021.1.4,59.970526332014295,
V,left,Lure,0,57,57,57,903.2370524165401,905.239181581838,left,1,2,0.8328924439492766,D27A02,2022-09-19_09h14.32.986,t1_Paradigm,2021.1.4,59.970526332014295,
J,left,Distractor,0,58,58,58,906.7373376098428,908.7392621032316,left,1,2,0.7249466184862285,D27A02,2022-09-19_09h14.32.986,t1_Paradigm,2021.1.4,59.970526332014295,
H,left,Distractor,0,59,59,59,910.2374453994373,912.2391450103685,left,1,2,0.8410729042625462,D27A02,2022-09-19_09h14.32.986,t1_Paradigm,2021.1.4,59.970526332014295,
X,left,Pretarget,0,60,60,60,913.7373077752229,915.7392489503347,left,1,2,0.685014102471996,D27A02,2022-09-19_09h14.32.986,t1_Paradigm,2021.1.4,59.970526332014295,
P,left,Distractor,0,61,61,61,917.2373738605099,919.2501953686403,left,1,2,0.8218712786924698,D27A02,2022-09-19_09h14.32.986,t1_Paradigm,2021.1.4,59.970526332014295,
X,right,Target,0,62,62,62,920.7373498003324,922.739492760132,right,1,2,0.5968964295980186,D27A02,2022-09-19_09h14.32.986,t1_Paradigm,2021.1.4,59.970526332014295,
Q,left,Distractor,0,63,63,63,924.2373802765571,926.2395678278856,left,1,2,1.1126449385087653,D27A02,2022-09-19_09h14.32.986,t1_Paradigm,2021.1.4,59.970526332014295,
B,left,Pretarget,0,0,0,0,943.6177633402456,945.6197859991582,left,1,2,0.6603139243625264,D27A02,2022-09-19_09h14.32.986,t1_Paradigm,2021.1.4,59.970526332014295,
F,left,Distractor,0,1,1,1,947.1207846569212,949.1227976917628,left,1,2,0.5653063790909982,D27A02,2022-09-19_09h14.32.986,t1_Paradigm,2021.1.4,59.970526332014295,
B,right,Target,0,2,2,2,950.6207801656881,952.6229680378185,right,1,2,0.6009856973473688,D27A02,2022-09-19_09h14.32.986,t1_Paradigm,2021.1.4,59.970526332014295,
V,left,Distractor,0,3,3,3,954.120626501355,956.1227906341107,left,1,2,1.085394381595961,D27A02,2022-09-19_09h14.32.986,t1_Paradigm,2021.1.4,59.970526332014295,
G,left,Pretarget,0,4,4,4,957.6208109627148,959.6199855382295,left,1,2,1.0922877828193123,D27A02,2022-09-19_09h14.32.986,t1_Paradigm,2021.1.4,59.970526332014295,
B,left,Lure,0,5,5,5,961.1197186306615,963.1225917366444,left,1,2,1.045678407178002,D27A02,2022-09-19_09h14.32.986,t1_Paradigm,2021.1.4,59.970526332014295,
G,right,Target,0,6,6,6,964.6208157747503,966.6226722580379,right,1,2,0.505560467396208,D27A02,2022-09-19_09h14.32.986,t1_Paradigm,2021.1.4,59.970526332014295,
Y,left,Pretarget,0,7,7,7,968.1204994636184,970.1219745128935,left,1,2,0.7020971492215722,D27A02,2022-09-19_09h14.32.986,t1_Paradigm,2021.1.4,59.970526332014295,
P,left,Distractor,0,8,8,8,971.6208045466676,973.622811165462,left,1,2,0.8976277948299867,D27A02,2022-09-19_09h14.32.986,t1_Paradigm,2021.1.4,59.970526332014295,
Y,right,Target,0,9,9,9,975.1206309925881,977.1223976512135,right,1,2,0.9176926995651229,D27A02,2022-09-19_09h14.32.986,t1_Paradigm,2021.1.4,59.970526332014295,
X,left,Distractor,0,10,10,10,978.6207458398351,980.62124564992,left,1,2,0.8750442707264483,D27A02,2022-09-19_09h14.32.986,t1_Paradigm,2021.1.4,59.970526332014295,
Y,right,Target,0,11,11,11,982.1207528974871,984.1197936984152,right,1,2,0.9605201361227955,D27A02,2022-09-19_09h14.32.986,t1_Paradigm,2021.1.4,59.970526332014295,
N,left,Distractor,0,12,12,12,985.6207432734161,987.6197436532459,left,1,2,0.644410467909438,D27A02,2022-09-19_09h14.32.986,t1_Paradigm,2021.1.4,59.970526332014295,
Y,right,Target,0,13,13,13,989.1207775992691,991.1225320674046,right,1,2,0.5982531028002995,D27A02,2022-09-19_09h14.32.986,t1_Paradigm,2021.1.4,59.970526332014295,
Y,left,Lure,0,14,14,14,992.6207358949616,994.6208677447337,left,1,2,0.9553019648501504,D27A02,2022-09-19_09h14.32.986,t1_Paradigm,2021.1.4,59.970526332014295,
K,left,Distractor,0,15,15,15,996.1198738990063,998.1200044655691,left,1,2,0.9603257298899734,D27A02,2022-09-19_09h14.32.986,t1_Paradigm,2021.1.4,59.970526332014295,
T,left,Pretarget,0,16,16,16,999.6207108723772,1001.6224945335277,left,1,2,0.8176815998026541,D27A02,2022-09-19_09h14.32.986,t1_Paradigm,2021.1.4,59.970526332014295,
J,left,Distractor,0,17,17,17,1003.1207326869378,1005.1225012703774,left,1,2,0.7257848750668927,D27A02,2022-09-19_09h14.32.986,t1_Paradigm,2021.1.4,59.970526332014295,
T,right,Target,0,18,18,18,1006.6207355741592,1008.6222991648872,right,1,2,0.6177190695193531,D27A02,2022-09-19_09h14.32.986,t1_Paradigm,2021.1.4,59.970526332014295,
S,left,Pretarget,0,19,19,19,1010.1207160052147,1012.1222042073871,left,1,2,0.9261644484254248,D27A02,2022-09-19_09h14.32.986,t1_Paradigm,2021.1.4,59.970526332014295,
R,left,Distractor,0,20,20,20,1013.620878652014,1015.6226558971173,left,1,2,1.0094967124173309,D27A02,2022-09-19_09h14.32.986,t1_Paradigm,2021.1.4,59.970526332014295,
S,right,Target,0,21,21,21,1017.1207342909499,1019.1227213407999,right,1,2,0.8694860489467828,D27A02,2022-09-19_09h14.32.986,t1_Paradigm,2021.1.4,59.970526332014295,
Q,left,Distractor,0,22,22,22,1020.6207330077402,1022.6226411402088,left,1,2,0.9695811989286085,D27A02,2022-09-19_09h14.32.986,t1_Paradigm,2021.1.4,59.970526332014295,
D,left,Distractor,0,23,23,23,1024.1209014289818,1026.1227437969653,left,1,2,0.9416117239147752,D27A02,2022-09-19_09h14.32.986,t1_Paradigm,2021.1.4,59.970526332014295,
F,left,Distractor,0,24,24,24,1027.6207519350799,1029.622270934279,left,1,2,0.9141953121793449,D27A02,2022-09-19_09h14.32.986,t1_Paradigm,2021.1.4,59.970526332014295,
Z,left,Distractor,0,25,25,25,1031.1207413486015,1033.1224355058923,left,1,2,0.8858168141500755,D27A02,2022-09-19_09h14.32.986,t1_Paradigm,2021.1.4,59.970526332014295,
P,left,Distractor,0,26,26,26,1034.6207038147252,1036.6229247294993,left,1,2,0.8093009588142195,D27A02,2022-09-19_09h14.32.986,t1_Paradigm,2021.1.4,59.970526332014295,
H,left,Distractor,0,27,27,27,1038.1208382309162,1040.1225878870157,left,1,2,1.0857235248222423,D27A02,2022-09-19_09h14.32.986,t1_Paradigm,2021.1.4,59.970526332014295,
Z,left,Pretarget,0,28,28,28,1041.6207971682131,1043.6225506739418,left,1,2,1.153698979591809,D27A02,2022-09-19_09h14.32.986,t1_Paradigm,2021.1.4,59.970526332014295,
J,left,Pretarget,0,29,29,29,1045.1207182508313,1047.122784859668,left,1,2,0.9814390167534839,D27A02,2022-09-19_09h14.32.986,t1_Paradigm,2021.1.4,59.970526332014295,
Z,right,Target,0,30,30,30,1048.6207593135343,1050.6234694519155,right,1,2,0.5846228519071701,D27A02,2022-09-19_09h14.32.986,t1_Paradigm,2021.1.4,59.970526332014295,
J,right,Target,0,31,31,31,1052.1207554639057,1054.122195224921,right,1,2,0.9901863348459301,D27A02,2022-09-19_09h14.32.986,t1_Paradigm,2021.1.4,59.970526332014295,
V,left,Pretarget,0,32,32,32,1055.620822190798,1057.6227980125652,left,1,2,1.0735859673345658,D27A02,2022-09-19_09h14.32.986,t1_Paradigm,2021.1.4,59.970526332014295,
Z,left,Lure,0,33,33,33,1059.120758992732,1061.1198613877139,left,1,2,1.224547540344247,D27A02,2022-09-19_09h14.32.986,t1_Paradigm,2021.1.4,59.970526332014295,
V,right,Target,0,34,34,34,1062.6208693487454,1064.6227107543216,right,1,2,0.793575547673754,D27A02,2022-09-19_09h14.32.986,t1_Paradigm,2021.1.4,59.970526332014295,
X,left,Distractor,0,35,35,35,1066.120807433889,1068.1199354930602,left,1,2,1.0243562779737658,D27A02,2022-09-19_09h14.32.986,t1_Paradigm,2021.1.4,59.970526332014295,
S,left,Distractor,0,36,36,36,1069.6208218699956,1071.6198726157966,left,1,2,0.9008980541411802,D27A02,2022-09-19_09h14.32.986,t1_Paradigm,2021.1.4,59.970526332014295,
Q,left,Distractor,0,37,37,37,1073.1206120652485,1075.1225776213403,right,0,2,0.80574550620031,D27A02,2022-09-19_09h14.32.986,t1_Paradigm,2021.1.4,59.970526332014295,
P,left,Distractor,0,38,38,38,1076.6209123362626,1078.6229279375232,left,1,2,0.8894601666120252,D27A02,2022-09-19_09h14.32.986,t1_Paradigm,2021.1.4,59.970526332014295,
S,left,Lure,0,39,39,39,1080.1208193035766,1082.1229949852175,left,1,2,1.4532812307515997,D27A02,2022-09-19_09h14.32.986,t1_Paradigm,2021.1.4,59.970526332014295,
K,left,Pretarget,0,40,40,40,1083.6207869025377,1085.6228830251919,left,1,2,0.7854101650718803,D27A02,2022-09-19_09h14.32.986,t1_Paradigm,2021.1.4,59.970526332014295,
L,left,Distractor,0,41,41,41,1087.1207503310682,1089.122765290724,left,1,2,0.7416694041803567,D27A02,2022-09-19_09h14.32.986,t1_Paradigm,2021.1.4,59.970526332014295,
K,right,Target,0,42,42,42,1090.6209476245224,1092.6234441085287,right,1,2,0.9049401639426833,D27A02,2022-09-19_09h14.32.986,t1_Paradigm,2021.1.4,59.970526332014295,
B,left,Distractor,0,43,43,43,1094.1208561958485,1096.1222606686035,left,1,2,0.6861150961890417,D27A02,2022-09-19_09h14.32.986,t1_Paradigm,2021.1.4,59.970526332014295,
N,left,Distractor,0,44,44,44,1097.6207586719295,1099.6230475968052,left,1,2,0.8171965466267466,D27A02,2022-09-19_09h14.32.986,t1_Paradigm,2021.1.4,59.970526332014295,
S,left,Pretarget,0,45,45,45,1101.1207840153163,1103.1223267538905,left,1,2,0.6621646332073396,D27A02,2022-09-19_09h14.32.986,t1_Paradigm,2021.1.4,59.970526332014295,
Z,left,Distractor,0,46,46,46,1104.6209694390834,1106.622495816737,left,1,2,0.9698224423068496,D27A02,2022-09-19_09h14.32.986,t1_Paradigm,2021.1.4,59.970526332014295,
S,right,Target,0,47,47,47,1108.1208517046155,1110.1225195561121,right,1,2,0.5898849731038354,D27A02,2022-09-19_09h14.32.986,t1_Paradigm,2021.1.4,59.970526332014295,
C,left,Distractor,0,48,48,48,1111.6208921257132,1113.6230261030466,left,1,2,0.753260314437739,D27A02,2022-09-19_09h14.32.986,t1_Paradigm,2021.1.4,59.970526332014295,
T,left,Pretarget,0,49,49,49,1115.1209562861866,1117.1215112742782,left,1,2,1.1269119820967717,D27A02,2022-09-19_09h14.32.986,t1_Paradigm,2021.1.4,59.970526332014295,
S,left,Lure,0,50,50,50,1118.6210765870735,1120.6337017641565,left,1,2,1.087083406048805,D27A02,2022-09-19_09h14.32.986,t1_Paradigm,2021.1.4,59.970526332014295,
T,right,Target,0,51,51,51,1122.1210044065413,1124.1337563005584,right,1,2,1.3467193466922254,D27A02,2022-09-19_09h14.32.986,t1_Paradigm,2021.1.4,59.970526332014295,
N,left,Pretarget,0,52,52,52,1125.6209039954008,1127.623283707346,left,1,2,0.9929433103725387,D27A02,2022-09-19_09h14.32.986,t1_Paradigm,2021.1.4,59.970526332014295,
B,left,Distractor,0,53,53,53,1129.1210040857388,1131.1226244584857,left,1,2,0.8058276316055526,D27A02,2022-09-19_09h14.32.986,t1_Paradigm,2021.1.4,59.970526332014295,
N,right,Target,0,54,54,54,1132.6208456093702,1134.622654613908,right,1,2,0.6334717488603019,D27A02,2022-09-19_09h14.32.986,t1_Paradigm,2021.1.4,59.970526332014295,
N,left,Lure,0,55,55,55,1136.1209280555784,1138.1209652686528,None,0,2,,D27A02,2022-09-19_09h14.32.986,t1_Paradigm,2021.1.4,59.970526332014295,
X,left,Distractor,0,56,56,56,1139.620861007884,1141.6226652003859,left,1,2,1.1857298125487432,D27A02,2022-09-19_09h14.32.986,t1_Paradigm,2021.1.4,59.970526332014295,
W,left,Distractor,0,57,57,57,1143.1209142610767,1145.1226680876073,left,1,2,0.8856631498169918,D27A02,2022-09-19_09h14.32.986,t1_Paradigm,2021.1.4,59.970526332014295,
S,left,Distractor,0,58,58,58,1146.62069226584,1148.6231181733258,left,1,2,0.7295148441671699,D27A02,2022-09-19_09h14.32.986,t1_Paradigm,2021.1.4,59.970526332014295,
L,left,Distractor,0,59,59,59,1150.1209306219973,1152.122686373342,left,1,2,0.7016752941117375,D27A02,2022-09-19_09h14.32.986,t1_Paradigm,2021.1.4,59.970526332014295,
K,left,Pretarget,0,60,60,60,1153.6208594038724,1155.6231682184946,left,1,2,0.7851609016342991,D27A02,2022-09-19_09h14.32.986,t1_Paradigm,2021.1.4,59.970526332014295,
V,left,Pretarget,0,61,61,61,1157.1375866807991,1159.1227489298033,left,1,2,0.805741014967225,D27A02,2022-09-19_09h14.32.986,t1_Paradigm,2021.1.4,59.970526332014295,
K,right,Target,0,62,62,62,1160.6207750328501,1162.619987783846,right,1,2,0.6845723576147975,D27A02,2022-09-19_09h14.32.986,t1_Paradigm,2021.1.4,59.970526332014295,
V,right,Target,0,63,63,63,1164.1208905217015,1166.1227213408,right,1,2,0.9581615971337669,D27A02,2022-09-19_09h14.32.986,t1_Paradigm,2021.1.4,59.970526332014295,
R,left,Distractor,0,0,0,0,1296.1661631138875,1298.1563218597296,left,1,3,0.6202261400030693,D27A02,2022-09-19_09h14.32.986,t1_Paradigm,2021.1.4,59.970526332014295,
P,left,Lure,0,1,1,1,1299.6542379275654,1301.6569374794688,left,1,3,0.7036228852707609,D27A02,2022-09-19_09h14.32.986,t1_Paradigm,2021.1.4,59.970526332014295,
V,left,Distractor,0,2,2,2,1303.1544130856566,1305.156527814848,left,1,3,0.7561218715354698,D27A02,2022-09-19_09h14.32.986,t1_Paradigm,2021.1.4,59.970526332014295,
P,left,Pretarget,0,3,3,3,1306.6542071305382,1308.656956086006,left,1,3,1.3036147368907223,D27A02,2022-09-19_09h14.32.986,t1_Paradigm,2021.1.4,59.970526332014295,
Z,left,Distractor,0,4,4,4,1310.1543909502936,1312.1547694970843,None,0,3,,D27A02,2022-09-19_09h14.32.986,t1_Paradigm,2021.1.4,59.970526332014295,
L,left,Pretarget,0,5,5,5,1313.6545228000657,1315.6565169075677,None,0,3,,D27A02,2022-09-19_09h14.32.986,t1_Paradigm,2021.1.4,59.970526332014295,
P,right,Target,0,6,6,6,1317.1543672109185,1319.156019022297,right,1,3,1.3484914589580512,D27A02,2022-09-19_09h14.32.986,t1_Paradigm,2021.1.4,59.970526332014295,
S,left,Distractor,0,7,7,7,1320.6544047447953,1322.656466862399,left,1,3,1.0000250225848504,D27A02,2022-09-19_09h14.32.986,t1_Paradigm,2021.1.4,59.970526332014295,
L,right,Target,0,8,8,8,1324.1545353113577,1326.156250962407,right,1,3,1.2763073979594992,D27A02,2022-09-19_09h14.32.986,t1_Paradigm,2021.1.4,59.970526332014295,
D,left,Distractor,0,9,9,9,1327.6543518124051,1329.6567029729397,left,1,3,0.8478614031128018,D27A02,2022-09-19_09h14.32.986,t1_Paradigm,2021.1.4,59.970526332014295,
G,left,Distractor,0,10,10,10,1331.154362398883,1333.1562352430913,right,0,3,1.2523386492421196,D27A02,2022-09-19_09h14.32.986,t1_Paradigm,2021.1.4,59.970526332014295,
M,left,Pretarget,0,11,11,11,1334.6544474115096,1336.6552587206913,left,1,3,0.8253863102081596,D27A02,2022-09-19_09h14.32.986,t1_Paradigm,2021.1.4,59.970526332014295,
Y,left,Distractor,0,12,12,12,1338.1543617572781,1340.1560071526094,left,1,3,1.3088637051905607,D27A02,2022-09-19_09h14.32.986,t1_Paradigm,2021.1.4,59.970526332014295,
V,left,Distractor,0,13,13,13,1341.6542725742208,1343.6563581103972,right,0,3,1.2483408101670648,D27A02,2022-09-19_09h14.32.986,t1_Paradigm,2021.1.4,59.970526332014295,
M,right,Target,0,14,14,14,1345.1543739477681,1347.1562243358105,None,0,3,,D27A02,2022-09-19_09h14.32.986,t1_Paradigm,2021.1.4,59.970526332014295,
S,left,Pretarget,0,15,15,15,1348.6545349905557,1350.6571889885229,None,0,3,,D27A02,2022-09-19_09h14.32.986,t1_Paradigm,2021.1.4,59.970526332014295,
Q,left,Distractor,0,16,16,16,1352.154115381062,1354.156227223032,left,1,3,0.9084635363201414,D27A02,2022-09-19_09h14.32.986,t1_Paradigm,2021.1.4,59.970526332014295,
R,left,Pretarget,0,17,17,17,1355.6544464491028,1357.656320255718,left,1,3,1.440375351599414,D27A02,2022-09-19_09h14.32.986,t1_Paradigm,2021.1.4,59.970526332014295,
S,right,Target,0,18,18,18,1359.1543441131482,1361.156261548885,right,1,3,1.1083349587315752,D27A02,2022-09-19_09h14.32.986,t1_Paradigm,2021.1.4,59.970526332014295,
F,left,Distractor,0,19,19,19,1362.6545442938243,1364.655407572989,left,1,3,1.0973352872333635,D27A02,2022-09-19_09h14.32.986,t1_Paradigm,2021.1.4,59.970526332014295,
R,right,Target,0,20,20,20,1366.154517025623,1368.1562092580996,right,1,3,0.828603637129163,D27A02,2022-09-19_09h14.32.986,t1_Paradigm,2021.1.4,59.970526332014295,
P,left,Distractor,0,21,21,21,1369.6534676810863,1371.656445047838,left,1,3,1.264545820843523,D27A02,2022-09-19_09h14.32.986,t1_Paradigm,2021.1.4,59.970526332014295,
L,left,Distractor,0,22,22,22,1373.1544066696094,1375.156958652425,left,1,3,1.1717505286824235,D27A02,2022-09-19_09h14.32.986,t1_Paradigm,2021.1.4,59.970526332014295,
R,right,Target,0,23,23,23,1376.6545596923377,1378.6566141106844,right,1,3,1.3039756395514814,D27A02,2022-09-19_09h14.32.986,t1_Paradigm,2021.1.4,59.970526332014295,
H,left,Pretarget,0,24,24,24,1380.1544984190857,1382.1568845470786,left,1,3,0.779848093664441,D27A02,2022-09-19_09h14.32.986,t1_Paradigm,2021.1.4,59.970526332014295,
G,left,Pretarget,0,25,25,25,1383.6544929654458,1385.656445047838,left,1,3,0.8483050727836599,D27A02,2022-09-19_09h14.32.986,t1_Paradigm,2021.1.4,59.970526332014295,
T,left,Distractor,0,26,26,26,1387.1545693164087,1389.1535748290764,left,1,3,0.759172381226108,D27A02,2022-09-19_09h14.32.986,t1_Paradigm,2021.1.4,59.970526332014295,
H,right,Target,0,27,27,27,1390.6544397122532,1392.6564524262924,right,1,3,0.5361608426069324,D27A02,2022-09-19_09h14.32.986,t1_Paradigm,2021.1.4,59.970526332014295,
G,right,Target,0,28,28,28,1394.1535061773704,1396.156222090194,right,1,3,0.7966254157599906,D27A02,2022-09-19_09h14.32.986,t1_Paradigm,2021.1.4,59.970526332014295,
D,left,Distractor,0,29,29,29,1397.6534882124377,1399.6560956940623,left,1,3,1.1526948681885187,D27A02,2022-09-19_09h14.32.986,t1_Paradigm,2021.1.4,59.970526332014295,
N,left,Pretarget,0,30,30,30,1401.1544618476162,1403.1562913835053,left,1,3,0.9323402147579145,D27A02,2022-09-19_09h14.32.986,t1_Paradigm,2021.1.4,59.970526332014295,
V,left,Distractor,0,31,31,31,1404.6545603339425,1406.6564620503634,left,1,3,0.9042090553525668,D27A02,2022-09-19_09h14.32.986,t1_Paradigm,2021.1.4,59.970526332014295,
R,left,Distractor,0,32,32,32,1408.154582148503,1410.156187764341,left,1,3,1.1164621658522265,D27A02,2022-09-19_09h14.32.986,t1_Paradigm,2021.1.4,59.970526332014295,
N,right,Target,0,33,33,33,1411.6546424593478,1413.6677462735595,right,1,3,1.3488360006981566,D27A02,2022-09-19_09h14.32.986,t1_Paradigm,2021.1.4,59.970526332014295,
Z,left,Distractor,0,34,34,34,1415.1544910406317,1417.156737619595,left,1,3,0.8839587268507785,D27A02,2022-09-19_09h14.32.986,t1_Paradigm,2021.1.4,59.970526332014295,
N,left,Lure,0,35,35,35,1418.6542857271177,1420.6564803360982,None,0,3,,D27A02,2022-09-19_09h14.32.986,t1_Paradigm,2021.1.4,59.970526332014295,
Y,left,Pretarget,0,36,36,36,1422.154521516856,1424.1561829523055,left,1,3,1.1486428135140159,D27A02,2022-09-19_09h14.32.986,t1_Paradigm,2021.1.4,59.970526332014295,
Y,left,Lure,0,37,37,37,1425.6544926446434,1427.6544711508848,left,1,3,1.2021776706155833,D27A02,2022-09-19_09h14.32.986,t1_Paradigm,2021.1.4,59.970526332014295,
B,left,Distractor,0,38,38,38,1429.154494248655,1431.15643446136,left,1,3,1.2362385409392118,D27A02,2022-09-19_09h14.32.986,t1_Paradigm,2021.1.4,59.970526332014295,
Y,right,Target,0,39,39,39,1432.654509005564,1434.656309990042,None,0,3,,D27A02,2022-09-19_09h14.32.986,t1_Paradigm,2021.1.4,59.970526332014295,
J,left,Distractor,0,40,40,40,1436.154445807498,1438.156694311276,left,1,3,1.1480002463758865,D27A02,2022-09-19_09h14.32.986,t1_Paradigm,2021.1.4,59.970526332014295,
X,left,Distractor,0,41,41,41,1439.6545199128443,1441.6564402358024,left,1,3,1.1042655807295887,D27A02,2022-09-19_09h14.32.986,t1_Paradigm,2021.1.4,59.970526332014295,
W,left,Pretarget,0,42,42,42,1443.1544913614337,1445.156228827044,left,1,3,0.8364616910644145,D27A02,2022-09-19_09h14.32.986,t1_Paradigm,2021.1.4,59.970526332014295,
S,left,Pretarget,0,43,43,43,1446.6545911309693,1448.6536806938568,left,1,3,0.7472613102081596,D27A02,2022-09-19_09h14.32.986,t1_Paradigm,2021.1.4,59.970526332014295,
R,left,Distractor,0,44,44,44,1450.1545378777766,1452.1562038044592,left,1,3,0.82859433386011,D27A02,2022-09-19_09h14.32.986,t1_Paradigm,2021.1.4,59.970526332014295,
W,right,Target,0,45,45,45,1453.6546549706402,1455.656916627315,right,1,3,1.1038174198251909,D27A02,2022-09-19_09h14.32.986,t1_Paradigm,2021.1.4,59.970526332014295,
S,right,Target,0,46,46,46,1457.154473075699,1459.1564367069766,right,1,3,1.1085341770003652,D27A02,2022-09-19_09h14.32.986,t1_Paradigm,2021.1.4,59.970526332014295,
D,left,Distractor,0,47,47,47,1460.6544955318648,1462.656515303556,left,1,3,0.7445630415145388,D27A02,2022-09-19_09h14.32.986,t1_Paradigm,2021.1.4,59.970526332014295,
T,left,Distractor,0,48,48,48,1464.15453563216,1466.1560398744507,left,1,3,1.0206660883673067,D27A02,2022-09-19_09h14.32.986,t1_Paradigm,2021.1.4,59.970526332014295,
S,right,Target,0,49,49,49,1467.6545192712395,1469.6564110427873,right,1,3,0.5445437292119095,D27A02,2022-09-19_09h14.32.986,t1_Paradigm,2021.1.4,59.970526332014295,
K,left,Distractor,0,50,50,50,1471.154594980598,1473.1536935259517,left,1,3,0.7590479099085314,D27A02,2022-09-19_09h14.32.986,t1_Paradigm,2021.1.4,59.970526332014295,
S,left,Lure,0,51,51,51,1474.654654008233,1476.6563208973228,right,0,3,0.888498401121069,D27A02,2022-09-19_09h14.32.986,t1_Paradigm,2021.1.4,59.970526332014295,
T,left,Pretarget,0,52,52,52,1478.1545272912988,1480.1557412074487,None,0,3,,D27A02,2022-09-19_09h14.32.986,t1_Paradigm,2021.1.4,59.970526332014295,
V,left,Distractor,0,53,53,53,1481.6545147800064,1483.6567052185562,left,1,3,1.2320228770581707,D27A02,2022-09-19_09h14.32.986,t1_Paradigm,2021.1.4,59.970526332014295,
B,left,Distractor,0,54,54,54,1485.1545603339425,1487.1536155709766,left,1,3,1.0152775710384958,D27A02,2022-09-19_09h14.32.986,t1_Paradigm,2021.1.4,59.970526332014295,
T,right,Target,0,55,55,55,1488.6545808652938,1490.6706947680984,right,1,3,0.6339080400771309,D27A02,2022-09-19_09h14.32.986,t1_Paradigm,2021.1.4,59.970526332014295,
Y,left,Pretarget,0,56,56,56,1492.1545930557838,1494.1567581509464,left,1,3,0.7479343535705993,D27A02,2022-09-19_09h14.32.986,t1_Paradigm,2021.1.4,59.970526332014295,
T,left,Lure,0,57,57,57,1495.6545276121012,1497.656429328522,left,1,3,1.200346209912368,D27A02,2022-09-19_09h14.32.986,t1_Paradigm,2021.1.4,59.970526332014295,
P,left,Pretarget,0,58,58,58,1499.154609095902,1501.1558907013507,left,1,3,0.9008669363120134,D27A02,2022-09-19_09h14.32.986,t1_Paradigm,2021.1.4,59.970526332014295,
Y,right,Target,0,59,59,59,1502.654638288917,1504.656720937872,right,1,3,0.4721165000205474,D27A02,2022-09-19_09h14.32.986,t1_Paradigm,2021.1.4,59.970526332014295,
R,left,Distractor,0,60,60,60,1506.1545744492466,1508.1571806476616,left,1,3,0.731522104566011,D27A02,2022-09-19_09h14.32.986,t1_Paradigm,2021.1.4,59.970526332014295,
P,right,Target,0,61,61,61,1509.654538198579,1511.6565746519934,right,1,3,0.5123213772426425,D27A02,2022-09-19_09h14.32.986,t1_Paradigm,2021.1.4,59.970526332014295,
L,left,Distractor,0,62,62,62,1513.1546466297784,1515.1566888576356,left,1,3,0.8200305147211111,D27A02,2022-09-19_09h14.32.986,t1_Paradigm,2021.1.4,59.970526332014295,
V,left,Distractor,0,63,63,63,1516.6544275217632,1518.6538346789923,left,1,3,0.9709580826797719,D27A02,2022-09-19_09h14.32.986,t1_Paradigm,2021.1.4,59.970526332014295,
H,left,Lure,0,0,0,0,1534.8475932123354,1536.8396709979263,left,1,3,0.4328903908144639,D27A02,2022-09-19_09h14.32.986,t1_Paradigm,2021.1.4,59.970526332014295,
B,left,Distractor,0,1,1,1,1538.3379004896726,1540.3403324924031,left,1,3,0.5324353647392854,D27A02,2022-09-19_09h14.32.986,t1_Paradigm,2021.1.4,59.970526332014295,
T,left,Distractor,0,2,2,2,1541.8380461339464,1543.8401627879523,left,1,3,0.6326065448815825,D27A02,2022-09-19_09h14.32.986,t1_Paradigm,2021.1.4,59.970526332014295,
R,left,Distractor,0,3,3,3,1545.337910434546,1547.339858025705,left,1,3,0.7329378054037079,D27A02,2022-09-19_09h14.32.986,t1_Paradigm,2021.1.4,59.970526332014295,
H,left,Pretarget,0,4,4,4,1548.837923587443,1550.8369781828726,left,1,3,1.2038378228553483,D27A02,2022-09-19_09h14.32.986,t1_Paradigm,2021.1.4,59.970526332014295,
K,left,Distractor,0,5,5,5,1552.3379636877387,1554.3508269001766,None,0,3,,D27A02,2022-09-19_09h14.32.986,t1_Paradigm,2021.1.4,59.970526332014295,
G,left,Distractor,0,6,6,6,1555.837730143617,1557.840123008459,right,0,3,1.2249556009523985,D27A02,2022-09-19_09h14.32.986,t1_Paradigm,2021.1.4,59.970526332014295,
H,right,Target,0,7,7,7,1559.3379755574263,1561.340047299101,right,1,3,1.1811891758716229,D27A02,2022-09-19_09h14.32.986,t1_Paradigm,2021.1.4,59.970526332014295,
Y,left,Pretarget,0,8,8,8,1562.8379120385578,1564.8403077906212,left,1,3,0.8807243974047196,D27A02,2022-09-19_09h14.32.986,t1_Paradigm,2021.1.4,59.970526332014295,
S,left,Distractor,0,9,9,9,1566.3378738630765,1568.3399696649283,left,1,3,0.8528421806349797,D27A02,2022-09-19_09h14.32.986,t1_Paradigm,2021.1.4,59.970526332014295,
P,left,Distractor,0,10,10,10,1569.8379194170122,1571.8395118799533,left,1,3,0.7933224346074894,D27A02,2022-09-19_09h14.32.986,t1_Paradigm,2021.1.4,59.970526332014295,
Y,right,Target,0,11,11,11,1573.337920058617,1575.3396649026815,right,1,3,0.7491562897794211,D27A02,2022-09-19_09h14.32.986,t1_Paradigm,2021.1.4,59.970526332014295,
H,left,Lure,0,12,12,12,1576.8381131816407,1578.8387810921652,left,1,3,1.0263073979590445,D27A02,2022-09-19_09h14.32.986,t1_Paradigm,2021.1.4,59.970526332014295,
Q,left,Distractor,0,13,13,13,1580.3378122690222,1582.3383553874266,left,1,3,0.8065051662010774,D27A02,2022-09-19_09h14.32.986,t1_Paradigm,2021.1.4,59.970526332014295,
V,left,Pretarget,0,14,14,14,1583.8379954471727,1585.840181715292,left,1,3,0.9366793875497024,D27A02,2022-09-19_09h14.32.986,t1_Paradigm,2021.1.4,59.970526332014295,
G,left,Distractor,0,15,15,15,1587.3379819734735,1589.3400225973185,left,1,3,1.004688205765433,D27A02,2022-09-19_09h14.32.986,t1_Paradigm,2021.1.4,59.970526332014295,
Z,left,Pretarget,0,16,16,16,1590.8379810110662,1592.8397495945057,left,1,3,0.7212025340822947,D27A02,2022-09-19_09h14.32.986,t1_Paradigm,2021.1.4,59.970526332014295,
V,right,Target,0,17,17,17,1594.3379983343941,1596.3390406212786,left,0,3,0.8858318918614714,D27A02,2022-09-19_09h14.32.986,t1_Paradigm,2021.1.4,59.970526332014295,
N,left,Distractor,0,18,18,18,1597.8377779431692,1599.8371263935653,left,1,3,0.9878464023940978,D27A02,2022-09-19_09h14.32.986,t1_Paradigm,2021.1.4,59.970526332014295,
Z,right,Target,0,19,19,19,1601.3371587946042,1603.339412752022,right,1,3,0.7975650458874952,D27A02,2022-09-19_09h14.32.986,t1_Paradigm,2021.1.4,59.970526332014295,
R,left,Distractor,0,20,20,20,1604.8380153369196,1606.8402949585268,left,1,3,0.8811533101670648,D27A02,2022-09-19_09h14.32.986,t1_Paradigm,2021.1.4,59.970526332014295,
P,left,Distractor,0,21,21,21,1608.338000900813,1610.3384756883136,left,1,3,0.9181703742865466,D27A02,2022-09-19_09h14.32.986,t1_Paradigm,2021.1.4,59.970526332014295,
Z,right,Target,0,22,22,22,1611.8380262442,1613.8402465173697,right,1,3,0.5846331175830528,D27A02,2022-09-19_09h14.32.986,t1_Paradigm,2021.1.4,59.970526332014295,
D,left,Pretarget,0,23,23,23,1615.3380217529668,1617.3508631508437,left,1,3,0.6579954856688346,D27A02,2022-09-19_09h14.32.986,t1_Paradigm,2021.1.4,59.970526332014295,
K,left,Distractor,0,24,24,24,1618.8378805999262,1620.8398769530447,right,0,3,0.961175856157297,D27A02,2022-09-19_09h14.32.986,t1_Paradigm,2021.1.4,59.970526332014295,
W,left,Distractor,0,25,25,25,1622.3379899935323,1624.3372678674084,left,1,3,1.0157132206504684,D27A02,2022-09-19_09h14.32.986,t1_Paradigm,2021.1.4,59.970526332014295,
D,right,Target,0,26,26,26,1625.8380031464296,1627.8401525222764,right,1,3,0.776862386051107,D27A02,2022-09-19_09h14.32.986,t1_Paradigm,2021.1.4,59.970526332014295,
G,left,Pretarget,0,27,27,27,1629.33798421909,1631.3389273780438,right,0,3,1.1825400746315609,D27A02,2022-09-19_09h14.32.986,t1_Paradigm,2021.1.4,59.970526332014295,
V,left,Distractor,0,28,28,28,1632.8379370611422,1634.8372114061924,left,1,3,1.1877345065290683,D27A02,2022-09-19_09h14.32.986,t1_Paradigm,2021.1.4,59.970526332014295,
D,right,Target,0,29,29,29,1636.3380547956106,1638.3396315392354,right,1,3,1.0131516137644212,D27A02,2022-09-19_09h14.32.986,t1_Paradigm,2021.1.4,59.970526332014295,
G,right,Target,0,30,30,30,1639.8379412315733,1641.839698907732,right,1,3,1.0491956843102344,D27A02,2022-09-19_09h14.32.986,t1_Paradigm,2021.1.4,59.970526332014295,
B,left,Pretarget,0,31,31,31,1643.3370577418593,1645.3383480089722,left,1,3,0.7345540077199075,D27A02,2022-09-19_09h14.32.986,t1_Paradigm,2021.1.4,59.970526332014295,
N,left,Distractor,0,32,32,32,1646.8380092416744,1648.8402946377244,left,1,3,1.08869062589838,D27A02,2022-09-19_09h14.32.986,t1_Paradigm,2021.1.4,59.970526332014295,
F,left,Distractor,0,33,33,33,1650.3380596076456,1652.3398618753338,left,1,3,1.2211172006527704,D27A02,2022-09-19_09h14.32.986,t1_Paradigm,2021.1.4,59.970526332014295,
B,right,Target,0,34,34,34,1653.8380487003653,1655.839851609658,left,0,3,1.0170612321890076,D27A02,2022-09-19_09h14.32.986,t1_Paradigm,2021.1.4,59.970526332014295,
Q,left,Pretarget,0,35,35,35,1657.33807917659,1659.3401499558574,left,1,3,1.084749889644172,D27A02,2022-09-19_09h14.32.986,t1_Paradigm,2021.1.4,59.970526332014295,
S,left,Pretarget,0,36,36,36,1660.8380291314213,1662.8405355603006,left,1,3,0.7044588962348826,D27A02,2022-09-19_09h14.32.986,t1_Paradigm,2021.1.4,59.970526332014295,
W,left,Distractor,0,37,37,37,1664.3380734021473,1666.3402388181128,left,1,3,0.6926947526999356,D27A02,2022-09-19_09h14.32.986,t1_Paradigm,2021.1.4,59.970526332014295,
Q,right,Target,0,38,38,38,1667.8381240889214,1669.838147507494,right,1,3,0.4106459548102066,D27A02,2022-09-19_09h14.32.986,t1_Paradigm,2021.1.4,59.970526332014295,
S,right,Target,0,39,39,39,1671.338011487291,1673.3403748383155,right,1,3,0.8127364313431826,D27A02,2022-09-19_09h14.32.986,t1_Paradigm,2021.1.4,59.970526332014295,
T,left,Distractor,0,40,40,40,1674.8370869348744,1676.837132168008,left,1,3,0.5157648698309458,D27A02,2022-09-19_09h14.32.986,t1_Paradigm,2021.1.4,59.970526332014295,
G,left,Distractor,0,41,41,41,1678.338155527553,1680.3395760404262,left,1,3,0.8694408158135047,D27A02,2022-09-19_09h14.32.986,t1_Paradigm,2021.1.4,59.970526332014295,
D,left,Distractor,0,42,42,42,1681.8379915975445,1683.8372486192663,left,1,3,0.8918215928219979,D27A02,2022-09-19_09h14.32.986,t1_Paradigm,2021.1.4,59.970526332014295,
S,left,Lure,0,43,43,43,1685.3378738630765,1687.3394040903584,left,1,3,0.8137533748408714,D27A02,2022-09-19_09h14.32.986,t1_Paradigm,2021.1.4,59.970526332014295,
Z,left,Pretarget,0,44,44,44,1688.8380644196811,1690.8404810238983,left,1,3,0.6566080154398151,D27A02,2022-09-19_09h14.32.986,t1_Paradigm,2021.1.4,59.970526332014295,
J,left,Distractor,0,45,45,45,1692.3381128608382,1694.3395718699956,left,1,3,0.6455669604360992,D27A02,2022-09-19_09h14.32.986,t1_Paradigm,2021.1.4,59.970526332014295,
M,left,Pretarget,0,46,46,46,1695.8380512667843,1697.8400649432308,left,1,3,0.6813588803224775,D27A02,2022-09-19_09h14.32.986,t1_Paradigm,2021.1.4,59.970526332014295,
Z,right,Target,0,47,47,47,1699.3381003495463,1701.3396405217015,right,1,3,0.47737733800749993,D27A02,2022-09-19_09h14.32.986,t1_Paradigm,2021.1.4,59.970526332014295,
P,left,Distractor,0,48,48,48,1702.8372191054489,1704.839026185172,left,1,3,1.090065584835429,D27A02,2022-09-19_09h14.32.986,t1_Paradigm,2021.1.4,59.970526332014295,
M,right,Target,0,49,49,49,1706.3382261040736,1708.3373301030672,right,1,3,1.063776793413581,D27A02,2022-09-19_09h14.32.986,t1_Paradigm,2021.1.4,59.970526332014295,
K,left,Distractor,0,50,50,50,1709.838114144048,1711.8403263971584,left,1,3,1.0326114852382489,D27A02,2022-09-19_09h14.32.986,t1_Paradigm,2021.1.4,59.970526332014295,
Y,left,Distractor,0,51,51,51,1713.3379486100273,1715.3372527896975,left,1,3,0.81592167802728,D27A02,2022-09-19_09h14.32.986,t1_Paradigm,2021.1.4,59.970526332014295,
X,left,Distractor,0,52,52,52,1716.8382492018438,1718.8399815346158,left,1,3,0.9611697609125258,D27A02,2022-09-19_09h14.32.986,t1_Paradigm,2021.1.4,59.970526332014295,
F,left,Pretarget,0,53,53,53,1720.33717451392,1722.340007198805,left,1,3,0.804987771013657,D27A02,2022-09-19_09h14.32.986,t1_Paradigm,2021.1.4,59.970526332014295,
M,left,Lure,0,54,54,54,1723.8378504445038,1725.8371668146635,right,0,3,0.684310903687674,D27A02,2022-09-19_09h14.32.986,t1_Paradigm,2021.1.4,59.970526332014295,
V,left,Distractor,0,55,55,55,1727.3383560290315,1729.340281484827,left,1,3,0.7167000728863968,D27A02,2022-09-19_09h14.32.986,t1_Paradigm,2021.1.4,59.970526332014295,
F,right,Target,0,56,56,56,1730.8381641892167,1732.839927319016,right,1,3,1.0731211247075407,D27A02,2022-09-19_09h14.32.986,t1_Paradigm,2021.1.4,59.970526332014295,
S,left,Distractor,0,57,57,57,1734.3379030560916,1736.3396652234835,left,1,3,0.8213326515215158,D27A02,2022-09-19_09h14.32.986,t1_Paradigm,2021.1.4,59.970526332014295,
D,left,Distractor,0,58,58,58,1737.8383505753911,1739.837297060424,left,1,3,0.8118401095348418,D27A02,2022-09-19_09h14.32.986,t1_Paradigm,2021.1.4,59.970526332014295,
F,right,Target,0,59,59,59,1741.338216800805,1743.3397130230362,right,1,3,0.9410512821827979,D27A02,2022-09-19_09h14.32.986,t1_Paradigm,2021.1.4,59.970526332014295,
V,left,Pretarget,0,60,60,60,1744.837257922535,1746.8385112973758,left,1,3,0.7705647148195567,D27A02,2022-09-19_09h14.32.986,t1_Paradigm,2021.1.4,59.970526332014295,
J,left,Distractor,0,61,61,61,1748.33813884583,1750.3404957808073,left,1,3,0.628806640865605,D27A02,2022-09-19_09h14.32.986,t1_Paradigm,2021.1.4,59.970526332014295,
V,left,Lure,0,62,62,62,1751.8381754172995,1753.8371501329405,left,1,3,0.6518899750544733,D27A02,2022-09-19_09h14.32.986,t1_Paradigm,2021.1.4,59.970526332014295,
V,right,Target,0,63,63,63,1755.3380846302305,1757.3381426954586,left,0,3,1.1833481757894333,D27A02,2022-09-19_09h14.32.986,t1_Paradigm,2021.1.4,59.970526332014295,
R,left,Distractor,0,0,0,0,1881.1991842637456,1883.190258900341,left,1,4,0.6910477533565427,D27A02,2022-09-19_09h14.32.986,t1_Paradigm,2021.1.4,59.970526332014295,
F,left,Distractor,0,1,1,1,1884.6882320709972,1886.6906146701638,left,1,4,0.43857019669030706,D27A02,2022-09-19_09h14.32.986,t1_Paradigm,2021.1.4,59.970526332014295,
P,left,Pretarget,0,2,2,2,1888.188269604874,1890.1900388299184,left,1,4,0.6192085549005242,D27A02,2022-09-19_09h14.32.986,t1_Paradigm,2021.1.4,59.970526332014295,
H,left,Distractor,0,3,3,3,1891.6882882114112,1893.6904164143023,left,1,4,0.4950914030096101,D27A02,2022-09-19_09h14.32.986,t1_Paradigm,2021.1.4,59.970526332014295,
Z,left,Distractor,0,4,4,4,1895.1882750585144,1897.190045566768,left,1,4,0.6112959645629417,D27A02,2022-09-19_09h14.32.986,t1_Paradigm,2021.1.4,59.970526332014295,
T,left,Distractor,0,5,5,5,1898.6883421062087,1900.687447388412,left,1,4,0.6015785401182256,D27A02,2022-09-19_09h14.32.986,t1_Paradigm,2021.1.4,59.970526332014295,
P,right,Target,0,6,6,6,1902.1883960010061,1904.1902139880096,right,1,4,0.8752094839446727,D27A02,2022-09-19_09h14.32.986,t1_Paradigm,2021.1.4,59.970526332014295,
G,left,Distractor,0,7,7,7,1905.6884341764874,1907.6903304392683,left,1,4,0.5746677129100135,D27A02,2022-09-19_09h14.32.986,t1_Paradigm,2021.1.4,59.970526332014295,
L,left,Distractor,0,8,8,8,1909.1882542063606,1911.19019506067,left,1,4,0.5631974243419791,D27A02,2022-09-19_09h14.32.986,t1_Paradigm,2021.1.4,59.970526332014295,
P,left,Lure,0,9,9,9,1912.6882038403894,1914.69008245904,left,1,4,1.3991259418753543,D27A02,2022-09-19_09h14.32.986,t1_Paradigm,2021.1.4,59.970526332014295,
Q,left,Pretarget,0,10,10,10,1916.1884514998153,1918.1901017071816,left,1,4,0.9232951920707819,D27A02,2022-09-19_09h14.32.986,t1_Paradigm,2021.1.4,59.970526332014295,
D,left,Distractor,0,11,11,11,1919.6883174044267,1921.6887033296719,left,1,4,0.8806518960700487,D27A02,2022-09-19_09h14.32.986,t1_Paradigm,2021.1.4,59.970526332014295,
M,left,Pretarget,0,12,12,12,1923.1882680008623,1925.1902778276801,left,1,4,1.011236102841849,D27A02,2022-09-19_09h14.32.986,t1_Paradigm,2021.1.4,59.970526332014295,
C,left,Distractor,0,13,13,13,1926.6882946274584,1928.690471592309,left,1,4,0.7908939607027605,D27A02,2022-09-19_09h14.32.986,t1_Paradigm,2021.1.4,59.970526332014295,
Q,right,Target,0,14,14,14,1930.1884466877798,1932.1889827485318,right,1,4,0.7803790215784829,D27A02,2022-09-19_09h14.32.986,t1_Paradigm,2021.1.4,59.970526332014295,
R,left,Distractor,0,15,15,15,1933.6880453640208,1935.6892246335153,left,1,4,1.1360436214222318,D27A02,2022-09-19_09h14.32.986,t1_Paradigm,2021.1.4,59.970526332014295,
M,right,Target,0,16,16,16,1937.1883007227036,1939.190686850696,right,1,4,1.2665312666817954,D27A02,2022-09-19_09h14.32.986,t1_Paradigm,2021.1.4,59.970526332014295,
S,left,Distractor,0,17,17,17,1940.6874701653799,1942.6891194103393,left,1,4,0.7123086093088205,D27A02,2022-09-19_09h14.32.986,t1_Paradigm,2021.1.4,59.970526332014295,
Z,left,Distractor,0,18,18,18,1944.1883000810988,1946.1906987203836,left,1,4,1.0345452818951344,D27A02,2022-09-19_09h14.32.986,t1_Paradigm,2021.1.4,59.970526332014295,
L,left,Pretarget,0,19,19,19,1947.6883344069518,1949.690535111177,None,0,4,,D27A02,2022-09-19_09h14.32.986,t1_Paradigm,2021.1.4,59.970526332014295,
M,right,Target,0,20,20,20,1951.1884489333963,1953.1895040523752,right,1,4,1.0759618296515328,D27A02,2022-09-19_09h14.32.986,t1_Paradigm,2021.1.4,59.970526332014295,
P,left,Distractor,0,21,21,21,1954.6875102656757,1956.6873633381922,left,1,4,0.8578348278447265,D27A02,2022-09-19_09h14.32.986,t1_Paradigm,2021.1.4,59.970526332014295,
F,left,Distractor,0,22,22,22,1958.188418777974,1960.1902691660164,left,1,4,1.0356581453006584,D27A02,2022-09-19_09h14.32.986,t1_Paradigm,2021.1.4,59.970526332014295,
L,right,Target,0,23,23,23,1961.688336010964,1963.690258258736,right,1,4,0.9591175881823801,D27A02,2022-09-19_09h14.32.986,t1_Paradigm,2021.1.4,59.970526332014295,
L,left,Lure,0,24,24,24,1965.1885230387427,1967.1884396301277,left,1,4,1.124930385886728,D27A02,2022-09-19_09h14.32.986,t1_Paradigm,2021.1.4,59.970526332014295,
V,left,Pretarget,0,25,25,25,1968.688343389418,1970.6905383192009,left,1,4,0.9507302103434085,D27A02,2022-09-19_09h14.32.986,t1_Paradigm,2021.1.4,59.970526332014295,
Z,left,Distractor,0,26,26,26,1972.188384452121,1974.1905412064223,left,1,4,0.8272107132588644,D27A02,2022-09-19_09h14.32.986,t1_Paradigm,2021.1.4,59.970526332014295,
H,left,Distractor,0,27,27,27,1975.6883228580666,1977.6903281936518,left,1,4,0.8313959009155951,D27A02,2022-09-19_09h14.32.986,t1_Paradigm,2021.1.4,59.970526332014295,
X,left,Distractor,0,28,28,28,1979.1883440310228,1981.1907096276639,left,1,4,0.8505692958774489,D27A02,2022-09-19_09h14.32.986,t1_Paradigm,2021.1.4,59.970526332014295,
V,right,Target,0,29,29,29,1982.6884200611833,1984.6902435018271,right,1,4,1.0151502124995204,D27A02,2022-09-19_09h14.32.986,t1_Paradigm,2021.1.4,59.970526332014295,
C,left,Distractor,0,30,30,30,1986.1884816552376,1988.18979084969,left,1,4,1.0194634003000829,D27A02,2022-09-19_09h14.32.986,t1_Paradigm,2021.1.4,59.970526332014295,
S,left,Pretarget,0,31,31,31,1989.6883597503386,1991.690305416684,left,1,4,1.1990216169465384,D27A02,2022-09-19_09h14.32.986,t1_Paradigm,2021.1.4,59.970526332014295,
D,left,Distractor,0,32,32,32,1993.188336010964,1995.1908645752062,left,1,4,1.0905612244896474,D27A02,2022-09-19_09h14.32.986,t1_Paradigm,2021.1.4,59.970526332014295,
V,left,Distractor,0,33,33,33,1996.6884139659385,1998.6889853149507,right,0,4,0.6001490447788456,D27A02,2022-09-19_09h14.32.986,t1_Paradigm,2021.1.4,59.970526332014295,
R,left,Distractor,0,34,34,34,2000.1884675399335,2002.1874031176856,left,1,4,0.7181452875415744,D27A02,2022-09-19_09h14.32.986,t1_Paradigm,2021.1.4,59.970526332014295,
S,right,Target,0,35,35,35,2003.688470427155,2005.6901299377898,right,1,4,0.4633935629080952,D27A02,2022-09-19_09h14.32.986,t1_Paradigm,2021.1.4,59.970526332014295,
Y,left,Distractor,0,36,36,36,2007.18807102821,2009.1902569755264,left,1,4,0.9472440510412525,D27A02,2022-09-19_09h14.32.986,t1_Paradigm,2021.1.4,59.970526332014295,
N,left,Pretarget,0,37,37,37,2010.6883680912003,2012.6903490458055,left,1,4,0.6631700278198878,D27A02,2022-09-19_09h14.32.986,t1_Paradigm,2021.1.4,59.970526332014295,
Z,left,Pretarget,0,38,38,38,2014.1881502663944,2016.190354178643,left,1,4,1.211228788547487,D27A02,2022-09-19_09h14.32.986,t1_Paradigm,2021.1.4,59.970526332014295,
P,left,Pretarget,0,39,39,39,2017.6884393093253,2019.6903695771568,right,0,4,0.9269533014412445,D27A02,2022-09-19_09h14.32.986,t1_Paradigm,2021.1.4,59.970526332014295,
M,left,Distractor,0,40,40,40,2021.1884774848065,2023.1903737475875,left,1,4,0.8989725983451535,D27A02,2022-09-19_09h14.32.986,t1_Paradigm,2021.1.4,59.970526332014295,
N,right,Target,0,41,41,41,2024.688509244241,2026.6901822285756,right,1,4,0.6953843597298146,D27A02,2022-09-19_09h14.32.986,t1_Paradigm,2021.1.4,59.970526332014295,
Z,right,Target,0,42,42,42,2028.1882548479655,2030.1907362542604,right,1,4,1.0825973057731062,D27A02,2022-09-19_09h14.32.986,t1_Paradigm,2021.1.4,59.970526332014295,
P,right,Target,0,43,43,43,2031.688432893278,2033.6901443738964,right,1,4,1.423343633227887,D27A02,2022-09-19_09h14.32.986,t1_Paradigm,2021.1.4,59.970526332014295,
X,left,Pretarget,0,44,44,44,2035.1884300060567,2037.190214950417,left,1,4,1.2191558149920638,D27A02,2022-09-19_09h14.32.986,t1_Paradigm,2021.1.4,59.970526332014295,
Z,left,Lure,0,45,45,45,2038.6885156602882,2040.6901068400196,None,0,4,,D27A02,2022-09-19_09h14.32.986,t1_Paradigm,2021.1.4,59.970526332014295,
R,left,Pretarget,0,46,46,46,2042.1884402717326,2044.1900968951466,left,1,4,1.2272323353386128,D27A02,2022-09-19_09h14.32.986,t1_Paradigm,2021.1.4,59.970526332014295,
K,left,Distractor,0,47,47,47,2045.688426477231,2047.6907561440069,left,1,4,0.670566447152396,D27A02,2022-09-19_09h14.32.986,t1_Paradigm,2021.1.4,59.970526332014295,
X,right,Target,0,48,48,48,2049.1884588782696,2051.1905299783393,right,1,4,0.9470217350017265,D27A02,2022-09-19_09h14.32.986,t1_Paradigm,2021.1.4,59.970526332014295,
B,left,Distractor,0,49,49,49,2052.688447970989,2054.690611782942,left,1,4,0.7268239539275783,D27A02,2022-09-19_09h14.32.986,t1_Paradigm,2021.1.4,59.970526332014295,
R,right,Target,0,50,50,50,2056.1883976050176,2058.187667779637,right,1,4,1.2457442358231674,D27A02,2022-09-19_09h14.32.986,t1_Paradigm,2021.1.4,59.970526332014295,
Y,left,Pretarget,0,51,51,51,2059.688442838151,2061.6902245744877,left,1,4,0.8793112629859934,D27A02,2022-09-19_09h14.32.986,t1_Paradigm,2021.1.4,59.970526332014295,
W,left,Pretarget,0,52,52,52,2063.187550045169,2065.190990650536,left,1,4,1.170442617439221,D27A02,2022-09-19_09h14.32.986,t1_Paradigm,2021.1.4,59.970526332014295,
Z,left,Distractor,0,53,53,53,2066.688435459697,2068.690330439268,right,0,4,1.0952696408039628,D27A02,2022-09-19_09h14.32.986,t1_Paradigm,2021.1.4,59.970526332014295,
Q,left,Distractor,0,54,54,54,2070.188547740525,2072.1906842842773,left,1,4,1.0986999804954394,D27A02,2022-09-19_09h14.32.986,t1_Paradigm,2021.1.4,59.970526332014295,
Y,right,Target,0,55,55,55,2073.688430326859,2075.6903862588797,left,0,4,1.0551148087502042,D27A02,2022-09-19_09h14.32.986,t1_Paradigm,2021.1.4,59.970526332014295,
W,right,Target,0,56,56,56,2077.1885599310144,2079.1907016076048,right,1,4,0.8346706514594189,D27A02,2022-09-19_09h14.32.986,t1_Paradigm,2021.1.4,59.970526332014295,
H,left,Pretarget,0,57,57,57,2080.688539720466,2082.690382088449,left,1,4,0.7911358456863127,D27A02,2022-09-19_09h14.32.986,t1_Paradigm,2021.1.4,59.970526332014295,
M,left,Distractor,0,58,58,58,2084.1885701966903,2086.190458760214,left,1,4,0.7471076458750758,D27A02,2022-09-19_09h14.32.986,t1_Paradigm,2021.1.4,59.970526332014295,
R,left,Pretarget,0,59,59,59,2087.68855383577,2089.690316965569,left,1,4,1.1510895731530582,D27A02,2022-09-19_09h14.32.986,t1_Paradigm,2021.1.4,59.970526332014295,
J,left,Distractor,0,60,60,60,2091.188426798033,2093.1903978077653,left,1,4,0.8350270628875478,D27A02,2022-09-19_09h14.32.986,t1_Paradigm,2021.1.4,59.970526332014295,
H,right,Target,0,61,61,61,2094.688497695356,2096.690044604361,left,0,4,1.0475076222642201,D27A02,2022-09-19_09h14.32.986,t1_Paradigm,2021.1.4,59.970526332014295,
Z,left,Distractor,0,62,62,62,2098.1884691439454,2100.187477223032,left,1,4,1.0699493517222436,D27A02,2022-09-19_09h14.32.986,t1_Paradigm,2021.1.4,59.970526332014295,
R,right,Target,0,63,63,63,2101.688491600111,2103.6905559633306,right,1,4,0.9428548330802187,D27A02,2022-09-19_09h14.32.986,t1_Paradigm,2021.1.4,59.970526332014295,
J,left,Pretarget,0,0,0,0,2114.4465135840555,2116.4407481239477,left,1,4,0.8005481870814037,D27A02,2022-09-19_09h14.32.986,t1_Paradigm,2021.1.4,59.970526332014295,
G,left,Pretarget,0,1,1,1,2117.938282757771,2119.940577777892,left,1,4,0.35665748316432655,D27A02,2022-09-19_09h14.32.986,t1_Paradigm,2021.1.4,59.970526332014295,
Z,left,Distractor,0,2,2,2,2121.4386160714284,2123.4407413870977,left,1,4,0.45681037757140075,D27A02,2022-09-19_09h14.32.986,t1_Paradigm,2021.1.4,59.970526332014295,
F,left,Distractor,0,3,3,3,2124.9385156602884,2126.9398184386937,left,1,4,0.5737739575206433,D27A02,2022-09-19_09h14.32.986,t1_Paradigm,2021.1.4,59.970526332014295,
J,right,Target,0,4,4,4,2128.438548702932,2130.44039171252,right,1,4,0.48131647025002167,D27A02,2022-09-19_09h14.32.986,t1_Paradigm,2021.1.4,59.970526332014295,
G,right,Target,0,5,5,5,2131.9385207931264,2133.937556782019,right,1,4,0.6481272841128884,D27A02,2022-09-19_09h14.32.986,t1_Paradigm,2021.1.4,59.970526332014295,
H,left,Distractor,0,6,6,6,2135.438507319427,2137.440274298854,left,1,4,0.6491249794685245,D27A02,2022-09-19_09h14.32.986,t1_Paradigm,2021.1.4,59.970526332014295,
P,left,Distractor,0,7,7,7,2138.9382891738187,2140.9391543777974,left,1,4,0.7503073286661675,D27A02,2022-09-19_09h14.32.986,t1_Paradigm,2021.1.4,59.970526332014295,
G,left,Lure,0,8,8,8,2142.438427439638,2144.451515213731,right,0,4,1.4460968617831895,D27A02,2022-09-19_09h14.32.986,t1_Paradigm,2021.1.4,59.970526332014295,
S,left,Distractor,0,9,9,9,2145.9383074595535,2147.9402752612614,left,1,4,0.645389877530306,D27A02,2022-09-19_09h14.32.986,t1_Paradigm,2021.1.4,59.970526332014295,
R,left,Pretarget,0,10,10,10,2149.438456953455,2151.440611141338,left,1,4,0.6650056589533051,D27A02,2022-09-19_09h14.32.986,t1_Paradigm,2021.1.4,59.970526332014295,
T,left,Pretarget,0,11,11,11,2152.9382490735225,2154.940272053238,left,1,4,0.6852941629367706,D27A02,2022-09-19_09h14.32.986,t1_Paradigm,2021.1.4,59.970526332014295,
X,left,Distractor,0,12,12,12,2156.4384996201698,2158.4386590589456,left,1,4,0.6107990416990106,D27A02,2022-09-19_09h14.32.986,t1_Paradigm,2021.1.4,59.970526332014295,
F,left,Pretarget,0,13,13,13,2159.938463690305,2161.9403006046487,left,1,4,0.5816108385006373,D27A02,2022-09-19_09h14.32.986,t1_Paradigm,2021.1.4,59.970526332014295,
R,right,Target,0,14,14,14,2163.437610676816,2165.440515863035,right,1,4,0.47311804500486687,D27A02,2022-09-19_09h14.32.986,t1_Paradigm,2021.1.4,59.970526332014295,
T,right,Target,0,15,15,15,2166.938543570094,2168.939930719521,right,1,4,0.6215940412885175,D27A02,2022-09-19_09h14.32.986,t1_Paradigm,2021.1.4,59.970526332014295,
C,left,Distractor,0,16,16,16,2170.438247469511,2172.4402951510083,left,1,4,0.7852866561615883,D27A02,2022-09-19_09h14.32.986,t1_Paradigm,2021.1.4,59.970526332014295,
F,right,Target,0,17,17,17,2173.9384883920875,2175.940650920831,left,0,4,0.5977115884079467,D27A02,2022-09-19_09h14.32.986,t1_Paradigm,2021.1.4,59.970526332014295,
M,left,Distractor,0,18,18,18,2177.4385467781176,2179.44067658502,left,1,4,0.8405917007144126,D27A02,2022-09-19_09h14.32.986,t1_Paradigm,2021.1.4,59.970526332014295,
N,left,Distractor,0,19,19,19,2180.93856474305,2182.94076608888,left,1,4,0.7167385691700474,D27A02,2022-09-19_09h14.32.986,t1_Paradigm,2021.1.4,59.970526332014295,
R,left,Lure,0,20,20,20,2184.4385259259643,2186.440042358744,left,1,4,0.801321641584309,D27A02,2022-09-19_09h14.32.986,t1_Paradigm,2021.1.4,59.970526332014295,
F,right,Target,0,21,21,21,2187.9383671287933,2189.9403615570973,right,1,4,1.0293069000740616,D27A02,2022-09-19_09h14.32.986,t1_Paradigm,2021.1.4,59.970526332014295,
P,left,Distractor,0,22,22,22,2191.438676382273,2193.440800735536,left,1,4,1.19271464244639,D27A02,2022-09-19_09h14.32.986,t1_Paradigm,2021.1.4,59.970526332014295,
L,left,Pretarget,0,23,23,23,2194.9386523220955,2196.9404844244036,left,1,4,0.7009823610028434,D27A02,2022-09-19_09h14.32.986,t1_Paradigm,2021.1.4,59.970526332014295,
T,left,Distractor,0,24,24,24,2198.438587520018,2200.440624294235,left,1,4,1.1689473576152523,D27A02,2022-09-19_09h14.32.986,t1_Paradigm,2021.1.4,59.970526332014295,
F,left,Distractor,0,25,25,25,2201.9386975552297,2203.940062248491,right,0,4,0.8855069190658469,D27A02,2022-09-19_09h14.32.986,t1_Paradigm,2021.1.4,59.970526332014295,
V,left,Distractor,0,26,26,26,2205.437669062846,2207.4402547299096,left,1,4,0.6655712335236785,D27A02,2022-09-19_09h14.32.986,t1_Paradigm,2021.1.4,59.970526332014295,
L,right,Target,0,27,27,27,2208.938686006344,2210.9515437651417,right,1,4,0.5620742952614819,D27A02,2022-09-19_09h14.32.986,t1_Paradigm,2021.1.4,59.970526332014295,
S,left,Pretarget,0,28,28,28,2212.4380010932946,2214.44043373763,left,1,4,0.641265000718704,D27A02,2022-09-19_09h14.32.986,t1_Paradigm,2021.1.4,59.970526332014295,
W,left,Distractor,0,29,29,29,2215.9386937056006,2217.94057617388,left,1,4,0.708943392497531,D27A02,2022-09-19_09h14.32.986,t1_Paradigm,2021.1.4,59.970526332014295,
Q,left,Distractor,0,30,30,30,2219.4384271188355,2221.440484745206,left,1,4,0.8727938421343424,D27A02,2022-09-19_09h14.32.986,t1_Paradigm,2021.1.4,59.970526332014295,
L,right,Target,0,31,31,31,2222.9383664871884,2224.9405351111773,right,1,4,0.605135275941393,D27A02,2022-09-19_09h14.32.986,t1_Paradigm,2021.1.4,59.970526332014295,
S,right,Target,0,32,32,32,2226.4387097457193,2228.4404635722494,right,1,4,0.848874176179379,D27A02,2022-09-19_09h14.32.986,t1_Paradigm,2021.1.4,59.970526332014295,
Z,left,Pretarget,0,33,33,33,2229.9386138258124,2231.940647071203,left,1,4,0.7089793223626657,D27A02,2022-09-19_09h14.32.986,t1_Paradigm,2021.1.4,59.970526332014295,
F,left,Distractor,0,34,34,34,2233.4386449436415,2235.439272112266,left,1,4,0.8740693523386653,D27A02,2022-09-19_09h14.32.986,t1_Paradigm,2021.1.4,59.970526332014295,
V,left,Distractor,0,35,35,35,2236.9386949888103,2238.9409486254262,left,1,4,0.9568103775714007,D27A02,2022-09-19_09h14.32.986,t1_Paradigm,2021.1.4,59.970526332014295,
M,left,Distractor,0,36,36,36,2240.4386183170454,2242.4405383192006,left,1,4,0.832902068020303,D27A02,2022-09-19_09h14.32.986,t1_Paradigm,2021.1.4,59.970526332014295,
Z,right,Target,0,37,37,37,2243.9385801415638,2245.940459722621,right,1,4,0.693143555208735,D27A02,2022-09-19_09h14.32.986,t1_Paradigm,2021.1.4,59.970526332014295,
H,left,Pretarget,0,38,38,38,2247.438692743194,2249.4403115119285,left,1,4,0.7134487409148278,D27A02,2022-09-19_09h14.32.986,t1_Paradigm,2021.1.4,59.970526332014295,
L,left,Distractor,0,39,39,39,2250.938581103971,2252.9514719054123,right,0,4,0.6581234858131211,D27A02,2022-09-19_09h14.32.986,t1_Paradigm,2021.1.4,59.970526332014295,
G,left,Distractor,0,40,40,40,2254.4386420564197,2256.440455872993,left,1,4,0.9454100239186118,D27A02,2022-09-19_09h14.32.986,t1_Paradigm,2021.1.4,59.970526332014295,
K,left,Distractor,0,41,41,41,2257.938705254486,2259.9407205349444,left,1,4,0.6768663640000341,D27A02,2022-09-19_09h14.32.986,t1_Paradigm,2021.1.4,59.970526332014295,
H,right,Target,0,42,42,42,2261.4387293146638,2263.4398973560756,right,1,4,0.8734662438919258,D27A02,2022-09-19_09h14.32.986,t1_Paradigm,2021.1.4,59.970526332014295,
B,left,Distractor,0,43,43,43,2264.9387662069357,2266.9376613635895,left,1,4,1.0880223945714533,D27A02,2022-09-19_09h14.32.986,t1_Paradigm,2021.1.4,59.970526332014295,
Z,left,Distractor,0,44,44,44,2268.4386064473574,2270.4408928058147,left,1,4,0.8325328244982302,D27A02,2022-09-19_09h14.32.986,t1_Paradigm,2021.1.4,59.970526332014295,
T,left,Pretarget,0,45,45,45,2271.938598748101,2273.94014212828,left,1,4,0.7416068477191402,D27A02,2022-09-19_09h14.32.986,t1_Paradigm,2021.1.4,59.970526332014295,
H,right,Target,0,46,46,46,2275.438741184351,2277.440311832731,right,1,4,0.8890354242803369,D27A02,2022-09-19_09h14.32.986,t1_Paradigm,2021.1.4,59.970526332014295,
F,left,Distractor,0,47,47,47,2278.938489354494,2280.9404106398597,left,1,4,1.1817326150785448,D27A02,2022-09-19_09h14.32.986,t1_Paradigm,2021.1.4,59.970526332014295,
R,left,Distractor,0,48,48,48,2282.438665795795,2284.4402072511602,left,1,4,0.9933940376954524,D27A02,2022-09-19_09h14.32.986,t1_Paradigm,2021.1.4,59.970526332014295,
T,right,Target,0,49,49,49,2285.9386433396294,2287.9398396116494,right,1,4,1.0777442075923318,D27A02,2022-09-19_09h14.32.986,t1_Paradigm,2021.1.4,59.970526332014295,
H,right,Target,0,50,50,50,2289.4386545677125,2291.4410727759414,right,1,4,0.9685119646451312,D27A02,2022-09-19_09h14.32.986,t1_Paradigm,2021.1.4,59.970526332014295,
Y,left,Pretarget,0,51,51,51,2292.938654888515,2294.9401527147575,left,1,4,0.8457171601035043,D27A02,2022-09-19_09h14.32.986,t1_Paradigm,2021.1.4,59.970526332014295,
H,left,Distractor,0,52,52,52,2296.438628261918,2298.4410448661356,left,1,4,0.9768098386239217,D27A02,2022-09-19_09h14.32.986,t1_Paradigm,2021.1.4,59.970526332014295,
S,left,Distractor,0,53,53,53,2299.9384181363694,2301.940141486675,left,1,4,1.1416445099166594,D27A02,2022-09-19_09h14.32.986,t1_Paradigm,2021.1.4,59.970526332014295,
Q,left,Distractor,0,54,54,54,2303.4386686830167,2305.440205647148,left,1,4,1.2735613297127202,D27A02,2022-09-19_09h14.32.986,t1_Paradigm,2021.1.4,59.970526332014295,
Y,right,Target,0,55,55,55,2306.938657775736,2308.940747482343,left,0,4,1.2130871966492123,D27A02,2022-09-19_09h14.32.986,t1_Paradigm,2021.1.4,59.970526332014295,
R,left,Distractor,0,56,56,56,2310.4378474289615,2312.4409887257216,right,0,4,0.8805495601154689,D27A02,2022-09-19_09h14.32.986,t1_Paradigm,2021.1.4,59.970526332014295,
H,left,Pretarget,0,57,57,57,2313.9386943472055,2315.9405803443105,None,0,4,,D27A02,2022-09-19_09h14.32.986,t1_Paradigm,2021.1.4,59.970526332014295,
J,left,Distractor,0,58,58,58,2317.4387652445284,2319.4405543593193,left,1,4,0.9690756144009356,D27A02,2022-09-19_09h14.32.986,t1_Paradigm,2021.1.4,59.970526332014295,
V,left,Distractor,0,59,59,59,2320.937686065372,2322.9515774493902,right,0,4,1.1220200668299185,D27A02,2022-09-19_09h14.32.986,t1_Paradigm,2021.1.4,59.970526332014295,
Y,left,Lure,0,60,60,60,2324.438421665195,2326.4404164143025,right,0,4,0.7053776742081936,D27A02,2022-09-19_09h14.32.986,t1_Paradigm,2021.1.4,59.970526332014295,
H,right,Target,0,61,61,61,2327.9386603421553,2329.940585156346,right,1,4,1.1572290888184398,D27A02,2022-09-19_09h14.32.986,t1_Paradigm,2021.1.4,59.970526332014295,
L,left,Distractor,0,62,62,62,2331.4384113995193,2333.440255050712,left,1,4,0.8092964675811345,D27A02,2022-09-19_09h14.32.986,t1_Paradigm,2021.1.4,59.970526332014295,
P,left,Distractor,0,63,63,63,2334.9387328434896,2336.9404667802737,left,1,4,0.8293751668170444,D27A02,2022-09-19_09h14.32.986,t1_Paradigm,2021.1.4,59.970526332014295,
