Letter,CorrAnswer,Stimulus,nback_run.thisRepN,nback_run.thisTrialN,nback_run.thisN,nback_run.thisIndex,fixcross.started,nback_trial.started,trial_resp.keys,trial_resp.corr,currentlevel,trial_resp.rt,Participant,date,expName,psychopyVersion,frameRate,
H,left,Distractor,0,0,0,0,294.8377897002065,296.7778026221058,None,0,1,,D27N05,2023-01-27_08h58.07.423,t1_Paradigm,2021.1.4,59.972449352854916,
Q,left,Pretarget,0,1,1,1,298.27905342892336,300.27731019111525,left,1,1,1.4579444679111475,D27N05,2023-01-27_08h58.07.423,t1_Paradigm,2021.1.4,59.972449352854916,
Q,right,Target,0,2,2,2,301.7759387627593,303.77620438678423,right,1,1,1.0150635765312472,D27N05,2023-01-27_08h58.07.423,t1_Paradigm,2021.1.4,59.972449352854916,
T,left,Distractor,0,3,3,3,305.2757616800809,307.27784881759726,left,1,1,0.7615090908802813,D27N05,2023-01-27_08h58.07.423,t1_Paradigm,2021.1.4,59.972449352854916,
Q,left,Lure,0,4,4,4,308.7762428830174,310.776487013296,left,1,1,1.3269113059650408,D27N05,2023-01-27_08h58.07.423,t1_Paradigm,2021.1.4,59.972449352854916,
L,left,Distractor,0,5,5,5,312.2759644269245,314.2774770081305,left,1,1,0.6577219596656505,D27N05,2023-01-27_08h58.07.423,t1_Paradigm,2021.1.4,59.972449352854916,
V,left,Pretarget,0,6,6,6,315.7763009481714,317.77767622613464,left,1,1,0.8215638581896201,D27N05,2023-01-27_08h58.07.423,t1_Paradigm,2021.1.4,59.972449352854916,
V,right,Target,0,7,7,7,319.2757504520123,321.27574884799833,right,1,1,0.6996202988084406,D27N05,2023-01-27_08h58.07.423,t1_Paradigm,2021.1.4,59.972449352854916,
K,left,Distractor,0,8,8,8,322.77627945443965,324.77755688781326,left,1,1,0.5096150761528406,D27N05,2023-01-27_08h58.07.423,t1_Paradigm,2021.1.4,59.972449352854916,
G,left,Pretarget,0,9,9,9,326.2759650685184,328.2775126171473,left,1,1,0.7056616412010044,D27N05,2023-01-27_08h58.07.423,t1_Paradigm,2021.1.4,59.972449352854916,
G,right,Target,0,10,10,10,329.77598175022285,331.7759474244085,right,1,1,0.8393218503333628,D27N05,2023-01-27_08h58.07.423,t1_Paradigm,2021.1.4,59.972449352854916,
G,right,Target,0,11,11,11,333.27588807605207,335.2757911938679,right,1,1,0.6834252537810244,D27N05,2023-01-27_08h58.07.423,t1_Paradigm,2021.1.4,59.972449352854916,
P,left,Pretarget,0,12,12,12,336.7762566774909,338.7774308126536,left,1,1,0.6857010228559375,D27N05,2023-01-27_08h58.07.423,t1_Paradigm,2021.1.4,59.972449352854916,
P,right,Target,0,13,13,13,340.2759028329456,342.2756667227077,right,1,1,0.8997859609371517,D27N05,2023-01-27_08h58.07.423,t1_Paradigm,2021.1.4,59.972449352854916,
G,left,Lure,0,14,14,14,343.7759859206417,345.7761630033201,left,1,1,0.6152060767635703,D27N05,2023-01-27_08h58.07.423,t1_Paradigm,2021.1.4,59.972449352854916,
Y,left,Distractor,0,15,15,15,347.27551466257137,349.2775854391948,left,1,1,0.6815078205108875,D27N05,2023-01-27_08h58.07.423,t1_Paradigm,2021.1.4,59.972449352854916,
B,left,Distractor,0,16,16,16,350.77623775017855,352.7775389229064,left,1,1,0.6057360030827112,D27N05,2023-01-27_08h58.07.423,t1_Paradigm,2021.1.4,59.972449352854916,
T,left,Pretarget,0,17,17,17,354.2756044871203,356.27760982014297,left,1,1,0.7375933052535402,D27N05,2023-01-27_08h58.07.423,t1_Paradigm,2021.1.4,59.972449352854916,
T,right,Target,0,18,18,18,357.7758813392138,359.7759134194057,right,1,1,0.6795618358592037,D27N05,2023-01-27_08h58.07.423,t1_Paradigm,2021.1.4,59.972449352854916,
S,left,Distractor,0,19,19,19,361.27578317381267,363.2791288173903,left,1,1,0.6159987783903489,D27N05,2023-01-27_08h58.07.423,t1_Paradigm,2021.1.4,59.972449352854916,
T,left,Lure,0,20,20,20,364.7760629131226,366.77789437146566,left,1,1,0.8773609419731656,D27N05,2023-01-27_08h58.07.423,t1_Paradigm,2021.1.4,59.972449352854916,
J,left,Distractor,0,21,21,21,368.27564651217835,370.2774096397188,left,1,1,0.833711024155491,D27N05,2023-01-27_08h58.07.423,t1_Paradigm,2021.1.4,59.972449352854916,
P,left,Distractor,0,22,22,22,371.77627817122266,373.77617679780815,left,1,1,0.6311816932429792,D27N05,2023-01-27_08h58.07.423,t1_Paradigm,2021.1.4,59.972449352854916,
F,left,Distractor,0,23,23,23,375.27561475278344,377.2774587224121,left,1,1,0.5377404250320978,D27N05,2023-01-27_08h58.07.423,t1_Paradigm,2021.1.4,59.972449352854916,
L,left,Distractor,0,24,24,24,378.7761395847774,380.7762945321301,left,1,1,0.6868584762996761,D27N05,2023-01-27_08h58.07.423,t1_Paradigm,2021.1.4,59.972449352854916,
W,left,Pretarget,0,25,25,25,382.27601415122626,384.2771799455222,left,1,1,0.5621848922892241,D27N05,2023-01-27_08h58.07.423,t1_Paradigm,2021.1.4,59.972449352854916,
W,right,Target,0,26,26,26,385.77582295326283,387.7761941211211,right,1,1,0.7590071564482059,D27N05,2023-01-27_08h58.07.423,t1_Paradigm,2021.1.4,59.972449352854916,
V,left,Distractor,0,27,27,27,389.2756189232168,391.2758261612762,left,1,1,0.6996023339015665,D27N05,2023-01-27_08h58.07.423,t1_Paradigm,2021.1.4,59.972449352854916,
W,left,Lure,0,28,28,28,392.77582519887073,394.777520316391,left,1,1,1.1655835323326755,D27N05,2023-01-27_08h58.07.423,t1_Paradigm,2021.1.4,59.972449352854916,
R,left,Pretarget,0,29,29,29,396.27569623648014,398.27742856703117,left,1,1,1.121789574448485,D27N05,2023-01-27_08h58.07.423,t1_Paradigm,2021.1.4,59.972449352854916,
R,right,Target,0,30,30,30,399.7758588830766,401.77583353972295,right,1,1,0.5832715254946379,D27N05,2023-01-27_08h58.07.423,t1_Paradigm,2021.1.4,59.972449352854916,
G,left,Distractor,0,31,31,31,403.2759631437075,405.27665158470336,left,1,1,0.6184471388987731,D27N05,2023-01-27_08h58.07.423,t1_Paradigm,2021.1.4,59.972449352854916,
R,left,Lure,0,32,32,32,406.77585759987414,408.7778260406485,left,1,1,0.717309960120474,D27N05,2023-01-27_08h58.07.423,t1_Paradigm,2021.1.4,59.972449352854916,
S,left,Distractor,0,33,33,33,410.27586497830634,412.2776576196338,left,1,1,0.689564119966235,D27N05,2023-01-27_08h58.07.423,t1_Paradigm,2021.1.4,59.972449352854916,
R,left,Lure,0,34,34,34,413.7759211186494,415.77778433640196,left,1,1,1.2853658489621012,D27N05,2023-01-27_08h58.07.423,t1_Paradigm,2021.1.4,59.972449352854916,
P,left,Pretarget,0,35,35,35,417.2757950434898,419.27591374020267,left,1,1,0.7314525142573984,D27N05,2023-01-27_08h58.07.423,t1_Paradigm,2021.1.4,59.972449352854916,
P,right,Target,0,36,36,36,420.7757539808372,422.7763359155797,right,1,1,0.6547830929775955,D27N05,2023-01-27_08h58.07.423,t1_Paradigm,2021.1.4,59.972449352854916,
Y,left,Pretarget,0,37,37,37,424.27561603600043,426.27723416105437,left,1,1,0.6739846939017298,D27N05,2023-01-27_08h58.07.423,t1_Paradigm,2021.1.4,59.972449352854916,
Y,right,Target,0,38,38,38,427.7759034745395,429.775933629935,right,1,1,0.6473462620779173,D27N05,2023-01-27_08h58.07.423,t1_Paradigm,2021.1.4,59.972449352854916,
J,left,Distractor,0,39,39,39,431.2758983417152,433.2775180707831,left,1,1,0.6495565875520697,D27N05,2023-01-27_08h58.07.423,t1_Paradigm,2021.1.4,59.972449352854916,
Y,left,Lure,0,40,40,40,434.77595897328865,436.7778587624489,left,1,1,1.0532836004858837,D27N05,2023-01-27_08h58.07.423,t1_Paradigm,2021.1.4,59.972449352854916,
T,left,Distractor,0,41,41,41,438.2756115447701,440.2772588627995,left,1,1,0.8817815928923665,D27N05,2023-01-27_08h58.07.423,t1_Paradigm,2021.1.4,59.972449352854916,
V,left,Distractor,0,42,42,42,441.7762082364061,443.77644178022456,left,1,1,0.7588679283944657,D27N05,2023-01-27_08h58.07.423,t1_Paradigm,2021.1.4,59.972449352854916,
N,left,Pretarget,0,43,43,43,445.2758989833237,447.2773429129156,left,1,1,0.6177230888861232,D27N05,2023-01-27_08h58.07.423,t1_Paradigm,2021.1.4,59.972449352854916,
N,right,Target,0,44,44,44,448.776268867965,450.7760353241465,right,1,1,1.0231638258555904,D27N05,2023-01-27_08h58.07.423,t1_Paradigm,2021.1.4,59.972449352854916,
N,right,Target,0,45,45,45,452.27566062746337,454.2760885772732,right,1,1,0.6910064455587417,D27N05,2023-01-27_08h58.07.423,t1_Paradigm,2021.1.4,59.972449352854916,
X,left,Distractor,0,46,46,46,455.77632500830805,457.77742664222023,left,1,1,0.549640573488432,D27N05,2023-01-27_08h58.07.423,t1_Paradigm,2021.1.4,59.972449352854916,
Z,left,Distractor,0,47,47,47,459.27557625655027,461.2771154643269,left,1,1,0.7622020231065108,D27N05,2023-01-27_08h58.07.423,t1_Paradigm,2021.1.4,59.972449352854916,
H,left,Pretarget,0,48,48,48,462.77620438678423,464.77761559457576,left,1,1,0.5576548479002668,D27N05,2023-01-27_08h58.07.423,t1_Paradigm,2021.1.4,59.972449352854916,
H,right,Target,0,49,49,49,466.27600163994066,468.2758771687804,right,1,1,0.9154417378740618,D27N05,2023-01-27_08h58.07.423,t1_Paradigm,2021.1.4,59.972449352854916,
K,left,Distractor,0,50,50,50,469.77593523393443,471.7766904017335,left,1,1,0.5503668691089842,D27N05,2023-01-27_08h58.07.423,t1_Paradigm,2021.1.4,59.972449352854916,
V,left,Pretarget,0,51,51,51,473.27571933422587,475.2758389933588,left,1,1,0.6672061486169696,D27N05,2023-01-27_08h58.07.423,t1_Paradigm,2021.1.4,59.972449352854916,
V,right,Target,0,52,52,52,476.7759220810549,478.77622491811053,right,1,1,0.7828408167988528,D27N05,2023-01-27_08h58.07.423,t1_Paradigm,2021.1.4,59.972449352854916,
R,left,Distractor,0,53,53,53,480.27562084802776,482.2773926372174,left,1,1,0.6096497869148152,D27N05,2023-01-27_08h58.07.423,t1_Paradigm,2021.1.4,59.972449352854916,
V,left,Lure,0,54,54,54,483.77592432667734,485.77612771511485,left,1,1,0.5668894529226236,D27N05,2023-01-27_08h58.07.423,t1_Paradigm,2021.1.4,59.972449352854916,
Y,left,Distractor,0,55,55,55,487.27566640189616,489.2758608078875,left,1,1,1.1634639938274631,D27N05,2023-01-27_08h58.07.423,t1_Paradigm,2021.1.4,59.972449352854916,
Q,left,Distractor,0,56,56,56,490.7761549832794,492.77780294291733,left,1,1,0.6853414038487244,D27N05,2023-01-27_08h58.07.423,t1_Paradigm,2021.1.4,59.972449352854916,
Z,left,Pretarget,0,57,57,57,494.27569463248074,496.2757270334696,left,1,1,0.9796059782092925,D27N05,2023-01-27_08h58.07.423,t1_Paradigm,2021.1.4,59.972449352854916,
Z,right,Target,0,58,58,58,497.7759361963399,499.77632629152504,right,1,1,0.7429365825810237,D27N05,2023-01-27_08h58.07.423,t1_Paradigm,2021.1.4,59.972449352854916,
B,left,Distractor,0,59,59,59,501.27592015624396,503.27595063243643,left,1,1,0.8913216013897909,D27N05,2023-01-27_08h58.07.423,t1_Paradigm,2021.1.4,59.972449352854916,
S,left,Pretarget,0,60,60,60,504.7760042063601,506.7760905020841,left,1,1,0.9590932596911443,D27N05,2023-01-27_08h58.07.423,t1_Paradigm,2021.1.4,59.972449352854916,
S,right,Target,0,61,61,61,508.27587684798345,510.2755829933885,right,1,1,1.075593451532768,D27N05,2023-01-27_08h58.07.423,t1_Paradigm,2021.1.4,59.972449352854916,
T,left,Distractor,0,62,62,62,511.7758566374541,513.7775883264112,left,1,1,0.7095141518657329,D27N05,2023-01-27_08h58.07.423,t1_Paradigm,2021.1.4,59.972449352854916,
D,left,Distractor,0,63,63,63,515.2756381713261,517.2784429428139,left,1,1,0.6646073320007417,D27N05,2023-01-27_08h58.07.423,t1_Paradigm,2021.1.4,59.972449352854916,
R,left,Distractor,0,0,0,0,528.5912460204563,530.6052968252188,None,0,1,,D27N05,2023-01-27_08h58.07.423,t1_Paradigm,2021.1.4,59.972449352854916,
V,left,Distractor,0,1,1,1,532.0920922960067,534.0925430227508,left,1,1,0.7626736019883538,D27N05,2023-01-27_08h58.07.423,t1_Paradigm,2021.1.4,59.972449352854916,
N,left,Pretarget,0,2,2,2,535.5925465515757,537.5921907822049,left,1,1,0.6069855266978266,D27N05,2023-01-27_08h58.07.423,t1_Paradigm,2021.1.4,59.972449352854916,
N,right,Target,0,3,3,3,539.0926556242339,541.0921564564051,right,1,1,0.7549830167554319,D27N05,2023-01-27_08h58.07.423,t1_Paradigm,2021.1.4,59.972449352854916,
S,left,Distractor,0,4,4,4,542.5921991230571,544.5938409874652,left,1,1,0.6136225983209442,D27N05,2023-01-27_08h58.07.423,t1_Paradigm,2021.1.4,59.972449352854916,
N,left,Lure,0,5,5,5,546.0926296392863,548.1054257876094,left,1,1,0.8297638769290643,D27N05,2023-01-27_08h58.07.423,t1_Paradigm,2021.1.4,59.972449352854916,
Z,left,Distractor,0,6,6,6,549.5922084263148,551.5937258195627,left,1,1,0.5895262011763407,D27N05,2023-01-27_08h58.07.423,t1_Paradigm,2021.1.4,59.972449352854916,
L,left,Pretarget,0,7,7,7,553.092653057829,555.0922132383421,left,1,1,0.8028960717201699,D27N05,2023-01-27_08h58.07.423,t1_Paradigm,2021.1.4,59.972449352854916,
L,right,Target,0,8,8,8,556.5920903711958,558.5923877546156,right,1,1,0.7587954271584749,D27N05,2023-01-27_08h58.07.423,t1_Paradigm,2021.1.4,59.972449352854916,
H,left,Distractor,0,9,9,9,560.0925616292661,562.0925690077129,left,1,1,0.6344753668963676,D27N05,2023-01-27_08h58.07.423,t1_Paradigm,2021.1.4,59.972449352854916,
L,left,Lure,0,10,10,10,563.5920512333541,565.6089122632402,left,1,1,1.0382306104147574,D27N05,2023-01-27_08h58.07.423,t1_Paradigm,2021.1.4,59.972449352854916,
X,left,Pretarget,0,11,11,11,567.092447423769,569.0930572682846,left,1,1,0.5302423209650442,D27N05,2023-01-27_08h58.07.423,t1_Paradigm,2021.1.4,59.972449352854916,
X,right,Target,0,12,12,12,570.5923883962096,572.5927371079306,right,1,1,0.7744556953257415,D27N05,2023-01-27_08h58.07.423,t1_Paradigm,2021.1.4,59.972449352854916,
X,right,Target,0,13,13,13,574.092594992675,576.0925779901736,right,1,1,0.6025052066106582,D27N05,2023-01-27_08h58.07.423,t1_Paradigm,2021.1.4,59.972449352854916,
R,left,Distractor,0,14,14,14,577.5926164864068,579.5923495791794,left,1,1,0.5269425520673394,D27N05,2023-01-27_08h58.07.423,t1_Paradigm,2021.1.4,59.972449352854916,
T,left,Distractor,0,15,15,15,581.0922546217917,583.09346853639,left,1,1,1.1696641331800492,D27N05,2023-01-27_08h58.07.423,t1_Paradigm,2021.1.4,59.972449352854916,
V,left,Pretarget,0,16,16,16,584.592607824743,586.5940225613595,left,1,1,1.1412237568001729,D27N05,2023-01-27_08h58.07.423,t1_Paradigm,2021.1.4,59.972449352854916,
V,right,Target,0,17,17,17,588.0927213886462,590.0923373887053,right,1,1,0.7788516444998095,D27N05,2023-01-27_08h58.07.423,t1_Paradigm,2021.1.4,59.972449352854916,
N,left,Distractor,0,18,18,18,591.5922696994967,593.593920867148,left,1,1,0.5412955522624543,D27N05,2023-01-27_08h58.07.423,t1_Paradigm,2021.1.4,59.972449352854916,
B,left,Distractor,0,19,19,19,595.092566762105,597.0925747821457,left,1,1,0.8504190315143205,D27N05,2023-01-27_08h58.07.423,t1_Paradigm,2021.1.4,59.972449352854916,
V,left,Lure,0,20,20,20,598.5921150729555,600.5938952029828,left,1,1,0.8532379182724981,D27N05,2023-01-27_08h58.07.423,t1_Paradigm,2021.1.4,59.972449352854916,
P,left,Distractor,0,21,21,21,602.0922940804448,604.0926184112177,left,1,1,0.7626039879396558,D27N05,2023-01-27_08h58.07.423,t1_Paradigm,2021.1.4,59.972449352854916,
K,left,Pretarget,0,22,22,22,605.5923200653924,607.593250070262,left,1,1,0.8300015911809169,D27N05,2023-01-27_08h58.07.423,t1_Paradigm,2021.1.4,59.972449352854916,
K,right,Target,0,23,23,23,609.0926033335272,611.0926966868865,right,1,1,0.8023025880975183,D27N05,2023-01-27_08h58.07.423,t1_Paradigm,2021.1.4,59.972449352854916,
J,left,Pretarget,0,24,24,24,612.5922363360878,614.5925333986961,left,1,1,0.6790463071229169,D27N05,2023-01-27_08h58.07.423,t1_Paradigm,2021.1.4,59.972449352854916,
J,right,Target,0,25,25,25,616.0924823911919,618.0922985716606,right,1,1,0.8589542882837122,D27N05,2023-01-27_08h58.07.423,t1_Paradigm,2021.1.4,59.972449352854916,
H,left,Distractor,0,26,26,26,619.5925343611016,621.594037318253,left,1,1,0.6211165319546126,D27N05,2023-01-27_08h58.07.423,t1_Paradigm,2021.1.4,59.972449352854916,
J,left,Lure,0,27,27,27,623.0923720353167,625.0944229222077,left,1,1,0.8967717057821574,D27N05,2023-01-27_08h58.07.423,t1_Paradigm,2021.1.4,59.972449352854916,
V,left,Distractor,0,28,28,28,626.592520887425,628.5938884661446,left,1,1,0.757287016385817,D27N05,2023-01-27_08h58.07.423,t1_Paradigm,2021.1.4,59.972449352854916,
Z,left,Pretarget,0,29,29,29,630.0923255190282,632.0939311328111,None,0,1,,D27N05,2023-01-27_08h58.07.423,t1_Paradigm,2021.1.4,59.972449352854916,
Z,right,Target,0,30,30,30,633.5924140603747,635.5922950428503,right,1,1,0.9749444050248712,D27N05,2023-01-27_08h58.07.423,t1_Paradigm,2021.1.4,59.972449352854916,
T,left,Distractor,0,31,31,31,637.0924753335421,639.092811854789,left,1,1,0.7061444481369108,D27N05,2023-01-27_08h58.07.423,t1_Paradigm,2021.1.4,59.972449352854916,
Z,left,Lure,0,32,32,32,640.5924111731583,642.5937469924829,left,1,1,1.0615028673346387,D27N05,2023-01-27_08h58.07.423,t1_Paradigm,2021.1.4,59.972449352854916,
F,left,Distractor,0,33,33,33,644.0925359651155,646.0921311130514,left,1,1,1.1151820166123798,D27N05,2023-01-27_08h58.07.423,t1_Paradigm,2021.1.4,59.972449352854916,
Y,left,Pretarget,0,34,34,34,647.5921994438686,649.5938105112727,left,1,1,1.1332617731095525,D27N05,2023-01-27_08h58.07.423,t1_Paradigm,2021.1.4,59.972449352854916,
Y,right,Target,0,35,35,35,651.0924471029721,653.0921821205557,right,1,1,0.7549733926862245,D27N05,2023-01-27_08h58.07.423,t1_Paradigm,2021.1.4,59.972449352854916,
Y,right,Target,0,36,36,36,654.5922328072629,656.5922982508637,right,1,1,0.790868244075682,D27N05,2023-01-27_08h58.07.423,t1_Paradigm,2021.1.4,59.972449352854916,
W,left,Distractor,0,37,37,37,658.0922337696684,660.0939452480961,left,1,1,0.5851366680435603,D27N05,2023-01-27_08h58.07.423,t1_Paradigm,2021.1.4,59.972449352854916,
Q,left,Distractor,0,38,38,38,661.5922645666578,663.5920768975193,left,1,1,0.847150059606065,D27N05,2023-01-27_08h58.07.423,t1_Paradigm,2021.1.4,59.972449352854916,
P,left,Pretarget,0,39,39,39,665.0920714438835,667.0920759351138,left,1,1,1.171003160532564,D27N05,2023-01-27_08h58.07.423,t1_Paradigm,2021.1.4,59.972449352854916,
P,right,Target,0,40,40,40,668.5922562258056,670.5923037044995,right,1,1,0.8547864293068415,D27N05,2023-01-27_08h58.07.423,t1_Paradigm,2021.1.4,59.972449352854916,
J,left,Distractor,0,41,41,41,672.0923104413378,674.0926668523025,left,1,1,0.8264923386159353,D27N05,2023-01-27_08h58.07.423,t1_Paradigm,2021.1.4,59.972449352854916,
P,left,Lure,0,42,42,42,675.5926245064475,677.5923502207734,None,0,1,,D27N05,2023-01-27_08h58.07.423,t1_Paradigm,2021.1.4,59.972449352854916,
L,left,Distractor,0,43,43,43,679.092535644304,681.0920894087903,left,1,1,1.3311587238131324,D27N05,2023-01-27_08h58.07.423,t1_Paradigm,2021.1.4,59.972449352854916,
Z,left,Distractor,0,44,44,44,682.5925433435623,684.5925317946821,left,1,1,0.8386199356609723,D27N05,2023-01-27_08h58.07.423,t1_Paradigm,2021.1.4,59.972449352854916,
F,left,Pretarget,0,45,45,45,686.0924721255287,688.0929761053849,left,1,1,0.8104021958279191,D27N05,2023-01-27_08h58.07.423,t1_Paradigm,2021.1.4,59.972449352854916,
F,right,Target,0,46,46,46,689.5922895892145,691.5922754739295,right,1,1,0.9749065504001919,D27N05,2023-01-27_08h58.07.423,t1_Paradigm,2021.1.4,59.972449352854916,
G,left,Pretarget,0,47,47,47,693.0923088373238,695.0925183210056,left,1,1,1.1865694337320747,D27N05,2023-01-27_08h58.07.423,t1_Paradigm,2021.1.4,59.972449352854916,
G,right,Target,0,48,48,48,696.5922058598953,698.5918863411498,right,1,1,0.9511755466664908,D27N05,2023-01-27_08h58.07.423,t1_Paradigm,2021.1.4,59.972449352854916,
V,left,Distractor,0,49,49,49,700.0925882558367,702.0930014487531,left,1,1,0.9381609322299482,D27N05,2023-01-27_08h58.07.423,t1_Paradigm,2021.1.4,59.972449352854916,
G,left,Lure,0,50,50,50,703.5923367470969,705.5939359448384,left,1,1,0.8614546187018277,D27N05,2023-01-27_08h58.07.423,t1_Paradigm,2021.1.4,59.972449352854916,
Q,left,Pretarget,0,51,51,51,707.0924875240162,709.1052146999136,left,1,1,1.3663808535202406,D27N05,2023-01-27_08h58.07.423,t1_Paradigm,2021.1.4,59.972449352854916,
Q,right,Target,0,52,52,52,710.5922395441012,712.5922411481151,right,1,1,1.3667472093366086,D27N05,2023-01-27_08h58.07.423,t1_Paradigm,2021.1.4,59.972449352854916,
Y,left,Distractor,0,53,53,53,714.0923268022307,716.0915546319302,left,1,1,1.0355163050699048,D27N05,2023-01-27_08h58.07.423,t1_Paradigm,2021.1.4,59.972449352854916,
V,left,Distractor,0,54,54,54,717.5924602558516,719.5929783510073,left,1,1,1.2302623390132794,D27N05,2023-01-27_08h58.07.423,t1_Paradigm,2021.1.4,59.972449352854916,
B,left,Distractor,0,55,55,55,721.092360807248,723.0920374388807,left,1,1,1.3789835582574597,D27N05,2023-01-27_08h58.07.423,t1_Paradigm,2021.1.4,59.972449352854916,
J,left,Pretarget,0,56,56,56,724.5924377997144,726.592813138006,left,1,1,1.3984934498730581,D27N05,2023-01-27_08h58.07.423,t1_Paradigm,2021.1.4,59.972449352854916,
J,right,Target,0,57,57,57,728.0925186418026,730.0923492583679,right,1,1,1.0028865759668406,D27N05,2023-01-27_08h58.07.423,t1_Paradigm,2021.1.4,59.972449352854916,
H,left,Distractor,0,58,58,58,731.5920868423709,733.5938721052516,left,1,1,1.2772072136867791,D27N05,2023-01-27_08h58.07.423,t1_Paradigm,2021.1.4,59.972449352854916,
J,left,Lure,0,59,59,59,735.0923290478531,737.0920913336013,left,1,1,1.0591379153338494,D27N05,2023-01-27_08h58.07.423,t1_Paradigm,2021.1.4,59.972449352854916,
D,left,Pretarget,0,60,60,60,738.5922668122657,740.5925404563459,left,1,1,1.2225916434981627,D27N05,2023-01-27_08h58.07.423,t1_Paradigm,2021.1.4,59.972449352854916,
D,right,Target,0,61,61,61,742.0921468323359,744.0921904614079,right,1,1,1.0670748764532618,D27N05,2023-01-27_08h58.07.423,t1_Paradigm,2021.1.4,59.972449352854916,
R,left,Distractor,0,62,62,62,745.5925552132248,747.5923996242782,left,1,1,1.3268490703776479,D27N05,2023-01-27_08h58.07.423,t1_Paradigm,2021.1.4,59.972449352854916,
F,left,Distractor,0,63,63,63,749.1090133158577,751.0927781705832,left,1,1,1.1383529001032002,D27N05,2023-01-27_08h58.07.423,t1_Paradigm,2021.1.4,59.972449352854916,
F,left,Distractor,0,0,0,0,913.467368346086,915.4586675555038,None,0,2,,D27N05,2023-01-27_08h58.07.423,t1_Paradigm,2021.1.4,59.972449352854916,
N,left,Pretarget,0,1,1,1,916.958879605605,918.9599828435166,None,0,2,,D27N05,2023-01-27_08h58.07.423,t1_Paradigm,2021.1.4,59.972449352854916,
V,left,Distractor,0,2,2,2,920.4587442271732,922.4588901920652,left,1,2,1.0361765154957538,D27N05,2023-01-27_08h58.07.423,t1_Paradigm,2021.1.4,59.972449352854916,
N,right,Target,0,3,3,3,923.9589258010819,925.9596800064755,right,1,2,0.7673342127527576,D27N05,2023-01-27_08h58.07.423,t1_Paradigm,2021.1.4,59.972449352854916,
N,left,Lure,0,4,4,4,927.4588603574812,929.4587820817978,left,1,2,1.0762642484187381,D27N05,2023-01-27_08h58.07.423,t1_Paradigm,2021.1.4,59.972449352854916,
X,left,Distractor,0,5,5,5,930.9586383625283,932.960202592847,left,1,2,0.7268207756569609,D27N05,2023-01-27_08h58.07.423,t1_Paradigm,2021.1.4,59.972449352854916,
G,left,Pretarget,0,6,6,6,934.4588055003405,936.4590717659739,left,1,2,0.8600616966286907,D27N05,2023-01-27_08h58.07.423,t1_Paradigm,2021.1.4,59.972449352854916,
H,left,Pretarget,0,7,7,7,937.9587464727811,939.9590903724747,left,1,2,0.592056686989963,D27N05,2023-01-27_08h58.07.423,t1_Paradigm,2021.1.4,59.972449352854916,
G,right,Target,0,8,8,8,941.4588712647528,943.459666853596,left,0,2,0.5794921576743945,D27N05,2023-01-27_08h58.07.423,t1_Paradigm,2021.1.4,59.972449352854916,
H,right,Target,0,9,9,9,944.9589614100987,946.9596399062284,None,0,2,,D27N05,2023-01-27_08h58.07.423,t1_Paradigm,2021.1.4,59.972449352854916,
T,left,Pretarget,0,10,10,10,948.4586200768244,950.4598683172226,None,0,2,,D27N05,2023-01-27_08h58.07.423,t1_Paradigm,2021.1.4,59.972449352854916,
K,left,Distractor,0,11,11,11,951.9588131995988,953.9591875754704,left,1,2,0.6558972381462809,D27N05,2023-01-27_08h58.07.423,t1_Paradigm,2021.1.4,59.972449352854916,
T,right,Target,0,12,12,12,955.4589479364076,957.4598615803843,left,0,2,0.5154979423678014,D27N05,2023-01-27_08h58.07.423,t1_Paradigm,2021.1.4,59.972449352854916,
T,left,Lure,0,13,13,13,958.9589142522018,960.9588526582374,left,1,2,1.1281206010025926,D27N05,2023-01-27_08h58.07.423,t1_Paradigm,2021.1.4,59.972449352854916,
J,left,Distractor,0,14,14,14,962.458749680809,964.4585944126593,left,1,2,0.6364319380227244,D27N05,2023-01-27_08h58.07.423,t1_Paradigm,2021.1.4,59.972449352854916,
Q,left,Pretarget,0,15,15,15,965.9755776680831,967.9718781799602,left,1,2,0.4992887820699252,D27N05,2023-01-27_08h58.07.423,t1_Paradigm,2021.1.4,59.972449352854916,
M,left,Distractor,0,16,16,16,969.4588071043545,971.4605522669881,left,1,2,0.7226307813398307,D27N05,2023-01-27_08h58.07.423,t1_Paradigm,2021.1.4,59.972449352854916,
Q,right,Target,0,17,17,17,972.9588985329174,974.9610504724114,right,1,2,0.7579732117592357,D27N05,2023-01-27_08h58.07.423,t1_Paradigm,2021.1.4,59.972449352854916,
R,left,Distractor,0,18,18,18,976.459186613065,978.4590114551975,left,1,2,0.6519423916761298,D27N05,2023-01-27_08h58.07.423,t1_Paradigm,2021.1.4,59.972449352854916,
W,left,Distractor,0,19,19,19,979.9587894602446,981.9591840466455,left,1,2,0.7518474984535715,D27N05,2023-01-27_08h58.07.423,t1_Paradigm,2021.1.4,59.972449352854916,
C,left,Pretarget,0,20,20,20,983.4586361169204,985.4609827832028,None,0,2,,D27N05,2023-01-27_08h58.07.423,t1_Paradigm,2021.1.4,59.972449352854916,
T,left,Distractor,0,21,21,21,986.9586839164112,988.9590274952934,left,1,2,0.9518918974499684,D27N05,2023-01-27_08h58.07.423,t1_Paradigm,2021.1.4,59.972449352854916,
C,right,Target,0,22,22,22,990.4586961068853,992.4592238260957,left,0,2,0.45991098387457896,D27N05,2023-01-27_08h58.07.423,t1_Paradigm,2021.1.4,59.972449352854916,
F,left,Pretarget,0,23,23,23,993.958994773493,995.959011776009,left,1,2,0.783972606077441,D27N05,2023-01-27_08h58.07.423,t1_Paradigm,2021.1.4,59.972449352854916,
C,right,Target,0,24,24,24,997.4586434953671,999.4612541816605,left,0,2,0.9298463871964486,D27N05,2023-01-27_08h58.07.423,t1_Paradigm,2021.1.4,59.972449352854916,
F,right,Target,0,25,25,25,1000.9589514652325,1002.9602856805577,right,1,2,0.6469606581231346,D27N05,2023-01-27_08h58.07.423,t1_Paradigm,2021.1.4,59.972449352854916,
H,left,Distractor,0,26,26,26,1004.4588860216318,1006.4581504227535,left,1,2,1.020889339997666,D27N05,2023-01-27_08h58.07.423,t1_Paradigm,2021.1.4,59.972449352854916,
H,left,Lure,0,27,27,27,1007.9591356055607,1009.9587692497298,left,1,2,0.8804666256910423,D27N05,2023-01-27_08h58.07.423,t1_Paradigm,2021.1.4,59.972449352854916,
P,left,Distractor,0,28,28,28,1011.4587961970828,1013.4607482769788,left,1,2,0.578436398456688,D27N05,2023-01-27_08h58.07.423,t1_Paradigm,2021.1.4,59.972449352854916,
G,left,Pretarget,0,29,29,29,1014.9586483073945,1016.9589758461807,left,1,2,0.9040805366821587,D27N05,2023-01-27_08h58.07.423,t1_Paradigm,2021.1.4,59.972449352854916,
K,left,Distractor,0,30,30,30,1018.4589716757619,1020.4598314249888,left,1,2,0.5232507631735643,D27N05,2023-01-27_08h58.07.423,t1_Paradigm,2021.1.4,59.972449352854916,
G,right,Target,0,31,31,31,1021.9586313048785,1023.9598519563151,right,1,2,0.7670958569069626,D27N05,2023-01-27_08h58.07.423,t1_Paradigm,2021.1.4,59.972449352854916,
M,left,Pretarget,0,32,32,32,1025.4588459213992,1027.4591054501798,left,1,2,0.7080618814215995,D27N05,2023-01-27_08h58.07.423,t1_Paradigm,2021.1.4,59.972449352854916,
B,left,Distractor,0,33,33,33,1028.958906552958,1030.9606959862576,left,1,2,0.9822513111139415,D27N05,2023-01-27_08h58.07.423,t1_Paradigm,2021.1.4,59.972449352854916,
M,right,Target,0,34,34,34,1032.4586945028714,1034.4590910140832,right,1,2,0.8442137593228836,D27N05,2023-01-27_08h58.07.423,t1_Paradigm,2021.1.4,59.972449352854916,
M,left,Lure,0,35,35,35,1035.9588420717628,1037.959082673231,left,1,2,0.8480819892720319,D27N05,2023-01-27_08h58.07.423,t1_Paradigm,2021.1.4,59.972449352854916,
T,left,Distractor,0,36,36,36,1039.4589582020708,1041.4610434147762,left,1,2,0.6259012930822792,D27N05,2023-01-27_08h58.07.423,t1_Paradigm,2021.1.4,59.972449352854916,
F,left,Distractor,0,37,37,37,1042.9587852898258,1044.9599684074346,left,1,2,0.7270315425266745,D27N05,2023-01-27_08h58.07.423,t1_Paradigm,2021.1.4,59.972449352854916,
X,left,Distractor,0,38,38,38,1046.459143946413,1048.461137409744,left,1,2,0.7944663587841205,D27N05,2023-01-27_08h58.07.423,t1_Paradigm,2021.1.4,59.972449352854916,
C,left,Distractor,0,39,39,39,1049.9591574200895,1051.958732036699,left,1,2,0.4484599581337534,D27N05,2023-01-27_08h58.07.423,t1_Paradigm,2021.1.4,59.972449352854916,
R,left,Distractor,0,40,40,40,1053.4588266732753,1055.4588651695085,left,1,2,0.6124067589116748,D27N05,2023-01-27_08h58.07.423,t1_Paradigm,2021.1.4,59.972449352854916,
B,left,Pretarget,0,41,41,41,1056.9586550442327,1058.9589957358985,left,1,2,0.5040225356933661,D27N05,2023-01-27_08h58.07.423,t1_Paradigm,2021.1.4,59.972449352854916,
H,left,Distractor,0,42,42,42,1060.4587458311871,1062.4597525077115,left,1,2,0.5393553420581156,D27N05,2023-01-27_08h58.07.423,t1_Paradigm,2021.1.4,59.972449352854916,
B,right,Target,0,43,43,43,1063.9586255304457,1065.9753736380371,None,0,2,,D27N05,2023-01-27_08h58.07.423,t1_Paradigm,2021.1.4,59.972449352854916,
W,left,Pretarget,0,44,44,44,1067.4586422121502,1069.4602612996096,left,1,2,0.8347436856420245,D27N05,2023-01-27_08h58.07.423,t1_Paradigm,2021.1.4,59.972449352854916,
L,left,Pretarget,0,45,45,45,1070.9590005479404,1072.960930813293,left,1,2,0.4541631752799731,D27N05,2023-01-27_08h58.07.423,t1_Paradigm,2021.1.4,59.972449352854916,
W,right,Target,0,46,46,46,1074.4585767685494,1076.4589761669922,right,1,2,0.572088690198143,D27N05,2023-01-27_08h58.07.423,t1_Paradigm,2021.1.4,59.972449352854916,
L,right,Target,0,47,47,47,1077.9591381719656,1079.9606558860105,right,1,2,0.686354817225947,D27N05,2023-01-27_08h58.07.423,t1_Paradigm,2021.1.4,59.972449352854916,
W,right,Target,0,48,48,48,1081.4588151244097,1083.4603748634981,right,1,2,0.722746911647846,D27N05,2023-01-27_08h58.07.423,t1_Paradigm,2021.1.4,59.972449352854916,
X,left,Distractor,0,49,49,49,1084.9586560066382,1086.958562974076,left,1,2,0.7447603416949278,D27N05,2023-01-27_08h58.07.423,t1_Paradigm,2021.1.4,59.972449352854916,
R,left,Distractor,0,50,50,50,1088.458924517865,1090.4591349639522,left,1,2,0.6518573791399831,D27N05,2023-01-27_08h58.07.423,t1_Paradigm,2021.1.4,59.972449352854916,
V,left,Pretarget,0,51,51,51,1091.9588946832955,1093.9597820214985,left,1,2,0.5272136297280667,D27N05,2023-01-27_08h58.07.423,t1_Paradigm,2021.1.4,59.972449352854916,
Z,left,Distractor,0,52,52,52,1095.458853620643,1097.4590332697408,left,1,2,0.580154934519669,D27N05,2023-01-27_08h58.07.423,t1_Paradigm,2021.1.4,59.972449352854916,
V,right,Target,0,53,53,53,1098.9585645780753,1100.9590849188535,left,0,2,0.9518665540963411,D27N05,2023-01-27_08h58.07.423,t1_Paradigm,2021.1.4,59.972449352854916,
V,left,Lure,0,54,54,54,1102.4587397359428,1104.4587596256606,left,1,2,1.3242871459806338,D27N05,2023-01-27_08h58.07.423,t1_Paradigm,2021.1.4,59.972449352854916,
N,left,Distractor,0,55,55,55,1105.9588747935632,1107.9597723974293,left,1,2,0.6712649349210551,D27N05,2023-01-27_08h58.07.423,t1_Paradigm,2021.1.4,59.972449352854916,
B,left,Distractor,0,56,56,56,1109.4584946432587,1111.4589463324082,left,1,2,1.092211313531152,D27N05,2023-01-27_08h58.07.423,t1_Paradigm,2021.1.4,59.972449352854916,
V,left,Lure,0,57,57,57,1112.9591150742344,1114.9609619310795,left,1,2,0.5021195385052124,D27N05,2023-01-27_08h58.07.423,t1_Paradigm,2021.1.4,59.972449352854916,
J,left,Distractor,0,58,58,58,1116.4590438562009,1118.4605557957984,left,1,2,0.5065215829090448,D27N05,2023-01-27_08h58.07.423,t1_Paradigm,2021.1.4,59.972449352854916,
H,left,Distractor,0,59,59,59,1119.9587384527404,1121.958719846225,left,1,2,0.9124929263198283,D27N05,2023-01-27_08h58.07.423,t1_Paradigm,2021.1.4,59.972449352854916,
X,left,Pretarget,0,60,60,60,1123.459110262207,1125.4606231642101,left,1,2,0.48226382238499355,D27N05,2023-01-27_08h58.07.423,t1_Paradigm,2021.1.4,59.972449352854916,
P,left,Distractor,0,61,61,61,1126.9588330893166,1128.9583592648269,left,1,2,0.5526551494549494,D27N05,2023-01-27_08h58.07.423,t1_Paradigm,2021.1.4,59.972449352854916,
X,right,Target,0,62,62,62,1130.4590361569572,1132.4584616006468,right,1,2,0.7807315439422382,D27N05,2023-01-27_08h58.07.423,t1_Paradigm,2021.1.4,59.972449352854916,
Q,left,Distractor,0,63,63,63,1133.9589039865532,1135.959799344797,left,1,2,0.607324293552665,D27N05,2023-01-27_08h58.07.423,t1_Paradigm,2021.1.4,59.972449352854916,
B,left,Pretarget,0,0,0,0,1167.9189769754012,1169.909593197459,None,0,2,,D27N05,2023-01-27_08h58.07.423,t1_Paradigm,2021.1.4,59.972449352854916,
F,left,Distractor,0,1,1,1,1171.4087969670218,1173.4085881249484,None,0,2,,D27N05,2023-01-27_08h58.07.423,t1_Paradigm,2021.1.4,59.972449352854916,
B,right,Target,0,2,2,2,1174.9087822101283,1176.9090231323935,right,1,2,0.42608370108064264,D27N05,2023-01-27_08h58.07.423,t1_Paradigm,2021.1.4,59.972449352854916,
V,left,Distractor,0,3,3,3,1178.4086449068855,1180.4085762552713,left,1,2,0.49468238682311494,D27N05,2023-01-27_08h58.07.423,t1_Paradigm,2021.1.4,59.972449352854916,
G,left,Pretarget,0,4,4,4,1181.90867217505,1183.9090125459334,left,1,2,0.7060568691958906,D27N05,2023-01-27_08h58.07.423,t1_Paradigm,2021.1.4,59.972449352854916,
B,left,Lure,0,5,5,5,1185.4085772176768,1187.4102184404765,left,1,2,0.48476639844011515,D27N05,2023-01-27_08h58.07.423,t1_Paradigm,2021.1.4,59.972449352854916,
G,right,Target,0,6,6,6,1188.9088290472137,1190.9090321148396,left,0,2,0.4420201797183836,D27N05,2023-01-27_08h58.07.423,t1_Paradigm,2021.1.4,59.972449352854916,
Y,left,Pretarget,0,7,7,7,1192.4086965559982,1194.408979824133,left,1,2,0.5899794943397865,D27N05,2023-01-27_08h58.07.423,t1_Paradigm,2021.1.4,59.972449352854916,
P,left,Distractor,0,8,8,8,1195.908690139957,1197.9090317940427,right,0,2,0.7060530195740284,D27N05,2023-01-27_08h58.07.423,t1_Paradigm,2021.1.4,59.972449352854916,
Y,right,Target,0,9,9,9,1199.408688215146,1201.4089050772745,right,1,2,1.301992693421198,D27N05,2023-01-27_08h58.07.423,t1_Paradigm,2021.1.4,59.972449352854916,
X,left,Distractor,0,10,10,10,1202.9086885359575,1204.9108969366062,left,1,2,0.8879239879024681,D27N05,2023-01-27_08h58.07.423,t1_Paradigm,2021.1.4,59.972449352854916,
Y,right,Target,0,11,11,11,1206.4087206161494,1208.4089018692466,left,0,2,1.0221504124929197,D27N05,2023-01-27_08h58.07.423,t1_Paradigm,2021.1.4,59.972449352854916,
N,left,Distractor,0,12,12,12,1209.9086917439708,1211.9085191525228,left,1,2,0.5146831054153154,D27N05,2023-01-27_08h58.07.423,t1_Paradigm,2021.1.4,59.972449352854916,
Y,right,Target,0,13,13,13,1213.4090301900287,1215.408976616105,right,1,2,1.17414669887512,D27N05,2023-01-27_08h58.07.423,t1_Paradigm,2021.1.4,59.972449352854916,
Y,left,Lure,0,14,14,14,1216.909035964476,1218.9086920647824,left,1,2,1.1946032770647435,D27N05,2023-01-27_08h58.07.423,t1_Paradigm,2021.1.4,59.972449352854916,
K,left,Distractor,0,15,15,15,1220.4088466913236,1222.408992335404,None,0,2,,D27N05,2023-01-27_08h58.07.423,t1_Paradigm,2021.1.4,59.972449352854916,
T,left,Pretarget,0,16,16,16,1223.9087642452214,1225.9096272024763,left,1,2,0.8012949491676409,D27N05,2023-01-27_08h58.07.423,t1_Paradigm,2021.1.4,59.972449352854916,
J,left,Distractor,0,17,17,17,1227.4087466011115,1229.4086705710506,left,1,2,0.5824691998132039,D27N05,2023-01-27_08h58.07.423,t1_Paradigm,2021.1.4,59.972449352854916,
T,right,Target,0,18,18,18,1230.9087414682726,1232.9100753628009,left,0,2,0.9849123633175623,D27N05,2023-01-27_08h58.07.423,t1_Paradigm,2021.1.4,59.972449352854916,
S,left,Pretarget,0,19,19,19,1234.4089843153488,1236.4093388015172,left,1,2,0.9577199065242894,D27N05,2023-01-27_08h58.07.423,t1_Paradigm,2021.1.4,59.972449352854916,
R,left,Distractor,0,20,20,20,1237.9081547215028,1239.9089211173705,left,1,2,1.1859390579047613,D27N05,2023-01-27_08h58.07.423,t1_Paradigm,2021.1.4,59.972449352854916,
S,right,Target,0,21,21,21,1241.4087873429526,1243.4103871823027,right,1,2,0.7087660417018924,D27N05,2023-01-27_08h58.07.423,t1_Paradigm,2021.1.4,59.972449352854916,
Q,left,Distractor,0,22,22,22,1244.9089673128474,1246.9089756536996,left,1,2,0.5061176932504168,D27N05,2023-01-27_08h58.07.423,t1_Paradigm,2021.1.4,59.972449352854916,
D,left,Distractor,0,23,23,23,1248.4088332176325,1250.4109319040144,left,1,2,0.6200495446537388,D27N05,2023-01-27_08h58.07.423,t1_Paradigm,2021.1.4,59.972449352854916,
F,left,Distractor,0,24,24,24,1251.9087125960941,1253.9088399544707,left,1,2,0.7062820721766911,D27N05,2023-01-27_08h58.07.423,t1_Paradigm,2021.1.4,59.972449352854916,
Z,left,Distractor,0,25,25,25,1255.4090154331498,1257.4104317737656,left,1,2,1.3806911870633485,D27N05,2023-01-27_08h58.07.423,t1_Paradigm,2021.1.4,59.972449352854916,
P,left,Distractor,0,26,26,26,1258.908748205111,1260.9088688266493,left,1,2,0.6983220132970018,D27N05,2023-01-27_08h58.07.423,t1_Paradigm,2021.1.4,59.972449352854916,
H,left,Distractor,0,27,27,27,1262.4089544807794,1264.409024094799,left,1,2,0.6380000179633498,D27N05,2023-01-27_08h58.07.423,t1_Paradigm,2021.1.4,59.972449352854916,
Z,left,Pretarget,0,28,28,28,1265.9088729970827,1267.9100320545404,None,0,2,,D27N05,2023-01-27_08h58.07.423,t1_Paradigm,2021.1.4,59.972449352854916,
J,left,Pretarget,0,29,29,29,1269.4087125960941,1271.4090767063171,left,1,2,1.2059548541874392,D27N05,2023-01-27_08h58.07.423,t1_Paradigm,2021.1.4,59.972449352854916,
Z,right,Target,0,30,30,30,1272.9088608066086,1274.910608535647,left,0,2,1.1285652325168485,D27N05,2023-01-27_08h58.07.423,t1_Paradigm,2021.1.4,59.972449352854916,
J,right,Target,0,31,31,31,1276.408964425631,1278.4088774882985,left,0,2,1.2302982688270276,D27N05,2023-01-27_08h58.07.423,t1_Paradigm,2021.1.4,59.972449352854916,
V,left,Pretarget,0,32,32,32,1279.9089416486968,1281.90895191436,left,1,2,0.6901184657472186,D27N05,2023-01-27_08h58.07.423,t1_Paradigm,2021.1.4,59.972449352854916,
Z,left,Lure,0,33,33,33,1283.4090289068263,1285.4085332678078,left,1,2,0.7585557880956912,D27N05,2023-01-27_08h58.07.423,t1_Paradigm,2021.1.4,59.972449352854916,
V,right,Target,0,34,34,34,1286.908862089811,1288.9089288166142,None,0,2,,D27N05,2023-01-27_08h58.07.423,t1_Paradigm,2021.1.4,59.972449352854916,
X,left,Distractor,0,35,35,35,1290.408691102377,1292.4092746411188,None,0,2,,D27N05,2023-01-27_08h58.07.423,t1_Paradigm,2021.1.4,59.972449352854916,
S,left,Distractor,0,36,36,36,1293.9086654382118,1295.909313137352,left,1,2,0.5777161980659002,D27N05,2023-01-27_08h58.07.423,t1_Paradigm,2021.1.4,59.972449352854916,
Q,left,Distractor,0,37,37,37,1297.4089605760091,1299.4252191398118,left,1,2,0.6779883022827562,D27N05,2023-01-27_08h58.07.423,t1_Paradigm,2021.1.4,59.972449352854916,
P,left,Distractor,0,38,38,38,1300.9086465108994,1302.908951593563,left,1,2,0.8898625941073988,D27N05,2023-01-27_08h58.07.423,t1_Paradigm,2021.1.4,59.972449352854916,
S,left,Lure,0,39,39,39,1304.4085371174297,1306.4100631723268,left,1,2,1.1489194748573937,D27N05,2023-01-27_08h58.07.423,t1_Paradigm,2021.1.4,59.972449352854916,
K,left,Pretarget,0,40,40,40,1307.9087575083686,1309.9104449266451,left,1,2,1.152581429152633,D27N05,2023-01-27_08h58.07.423,t1_Paradigm,2021.1.4,59.972449352854916,
L,left,Distractor,0,41,41,41,1311.4087668116263,1313.4096118039743,left,1,2,0.9493036672793096,D27N05,2023-01-27_08h58.07.423,t1_Paradigm,2021.1.4,59.972449352854916,
K,right,Target,0,42,42,42,1314.908585237732,1316.9105305807752,right,1,2,0.728672765326337,D27N05,2023-01-27_08h58.07.423,t1_Paradigm,2021.1.4,59.972449352854916,
B,left,Distractor,0,43,43,43,1318.4089073228824,1320.408920475762,left,1,2,0.6221058851806447,D27N05,2023-01-27_08h58.07.423,t1_Paradigm,2021.1.4,59.972449352854916,
N,left,Distractor,0,44,44,44,1321.9090273028123,1323.90849573398,left,1,2,0.6266359295550501,D27N05,2023-01-27_08h58.07.423,t1_Paradigm,2021.1.4,59.972449352854916,
S,left,Pretarget,0,45,45,45,1325.4089506311575,1327.4086272627756,left,1,2,0.5503402425529202,D27N05,2023-01-27_08h58.07.423,t1_Paradigm,2021.1.4,59.972449352854916,
Z,left,Distractor,0,46,46,46,1328.9089435735077,1330.9089134181268,left,1,2,0.6664067101519322,D27N05,2023-01-27_08h58.07.423,t1_Paradigm,2021.1.4,59.972449352854916,
S,right,Target,0,47,47,47,1332.4083167264907,1334.4098321949132,right,1,2,0.8452483456203481,D27N05,2023-01-27_08h58.07.423,t1_Paradigm,2021.1.4,59.972449352854916,
C,left,Distractor,0,48,48,48,1335.908978220119,1337.9090295484348,left,1,2,0.6741165435087169,D27N05,2023-01-27_08h58.07.423,t1_Paradigm,2021.1.4,59.972449352854916,
T,left,Pretarget,0,49,49,49,1339.40892368379,1341.4091883453948,left,1,2,0.5017191776714753,D27N05,2023-01-27_08h58.07.423,t1_Paradigm,2021.1.4,59.972449352854916,
S,left,Lure,0,50,50,50,1342.9090513629635,1344.9095001648966,left,1,2,0.7456226573413005,D27N05,2023-01-27_08h58.07.423,t1_Paradigm,2021.1.4,59.972449352854916,
T,right,Target,0,51,51,51,1346.4086850071326,1348.4095142801816,right,1,2,1.021464217119501,D27N05,2023-01-27_08h58.07.423,t1_Paradigm,2021.1.4,59.972449352854916,
N,left,Pretarget,0,52,52,52,1349.908992014607,1351.9089724456862,left,1,2,0.4982003010372864,D27N05,2023-01-27_08h58.07.423,t1_Paradigm,2021.1.4,59.972449352854916,
B,left,Distractor,0,53,53,53,1353.4086773078889,1355.4104795732565,left,1,2,0.8045722619135631,D27N05,2023-01-27_08h58.07.423,t1_Paradigm,2021.1.4,59.972449352854916,
N,right,Target,0,54,54,54,1356.9085765760683,1358.9086125058966,right,1,2,0.7145193039468722,D27N05,2023-01-27_08h58.07.423,t1_Paradigm,2021.1.4,59.972449352854916,
N,left,Lure,0,55,55,55,1360.4084793730872,1362.409151132364,left,1,2,1.0058607308892533,D27N05,2023-01-27_08h58.07.423,t1_Paradigm,2021.1.4,59.972449352854916,
X,left,Distractor,0,56,56,56,1363.9089583304012,1365.908643302886,left,1,2,0.7543394880194683,D27N05,2023-01-27_08h58.07.423,t1_Paradigm,2021.1.4,59.972449352854916,
W,left,Distractor,0,57,57,57,1367.4085653479997,1369.4090051674866,left,1,2,0.7420113897533156,D27N05,2023-01-27_08h58.07.423,t1_Paradigm,2021.1.4,59.972449352854916,
S,left,Distractor,0,58,58,58,1370.9085964658007,1372.9103121146472,left,1,2,0.5846455202554353,D27N05,2023-01-27_08h58.07.423,t1_Paradigm,2021.1.4,59.972449352854916,
L,left,Distractor,0,59,59,59,1374.408787663764,1376.408902831652,left,1,2,0.6061087749549188,D27N05,2023-01-27_08h58.07.423,t1_Paradigm,2021.1.4,59.972449352854916,
K,left,Pretarget,0,60,60,60,1377.9088081950758,1379.9089984306484,left,1,2,0.9779028406337602,D27N05,2023-01-27_08h58.07.423,t1_Paradigm,2021.1.4,59.972449352854916,
V,left,Pretarget,0,61,61,61,1381.4086208467488,1383.4102351221663,left,1,2,1.2367630697990535,D27N05,2023-01-27_08h58.07.423,t1_Paradigm,2021.1.4,59.972449352854916,
K,right,Target,0,62,62,62,1384.9089374782634,1386.908932345439,right,1,2,0.5540718108823057,D27N05,2023-01-27_08h58.07.423,t1_Paradigm,2021.1.4,59.972449352854916,
V,right,Target,0,63,63,63,1388.408745638706,1390.4098004355183,right,1,2,1.0691632971720537,D27N05,2023-01-27_08h58.07.423,t1_Paradigm,2021.1.4,59.972449352854916,
R,left,Distractor,0,0,0,0,1535.4506616219587,1537.4418270569586,left,1,3,0.4690727668639738,D27N05,2023-01-27_08h58.07.423,t1_Paradigm,2021.1.4,59.972449352854916,
P,left,Lure,0,1,1,1,1538.9419457536715,1540.9419890619465,left,1,3,1.0971045057231095,D27N05,2023-01-27_08h58.07.423,t1_Paradigm,2021.1.4,59.972449352854916,
V,left,Distractor,0,2,2,2,1542.4420525807218,1544.442266555634,left,1,3,0.5567059157037875,D27N05,2023-01-27_08h58.07.423,t1_Paradigm,2021.1.4,59.972449352854916,
P,left,Pretarget,0,3,3,3,1545.9419242599397,1547.9424779641122,left,1,3,0.9605865927878767,D27N05,2023-01-27_08h58.07.423,t1_Paradigm,2021.1.4,59.972449352854916,
Z,left,Distractor,0,4,4,4,1549.4421513877314,1551.4435898636875,left,1,3,0.9475591462687589,D27N05,2023-01-27_08h58.07.423,t1_Paradigm,2021.1.4,59.972449352854916,
L,left,Pretarget,0,5,5,5,1552.9419232975342,1554.9423204503546,left,1,3,0.5845399764220929,D27N05,2023-01-27_08h58.07.423,t1_Paradigm,2021.1.4,59.972449352854916,
P,right,Target,0,6,6,6,1556.442000610812,1558.4427714979101,None,0,3,,D27N05,2023-01-27_08h58.07.423,t1_Paradigm,2021.1.4,59.972449352854916,
S,left,Distractor,0,7,7,7,1559.9417917687388,1561.941904370222,left,1,3,0.5932086868124316,D27N05,2023-01-27_08h58.07.423,t1_Paradigm,2021.1.4,59.972449352854916,
L,right,Target,0,8,8,8,1563.4419133526826,1565.4422171521292,left,0,3,0.5166605286503909,D27N05,2023-01-27_08h58.07.423,t1_Paradigm,2021.1.4,59.972449352854916,
D,left,Distractor,0,9,9,9,1566.9422261345899,1568.942108079471,left,1,3,0.8249229754437692,D27N05,2023-01-27_08h58.07.423,t1_Paradigm,2021.1.4,59.972449352854916,
G,left,Distractor,0,10,10,10,1570.4418771020573,1572.4423708162649,left,1,3,0.49264978563587647,D27N05,2023-01-27_08h58.07.423,t1_Paradigm,2021.1.4,59.972449352854916,
M,left,Pretarget,0,11,11,11,1573.9421568413673,1575.9421889215591,left,1,3,0.48092351184459403,D27N05,2023-01-27_08h58.07.423,t1_Paradigm,2021.1.4,59.972449352854916,
Y,left,Distractor,0,12,12,12,1577.4418912173423,1579.4422319090227,left,1,3,1.0288285467540845,D27N05,2023-01-27_08h58.07.423,t1_Paradigm,2021.1.4,59.972449352854916,
V,left,Distractor,0,13,13,13,1580.9422219641565,1582.9435975629312,None,0,3,,D27N05,2023-01-27_08h58.07.423,t1_Paradigm,2021.1.4,59.972449352854916,
M,right,Target,0,14,14,14,1584.4417895231309,1586.4423400192754,None,0,3,,D27N05,2023-01-27_08h58.07.423,t1_Paradigm,2021.1.4,59.972449352854916,
S,left,Pretarget,0,15,15,15,1587.942235117036,1589.9422309466172,left,1,3,0.8330007686454337,D27N05,2023-01-27_08h58.07.423,t1_Paradigm,2021.1.4,59.972449352854916,
Q,left,Distractor,0,16,16,16,1591.4418966709782,1593.4418155080784,left,1,3,0.9335163615323836,D27N05,2023-01-27_08h58.07.423,t1_Paradigm,2021.1.4,59.972449352854916,
R,left,Pretarget,0,17,17,17,1594.942030445396,1596.9421128914983,left,1,3,0.6490388131787768,D27N05,2023-01-27_08h58.07.423,t1_Paradigm,2021.1.4,59.972449352854916,
S,right,Target,0,18,18,18,1598.441768029399,1600.44314202416,right,1,3,0.7320042936044047,D27N05,2023-01-27_08h58.07.423,t1_Paradigm,2021.1.4,59.972449352854916,
F,left,Distractor,0,19,19,19,1601.942136630838,1603.9423047310702,left,1,3,0.6247181754879421,D27N05,2023-01-27_08h58.07.423,t1_Paradigm,2021.1.4,59.972449352854916,
R,right,Target,0,20,20,20,1605.44202050053,1607.4421581245697,left,0,3,1.2367293855932076,D27N05,2023-01-27_08h58.07.423,t1_Paradigm,2021.1.4,59.972449352854916,
P,left,Distractor,0,21,21,21,1608.9420391070453,1610.9422309466172,left,1,3,0.5846137608750723,D27N05,2023-01-27_08h58.07.423,t1_Paradigm,2021.1.4,59.972449352854916,
L,left,Distractor,0,22,22,22,1612.4419101446547,1614.442189242356,left,1,3,0.7006667547830148,D27N05,2023-01-27_08h58.07.423,t1_Paradigm,2021.1.4,59.972449352854916,
R,right,Target,0,23,23,23,1615.9419986860012,1617.9441945753788,None,0,3,,D27N05,2023-01-27_08h58.07.423,t1_Paradigm,2021.1.4,59.972449352854916,
H,left,Pretarget,0,24,24,24,1619.4418780644628,1621.443344450192,left,1,3,0.9957275595807005,D27N05,2023-01-27_08h58.07.423,t1_Paradigm,2021.1.4,59.972449352854916,
G,left,Pretarget,0,25,25,25,1622.941900841397,1624.9418713276245,left,1,3,0.537011242180597,D27N05,2023-01-27_08h58.07.423,t1_Paradigm,2021.1.4,59.972449352854916,
T,left,Distractor,0,26,26,26,1626.442164540611,1628.443791327314,left,1,3,0.523223495009006,D27N05,2023-01-27_08h58.07.423,t1_Paradigm,2021.1.4,59.972449352854916,
H,right,Target,0,27,27,27,1629.9419694930257,1631.9423615130072,right,1,3,0.8967226230743108,D27N05,2023-01-27_08h58.07.423,t1_Paradigm,2021.1.4,59.972449352854916,
G,right,Target,0,28,28,28,1633.4422357586445,1635.442205282452,left,0,3,1.1089071304013487,D27N05,2023-01-27_08h58.07.423,t1_Paradigm,2021.1.4,59.972449352854916,
D,left,Distractor,0,29,29,29,1636.9422254929814,1638.9422639892146,left,1,3,0.7127921062201494,D27N05,2023-01-27_08h58.07.423,t1_Paradigm,2021.1.4,59.972449352854916,
N,left,Pretarget,0,30,30,30,1640.4419120694656,1642.4422043200466,left,1,3,0.988727981763077,D27N05,2023-01-27_08h58.07.423,t1_Paradigm,2021.1.4,59.972449352854916,
V,left,Distractor,0,31,31,31,1643.9422864453518,1645.9423878187663,left,1,3,0.5445074214367196,D27N05,2023-01-27_08h58.07.423,t1_Paradigm,2021.1.4,59.972449352854916,
R,left,Distractor,0,32,32,32,1647.4422832373384,1649.4421536333393,left,1,3,0.8207993871328654,D27N05,2023-01-27_08h58.07.423,t1_Paradigm,2021.1.4,59.972449352854916,
N,right,Target,0,33,33,33,1650.94191816471,1652.942904309908,left,0,3,0.7439641112432582,D27N05,2023-01-27_08h58.07.423,t1_Paradigm,2021.1.4,59.972449352854916,
Z,left,Distractor,0,34,34,34,1654.441971097025,1656.4421828263148,left,1,3,0.7006276169413468,D27N05,2023-01-27_08h58.07.423,t1_Paradigm,2021.1.4,59.972449352854916,
N,left,Lure,0,35,35,35,1657.9419374128338,1659.9422877285542,left,1,3,0.5289424314541975,D27N05,2023-01-27_08h58.07.423,t1_Paradigm,2021.1.4,59.972449352854916,
Y,left,Pretarget,0,36,36,36,1661.4421237987553,1663.4417933727527,left,1,3,1.1571939196437597,D27N05,2023-01-27_08h58.07.423,t1_Paradigm,2021.1.4,59.972449352854916,
Y,left,Lure,0,37,37,37,1664.9418373226217,1666.9422752172832,left,1,3,0.5526307684922358,D27N05,2023-01-27_08h58.07.423,t1_Paradigm,2021.1.4,59.972449352854916,
B,left,Distractor,0,38,38,38,1668.4421879591537,1670.4421321396076,left,1,3,0.46089777068118565,D27N05,2023-01-27_08h58.07.423,t1_Paradigm,2021.1.4,59.972449352854916,
Y,right,Target,0,39,39,39,1671.942078565684,1673.9433550366666,right,1,3,0.7196418695384637,D27N05,2023-01-27_08h58.07.423,t1_Paradigm,2021.1.4,59.972449352854916,
J,left,Distractor,0,40,40,40,1675.4417449316534,1677.443300500323,left,1,3,0.4835621078964323,D27N05,2023-01-27_08h58.07.423,t1_Paradigm,2021.1.4,59.972449352854916,
X,left,Distractor,0,41,41,41,1678.94207696167,1680.943092299858,left,1,3,0.8397748226998374,D27N05,2023-01-27_08h58.07.423,t1_Paradigm,2021.1.4,59.972449352854916,
W,left,Pretarget,0,42,42,42,1682.441729533166,1684.4433386757592,left,1,3,0.8435570777219255,D27N05,2023-01-27_08h58.07.423,t1_Paradigm,2021.1.4,59.972449352854916,
S,left,Pretarget,0,43,43,43,1685.9418536835146,1687.9426807109558,left,1,3,0.5605135141086066,D27N05,2023-01-27_08h58.07.423,t1_Paradigm,2021.1.4,59.972449352854916,
R,left,Distractor,0,44,44,44,1689.4422601395927,1691.443560670712,left,1,3,0.5316262605920201,D27N05,2023-01-27_08h58.07.423,t1_Paradigm,2021.1.4,59.972449352854916,
W,right,Target,0,45,45,45,1692.9419066158443,1694.942164219814,right,1,3,0.9847785888996441,D27N05,2023-01-27_08h58.07.423,t1_Paradigm,2021.1.4,59.972449352854916,
S,right,Target,0,46,46,46,1696.4416515782796,1698.4433527910442,left,0,3,0.9077261300844839,D27N05,2023-01-27_08h58.07.423,t1_Paradigm,2021.1.4,59.972449352854916,
D,left,Distractor,0,47,47,47,1699.9421215531474,1701.9441050716268,left,1,3,0.4469464145367965,D27N05,2023-01-27_08h58.07.423,t1_Paradigm,2021.1.4,59.972449352854916,
T,left,Distractor,0,48,48,48,1703.4418046008213,1705.442164540611,left,1,3,0.4846730450663017,D27N05,2023-01-27_08h58.07.423,t1_Paradigm,2021.1.4,59.972449352854916,
S,right,Target,0,49,49,49,1706.941960510565,1708.9417189466913,right,1,3,0.6171190188179025,D27N05,2023-01-27_08h58.07.423,t1_Paradigm,2021.1.4,59.972449352854916,
K,left,Distractor,0,50,50,50,1710.4421231571614,1712.4421459340956,left,1,3,0.6048165846877964,D27N05,2023-01-27_08h58.07.423,t1_Paradigm,2021.1.4,59.972449352854916,
S,left,Lure,0,51,51,51,1713.9418636283808,1715.943486244665,left,1,3,1.007541412313003,D27N05,2023-01-27_08h58.07.423,t1_Paradigm,2021.1.4,59.972449352854916,
T,left,Pretarget,0,52,52,52,1717.4422748964862,1719.4430698437209,right,0,3,1.2038459021423478,D27N05,2023-01-27_08h58.07.423,t1_Paradigm,2021.1.4,59.972449352854916,
V,left,Distractor,0,53,53,53,1720.9419640393899,1722.9418751772464,left,1,3,0.6652774872636655,D27N05,2023-01-27_08h58.07.423,t1_Paradigm,2021.1.4,59.972449352854916,
B,left,Distractor,0,54,54,54,1724.4422662348225,1726.4424885505869,left,1,3,0.5404848857433535,D27N05,2023-01-27_08h58.07.423,t1_Paradigm,2021.1.4,59.972449352854916,
T,right,Target,0,55,55,55,1727.9422322298196,1729.9426803901442,right,1,3,0.7202517140394775,D27N05,2023-01-27_08h58.07.423,t1_Paradigm,2021.1.4,59.972449352854916,
Y,left,Pretarget,0,56,56,56,1731.4422437786852,1733.4428269966447,left,1,3,0.724260776056326,D27N05,2023-01-27_08h58.07.423,t1_Paradigm,2021.1.4,59.972449352854916,
T,left,Lure,0,57,57,57,1734.9422129817103,1736.9423034478532,left,1,3,0.7766833440837217,D27N05,2023-01-27_08h58.07.423,t1_Paradigm,2021.1.4,59.972449352854916,
P,left,Pretarget,0,58,58,58,1738.4412544254737,1740.4413814630389,left,1,3,0.5095881287852535,D27N05,2023-01-27_08h58.07.423,t1_Paradigm,2021.1.4,59.972449352854916,
Y,right,Target,0,59,59,59,1741.9419556985376,1743.9432892722543,right,1,3,0.6237759801442735,D27N05,2023-01-27_08h58.07.423,t1_Paradigm,2021.1.4,59.972449352854916,
R,left,Distractor,0,60,60,60,1745.4419855331216,1747.4435879388766,left,1,3,0.6913872374716448,D27N05,2023-01-27_08h58.07.423,t1_Paradigm,2021.1.4,59.972449352854916,
P,right,Target,0,61,61,61,1748.9418652323802,1750.942569713472,left,0,3,0.6002753122447757,D27N05,2023-01-27_08h58.07.423,t1_Paradigm,2021.1.4,59.972449352854916,
L,left,Distractor,0,62,62,62,1752.4422059240605,1754.4421818639094,left,1,3,0.52483199602284,D27N05,2023-01-27_08h58.07.423,t1_Paradigm,2021.1.4,59.972449352854916,
V,left,Distractor,0,63,63,63,1755.9417308163684,1757.9421757686796,left,1,3,0.6407932405709289,D27N05,2023-01-27_08h58.07.423,t1_Paradigm,2021.1.4,59.972449352854916,
H,left,Lure,0,0,0,0,1854.567231748617,1856.55856720866,left,1,3,0.6168829085654579,D27N05,2023-01-27_08h58.07.423,t1_Paradigm,2021.1.4,59.972449352854916,
B,left,Distractor,0,1,1,1,1858.0585486021446,1860.0602427572594,left,1,3,0.34692774385621306,D27N05,2023-01-27_08h58.07.423,t1_Paradigm,2021.1.4,59.972449352854916,
T,left,Distractor,0,2,2,2,1861.5586913590087,1863.5587622562452,left,1,3,0.5281632035039365,D27N05,2023-01-27_08h58.07.423,t1_Paradigm,2021.1.4,59.972449352854916,
R,left,Distractor,0,3,3,3,1865.0586438803293,1867.059310506782,left,1,3,0.8834362893685466,D27N05,2023-01-27_08h58.07.423,t1_Paradigm,2021.1.4,59.972449352854916,
H,left,Pretarget,0,4,4,4,1868.558751990582,1870.5587192687817,left,1,3,0.6803301565378206,D27N05,2023-01-27_08h58.07.423,t1_Paradigm,2021.1.4,59.972449352854916,
K,left,Distractor,0,5,5,5,1872.0589383765182,1874.0599703963962,left,1,3,0.5869822416862007,D27N05,2023-01-27_08h58.07.423,t1_Paradigm,2021.1.4,59.972449352854916,
G,left,Distractor,0,6,6,6,1875.5586121209344,1877.560646967715,left,1,3,0.4624613594060065,D27N05,2023-01-27_08h58.07.423,t1_Paradigm,2021.1.4,59.972449352854916,
H,right,Target,0,7,7,7,1879.0588456647529,1881.0592691233323,right,1,3,0.6122203729755711,D27N05,2023-01-27_08h58.07.423,t1_Paradigm,2021.1.4,59.972449352854916,
Y,left,Pretarget,0,8,8,8,1882.558401995644,1884.5603053136438,left,1,3,0.5985477937065298,D27N05,2023-01-27_08h58.07.423,t1_Paradigm,2021.1.4,59.972449352854916,
S,left,Distractor,0,9,9,9,1886.058583248756,1888.0590435995546,left,1,3,0.49195107899140567,D27N05,2023-01-27_08h58.07.423,t1_Paradigm,2021.1.4,59.972449352854916,
P,left,Distractor,0,10,10,10,1889.5585158803442,1891.5587750883278,left,1,3,0.4643117450759746,D27N05,2023-01-27_08h58.07.423,t1_Paradigm,2021.1.4,59.972449352854916,
Y,right,Target,0,11,11,11,1893.058771559503,1895.0589329228824,right,1,3,0.9800429104652721,D27N05,2023-01-27_08h58.07.423,t1_Paradigm,2021.1.4,59.972449352854916,
H,left,Lure,0,12,12,12,1896.5584132237127,1898.5592578952637,left,1,3,0.6638040438992903,D27N05,2023-01-27_08h58.07.423,t1_Paradigm,2021.1.4,59.972449352854916,
Q,left,Distractor,0,13,13,13,1900.0754327297618,1902.0592495544115,left,1,3,0.4917518609727267,D27N05,2023-01-27_08h58.07.423,t1_Paradigm,2021.1.4,59.972449352854916,
V,left,Pretarget,0,14,14,14,1903.558493745004,1905.5590532236092,left,1,3,0.9118458687880775,D27N05,2023-01-27_08h58.07.423,t1_Paradigm,2021.1.4,59.972449352854916,
G,left,Distractor,0,15,15,15,1907.0587738051108,1909.059947940259,left,1,3,0.8189284701365978,D27N05,2023-01-27_08h58.07.423,t1_Paradigm,2021.1.4,59.972449352854916,
Z,left,Pretarget,0,16,16,16,1910.5587670682726,1912.558698095847,left,1,3,0.6324206303834217,D27N05,2023-01-27_08h58.07.423,t1_Paradigm,2021.1.4,59.972449352854916,
V,right,Target,0,17,17,17,1914.0586490131536,1916.0588899354188,right,1,3,0.5560501965228468,D27N05,2023-01-27_08h58.07.423,t1_Paradigm,2021.1.4,59.972449352854916,
N,left,Distractor,0,18,18,18,1917.5587375544856,1919.5588286622515,left,1,3,1.1679414266982349,D27N05,2023-01-27_08h58.07.423,t1_Paradigm,2021.1.4,59.972449352854916,
Z,right,Target,0,19,19,19,1921.0586313690437,1923.058755840204,right,1,3,1.2839892877818784,D27N05,2023-01-27_08h58.07.423,t1_Paradigm,2021.1.4,59.972449352854916,
R,left,Distractor,0,20,20,20,1924.5583509881399,1926.5594503764296,left,1,3,0.9194209653069265,D27N05,2023-01-27_08h58.07.423,t1_Paradigm,2021.1.4,59.972449352854916,
P,left,Distractor,0,21,21,21,1928.0588187173853,1930.0587709178944,left,1,3,0.4921826979989419,D27N05,2023-01-27_08h58.07.423,t1_Paradigm,2021.1.4,59.972449352854916,
Z,right,Target,0,22,22,22,1931.558564000632,1933.5597211332788,left,0,3,1.0871853093267418,D27N05,2023-01-27_08h58.07.423,t1_Paradigm,2021.1.4,59.972449352854916,
D,left,Pretarget,0,23,23,23,1935.0588097349391,1937.0584231685789,left,1,3,1.1885086815454997,D27N05,2023-01-27_08h58.07.423,t1_Paradigm,2021.1.4,59.972449352854916,
K,left,Distractor,0,24,24,24,1938.5583497049374,1940.5588084517221,left,1,3,0.6000645453459583,D27N05,2023-01-27_08h58.07.423,t1_Paradigm,2021.1.4,59.972449352854916,
W,left,Distractor,0,25,25,25,1942.0584748176916,1944.0603803812992,left,1,3,0.6824554694758262,D27N05,2023-01-27_08h58.07.423,t1_Paradigm,2021.1.4,59.972449352854916,
D,right,Target,0,26,26,26,1945.5584850833548,1947.5588289830484,right,1,3,0.8801567310001701,D27N05,2023-01-27_08h58.07.423,t1_Paradigm,2021.1.4,59.972449352854916,
G,left,Pretarget,0,27,27,27,1949.0584841209493,1951.0595065167727,left,1,3,0.9794741286023054,D27N05,2023-01-27_08h58.07.423,t1_Paradigm,2021.1.4,59.972449352854916,
V,left,Distractor,0,28,28,28,1952.5587654642586,1954.558799790073,left,1,3,1.11227009727736,D27N05,2023-01-27_08h58.07.423,t1_Paradigm,2021.1.4,59.972449352854916,
D,right,Target,0,29,29,29,1956.0585460357252,1958.059276822576,left,0,3,0.8916472153796349,D27N05,2023-01-27_08h58.07.423,t1_Paradigm,2021.1.4,59.972449352854916,
G,right,Target,0,30,30,30,1959.5588678000931,1961.5594147674128,right,1,3,0.8636383176053641,D27N05,2023-01-27_08h58.07.423,t1_Paradigm,2021.1.4,59.972449352854916,
B,left,Pretarget,0,31,31,31,1963.058535770062,1965.0599145768647,left,1,3,0.6430427038721973,D27N05,2023-01-27_08h58.07.423,t1_Paradigm,2021.1.4,59.972449352854916,
N,left,Distractor,0,32,32,32,1966.5579734042403,1968.5592732937512,left,1,3,1.271648999027093,D27N05,2023-01-27_08h58.07.423,t1_Paradigm,2021.1.4,59.972449352854916,
F,left,Distractor,0,33,33,33,1970.0583307776105,1972.060094225948,left,1,3,1.2111983621143736,D27N05,2023-01-27_08h58.07.423,t1_Paradigm,2021.1.4,59.972449352854916,
B,right,Target,0,34,34,34,1973.5589800807647,1975.559296391497,right,1,3,0.8317778716009343,D27N05,2023-01-27_08h58.07.423,t1_Paradigm,2021.1.4,59.972449352854916,
Q,left,Pretarget,0,35,35,35,1977.0584266974038,1979.0594885518658,left,1,3,0.4993747569969855,D27N05,2023-01-27_08h58.07.423,t1_Paradigm,2021.1.4,59.972449352854916,
S,left,Pretarget,0,36,36,36,1980.5585489229416,1982.5587869579904,left,1,3,0.584098873732728,D27N05,2023-01-27_08h58.07.423,t1_Paradigm,2021.1.4,59.972449352854916,
W,left,Distractor,0,37,37,37,1984.0584013540501,1986.060301464022,left,1,3,0.8745815138536273,D27N05,2023-01-27_08h58.07.423,t1_Paradigm,2021.1.4,59.972449352854916,
Q,right,Target,0,38,38,38,1987.5587231184036,1989.5587584066234,right,1,3,0.49607562969322316,D27N05,2023-01-27_08h58.07.423,t1_Paradigm,2021.1.4,59.972449352854916,
S,right,Target,0,39,39,39,1991.0586082713126,1993.0601109076524,right,1,3,0.8667590790137183,D27N05,2023-01-27_08h58.07.423,t1_Paradigm,2021.1.4,59.972449352854916,
T,left,Distractor,0,40,40,40,1994.5584908577875,1996.558273674862,None,0,3,,D27N05,2023-01-27_08h58.07.423,t1_Paradigm,2021.1.4,59.972449352854916,
G,left,Distractor,0,41,41,41,1998.0588017148839,2000.0748617022764,left,1,3,0.940074836689746,D27N05,2023-01-27_08h58.07.423,t1_Paradigm,2021.1.4,59.972449352854916,
D,left,Distractor,0,42,42,42,2001.5584411334858,2003.5592216446385,left,1,3,0.7196431527263485,D27N05,2023-01-27_08h58.07.423,t1_Paradigm,2021.1.4,59.972449352854916,
S,left,Lure,0,43,43,43,2005.058709644727,2007.0603027472243,left,1,3,1.186594777085702,D27N05,2023-01-27_08h58.07.423,t1_Paradigm,2021.1.4,59.972449352854916,
Z,left,Pretarget,0,44,44,44,2008.5585293540207,2010.5606986168277,left,1,3,0.774323204124812,D27N05,2023-01-27_08h58.07.423,t1_Paradigm,2021.1.4,59.972449352854916,
J,left,Distractor,0,45,45,45,2012.0586528627755,2014.0604631481983,left,1,3,0.618352502307971,D27N05,2023-01-27_08h58.07.423,t1_Paradigm,2021.1.4,59.972449352854916,
M,left,Pretarget,0,46,46,46,2015.5584382462694,2017.559641253596,left,1,3,0.8313685283064842,D27N05,2023-01-27_08h58.07.423,t1_Paradigm,2021.1.4,59.972449352854916,
Z,right,Target,0,47,47,47,2019.058722155998,2021.0589983664831,right,1,3,0.8198761191160884,D27N05,2023-01-27_08h58.07.423,t1_Paradigm,2021.1.4,59.972449352854916,
P,left,Distractor,0,48,48,48,2022.5587901660183,2024.5582826573227,left,1,3,0.5205861821596045,D27N05,2023-01-27_08h58.07.423,t1_Paradigm,2021.1.4,59.972449352854916,
M,right,Target,0,49,49,49,2026.0587811835576,2028.0597102260217,right,1,3,0.5072283096087631,D27N05,2023-01-27_08h58.07.423,t1_Paradigm,2021.1.4,59.972449352854916,
K,left,Distractor,0,50,50,50,2029.5584642312315,2031.558391088387,left,1,3,1.0405634822091088,D27N05,2023-01-27_08h58.07.423,t1_Paradigm,2021.1.4,59.972449352854916,
Y,left,Distractor,0,51,51,51,2033.0581196899293,2035.060270346221,left,1,3,0.7704049290477997,D27N05,2023-01-27_08h58.07.423,t1_Paradigm,2021.1.4,59.972449352854916,
X,left,Distractor,0,52,52,52,2036.558417394146,2038.5593435493793,left,1,3,0.8875666145177092,D27N05,2023-01-27_08h58.07.423,t1_Paradigm,2021.1.4,59.972449352854916,
F,left,Pretarget,0,53,53,53,2040.0587468577432,2042.0584068076714,left,1,3,0.7805804462259402,D27N05,2023-01-27_08h58.07.423,t1_Paradigm,2021.1.4,59.972449352854916,
M,left,Lure,0,54,54,54,2043.5586903966032,2045.5593919904786,left,1,3,1.0075564900180325,D27N05,2023-01-27_08h58.07.423,t1_Paradigm,2021.1.4,59.972449352854916,
V,left,Distractor,0,55,55,55,2047.0585210131685,2049.0601895041327,left,1,3,0.578839967303793,D27N05,2023-01-27_08h58.07.423,t1_Paradigm,2021.1.4,59.972449352854916,
F,right,Target,0,56,56,56,2050.5589313188684,2052.55890340911,right,1,3,0.7761357351555489,D27N05,2023-01-27_08h58.07.423,t1_Paradigm,2021.1.4,59.972449352854916,
S,left,Distractor,0,57,57,57,2054.058784070774,2056.060504531648,left,1,3,0.6503127177420538,D27N05,2023-01-27_08h58.07.423,t1_Paradigm,2021.1.4,59.972449352854916,
D,left,Distractor,0,58,58,58,2057.558685905373,2059.5602196595137,left,1,3,0.5265938403463224,D27N05,2023-01-27_08h58.07.423,t1_Paradigm,2021.1.4,59.972449352854916,
F,right,Target,0,59,59,59,2061.058531599643,2063.0595761307923,right,1,3,0.8353070138837211,D27N05,2023-01-27_08h58.07.423,t1_Paradigm,2021.1.4,59.972449352854916,
V,left,Pretarget,0,60,60,60,2064.5585107475054,2066.5593676095305,left,1,3,0.7274710412020795,D27N05,2023-01-27_08h58.07.423,t1_Paradigm,2021.1.4,59.972449352854916,
J,left,Distractor,0,61,61,61,2068.0584260557953,2070.0602180555143,left,1,3,0.5387294574466068,D27N05,2023-01-27_08h58.07.423,t1_Paradigm,2021.1.4,59.972449352854916,
V,left,Lure,0,62,62,62,2071.5585425069003,2073.559572601982,left,1,3,0.9594695603882428,D27N05,2023-01-27_08h58.07.423,t1_Paradigm,2021.1.4,59.972449352854916,
V,right,Target,0,63,63,63,2075.058802035681,2077.058419639754,right,1,3,1.4446231667825487,D27N05,2023-01-27_08h58.07.423,t1_Paradigm,2021.1.4,59.972449352854916,
R,left,Distractor,0,0,0,0,2164.8971335703827,2166.8918868544424,left,1,4,0.3311661022598855,D27N05,2023-01-27_08h58.07.423,t1_Paradigm,2021.1.4,59.972449352854916,
F,left,Distractor,0,1,1,1,2168.3916561978403,2170.392155044872,left,1,4,0.35058681093505584,D27N05,2023-01-27_08h58.07.423,t1_Paradigm,2021.1.4,59.972449352854916,
P,left,Pretarget,0,2,2,2,2171.892068749148,2173.893087936958,left,1,4,0.4176584793749498,D27N05,2023-01-27_08h58.07.423,t1_Paradigm,2021.1.4,59.972449352854916,
H,left,Distractor,0,3,3,3,2175.392035706551,2177.393155626167,left,1,4,1.0139054814790143,D27N05,2023-01-27_08h58.07.423,t1_Paradigm,2021.1.4,59.972449352854916,
Z,left,Distractor,0,4,4,4,2178.8917931802716,2180.893777340345,left,1,4,0.5531132546457229,D27N05,2023-01-27_08h58.07.423,t1_Paradigm,2021.1.4,59.972449352854916,
T,left,Distractor,0,5,5,5,2182.3920517466468,2184.3934536511806,left,1,4,1.3414988123986404,D27N05,2023-01-27_08h58.07.423,t1_Paradigm,2021.1.4,59.972449352854916,
P,right,Target,0,6,6,6,2185.891734473509,2187.8933275760064,right,1,4,1.1855152785137761,D27N05,2023-01-27_08h58.07.423,t1_Paradigm,2021.1.4,59.972449352854916,
G,left,Distractor,0,7,7,7,2189.391635666514,2191.393959876659,left,1,4,0.7090480266197119,D27N05,2023-01-27_08h58.07.423,t1_Paradigm,2021.1.4,59.972449352854916,
L,left,Distractor,0,8,8,8,2192.891704318128,2194.8924100824224,left,1,4,0.6827028077968862,D27N05,2023-01-27_08h58.07.423,t1_Paradigm,2021.1.4,59.972449352854916,
P,left,Lure,0,9,9,9,2196.3919417115685,2198.404764486462,left,1,4,0.9459628357435577,D27N05,2023-01-27_08h58.07.423,t1_Paradigm,2021.1.4,59.972449352854916,
Q,left,Pretarget,0,10,10,10,2199.89144607255,2201.893719275191,left,1,4,0.5133366996160476,D27N05,2023-01-27_08h58.07.423,t1_Paradigm,2021.1.4,59.972449352854916,
D,left,Distractor,0,11,11,11,2203.3916189848096,2205.392217280445,left,1,4,0.7107797155622393,D27N05,2023-01-27_08h58.07.423,t1_Paradigm,2021.1.4,59.972449352854916,
M,left,Pretarget,0,12,12,12,2206.8753440600995,2208.874944661671,left,1,4,0.796502488781698,D27N05,2023-01-27_08h58.07.423,t1_Paradigm,2021.1.4,59.972449352854916,
C,left,Distractor,0,13,13,13,2210.3751733934623,2212.376266044914,left,1,4,0.8945661923498847,D27N05,2023-01-27_08h58.07.423,t1_Paradigm,2021.1.4,59.972449352854916,
Q,right,Target,0,14,14,14,2213.8753617042094,2215.875033203003,None,0,4,,D27N05,2023-01-27_08h58.07.423,t1_Paradigm,2021.1.4,59.972449352854916,
R,left,Distractor,0,15,15,15,2217.374916751898,2219.375796070046,left,1,4,0.9350260555220302,D27N05,2023-01-27_08h58.07.423,t1_Paradigm,2021.1.4,59.972449352854916,
M,right,Target,0,16,16,16,2220.8754242605937,2222.876047257989,left,0,4,1.1788733948778827,D27N05,2023-01-27_08h58.07.423,t1_Paradigm,2021.1.4,59.972449352854916,
S,left,Distractor,0,17,17,17,2224.3915808093734,2226.393578443138,left,1,4,1.2294702789804433,D27N05,2023-01-27_08h58.07.423,t1_Paradigm,2021.1.4,59.972449352854916,
Z,left,Distractor,0,18,18,18,2227.892040839375,2229.8929009094136,left,1,4,0.7859317436086712,D27N05,2023-01-27_08h58.07.423,t1_Paradigm,2021.1.4,59.972449352854916,
L,left,Pretarget,0,19,19,19,2231.3916969396814,2233.392703616206,left,1,4,0.5501503277919255,D27N05,2023-01-27_08h58.07.423,t1_Paradigm,2021.1.4,59.972449352854916,
M,right,Target,0,20,20,20,2234.892012288008,2236.8925441776373,right,1,4,0.5382928459875984,D27N05,2023-01-27_08h58.07.423,t1_Paradigm,2021.1.4,59.972449352854916,
P,left,Distractor,0,21,21,21,2238.3920774107974,2240.391534293085,left,1,4,0.4795678027730901,D27N05,2023-01-27_08h58.07.423,t1_Paradigm,2021.1.4,59.972449352854916,
F,left,Distractor,0,22,22,22,2241.8918178820168,2243.8919612804893,left,1,4,0.8507930865889648,D27N05,2023-01-27_08h58.07.423,t1_Paradigm,2021.1.4,59.972449352854916,
L,right,Target,0,23,23,23,2245.391968338139,2247.3934908642113,right,1,4,0.7895077229914023,D27N05,2023-01-27_08h58.07.423,t1_Paradigm,2021.1.4,59.972449352854916,
L,left,Lure,0,24,24,24,2248.8917113757634,2250.8919930398843,left,1,4,0.7948750604700763,D27N05,2023-01-27_08h58.07.423,t1_Paradigm,2021.1.4,59.972449352854916,
V,left,Pretarget,0,25,25,25,2252.391890062456,2254.393160117397,left,1,4,1.117660532516311,D27N05,2023-01-27_08h58.07.423,t1_Paradigm,2021.1.4,59.972449352854916,
Z,left,Distractor,0,26,26,26,2255.8920697115536,2257.8931719870598,left,1,4,0.8336122171604075,D27N05,2023-01-27_08h58.07.423,t1_Paradigm,2021.1.4,59.972449352854916,
H,left,Distractor,0,27,27,27,2259.3918396965455,2261.392966994623,left,1,4,0.917790328967385,D27N05,2023-01-27_08h58.07.423,t1_Paradigm,2021.1.4,59.972449352854916,
X,left,Distractor,0,28,28,28,2262.8917655912956,2264.8920453306055,None,0,4,,D27N05,2023-01-27_08h58.07.423,t1_Paradigm,2021.1.4,59.972449352854916,
V,right,Target,0,29,29,29,2266.391499967285,2268.3937321072735,left,0,4,0.6691678525676252,D27N05,2023-01-27_08h58.07.423,t1_Paradigm,2021.1.4,59.972449352854916,
C,left,Distractor,0,30,30,30,2269.8920777315943,2271.8936580020236,left,1,4,0.8971351743966807,D27N05,2023-01-27_08h58.07.423,t1_Paradigm,2021.1.4,59.972449352854916,
S,left,Pretarget,0,31,31,31,2273.391772007337,2275.392364849351,left,1,4,0.6944871467421763,D27N05,2023-01-27_08h58.07.423,t1_Paradigm,2021.1.4,59.972449352854916,
D,left,Distractor,0,32,32,32,2276.8919927190873,2278.8931469645177,left,1,4,0.6336265249410644,D27N05,2023-01-27_08h58.07.423,t1_Paradigm,2021.1.4,59.972449352854916,
V,left,Distractor,0,33,33,33,2280.3917177918047,2282.3919471652043,left,1,4,0.6868395489727845,D27N05,2023-01-27_08h58.07.423,t1_Paradigm,2021.1.4,59.972449352854916,
R,left,Distractor,0,34,34,34,2283.891569260508,2285.8927658517932,left,1,4,0.5462455264059827,D27N05,2023-01-27_08h58.07.423,t1_Paradigm,2021.1.4,59.972449352854916,
S,right,Target,0,35,35,35,2287.3917774609727,2289.3935136411455,left,0,4,0.42116644873749465,D27N05,2023-01-27_08h58.07.423,t1_Paradigm,2021.1.4,59.972449352854916,
Y,left,Distractor,0,36,36,36,2290.891678333166,2292.89359384164,left,1,4,1.3532571663963608,D27N05,2023-01-27_08h58.07.423,t1_Paradigm,2021.1.4,59.972449352854916,
N,left,Pretarget,0,37,37,37,2294.3920292905095,2296.3934786737373,left,1,4,0.989466147046187,D27N05,2023-01-27_08h58.07.423,t1_Paradigm,2021.1.4,59.972449352854916,
Z,left,Pretarget,0,38,38,38,2297.892166272941,2299.891917972229,left,1,4,0.4668977296241792,D27N05,2023-01-27_08h58.07.423,t1_Paradigm,2021.1.4,59.972449352854916,
P,left,Pretarget,0,39,39,39,2301.391995285492,2303.3935174907674,left,1,4,0.4370939449290745,D27N05,2023-01-27_08h58.07.423,t1_Paradigm,2021.1.4,59.972449352854916,
M,left,Distractor,0,40,40,40,2304.8919991351286,2306.8934594256134,left,1,4,0.45749149553012103,D27N05,2023-01-27_08h58.07.423,t1_Paradigm,2021.1.4,59.972449352854916,
N,right,Target,0,41,41,41,2308.3919484484068,2310.3925326287717,right,1,4,0.5743506647559116,D27N05,2023-01-27_08h58.07.423,t1_Paradigm,2021.1.4,59.972449352854916,
Z,right,Target,0,42,42,42,2311.8918570198584,2313.8919699421385,left,0,4,0.6429323479969753,D27N05,2023-01-27_08h58.07.423,t1_Paradigm,2021.1.4,59.972449352854916,
P,right,Target,0,43,43,43,2315.3916067943355,2317.393628809048,left,0,4,0.6618728161411127,D27N05,2023-01-27_08h58.07.423,t1_Paradigm,2021.1.4,59.972449352854916,
X,left,Pretarget,0,44,44,44,2318.8916786539776,2320.9046371280856,left,1,4,0.4942740059195785,D27N05,2023-01-27_08h58.07.423,t1_Paradigm,2021.1.4,59.972449352854916,
Z,left,Lure,0,45,45,45,2322.391812428381,2324.393174874276,left,1,4,0.7336490452289581,D27N05,2023-01-27_08h58.07.423,t1_Paradigm,2021.1.4,59.972449352854916,
R,left,Pretarget,0,46,46,46,2325.8919359371357,2327.8919609596924,left,1,4,0.9791125847987132,D27N05,2023-01-27_08h58.07.423,t1_Paradigm,2021.1.4,59.972449352854916,
K,left,Distractor,0,47,47,47,2329.3919628845033,2331.3910595062043,left,1,4,0.5676340342615731,D27N05,2023-01-27_08h58.07.423,t1_Paradigm,2021.1.4,59.972449352854916,
X,right,Target,0,48,48,48,2332.8916475361766,2334.8934780321288,left,0,4,0.7774507023568731,D27N05,2023-01-27_08h58.07.423,t1_Paradigm,2021.1.4,59.972449352854916,
B,left,Distractor,0,49,49,49,2336.391660047462,2338.3926840472996,left,1,4,0.8303182226954959,D27N05,2023-01-27_08h58.07.423,t1_Paradigm,2021.1.4,59.972449352854916,
R,right,Target,0,50,50,50,2339.8918339221127,2341.891666142692,left,0,4,0.45105396273720544,D27N05,2023-01-27_08h58.07.423,t1_Paradigm,2021.1.4,59.972449352854916,
Y,left,Pretarget,0,51,51,51,2343.391661972273,2345.393700989487,left,1,4,0.7892404949525371,D27N05,2023-01-27_08h58.07.423,t1_Paradigm,2021.1.4,59.972449352854916,
W,left,Pretarget,0,52,52,52,2346.8917636664846,2348.8930330798175,left,1,4,0.5218774100212613,D27N05,2023-01-27_08h58.07.423,t1_Paradigm,2021.1.4,59.972449352854916,
Z,left,Distractor,0,53,53,53,2350.3917142629944,2352.39395731024,left,1,4,0.461042452356196,D27N05,2023-01-27_08h58.07.423,t1_Paradigm,2021.1.4,59.972449352854916,
Q,left,Distractor,0,54,54,54,2353.891739606348,2355.8935072251043,left,1,4,0.3373405774764251,D27N05,2023-01-27_08h58.07.423,t1_Paradigm,2021.1.4,59.972449352854916,
Y,right,Target,0,55,55,55,2357.3912385136937,2359.3933108943165,left,0,4,0.6136200319015188,D27N05,2023-01-27_08h58.07.423,t1_Paradigm,2021.1.4,59.972449352854916,
W,right,Target,0,56,56,56,2360.8920074759662,2362.8935399469046,left,0,4,1.113426267518662,D27N05,2023-01-27_08h58.07.423,t1_Paradigm,2021.1.4,59.972449352854916,
H,left,Pretarget,0,57,57,57,2364.392000097534,2366.3926506838907,left,1,4,0.6381886495219078,D27N05,2023-01-27_08h58.07.423,t1_Paradigm,2021.1.4,59.972449352854916,
M,left,Distractor,0,58,58,58,2367.892056558674,2369.891445430956,left,1,4,0.8993644271686208,D27N05,2023-01-27_08h58.07.423,t1_Paradigm,2021.1.4,59.972449352854916,
R,left,Pretarget,0,59,59,59,2371.391947806813,2373.393192518386,left,1,4,0.565443919331301,D27N05,2023-01-27_08h58.07.423,t1_Paradigm,2021.1.4,59.972449352854916,
J,left,Distractor,0,60,60,60,2374.891757571255,2376.893116809122,left,1,4,0.5217753950128099,D27N05,2023-01-27_08h58.07.423,t1_Paradigm,2021.1.4,59.972449352854916,
H,right,Target,0,61,61,61,2378.391896478497,2380.3923202578735,right,1,4,0.6226021657930687,D27N05,2023-01-27_08h58.07.423,t1_Paradigm,2021.1.4,59.972449352854916,
Z,left,Distractor,0,62,62,62,2381.8915631652635,2383.893428307827,left,1,4,0.48194045401760377,D27N05,2023-01-27_08h58.07.423,t1_Paradigm,2021.1.4,59.972449352854916,
R,right,Target,0,63,63,63,2385.3916709547193,2387.391528518652,right,1,4,1.0634385863086209,D27N05,2023-01-27_08h58.07.423,t1_Paradigm,2021.1.4,59.972449352854916,
J,left,Pretarget,0,0,0,0,2439.0070711166627,2441.010251547239,left,1,4,0.8363970989157679,D27N05,2023-01-27_08h58.07.423,t1_Paradigm,2021.1.4,59.972449352854916,
G,left,Pretarget,0,1,1,1,2442.508575357031,2444.509832900687,left,1,4,0.4409628164867172,D27N05,2023-01-27_08h58.07.423,t1_Paradigm,2021.1.4,59.972449352854916,
Z,left,Distractor,0,2,2,2,2446.0086571615248,2448.009759437031,left,1,4,0.6211120407242561,D27N05,2023-01-27_08h58.07.423,t1_Paradigm,2021.1.4,59.972449352854916,
F,left,Distractor,0,3,3,3,2449.5083443796175,2451.5101809707994,left,1,4,0.3844593268004246,D27N05,2023-01-27_08h58.07.423,t1_Paradigm,2021.1.4,59.972449352854916,
J,right,Target,0,4,4,4,2453.0084816828603,2455.008713301868,right,1,4,0.4540781627583783,D27N05,2023-01-27_08h58.07.423,t1_Paradigm,2021.1.4,59.972449352854916,
G,right,Target,0,5,5,5,2456.508867928409,2458.5099143843836,right,1,4,0.424881656159414,D27N05,2023-01-27_08h58.07.423,t1_Paradigm,2021.1.4,59.972449352854916,
H,left,Distractor,0,6,6,6,2460.0087550061144,2462.0080524498335,left,1,4,0.5908116546052042,D27N05,2023-01-27_08h58.07.423,t1_Paradigm,2021.1.4,59.972449352854916,
P,left,Distractor,0,7,7,7,2463.5081701841555,2465.508554825705,left,1,4,0.674388904357329,D27N05,2023-01-27_08h58.07.423,t1_Paradigm,2021.1.4,59.972449352854916,
G,left,Lure,0,8,8,8,2467.008645612659,2469.0089375424286,left,1,4,0.8376549633831019,D27N05,2023-01-27_08h58.07.423,t1_Paradigm,2021.1.4,59.972449352854916,
S,left,Distractor,0,9,9,9,2470.5083199986693,2472.5082083595917,left,1,4,0.650749008404091,D27N05,2023-01-27_08h58.07.423,t1_Paradigm,2021.1.4,59.972449352854916,
R,left,Pretarget,0,10,10,10,2474.008567016179,2476.010185141233,left,1,4,0.5567222766112536,D27N05,2023-01-27_08h58.07.423,t1_Paradigm,2021.1.4,59.972449352854916,
T,left,Pretarget,0,11,11,11,2477.508320961075,2479.508570224192,left,1,4,0.5307286567258416,D27N05,2023-01-27_08h58.07.423,t1_Paradigm,2021.1.4,59.972449352854916,
X,left,Distractor,0,12,12,12,2481.008577923436,2483.0085930011264,left,1,4,0.582350182288792,D27N05,2023-01-27_08h58.07.423,t1_Paradigm,2021.1.4,59.972449352854916,
F,left,Pretarget,0,13,13,13,2484.5087335123826,2486.510046233976,None,0,4,,D27N05,2023-01-27_08h58.07.423,t1_Paradigm,2021.1.4,59.972449352854916,
R,right,Target,0,14,14,14,2488.0085869058967,2490.009959296658,left,0,4,1.0688675177807454,D27N05,2023-01-27_08h58.07.423,t1_Paradigm,2021.1.4,59.972449352854916,
T,right,Target,0,15,15,15,2491.508299146546,2493.51015017381,right,1,4,0.4487416222546017,D27N05,2023-01-27_08h58.07.423,t1_Paradigm,2021.1.4,59.972449352854916,
C,left,Distractor,0,16,16,16,2495.0085323695675,2497.010205993356,left,1,4,0.5325328469043598,D27N05,2023-01-27_08h58.07.423,t1_Paradigm,2021.1.4,59.972449352854916,
F,right,Target,0,17,17,17,2498.5086013419786,2500.5102932514856,right,1,4,1.161339643294923,D27N05,2023-01-27_08h58.07.423,t1_Paradigm,2021.1.4,59.972449352854916,
M,left,Distractor,0,18,18,18,2502.0083899335004,2504.0090697128326,None,0,4,,D27N05,2023-01-27_08h58.07.423,t1_Paradigm,2021.1.4,59.972449352854916,
N,left,Distractor,0,19,19,19,2505.5085204998904,2507.5089215023327,left,1,4,0.6580286463286029,D27N05,2023-01-27_08h58.07.423,t1_Paradigm,2021.1.4,59.972449352854916,
R,left,Lure,0,20,20,20,2509.0086510662804,2511.0101864244352,left,1,4,0.5325665311247576,D27N05,2023-01-27_08h58.07.423,t1_Paradigm,2021.1.4,59.972449352854916,
F,right,Target,0,21,21,21,2512.508310053803,2514.510121301646,right,1,4,0.5846843372855801,D27N05,2023-01-27_08h58.07.423,t1_Paradigm,2021.1.4,59.972449352854916,
P,left,Distractor,0,22,22,22,2516.0082125300105,2518.0101174520096,left,1,4,0.5248066526546609,D27N05,2023-01-27_08h58.07.423,t1_Paradigm,2021.1.4,59.972449352854916,
L,left,Pretarget,0,23,23,23,2519.5085362191894,2521.508598775574,left,1,4,0.7062884882034268,D27N05,2023-01-27_08h58.07.423,t1_Paradigm,2021.1.4,59.972449352854916,
T,left,Distractor,0,24,24,24,2523.0087347955996,2525.0100366099214,left,1,4,0.7248856982623693,D27N05,2023-01-27_08h58.07.423,t1_Paradigm,2021.1.4,59.972449352854916,
F,left,Distractor,0,25,25,25,2526.508199056334,2528.5090491815063,left,1,4,0.7616797575319652,D27N05,2023-01-27_08h58.07.423,t1_Paradigm,2021.1.4,59.972449352854916,
V,left,Distractor,0,26,26,26,2530.0085201790935,2532.010197652504,left,1,4,0.6366189655527705,D27N05,2023-01-27_08h58.07.423,t1_Paradigm,2021.1.4,59.972449352854916,
L,right,Target,0,27,27,27,2533.508410144015,2535.5105498930498,left,0,4,0.5445542585221119,D27N05,2023-01-27_08h58.07.423,t1_Paradigm,2021.1.4,59.972449352854916,
S,left,Pretarget,0,28,28,28,2537.0083389259817,2539.01025347205,left,1,4,0.5005161703447811,D27N05,2023-01-27_08h58.07.423,t1_Paradigm,2021.1.4,59.972449352854916,
W,left,Distractor,0,29,29,29,2540.508567657773,2542.5101152064017,left,1,4,0.5686137634329498,D27N05,2023-01-27_08h58.07.423,t1_Paradigm,2021.1.4,59.972449352854916,
Q,left,Distractor,0,30,30,30,2544.008295617721,2546.009949030995,left,1,4,0.7970125638821628,D27N05,2023-01-27_08h58.07.423,t1_Paradigm,2021.1.4,59.972449352854916,
L,right,Target,0,31,31,31,2547.508364910944,2549.5101415121608,left,0,4,0.6408083182614064,D27N05,2023-01-27_08h58.07.423,t1_Paradigm,2021.1.4,59.972449352854916,
S,right,Target,0,32,32,32,2551.008605833209,2553.0100998079142,right,1,4,0.5011032379261451,D27N05,2023-01-27_08h58.07.423,t1_Paradigm,2021.1.4,59.972449352854916,
Z,left,Pretarget,0,33,33,33,2554.508604229195,2556.5100786349794,left,1,4,0.7766778904624516,D27N05,2023-01-27_08h58.07.423,t1_Paradigm,2021.1.4,59.972449352854916,
F,left,Distractor,0,34,34,34,2558.0084537730872,2560.0092458331055,left,1,4,0.749478696816368,D27N05,2023-01-27_08h58.07.423,t1_Paradigm,2021.1.4,59.972449352854916,
V,left,Distractor,0,35,35,35,2561.50854423923,2563.5087912567396,left,1,4,0.7541056234040298,D27N05,2023-01-27_08h58.07.423,t1_Paradigm,2021.1.4,59.972449352854916,
M,left,Distractor,0,36,36,36,2565.008138745572,2567.009915667586,None,0,4,,D27N05,2023-01-27_08h58.07.423,t1_Paradigm,2021.1.4,59.972449352854916,
Z,right,Target,0,37,37,37,2568.508480720455,2570.510141191364,right,1,4,0.7615357174508972,D27N05,2023-01-27_08h58.07.423,t1_Paradigm,2021.1.4,59.972449352854916,
H,left,Pretarget,0,38,38,38,2572.008285352058,2574.010195406896,left,1,4,0.7166029126237845,D27N05,2023-01-27_08h58.07.423,t1_Paradigm,2021.1.4,59.972449352854916,
L,left,Distractor,0,39,39,39,2575.5083267355076,2577.510296459499,left,1,4,0.4324570734897861,D27N05,2023-01-27_08h58.07.423,t1_Paradigm,2021.1.4,59.972449352854916,
G,left,Distractor,0,40,40,40,2579.0076876980165,2581.01060025896,left,1,4,0.5480599822767545,D27N05,2023-01-27_08h58.07.423,t1_Paradigm,2021.1.4,59.972449352854916,
K,left,Distractor,0,41,41,41,2582.5085240287153,2584.5093372616684,left,1,4,0.7456579455611063,D27N05,2023-01-27_08h58.07.423,t1_Paradigm,2021.1.4,59.972449352854916,
H,right,Target,0,42,42,42,2586.008376780621,2588.0097042590933,right,1,4,0.6690744991938118,D27N05,2023-01-27_08h58.07.423,t1_Paradigm,2021.1.4,59.972449352854916,
B,left,Distractor,0,43,43,43,2589.5084412618016,2591.510362865505,left,1,4,0.6086437519843457,D27N05,2023-01-27_08h58.07.423,t1_Paradigm,2021.1.4,59.972449352854916,
Z,left,Distractor,0,44,44,44,2593.008617702886,2595.0082558382855,left,1,4,0.7105750439222902,D27N05,2023-01-27_08h58.07.423,t1_Paradigm,2021.1.4,59.972449352854916,
T,left,Pretarget,0,45,45,45,2596.5083183946554,2598.5100747853576,left,1,4,0.4246535659622168,D27N05,2023-01-27_08h58.07.423,t1_Paradigm,2021.1.4,59.972449352854916,
H,right,Target,0,46,46,46,2600.0085105550243,2602.0097350560827,left,0,4,0.5891704318200937,D27N05,2023-01-27_08h58.07.423,t1_Paradigm,2021.1.4,59.972449352854916,
F,left,Distractor,0,47,47,47,2603.50826097111,2605.5099124595727,left,1,4,0.6570331978728063,D27N05,2023-01-27_08h58.07.423,t1_Paradigm,2021.1.4,59.972449352854916,
R,left,Distractor,0,48,48,48,2607.0085699033953,2609.009949672589,None,0,4,,D27N05,2023-01-27_08h58.07.423,t1_Paradigm,2021.1.4,59.972449352854916,
T,right,Target,0,49,49,49,2610.50848777809,2612.5100946750754,left,0,4,0.7128646074561402,D27N05,2023-01-27_08h58.07.423,t1_Paradigm,2021.1.4,59.972449352854916,
H,right,Target,0,50,50,50,2614.0085551465017,2616.0090716376435,right,1,4,0.49374179549340624,D27N05,2023-01-27_08h58.07.423,t1_Paradigm,2021.1.4,59.972449352854916,
Y,left,Pretarget,0,51,51,51,2617.508618023683,2619.5088105048635,left,1,4,0.45002322606160305,D27N05,2023-01-27_08h58.07.423,t1_Paradigm,2021.1.4,59.972449352854916,
H,left,Distractor,0,52,52,52,2621.0085272367287,2623.0090979434026,left,1,4,0.7736431039666058,D27N05,2023-01-27_08h58.07.423,t1_Paradigm,2021.1.4,59.972449352854916,
S,left,Distractor,0,53,53,53,2624.50833507636,2626.5098088405357,left,1,4,0.8091792987834197,D27N05,2023-01-27_08h58.07.423,t1_Paradigm,2021.1.4,59.972449352854916,
Q,left,Distractor,0,54,54,54,2628.008379026229,2630.0100712565327,left,1,4,0.7006972309754929,D27N05,2023-01-27_08h58.07.423,t1_Paradigm,2021.1.4,59.972449352854916,
Y,right,Target,0,55,55,55,2631.508333472346,2633.508991437164,left,0,4,1.29797176172724,D27N05,2023-01-27_08h58.07.423,t1_Paradigm,2021.1.4,59.972449352854916,
R,left,Distractor,0,56,56,56,2635.008183337035,2637.009818785402,left,1,4,1.0768465039727744,D27N05,2023-01-27_08h58.07.423,t1_Paradigm,2021.1.4,59.972449352854916,
H,left,Pretarget,0,57,57,57,2638.508442224207,2640.5085105550243,None,0,4,,D27N05,2023-01-27_08h58.07.423,t1_Paradigm,2021.1.4,59.972449352854916,
J,left,Distractor,0,58,58,58,2642.008113081407,2644.010299667527,left,1,4,0.9725470520206727,D27N05,2023-01-27_08h58.07.423,t1_Paradigm,2021.1.4,59.972449352854916,
V,left,Distractor,0,59,59,59,2645.5081788458047,2647.5093423944927,left,1,4,0.5935875539144035,D27N05,2023-01-27_08h58.07.423,t1_Paradigm,2021.1.4,59.972449352854916,
Y,left,Lure,0,60,60,60,2649.008609041237,2651.0099185548024,right,0,4,1.02899472216086,D27N05,2023-01-27_08h58.07.423,t1_Paradigm,2021.1.4,59.972449352854916,
H,right,Target,0,61,61,61,2652.5081541440595,2654.508760780547,left,0,4,0.7301837425329722,D27N05,2023-01-27_08h58.07.423,t1_Paradigm,2021.1.4,59.972449352854916,
L,left,Distractor,0,62,62,62,2656.0082051515637,2658.009500229062,left,1,4,0.5413202540221391,D27N05,2023-01-27_08h58.07.423,t1_Paradigm,2021.1.4,59.972449352854916,
P,left,Distractor,0,63,63,63,2659.5086225149134,2661.521264678304,None,0,4,,D27N05,2023-01-27_08h58.07.423,t1_Paradigm,2021.1.4,59.972449352854916,
