Letter,CorrAnswer,Stimulus,nback_run.thisRepN,nback_run.thisTrialN,nback_run.thisN,nback_run.thisIndex,fixcross.started,nback_trial.started,trial_resp.keys,trial_resp.corr,currentlevel,trial_resp.rt,Participant,date,expName,psychopyVersion,frameRate,
H,left,Distractor,0,0,0,0,233.85915350634605,235.79537936119596,None,0,1,,D29N05,2023-01-30_12h16.58.275,t1_Paradigm,2021.1.4,60.01251387114412,
Q,left,Pretarget,0,1,1,1,237.29429120093118,239.29625482967822,left,1,1,0.5444166344823316,D29N05,2023-01-30_12h16.58.275,t1_Paradigm,2021.1.4,60.01251387114412,
Q,right,Target,0,2,2,2,240.79413336637663,242.79428446409293,None,0,1,,D29N05,2023-01-30_12h16.58.275,t1_Paradigm,2021.1.4,60.01251387114412,
T,left,Distractor,0,3,3,3,244.29398836387554,246.30681562999962,left,1,1,0.797900864505209,D29N05,2023-01-30_12h16.58.275,t1_Paradigm,2021.1.4,60.01251387114412,
Q,left,Lure,0,4,4,4,247.79427451925585,249.79517789755482,None,0,1,,D29N05,2023-01-30_12h16.58.275,t1_Paradigm,2021.1.4,60.01251387114412,
L,left,Distractor,0,5,5,5,251.29414972726954,253.29620382218855,left,1,1,0.6403521378524601,D29N05,2023-01-30_12h16.58.275,t1_Paradigm,2021.1.4,60.01251387114412,
V,left,Pretarget,0,6,6,6,254.7941096270224,256.7957178072538,None,0,1,,D29N05,2023-01-30_12h16.58.275,t1_Paradigm,2021.1.4,60.01251387114412,
V,right,Target,0,7,7,7,258.2942373062251,260.2941170054837,left,0,1,0.6183018156443723,D29N05,2023-01-30_12h16.58.275,t1_Paradigm,2021.1.4,60.01251387114412,
K,left,Distractor,0,8,8,8,261.7942045844393,263.7959157420555,None,0,1,,D29N05,2023-01-30_12h16.58.275,t1_Paradigm,2021.1.4,60.01251387114412,
G,left,Pretarget,0,9,9,9,265.29425527114654,267.29587243375136,left,1,1,0.7685275960247964,D29N05,2023-01-30_12h16.58.275,t1_Paradigm,2021.1.4,60.01251387114412,
G,right,Target,0,10,10,10,268.7934041835251,270.79323704569833,None,0,1,,D29N05,2023-01-30_12h16.58.275,t1_Paradigm,2021.1.4,60.01251387114412,
G,right,Target,0,11,11,11,272.2942514215247,274.2941096270224,right,1,1,0.7144910733331926,D29N05,2023-01-30_12h16.58.275,t1_Paradigm,2021.1.4,60.01251387114412,
P,left,Pretarget,0,12,12,12,275.79403231374454,277.79625098005636,None,0,1,,D29N05,2023-01-30_12h16.58.275,t1_Paradigm,2021.1.4,60.01251387114412,
P,right,Target,0,13,13,13,279.2943130154745,281.2943104490405,right,1,1,0.6262102253967896,D29N05,2023-01-30_12h16.58.275,t1_Paradigm,2021.1.4,60.01251387114412,
G,left,Lure,0,14,14,14,282.7940977573744,284.7961909901351,None,0,1,,D29N05,2023-01-30_12h16.58.275,t1_Paradigm,2021.1.4,60.01251387114412,
Y,left,Distractor,0,15,15,15,286.2942344190087,288.29574058414437,left,1,1,0.6650955925579183,D29N05,2023-01-30_12h16.58.275,t1_Paradigm,2021.1.4,60.01251387114412,
B,left,Distractor,0,16,16,16,289.7942565543344,291.79585190245416,None,0,1,,D29N05,2023-01-30_12h16.58.275,t1_Paradigm,2021.1.4,60.01251387114412,
T,left,Pretarget,0,17,17,17,293.2932845244068,295.29489077976905,left,1,1,0.6255407116841525,D29N05,2023-01-30_12h16.58.275,t1_Paradigm,2021.1.4,60.01251387114412,
T,right,Target,0,18,18,18,296.79413529118756,298.7940258977469,None,0,1,,D29N05,2023-01-30_12h16.58.275,t1_Paradigm,2021.1.4,60.01251387114412,
S,left,Distractor,0,19,19,19,300.29388410324464,302.2969339674455,left,1,1,0.6315063448273577,D29N05,2023-01-30_12h16.58.275,t1_Paradigm,2021.1.4,60.01251387114412,
T,left,Lure,0,20,20,20,303.79414844408166,305.7956735365442,None,0,1,,D29N05,2023-01-30_12h16.58.275,t1_Paradigm,2021.1.4,60.01251387114412,
J,left,Distractor,0,21,21,21,307.2941859778948,309.295740904985,left,1,1,0.720748957071919,D29N05,2023-01-30_12h16.58.275,t1_Paradigm,2021.1.4,60.01251387114412,
P,left,Distractor,0,22,22,22,310.79372594790766,312.793630990549,None,0,1,,D29N05,2023-01-30_12h16.58.275,t1_Paradigm,2021.1.4,60.01251387114412,
F,left,Distractor,0,23,23,23,314.2943357924232,316.29620382218855,left,1,1,0.5842903924640268,D29N05,2023-01-30_12h16.58.275,t1_Paradigm,2021.1.4,60.01251387114412,
L,left,Distractor,0,24,24,24,317.7942331357626,319.7953517722199,None,0,1,,D29N05,2023-01-30_12h16.58.275,t1_Paradigm,2021.1.4,60.01251387114412,
W,left,Pretarget,0,25,25,25,321.29371696547605,323.2966446040664,left,1,1,0.5918680554605089,D29N05,2023-01-30_12h16.58.275,t1_Paradigm,2021.1.4,60.01251387114412,
W,right,Target,0,26,26,26,324.7942049052217,326.7939437724417,None,0,1,,D29N05,2023-01-30_12h16.58.275,t1_Paradigm,2021.1.4,60.01251387114412,
V,left,Distractor,0,27,27,27,328.2942514215247,330.2949533361825,left,1,1,0.6494674045825377,D29N05,2023-01-30_12h16.58.275,t1_Paradigm,2021.1.4,60.01251387114412,
W,left,Lure,0,28,28,28,331.79438615834806,333.7949866995914,None,0,1,,D29N05,2023-01-30_12h16.58.275,t1_Paradigm,2021.1.4,60.01251387114412,
R,left,Pretarget,0,29,29,29,335.29417795786867,337.29565653408645,left,1,1,0.6569042354822159,D29N05,2023-01-30_12h16.58.275,t1_Paradigm,2021.1.4,60.01251387114412,
R,right,Target,0,30,30,30,338.79411315586185,340.7942873513093,None,0,1,,D29N05,2023-01-30_12h16.58.275,t1_Paradigm,2021.1.4,60.01251387114412,
G,left,Distractor,0,31,31,31,342.2942565543344,344.29579030844616,left,1,1,0.6647205750923604,D29N05,2023-01-30_12h16.58.275,t1_Paradigm,2021.1.4,60.01251387114412,
R,left,Lure,0,32,32,32,345.794094870158,347.81049137876835,None,0,1,,D29N05,2023-01-30_12h16.58.275,t1_Paradigm,2021.1.4,60.01251387114412,
S,left,Distractor,0,33,33,33,349.29426714079455,351.29608801269205,left,1,1,0.5446665391791612,D29N05,2023-01-30_12h16.58.275,t1_Paradigm,2021.1.4,60.01251387114412,
R,left,Lure,0,34,34,34,352.79408973729005,354.7955323837232,None,0,1,,D29N05,2023-01-30_12h16.58.275,t1_Paradigm,2021.1.4,60.01251387114412,
P,left,Pretarget,0,35,35,35,356.2940169152571,358.29573865933344,left,1,1,0.5686785653815605,D29N05,2023-01-30_12h16.58.275,t1_Paradigm,2021.1.4,60.01251387114412,
P,right,Target,0,36,36,36,359.7939081634395,361.7942340981681,None,0,1,,D29N05,2023-01-30_12h16.58.275,t1_Paradigm,2021.1.4,60.01251387114412,
Y,left,Pretarget,0,37,37,37,363.29383117094403,365.2960992407752,left,1,1,0.5444730956223793,D29N05,2023-01-30_12h16.58.275,t1_Paradigm,2021.1.4,60.01251387114412,
Y,right,Target,0,38,38,38,366.794123742322,368.7941231006989,None,0,1,,D29N05,2023-01-30_12h16.58.275,t1_Paradigm,2021.1.4,60.01251387114412,
J,left,Distractor,0,39,39,39,370.2942007348174,372.29573737614555,left,1,1,0.6326679686899297,D29N05,2023-01-30_12h16.58.275,t1_Paradigm,2021.1.4,60.01251387114412,
Y,left,Lure,0,40,40,40,373.7937044541468,375.7955301380716,None,0,1,,D29N05,2023-01-30_12h16.58.275,t1_Paradigm,2021.1.4,60.01251387114412,
T,left,Distractor,0,41,41,41,377.29367012839066,379.293674940418,left,1,1,0.6588720346917398,D29N05,2023-01-30_12h16.58.275,t1_Paradigm,2021.1.4,60.01251387114412,
V,left,Distractor,0,42,42,42,380.7939203538699,382.79533829854336,None,0,1,,D29N05,2023-01-30_12h16.58.275,t1_Paradigm,2021.1.4,60.01251387114412,
N,left,Pretarget,0,43,43,43,384.2936707699555,386.296685666719,left,1,1,0.679945194220636,D29N05,2023-01-30_12h16.58.275,t1_Paradigm,2021.1.4,60.01251387114412,
N,right,Target,0,44,44,44,387.7941692962195,389.7940769052366,None,0,1,,D29N05,2023-01-30_12h16.58.275,t1_Paradigm,2021.1.4,60.01251387114412,
N,right,Target,0,45,45,45,391.29421164205996,393.29414555686526,right,1,1,0.6743565033539198,D29N05,2023-01-30_12h16.58.275,t1_Paradigm,2021.1.4,60.01251387114412,
X,left,Distractor,0,46,46,46,394.79365248425165,396.7956254162709,None,0,1,,D29N05,2023-01-30_12h16.58.275,t1_Paradigm,2021.1.4,60.01251387114412,
Z,left,Distractor,0,47,47,47,398.2942578375223,400.295650438813,left,1,1,0.6326647606911138,D29N05,2023-01-30_12h16.58.275,t1_Paradigm,2021.1.4,60.01251387114412,
H,left,Pretarget,0,48,48,48,401.7932585394592,403.7963103284128,None,0,1,,D29N05,2023-01-30_12h16.58.275,t1_Paradigm,2021.1.4,60.01251387114412,
H,right,Target,0,49,49,49,405.2941445944598,407.2940903789131,right,1,1,0.6583943605655804,D29N05,2023-01-30_12h16.58.275,t1_Paradigm,2021.1.4,60.01251387114412,
K,left,Distractor,0,50,50,50,408.79419688519556,410.7954727145261,None,0,1,,D29N05,2023-01-30_12h16.58.275,t1_Paradigm,2021.1.4,60.01251387114412,
V,left,Pretarget,0,51,51,51,412.29424051422393,414.2952394915046,left,1,1,0.6170692945015617,D29N05,2023-01-30_12h16.58.275,t1_Paradigm,2021.1.4,60.01251387114412,
V,right,Target,0,52,52,52,415.7940242937184,417.7939659077674,None,0,1,,D29N05,2023-01-30_12h16.58.275,t1_Paradigm,2021.1.4,60.01251387114412,
R,left,Distractor,0,53,53,53,419.29408685007365,421.2941753914347,left,1,1,0.5622474486590363,D29N05,2023-01-30_12h16.58.275,t1_Paradigm,2021.1.4,60.01251387114412,
V,left,Lure,0,54,54,54,422.7931866798317,424.7949619978317,None,0,1,,D29N05,2023-01-30_12h16.58.275,t1_Paradigm,2021.1.4,60.01251387114412,
Y,left,Distractor,0,55,55,55,426.2938128852402,428.2962400728138,left,1,1,0.6482034448999912,D29N05,2023-01-30_12h16.58.275,t1_Paradigm,2021.1.4,60.01251387114412,
Q,left,Distractor,0,56,56,56,429.79406920599286,431.7961390201817,None,0,1,,D29N05,2023-01-30_12h16.58.275,t1_Paradigm,2021.1.4,60.01251387114412,
Z,left,Pretarget,0,57,57,57,433.29394858446904,435.2953626794624,left,1,1,0.5931310527375899,D29N05,2023-01-30_12h16.58.275,t1_Paradigm,2021.1.4,60.01251387114412,
Z,right,Target,0,58,58,58,436.7941888651112,438.7942177372752,None,0,1,,D29N05,2023-01-30_12h16.58.275,t1_Paradigm,2021.1.4,60.01251387114412,
B,left,Distractor,0,59,59,59,440.2940541282878,442.29630968684796,left,1,1,0.6480722369160503,D29N05,2023-01-30_12h16.58.275,t1_Paradigm,2021.1.4,60.01251387114412,
S,left,Pretarget,0,60,60,60,443.79411347664427,445.7957277520909,None,0,1,,D29N05,2023-01-30_12h16.58.275,t1_Paradigm,2021.1.4,60.01251387114412,
S,right,Target,0,61,61,61,447.29408364207484,449.2941150806728,right,1,1,0.6263725511380471,D29N05,2023-01-30_12h16.58.275,t1_Paradigm,2021.1.4,60.01251387114412,
T,left,Distractor,0,62,62,62,450.7939055970055,452.79377150180517,None,0,1,,D29N05,2023-01-30_12h16.58.275,t1_Paradigm,2021.1.4,60.01251387114412,
D,left,Distractor,0,63,63,63,454.2938982185442,456.29558307043044,left,1,1,0.6328418433549814,D29N05,2023-01-30_12h16.58.275,t1_Paradigm,2021.1.4,60.01251387114412,
R,left,Distractor,0,0,0,0,587.1554169976735,589.1459372999379,None,0,1,,D29N05,2023-01-30_12h16.58.275,t1_Paradigm,2021.1.4,60.01251387114412,
V,left,Distractor,0,1,1,1,590.6441350345267,592.645718192216,left,1,1,0.49071855790680274,D29N05,2023-01-30_12h16.58.275,t1_Paradigm,2021.1.4,60.01251387114412,
N,left,Pretarget,0,2,2,2,594.1439069443732,596.1461535204435,left,1,1,0.7502181453164667,D29N05,2023-01-30_12h16.58.275,t1_Paradigm,2021.1.4,60.01251387114412,
N,right,Target,0,3,3,3,597.6438912250451,599.6441847588285,right,1,1,0.7881626003654674,D29N05,2023-01-30_12h16.58.275,t1_Paradigm,2021.1.4,60.01251387114412,
S,left,Distractor,0,4,4,4,601.1439531398355,603.1437279368984,left,1,1,0.4404758391319774,D29N05,2023-01-30_12h16.58.275,t1_Paradigm,2021.1.4,60.01251387114412,
N,left,Lure,0,5,5,5,604.6438193654176,606.6448048690218,left,1,1,0.8753591377753764,D29N05,2023-01-30_12h16.58.275,t1_Paradigm,2021.1.4,60.01251387114412,
Z,left,Distractor,0,6,6,6,608.143880638585,610.1448154554819,left,1,1,0.6236351481056772,D29N05,2023-01-30_12h16.58.275,t1_Paradigm,2021.1.4,60.01251387114412,
L,left,Pretarget,0,7,7,7,611.6439775208128,613.6453794253175,left,1,1,0.6429236863623373,D29N05,2023-01-30_12h16.58.275,t1_Paradigm,2021.1.4,60.01251387114412,
L,right,Target,0,8,8,8,615.1441222024732,617.1440599669004,right,1,1,0.6965977028012276,D29N05,2023-01-30_12h16.58.275,t1_Paradigm,2021.1.4,60.01251387114412,
H,left,Distractor,0,9,9,9,618.6440031849779,620.6450114654726,left,1,1,0.5873784321011044,D29N05,2023-01-30_12h16.58.275,t1_Paradigm,2021.1.4,60.01251387114412,
L,left,Lure,0,10,10,10,622.1440038265428,624.1439425533754,left,1,1,0.8966421018121764,D29N05,2023-01-30_12h16.58.275,t1_Paradigm,2021.1.4,60.01251387114412,
X,left,Pretarget,0,11,11,11,625.6439653303241,627.6462998061324,left,1,1,0.8979349336586893,D29N05,2023-01-30_12h16.58.275,t1_Paradigm,2021.1.4,60.01251387114412,
X,right,Target,0,12,12,12,629.1438562576659,631.1440763277933,left,0,1,0.6644533470389433,D29N05,2023-01-30_12h16.58.275,t1_Paradigm,2021.1.4,60.01251387114412,
X,right,Target,0,13,13,13,632.6440837062546,634.6440718365484,right,1,1,0.8282663733698428,D29N05,2023-01-30_12h16.58.275,t1_Paradigm,2021.1.4,60.01251387114412,
R,left,Distractor,0,14,14,14,636.1440051097888,638.1448943727883,left,1,1,0.9434807910001837,D29N05,2023-01-30_12h16.58.275,t1_Paradigm,2021.1.4,60.01251387114412,
T,left,Distractor,0,15,15,15,639.6438283479074,641.646228588128,left,1,1,0.9622778606717475,D29N05,2023-01-30_12h16.58.275,t1_Paradigm,2021.1.4,60.01251387114412,
V,left,Pretarget,0,16,16,16,643.1437985132798,645.1442627137294,left,1,1,0.7761344519094564,D29N05,2023-01-30_12h16.58.275,t1_Paradigm,2021.1.4,60.01251387114412,
V,right,Target,0,17,17,17,646.6438180822297,648.6438443879597,right,1,1,0.7327135867672041,D29N05,2023-01-30_12h16.58.275,t1_Paradigm,2021.1.4,60.01251387114412,
N,left,Distractor,0,18,18,18,650.1439781623776,652.1459876658628,left,1,1,0.7663782229064964,D29N05,2023-01-30_12h16.58.275,t1_Paradigm,2021.1.4,60.01251387114412,
B,left,Distractor,0,19,19,19,653.6441347137443,655.6454920268152,left,1,1,0.7868784301681444,D29N05,2023-01-30_12h16.58.275,t1_Paradigm,2021.1.4,60.01251387114412,
V,left,Lure,0,20,20,20,657.1440804981976,659.1440958967432,left,1,1,0.6964741940610111,D29N05,2023-01-30_12h16.58.275,t1_Paradigm,2021.1.4,60.01251387114412,
P,left,Distractor,0,21,21,21,660.6440891598468,662.6459722673171,left,1,1,0.7465696647414006,D29N05,2023-01-30_12h16.58.275,t1_Paradigm,2021.1.4,60.01251387114412,
K,left,Pretarget,0,22,22,22,664.1437032351387,666.1431004482438,left,1,1,0.7692718565813266,D29N05,2023-01-30_12h16.58.275,t1_Paradigm,2021.1.4,60.01251387114412,
K,right,Target,0,23,23,23,667.644040077168,669.6440294907079,right,1,1,0.7563659939914942,D29N05,2023-01-30_12h16.58.275,t1_Paradigm,2021.1.4,60.01251387114412,
J,left,Pretarget,0,24,24,24,671.1439197764266,673.1568214686122,left,1,1,0.6517030734103173,D29N05,2023-01-30_12h16.58.275,t1_Paradigm,2021.1.4,60.01251387114412,
J,right,Target,0,25,25,25,674.6439467237797,676.644057721307,None,0,1,,D29N05,2023-01-30_12h16.58.275,t1_Paradigm,2021.1.4,60.01251387114412,
H,left,Distractor,0,26,26,26,678.1439149643993,680.143881280208,left,1,1,0.8487136483308859,D29N05,2023-01-30_12h16.58.275,t1_Paradigm,2021.1.4,60.01251387114412,
J,left,Lure,0,27,27,27,681.644013129815,683.6458628738765,left,1,1,1.3145456738420762,D29N05,2023-01-30_12h16.58.275,t1_Paradigm,2021.1.4,60.01251387114412,
V,left,Distractor,0,28,28,28,685.1436204682104,687.1462510442361,None,0,1,,D29N05,2023-01-30_12h16.58.275,t1_Paradigm,2021.1.4,60.01251387114412,
Z,left,Pretarget,0,29,29,29,688.644027565897,690.6458198864129,left,1,1,0.8265035666408949,D29N05,2023-01-30_12h16.58.275,t1_Paradigm,2021.1.4,60.01251387114412,
Z,right,Target,0,30,30,30,692.1439951648936,694.1440192250302,right,1,1,0.7043768293806352,D29N05,2023-01-30_12h16.58.275,t1_Paradigm,2021.1.4,60.01251387114412,
T,left,Distractor,0,31,31,31,695.6441526786657,697.6444773302646,left,1,1,1.0278661409392953,D29N05,2023-01-30_12h16.58.275,t1_Paradigm,2021.1.4,60.01251387114412,
Z,left,Lure,0,32,32,32,699.1439098315896,701.1438565784483,left,1,1,1.1446633953601122,D29N05,2023-01-30_12h16.58.275,t1_Paradigm,2021.1.4,60.01251387114412,
F,left,Distractor,0,33,33,33,702.6439983728924,704.6438456712058,left,1,1,0.988559239951428,D29N05,2023-01-30_12h16.58.275,t1_Paradigm,2021.1.4,60.01251387114412,
Y,left,Pretarget,0,34,34,34,706.1440997463651,708.1460393149755,left,1,1,0.9261837913072668,D29N05,2023-01-30_12h16.58.275,t1_Paradigm,2021.1.4,60.01251387114412,
Y,right,Target,0,35,35,35,709.6438328390941,711.6440926886862,right,1,1,0.9964724617311731,D29N05,2023-01-30_12h16.58.275,t1_Paradigm,2021.1.4,60.01251387114412,
Y,right,Target,0,36,36,36,713.1438559368253,715.1440189042478,right,1,1,0.7127658004174009,D29N05,2023-01-30_12h16.58.275,t1_Paradigm,2021.1.4,60.01251387114412,
W,left,Distractor,0,37,37,37,716.6438026837423,718.6440561172785,left,1,1,0.6682449053623714,D29N05,2023-01-30_12h16.58.275,t1_Paradigm,2021.1.4,60.01251387114412,
Q,left,Distractor,0,38,38,38,720.1435437965556,722.1457974303048,left,1,1,0.8627205032389611,D29N05,2023-01-30_12h16.58.275,t1_Paradigm,2021.1.4,60.01251387114412,
P,left,Pretarget,0,39,39,39,723.6440355859231,725.643924588454,left,1,1,0.8204041591379791,D29N05,2023-01-30_12h16.58.275,t1_Paradigm,2021.1.4,60.01251387114412,
P,right,Target,0,40,40,40,727.1440285283024,729.1441311849048,right,1,1,0.7125495799118653,D29N05,2023-01-30_12h16.58.275,t1_Paradigm,2021.1.4,60.01251387114412,
J,left,Distractor,0,41,41,41,730.6439111147774,732.6454798363266,left,1,1,0.682882136083208,D29N05,2023-01-30_12h16.58.275,t1_Paradigm,2021.1.4,60.01251387114412,
P,left,Lure,0,42,42,42,734.1438180822297,736.14379338047,left,1,1,0.7045359471812844,D29N05,2023-01-30_12h16.58.275,t1_Paradigm,2021.1.4,60.01251387114412,
L,left,Distractor,0,43,43,43,737.643810382986,739.6441238065017,left,1,1,0.8362652493524365,D29N05,2023-01-30_12h16.58.275,t1_Paradigm,2021.1.4,60.01251387114412,
Z,left,Distractor,0,44,44,44,741.1440371899516,743.1458741019596,left,1,1,1.0946593531989492,D29N05,2023-01-30_12h16.58.275,t1_Paradigm,2021.1.4,60.01251387114412,
F,left,Pretarget,0,45,45,45,744.6438591448823,746.6446810394991,left,1,1,0.7798416393343359,D29N05,2023-01-30_12h16.58.275,t1_Paradigm,2021.1.4,60.01251387114412,
F,right,Target,0,46,46,46,748.1441077663912,750.1439855408389,right,1,1,0.7683771399315447,D29N05,2023-01-30_12h16.58.275,t1_Paradigm,2021.1.4,60.01251387114412,
G,left,Pretarget,0,47,47,47,751.6440432851668,753.6439996561385,left,1,1,0.8682270687422715,D29N05,2023-01-30_12h16.58.275,t1_Paradigm,2021.1.4,60.01251387114412,
G,right,Target,0,48,48,48,755.1438225734746,757.1438026837423,right,1,1,0.6806288231746294,D29N05,2023-01-30_12h16.58.275,t1_Paradigm,2021.1.4,60.01251387114412,
V,left,Distractor,0,49,49,49,758.6438710145303,760.6459700217238,left,1,1,1.0023813128937036,D29N05,2023-01-30_12h16.58.275,t1_Paradigm,2021.1.4,60.01251387114412,
G,left,Lure,0,50,50,50,762.1435688190977,764.1438761473983,left,1,1,0.6405930601758882,D29N05,2023-01-30_12h16.58.275,t1_Paradigm,2021.1.4,60.01251387114412,
Q,left,Pretarget,0,51,51,51,765.6441167488229,767.643851766421,left,1,1,0.9483941937796772,D29N05,2023-01-30_12h16.58.275,t1_Paradigm,2021.1.4,60.01251387114412,
Q,right,Target,0,52,52,52,769.1434068141389,771.1437526385998,right,1,1,0.6647215374978259,D29N05,2023-01-30_12h16.58.275,t1_Paradigm,2021.1.4,60.01251387114412,
Y,left,Distractor,0,53,53,53,772.6438219318516,774.6460858312203,left,1,1,0.6823133542202413,D29N05,2023-01-30_12h16.58.275,t1_Paradigm,2021.1.4,60.01251387114412,
V,left,Distractor,0,54,54,54,776.1439480070258,778.144085951848,left,1,1,1.200170474126935,D29N05,2023-01-30_12h16.58.275,t1_Paradigm,2021.1.4,60.01251387114412,
B,left,Distractor,0,55,55,55,779.6438350847457,781.6442216510768,left,1,1,0.8681157504906878,D29N05,2023-01-30_12h16.58.275,t1_Paradigm,2021.1.4,60.01251387114412,
J,left,Pretarget,0,56,56,56,783.1439813704346,785.1452430845238,left,1,1,0.8072426174185239,D29N05,2023-01-30_12h16.58.275,t1_Paradigm,2021.1.4,60.01251387114412,
J,right,Target,0,57,57,57,786.6440516260336,788.6441963077523,right,1,1,0.620619288936723,D29N05,2023-01-30_12h16.58.275,t1_Paradigm,2021.1.4,60.01251387114412,
H,left,Distractor,0,58,58,58,790.1439435157808,792.1458471546066,left,1,1,0.5906438751844689,D29N05,2023-01-30_12h16.58.275,t1_Paradigm,2021.1.4,60.01251387114412,
J,left,Lure,0,59,59,59,793.6438200070406,795.6462581018568,left,1,1,1.1062361333169974,D29N05,2023-01-30_12h16.58.275,t1_Paradigm,2021.1.4,60.01251387114412,
D,left,Pretarget,0,60,60,60,797.1439489694312,799.1567229824141,left,1,1,0.5235539210843854,D29N05,2023-01-30_12h16.58.275,t1_Paradigm,2021.1.4,60.01251387114412,
D,right,Target,0,61,61,61,800.6439441574039,802.6440477764118,right,1,1,0.6206908277818002,D29N05,2023-01-30_12h16.58.275,t1_Paradigm,2021.1.4,60.01251387114412,
R,left,Distractor,0,62,62,62,804.1436663428904,806.1442527688923,left,1,1,0.5761965591809712,D29N05,2023-01-30_12h16.58.275,t1_Paradigm,2021.1.4,60.01251387114412,
F,left,Distractor,0,63,63,63,807.6440410395735,809.6458785931463,left,1,1,0.7864876933745109,D29N05,2023-01-30_12h16.58.275,t1_Paradigm,2021.1.4,60.01251387114412,
F,left,Distractor,0,0,0,0,909.241247560305,911.2440523318364,None,0,2,,D29N05,2023-01-30_12h16.58.275,t1_Paradigm,2021.1.4,60.01251387114412,
N,left,Pretarget,0,1,1,1,912.7439102165517,914.7462677900912,left,1,2,0.40595081209903583,D29N05,2023-01-30_12h16.58.275,t1_Paradigm,2021.1.4,60.01251387114412,
V,left,Distractor,0,2,2,2,916.2439015549025,918.2459944668226,left,1,2,0.6823261862737127,D29N05,2023-01-30_12h16.58.275,t1_Paradigm,2021.1.4,60.01251387114412,
N,right,Target,0,3,3,3,919.7438752491144,921.7438771739253,right,1,2,0.9444194575189613,D29N05,2023-01-30_12h16.58.275,t1_Paradigm,2021.1.4,60.01251387114412,
N,left,Lure,0,4,4,4,923.2439038004959,925.244021855644,left,1,2,1.1883768319385126,D29N05,2023-01-30_12h16.58.275,t1_Paradigm,2021.1.4,60.01251387114412,
X,left,Distractor,0,5,5,5,926.7437366626691,928.7439031588729,left,1,2,0.7761771186487749,D29N05,2023-01-30_12h16.58.275,t1_Paradigm,2021.1.4,60.01251387114412,
G,left,Pretarget,0,6,6,6,930.2437193393707,932.2454414042877,left,1,2,0.6188500661519356,D29N05,2023-01-30_12h16.58.275,t1_Paradigm,2021.1.4,60.01251387114412,
H,left,Pretarget,0,7,7,7,933.7437289634254,935.7455690834322,left,1,2,0.6068896069191396,D29N05,2023-01-30_12h16.58.275,t1_Paradigm,2021.1.4,60.01251387114412,
G,right,Target,0,8,8,8,937.243772592512,939.246041303908,right,1,2,0.834289109276142,D29N05,2023-01-30_12h16.58.275,t1_Paradigm,2021.1.4,60.01251387114412,
H,right,Target,0,9,9,9,940.7437199809938,942.7457990984549,right,1,2,0.7105843471363187,D29N05,2023-01-30_12h16.58.275,t1_Paradigm,2021.1.4,60.01251387114412,
T,left,Pretarget,0,10,10,10,944.2440452741575,946.2457888327772,left,1,2,0.6025610261713155,D29N05,2023-01-30_12h16.58.275,t1_Paradigm,2021.1.4,60.01251387114412,
K,left,Distractor,0,11,11,11,947.7439079709584,949.7455206423765,left,1,2,0.6868263960932381,D29N05,2023-01-30_12h16.58.275,t1_Paradigm,2021.1.4,60.01251387114412,
T,right,Target,0,12,12,12,951.2435923017911,953.245358316577,right,1,2,0.6911068565677851,D29N05,2023-01-30_12h16.58.275,t1_Paradigm,2021.1.4,60.01251387114412,
T,left,Lure,0,13,13,13,954.7439804721507,956.7440090235323,left,1,2,1.016454573837109,D29N05,2023-01-30_12h16.58.275,t1_Paradigm,2021.1.4,60.01251387114412,
J,left,Distractor,0,14,14,14,958.2437068280997,960.2456970834173,left,1,2,0.8747117594466545,D29N05,2023-01-30_12h16.58.275,t1_Paradigm,2021.1.4,60.01251387114412,
Q,left,Pretarget,0,15,15,15,961.7437690636725,963.7443355999421,left,1,2,0.800156743847765,D29N05,2023-01-30_12h16.58.275,t1_Paradigm,2021.1.4,60.01251387114412,
M,left,Distractor,0,16,16,16,965.243975980964,967.2455180759425,left,1,2,0.6590074130799621,D29N05,2023-01-30_12h16.58.275,t1_Paradigm,2021.1.4,60.01251387114412,
Q,right,Target,0,17,17,17,968.7438338656793,970.7459755394957,left,0,2,1.2863327460363507,D29N05,2023-01-30_12h16.58.275,t1_Paradigm,2021.1.4,60.01251387114412,
R,left,Distractor,0,18,18,18,972.2437132441555,974.244134136301,left,1,2,0.6681858777883463,D29N05,2023-01-30_12h16.58.275,t1_Paradigm,2021.1.4,60.01251387114412,
W,left,Distractor,0,19,19,19,975.7440350084798,977.7455065270769,left,1,2,0.9589944526669569,D29N05,2023-01-30_12h16.58.275,t1_Paradigm,2021.1.4,60.01251387114412,
C,left,Pretarget,0,20,20,20,979.2440131939948,981.2455729330541,left,1,2,0.9629124069469981,D29N05,2023-01-30_12h16.58.275,t1_Paradigm,2021.1.4,60.01251387114412,
T,left,Distractor,0,21,21,21,982.7436041714973,984.7438386777067,left,1,2,0.7764244569116272,D29N05,2023-01-30_12h16.58.275,t1_Paradigm,2021.1.4,60.01251387114412,
C,right,Target,0,22,22,22,986.243872361898,988.2445713893976,right,1,2,1.1159798510489054,D29N05,2023-01-30_12h16.58.275,t1_Paradigm,2021.1.4,60.01251387114412,
F,left,Pretarget,0,23,23,23,989.7439105373342,991.7457583565847,left,1,2,0.7185812983079813,D29N05,2023-01-30_12h16.58.275,t1_Paradigm,2021.1.4,60.01251387114412,
C,right,Target,0,24,24,24,993.2438890436315,995.2456621160381,right,1,2,0.818653222057037,D29N05,2023-01-30_12h16.58.275,t1_Paradigm,2021.1.4,60.01251387114412,
F,right,Target,0,25,25,25,996.743756231619,998.7461035394808,left,0,2,0.6623735879547894,D29N05,2023-01-30_12h16.58.275,t1_Paradigm,2021.1.4,60.01251387114412,
H,left,Distractor,0,26,26,26,1000.2439009132795,1002.2444193292176,left,1,2,0.5080364097375423,D29N05,2023-01-30_12h16.58.275,t1_Paradigm,2021.1.4,60.01251387114412,
H,left,Lure,0,27,27,27,1003.7438713994925,1005.7438884020085,left,1,2,1.1364608102012426,D29N05,2023-01-30_12h16.58.275,t1_Paradigm,2021.1.4,60.01251387114412,
P,left,Distractor,0,28,28,28,1007.2440135147772,1009.2457002914161,left,1,2,0.7227440244168974,D29N05,2023-01-30_12h16.58.275,t1_Paradigm,2021.1.4,60.01251387114412,
G,left,Pretarget,0,29,29,29,1010.7437016952899,1012.7437016952899,left,1,2,1.1607833727030084,D29N05,2023-01-30_12h16.58.275,t1_Paradigm,2021.1.4,60.01251387114412,
K,left,Distractor,0,30,30,30,1014.2438675498706,1016.2444552590605,left,1,2,0.7480617145774886,D29N05,2023-01-30_12h16.58.275,t1_Paradigm,2021.1.4,60.01251387114412,
G,right,Target,0,31,31,31,1017.7438980260631,1019.7455456649186,right,1,2,0.97487607417861,D29N05,2023-01-30_12h16.58.275,t1_Paradigm,2021.1.4,60.01251387114412,
M,left,Pretarget,0,32,32,32,1021.2438672290882,1023.2438922516303,left,1,2,0.9645619706134312,D29N05,2023-01-30_12h16.58.275,t1_Paradigm,2021.1.4,60.01251387114412,
B,left,Distractor,0,33,33,33,1024.7440010035061,1026.74422396085,left,1,2,0.712122592551168,D29N05,2023-01-30_12h16.58.275,t1_Paradigm,2021.1.4,60.01251387114412,
M,right,Target,0,34,34,34,1028.2438784571714,1030.2446288129431,right,1,2,0.6837082011625171,D29N05,2023-01-30_12h16.58.275,t1_Paradigm,2021.1.4,60.01251387114412,
M,left,Lure,0,35,35,35,1031.7607102940674,1033.7439217654173,left,1,2,0.7523373630247079,D29N05,2023-01-30_12h16.58.275,t1_Paradigm,2021.1.4,60.01251387114412,
T,left,Distractor,0,36,36,36,1035.2436468381202,1037.245413494471,left,1,2,0.659089217602741,D29N05,2023-01-30_12h16.58.275,t1_Paradigm,2021.1.4,60.01251387114412,
F,left,Distractor,0,37,37,37,1038.7439095749287,1040.745852351596,left,1,2,0.6465875654248521,D29N05,2023-01-30_12h16.58.275,t1_Paradigm,2021.1.4,60.01251387114412,
X,left,Distractor,0,38,38,38,1042.2439788681804,1044.2444591086823,left,1,2,0.6676924843923189,D29N05,2023-01-30_12h16.58.275,t1_Paradigm,2021.1.4,60.01251387114412,
C,left,Distractor,0,39,39,39,1045.743436712888,1047.744717354246,left,1,2,0.7516065761446953,D29N05,2023-01-30_12h16.58.275,t1_Paradigm,2021.1.4,60.01251387114412,
R,left,Distractor,0,40,40,40,1049.2440279508592,1051.2439509583637,left,1,2,0.6128603728720918,D29N05,2023-01-30_12h16.58.275,t1_Paradigm,2021.1.4,60.01251387114412,
B,left,Pretarget,0,41,41,41,1052.7438694746816,1054.7447872890625,left,1,2,0.7754248380078934,D29N05,2023-01-30_12h16.58.275,t1_Paradigm,2021.1.4,60.01251387114412,
H,left,Distractor,0,42,42,42,1056.2438964220346,1058.2453089130577,left,1,2,0.6509774193982594,D29N05,2023-01-30_12h16.58.275,t1_Paradigm,2021.1.4,60.01251387114412,
B,right,Target,0,43,43,43,1059.7439737353125,1061.7456053340575,None,0,2,,D29N05,2023-01-30_12h16.58.275,t1_Paradigm,2021.1.4,60.01251387114412,
W,left,Pretarget,0,44,44,44,1063.243914386956,1065.2458533140016,left,1,2,0.7065919669112191,D29N05,2023-01-30_12h16.58.275,t1_Paradigm,2021.1.4,60.01251387114412,
L,left,Pretarget,0,45,45,45,1066.743796973431,1068.7442656651256,left,1,2,0.6801906077307649,D29N05,2023-01-30_12h16.58.275,t1_Paradigm,2021.1.4,60.01251387114412,
W,right,Target,0,46,46,46,1070.2434848331613,1072.2434896451887,right,1,2,0.7490311781293713,D29N05,2023-01-30_12h16.58.275,t1_Paradigm,2021.1.4,60.01251387114412,
L,right,Target,0,47,47,47,1073.7439807929914,1075.7459383265232,right,1,2,0.6225072084343992,D29N05,2023-01-30_12h16.58.275,t1_Paradigm,2021.1.4,60.01251387114412,
W,right,Target,0,48,48,48,1077.2437222265871,1079.2457792087225,left,0,2,0.8985524774179794,D29N05,2023-01-30_12h16.58.275,t1_Paradigm,2021.1.4,60.01251387114412,
X,left,Distractor,0,49,49,49,1080.7439592992305,1082.7457589982077,left,1,2,0.7107742619118653,D29N05,2023-01-30_12h16.58.275,t1_Paradigm,2021.1.4,60.01251387114412,
R,left,Distractor,0,50,50,50,1084.2438412441406,1086.2449085522094,left,1,2,0.7319196019088849,D29N05,2023-01-30_12h16.58.275,t1_Paradigm,2021.1.4,60.01251387114412,
V,left,Pretarget,0,51,51,51,1087.7440058155335,1089.7451898955624,left,1,2,0.8793617837945931,D29N05,2023-01-30_12h16.58.275,t1_Paradigm,2021.1.4,60.01251387114412,
Z,left,Distractor,0,52,52,52,1091.243945183931,1093.2459530833876,left,1,2,0.6422310749185272,D29N05,2023-01-30_12h16.58.275,t1_Paradigm,2021.1.4,60.01251387114412,
V,right,Target,0,53,53,53,1094.7438739659265,1096.744117133785,left,0,2,0.6001322345691733,D29N05,2023-01-30_12h16.58.275,t1_Paradigm,2021.1.4,60.01251387114412,
V,left,Lure,0,54,54,54,1098.2441421563854,1100.2439275398501,left,1,2,1.180670527392067,D29N05,2023-01-30_12h16.58.275,t1_Paradigm,2021.1.4,60.01251387114412,
N,left,Distractor,0,55,55,55,1101.743801464676,1103.7447128630592,left,1,2,0.767511295445729,D29N05,2023-01-30_12h16.58.275,t1_Paradigm,2021.1.4,60.01251387114412,
B,left,Distractor,0,56,56,56,1105.2439278606325,1107.2456053340575,left,1,2,0.6427828542655334,D29N05,2023-01-30_12h16.58.275,t1_Paradigm,2021.1.4,60.01251387114412,
V,left,Lure,0,57,57,57,1108.7439317102544,1110.7453766022809,left,1,2,0.5991579590481706,D29N05,2023-01-30_12h16.58.275,t1_Paradigm,2021.1.4,60.01251387114412,
J,left,Distractor,0,58,58,58,1112.2430382768507,1114.2447099758429,left,1,2,0.6516058704000898,D29N05,2023-01-30_12h16.58.275,t1_Paradigm,2021.1.4,60.01251387114412,
H,left,Distractor,0,59,59,59,1115.7439317102544,1117.7431255349657,left,1,2,0.8172067260602489,D29N05,2023-01-30_12h16.58.275,t1_Paradigm,2021.1.4,60.01251387114412,
X,left,Pretarget,0,60,60,60,1119.2438656250597,1121.2459614242543,left,1,2,0.5305275138816796,D29N05,2023-01-30_12h16.58.275,t1_Paradigm,2021.1.4,60.01251387114412,
P,left,Distractor,0,61,61,61,1122.7438569634105,1124.745951479359,left,1,2,0.48635051847668365,D29N05,2023-01-30_12h16.58.275,t1_Paradigm,2021.1.4,60.01251387114412,
X,right,Target,0,62,62,62,1126.2437764421338,1128.2461644918658,left,0,2,0.5701609912794083,D29N05,2023-01-30_12h16.58.275,t1_Paradigm,2021.1.4,60.01251387114412,
Q,left,Distractor,0,63,63,63,1129.7433517003665,1131.7457596398308,left,1,2,0.5906878250534646,D29N05,2023-01-30_12h16.58.275,t1_Paradigm,2021.1.4,60.01251387114412,
B,left,Pretarget,0,0,0,0,1141.8101391382515,1143.8108830779674,None,0,2,,D29N05,2023-01-30_12h16.58.275,t1_Paradigm,2021.1.4,60.01251387114412,
F,left,Distractor,0,1,1,1,1145.3105994890793,1147.3118855840876,left,1,2,0.9285583673627116,D29N05,2023-01-30_12h16.58.275,t1_Paradigm,2021.1.4,60.01251387114412,
B,right,Target,0,2,2,2,1148.8103268073755,1150.8125599097693,right,1,2,0.7236352122854441,D29N05,2023-01-30_12h16.58.275,t1_Paradigm,2021.1.4,60.01251387114412,
V,left,Distractor,0,3,3,3,1152.3105731832911,1154.3098882711492,left,1,2,0.6183364622411318,D29N05,2023-01-30_12h16.58.275,t1_Paradigm,2021.1.4,60.01251387114412,
G,left,Pretarget,0,4,4,4,1155.8103746068664,1157.8125634386088,left,1,2,0.5398667003610171,D29N05,2023-01-30_12h16.58.275,t1_Paradigm,2021.1.4,60.01251387114412,
B,left,Lure,0,5,5,5,1159.3102604013984,1161.3124335138127,left,1,2,0.7998038617079146,D29N05,2023-01-30_12h16.58.275,t1_Paradigm,2021.1.4,60.01251387114412,
G,right,Target,0,6,6,6,1162.8097236996982,1164.8119211930898,left,0,2,0.6126027688733302,D29N05,2023-01-30_12h16.58.275,t1_Paradigm,2021.1.4,60.01251387114412,
Y,left,Pretarget,0,7,7,7,1166.3105010028812,1168.3123042306397,left,1,2,0.5839516256237403,D29N05,2023-01-30_12h16.58.275,t1_Paradigm,2021.1.4,60.01251387114412,
P,left,Distractor,0,8,8,8,1169.8102539853426,1171.8124206817592,left,1,2,0.47588435478974134,D29N05,2023-01-30_12h16.58.275,t1_Paradigm,2021.1.4,60.01251387114412,
Y,right,Target,0,9,9,9,1173.3105013236636,1175.3123533133185,left,0,2,0.5121660932782106,D29N05,2023-01-30_12h16.58.275,t1_Paradigm,2021.1.4,60.01251387114412,
X,left,Distractor,0,10,10,10,1176.8105949978344,1178.8122391078505,right,0,2,0.8519441239768639,D29N05,2023-01-30_12h16.58.275,t1_Paradigm,2021.1.4,60.01251387114412,
Y,right,Target,0,11,11,11,1180.3103713988676,1182.3120225665043,right,1,2,0.5043202399392612,D29N05,2023-01-30_12h16.58.275,t1_Paradigm,2021.1.4,60.01251387114412,
N,left,Distractor,0,12,12,12,1183.8099973438075,1185.812276962446,left,1,2,1.1160209137597121,D29N05,2023-01-30_12h16.58.275,t1_Paradigm,2021.1.4,60.01251387114412,
Y,right,Target,0,13,13,13,1187.3105847321567,1189.3109215742443,right,1,2,0.609459551400505,D29N05,2023-01-30_12h16.58.275,t1_Paradigm,2021.1.4,60.01251387114412,
Y,left,Lure,0,14,14,14,1190.8103181457263,1192.8106581958127,left,1,2,0.9496161284041591,D29N05,2023-01-30_12h16.58.275,t1_Paradigm,2021.1.4,60.01251387114412,
K,left,Distractor,0,15,15,15,1194.3105208925554,1196.3121999700088,left,1,2,0.5520947084296495,D29N05,2023-01-30_12h16.58.275,t1_Paradigm,2021.1.4,60.01251387114412,
T,left,Pretarget,0,16,16,16,1197.810237945232,1199.8097378149978,left,1,2,0.6066226996481419,D29N05,2023-01-30_12h16.58.275,t1_Paradigm,2021.1.4,60.01251387114412,
J,left,Distractor,0,17,17,17,1201.30967108818,1203.3124065664597,left,1,2,0.6559684561798349,D29N05,2023-01-30_12h16.58.275,t1_Paradigm,2021.1.4,60.01251387114412,
T,right,Target,0,18,18,18,1204.8105520103709,1206.8095995493932,right,1,2,0.9186760631855577,D29N05,2023-01-30_12h16.58.275,t1_Paradigm,2021.1.4,60.01251387114412,
S,left,Pretarget,0,19,19,19,1208.3104422960896,1210.3122188973357,left,1,2,0.7600093417568132,D29N05,2023-01-30_12h16.58.275,t1_Paradigm,2021.1.4,60.01251387114412,
R,left,Distractor,0,20,20,20,1211.8105587472091,1213.810666857462,left,1,2,0.7173985014669597,D29N05,2023-01-30_12h16.58.275,t1_Paradigm,2021.1.4,60.01251387114412,
S,right,Target,0,21,21,21,1215.3106742359232,1217.3125339248218,right,1,2,0.5279524366487749,D29N05,2023-01-30_12h16.58.275,t1_Paradigm,2021.1.4,60.01251387114412,
Q,left,Distractor,0,22,22,22,1218.8104708474712,1220.8109295942704,left,1,2,0.5974804856232367,D29N05,2023-01-30_12h16.58.275,t1_Paradigm,2021.1.4,60.01251387114412,
D,left,Distractor,0,23,23,23,1222.3105459151557,1224.3122673383914,left,1,2,0.6961960587650537,D29N05,2023-01-30_12h16.58.275,t1_Paradigm,2021.1.4,60.01251387114412,
F,left,Distractor,0,24,24,24,1225.8105478399666,1227.8124623859767,left,1,2,0.6998252912308089,D29N05,2023-01-30_12h16.58.275,t1_Paradigm,2021.1.4,60.01251387114412,
Z,left,Distractor,0,25,25,25,1229.3105449527502,1231.3100060054567,left,1,2,0.6104197116219439,D29N05,2023-01-30_12h16.58.275,t1_Paradigm,2021.1.4,60.01251387114412,
P,left,Distractor,0,26,26,26,1232.8106501757866,1234.8119936943403,left,1,2,0.4842762130429037,D29N05,2023-01-30_12h16.58.275,t1_Paradigm,2021.1.4,60.01251387114412,
H,left,Distractor,0,27,27,27,1236.3105468775611,1238.3114585966687,left,1,2,0.5048428262816742,D29N05,2023-01-30_12h16.58.275,t1_Paradigm,2021.1.4,60.01251387114412,
Z,left,Pretarget,0,28,28,28,1239.8099829077255,1241.811742185615,left,1,2,0.4127248661243357,D29N05,2023-01-30_12h16.58.275,t1_Paradigm,2021.1.4,60.01251387114412,
J,left,Pretarget,0,29,29,29,1243.3106469677296,1245.31250376947,left,1,2,0.3677275800728239,D29N05,2023-01-30_12h16.58.275,t1_Paradigm,2021.1.4,60.01251387114412,
Z,right,Target,0,30,30,30,1246.8099915693747,1248.8094442812144,left,0,2,0.7106517155771144,D29N05,2023-01-30_12h16.58.275,t1_Paradigm,2021.1.4,60.01251387114412,
J,right,Target,0,31,31,31,1250.31056067202,1252.312107579026,right,1,2,0.7761681361589581,D29N05,2023-01-30_12h16.58.275,t1_Paradigm,2021.1.4,60.01251387114412,
V,left,Pretarget,0,32,32,32,1253.8103056344553,1255.8101003211923,left,1,2,0.5742277975659817,D29N05,2023-01-30_12h16.58.275,t1_Paradigm,2021.1.4,60.01251387114412,
Z,left,Lure,0,33,33,33,1257.3103040304268,1259.310998245899,left,1,2,0.7052920773858204,D29N05,2023-01-30_12h16.58.275,t1_Paradigm,2021.1.4,60.01251387114412,
V,right,Target,0,34,34,34,1260.810329694592,1262.811071709555,None,0,2,,D29N05,2023-01-30_12h16.58.275,t1_Paradigm,2021.1.4,60.01251387114412,
X,left,Distractor,0,35,35,35,1264.310332902649,1266.3115455340012,left,1,2,0.7288463191944174,D29N05,2023-01-30_12h16.58.275,t1_Paradigm,2021.1.4,60.01251387114412,
S,left,Distractor,0,36,36,36,1267.8104743763106,1269.8097625167575,left,1,2,0.8625228892196901,D29N05,2023-01-30_12h16.58.275,t1_Paradigm,2021.1.4,60.01251387114412,
Q,left,Distractor,0,37,37,37,1271.310609113134,1273.3123760902672,left,1,2,0.7039594660163857,D29N05,2023-01-30_12h16.58.275,t1_Paradigm,2021.1.4,60.01251387114412,
P,left,Distractor,0,38,38,38,1274.8105828073458,1276.8099896445638,left,1,2,0.5665965607622638,D29N05,2023-01-30_12h16.58.275,t1_Paradigm,2021.1.4,60.01251387114412,
S,left,Lure,0,39,39,39,1278.3105847321567,1280.3123395188595,left,1,2,0.44007900706492364,D29N05,2023-01-30_12h16.58.275,t1_Paradigm,2021.1.4,60.01251387114412,
K,left,Pretarget,0,40,40,40,1281.8096361208009,1283.8100265367539,left,1,2,0.41443602374056354,D29N05,2023-01-30_12h16.58.275,t1_Paradigm,2021.1.4,60.01251387114412,
L,left,Distractor,0,41,41,41,1285.3099585267482,1287.3125194887398,left,1,2,0.6077378072659485,D29N05,2023-01-30_12h16.58.275,t1_Paradigm,2021.1.4,60.01251387114412,
K,right,Target,0,42,42,42,1288.8105683712638,1290.8115365515696,left,0,2,0.4693056690739468,D29N05,2023-01-30_12h16.58.275,t1_Paradigm,2021.1.4,60.01251387114412,
B,left,Distractor,0,43,43,43,1292.3103835893562,1294.3233144744881,left,1,2,0.4450437381747179,D29N05,2023-01-30_12h16.58.275,t1_Paradigm,2021.1.4,60.01251387114412,
N,left,Distractor,0,44,44,44,1295.8105510479654,1297.8124335138127,left,1,2,0.507968720572535,D29N05,2023-01-30_12h16.58.275,t1_Paradigm,2021.1.4,60.01251387114412,
S,left,Pretarget,0,45,45,45,1299.310640551732,1301.3124636692228,left,1,2,0.383809061255306,D29N05,2023-01-30_12h16.58.275,t1_Paradigm,2021.1.4,60.01251387114412,
Z,left,Distractor,0,46,46,46,1302.8104801507434,1304.8122583559598,left,1,2,1.1241606216644868,D29N05,2023-01-30_12h16.58.275,t1_Paradigm,2021.1.4,60.01251387114412,
S,right,Target,0,47,47,47,1306.3105362910428,1308.323350404331,right,1,2,0.6208140157395974,D29N05,2023-01-30_12h16.58.275,t1_Paradigm,2021.1.4,60.01251387114412,
C,left,Distractor,0,48,48,48,1309.8101153988973,1311.811743468803,left,1,2,0.6685368351754732,D29N05,2023-01-30_12h16.58.275,t1_Paradigm,2021.1.4,60.01251387114412,
T,left,Pretarget,0,49,49,49,1313.3106408725143,1315.3122166516841,left,1,2,0.6561853183084168,D29N05,2023-01-30_12h16.58.275,t1_Paradigm,2021.1.4,60.01251387114412,
S,left,Lure,0,50,50,50,1316.8104705266887,1318.8097355694044,left,1,2,1.01475496502826,D29N05,2023-01-30_12h16.58.275,t1_Paradigm,2021.1.4,60.01251387114412,
T,right,Target,0,51,51,51,1320.310537574289,1322.3111711581587,left,0,2,0.6653403644450009,D29N05,2023-01-30_12h16.58.275,t1_Paradigm,2021.1.4,60.01251387114412,
N,left,Pretarget,0,52,52,52,1323.810474697093,1325.8232984343776,left,1,2,0.5929831630201079,D29N05,2023-01-30_12h16.58.275,t1_Paradigm,2021.1.4,60.01251387114412,
B,left,Distractor,0,53,53,53,1327.3105112685007,1329.3109834889765,left,1,2,0.6414880976080894,D29N05,2023-01-30_12h16.58.275,t1_Paradigm,2021.1.4,60.01251387114412,
N,right,Target,0,54,54,54,1330.810298897617,1332.8113286718726,left,0,2,0.9491573816048913,D29N05,2023-01-30_12h16.58.275,t1_Paradigm,2021.1.4,60.01251387114412,
N,left,Lure,0,55,55,55,1334.3104390880908,1336.3105382158537,left,1,2,0.8418199351290241,D29N05,2023-01-30_12h16.58.275,t1_Paradigm,2021.1.4,60.01251387114412,
X,left,Distractor,0,56,56,56,1337.8104349176283,1339.8117197294487,left,1,2,0.6047565947519615,D29N05,2023-01-30_12h16.58.275,t1_Paradigm,2021.1.4,60.01251387114412,
W,left,Distractor,0,57,57,57,1341.3102167723118,1343.3103287321865,left,1,2,0.5779102832311764,D29N05,2023-01-30_12h16.58.275,t1_Paradigm,2021.1.4,60.01251387114412,
S,left,Distractor,0,58,58,58,1344.8105741456966,1346.8113559400663,left,1,2,0.5970778791815974,D29N05,2023-01-30_12h16.58.275,t1_Paradigm,2021.1.4,60.01251387114412,
L,left,Distractor,0,59,59,59,1348.3104714890942,1350.312162115355,left,1,2,0.6000565253198147,D29N05,2023-01-30_12h16.58.275,t1_Paradigm,2021.1.4,60.01251387114412,
K,left,Pretarget,0,60,60,60,1351.8105343662319,1353.812264451175,left,1,2,0.4920691340812482,D29N05,2023-01-30_12h16.58.275,t1_Paradigm,2021.1.4,60.01251387114412,
V,left,Pretarget,0,61,61,61,1355.3102472485043,1357.3123757694848,left,1,2,0.4960483615286648,D29N05,2023-01-30_12h16.58.275,t1_Paradigm,2021.1.4,60.01251387114412,
K,right,Target,0,62,62,62,1358.8105478399666,1360.8121781554655,left,0,2,0.46813923318404704,D29N05,2023-01-30_12h16.58.275,t1_Paradigm,2021.1.4,60.01251387114412,
V,right,Target,0,63,63,63,1362.3105654840474,1364.3124659148161,left,0,2,0.5837825629860163,D29N05,2023-01-30_12h16.58.275,t1_Paradigm,2021.1.4,60.01251387114412,
R,left,Distractor,0,0,0,0,1438.5845159163,1440.5952874834766,left,1,3,0.541044685174711,D29N05,2023-01-30_12h16.58.275,t1_Paradigm,2021.1.4,60.01251387114412,
P,left,Lure,0,1,1,1,1442.0939166967291,1444.0952153030667,left,1,3,0.4810521534527652,D29N05,2023-01-30_12h16.58.275,t1_Paradigm,2021.1.4,60.01251387114412,
V,left,Distractor,0,2,2,2,1445.5937697694753,1447.5953285461292,left,1,3,0.5009011326474138,D29N05,2023-01-30_12h16.58.275,t1_Paradigm,2021.1.4,60.01251387114412,
P,left,Pretarget,0,3,3,3,1449.0938862205367,1451.0952977491543,left,1,3,0.8570798424771056,D29N05,2023-01-30_12h16.58.275,t1_Paradigm,2021.1.4,60.01251387114412,
Z,left,Distractor,0,4,4,4,1452.5937171579571,1454.5940036340617,left,1,3,0.9263583075371571,D29N05,2023-01-30_12h16.58.275,t1_Paradigm,2021.1.4,60.01251387114412,
L,left,Pretarget,0,5,5,5,1456.0936469023,1458.0936760953045,left,1,3,0.6108951400965452,D29N05,2023-01-30_12h16.58.275,t1_Paradigm,2021.1.4,60.01251387114412,
P,right,Target,0,6,6,6,1459.593610972457,1461.5958119946881,None,0,3,,D29N05,2023-01-30_12h16.58.275,t1_Paradigm,2021.1.4,60.01251387114412,
S,left,Distractor,0,7,7,7,1463.0937200451735,1465.093966421031,left,1,3,0.858391280809883,D29N05,2023-01-30_12h16.58.275,t1_Paradigm,2021.1.4,60.01251387114412,
L,right,Target,0,8,8,8,1466.5937469925266,1468.5949824008276,right,1,3,0.717258631833829,D29N05,2023-01-30_12h16.58.275,t1_Paradigm,2021.1.4,60.01251387114412,
D,left,Distractor,0,9,9,9,1470.0936975890072,1472.0955332177691,left,1,3,0.6568371878820471,D29N05,2023-01-30_12h16.58.275,t1_Paradigm,2021.1.4,60.01251387114412,
G,left,Distractor,0,10,10,10,1473.5939115639194,1475.5960144207347,left,1,3,0.7563525202567689,D29N05,2023-01-30_12h16.58.275,t1_Paradigm,2021.1.4,60.01251387114412,
M,left,Pretarget,0,11,11,11,1477.093707854685,1479.0956063606427,left,1,3,0.6166336454334669,D29N05,2023-01-30_12h16.58.275,t1_Paradigm,2021.1.4,60.01251387114412,
Y,left,Distractor,0,12,12,12,1480.5938409874798,1482.5952938995324,left,1,3,1.0689830064657144,D29N05,2023-01-30_12h16.58.275,t1_Paradigm,2021.1.4,60.01251387114412,
V,left,Distractor,0,13,13,13,1484.093818852154,1486.0956929771346,left,1,3,0.6088391204248182,D29N05,2023-01-30_12h16.58.275,t1_Paradigm,2021.1.4,60.01251387114412,
M,right,Target,0,14,14,14,1487.5936359950574,1489.593278300832,right,1,3,0.6151457659434527,D29N05,2023-01-30_12h16.58.275,t1_Paradigm,2021.1.4,60.01251387114412,
S,left,Pretarget,0,15,15,15,1491.0937389724422,1493.095198621333,left,1,3,1.0330650573596358,D29N05,2023-01-30_12h16.58.275,t1_Paradigm,2021.1.4,60.01251387114412,
Q,left,Distractor,0,16,16,16,1494.5939189423807,1496.5955412378535,left,1,3,0.5728297427413054,D29N05,2023-01-30_12h16.58.275,t1_Paradigm,2021.1.4,60.01251387114412,
R,left,Pretarget,0,17,17,17,1498.0937149123056,1500.0952047166065,left,1,3,0.5928740903618746,D29N05,2023-01-30_12h16.58.275,t1_Paradigm,2021.1.4,60.01251387114412,
S,right,Target,0,18,18,18,1501.5936921353568,1503.5946064209566,right,1,3,0.8536392415408045,D29N05,2023-01-30_12h16.58.275,t1_Paradigm,2021.1.4,60.01251387114412,
F,left,Distractor,0,19,19,19,1505.0938480451005,1507.0947604058892,left,1,3,0.6494443068513647,D29N05,2023-01-30_12h16.58.275,t1_Paradigm,2021.1.4,60.01251387114412,
R,right,Target,0,20,20,20,1508.5938002456096,1510.5937264611712,right,1,3,0.6864670978975482,D29N05,2023-01-30_12h16.58.275,t1_Paradigm,2021.1.4,60.01251387114412,
P,left,Distractor,0,21,21,21,1512.092960706912,1514.0928939800942,left,1,3,0.8352861617458984,D29N05,2023-01-30_12h16.58.275,t1_Paradigm,2021.1.4,60.01251387114412,
L,left,Distractor,0,22,22,22,1515.5935339800199,1517.59408640099,left,1,3,0.9341765719582327,D29N05,2023-01-30_12h16.58.275,t1_Paradigm,2021.1.4,60.01251387114412,
R,right,Target,0,23,23,23,1519.0937254987657,1521.0953583806986,right,1,3,0.8569819979020394,D29N05,2023-01-30_12h16.58.275,t1_Paradigm,2021.1.4,60.01251387114412,
H,left,Pretarget,0,24,24,24,1522.5937739398796,1524.5950087066158,left,1,3,0.6052503089304082,D29N05,2023-01-30_12h16.58.275,t1_Paradigm,2021.1.4,60.01251387114412,
G,left,Pretarget,0,25,25,25,1526.0935856291326,1528.0956823906745,left,1,3,0.6088981479406357,D29N05,2023-01-30_12h16.58.275,t1_Paradigm,2021.1.4,60.01251387114412,
T,left,Distractor,0,26,26,26,1529.5938615188352,1531.593399563979,left,1,3,0.7112060613580979,D29N05,2023-01-30_12h16.58.275,t1_Paradigm,2021.1.4,60.01251387114412,
H,right,Target,0,27,27,27,1533.093921829597,1535.0934268321726,None,0,3,,D29N05,2023-01-30_12h16.58.275,t1_Paradigm,2021.1.4,60.01251387114412,
G,right,Target,0,28,28,28,1536.5935622105608,1538.5944533984293,right,1,3,0.8299441676354036,D29N05,2023-01-30_12h16.58.275,t1_Paradigm,2021.1.4,60.01251387114412,
D,left,Distractor,0,29,29,29,1540.0937508421484,1542.0954469220596,left,1,3,0.8167434880160727,D29N05,2023-01-30_12h16.58.275,t1_Paradigm,2021.1.4,60.01251387114412,
N,left,Pretarget,0,30,30,30,1543.59380569926,1545.5940610576072,left,1,3,0.9341300557134673,D29N05,2023-01-30_12h16.58.275,t1_Paradigm,2021.1.4,60.01251387114412,
V,left,Distractor,0,31,31,31,1547.0935314135859,1549.095203754201,left,1,3,0.7292585496907122,D29N05,2023-01-30_12h16.58.275,t1_Paradigm,2021.1.4,60.01251387114412,
R,left,Distractor,0,32,32,32,1550.593807624071,1552.595273368177,right,0,3,0.8451296489220113,D29N05,2023-01-30_12h16.58.275,t1_Paradigm,2021.1.4,60.01251387114412,
N,right,Target,0,33,33,33,1554.0938329674536,1556.0952826714492,right,1,3,0.8329786332906224,D29N05,2023-01-30_12h16.58.275,t1_Paradigm,2021.1.4,60.01251387114412,
Z,left,Distractor,0,34,34,34,1557.5937155539286,1559.5956339496188,left,1,3,0.5967737588798627,D29N05,2023-01-30_12h16.58.275,t1_Paradigm,2021.1.4,60.01251387114412,
N,left,Lure,0,35,35,35,1561.0933360452182,1563.0957632327918,left,1,3,0.6164697156636976,D29N05,2023-01-30_12h16.58.275,t1_Paradigm,2021.1.4,60.01251387114412,
Y,left,Pretarget,0,36,36,36,1564.5937883759616,1566.594839643978,left,1,3,0.7977719021146186,D29N05,2023-01-30_12h16.58.275,t1_Paradigm,2021.1.4,60.01251387114412,
Y,left,Lure,0,37,37,37,1568.0937364060665,1570.0937030426576,left,1,3,0.7544816033332609,D29N05,2023-01-30_12h16.58.275,t1_Paradigm,2021.1.4,60.01251387114412,
B,left,Distractor,0,38,38,38,1571.5935795339174,1573.5937989624217,left,1,3,0.678370377398096,D29N05,2023-01-30_12h16.58.275,t1_Paradigm,2021.1.4,60.01251387114412,
Y,right,Target,0,39,39,39,1575.0936651880038,1577.0954337691655,right,1,3,0.6166753496509045,D29N05,2023-01-30_12h16.58.275,t1_Paradigm,2021.1.4,60.01251387114412,
J,left,Distractor,0,40,40,40,1578.593718441145,1580.5947164560203,left,1,3,0.4933593995519914,D29N05,2023-01-30_12h16.58.275,t1_Paradigm,2021.1.4,60.01251387114412,
X,left,Distractor,0,41,41,41,1582.0939410777064,1584.0952605361235,left,1,3,0.5773706943145953,D29N05,2023-01-30_12h16.58.275,t1_Paradigm,2021.1.4,60.01251387114412,
W,left,Pretarget,0,42,42,42,1585.5937851679628,1587.5955399546074,left,1,3,0.5966961248777807,D29N05,2023-01-30_12h16.58.275,t1_Paradigm,2021.1.4,60.01251387114412,
S,left,Pretarget,0,43,43,43,1589.093766882259,1591.0948720449815,left,1,3,0.5693663647980429,D29N05,2023-01-30_12h16.58.275,t1_Paradigm,2021.1.4,60.01251387114412,
R,left,Distractor,0,44,44,44,1592.5937376892543,1594.5949756639893,left,1,3,0.6212557599646971,D29N05,2023-01-30_12h16.58.275,t1_Paradigm,2021.1.4,60.01251387114412,
W,right,Target,0,45,45,45,1596.0938284762087,1598.095292937127,right,1,3,0.9768753119860776,D29N05,2023-01-30_12h16.58.275,t1_Paradigm,2021.1.4,60.01251387114412,
S,right,Target,0,46,46,46,1599.5938567067496,1601.594638180337,right,1,3,0.7896976377815008,D29N05,2023-01-30_12h16.58.275,t1_Paradigm,2021.1.4,60.01251387114412,
D,left,Distractor,0,47,47,47,1603.0935894787544,1605.095626250375,left,1,3,0.6484969786833972,D29N05,2023-01-30_12h16.58.275,t1_Paradigm,2021.1.4,60.01251387114412,
T,left,Distractor,0,48,48,48,1606.5938223809935,1608.5959499395103,left,1,3,1.0521675304626115,D29N05,2023-01-30_12h16.58.275,t1_Paradigm,2021.1.4,60.01251387114412,
S,right,Target,0,49,49,49,1610.0936119348626,1612.0953901401372,right,1,3,0.6409340726095252,D29N05,2023-01-30_12h16.58.275,t1_Paradigm,2021.1.4,60.01251387114412,
K,left,Distractor,0,50,50,50,1613.5937020802521,1615.6100344284787,left,1,3,0.6463116757804528,D29N05,2023-01-30_12h16.58.275,t1_Paradigm,2021.1.4,60.01251387114412,
S,left,Lure,0,51,51,51,1617.0936651880038,1619.0953843657044,left,1,3,1.064931277767755,D29N05,2023-01-30_12h16.58.275,t1_Paradigm,2021.1.4,60.01251387114412,
T,left,Pretarget,0,52,52,52,1620.5935266015586,1622.5953721752157,left,1,3,0.6368663038592786,D29N05,2023-01-30_12h16.58.275,t1_Paradigm,2021.1.4,60.01251387114412,
V,left,Distractor,0,53,53,53,1624.0937168371165,1626.0958386212587,left,1,3,0.6564525463618338,D29N05,2023-01-30_12h16.58.275,t1_Paradigm,2021.1.4,60.01251387114412,
B,left,Distractor,0,54,54,54,1627.593749879743,1629.594216325786,left,1,3,0.8060331940068863,D29N05,2023-01-30_12h16.58.275,t1_Paradigm,2021.1.4,60.01251387114412,
T,right,Target,0,55,55,55,1631.0928695991752,1633.0951870724675,right,1,3,0.5369105103891343,D29N05,2023-01-30_12h16.58.275,t1_Paradigm,2021.1.4,60.01251387114412,
Y,left,Pretarget,0,56,56,56,1634.5936655087862,1636.5936263710028,left,1,3,0.6545155441854149,D29N05,2023-01-30_12h16.58.275,t1_Paradigm,2021.1.4,60.01251387114412,
T,left,Lure,0,57,57,57,1638.0936626215698,1640.0952355135814,left,1,3,0.8813472270849161,D29N05,2023-01-30_12h16.58.275,t1_Paradigm,2021.1.4,60.01251387114412,
P,left,Pretarget,0,58,58,58,1641.5935634938069,1643.5932305013412,left,1,3,0.6151672597043216,D29N05,2023-01-30_12h16.58.275,t1_Paradigm,2021.1.4,60.01251387114412,
Y,right,Target,0,59,59,59,1645.093778110284,1647.0948049973813,left,0,3,1.0820322675281204,D29N05,2023-01-30_12h16.58.275,t1_Paradigm,2021.1.4,60.01251387114412,
R,left,Distractor,0,60,60,60,1648.5935968572157,1650.5939885563566,left,1,3,0.6222884214948863,D29N05,2023-01-30_12h16.58.275,t1_Paradigm,2021.1.4,60.01251387114412,
P,right,Target,0,61,61,61,1652.0937457092805,1654.0936472230824,right,1,3,0.562805644061882,D29N05,2023-01-30_12h16.58.275,t1_Paradigm,2021.1.4,60.01251387114412,
L,left,Distractor,0,62,62,62,1655.59381628572,1657.595682711515,left,1,3,0.7726495803217404,D29N05,2023-01-30_12h16.58.275,t1_Paradigm,2021.1.4,60.01251387114412,
V,left,Distractor,0,63,63,63,1659.0936677544378,1661.0932917745668,left,1,3,0.5067252921289764,D29N05,2023-01-30_12h16.58.275,t1_Paradigm,2021.1.4,60.01251387114412,
H,left,Lure,0,0,0,0,1682.6353627051576,1684.626282405865,left,1,3,0.5100715773296542,D29N05,2023-01-30_12h16.58.275,t1_Paradigm,2021.1.4,60.01251387114412,
B,left,Distractor,0,1,1,1,1686.127078315476,1688.1285748566152,left,1,3,0.44770029914798215,D29N05,2023-01-30_12h16.58.275,t1_Paradigm,2021.1.4,60.01251387114412,
T,left,Distractor,0,2,2,2,1689.6271530623198,1691.628797813959,left,1,3,0.4832814062247053,D29N05,2023-01-30_12h16.58.275,t1_Paradigm,2021.1.4,60.01251387114412,
R,left,Distractor,0,3,3,3,1693.126849262917,1695.129012430436,left,1,3,0.743126176588703,D29N05,2023-01-30_12h16.58.275,t1_Paradigm,2021.1.4,60.01251387114412,
H,left,Pretarget,0,4,4,4,1696.6270260247402,1698.6287307663588,left,1,3,0.5235747731640004,D29N05,2023-01-30_12h16.58.275,t1_Paradigm,2021.1.4,60.01251387114412,
K,left,Distractor,0,5,5,5,1700.1270616338006,1702.1285953879124,left,1,3,0.4957699054502882,D29N05,2023-01-30_12h16.58.275,t1_Paradigm,2021.1.4,60.01251387114412,
G,left,Distractor,0,6,6,6,1703.6269952277653,1705.6286842500558,left,1,3,0.4834029901539907,D29N05,2023-01-30_12h16.58.275,t1_Paradigm,2021.1.4,60.01251387114412,
H,right,Target,0,7,7,7,1707.1270956387743,1709.1285889718565,right,1,3,0.9835871304385364,D29N05,2023-01-30_12h16.58.275,t1_Paradigm,2021.1.4,60.01251387114412,
Y,left,Pretarget,0,8,8,8,1710.627103338018,1712.6268845510785,left,1,3,0.7171601456357166,D29N05,2023-01-30_12h16.58.275,t1_Paradigm,2021.1.4,60.01251387114412,
S,left,Distractor,0,9,9,9,1714.1271357390215,1716.1267433982575,left,1,3,0.6095477719209157,D29N05,2023-01-30_12h16.58.275,t1_Paradigm,2021.1.4,60.01251387114412,
P,left,Distractor,0,10,10,10,1717.6270112678758,1719.6268207115354,left,1,3,0.5173133606440388,D29N05,2023-01-30_12h16.58.275,t1_Paradigm,2021.1.4,60.01251387114412,
Y,right,Target,0,11,11,11,1721.1270674082334,1723.1289739342174,right,1,3,0.4390591777046211,D29N05,2023-01-30_12h16.58.275,t1_Paradigm,2021.1.4,60.01251387114412,
H,left,Lure,0,12,12,12,1724.6271174533176,1726.628663397918,left,1,3,0.5235757355112582,D29N05,2023-01-30_12h16.58.275,t1_Paradigm,2021.1.4,60.01251387114412,
Q,left,Distractor,0,13,13,13,1728.1271437591058,1730.1288715983974,left,1,3,0.6073801130987704,D29N05,2023-01-30_12h16.58.275,t1_Paradigm,2021.1.4,60.01251387114412,
V,left,Pretarget,0,14,14,14,1731.6265047215857,1733.6272027866216,left,1,3,0.6772587986197323,D29N05,2023-01-30_12h16.58.275,t1_Paradigm,2021.1.4,60.01251387114412,
G,left,Distractor,0,15,15,15,1735.1269878493622,1737.1289049618063,left,1,3,0.743242948432453,D29N05,2023-01-30_12h16.58.275,t1_Paradigm,2021.1.4,60.01251387114412,
Z,left,Pretarget,0,16,16,16,1738.6269888117677,1740.627120982157,left,1,3,0.605075471859891,D29N05,2023-01-30_12h16.58.275,t1_Paradigm,2021.1.4,60.01251387114412,
V,right,Target,0,17,17,17,1742.126596791728,1744.128929021943,right,1,3,0.9114557735738344,D29N05,2023-01-30_12h16.58.275,t1_Paradigm,2021.1.4,60.01251387114412,
N,left,Distractor,0,18,18,18,1745.6269836788997,1747.627731147455,left,1,3,0.7405186982359737,D29N05,2023-01-30_12h16.58.275,t1_Paradigm,2021.1.4,60.01251387114412,
Z,right,Target,0,19,19,19,1749.126959618763,1751.1283695433522,left,0,3,0.5997017183690332,D29N05,2023-01-30_12h16.58.275,t1_Paradigm,2021.1.4,60.01251387114412,
R,left,Distractor,0,20,20,20,1752.626163067529,1754.6286159192678,left,1,3,0.7317806946230121,D29N05,2023-01-30_12h16.58.275,t1_Paradigm,2021.1.4,60.01251387114412,
P,left,Distractor,0,21,21,21,1756.1270609921776,1758.1288921297528,left,1,3,0.7353329346515238,D29N05,2023-01-30_12h16.58.275,t1_Paradigm,2021.1.4,60.01251387114412,
Z,right,Target,0,22,22,22,1759.6270949972095,1761.6287076686276,right,1,3,0.4516747145098634,D29N05,2023-01-30_12h16.58.275,t1_Paradigm,2021.1.4,60.01251387114412,
D,left,Pretarget,0,23,23,23,1763.1267995386152,1765.1288055132027,left,1,3,0.5672753776889294,D29N05,2023-01-30_12h16.58.275,t1_Paradigm,2021.1.4,60.01251387114412,
K,left,Distractor,0,24,24,24,1766.627147287887,1768.6286730219726,left,1,3,0.6034560636035167,D29N05,2023-01-30_12h16.58.275,t1_Paradigm,2021.1.4,60.01251387114412,
W,left,Distractor,0,25,25,25,1770.1269997190102,1772.1285889718565,left,1,3,0.5917439050972462,D29N05,2023-01-30_12h16.58.275,t1_Paradigm,2021.1.4,60.01251387114412,
D,right,Target,0,26,26,26,1773.6270856939373,1775.6282826060196,left,0,3,0.8999142817337997,D29N05,2023-01-30_12h16.58.275,t1_Paradigm,2021.1.4,60.01251387114412,
G,left,Pretarget,0,27,27,27,1777.127018646337,1779.1288898841012,left,1,3,0.6152715203934349,D29N05,2023-01-30_12h16.58.275,t1_Paradigm,2021.1.4,60.01251387114412,
V,left,Distractor,0,28,28,28,1780.62677387445,1782.6277173529961,left,1,3,0.5885012389626354,D29N05,2023-01-30_12h16.58.275,t1_Paradigm,2021.1.4,60.01251387114412,
D,right,Target,0,29,29,29,1784.1270240999293,1786.1288696735865,right,1,3,0.3992871138616465,D29N05,2023-01-30_12h16.58.275,t1_Paradigm,2021.1.4,60.01251387114412,
G,right,Target,0,30,30,30,1787.6269557691412,1789.6269310673815,right,1,3,0.773250442405697,D29N05,2023-01-30_12h16.58.275,t1_Paradigm,2021.1.4,60.01251387114412,
B,left,Pretarget,0,31,31,31,1791.126771308016,1793.1286880996777,left,1,3,0.5194672249490395,D29N05,2023-01-30_12h16.58.275,t1_Paradigm,2021.1.4,60.01251387114412,
N,left,Distractor,0,32,32,32,1794.627018004714,1796.628797172336,left,1,3,0.6673450558446348,D29N05,2023-01-30_12h16.58.275,t1_Paradigm,2021.1.4,60.01251387114412,
F,left,Distractor,0,33,33,33,1798.1269586563576,1800.1274552577524,left,1,3,0.5605340454494581,D29N05,2023-01-30_12h16.58.275,t1_Paradigm,2021.1.4,60.01251387114412,
B,right,Target,0,34,34,34,1801.6268941751914,1803.628478295228,right,1,3,0.5317889071884565,D29N05,2023-01-30_12h16.58.275,t1_Paradigm,2021.1.4,60.01251387114412,
Q,left,Pretarget,0,35,35,35,1805.1270622753655,1807.1268871175125,left,1,3,0.585339094104711,D29N05,2023-01-30_12h16.58.275,t1_Paradigm,2021.1.4,60.01251387114412,
S,left,Pretarget,0,36,36,36,1808.626815257885,1810.628650245082,left,1,3,0.651487173687201,D29N05,2023-01-30_12h16.58.275,t1_Paradigm,2021.1.4,60.01251387114412,
W,left,Distractor,0,37,37,37,1812.1268239195342,1814.1265335937496,left,1,3,0.7695933001232333,D29N05,2023-01-30_12h16.58.275,t1_Paradigm,2021.1.4,60.01251387114412,
Q,right,Target,0,38,38,38,1815.6265871676733,1817.628761884116,right,1,3,1.2994403930497356,D29N05,2023-01-30_12h16.58.275,t1_Paradigm,2021.1.4,60.01251387114412,
S,right,Target,0,39,39,39,1819.127119698911,1821.1279274782282,right,1,3,0.8083830683608539,D29N05,2023-01-30_12h16.58.275,t1_Paradigm,2021.1.4,60.01251387114412,
T,left,Distractor,0,40,40,40,1822.6269281801651,1824.629028149764,left,1,3,0.5871949333813973,D29N05,2023-01-30_12h16.58.275,t1_Paradigm,2021.1.4,60.01251387114412,
G,left,Distractor,0,41,41,41,1826.1270821650978,1828.1287573929294,left,1,3,0.8154573930078186,D29N05,2023-01-30_12h16.58.275,t1_Paradigm,2021.1.4,60.01251387114412,
D,left,Distractor,0,42,42,42,1829.6270263455808,1831.628667889163,left,1,3,0.8674933947040699,D29N05,2023-01-30_12h16.58.275,t1_Paradigm,2021.1.4,60.01251387114412,
S,left,Lure,0,43,43,43,1833.1269811124657,1835.128955327731,left,1,3,0.7913574670092203,D29N05,2023-01-30_12h16.58.275,t1_Paradigm,2021.1.4,60.01251387114412,
Z,left,Pretarget,0,44,44,44,1836.627008059877,1838.628431137302,left,1,3,1.163917607802432,D29N05,2023-01-30_12h16.58.275,t1_Paradigm,2021.1.4,60.01251387114412,
J,left,Distractor,0,45,45,45,1840.1270176839316,1842.1290323201683,left,1,3,0.8310243078158237,D29N05,2023-01-30_12h16.58.275,t1_Paradigm,2021.1.4,60.01251387114412,
M,left,Pretarget,0,46,46,46,1843.6267818944762,1845.626971488411,left,1,3,0.5495032702456228,D29N05,2023-01-30_12h16.58.275,t1_Paradigm,2021.1.4,60.01251387114412,
Z,right,Target,0,47,47,47,1847.1268752478645,1849.1458506833878,right,1,3,0.47008906747214496,D29N05,2023-01-30_12h16.58.275,t1_Paradigm,2021.1.4,60.01251387114412,
P,left,Distractor,0,48,48,48,1850.6269843205228,1852.6267151676584,left,1,3,0.7173430027323775,D29N05,2023-01-30_12h16.58.275,t1_Paradigm,2021.1.4,60.01251387114412,
M,right,Target,0,49,49,49,1854.1270090222824,1856.1288295733393,right,1,3,0.6234853335772641,D29N05,2023-01-30_12h16.58.275,t1_Paradigm,2021.1.4,60.01251387114412,
K,left,Distractor,0,50,50,50,1857.6270767114474,1859.6271764808916,left,1,3,0.6609376784763299,D29N05,2023-01-30_12h16.58.275,t1_Paradigm,2021.1.4,60.01251387114412,
Y,left,Distractor,0,51,51,51,1861.1269493530854,1863.128546626016,left,1,3,0.9036163362907246,D29N05,2023-01-30_12h16.58.275,t1_Paradigm,2021.1.4,60.01251387114412,
X,left,Distractor,0,52,52,52,1864.6266821250902,1866.628868711181,left,1,3,0.635287637473084,D29N05,2023-01-30_12h16.58.275,t1_Paradigm,2021.1.4,60.01251387114412,
F,left,Pretarget,0,53,53,53,1868.127051368123,1870.1276525509893,left,1,3,0.5604599401704036,D29N05,2023-01-30_12h16.58.275,t1_Paradigm,2021.1.4,60.01251387114412,
M,left,Lure,0,54,54,54,1871.6268367515877,1873.6288876385079,left,1,3,0.691350024426356,D29N05,2023-01-30_12h16.58.275,t1_Paradigm,2021.1.4,60.01251387114412,
V,left,Distractor,0,55,55,55,1875.1269214433269,1877.12895853573,left,1,3,0.6476394750643522,D29N05,2023-01-30_12h16.58.275,t1_Paradigm,2021.1.4,60.01251387114412,
F,right,Target,0,56,56,56,1878.6269833581173,1880.6288565206924,right,1,3,0.6033190811285749,D29N05,2023-01-30_12h16.58.275,t1_Paradigm,2021.1.4,60.01251387114412,
S,left,Distractor,0,57,57,57,1882.127021854336,1884.1266988067655,left,1,3,0.7374146185466088,D29N05,2023-01-30_12h16.58.275,t1_Paradigm,2021.1.4,60.01251387114412,
D,left,Distractor,0,58,58,58,1885.626687899523,1887.6283239894547,left,1,3,0.5481610348797403,D29N05,2023-01-30_12h16.58.275,t1_Paradigm,2021.1.4,60.01251387114412,
F,right,Target,0,59,59,59,1889.1265072880196,1891.128243468178,right,1,3,0.9839361629565246,D29N05,2023-01-30_12h16.58.275,t1_Paradigm,2021.1.4,60.01251387114412,
V,left,Pretarget,0,60,60,60,1892.6269358794088,1894.6273657540441,left,1,3,0.6527880256180651,D29N05,2023-01-30_12h16.58.275,t1_Paradigm,2021.1.4,60.01251387114412,
J,left,Distractor,0,61,61,61,1896.1271190573461,1898.1289052825887,left,1,3,0.6553948622895405,D29N05,2023-01-30_12h16.58.275,t1_Paradigm,2021.1.4,60.01251387114412,
V,left,Lure,0,62,62,62,1899.627094034804,1901.6288395182346,left,1,3,1.0436011559213512,D29N05,2023-01-30_12h16.58.275,t1_Paradigm,2021.1.4,60.01251387114412,
V,right,Target,0,63,63,63,1903.1267616839614,1905.1265255737235,None,0,3,,D29N05,2023-01-30_12h16.58.275,t1_Paradigm,2021.1.4,60.01251387114412,
R,left,Distractor,0,0,0,0,1988.4350841207197,1990.4284525027615,left,1,4,0.6278151975711808,D29N05,2023-01-30_12h16.58.275,t1_Paradigm,2021.1.4,60.01251387114412,
F,left,Distractor,0,1,1,1,1991.9268930844264,1993.928214788495,left,1,4,0.32820702507160604,D29N05,2023-01-30_12h16.58.275,t1_Paradigm,2021.1.4,60.01251387114412,
P,left,Pretarget,0,2,2,2,1995.4269187485916,1997.4278699263814,left,1,4,0.36424784135306254,D29N05,2023-01-30_12h16.58.275,t1_Paradigm,2021.1.4,60.01251387114412,
H,left,Distractor,0,3,3,3,1998.9267647636589,2000.9267962022568,left,1,4,0.5613225766574033,D29N05,2023-01-30_12h16.58.275,t1_Paradigm,2021.1.4,60.01251387114412,
Z,left,Distractor,0,4,4,4,2002.4260817762697,2004.4285063974676,left,1,4,0.6118796812952496,D29N05,2023-01-30_12h16.58.275,t1_Paradigm,2021.1.4,60.01251387114412,
T,left,Distractor,0,5,5,5,2005.9268924428034,2007.9293953396846,left,1,4,0.502791297796648,D29N05,2023-01-30_12h16.58.275,t1_Paradigm,2021.1.4,60.01251387114412,
P,right,Target,0,6,6,6,2009.4270611846587,2011.428710748325,right,1,4,0.667377136007417,D29N05,2023-01-30_12h16.58.275,t1_Paradigm,2021.1.4,60.01251387114412,
G,left,Distractor,0,7,7,7,2012.9267179265735,2014.9265402022866,left,1,4,0.7054383630747907,D29N05,2023-01-30_12h16.58.275,t1_Paradigm,2021.1.4,60.01251387114412,
L,left,Distractor,0,8,8,8,2016.4269790593535,2018.4284704676247,left,1,4,0.627927799068857,D29N05,2023-01-30_12h16.58.275,t1_Paradigm,2021.1.4,60.01251387114412,
P,left,Lure,0,9,9,9,2019.9269383174833,2021.92900267808,None,0,4,,D29N05,2023-01-30_12h16.58.275,t1_Paradigm,2021.1.4,60.01251387114412,
Q,left,Pretarget,0,10,10,10,2023.426730758627,2025.4270021570846,left,1,4,0.7973012856673449,D29N05,2023-01-30_12h16.58.275,t1_Paradigm,2021.1.4,60.01251387114412,
D,left,Distractor,0,11,11,11,2026.9267153601395,2028.926953074406,left,1,4,0.6729895662283525,D29N05,2023-01-30_12h16.58.275,t1_Paradigm,2021.1.4,60.01251387114412,
M,left,Pretarget,0,12,12,12,2030.427054127038,2032.4284893949516,left,1,4,0.563707739172969,D29N05,2023-01-30_12h16.58.275,t1_Paradigm,2021.1.4,60.01251387114412,
C,left,Distractor,0,13,13,13,2033.9266986784642,2035.928681876103,left,1,4,0.47152369376271963,D29N05,2023-01-30_12h16.58.275,t1_Paradigm,2021.1.4,60.01251387114412,
Q,right,Target,0,14,14,14,2037.4267240217887,2039.4271895054262,right,1,4,0.5090719584259205,D29N05,2023-01-30_12h16.58.275,t1_Paradigm,2021.1.4,60.01251387114412,
R,left,Distractor,0,15,15,15,2040.9269758513547,2042.9282295453595,left,1,4,0.543908805004321,D29N05,2023-01-30_12h16.58.275,t1_Paradigm,2021.1.4,60.01251387114412,
M,right,Target,0,16,16,16,2044.4263140368857,2046.4283549789106,right,1,4,0.9157898079720326,D29N05,2023-01-30_12h16.58.275,t1_Paradigm,2021.1.4,60.01251387114412,
S,left,Distractor,0,17,17,17,2047.926863249857,2049.92887018685,left,1,4,1.0152169198845513,D29N05,2023-01-30_12h16.58.275,t1_Paradigm,2021.1.4,60.01251387114412,
Z,left,Distractor,0,18,18,18,2051.4266380468616,2053.42838866316,left,1,4,1.0996991518768482,D29N05,2023-01-30_12h16.58.275,t1_Paradigm,2021.1.4,60.01251387114412,
L,left,Pretarget,0,19,19,19,2054.9269620568375,2056.9272806132212,None,0,4,,D29N05,2023-01-30_12h16.58.275,t1_Paradigm,2021.1.4,60.01251387114412,
M,right,Target,0,20,20,20,2058.4267054153024,2060.4266640318674,right,1,4,0.7575657932902686,D29N05,2023-01-30_12h16.58.275,t1_Paradigm,2021.1.4,60.01251387114412,
P,left,Distractor,0,21,21,21,2061.9267355706543,2063.9275125529966,left,1,4,0.5844899312942289,D29N05,2023-01-30_12h16.58.275,t1_Paradigm,2021.1.4,60.01251387114412,
F,left,Distractor,0,22,22,22,2065.426202077011,2067.4288220665767,left,1,4,0.5873726576683111,D29N05,2023-01-30_12h16.58.275,t1_Paradigm,2021.1.4,60.01251387114412,
L,right,Target,0,23,23,23,2068.926935430267,2070.9287068987032,right,1,4,0.4154263393720612,D29N05,2023-01-30_12h16.58.275,t1_Paradigm,2021.1.4,60.01251387114412,
L,left,Lure,0,24,24,24,2072.426364082028,2074.426873836317,left,1,4,0.7573248710250482,D29N05,2023-01-30_12h16.58.275,t1_Paradigm,2021.1.4,60.01251387114412,
V,left,Pretarget,0,25,25,25,2075.926602117077,2077.928154477733,left,1,4,0.9199958423851058,D29N05,2023-01-30_12h16.58.275,t1_Paradigm,2021.1.4,60.01251387114412,
Z,left,Distractor,0,26,26,26,2079.4266845631646,2081.427203941508,right,0,4,1.197041371895466,D29N05,2023-01-30_12h16.58.275,t1_Paradigm,2021.1.4,60.01251387114412,
H,left,Distractor,0,27,27,27,2082.926993174653,2084.9286677608616,left,1,4,0.6553191529819742,D29N05,2023-01-30_12h16.58.275,t1_Paradigm,2021.1.4,60.01251387114412,
X,left,Distractor,0,28,28,28,2086.426875761128,2088.429004602891,left,1,4,0.5633102655410767,D29N05,2023-01-30_12h16.58.275,t1_Paradigm,2021.1.4,60.01251387114412,
V,right,Target,0,29,29,29,2089.926880893938,2091.939736390661,right,1,4,0.42852436238899827,D29N05,2023-01-30_12h16.58.275,t1_Paradigm,2021.1.4,60.01251387114412,
C,left,Distractor,0,30,30,30,2093.4268517009914,2095.4276877108496,left,1,4,0.5245763168786652,D29N05,2023-01-30_12h16.58.275,t1_Paradigm,2021.1.4,60.01251387114412,
S,left,Pretarget,0,31,31,31,2096.926890838833,2098.928845164308,left,1,4,0.5914173287455924,D29N05,2023-01-30_12h16.58.275,t1_Paradigm,2021.1.4,60.01251387114412,
D,left,Distractor,0,32,32,32,2100.4268144879607,2102.428975730727,left,1,4,0.6273432978778146,D29N05,2023-01-30_12h16.58.275,t1_Paradigm,2021.1.4,60.01251387114412,
V,left,Distractor,0,33,33,33,2103.9266701270826,2105.9269174654037,left,1,4,1.097351202450227,D29N05,2023-01-30_12h16.58.275,t1_Paradigm,2021.1.4,60.01251387114412,
R,left,Distractor,0,34,34,34,2107.4264622473856,2109.4270355204935,left,1,4,0.8450164058012888,D29N05,2023-01-30_12h16.58.275,t1_Paradigm,2021.1.4,60.01251387114412,
S,right,Target,0,35,35,35,2110.9268690242898,2112.9285314200097,left,0,4,0.831809310184326,D29N05,2023-01-30_12h16.58.275,t1_Paradigm,2021.1.4,60.01251387114412,
Y,left,Distractor,0,36,36,36,2114.426928051864,2116.4400247915764,left,1,4,0.6480071141268127,D29N05,2023-01-30_12h16.58.275,t1_Paradigm,2021.1.4,60.01251387114412,
N,left,Pretarget,0,37,37,37,2117.9263037712662,2119.9277374351514,left,1,4,0.5047744954936206,D29N05,2023-01-30_12h16.58.275,t1_Paradigm,2021.1.4,60.01251387114412,
Z,left,Pretarget,0,38,38,38,2121.4263714604313,2123.4279193299008,left,1,4,0.47656349249882624,D29N05,2023-01-30_12h16.58.275,t1_Paradigm,2021.1.4,60.01251387114412,
P,left,Pretarget,0,39,39,39,2124.927015630761,2126.928794156818,left,1,4,0.47953540179878473,D29N05,2023-01-30_12h16.58.275,t1_Paradigm,2021.1.4,60.01251387114412,
M,left,Distractor,0,40,40,40,2128.4269258062122,2130.4288028184674,left,1,4,0.7873702195938677,D29N05,2023-01-30_12h16.58.275,t1_Paradigm,2021.1.4,60.01251387114412,
N,right,Target,0,41,41,41,2131.926735891495,2133.9281923323288,left,0,4,0.5999567558756098,D29N05,2023-01-30_12h16.58.275,t1_Paradigm,2021.1.4,60.01251387114412,
Z,right,Target,0,42,42,42,2135.426911690971,2137.427839450189,right,1,4,0.7805018497747369,D29N05,2023-01-30_12h16.58.275,t1_Paradigm,2021.1.4,60.01251387114412,
P,right,Target,0,43,43,43,2138.9269145781873,2140.9288624876062,right,1,4,0.8954147134791128,D29N05,2023-01-30_12h16.58.275,t1_Paradigm,2021.1.4,60.01251387114412,
X,left,Pretarget,0,44,44,44,2142.426937996701,2144.4274900968885,left,1,4,0.564934806607198,D29N05,2023-01-30_12h16.58.275,t1_Paradigm,2021.1.4,60.01251387114412,
Z,left,Lure,0,45,45,45,2145.926943129569,2147.928751490137,left,1,4,0.47147589427186176,D29N05,2023-01-30_12h16.58.275,t1_Paradigm,2021.1.4,60.01251387114412,
R,left,Pretarget,0,46,46,46,2149.4268767235335,2151.427039049333,left,1,4,0.47743286576587707,D29N05,2023-01-30_12h16.58.275,t1_Paradigm,2021.1.4,60.01251387114412,
K,left,Distractor,0,47,47,47,2152.926928051864,2154.9274371645297,left,1,4,0.4968019252992235,D29N05,2023-01-30_12h16.58.275,t1_Paradigm,2021.1.4,60.01251387114412,
X,right,Target,0,48,48,48,2156.4265507887467,2158.428303971421,None,0,4,,D29N05,2023-01-30_12h16.58.275,t1_Paradigm,2021.1.4,60.01251387114412,
B,left,Distractor,0,49,49,49,2159.926670447865,2161.9268799315323,left,1,4,0.8573647146113217,D29N05,2023-01-30_12h16.58.275,t1_Paradigm,2021.1.4,60.01251387114412,
R,right,Target,0,50,50,50,2163.4268943676725,2165.4288348986884,left,0,4,0.6034387403051369,D29N05,2023-01-30_12h16.58.275,t1_Paradigm,2021.1.4,60.01251387114412,
Y,left,Pretarget,0,51,51,51,2166.926942808728,2168.928841956309,left,1,4,0.7992411750601605,D29N05,2023-01-30_12h16.58.275,t1_Paradigm,2021.1.4,60.01251387114412,
W,left,Pretarget,0,52,52,52,2170.4268536258023,2172.4285885227728,left,1,4,0.6435085082775913,D29N05,2023-01-30_12h16.58.275,t1_Paradigm,2021.1.4,60.01251387114412,
Z,left,Distractor,0,53,53,53,2173.926886989211,2175.928529815981,left,1,4,0.4716946812113747,D29N05,2023-01-30_12h16.58.275,t1_Paradigm,2021.1.4,60.01251387114412,
Q,left,Distractor,0,54,54,54,2177.4266505581327,2179.4285307783866,left,1,4,0.5876219208003022,D29N05,2023-01-30_12h16.58.275,t1_Paradigm,2021.1.4,60.01251387114412,
Y,right,Target,0,55,55,55,2180.9266633902444,2182.9279578261194,right,1,4,0.4160239933989942,D29N05,2023-01-30_12h16.58.275,t1_Paradigm,2021.1.4,60.01251387114412,
W,right,Target,0,56,56,56,2184.4269088037545,2186.428299480176,left,0,4,0.8997176301199943,D29N05,2023-01-30_12h16.58.275,t1_Paradigm,2021.1.4,60.01251387114412,
H,left,Pretarget,0,57,57,57,2187.9265552799916,2189.928712031513,left,1,4,0.6795753095066175,D29N05,2023-01-30_12h16.58.275,t1_Paradigm,2021.1.4,60.01251387114412,
M,left,Distractor,0,58,58,58,2191.4264882323914,2193.4286453046952,left,1,4,0.8279218321549706,D29N05,2023-01-30_12h16.58.275,t1_Paradigm,2021.1.4,60.01251387114412,
R,left,Pretarget,0,59,59,59,2194.9268414353137,2196.928305896232,right,0,4,0.5436832812265493,D29N05,2023-01-30_12h16.58.275,t1_Paradigm,2021.1.4,60.01251387114412,
J,left,Distractor,0,60,60,60,2198.4267041321145,2200.4281121318345,left,1,4,0.6121799519169144,D29N05,2023-01-30_12h16.58.275,t1_Paradigm,2021.1.4,60.01251387114412,
H,right,Target,0,61,61,61,2201.9269062373205,2203.9281612145714,left,0,4,0.3921200774493627,D29N05,2023-01-30_12h16.58.275,t1_Paradigm,2021.1.4,60.01251387114412,
Z,left,Distractor,0,62,62,62,2205.4266720518935,2207.428498698224,left,1,4,1.0355820694821887,D29N05,2023-01-30_12h16.58.275,t1_Paradigm,2021.1.4,60.01251387114412,
R,right,Target,0,63,63,63,2208.92692548543,2210.9281881619245,None,0,4,,D29N05,2023-01-30_12h16.58.275,t1_Paradigm,2021.1.4,60.01251387114412,
J,left,Pretarget,0,0,0,0,2233.2512552980916,2235.245417985716,left,1,4,0.5948755737626925,D29N05,2023-01-30_12h16.58.275,t1_Paradigm,2021.1.4,60.01251387114412,
G,left,Pretarget,0,1,1,1,2236.7430960211786,2238.7444716199534,left,1,4,0.39172805746784434,D29N05,2023-01-30_12h16.58.275,t1_Paradigm,2021.1.4,60.01251387114412,
Z,left,Distractor,0,2,2,2,2240.2433321314165,2242.2456617951975,left,1,4,0.3786069367779419,D29N05,2023-01-30_12h16.58.275,t1_Paradigm,2021.1.4,60.01251387114412,
F,left,Distractor,0,3,3,3,2243.7435185173526,2245.7436417053104,left,1,4,0.38434736692579463,D29N05,2023-01-30_12h16.58.275,t1_Paradigm,2021.1.4,60.01251387114412,
J,right,Target,0,4,4,4,2247.243491249217,2249.2441960510914,right,1,4,0.4519076167489402,D29N05,2023-01-30_12h16.58.275,t1_Paradigm,2021.1.4,60.01251387114412,
G,right,Target,0,5,5,5,2250.7434370336705,2252.7450577251147,right,1,4,0.42312301986385137,D29N05,2023-01-30_12h16.58.275,t1_Paradigm,2021.1.4,60.01251387114412,
H,left,Distractor,0,6,6,6,2254.2432265875977,2256.2452222965076,left,1,4,0.522933490050491,D29N05,2023-01-30_12h16.58.275,t1_Paradigm,2021.1.4,60.01251387114412,
P,left,Distractor,0,7,7,7,2257.7434107278823,2259.7434043118847,left,1,4,0.4968279102467932,D29N05,2023-01-30_12h16.58.275,t1_Paradigm,2021.1.4,60.01251387114412,
G,left,Lure,0,8,8,8,2261.243592301791,2263.244688482082,left,1,4,0.4992515690391883,D29N05,2023-01-30_12h16.58.275,t1_Paradigm,2021.1.4,60.01251387114412,
S,left,Distractor,0,9,9,9,2264.7434797002934,2266.7427056052256,left,1,4,0.6176460964488797,D29N05,2023-01-30_12h16.58.275,t1_Paradigm,2021.1.4,60.01251387114412,
R,left,Pretarget,0,10,10,10,2268.2435473895166,2270.2453868679586,left,1,4,0.7949437121278606,D29N05,2023-01-30_12h16.58.275,t1_Paradigm,2021.1.4,60.01251387114412,
T,left,Pretarget,0,11,11,11,2271.7435576551943,2273.7435380863026,left,1,4,0.7046081275912002,D29N05,2023-01-30_12h16.58.275,t1_Paradigm,2021.1.4,60.01251387114412,
X,left,Distractor,0,12,12,12,2275.2434732842958,2277.245387188741,left,1,4,0.6267170924693346,D29N05,2023-01-30_12h16.58.275,t1_Paradigm,2021.1.4,60.01251387114412,
F,left,Pretarget,0,13,13,13,2278.7434822667274,2280.7449563517002,left,1,4,0.7430180663359351,D29N05,2023-01-30_12h16.58.275,t1_Paradigm,2021.1.4,60.01251387114412,
R,right,Target,0,14,14,14,2282.2434193895315,2284.2454843917512,left,0,4,0.7787361557711847,D29N05,2023-01-30_12h16.58.275,t1_Paradigm,2021.1.4,60.01251387114412,
T,right,Target,0,15,15,15,2285.7434402416693,2287.7449688629713,left,0,4,0.543082739925012,D29N05,2023-01-30_12h16.58.275,t1_Paradigm,2021.1.4,60.01251387114412,
C,left,Distractor,0,16,16,16,2289.2435486727627,2291.2454683516407,left,1,4,0.6747594306361862,D29N05,2023-01-30_12h16.58.275,t1_Paradigm,2021.1.4,60.01251387114412,
F,right,Target,0,17,17,17,2292.7435663168435,2294.7439336350653,right,1,4,0.5841498812660575,D29N05,2023-01-30_12h16.58.275,t1_Paradigm,2021.1.4,60.01251387114412,
M,left,Distractor,0,18,18,18,2296.2435643920326,2298.245419268962,left,1,4,0.506723046535626,D29N05,2023-01-30_12h16.58.275,t1_Paradigm,2021.1.4,60.01251387114412,
N,left,Distractor,0,19,19,19,2299.7434822667274,2301.7451440208824,left,1,4,0.542841176094953,D29N05,2023-01-30_12h16.58.275,t1_Paradigm,2021.1.4,60.01251387114412,
R,left,Lure,0,20,20,20,2303.2434639810235,2305.245588652382,left,1,4,0.8505454274709336,D29N05,2023-01-30_12h16.58.275,t1_Paradigm,2021.1.4,60.01251387114412,
F,right,Target,0,21,21,21,2306.743627590011,2308.744191880687,left,0,4,0.8718405819963664,D29N05,2023-01-30_12h16.58.275,t1_Paradigm,2021.1.4,60.01251387114412,
P,left,Distractor,0,22,22,22,2310.2434986276203,2312.244682707649,left,1,4,0.9074274634476751,D29N05,2023-01-30_12h16.58.275,t1_Paradigm,2021.1.4,60.01251387114412,
L,left,Pretarget,0,23,23,23,2313.743481304322,2315.7453207827057,left,1,4,0.8468619794584811,D29N05,2023-01-30_12h16.58.275,t1_Paradigm,2021.1.4,60.01251387114412,
T,left,Distractor,0,24,24,24,2317.2430790186627,2319.2454747676966,left,1,4,0.610761686519254,D29N05,2023-01-30_12h16.58.275,t1_Paradigm,2021.1.4,60.01251387114412,
F,left,Distractor,0,25,25,25,2320.743628231634,2322.743576261739,right,0,4,0.5845964375184849,D29N05,2023-01-30_12h16.58.275,t1_Paradigm,2021.1.4,60.01251387114412,
V,left,Distractor,0,26,26,26,2324.243583640142,2326.2432958807913,left,1,4,0.7007357272086665,D29N05,2023-01-30_12h16.58.275,t1_Paradigm,2021.1.4,60.01251387114412,
L,right,Target,0,27,27,27,2327.7433292442,2329.743534557463,right,1,4,0.43285165989072993,D29N05,2023-01-30_12h16.58.275,t1_Paradigm,2021.1.4,60.01251387114412,
S,left,Pretarget,0,28,28,28,2331.243173655239,2333.2446698755957,left,1,4,0.5318999046576209,D29N05,2023-01-30_12h16.58.275,t1_Paradigm,2021.1.4,60.01251387114412,
W,left,Distractor,0,29,29,29,2334.7430937755853,2336.743657745421,left,1,4,0.6162900665658526,D29N05,2023-01-30_12h16.58.275,t1_Paradigm,2021.1.4,60.01251387114412,
Q,left,Distractor,0,30,30,30,2338.243584281765,2340.2453365020338,left,1,4,0.6506870936136693,D29N05,2023-01-30_12h16.58.275,t1_Paradigm,2021.1.4,60.01251387114412,
L,right,Target,0,31,31,31,2341.7434225975885,2343.7433905173675,left,0,4,0.8167406008578837,D29N05,2023-01-30_12h16.58.275,t1_Paradigm,2021.1.4,60.01251387114412,
S,right,Target,0,32,32,32,2345.2432211339474,2347.245316933084,right,1,4,0.7708283876418136,D29N05,2023-01-30_12h16.58.275,t1_Paradigm,2021.1.4,60.01251387114412,
Z,left,Pretarget,0,33,33,33,2348.7431938657537,2350.745372111036,left,1,4,0.5186533503583632,D29N05,2023-01-30_12h16.58.275,t1_Paradigm,2021.1.4,60.01251387114412,
F,left,Distractor,0,34,34,34,2352.243448582536,2354.2448934745044,left,1,4,0.6672103190794587,D29N05,2023-01-30_12h16.58.275,t1_Paradigm,2021.1.4,60.01251387114412,
V,left,Distractor,0,35,35,35,2355.7434306176146,2357.7442297352827,left,1,4,0.5277647674665786,D29N05,2023-01-30_12h16.58.275,t1_Paradigm,2021.1.4,60.01251387114412,
M,left,Distractor,0,36,36,36,2359.2434104071,2361.2434396001045,left,1,4,0.500603107677307,D29N05,2023-01-30_12h16.58.275,t1_Paradigm,2021.1.4,60.01251387114412,
Z,right,Target,0,37,37,37,2362.7435374446795,2364.7450009431923,right,1,4,0.983036955120042,D29N05,2023-01-30_12h16.58.275,t1_Paradigm,2021.1.4,60.01251387114412,
H,left,Pretarget,0,38,38,38,2366.2436923920177,2368.2451590985293,left,1,4,0.9390681601362303,D29N05,2023-01-30_12h16.58.275,t1_Paradigm,2021.1.4,60.01251387114412,
L,left,Distractor,0,39,39,39,2369.743578507332,2371.745136642421,right,0,4,0.9272443625377491,D29N05,2023-01-30_12h16.58.275,t1_Paradigm,2021.1.4,60.01251387114412,
G,left,Distractor,0,40,40,40,2373.2430973043665,2375.245237695053,left,1,4,0.6110305185429752,D29N05,2023-01-30_12h16.58.275,t1_Paradigm,2021.1.4,60.01251387114412,
K,left,Distractor,0,41,41,41,2376.7437401915086,2378.745133434364,left,1,4,0.4869542677188292,D29N05,2023-01-30_12h16.58.275,t1_Paradigm,2021.1.4,60.01251387114412,
H,right,Target,0,42,42,42,2380.2434752091067,2382.245177384233,right,1,4,0.41110577865038067,D29N05,2023-01-30_12h16.58.275,t1_Paradigm,2021.1.4,60.01251387114412,
B,left,Distractor,0,43,43,43,2383.743565354438,2385.7454138153116,left,1,4,0.5110545144998468,D29N05,2023-01-30_12h16.58.275,t1_Paradigm,2021.1.4,60.01251387114412,
Z,left,Distractor,0,44,44,44,2387.2434614145895,2389.2447375647607,right,0,4,1.1873980651726015,D29N05,2023-01-30_12h16.58.275,t1_Paradigm,2021.1.4,60.01251387114412,
T,left,Pretarget,0,45,45,45,2390.743505685299,2392.7445932038827,right,0,4,1.1434485182981007,D29N05,2023-01-30_12h16.58.275,t1_Paradigm,2021.1.4,60.01251387114412,
H,right,Target,0,46,46,46,2394.243383138906,2396.2451080910396,left,0,4,1.259236850659363,D29N05,2023-01-30_12h16.58.275,t1_Paradigm,2021.1.4,60.01251387114412,
F,left,Distractor,0,47,47,47,2397.743451790535,2399.7454503867193,left,1,4,0.6706781881512143,D29N05,2023-01-30_12h16.58.275,t1_Paradigm,2021.1.4,60.01251387114412,
R,left,Distractor,0,48,48,48,2401.2434136150987,2403.244958918134,left,1,4,0.6594591022585519,D29N05,2023-01-30_12h16.58.275,t1_Paradigm,2021.1.4,60.01251387114412,
T,right,Target,0,49,49,49,2404.7435663168435,2406.745246677485,right,1,4,0.45494657359085977,D29N05,2023-01-30_12h16.58.275,t1_Paradigm,2021.1.4,60.01251387114412,
H,right,Target,0,50,50,50,2408.243691429612,2410.245497544587,right,1,4,0.49066594638861716,D29N05,2023-01-30_12h16.58.275,t1_Paradigm,2021.1.4,60.01251387114412,
Y,left,Pretarget,0,51,51,51,2411.743260913412,2413.744691048516,left,1,4,0.6074429902946576,D29N05,2023-01-30_12h16.58.275,t1_Paradigm,2021.1.4,60.01251387114412,
H,left,Distractor,0,52,52,52,2415.2434437705087,2417.2449656549725,left,1,4,0.707260518160183,D29N05,2023-01-30_12h16.58.275,t1_Paradigm,2021.1.4,60.01251387114412,
S,left,Distractor,0,53,53,53,2418.7435913393856,2420.756258204521,left,1,4,1.0520135455299169,D29N05,2023-01-30_12h16.58.275,t1_Paradigm,2021.1.4,60.01251387114412,
Q,left,Distractor,0,54,54,54,2422.2431393294246,2424.244019930833,left,1,4,1.2439872089889832,D29N05,2023-01-30_12h16.58.275,t1_Paradigm,2021.1.4,60.01251387114412,
Y,right,Target,0,55,55,55,2425.7432888231706,2427.745158136124,left,0,4,0.7349672204582021,D29N05,2023-01-30_12h16.58.275,t1_Paradigm,2021.1.4,60.01251387114412,
R,left,Distractor,0,56,56,56,2429.243643309339,2431.245248923078,left,1,4,0.9630285372841172,D29N05,2023-01-30_12h16.58.275,t1_Paradigm,2021.1.4,60.01251387114412,
H,left,Pretarget,0,57,57,57,2432.7435018356773,2434.7447459056275,right,0,4,0.7432731038425118,D29N05,2023-01-30_12h16.58.275,t1_Paradigm,2021.1.4,60.01251387114412,
J,left,Distractor,0,58,58,58,2436.243001705385,2438.24526175519,left,1,4,0.5868555249180645,D29N05,2023-01-30_12h16.58.275,t1_Paradigm,2021.1.4,60.01251387114412,
V,left,Distractor,0,59,59,59,2439.743326677766,2441.744816482067,left,1,4,0.8794625155860558,D29N05,2023-01-30_12h16.58.275,t1_Paradigm,2021.1.4,60.01251387114412,
Y,left,Lure,0,60,60,60,2443.2435419359244,2445.2435990386293,left,1,4,0.5806287589948624,D29N05,2023-01-30_12h16.58.275,t1_Paradigm,2021.1.4,60.01251387114412,
H,right,Target,0,61,61,61,2446.743397895829,2448.745307309029,right,1,4,0.5187540822080337,D29N05,2023-01-30_12h16.58.275,t1_Paradigm,2021.1.4,60.01251387114412,
L,left,Distractor,0,62,62,62,2450.243016141525,2452.243427409616,left,1,4,0.6046895470935851,D29N05,2023-01-30_12h16.58.275,t1_Paradigm,2021.1.4,60.01251387114412,
P,left,Distractor,0,63,63,63,2453.743390196585,2455.745423118584,left,1,4,0.4787664394825697,D29N05,2023-01-30_12h16.58.275,t1_Paradigm,2021.1.4,60.01251387114412,
