Letter,CorrAnswer,Stimulus,finaln_nback_run.thisRepN,finaln_nback_run.thisTrialN,finaln_nback_run.thisN,finaln_nback_run.thisIndex,finaln_fixcross.started,finaln_nback_trial.started,finaln_trial_resp.keys,finaln_trial_resp.corr,finaln_level,finaln_money,finaln_trial_resp.rt,Participant,date,expName,psychopyVersion,frameRate,
F,left,Distractor,0,0,0,0,2726.1348330611363,2728.129196891561,None,0,1,3.0,,D29N05,2023-01-30_12h16.58.275,t1_Paradigm,2021.1.4,60.01251387114412,
T,left,Pretarget,0,1,1,1,2729.6265945461346,2731.628824761312,None,0,1,3.0,,D29N05,2023-01-30_12h16.58.275,t1_Paradigm,2021.1.4,60.01251387114412,
B,left,Distractor,0,2,2,2,2733.1267321701744,2735.1286701347562,left,1,1,3.0,0.5351887662545778,D29N05,2023-01-30_12h16.58.275,t1_Paradigm,2021.1.4,60.01251387114412,
T,right,Target,0,3,3,3,2736.626674105006,2738.627900530875,left,0,1,3.0,0.668105035671033,D29N05,2023-01-30_12h16.58.275,t1_Paradigm,2021.1.4,60.01251387114412,
Z,left,Distractor,0,4,4,4,2740.126756230311,2742.12879460596,left,1,1,3.0,0.527447173546534,D29N05,2023-01-30_12h16.58.275,t1_Paradigm,2021.1.4,60.01251387114412,
T,right,Target,0,5,5,5,2743.62677387445,2745.6283875082736,left,0,1,3.0,0.5798184133018367,D29N05,2023-01-30_12h16.58.275,t1_Paradigm,2021.1.4,60.01251387114412,
L,left,Distractor,0,6,6,6,2747.1266503656516,2749.128191177442,left,1,1,3.0,0.6800154498196207,D29N05,2023-01-30_12h16.58.275,t1_Paradigm,2021.1.4,60.01251387114412,
T,right,Target,0,7,7,7,2750.6267366614193,2752.628438194981,right,1,1,3.0,0.7957623986294493,D29N05,2023-01-30_12h16.58.275,t1_Paradigm,2021.1.4,60.01251387114412,
Z,left,Lure,0,8,8,8,2754.1266862954944,2756.1287496936857,right,0,1,3.0,1.1832764017162845,D29N05,2023-01-30_12h16.58.275,t1_Paradigm,2021.1.4,60.01251387114412,
J,left,Distractor,0,9,9,9,2757.6267190172803,2759.627441142511,left,1,1,3.0,0.48452483455184847,D29N05,2023-01-30_12h16.58.275,t1_Paradigm,2021.1.4,60.01251387114412,
D,left,Pretarget,0,10,10,10,2761.1266593481414,2763.12836024008,left,1,1,3.0,0.5035955482744612,D29N05,2023-01-30_12h16.58.275,t1_Paradigm,2021.1.4,60.01251387114412,
H,left,Distractor,0,11,11,11,2764.6265040799626,2766.628276831587,left,1,1,3.0,0.587836537277326,D29N05,2023-01-30_12h16.58.275,t1_Paradigm,2021.1.4,60.01251387114412,
D,right,Target,0,12,12,12,2768.1265852428623,2770.1269843205228,left,0,1,3.0,0.609046679281164,D29N05,2023-01-30_12h16.58.275,t1_Paradigm,2021.1.4,60.01251387114412,
S,left,Distractor,0,13,13,13,2771.626623097516,2773.628572290181,left,1,1,3.0,0.5796515962574631,D29N05,2023-01-30_12h16.58.275,t1_Paradigm,2021.1.4,60.01251387114412,
R,left,Pretarget,0,14,14,14,2775.1266429872485,2777.1283002501004,left,1,1,3.0,0.5195939417462796,D29N05,2023-01-30_12h16.58.275,t1_Paradigm,2021.1.4,60.01251387114412,
Z,left,Distractor,0,15,15,15,2778.626712922065,2780.6279091925244,left,1,1,3.0,1.404148546687793,D29N05,2023-01-30_12h16.58.275,t1_Paradigm,2021.1.4,60.01251387114412,
R,right,Target,0,16,16,16,2782.126605453377,2784.1285280195298,right,1,1,3.0,0.8479571973439306,D29N05,2023-01-30_12h16.58.275,t1_Paradigm,2021.1.4,60.01251387114412,
T,left,Distractor,0,17,17,17,2785.626726074959,2787.6288007011754,left,1,1,3.0,0.5954305611085147,D29N05,2023-01-30_12h16.58.275,t1_Paradigm,2021.1.4,60.01251387114412,
M,left,Distractor,0,18,18,18,2789.126816541073,2791.1283265558886,left,1,1,3.0,0.4876292350818403,D29N05,2023-01-30_12h16.58.275,t1_Paradigm,2021.1.4,60.01251387114412,
R,left,Lure,0,19,19,19,2792.6267058644444,2794.6274353680783,right,0,1,3.0,0.5406597227556631,D29N05,2023-01-30_12h16.58.275,t1_Paradigm,2021.1.4,60.01251387114412,
J,left,Distractor,0,20,20,20,2796.1267533430946,2798.128345803998,left,1,1,3.0,0.5916457396815531,D29N05,2023-01-30_12h16.58.275,t1_Paradigm,2021.1.4,60.01251387114412,
K,left,Distractor,0,21,21,21,2799.6265027967747,2801.6287974931765,left,1,1,3.0,0.5632801101892255,D29N05,2023-01-30_12h16.58.275,t1_Paradigm,2021.1.4,60.01251387114412,
Z,left,Distractor,0,22,22,22,2803.1267151676584,2805.1288440094213,left,1,1,3.0,0.5831707936595194,D29N05,2023-01-30_12h16.58.275,t1_Paradigm,2021.1.4,60.01251387114412,
W,left,Pretarget,0,23,23,23,2806.626633363194,2808.628707347787,left,1,1,3.0,0.5714134020381607,D29N05,2023-01-30_12h16.58.275,t1_Paradigm,2021.1.4,60.01251387114412,
Q,left,Distractor,0,24,24,24,2810.1263051827555,2812.128691628517,left,1,1,3.0,0.575559446529951,D29N05,2023-01-30_12h16.58.275,t1_Paradigm,2021.1.4,60.01251387114412,
W,right,Target,0,25,25,25,2813.626653894491,2815.6275056236773,left,0,1,3.0,1.0286007773829624,D29N05,2023-01-30_12h16.58.275,t1_Paradigm,2021.1.4,60.01251387114412,
D,left,Pretarget,0,26,26,26,2817.1267584759626,2819.128730445518,left,1,1,3.0,0.6311653323937207,D29N05,2023-01-30_12h16.58.275,t1_Paradigm,2021.1.4,60.01251387114412,
W,right,Target,0,27,27,27,2820.6267684207996,2822.628359598515,left,0,1,3.0,1.0035676385159604,D29N05,2023-01-30_12h16.58.275,t1_Paradigm,2021.1.4,60.01251387114412,
D,right,Target,0,28,28,28,2824.1266487616813,2826.1265204409137,left,0,1,3.0,0.6735836914158426,D29N05,2023-01-30_12h16.58.275,t1_Paradigm,2021.1.4,60.01251387114412,
L,left,Pretarget,0,29,29,29,2827.6264947767486,2829.626205734152,left,1,1,3.0,0.6457473851041868,D29N05,2023-01-30_12h16.58.275,t1_Paradigm,2021.1.4,60.01251387114412,
P,left,Distractor,0,30,30,30,2831.126654536114,2833.1291006510146,left,1,1,3.0,0.47078520769719034,D29N05,2023-01-30_12h16.58.275,t1_Paradigm,2021.1.4,60.01251387114412,
L,right,Target,0,31,31,31,2834.6257559698424,2836.6287051021936,left,0,1,3.0,0.5074438885203563,D29N05,2023-01-30_12h16.58.275,t1_Paradigm,2021.1.4,60.01251387114412,
R,left,Distractor,0,32,32,32,2838.1266372128157,2840.1287477688747,left,1,1,3.0,0.655385238234885,D29N05,2023-01-30_12h16.58.275,t1_Paradigm,2021.1.4,60.01251387114412,
V,left,Distractor,0,33,33,33,2841.626863698999,2843.628797172336,left,1,1,3.0,0.6273112176568247,D29N05,2023-01-30_12h16.58.275,t1_Paradigm,2021.1.4,60.01251387114412,
L,left,Lure,0,34,34,34,2845.126628871949,2847.1288709567743,right,0,1,3.0,0.5511223577195778,D29N05,2023-01-30_12h16.58.275,t1_Paradigm,2021.1.4,60.01251387114412,
H,left,Distractor,0,35,35,35,2848.6264200299047,2850.6286236185115,left,1,1,3.0,0.58745446219109,D29N05,2023-01-30_12h16.58.275,t1_Paradigm,2021.1.4,60.01251387114412,
K,left,Pretarget,0,36,36,36,2852.1266247015446,2854.1286688515684,left,1,1,3.0,0.5913172384607606,D29N05,2023-01-30_12h16.58.275,t1_Paradigm,2021.1.4,60.01251387114412,
F,left,Distractor,0,37,37,37,2855.626617002301,2857.627149212698,left,1,1,3.0,0.5650137239135802,D29N05,2023-01-30_12h16.58.275,t1_Paradigm,2021.1.4,60.01251387114412,
K,right,Target,0,38,38,38,2859.126333734137,2861.1276179043925,left,0,1,3.0,0.6805758908158168,D29N05,2023-01-30_12h16.58.275,t1_Paradigm,2021.1.4,60.01251387114412,
S,left,Pretarget,0,39,39,39,2862.62680018018,2864.6287227462744,left,1,1,3.0,0.5393393019912764,D29N05,2023-01-30_12h16.58.275,t1_Paradigm,2021.1.4,60.01251387114412,
W,left,Distractor,0,40,40,40,2866.126234606374,2868.1285851222347,left,1,1,3.0,0.591464165772777,D29N05,2023-01-30_12h16.58.275,t1_Paradigm,2021.1.4,60.01251387114412,
S,right,Target,0,41,41,41,2869.626432220335,2871.6287836986594,left,0,1,3.0,0.7712572998134419,D29N05,2023-01-30_12h16.58.275,t1_Paradigm,2021.1.4,60.01251387114412,
F,left,Pretarget,0,42,42,42,2873.126655177679,2875.126238455996,left,1,1,3.0,0.5056464351946488,D29N05,2023-01-30_12h16.58.275,t1_Paradigm,2021.1.4,60.01251387114412,
Y,left,Distractor,0,43,43,43,2876.6266102654627,2878.626685974712,left,1,1,3.0,0.5893693289835937,D29N05,2023-01-30_12h16.58.275,t1_Paradigm,2021.1.4,60.01251387114412,
F,right,Target,0,44,44,44,2880.126647799276,2882.126150556258,left,0,1,3.0,0.4820703788427636,D29N05,2023-01-30_12h16.58.275,t1_Paradigm,2021.1.4,60.01251387114412,
F,left,Lure,0,45,45,45,2883.62680018018,2885.6266911075218,right,0,1,3.0,1.0775035063852556,D29N05,2023-01-30_12h16.58.275,t1_Paradigm,2021.1.4,60.01251387114412,
B,left,Pretarget,0,46,46,46,2887.126667047385,2889.128539889178,left,1,1,3.0,0.8075874795322306,D29N05,2023-01-30_12h16.58.275,t1_Paradigm,2021.1.4,60.01251387114412,
W,left,Distractor,0,47,47,47,2890.6267058644444,2892.6287128014374,left,1,1,3.0,0.5393697781255469,D29N05,2023-01-30_12h16.58.275,t1_Paradigm,2021.1.4,60.01251387114412,
B,right,Target,0,48,48,48,2894.126862415753,2896.1288651823415,None,0,1,3.0,,D29N05,2023-01-30_12h16.58.275,t1_Paradigm,2021.1.4,60.01251387114412,
R,left,Pretarget,0,49,49,49,2897.6266882203054,2899.6290605507675,left,1,1,3.0,0.6112002227455378,D29N05,2023-01-30_12h16.58.275,t1_Paradigm,2021.1.4,60.01251387114412,
N,left,Distractor,0,50,50,50,2901.126673463441,2903.12789443566,left,1,1,3.0,0.5840908536920324,D29N05,2023-01-30_12h16.58.275,t1_Paradigm,2021.1.4,60.01251387114412,
R,right,Target,0,51,51,51,2904.6267690624227,2906.6282569418545,left,0,1,3.0,0.6676629706053063,D29N05,2023-01-30_12h16.58.275,t1_Paradigm,2021.1.4,60.01251387114412,
V,left,Distractor,0,52,52,52,2908.1266195686767,2910.1289607813233,left,1,1,3.0,0.5111084092059173,D29N05,2023-01-30_12h16.58.275,t1_Paradigm,2021.1.4,60.01251387114412,
G,left,Distractor,0,53,53,53,2911.626586205268,2913.62827747321,left,1,1,3.0,0.5798517766525038,D29N05,2023-01-30_12h16.58.275,t1_Paradigm,2021.1.4,60.01251387114412,
H,left,Distractor,0,54,54,54,2915.1266468368703,2917.128941533214,left,1,1,3.0,0.6470623523346148,D29N05,2023-01-30_12h16.58.275,t1_Paradigm,2021.1.4,60.01251387114412,
V,left,Lure,0,55,55,55,2918.626449222851,2920.6286874580546,right,0,1,3.0,0.5233951240661554,D29N05,2023-01-30_12h16.58.275,t1_Paradigm,2021.1.4,60.01251387114412,
L,left,Distractor,0,56,56,56,2922.1267459646333,2924.1282360897167,left,1,1,3.0,0.5119110557134263,D29N05,2023-01-30_12h16.58.275,t1_Paradigm,2021.1.4,60.01251387114412,
K,left,Distractor,0,57,57,57,2925.6266757090343,2927.626943899493,left,1,1,3.0,0.4370358798187226,D29N05,2023-01-30_12h16.58.275,t1_Paradigm,2021.1.4,60.01251387114412,
D,left,Pretarget,0,58,58,58,2929.126664480951,2931.1291061046068,left,1,1,3.0,0.5508753402391449,D29N05,2023-01-30_12h16.58.275,t1_Paradigm,2021.1.4,60.01251387114412,
T,left,Pretarget,0,59,59,59,2932.6264703957713,2934.6257059247,left,1,1,3.0,0.8462627214030363,D29N05,2023-01-30_12h16.58.275,t1_Paradigm,2021.1.4,60.01251387114412,
D,right,Target,0,60,60,60,2936.1264145762543,2938.1285710069933,left,0,1,3.0,1.0555372342350893,D29N05,2023-01-30_12h16.58.275,t1_Paradigm,2021.1.4,60.01251387114412,
T,right,Target,0,61,61,61,2939.6266619145754,2941.6287057438167,left,0,1,3.0,0.75537760311272,D29N05,2023-01-30_12h16.58.275,t1_Paradigm,2021.1.4,60.01251387114412,
T,left,Lure,0,62,62,62,2943.126615719055,2945.1268319395604,right,0,1,3.0,0.6329987155040726,D29N05,2023-01-30_12h16.58.275,t1_Paradigm,2021.1.4,60.01251387114412,
F,left,Distractor,0,63,63,63,2946.626680841844,2948.6282922300743,left,1,1,3.0,0.6356937726959586,D29N05,2023-01-30_12h16.58.275,t1_Paradigm,2021.1.4,60.01251387114412,
