Letter,CorrAnswer,Stimulus,nback_run.thisRepN,nback_run.thisTrialN,nback_run.thisN,nback_run.thisIndex,fixcross.started,nback_trial.started,trial_resp.keys,trial_resp.corr,currentlevel,trial_resp.rt,Participant,date,expName,psychopyVersion,frameRate,
H,left,Distractor,0,0,0,0,239.10833502822788,241.05027970776428,None,0,1,,D30N04,2022-11-02_14h41.43.230,t1_Paradigm,2021.1.4,59.88845297482621,
Q,left,Pretarget,0,1,1,1,242.54892720410135,244.55277747655055,left,1,1,0.6315989890717901,D30N04,2022-11-02_14h41.43.230,t1_Paradigm,2021.1.4,59.88845297482621,
Q,right,Target,0,2,2,2,246.0493490594672,248.04928233253304,left,0,1,0.5432281464454718,D30N04,2022-11-02_14h41.43.230,t1_Paradigm,2021.1.4,59.88845297482621,
T,left,Distractor,0,3,3,3,249.54923838260584,251.55126328842016,left,1,1,0.6733026817091741,D30N04,2022-11-02_14h41.43.230,t1_Paradigm,2021.1.4,59.88845297482621,
Q,left,Lure,0,4,4,4,253.04924159060465,255.05072562332498,left,1,1,0.741826431651134,D30N04,2022-11-02_14h41.43.230,t1_Paradigm,2021.1.4,59.88845297482621,
L,left,Distractor,0,5,5,5,256.5494584531407,258.55123666179134,left,1,1,0.5052354979561642,D30N04,2022-11-02_14h41.43.230,t1_Paradigm,2021.1.4,59.88845297482621,
V,left,Pretarget,0,6,6,6,260.0495129895862,262.0515808829805,left,1,1,0.4450208553462289,D30N04,2022-11-02_14h41.43.230,t1_Paradigm,2021.1.4,59.88845297482621,
V,right,Target,0,7,7,7,263.54931922483956,265.5493692700402,right,1,1,0.4832816948182881,D30N04,2022-11-02_14h41.43.230,t1_Paradigm,2021.1.4,59.88845297482621,
K,left,Distractor,0,8,8,8,267.0490009887144,269.0513005015091,left,1,1,0.48517827957402915,D30N04,2022-11-02_14h41.43.230,t1_Paradigm,2021.1.4,59.88845297482621,
G,left,Pretarget,0,9,9,9,270.54939076380106,272.551143629069,left,1,1,0.6815123403212056,D30N04,2022-11-02_14h41.43.230,t1_Paradigm,2021.1.4,59.88845297482621,
G,right,Target,0,10,10,10,274.04944048821926,276.04952806734946,right,1,1,0.38279478065669537,D30N04,2022-11-02_14h41.43.230,t1_Paradigm,2021.1.4,59.88845297482621,
G,right,Target,0,11,11,11,277.54928842780646,279.5491517658811,right,1,1,0.5474816677742638,D30N04,2022-11-02_14h41.43.230,t1_Paradigm,2021.1.4,59.88845297482621,
P,left,Pretarget,0,12,12,12,281.0495078567765,283.0513736444991,left,1,1,0.4211508984444663,D30N04,2022-11-02_14h41.43.230,t1_Paradigm,2021.1.4,59.88845297482621,
P,right,Target,0,13,13,13,284.54931024234975,286.54954410745995,left,0,1,0.5390288407797925,D30N04,2022-11-02_14h41.43.230,t1_Paradigm,2021.1.4,59.88845297482621,
G,left,Lure,0,14,14,14,288.0494238064857,290.05123826581985,left,1,1,0.605371774872765,D30N04,2022-11-02_14h41.43.230,t1_Paradigm,2021.1.4,59.88845297482621,
Y,left,Distractor,0,15,15,15,291.5493667036062,293.55038749740925,left,1,1,0.5302680433378555,D30N04,2022-11-02_14h41.43.230,t1_Paradigm,2021.1.4,59.88845297482621,
B,left,Distractor,0,16,16,16,295.0494558867649,297.05101594963344,left,1,1,0.4695327382069081,D30N04,2022-11-02_14h41.43.230,t1_Paradigm,2021.1.4,59.88845297482621,
T,left,Pretarget,0,17,17,17,298.549342964252,300.55159179028124,left,1,1,0.5369359248434193,D30N04,2022-11-02_14h41.43.230,t1_Paradigm,2021.1.4,59.88845297482621,
T,right,Target,0,18,18,18,302.0491148736328,304.0495258216979,right,1,1,0.4950740765198134,D30N04,2022-11-02_14h41.43.230,t1_Paradigm,2021.1.4,59.88845297482621,
S,left,Distractor,0,19,19,19,305.5493362273555,307.5488020910998,left,1,1,0.41969445475842804,D30N04,2022-11-02_14h41.43.230,t1_Paradigm,2021.1.4,59.88845297482621,
T,left,Lure,0,20,20,20,309.04925185628235,311.0508767213323,left,1,1,0.3896272337879054,D30N04,2022-11-02_14h41.43.230,t1_Paradigm,2021.1.4,59.88845297482621,
J,left,Distractor,0,21,21,21,312.5494574907352,314.5511102656019,left,1,1,0.5534479539492168,D30N04,2022-11-02_14h41.43.230,t1_Paradigm,2021.1.4,59.88845297482621,
P,left,Distractor,0,22,22,22,316.0493991046678,318.05078048055293,left,1,1,0.42988827731460333,D30N04,2022-11-02_14h41.43.230,t1_Paradigm,2021.1.4,59.88845297482621,
F,left,Distractor,0,23,23,23,319.5494979118812,321.5486647876096,left,1,1,0.6119094105088152,D30N04,2022-11-02_14h41.43.230,t1_Paradigm,2021.1.4,59.88845297482621,
L,left,Distractor,0,24,24,24,323.0494706436875,325.0655762159149,left,1,1,0.4709718585363589,D30N04,2022-11-02_14h41.43.230,t1_Paradigm,2021.1.4,59.88845297482621,
W,left,Pretarget,0,25,25,25,326.54941097437404,328.5511660852353,left,1,1,0.47347796824760735,D30N04,2022-11-02_14h41.43.230,t1_Paradigm,2021.1.4,59.88845297482621,
W,right,Target,0,26,26,26,330.04932050808566,332.04952389688697,right,1,1,0.39923751645255834,D30N04,2022-11-02_14h41.43.230,t1_Paradigm,2021.1.4,59.88845297482621,
V,left,Distractor,0,27,27,27,333.54860287270276,335.55119014543016,left,1,1,0.449379920726642,D30N04,2022-11-02_14h41.43.230,t1_Paradigm,2021.1.4,59.88845297482621,
W,left,Lure,0,28,28,28,337.04944882908603,339.0507169616758,right,0,1,0.5018535972340032,D30N04,2022-11-02_14h41.43.230,t1_Paradigm,2021.1.4,59.88845297482621,
R,left,Pretarget,0,29,29,29,340.5493490594672,342.5519276705454,left,1,1,0.4887144863605499,D30N04,2022-11-02_14h41.43.230,t1_Paradigm,2021.1.4,59.88845297482621,
R,right,Target,0,30,30,30,344.04944594186964,346.04960698477225,right,1,1,0.44712147064274177,D30N04,2022-11-02_14h41.43.230,t1_Paradigm,2021.1.4,59.88845297482621,
G,left,Distractor,0,31,31,31,347.5493869141792,349.55152153450763,left,1,1,0.5131269204430282,D30N04,2022-11-02_14h41.43.230,t1_Paradigm,2021.1.4,59.88845297482621,
R,left,Lure,0,32,32,32,351.0494019918842,353.05053378338926,left,1,1,0.47008259379072115,D30N04,2022-11-02_14h41.43.230,t1_Paradigm,2021.1.4,59.88845297482621,
S,left,Distractor,0,33,33,33,354.5494443378411,356.55150870239595,left,1,1,0.44122576096560806,D30N04,2022-11-02_14h41.43.230,t1_Paradigm,2021.1.4,59.88845297482621,
R,left,Lure,0,34,34,34,358.0492877861834,360.05118276696885,left,1,1,0.5094232546980493,D30N04,2022-11-02_14h41.43.230,t1_Paradigm,2021.1.4,59.88845297482621,
P,left,Pretarget,0,35,35,35,361.5494700020645,363.55155842681415,left,1,1,0.5133979985257611,D30N04,2022-11-02_14h41.43.230,t1_Paradigm,2021.1.4,59.88845297482621,
P,right,Target,0,36,36,36,365.0493769692839,367.04948860860895,right,1,1,0.6313445926061831,D30N04,2022-11-02_14h41.43.230,t1_Paradigm,2021.1.4,59.88845297482621,
Y,left,Pretarget,0,37,37,37,368.54960987198865,370.55127355409786,left,1,1,0.36157850263407454,D30N04,2022-11-02_14h41.43.230,t1_Paradigm,2021.1.4,59.88845297482621,
Y,right,Target,0,38,38,38,372.0495726588997,374.0494751348742,left,0,1,0.5273096021264791,D30N04,2022-11-02_14h41.43.230,t1_Paradigm,2021.1.4,59.88845297482621,
J,left,Distractor,0,39,39,39,375.5495126688038,377.5517258857144,left,1,1,0.48109735012985766,D30N04,2022-11-02_14h41.43.230,t1_Paradigm,2021.1.4,59.88845297482621,
Y,left,Lure,0,40,40,40,379.0492893902119,381.05185805639485,left,1,1,0.9971082856645808,D30N04,2022-11-02_14h41.43.230,t1_Paradigm,2021.1.4,59.88845297482621,
T,left,Distractor,0,41,41,41,382.5495084983413,384.5508956486592,left,1,1,0.6982521392637864,D30N04,2022-11-02_14h41.43.230,t1_Paradigm,2021.1.4,59.88845297482621,
V,left,Distractor,0,42,42,42,386.04948828782653,388.05074102187064,left,1,1,0.574022947694175,D30N04,2022-11-02_14h41.43.230,t1_Paradigm,2021.1.4,59.88845297482621,
N,left,Pretarget,0,43,43,43,389.5492553851218,391.55151030642446,left,1,1,0.5773073243326508,D30N04,2022-11-02_14h41.43.230,t1_Paradigm,2021.1.4,59.88845297482621,
N,right,Target,0,44,44,44,393.0495078567765,395.0494831549586,right,1,1,0.5671927401563153,D30N04,2022-11-02_14h41.43.230,t1_Paradigm,2021.1.4,59.88845297482621,
N,right,Target,0,45,45,45,396.54960088949883,398.54948828782653,right,1,1,0.5876256182673387,D30N04,2022-11-02_14h41.43.230,t1_Paradigm,2021.1.4,59.88845297482621,
X,left,Distractor,0,46,46,46,400.04947802214883,402.05137139890576,left,1,1,0.5093311843811534,D30N04,2022-11-02_14h41.43.230,t1_Paradigm,2021.1.4,59.88845297482621,
Z,left,Distractor,0,47,47,47,403.5496223832597,405.5515930734691,left,1,1,0.4650857729720883,D30N04,2022-11-02_14h41.43.230,t1_Paradigm,2021.1.4,59.88845297482621,
H,left,Pretarget,0,48,48,48,407.0495255009155,409.05155842681415,left,1,1,0.5974319112137891,D30N04,2022-11-02_14h41.43.230,t1_Paradigm,2021.1.4,59.88845297482621,
H,right,Target,0,49,49,49,410.54951940564206,412.5494963078527,right,1,1,0.5073065993492492,D30N04,2022-11-02_14h41.43.230,t1_Paradigm,2021.1.4,59.88845297482621,
K,left,Distractor,0,50,50,50,414.04961436323356,416.05136851168936,left,1,1,0.42952031671302393,D30N04,2022-11-02_14h41.43.230,t1_Paradigm,2021.1.4,59.88845297482621,
V,left,Pretarget,0,51,51,51,417.549489250232,419.551924783329,left,1,1,0.4807155950111337,D30N04,2022-11-02_14h41.43.230,t1_Paradigm,2021.1.4,59.88845297482621,
V,right,Target,0,52,52,52,421.0496467642952,423.04968622297747,right,1,1,0.4710565503919497,D30N04,2022-11-02_14h41.43.230,t1_Paradigm,2021.1.4,59.88845297482621,
R,left,Distractor,0,53,53,53,424.5495508442982,426.5515417450806,left,1,1,0.3932215058594011,D30N04,2022-11-02_14h41.43.230,t1_Paradigm,2021.1.4,59.88845297482621,
V,left,Lure,0,54,54,54,428.0495912654442,430.0518176352489,left,1,1,0.4929429850890301,D30N04,2022-11-02_14h41.43.230,t1_Paradigm,2021.1.4,59.88845297482621,
Y,left,Distractor,0,55,55,55,431.5495771500864,433.55035092594335,left,1,1,0.5625866567716002,D30N04,2022-11-02_14h41.43.230,t1_Paradigm,2021.1.4,59.88845297482621,
Q,left,Distractor,0,56,56,56,435.0493214704911,437.0500708652544,left,1,1,0.6148838919471018,D30N04,2022-11-02_14h41.43.230,t1_Paradigm,2021.1.4,59.88845297482621,
Z,left,Pretarget,0,57,57,57,438.54942733532516,440.55136979487725,left,1,1,0.4734439631574787,D30N04,2022-11-02_14h41.43.230,t1_Paradigm,2021.1.4,59.88845297482621,
Z,right,Target,0,58,58,58,442.0497798973229,444.04963746102294,right,1,1,0.6072093319962732,D30N04,2022-11-02_14h41.43.230,t1_Paradigm,2021.1.4,59.88845297482621,
B,left,Distractor,0,59,59,59,445.54958677419927,447.55037177808117,left,1,1,0.6745239770971239,D30N04,2022-11-02_14h41.43.230,t1_Paradigm,2021.1.4,59.88845297482621,
S,left,Pretarget,0,60,60,60,449.04961404239293,451.0510435386677,left,1,1,0.6139503564336337,D30N04,2022-11-02_14h41.43.230,t1_Paradigm,2021.1.4,59.88845297482621,
S,right,Target,0,61,61,61,452.5496281577507,454.5497349849902,right,1,1,0.4110574871301651,D30N04,2022-11-02_14h41.43.230,t1_Paradigm,2021.1.4,59.88845297482621,
T,left,Distractor,0,62,62,62,456.0497301729629,458.05154527386185,left,1,1,0.5893175310338847,D30N04,2022-11-02_14h41.43.230,t1_Paradigm,2021.1.4,59.88845297482621,
D,left,Distractor,0,63,63,63,459.5495890197926,461.56226585421246,left,1,1,0.6625865926034749,D30N04,2022-11-02_14h41.43.230,t1_Paradigm,2021.1.4,59.88845297482621,
R,left,Distractor,0,0,0,0,478.59844725136645,480.60143328172853,left,1,1,0.4394453067216091,D30N04,2022-11-02_14h41.43.230,t1_Paradigm,2021.1.4,59.88845297482621,
V,left,Distractor,0,1,1,1,482.099738802528,484.10137361241505,left,1,1,0.47570209245895967,D30N04,2022-11-02_14h41.43.230,t1_Paradigm,2021.1.4,59.88845297482621,
N,left,Pretarget,0,2,2,2,485.59973206568975,487.59875650506,left,1,1,0.46628653700463474,D30N04,2022-11-02_14h41.43.230,t1_Paradigm,2021.1.4,59.88845297482621,
N,right,Target,0,3,3,3,489.09968105808366,491.09971891279565,right,1,1,0.4051428501843475,D30N04,2022-11-02_14h41.43.230,t1_Paradigm,2021.1.4,59.88845297482621,
S,left,Distractor,0,4,4,4,492.59985621628584,494.5998292688746,left,1,1,0.5369959148811176,D30N04,2022-11-02_14h41.43.230,t1_Paradigm,2021.1.4,59.88845297482621,
N,left,Lure,0,5,5,5,496.09959187492495,498.10042949044146,left,1,1,0.3806640100083314,D30N04,2022-11-02_14h41.43.230,t1_Paradigm,2021.1.4,59.88845297482621,
Z,left,Distractor,0,6,6,6,499.59970126865664,501.60142044961685,left,1,1,0.49560372153064236,D30N04,2022-11-02_14h41.43.230,t1_Paradigm,2021.1.4,59.88845297482621,
L,left,Pretarget,0,7,7,7,503.0997157047386,505.1010646795621,left,1,1,0.5640280226944014,D30N04,2022-11-02_14h41.43.230,t1_Paradigm,2021.1.4,59.88845297482621,
L,right,Target,0,8,8,8,506.59976831637323,508.5997712035896,right,1,1,0.37741107190959156,D30N04,2022-11-02_14h41.43.230,t1_Paradigm,2021.1.4,59.88845297482621,
H,left,Distractor,0,9,9,9,510.0996964565711,512.1000871941214,left,1,1,0.4929089799989015,D30N04,2022-11-02_14h41.43.230,t1_Paradigm,2021.1.4,59.88845297482621,
L,left,Lure,0,10,10,10,513.5995610778918,515.601882405288,left,1,1,0.47915456973714754,D30N04,2022-11-02_14h41.43.230,t1_Paradigm,2021.1.4,59.88845297482621,
X,left,Pretarget,0,11,11,11,517.0997824316728,519.1013216424035,left,1,1,0.5314980004332028,D30N04,2022-11-02_14h41.43.230,t1_Paradigm,2021.1.4,59.88845297482621,
X,right,Target,0,12,12,12,520.5998514042585,522.59989952459,left,0,1,0.48904972505988553,D30N04,2022-11-02_14h41.43.230,t1_Paradigm,2021.1.4,59.88845297482621,
X,right,Target,0,13,13,13,524.0998077750555,526.0997465017717,right,1,1,0.5412507193977945,D30N04,2022-11-02_14h41.43.230,t1_Paradigm,2021.1.4,59.88845297482621,
R,left,Distractor,0,14,14,14,527.5995424713474,529.6003502522362,left,1,1,0.46474989264970645,D30N04,2022-11-02_14h41.43.230,t1_Paradigm,2021.1.4,59.88845297482621,
T,left,Distractor,0,15,15,15,531.0997923765681,533.1018814428826,left,1,1,0.4513506108778529,D30N04,2022-11-02_14h41.43.230,t1_Paradigm,2021.1.4,59.88845297482621,
V,left,Pretarget,0,16,16,16,534.5996714339708,536.6017232872546,left,1,1,0.4872991053853184,D30N04,2022-11-02_14h41.43.230,t1_Paradigm,2021.1.4,59.88845297482621,
V,right,Target,0,17,17,17,538.0996614891337,540.0995735892211,right,1,1,0.47756178496638313,D30N04,2022-11-02_14h41.43.230,t1_Paradigm,2021.1.4,59.88845297482621,
N,left,Distractor,0,18,18,18,541.599688436545,543.6016995478421,left,1,1,0.4312917885836214,D30N04,2022-11-02_14h41.43.230,t1_Paradigm,2021.1.4,59.88845297482621,
B,left,Distractor,0,19,19,19,545.0998039254337,547.1006649595802,left,1,1,0.4682504903175868,D30N04,2022-11-02_14h41.43.230,t1_Paradigm,2021.1.4,59.88845297482621,
V,left,Lure,0,20,20,20,548.5995373385376,550.5998879757244,left,1,1,0.5210638968273997,D30N04,2022-11-02_14h41.43.230,t1_Paradigm,2021.1.4,59.88845297482621,
P,left,Distractor,0,21,21,21,552.0997346321237,554.101610043901,left,1,1,0.4114260892965831,D30N04,2022-11-02_14h41.43.230,t1_Paradigm,2021.1.4,59.88845297482621,
K,left,Pretarget,0,22,22,22,555.5998780308291,557.6017710868036,left,1,1,0.47940062533598393,D30N04,2022-11-02_14h41.43.230,t1_Paradigm,2021.1.4,59.88845297482621,
K,right,Target,0,23,23,23,559.0998616699362,561.0997981510009,right,1,1,0.6932716793380678,D30N04,2022-11-02_14h41.43.230,t1_Paradigm,2021.1.4,59.88845297482621,
J,left,Pretarget,0,24,24,24,562.5999338505208,564.6011702236137,left,1,1,0.47185727360192686,D30N04,2022-11-02_14h41.43.230,t1_Paradigm,2021.1.4,59.88845297482621,
J,right,Target,0,25,25,25,566.0998812388862,568.0998392137117,right,1,1,0.3972552773193456,D30N04,2022-11-02_14h41.43.230,t1_Paradigm,2021.1.4,59.88845297482621,
H,left,Distractor,0,26,26,26,569.599955665064,571.6005157863838,left,1,1,0.4164065492223017,D30N04,2022-11-02_14h41.43.230,t1_Paradigm,2021.1.4,59.88845297482621,
J,left,Lure,0,27,27,27,573.0996085566585,575.1004323777161,left,1,1,0.5005649333470501,D30N04,2022-11-02_14h41.43.230,t1_Paradigm,2021.1.4,59.88845297482621,
V,left,Distractor,0,28,28,28,576.5997567674494,578.6013902941486,left,1,1,0.39156905177515,D30N04,2022-11-02_14h41.43.230,t1_Paradigm,2021.1.4,59.88845297482621,
Z,left,Pretarget,0,29,29,29,580.0998658403405,582.1006344833295,left,1,1,0.5405083822552115,D30N04,2022-11-02_14h41.43.230,t1_Paradigm,2021.1.4,59.88845297482621,
Z,right,Target,0,30,30,30,583.5997789028334,585.5998584618792,right,1,1,0.5611719174776226,D30N04,2022-11-02_14h41.43.230,t1_Paradigm,2021.1.4,59.88845297482621,
T,left,Distractor,0,31,31,31,587.099902091024,589.1003544226405,left,1,1,0.4206478800624609,D30N04,2022-11-02_14h41.43.230,t1_Paradigm,2021.1.4,59.88845297482621,
Z,left,Lure,0,32,32,32,590.5998812388862,592.6018519290374,left,1,1,0.5511712181614712,D30N04,2022-11-02_14h41.43.230,t1_Paradigm,2021.1.4,59.88845297482621,
F,left,Distractor,0,33,33,33,594.0997789028334,596.101051526668,left,1,1,0.4440090440912172,D30N04,2022-11-02_14h41.43.230,t1_Paradigm,2021.1.4,59.88845297482621,
Y,left,Pretarget,0,34,34,34,597.6000474145985,599.600939887343,left,1,1,0.5921704283100553,D30N04,2022-11-02_14h41.43.230,t1_Paradigm,2021.1.4,59.88845297482621,
Y,right,Target,0,35,35,35,601.0996460905881,603.0998780308291,right,1,1,0.42118297872366384,D30N04,2022-11-02_14h41.43.230,t1_Paradigm,2021.1.4,59.88845297482621,
Y,right,Target,0,36,36,36,604.5998514042585,606.5997246872284,right,1,1,0.4734070709091611,D30N04,2022-11-02_14h41.43.230,t1_Paradigm,2021.1.4,59.88845297482621,
W,left,Distractor,0,37,37,37,608.0996390329092,610.1123825942632,left,1,1,0.5287310782587156,D30N04,2022-11-02_14h41.43.230,t1_Paradigm,2021.1.4,59.88845297482621,
Q,left,Distractor,0,38,38,38,611.5997840357013,613.6006145935389,left,1,1,0.5766676440834999,D30N04,2022-11-02_14h41.43.230,t1_Paradigm,2021.1.4,59.88845297482621,
P,left,Pretarget,0,39,39,39,615.0995803260594,617.1004821020761,right,0,1,0.6287332596839406,D30N04,2022-11-02_14h41.43.230,t1_Paradigm,2021.1.4,59.88845297482621,
P,right,Target,0,40,40,40,618.5999633643078,620.5998552538804,right,1,1,0.4892928934423253,D30N04,2022-11-02_14h41.43.230,t1_Paradigm,2021.1.4,59.88845297482621,
J,left,Distractor,0,41,41,41,622.0998619907186,624.1017223248491,left,1,1,0.5074599430081435,D30N04,2022-11-02_14h41.43.230,t1_Paradigm,2021.1.4,59.88845297482621,
P,left,Lure,0,42,42,42,625.5999251888134,627.6003951645689,left,1,1,0.9128273549722508,D30N04,2022-11-02_14h41.43.230,t1_Paradigm,2021.1.4,59.88845297482621,
L,left,Distractor,0,43,43,43,629.099852366664,631.1005453001708,left,1,1,0.5324341023806483,D30N04,2022-11-02_14h41.43.230,t1_Paradigm,2021.1.4,59.88845297482621,
Z,left,Distractor,0,44,44,44,632.5999325672747,634.6006421825732,left,1,1,0.6004458513925783,D30N04,2022-11-02_14h41.43.230,t1_Paradigm,2021.1.4,59.88845297482621,
F,left,Pretarget,0,45,45,45,636.0999274344649,638.1018063750817,left,1,1,0.5713333389139734,D30N04,2022-11-02_14h41.43.230,t1_Paradigm,2021.1.4,59.88845297482621,
F,right,Target,0,46,46,46,639.5998703315854,641.5998549330398,right,1,1,0.46539053542073816,D30N04,2022-11-02_14h41.43.230,t1_Paradigm,2021.1.4,59.88845297482621,
G,left,Pretarget,0,47,47,47,643.0998594242847,645.1011766396696,left,1,1,0.5641393412370235,D30N04,2022-11-02_14h41.43.230,t1_Paradigm,2021.1.4,59.88845297482621,
G,right,Target,0,48,48,48,646.5999097903259,648.5999492490082,right,1,1,0.45725819026120007,D30N04,2022-11-02_14h41.43.230,t1_Paradigm,2021.1.4,59.88845297482621,
V,left,Distractor,0,49,49,49,650.1001128583448,652.1126507851877,left,1,1,0.4165647049085237,D30N04,2022-11-02_14h41.43.230,t1_Paradigm,2021.1.4,59.88845297482621,
G,left,Lure,0,50,50,50,653.6000817404711,655.6003557058866,left,1,1,0.41670585807878524,D30N04,2022-11-02_14h41.43.230,t1_Paradigm,2021.1.4,59.88845297482621,
Q,left,Pretarget,0,51,51,51,657.0999572690926,659.1019921198022,left,1,1,0.4351240960531868,D30N04,2022-11-02_14h41.43.230,t1_Paradigm,2021.1.4,59.88845297482621,
Q,right,Target,0,52,52,52,660.6001074046944,662.6000419609481,right,1,1,0.40922666690312326,D30N04,2022-11-02_14h41.43.230,t1_Paradigm,2021.1.4,59.88845297482621,
Y,left,Distractor,0,53,53,53,664.0999704219867,666.1007474058424,left,1,1,0.4285168463247828,D30N04,2022-11-02_14h41.43.230,t1_Paradigm,2021.1.4,59.88845297482621,
V,left,Distractor,0,54,54,54,667.5999659307417,669.6019815332838,left,1,1,0.5592005856451578,D30N04,2022-11-02_14h41.43.230,t1_Paradigm,2021.1.4,59.88845297482621,
B,left,Distractor,0,55,55,55,671.1000576802762,673.100832739321,left,1,1,0.5487661611987278,D30N04,2022-11-02_14h41.43.230,t1_Paradigm,2021.1.4,59.88845297482621,
J,left,Pretarget,0,56,56,56,674.6000320160529,676.6008458922151,left,1,1,0.44044268189463764,D30N04,2022-11-02_14h41.43.230,t1_Paradigm,2021.1.4,59.88845297482621,
J,right,Target,0,57,57,57,678.1000432441942,680.1000746828504,right,1,1,0.4450872614979744,D30N04,2022-11-02_14h41.43.230,t1_Paradigm,2021.1.4,59.88845297482621,
H,left,Distractor,0,58,58,58,681.600049018627,683.6014037678833,left,1,1,0.495941205881536,D30N04,2022-11-02_14h41.43.230,t1_Paradigm,2021.1.4,59.88845297482621,
J,left,Lure,0,59,59,59,685.099973309203,687.1002103823121,left,1,1,0.7410962850553915,D30N04,2022-11-02_14h41.43.230,t1_Paradigm,2021.1.4,59.88845297482621,
D,left,Pretarget,0,60,60,60,688.6000592843047,690.6018342848984,left,1,1,0.3912585148937069,D30N04,2022-11-02_14h41.43.230,t1_Paradigm,2021.1.4,59.88845297482621,
D,right,Target,0,61,61,61,692.1001099711284,694.099900166213,right,1,1,0.5733406005310826,D30N04,2022-11-02_14h41.43.230,t1_Paradigm,2021.1.4,59.88845297482621,
R,left,Distractor,0,62,62,62,695.5999662515824,697.602031257702,left,1,1,0.36720345489447936,D30N04,2022-11-02_14h41.43.230,t1_Paradigm,2021.1.4,59.88845297482621,
F,left,Distractor,0,63,63,63,699.1000839861226,701.1013107351027,left,1,1,0.4679216677322984,D30N04,2022-11-02_14h41.43.230,t1_Paradigm,2021.1.4,59.88845297482621,
F,left,Distractor,0,0,0,0,780.6842789416551,782.6835677223862,None,0,2,,D30N04,2022-11-02_14h41.43.230,t1_Paradigm,2021.1.4,59.88845297482621,
N,left,Pretarget,0,1,1,1,784.1834759728517,786.1843248164514,None,0,2,,D30N04,2022-11-02_14h41.43.230,t1_Paradigm,2021.1.4,59.88845297482621,
V,left,Distractor,0,2,2,2,787.6835465494078,789.6855069739395,left,1,2,0.4439567532390356,D30N04,2022-11-02_14h41.43.230,t1_Paradigm,2021.1.4,59.88845297482621,
N,right,Target,0,3,3,3,791.183467631985,793.1840790816932,right,1,2,1.3294639196246862,D30N04,2022-11-02_14h41.43.230,t1_Paradigm,2021.1.4,59.88845297482621,
N,left,Lure,0,4,4,4,794.683487842558,796.6834589702776,None,0,2,,D30N04,2022-11-02_14h41.43.230,t1_Paradigm,2021.1.4,59.88845297482621,
X,left,Distractor,0,5,5,5,798.1832559022587,800.1844409469632,None,0,2,,D30N04,2022-11-02_14h41.43.230,t1_Paradigm,2021.1.4,59.88845297482621,
G,left,Pretarget,0,6,6,6,801.6833203835995,803.6849458902143,left,1,2,0.8447982825455256,D30N04,2022-11-02_14h41.43.230,t1_Paradigm,2021.1.4,59.88845297482621,
H,left,Pretarget,0,7,7,7,805.1836184091517,807.1850155043649,left,1,2,0.5763843753375113,D30N04,2022-11-02_14h41.43.230,t1_Paradigm,2021.1.4,59.88845297482621,
G,right,Target,0,8,8,8,808.6834945793962,810.6843508014572,right,1,2,0.43707810452906415,D30N04,2022-11-02_14h41.43.230,t1_Paradigm,2021.1.4,59.88845297482621,
H,right,Target,0,9,9,9,812.1836889857659,814.1836363741313,right,1,2,1.0177381365792826,D30N04,2022-11-02_14h41.43.230,t1_Paradigm,2021.1.4,59.88845297482621,
T,left,Pretarget,0,10,10,10,815.6831946289749,817.6856070643407,left,1,2,0.7316640478093177,D30N04,2022-11-02_14h41.43.230,t1_Paradigm,2021.1.4,59.88845297482621,
K,left,Distractor,0,11,11,11,819.1835439829738,821.1852288380614,left,1,2,0.6083180256537162,D30N04,2022-11-02_14h41.43.230,t1_Paradigm,2021.1.4,59.88845297482621,
T,right,Target,0,12,12,12,822.6833559926599,824.6839979186188,right,1,2,0.7254395155468956,D30N04,2022-11-02_14h41.43.230,t1_Paradigm,2021.1.4,59.88845297482621,
T,left,Lure,0,13,13,13,826.1832924737828,828.1835051658563,right,0,2,1.033933854312636,D30N04,2022-11-02_14h41.43.230,t1_Paradigm,2021.1.4,59.88845297482621,
J,left,Distractor,0,14,14,14,829.6835112611298,831.6858534406638,left,1,2,0.6036599723738618,D30N04,2022-11-02_14h41.43.230,t1_Paradigm,2021.1.4,59.88845297482621,
Q,left,Pretarget,0,15,15,15,833.1836703791632,835.1855637559784,left,1,2,0.5920652050408535,D30N04,2022-11-02_14h41.43.230,t1_Paradigm,2021.1.4,59.88845297482621,
M,left,Distractor,0,16,16,16,836.6835536070284,838.6854646279826,left,1,2,0.6761251027346589,D30N04,2022-11-02_14h41.43.230,t1_Paradigm,2021.1.4,59.88845297482621,
Q,right,Target,0,17,17,17,840.1836755120312,842.185427094053,right,1,2,1.0803065076470375,D30N04,2022-11-02_14h41.43.230,t1_Paradigm,2021.1.4,59.88845297482621,
R,left,Distractor,0,18,18,18,843.6834714816068,845.6843447061838,left,1,2,0.47708443069132045,D30N04,2022-11-02_14h41.43.230,t1_Paradigm,2021.1.4,59.88845297482621,
W,left,Distractor,0,19,19,19,847.1835706096026,849.18491830118,left,1,2,0.6566851084935479,D30N04,2022-11-02_14h41.43.230,t1_Paradigm,2021.1.4,59.88845297482621,
C,left,Pretarget,0,20,20,20,850.6836816073046,852.6861116867512,left,1,2,0.499377322208602,D30N04,2022-11-02_14h41.43.230,t1_Paradigm,2021.1.4,59.88845297482621,
T,left,Distractor,0,21,21,21,854.1835459077847,856.184903223475,left,1,2,0.4567311116261408,D30N04,2022-11-02_14h41.43.230,t1_Paradigm,2021.1.4,59.88845297482621,
C,right,Target,0,22,22,22,857.6835921033635,859.6851890585385,right,1,2,0.4284164350829087,D30N04,2022-11-02_14h41.43.230,t1_Paradigm,2021.1.4,59.88845297482621,
F,left,Pretarget,0,23,23,23,861.1835333965137,863.1850591335096,left,1,2,0.5926590106100775,D30N04,2022-11-02_14h41.43.230,t1_Paradigm,2021.1.4,59.88845297482621,
C,right,Target,0,24,24,24,864.6836026898236,866.6848506118404,right,1,2,1.252751363266725,D30N04,2022-11-02_14h41.43.230,t1_Paradigm,2021.1.4,59.88845297482621,
F,right,Target,0,25,25,25,868.1834990706411,870.1854216404026,right,1,2,0.8561893402365968,D30N04,2022-11-02_14h41.43.230,t1_Paradigm,2021.1.4,59.88845297482621,
H,left,Distractor,0,26,26,26,871.6835981986369,873.6856760368682,left,1,2,1.1318190596066415,D30N04,2022-11-02_14h41.43.230,t1_Paradigm,2021.1.4,59.88845297482621,
H,left,Lure,0,27,27,27,875.1835186395911,877.1836963642272,left,1,2,1.153788261290174,D30N04,2022-11-02_14h41.43.230,t1_Paradigm,2021.1.4,59.88845297482621,
P,left,Distractor,0,28,28,28,878.6836318828864,880.6855085779098,left,1,2,0.45203744916943833,D30N04,2022-11-02_14h41.43.230,t1_Paradigm,2021.1.4,59.88845297482621,
G,left,Pretarget,0,29,29,29,882.1833470102283,884.1853003770811,left,1,2,0.6162168266018853,D30N04,2022-11-02_14h41.43.230,t1_Paradigm,2021.1.4,59.88845297482621,
K,left,Distractor,0,30,30,30,885.6833973762114,887.6851457502344,left,1,2,0.5084974184865132,D30N04,2022-11-02_14h41.43.230,t1_Paradigm,2021.1.4,59.88845297482621,
G,right,Target,0,31,31,31,889.1837800936773,891.1838606151287,right,1,2,0.43363942176802084,D30N04,2022-11-02_14h41.43.230,t1_Paradigm,2021.1.4,59.88845297482621,
M,left,Pretarget,0,32,32,32,892.6836402237532,894.6842218388338,left,1,2,0.5011892151669599,D30N04,2022-11-02_14h41.43.230,t1_Paradigm,2021.1.4,59.88845297482621,
B,left,Distractor,0,33,33,33,896.1836857777089,898.1858370797709,left,1,2,0.535711421398446,D30N04,2022-11-02_14h41.43.230,t1_Paradigm,2021.1.4,59.88845297482621,
M,right,Target,0,34,34,34,899.683719141176,901.6963260406046,right,1,2,0.4492079705814831,D30N04,2022-11-02_14h41.43.230,t1_Paradigm,2021.1.4,59.88845297482621,
M,left,Lure,0,35,35,35,903.1835282636457,905.1837120834971,left,1,2,1.1378658672911115,D30N04,2022-11-02_14h41.43.230,t1_Paradigm,2021.1.4,59.88845297482621,
T,left,Distractor,0,36,36,36,906.6836832112749,908.6854408885702,left,1,2,0.868155917734839,D30N04,2022-11-02_14h41.43.230,t1_Paradigm,2021.1.4,59.88845297482621,
F,left,Distractor,0,37,37,37,910.1836520934594,912.1851319557172,left,1,2,0.5204925474245101,D30N04,2022-11-02_14h41.43.230,t1_Paradigm,2021.1.4,59.88845297482621,
X,left,Distractor,0,38,38,38,913.683666850382,915.6849490982131,left,1,2,0.49274954112479463,D30N04,2022-11-02_14h41.43.230,t1_Paradigm,2021.1.4,59.88845297482621,
C,left,Distractor,0,39,39,39,917.1836360532907,919.1854687983869,left,1,2,0.5761440942296758,D30N04,2022-11-02_14h41.43.230,t1_Paradigm,2021.1.4,59.88845297482621,
R,left,Distractor,0,40,40,40,920.6837900385726,922.6853087179479,left,1,2,0.45226489822380245,D30N04,2022-11-02_14h41.43.230,t1_Paradigm,2021.1.4,59.88845297482621,
B,left,Pretarget,0,41,41,41,924.1835430205683,926.1858967490261,left,1,2,1.0958885301370174,D30N04,2022-11-02_14h41.43.230,t1_Paradigm,2021.1.4,59.88845297482621,
H,left,Distractor,0,42,42,42,927.6837011762545,929.6850597751327,left,1,2,0.7324570718337782,D30N04,2022-11-02_14h41.43.230,t1_Paradigm,2021.1.4,59.88845297482621,
B,right,Target,0,43,43,43,931.1834580078721,933.1850710032159,right,1,2,0.4165669505018741,D30N04,2022-11-02_14h41.43.230,t1_Paradigm,2021.1.4,59.88845297482621,
W,left,Pretarget,0,44,44,44,934.6836556222988,936.6964011084056,left,1,2,0.473203040426597,D30N04,2022-11-02_14h41.43.230,t1_Paradigm,2021.1.4,59.88845297482621,
L,left,Pretarget,0,45,45,45,938.1837422389654,940.1838894873508,left,1,2,0.6177364683826454,D30N04,2022-11-02_14h41.43.230,t1_Paradigm,2021.1.4,59.88845297482621,
W,right,Target,0,46,46,46,941.6836626799195,943.6845763256424,right,1,2,0.9891126023721881,D30N04,2022-11-02_14h41.43.230,t1_Paradigm,2021.1.4,59.88845297482621,
L,right,Target,0,47,47,47,945.1836944393581,947.1838724848349,right,1,2,1.3777796740760095,D30N04,2022-11-02_14h41.43.230,t1_Paradigm,2021.1.4,59.88845297482621,
W,right,Target,0,48,48,48,948.6838262892561,950.6844165659859,right,1,2,1.365607462124899,D30N04,2022-11-02_14h41.43.230,t1_Paradigm,2021.1.4,59.88845297482621,
X,left,Distractor,0,49,49,49,952.1835969153908,954.1849673839752,left,1,2,0.7448329934268259,D30N04,2022-11-02_14h41.43.230,t1_Paradigm,2021.1.4,59.88845297482621,
R,left,Distractor,0,50,50,50,955.6835545694921,957.6861899626092,left,1,2,0.4917204064549878,D30N04,2022-11-02_14h41.43.230,t1_Paradigm,2021.1.4,59.88845297482621,
V,left,Pretarget,0,51,51,51,959.1839077731129,961.1859285084647,left,1,2,0.8317602244205773,D30N04,2022-11-02_14h41.43.230,t1_Paradigm,2021.1.4,59.88845297482621,
Z,left,Distractor,0,52,52,52,962.6838506702334,964.6837762440555,left,1,2,0.5178356604883447,D30N04,2022-11-02_14h41.43.230,t1_Paradigm,2021.1.4,59.88845297482621,
V,right,Target,0,53,53,53,966.183426569216,968.1855602271389,right,1,2,0.3760489441920072,D30N04,2022-11-02_14h41.43.230,t1_Paradigm,2021.1.4,59.88845297482621,
V,left,Lure,0,54,54,54,969.6839956730255,971.6838702391833,right,0,2,0.8778181703528389,D30N04,2022-11-02_14h41.43.230,t1_Paradigm,2021.1.4,59.88845297482621,
N,left,Distractor,0,55,55,55,973.1837236324209,975.1858078867081,left,1,2,0.8802078287117183,D30N04,2022-11-02_14h41.43.230,t1_Paradigm,2021.1.4,59.88845297482621,
B,left,Distractor,0,56,56,56,976.6838519534213,978.6854142619413,left,1,2,0.6445148214115761,D30N04,2022-11-02_14h41.43.230,t1_Paradigm,2021.1.4,59.88845297482621,
V,left,Lure,0,57,57,57,980.1836344493204,982.1846055187052,left,1,2,0.7132422809954733,D30N04,2022-11-02_14h41.43.230,t1_Paradigm,2021.1.4,59.88845297482621,
J,left,Distractor,0,58,58,58,983.6838801840786,985.6857700319961,left,1,2,0.5400098550599068,D30N04,2022-11-02_14h41.43.230,t1_Paradigm,2021.1.4,59.88845297482621,
H,left,Distractor,0,59,59,59,987.1837589206989,989.1829893153626,left,1,2,1.0268431550939567,D30N04,2022-11-02_14h41.43.230,t1_Paradigm,2021.1.4,59.88845297482621,
X,left,Pretarget,0,60,60,60,990.6838606151287,992.6864501334494,left,1,2,0.8832782301469706,D30N04,2022-11-02_14h41.43.230,t1_Paradigm,2021.1.4,59.88845297482621,
P,left,Distractor,0,61,61,61,994.1838432917721,996.1850886473549,left,1,2,0.8087573969387449,D30N04,2022-11-02_14h41.43.230,t1_Paradigm,2021.1.4,59.88845297482621,
X,right,Target,0,62,62,62,997.6838070410886,999.6851078955224,right,1,2,0.41278308420442045,D30N04,2022-11-02_14h41.43.230,t1_Paradigm,2021.1.4,59.88845297482621,
Q,left,Distractor,0,63,63,63,1001.1662248146022,1003.1690045688301,left,1,2,0.5608466236153618,D30N04,2022-11-02_14h41.43.230,t1_Paradigm,2021.1.4,59.88845297482621,
B,left,Pretarget,0,0,0,0,1019.8165182527155,1021.8186333040358,None,0,2,,D30N04,2022-11-02_14h41.43.230,t1_Paradigm,2021.1.4,59.88845297482621,
F,left,Distractor,0,1,1,1,1023.3171704442939,1025.3181100750226,None,0,2,,D30N04,2022-11-02_14h41.43.230,t1_Paradigm,2021.1.4,59.88845297482621,
B,right,Target,0,2,2,2,1026.8171983541106,1028.8297702861018,right,1,2,0.7879408388398588,D30N04,2022-11-02_14h41.43.230,t1_Paradigm,2021.1.4,59.88845297482621,
V,left,Distractor,0,3,3,3,1030.316915085481,1032.3192085030605,left,1,2,0.5947602674132213,D30N04,2022-11-02_14h41.43.230,t1_Paradigm,2021.1.4,59.88845297482621,
G,left,Pretarget,0,4,4,4,1033.817083506845,1035.819716333528,left,1,2,0.5979984486475587,D30N04,2022-11-02_14h41.43.230,t1_Paradigm,2021.1.4,59.88845297482621,
B,left,Lure,0,5,5,5,1037.3172143942793,1039.3195209647529,left,1,2,0.7624697563587688,D30N04,2022-11-02_14h41.43.230,t1_Paradigm,2021.1.4,59.88845297482621,
G,right,Target,0,6,6,6,1040.8171675570775,1042.8193698667455,right,1,2,0.4626104603521526,D30N04,2022-11-02_14h41.43.230,t1_Paradigm,2021.1.4,59.88845297482621,
Y,left,Pretarget,0,7,7,7,1044.317275667563,1046.3189518610016,left,1,2,0.6428658961667679,D30N04,2022-11-02_14h41.43.230,t1_Paradigm,2021.1.4,59.88845297482621,
P,left,Distractor,0,8,8,8,1047.8173263543868,1049.8189290839946,left,1,2,1.1429101669345982,D30N04,2022-11-02_14h41.43.230,t1_Paradigm,2021.1.4,59.88845297482621,
Y,right,Target,0,9,9,9,1051.3172304343898,1053.3192145982757,right,1,2,0.9387190096313134,D30N04,2022-11-02_14h41.43.230,t1_Paradigm,2021.1.4,59.88845297482621,
X,left,Distractor,0,10,10,10,1054.8171704442939,1056.8194542378187,left,1,2,1.2465460791136138,D30N04,2022-11-02_14h41.43.230,t1_Paradigm,2021.1.4,59.88845297482621,
Y,right,Target,0,11,11,11,1058.3171739731333,1060.3191667987267,right,1,2,0.5788542343652807,D30N04,2022-11-02_14h41.43.230,t1_Paradigm,2021.1.4,59.88845297482621,
N,left,Distractor,0,12,12,12,1061.8172259431449,1063.8176837284118,left,1,2,0.5202663816162385,D30N04,2022-11-02_14h41.43.230,t1_Paradigm,2021.1.4,59.88845297482621,
Y,right,Target,0,13,13,13,1065.317189371679,1067.3191501169931,right,1,2,0.6347213605185971,D30N04,2022-11-02_14h41.43.230,t1_Paradigm,2021.1.4,59.88845297482621,
Y,left,Lure,0,14,14,14,1068.817426444788,1070.81733758247,left,1,2,0.6564669627696276,D30N04,2022-11-02_14h41.43.230,t1_Paradigm,2021.1.4,59.88845297482621,
K,left,Distractor,0,15,15,15,1072.3170584842446,1074.3192729843431,left,1,2,0.8825153616489843,D30N04,2022-11-02_14h41.43.230,t1_Paradigm,2021.1.4,59.88845297482621,
T,left,Pretarget,0,16,16,16,1075.8171922588954,1077.8196139974752,left,1,2,0.6623613892006688,D30N04,2022-11-02_14h41.43.230,t1_Paradigm,2021.1.4,59.88845297482621,
J,left,Distractor,0,17,17,17,1079.3169609602191,1081.3192938365391,left,1,2,0.538672108319588,D30N04,2022-11-02_14h41.43.230,t1_Paradigm,2021.1.4,59.88845297482621,
T,right,Target,0,18,18,18,1082.8172419833136,1084.8196216967772,right,1,2,0.5740665767807513,D30N04,2022-11-02_14h41.43.230,t1_Paradigm,2021.1.4,59.88845297482621,
S,left,Pretarget,0,19,19,19,1086.3172913868912,1088.3190195503412,left,1,2,0.5630354596069083,D30N04,2022-11-02_14h41.43.230,t1_Paradigm,2021.1.4,59.88845297482621,
R,left,Distractor,0,20,20,20,1089.8171056421706,1091.8194186287583,left,1,2,0.6306696240790188,D30N04,2022-11-02_14h41.43.230,t1_Paradigm,2021.1.4,59.88845297482621,
S,right,Target,0,21,21,21,1093.3172224143054,1095.319274909154,right,1,2,0.4266221863217652,D30N04,2022-11-02_14h41.43.230,t1_Paradigm,2021.1.4,59.88845297482621,
Q,left,Distractor,0,22,22,22,1096.8173430361203,1098.8185944869183,left,1,2,0.5279111069394276,D30N04,2022-11-02_14h41.43.230,t1_Paradigm,2021.1.4,59.88845297482621,
D,left,Distractor,0,23,23,23,1100.3172859332408,1102.3196691755438,left,1,2,0.9943442506482825,D30N04,2022-11-02_14h41.43.230,t1_Paradigm,2021.1.4,59.88845297482621,
F,left,Distractor,0,24,24,24,1103.8170546345646,1105.8193997013732,left,1,2,0.678653989394661,D30N04,2022-11-02_14h41.43.230,t1_Paradigm,2021.1.4,59.88845297482621,
Z,left,Distractor,0,25,25,25,1107.3170844692504,1109.3189778460073,left,1,2,0.5230743665597402,D30N04,2022-11-02_14h41.43.230,t1_Paradigm,2021.1.4,59.88845297482621,
P,left,Distractor,0,26,26,26,1110.8170408400474,1112.819353185012,left,1,2,0.7026185830472969,D30N04,2022-11-02_14h41.43.230,t1_Paradigm,2021.1.4,59.88845297482621,
H,left,Distractor,0,27,27,27,1114.3173812116147,1116.31944204733,left,1,2,0.5946136607090011,D30N04,2022-11-02_14h41.43.230,t1_Paradigm,2021.1.4,59.88845297482621,
Z,left,Pretarget,0,28,28,28,1117.8170061933924,1119.819006397447,left,1,2,0.8550065411254764,D30N04,2022-11-02_14h41.43.230,t1_Paradigm,2021.1.4,59.88845297482621,
J,left,Pretarget,0,29,29,29,1121.31734816893,1123.3189492945676,left,1,2,0.7313993857242167,D30N04,2022-11-02_14h41.43.230,t1_Paradigm,2021.1.4,59.88845297482621,
Z,right,Target,0,30,30,30,1124.8173443193082,1126.8190464977524,right,1,2,0.622994422505144,D30N04,2022-11-02_14h41.43.230,t1_Paradigm,2021.1.4,59.88845297482621,
J,right,Target,0,31,31,31,1128.3174665450933,1130.317549312138,right,1,2,1.2204041983932257,D30N04,2022-11-02_14h41.43.230,t1_Paradigm,2021.1.4,59.88845297482621,
V,left,Pretarget,0,32,32,32,1131.8172182439012,1133.818150816951,left,1,2,0.5676251819822937,D30N04,2022-11-02_14h41.43.230,t1_Paradigm,2021.1.4,59.88845297482621,
Z,left,Lure,0,33,33,33,1135.3174181039212,1137.3181707067415,left,1,2,0.5398780052200891,D30N04,2022-11-02_14h41.43.230,t1_Paradigm,2021.1.4,59.88845297482621,
V,right,Target,0,34,34,34,1138.8173821740202,1140.8194673907128,right,1,2,0.47868876438587904,D30N04,2022-11-02_14h41.43.230,t1_Paradigm,2021.1.4,59.88845297482621,
X,left,Distractor,0,35,35,35,1142.3172968405415,1144.318511399033,left,1,2,0.6597067479742691,D30N04,2022-11-02_14h41.43.230,t1_Paradigm,2021.1.4,59.88845297482621,
S,left,Distractor,0,36,36,36,1145.8174851516378,1147.8193826988572,left,1,2,0.4706542640342377,D30N04,2022-11-02_14h41.43.230,t1_Paradigm,2021.1.4,59.88845297482621,
Q,left,Distractor,0,37,37,37,1149.3174261239474,1151.3192726635607,left,1,2,0.5867209550342523,D30N04,2022-11-02_14h41.43.230,t1_Paradigm,2021.1.4,59.88845297482621,
P,left,Distractor,0,38,38,38,1152.8175104950205,1154.8184924717061,left,1,2,0.6234730599680915,D30N04,2022-11-02_14h41.43.230,t1_Paradigm,2021.1.4,59.88845297482621,
S,left,Lure,0,39,39,39,1156.317426444788,1158.319257265015,left,1,2,0.5789155076490715,D30N04,2022-11-02_14h41.43.230,t1_Paradigm,2021.1.4,59.88845297482621,
K,left,Pretarget,0,40,40,40,1159.8176349664573,1161.818205674237,left,1,2,0.7919341892702505,D30N04,2022-11-02_14h41.43.230,t1_Paradigm,2021.1.4,59.88845297482621,
L,left,Distractor,0,41,41,41,1163.3174335024087,1165.31940804224,left,1,2,0.7309233147534542,D30N04,2022-11-02_14h41.43.230,t1_Paradigm,2021.1.4,59.88845297482621,
K,right,Target,0,42,42,42,1166.8174447304918,1168.8194487841683,right,1,2,0.3506330397212878,D30N04,2022-11-02_14h41.43.230,t1_Paradigm,2021.1.4,59.88845297482621,
B,left,Distractor,0,43,43,43,1170.3173379032523,1172.319755471428,left,1,2,0.466256060753949,D30N04,2022-11-02_14h41.43.230,t1_Paradigm,2021.1.4,59.88845297482621,
N,left,Distractor,0,44,44,44,1173.8173600386363,1175.8191189991194,left,1,2,0.518834960530512,D30N04,2022-11-02_14h41.43.230,t1_Paradigm,2021.1.4,59.88845297482621,
S,left,Pretarget,0,45,45,45,1177.3171909757075,1179.31864132412,left,1,2,0.5554308346472681,D30N04,2022-11-02_14h41.43.230,t1_Paradigm,2021.1.4,59.88845297482621,
Z,left,Distractor,0,46,46,46,1180.817478093959,1182.8193416360882,left,1,2,0.4949284321628511,D30N04,2022-11-02_14h41.43.230,t1_Paradigm,2021.1.4,59.88845297482621,
S,right,Target,0,47,47,47,1184.3175454625161,1186.3198042334407,right,1,2,0.38622223533457145,D30N04,2022-11-02_14h41.43.230,t1_Paradigm,2021.1.4,59.88845297482621,
C,left,Distractor,0,48,48,48,1187.8175339136505,1189.8197721531615,left,1,2,1.174339194840286,D30N04,2022-11-02_14h41.43.230,t1_Paradigm,2021.1.4,59.88845297482621,
T,left,Pretarget,0,49,49,49,1191.3172872164287,1193.319660834677,left,1,2,0.4905395321547985,D30N04,2022-11-02_14h41.43.230,t1_Paradigm,2021.1.4,59.88845297482621,
S,left,Lure,0,50,50,50,1194.817365813069,1196.819477335608,left,1,2,0.6225805871654302,D30N04,2022-11-02_14h41.43.230,t1_Paradigm,2021.1.4,59.88845297482621,
T,right,Target,0,51,51,51,1198.317471677903,1200.3194343480864,right,1,2,0.5948350144317374,D30N04,2022-11-02_14h41.43.230,t1_Paradigm,2021.1.4,59.88845297482621,
N,left,Pretarget,0,52,52,52,1201.817476810771,1203.8182954989024,left,1,2,0.5037620517541654,D30N04,2022-11-02_14h41.43.230,t1_Paradigm,2021.1.4,59.88845297482621,
B,left,Distractor,0,53,53,53,1205.3174007805646,1207.3182999901474,left,1,2,0.5398988573579118,D30N04,2022-11-02_14h41.43.230,t1_Paradigm,2021.1.4,59.88845297482621,
N,right,Target,0,54,54,54,1208.8175117782666,1210.819426328002,right,1,2,0.4308420233428478,D30N04,2022-11-02_14h41.43.230,t1_Paradigm,2021.1.4,59.88845297482621,
N,left,Lure,0,55,55,55,1212.3175791467656,1214.3176105854218,left,1,2,1.2845056849182583,D30N04,2022-11-02_14h41.43.230,t1_Paradigm,2021.1.4,59.88845297482621,
X,left,Distractor,0,56,56,56,1215.8174405600876,1217.8199441033648,left,1,2,0.6622430130955763,D30N04,2022-11-02_14h41.43.230,t1_Paradigm,2021.1.4,59.88845297482621,
W,left,Distractor,0,57,57,57,1219.3174456928973,1221.3194327440578,left,1,2,0.5387125294655561,D30N04,2022-11-02_14h41.43.230,t1_Paradigm,2021.1.4,59.88845297482621,
S,left,Distractor,0,58,58,58,1222.817189371679,1224.8176388160791,left,1,2,0.6404765585903078,D30N04,2022-11-02_14h41.43.230,t1_Paradigm,2021.1.4,59.88845297482621,
L,left,Distractor,0,59,59,59,1226.3177648914861,1228.318094034912,left,1,2,0.48405932023888454,D30N04,2022-11-02_14h41.43.230,t1_Paradigm,2021.1.4,59.88845297482621,
K,left,Pretarget,0,60,60,60,1229.8176417032955,1231.8197702283505,left,1,2,0.5662556758034043,D30N04,2022-11-02_14h41.43.230,t1_Paradigm,2021.1.4,59.88845297482621,
V,left,Pretarget,0,61,61,61,1233.3174299735692,1235.3187872892595,left,1,2,0.795584280975163,D30N04,2022-11-02_14h41.43.230,t1_Paradigm,2021.1.4,59.88845297482621,
K,right,Target,0,62,62,62,1236.817495738098,1238.8181928421254,right,1,2,0.9439891543006524,D30N04,2022-11-02_14h41.43.230,t1_Paradigm,2021.1.4,59.88845297482621,
V,right,Target,0,63,63,63,1240.3175130614545,1242.3197423185338,right,1,2,0.4664289733627811,D30N04,2022-11-02_14h41.43.230,t1_Paradigm,2021.1.4,59.88845297482621,
R,left,Distractor,0,0,0,0,1296.4829839899903,1298.4863504921668,None,0,3,,D30N04,2022-11-02_14h41.43.230,t1_Paradigm,2021.1.4,59.88845297482621,
P,left,Lure,0,1,1,1,1299.9842630298808,1301.9835620762315,None,0,3,,D30N04,2022-11-02_14h41.43.230,t1_Paradigm,2021.1.4,59.88845297482621,
V,left,Distractor,0,2,2,2,1303.4842309496016,1305.4859729075688,None,0,3,,D30N04,2022-11-02_14h41.43.230,t1_Paradigm,2021.1.4,59.88845297482621,
P,left,Pretarget,0,3,3,3,1306.9842081725947,1308.9856257991632,None,0,3,,D30N04,2022-11-02_14h41.43.230,t1_Paradigm,2021.1.4,59.88845297482621,
Z,left,Distractor,0,4,4,4,1310.4843730651191,1312.4848629306653,None,0,3,,D30N04,2022-11-02_14h41.43.230,t1_Paradigm,2021.1.4,59.88845297482621,
L,left,Pretarget,0,5,5,5,1313.9843419473036,1315.9859186919057,left,1,3,0.5763718640664592,D30N04,2022-11-02_14h41.43.230,t1_Paradigm,2021.1.4,59.88845297482621,
P,right,Target,0,6,6,6,1317.4842755411519,1319.4863052590517,left,0,3,1.0440724988584407,D30N04,2022-11-02_14h41.43.230,t1_Paradigm,2021.1.4,59.88845297482621,
S,left,Distractor,0,7,7,7,1320.9841574858292,1322.986489078903,left,1,3,0.8879000328015536,D30N04,2022-11-02_14h41.43.230,t1_Paradigm,2021.1.4,59.88845297482621,
L,right,Target,0,8,8,8,1324.484211701434,1326.485325207177,right,1,3,0.988950276223477,D30N04,2022-11-02_14h41.43.230,t1_Paradigm,2021.1.4,59.88845297482621,
D,left,Distractor,0,9,9,9,1327.9841408040957,1329.984705416602,left,1,3,0.8015948379179463,D30N04,2022-11-02_14h41.43.230,t1_Paradigm,2021.1.4,59.88845297482621,
G,left,Distractor,0,10,10,10,1331.4842123430572,1333.4847314016079,left,1,3,1.0137332372833043,D30N04,2022-11-02_14h41.43.230,t1_Paradigm,2021.1.4,59.88845297482621,
M,left,Pretarget,0,11,11,11,1334.9842996013467,1336.9851413873257,left,1,3,0.6491918020765297,D30N04,2022-11-02_14h41.43.230,t1_Paradigm,2021.1.4,59.88845297482621,
Y,left,Distractor,0,12,12,12,1338.4841597314226,1340.4862561762566,left,1,3,0.7319919080473483,D30N04,2022-11-02_14h41.43.230,t1_Paradigm,2021.1.4,59.88845297482621,
V,left,Distractor,0,13,13,13,1341.9842704083421,1343.9863370184903,left,1,3,1.2159825765993446,D30N04,2022-11-02_14h41.43.230,t1_Paradigm,2021.1.4,59.88845297482621,
M,right,Target,0,14,14,14,1345.4843336064368,1347.4859276743955,left,0,3,1.3966252211248502,D30N04,2022-11-02_14h41.43.230,t1_Paradigm,2021.1.4,59.88845297482621,
S,left,Pretarget,0,15,15,15,1348.9843740275246,1350.9855706211529,left,1,3,0.9528814807999879,D30N04,2022-11-02_14h41.43.230,t1_Paradigm,2021.1.4,59.88845297482621,
Q,left,Distractor,0,16,16,16,1352.4843765939586,1354.485474059591,left,1,3,1.229002028121613,D30N04,2022-11-02_14h41.43.230,t1_Paradigm,2021.1.4,59.88845297482621,
R,left,Pretarget,0,17,17,17,1355.9839781571645,1357.9847365344758,left,1,3,1.4417659924947657,D30N04,2022-11-02_14h41.43.230,t1_Paradigm,2021.1.4,59.88845297482621,
S,right,Target,0,18,18,18,1359.4844051453983,1361.4854772675899,right,1,3,0.8529444222222082,D30N04,2022-11-02_14h41.43.230,t1_Paradigm,2021.1.4,59.88845297482621,
F,left,Distractor,0,19,19,19,1362.9843419473036,1364.9854086158448,None,0,3,,D30N04,2022-11-02_14h41.43.230,t1_Paradigm,2021.1.4,59.88845297482621,
R,right,Target,0,20,20,20,1366.4841199518996,1368.4866048886324,right,1,3,1.0197543807444163,D30N04,2022-11-02_14h41.43.230,t1_Paradigm,2021.1.4,59.88845297482621,
P,left,Distractor,0,21,21,21,1369.9845854364685,1371.986637289694,left,1,3,0.7197070943657309,D30N04,2022-11-02_14h41.43.230,t1_Paradigm,2021.1.4,59.88845297482621,
L,left,Distractor,0,22,22,22,1373.484144332935,1375.4863690987695,left,1,3,1.3160274247638881,D30N04,2022-11-02_14h41.43.230,t1_Paradigm,2021.1.4,59.88845297482621,
R,right,Target,0,23,23,23,1376.9844500577892,1378.9866042470094,right,1,3,1.0960165302967653,D30N04,2022-11-02_14h41.43.230,t1_Paradigm,2021.1.4,59.88845297482621,
H,left,Pretarget,0,24,24,24,1380.4842928645085,1382.4846608250518,left,1,3,0.7498577240621671,D30N04,2022-11-02_14h41.43.230,t1_Paradigm,2021.1.4,59.88845297482621,
G,left,Pretarget,0,25,25,25,1383.984397766937,1385.9854285055771,left,1,3,0.8010196388931945,D30N04,2022-11-02_14h41.43.230,t1_Paradigm,2021.1.4,59.88845297482621,
T,left,Distractor,0,26,26,26,1387.4844131654827,1389.4861313840374,left,1,3,0.7883437668788247,D30N04,2022-11-02_14h41.43.230,t1_Paradigm,2021.1.4,59.88845297482621,
H,right,Target,0,27,27,27,1390.9842444233363,1392.98636556993,right,1,3,1.000009624112863,D30N04,2022-11-02_14h41.43.230,t1_Paradigm,2021.1.4,59.88845297482621,
G,right,Target,0,28,28,28,1394.4842447441188,1396.4848841036437,right,1,3,0.7335224571288563,D30N04,2022-11-02_14h41.43.230,t1_Paradigm,2021.1.4,59.88845297482621,
D,left,Distractor,0,29,29,29,1397.9844170151046,1399.9847833716194,left,1,3,0.9297827332629822,D30N04,2022-11-02_14h41.43.230,t1_Paradigm,2021.1.4,59.88845297482621,
N,left,Pretarget,0,30,30,30,1401.4843105086475,1403.4869045182131,left,1,3,1.2675410034134984,D30N04,2022-11-02_14h41.43.230,t1_Paradigm,2021.1.4,59.88845297482621,
V,left,Distractor,0,31,31,31,1404.9676560431835,1406.9682857785956,left,1,3,1.1143446228234097,D30N04,2022-11-02_14h41.43.230,t1_Paradigm,2021.1.4,59.88845297482621,
R,left,Distractor,0,32,32,32,1408.4678023291635,1410.4688949827105,left,1,3,1.133572245715186,D30N04,2022-11-02_14h41.43.230,t1_Paradigm,2021.1.4,59.88845297482621,
N,right,Target,0,33,33,33,1411.9844805339817,1413.98598028603,right,1,3,1.296661856758874,D30N04,2022-11-02_14h41.43.230,t1_Paradigm,2021.1.4,59.88845297482621,
Z,left,Distractor,0,34,34,34,1415.4842062477837,1417.4860280855792,left,1,3,0.8205026205978356,D30N04,2022-11-02_14h41.43.230,t1_Paradigm,2021.1.4,59.88845297482621,
N,left,Lure,0,35,35,35,1418.984507481393,1420.9971657092683,left,1,3,1.0374764771549962,D30N04,2022-11-02_14h41.43.230,t1_Paradigm,2021.1.4,59.88845297482621,
Y,left,Pretarget,0,36,36,36,1422.4844651354942,1424.4859369776677,left,1,3,0.7165058055543341,D30N04,2022-11-02_14h41.43.230,t1_Paradigm,2021.1.4,59.88845297482621,
Y,left,Lure,0,37,37,37,1425.9842896564514,1427.9845979477395,left,1,3,1.042017437517643,D30N04,2022-11-02_14h41.43.230,t1_Paradigm,2021.1.4,59.88845297482621,
B,left,Distractor,0,38,38,38,1429.4846104590688,1431.4862805572338,left,1,3,0.8681802987121046,D30N04,2022-11-02_14h41.43.230,t1_Paradigm,2021.1.4,59.88845297482621,
Y,right,Target,0,39,39,39,1432.9845921733067,1434.9863418305176,right,1,3,0.45594161649933085,D30N04,2022-11-02_14h41.43.230,t1_Paradigm,2021.1.4,59.88845297482621,
J,left,Distractor,0,40,40,40,1436.484248914523,1438.4854147111182,left,1,3,0.8612910634838045,D30N04,2022-11-02_14h41.43.230,t1_Paradigm,2021.1.4,59.88845297482621,
X,left,Distractor,0,41,41,41,1439.9843178871088,1441.9860665819142,left,1,3,0.8484839833108708,D30N04,2022-11-02_14h41.43.230,t1_Paradigm,2021.1.4,59.88845297482621,
W,left,Pretarget,0,42,42,42,1443.467839863035,1445.468233808584,left,1,3,1.2064040533732623,D30N04,2022-11-02_14h41.43.230,t1_Paradigm,2021.1.4,59.88845297482621,
S,left,Pretarget,0,43,43,43,1446.9675421582651,1448.969492958684,left,1,3,0.7611753179226071,D30N04,2022-11-02_14h41.43.230,t1_Paradigm,2021.1.4,59.88845297482621,
R,left,Distractor,0,44,44,44,1450.484274257964,1452.4853569666157,left,1,3,1.2293812168063596,D30N04,2022-11-02_14h41.43.230,t1_Paradigm,2021.1.4,59.88845297482621,
W,right,Target,0,45,45,45,1453.9846579378354,1455.9855488065514,right,1,3,1.0571705469628796,D30N04,2022-11-02_14h41.43.230,t1_Paradigm,2021.1.4,59.88845297482621,
S,right,Target,0,46,46,46,1457.467820935708,1459.4696421318804,right,1,3,1.0450281696976162,D30N04,2022-11-02_14h41.43.230,t1_Paradigm,2021.1.4,59.88845297482621,
D,left,Distractor,0,47,47,47,1460.9845748499501,1462.969694101892,None,0,3,,D30N04,2022-11-02_14h41.43.230,t1_Paradigm,2021.1.4,59.88845297482621,
T,left,Distractor,0,48,48,48,1464.4678231813014,1466.4697043675696,right,0,3,1.1813051018398255,D30N04,2022-11-02_14h41.43.230,t1_Paradigm,2021.1.4,59.88845297482621,
S,right,Target,0,49,49,49,1467.9845443736995,1469.9847195319016,left,0,3,1.025985008222051,D30N04,2022-11-02_14h41.43.230,t1_Paradigm,2021.1.4,59.88845297482621,
K,left,Distractor,0,50,50,50,1471.4846114214743,1473.4702933611115,left,1,3,0.7083625531522557,D30N04,2022-11-02_14h41.43.230,t1_Paradigm,2021.1.4,59.88845297482621,
S,left,Lure,0,51,51,51,1474.9679046651581,1476.9703036267892,None,0,3,,D30N04,2022-11-02_14h41.43.230,t1_Paradigm,2021.1.4,59.88845297482621,
T,left,Pretarget,0,52,52,52,1478.4679046651581,1480.4695227933116,left,1,3,1.2930958154029213,D30N04,2022-11-02_14h41.43.230,t1_Paradigm,2021.1.4,59.88845297482621,
V,left,Distractor,0,53,53,53,1481.9680198332644,1483.9699921275023,left,1,3,1.3127696746378206,D30N04,2022-11-02_14h41.43.230,t1_Paradigm,2021.1.4,59.88845297482621,
B,left,Distractor,0,54,54,54,1485.4845568850287,1487.4855924356962,left,1,3,1.0132100082701072,D30N04,2022-11-02_14h41.43.230,t1_Paradigm,2021.1.4,59.88845297482621,
T,right,Target,0,55,55,55,1488.9679155724589,1490.9703738825629,right,1,3,0.9842174758668989,D30N04,2022-11-02_14h41.43.230,t1_Paradigm,2021.1.4,59.88845297482621,
Y,left,Pretarget,0,56,56,56,1492.4843541377923,1494.4858449073508,left,1,3,0.7808289666427299,D30N04,2022-11-02_14h41.43.230,t1_Paradigm,2021.1.4,59.88845297482621,
T,left,Lure,0,57,57,57,1495.9841485033394,1497.9695426831022,None,0,3,,D30N04,2022-11-02_14h41.43.230,t1_Paradigm,2021.1.4,59.88845297482621,
P,left,Pretarget,0,58,58,58,1499.484160693828,1501.4697925882647,left,1,3,0.8368606645381078,D30N04,2022-11-02_14h41.43.230,t1_Paradigm,2021.1.4,59.88845297482621,
Y,right,Target,0,59,59,59,1502.9843073005904,1504.9704640280688,right,1,3,0.7604830259806477,D30N04,2022-11-02_14h41.43.230,t1_Paradigm,2021.1.4,59.88845297482621,
R,left,Distractor,0,60,60,60,1506.4679232717026,1508.4682264301227,left,1,3,0.6064471050631255,D30N04,2022-11-02_14h41.43.230,t1_Paradigm,2021.1.4,59.88845297482621,
P,right,Target,0,61,61,61,1509.9677442638786,1511.9688369174255,right,1,3,1.2498105660779402,D30N04,2022-11-02_14h41.43.230,t1_Paradigm,2021.1.4,59.88845297482621,
L,left,Distractor,0,62,62,62,1513.4679473318974,1515.469726823736,left,1,3,1.0929445248912089,D30N04,2022-11-02_14h41.43.230,t1_Paradigm,2021.1.4,59.88845297482621,
V,left,Distractor,0,63,63,63,1516.9680839938228,1518.9702064236044,left,1,3,0.6965477152261883,D30N04,2022-11-02_14h41.43.230,t1_Paradigm,2021.1.4,59.88845297482621,
H,left,Lure,0,0,0,0,1560.0801653544768,1562.084903287643,None,0,3,,D30N04,2022-11-02_14h41.43.230,t1_Paradigm,2021.1.4,59.88845297482621,
B,left,Distractor,0,1,1,1,1563.5836325886776,1565.5861909891246,None,0,3,,D30N04,2022-11-02_14h41.43.230,t1_Paradigm,2021.1.4,59.88845297482621,
T,left,Distractor,0,2,2,2,1567.0847688713693,1569.0864825986791,None,0,3,,D30N04,2022-11-02_14h41.43.230,t1_Paradigm,2021.1.4,59.88845297482621,
R,left,Distractor,0,3,3,3,1570.5846790466458,1572.5845000388217,left,1,3,1.2903343468206003,D30N04,2022-11-02_14h41.43.230,t1_Paradigm,2021.1.4,59.88845297482621,
H,left,Pretarget,0,4,4,4,1574.0846623649122,1576.1010746244574,left,1,3,1.3098093084990978,D30N04,2022-11-02_14h41.43.230,t1_Paradigm,2021.1.4,59.88845297482621,
K,left,Distractor,0,5,5,5,1577.5848266158137,1579.5868197621894,left,1,3,0.7679635003441945,D30N04,2022-11-02_14h41.43.230,t1_Paradigm,2021.1.4,59.88845297482621,
G,left,Distractor,0,6,6,6,1581.084542705561,1583.0863507488393,left,1,3,0.5805971547379158,D30N04,2022-11-02_14h41.43.230,t1_Paradigm,2021.1.4,59.88845297482621,
H,right,Target,0,7,7,7,1584.584730695875,1586.5864678417565,left,0,3,1.2404325445531867,D30N04,2022-11-02_14h41.43.230,t1_Paradigm,2021.1.4,59.88845297482621,
Y,left,Pretarget,0,8,8,8,1588.0848323902464,1590.0851685913512,left,1,3,1.197803336486686,D30N04,2022-11-02_14h41.43.230,t1_Paradigm,2021.1.4,59.88845297482621,
S,left,Distractor,0,9,9,9,1591.5848939843709,1593.5860899363179,left,1,3,1.200695050880313,D30N04,2022-11-02_14h41.43.230,t1_Paradigm,2021.1.4,59.88845297482621,
P,left,Distractor,0,10,10,10,1595.0846646105056,1597.087179381866,left,1,3,0.7077918453142047,D30N04,2022-11-02_14h41.43.230,t1_Paradigm,2021.1.4,59.88845297482621,
Y,right,Target,0,11,11,11,1598.5848625457147,1600.5864126637462,left,0,3,1.048453057941515,D30N04,2022-11-02_14h41.43.230,t1_Paradigm,2021.1.4,59.88845297482621,
H,left,Lure,0,12,12,12,1602.0848208413809,1604.086106297269,None,0,3,,D30N04,2022-11-02_14h41.43.230,t1_Paradigm,2021.1.4,59.88845297482621,
Q,left,Distractor,0,13,13,13,1605.584882435447,1607.5858393895323,left,1,3,0.7847883120412007,D30N04,2022-11-02_14h41.43.230,t1_Paradigm,2021.1.4,59.88845297482621,
V,left,Pretarget,0,14,14,14,1609.0843925699592,1611.084286705067,left,1,3,0.6625198657275178,D30N04,2022-11-02_14h41.43.230,t1_Paradigm,2021.1.4,59.88845297482621,
G,left,Distractor,0,15,15,15,1612.5849834882538,1614.586950008059,left,1,3,0.6645014631794766,D30N04,2022-11-02_14h41.43.230,t1_Paradigm,2021.1.4,59.88845297482621,
Z,left,Pretarget,0,16,16,16,1616.0845475175884,1618.0863247638335,left,1,3,0.6045498787425458,D30N04,2022-11-02_14h41.43.230,t1_Paradigm,2021.1.4,59.88845297482621,
V,right,Target,0,17,17,17,1619.5839938123245,1621.5869118325063,right,1,3,0.8482911809696816,D30N04,2022-11-02_14h41.43.230,t1_Paradigm,2021.1.4,59.88845297482621,
N,left,Distractor,0,18,18,18,1623.084761492908,1625.086637225526,left,1,3,1.2362018001731485,D30N04,2022-11-02_14h41.43.230,t1_Paradigm,2021.1.4,59.88845297482621,
Z,right,Target,0,19,19,19,1626.5848182749469,1628.5868614665233,right,1,3,0.8397738726926036,D30N04,2022-11-02_14h41.43.230,t1_Paradigm,2021.1.4,59.88845297482621,
R,left,Distractor,0,20,20,20,1630.0848121797317,1632.0862156909425,left,1,3,0.9407673340756446,D30N04,2022-11-02_14h41.43.230,t1_Paradigm,2021.1.4,59.88845297482621,
P,left,Distractor,0,21,21,21,1633.5848355983035,1635.584670064156,left,1,3,0.817976941994857,D30N04,2022-11-02_14h41.43.230,t1_Paradigm,2021.1.4,59.88845297482621,
Z,right,Target,0,22,22,22,1637.0845815226785,1639.0869018876692,right,1,3,0.4519091281690635,D30N04,2022-11-02_14h41.43.230,t1_Paradigm,2021.1.4,59.88845297482621,
D,left,Pretarget,0,23,23,23,1640.584912270133,1642.5866227893857,left,1,3,0.5202692688326351,D30N04,2022-11-02_14h41.43.230,t1_Paradigm,2021.1.4,59.88845297482621,
K,left,Distractor,0,24,24,24,1644.0846306054736,1646.0857075396925,left,1,3,0.8454293012036942,D30N04,2022-11-02_14h41.43.230,t1_Paradigm,2021.1.4,59.88845297482621,
W,left,Distractor,0,25,25,25,1647.5845802394324,1649.5869544992456,left,1,3,0.7199374306364916,D30N04,2022-11-02_14h41.43.230,t1_Paradigm,2021.1.4,59.88845297482621,
D,right,Target,0,26,26,26,1651.084576710593,1653.0857996100094,left,0,3,1.0132555622258224,D30N04,2022-11-02_14h41.43.230,t1_Paradigm,2021.1.4,59.88845297482621,
G,left,Pretarget,0,27,27,27,1654.5848452223581,1656.5867700377712,None,0,3,,D30N04,2022-11-02_14h41.43.230,t1_Paradigm,2021.1.4,59.88845297482621,
V,left,Distractor,0,28,28,28,1658.0848394479253,1660.0861101468909,left,1,3,1.1327952618594281,D30N04,2022-11-02_14h41.43.230,t1_Paradigm,2021.1.4,59.88845297482621,
D,right,Target,0,29,29,29,1661.5847201093566,1663.5867036316777,left,0,3,1.2322110162349418,D30N04,2022-11-02_14h41.43.230,t1_Paradigm,2021.1.4,59.88845297482621,
G,right,Target,0,30,30,30,1665.084979638632,1667.0865069797146,left,0,3,1.0925335767678916,D30N04,2022-11-02_14h41.43.230,t1_Paradigm,2021.1.4,59.88845297482621,
B,left,Pretarget,0,31,31,31,1668.5846232270123,1670.585227298201,left,1,3,1.161779132555239,D30N04,2022-11-02_14h41.43.230,t1_Paradigm,2021.1.4,59.88845297482621,
N,left,Distractor,0,32,32,32,1672.0845468759653,1674.0860767834238,left,1,3,0.7489822538336739,D30N04,2022-11-02_14h41.43.230,t1_Paradigm,2021.1.4,59.88845297482621,
F,left,Distractor,0,33,33,33,1675.5848381647374,1677.5863523528678,left,1,3,0.7844129729783162,D30N04,2022-11-02_14h41.43.230,t1_Paradigm,2021.1.4,59.88845297482621,
B,right,Target,0,34,34,34,1679.0849007212091,1681.085791589925,right,1,3,0.901145008567255,D30N04,2022-11-02_14h41.43.230,t1_Paradigm,2021.1.4,59.88845297482621,
Q,left,Pretarget,0,35,35,35,1682.584839127143,1684.5868386895163,left,1,3,0.9201249718316831,D30N04,2022-11-02_14h41.43.230,t1_Paradigm,2021.1.4,59.88845297482621,
S,left,Pretarget,0,36,36,36,1686.0849870170932,1688.0861518512247,left,1,3,0.9409132992150262,D30N04,2022-11-02_14h41.43.230,t1_Paradigm,2021.1.4,59.88845297482621,
W,left,Distractor,0,37,37,37,1689.5850065860432,1691.5863058364484,left,1,3,0.6887602328206412,D30N04,2022-11-02_14h41.43.230,t1_Paradigm,2021.1.4,59.88845297482621,
Q,right,Target,0,38,38,38,1693.0850858243066,1695.087666039355,None,0,3,,D30N04,2022-11-02_14h41.43.230,t1_Paradigm,2021.1.4,59.88845297482621,
S,right,Target,0,39,39,39,1696.584958144871,1698.5859414047445,None,0,3,,D30N04,2022-11-02_14h41.43.230,t1_Paradigm,2021.1.4,59.88845297482621,
T,left,Distractor,0,40,40,40,1700.0849494832219,1702.0864620673237,left,1,3,1.324649635469541,D30N04,2022-11-02_14h41.43.230,t1_Paradigm,2021.1.4,59.88845297482621,
G,left,Distractor,0,41,41,41,1703.585013643722,1705.5858419559663,left,1,3,1.233131398796104,D30N04,2022-11-02_14h41.43.230,t1_Paradigm,2021.1.4,59.88845297482621,
D,left,Distractor,0,42,42,42,1707.085055348056,1709.086794097966,left,1,3,1.3161746731493622,D30N04,2022-11-02_14h41.43.230,t1_Paradigm,2021.1.4,59.88845297482621,
S,left,Lure,0,43,43,43,1710.5849552576547,1712.5862917211489,right,0,3,1.0486294993315823,D30N04,2022-11-02_14h41.43.230,t1_Paradigm,2021.1.4,59.88845297482621,
Z,left,Pretarget,0,44,44,44,1714.0847470567678,1716.0870770458714,left,1,3,1.1801043378654867,D30N04,2022-11-02_14h41.43.230,t1_Paradigm,2021.1.4,59.88845297482621,
J,left,Distractor,0,45,45,45,1717.5851163005573,1719.5871861187043,left,1,3,0.9757883884012699,D30N04,2022-11-02_14h41.43.230,t1_Paradigm,2021.1.4,59.88845297482621,
M,left,Pretarget,0,46,46,46,1721.0847265254124,1723.0861874603434,left,1,3,1.0612874063663185,D30N04,2022-11-02_14h41.43.230,t1_Paradigm,2021.1.4,59.88845297482621,
Z,right,Target,0,47,47,47,1724.5851310574799,1726.5866208645748,right,1,3,0.9843929549097084,D30N04,2022-11-02_14h41.43.230,t1_Paradigm,2021.1.4,59.88845297482621,
P,left,Distractor,0,48,48,48,1728.0850425159442,1730.0866452456103,left,1,3,0.6523690307512879,D30N04,2022-11-02_14h41.43.230,t1_Paradigm,2021.1.4,59.88845297482621,
M,right,Target,0,49,49,49,1731.5850595184602,1733.5976523025893,right,1,3,1.029490738757886,D30N04,2022-11-02_14h41.43.230,t1_Paradigm,2021.1.4,59.88845297482621,
K,left,Distractor,0,50,50,50,1735.0851807818399,1737.0864023980685,left,1,3,0.9650668456451967,D30N04,2022-11-02_14h41.43.230,t1_Paradigm,2021.1.4,59.88845297482621,
Y,left,Distractor,0,51,51,51,1738.5849382551387,1740.5870946900104,left,1,3,0.7120267600403167,D30N04,2022-11-02_14h41.43.230,t1_Paradigm,2021.1.4,59.88845297482621,
X,left,Distractor,0,52,52,52,1742.0847685505287,1744.0871691161883,left,1,3,0.8758914301870391,D30N04,2022-11-02_14h41.43.230,t1_Paradigm,2021.1.4,59.88845297482621,
F,left,Pretarget,0,53,53,53,1745.5849549368722,1747.586272793822,left,1,3,0.8491445158142596,D30N04,2022-11-02_14h41.43.230,t1_Paradigm,2021.1.4,59.88845297482621,
M,left,Lure,0,54,54,54,1749.08497578901,1751.0860604225309,left,1,3,1.0291911091189831,D30N04,2022-11-02_14h41.43.230,t1_Paradigm,2021.1.4,59.88845297482621,
V,left,Distractor,0,55,55,55,1752.5850938443327,1754.5853880203213,left,1,3,0.6660749997827224,D30N04,2022-11-02_14h41.43.230,t1_Paradigm,2021.1.4,59.88845297482621,
F,right,Target,0,56,56,56,1756.085053423245,1758.086886809906,right,1,3,1.3403070465428755,D30N04,2022-11-02_14h41.43.230,t1_Paradigm,2021.1.4,59.88845297482621,
S,left,Distractor,0,57,57,57,1759.6014631163562,1761.5867953812121,left,1,3,1.2647217903868295,D30N04,2022-11-02_14h41.43.230,t1_Paradigm,2021.1.4,59.88845297482621,
D,left,Distractor,0,58,58,58,1763.0849148365087,1765.0864662377862,left,1,3,0.9968615885009058,D30N04,2022-11-02_14h41.43.230,t1_Paradigm,2021.1.4,59.88845297482621,
F,right,Target,0,59,59,59,1766.5851086012553,1768.5871524344548,right,1,3,0.9679980187211186,D30N04,2022-11-02_14h41.43.230,t1_Paradigm,2021.1.4,59.88845297482621,
V,left,Pretarget,0,60,60,60,1770.0850457240012,1772.0870901987655,left,1,3,0.6040019479696639,D30N04,2022-11-02_14h41.43.230,t1_Paradigm,2021.1.4,59.88845297482621,
J,left,Distractor,0,61,61,61,1773.5848952675587,1775.5851249622065,None,0,3,,D30N04,2022-11-02_14h41.43.230,t1_Paradigm,2021.1.4,59.88845297482621,
V,left,Lure,0,62,62,62,1777.0851855938672,1779.0869901083643,None,0,3,,D30N04,2022-11-02_14h41.43.230,t1_Paradigm,2021.1.4,59.88845297482621,
V,right,Target,0,63,63,63,1780.5849225358106,1782.5852019548183,left,0,3,1.3859001495875418,D30N04,2022-11-02_14h41.43.230,t1_Paradigm,2021.1.4,59.88845297482621,
R,left,Distractor,0,0,0,0,1826.118298514455,1828.1205008241232,None,0,4,,D30N04,2022-11-02_14h41.43.230,t1_Paradigm,2021.1.4,59.88845297482621,
F,left,Distractor,0,1,1,1,1829.6185256426688,1831.620540603646,left,1,4,0.3826597228180617,D30N04,2022-11-02_14h41.43.230,t1_Paradigm,2021.1.4,59.88845297482621,
P,left,Pretarget,0,2,2,2,1833.1184476876515,1835.1211854168214,left,1,4,0.38605381397064775,D30N04,2022-11-02_14h41.43.230,t1_Paradigm,2021.1.4,59.88845297482621,
H,left,Distractor,0,3,3,3,1836.618489071203,1838.6206612254027,left,1,4,0.5665248291916214,D30N04,2022-11-02_14h41.43.230,t1_Paradigm,2021.1.4,59.88845297482621,
Z,left,Distractor,0,4,4,4,1840.118483938335,1842.1200574749964,left,1,4,1.0831998260109685,D30N04,2022-11-02_14h41.43.230,t1_Paradigm,2021.1.4,59.88845297482621,
T,left,Distractor,0,5,5,5,1843.6185304547544,1845.6207577869645,left,1,4,1.230891555256676,D30N04,2022-11-02_14h41.43.230,t1_Paradigm,2021.1.4,59.88845297482621,
P,right,Target,0,6,6,6,1847.1184999785037,1849.1206897768425,right,1,4,1.0109961497364566,D30N04,2022-11-02_14h41.43.230,t1_Paradigm,2021.1.4,59.88845297482621,
G,left,Distractor,0,7,7,7,1850.6185253218864,1852.619142225245,left,1,4,0.5040867039933801,D30N04,2022-11-02_14h41.43.230,t1_Paradigm,2021.1.4,59.88845297482621,
L,left,Distractor,0,8,8,8,1854.1184406300308,1856.120867822261,left,1,4,0.39449027995578945,D30N04,2022-11-02_14h41.43.230,t1_Paradigm,2021.1.4,59.88845297482621,
P,left,Lure,0,9,9,9,1857.6185403995914,1859.6352202084963,right,0,4,0.8322334082331508,D30N04,2022-11-02_14h41.43.230,t1_Paradigm,2021.1.4,59.88845297482621,
Q,left,Pretarget,0,10,10,10,1861.1185160186142,1863.1194299851195,left,1,4,0.7719343945500441,D30N04,2022-11-02_14h41.43.230,t1_Paradigm,2021.1.4,59.88845297482621,
D,left,Distractor,0,11,11,11,1864.6184993368806,1866.6203349691932,left,1,4,0.6790652583003975,D30N04,2022-11-02_14h41.43.230,t1_Paradigm,2021.1.4,59.88845297482621,
M,left,Pretarget,0,12,12,12,1868.1186446604552,1870.1203510093037,left,1,4,1.242879626515787,D30N04,2022-11-02_14h41.43.230,t1_Paradigm,2021.1.4,59.88845297482621,
C,left,Distractor,0,13,13,13,1871.6183466348448,1873.62054317008,left,1,4,0.9271730043692514,D30N04,2022-11-02_14h41.43.230,t1_Paradigm,2021.1.4,59.88845297482621,
Q,right,Target,0,14,14,14,1875.1184079081286,1877.1207667694543,right,1,4,0.7226302474737167,D30N04,2022-11-02_14h41.43.230,t1_Paradigm,2021.1.4,59.88845297482621,
R,left,Distractor,0,15,15,15,1878.618519868236,1880.6313272693078,left,1,4,0.7478341014357284,D30N04,2022-11-02_14h41.43.230,t1_Paradigm,2021.1.4,59.88845297482621,
M,right,Target,0,16,16,16,1882.1186392068048,1884.120160452614,right,1,4,0.8115310558932833,D30N04,2022-11-02_14h41.43.230,t1_Paradigm,2021.1.4,59.88845297482621,
S,left,Distractor,0,17,17,17,1885.6186045601498,1887.6196590382024,left,1,4,0.7196143824839965,D30N04,2022-11-02_14h41.43.230,t1_Paradigm,2021.1.4,59.88845297482621,
Z,left,Distractor,0,18,18,18,1889.118555156514,1891.1203317611944,left,1,4,0.947088748740498,D30N04,2022-11-02_14h41.43.230,t1_Paradigm,2021.1.4,59.88845297482621,
L,left,Pretarget,0,19,19,19,1892.6185881991987,1894.621306038578,left,1,4,0.789783849613741,D30N04,2022-11-02_14h41.43.230,t1_Paradigm,2021.1.4,59.88845297482621,
M,right,Target,0,20,20,20,1896.1183819231228,1898.1206708495156,right,1,4,0.9067539206589572,D30N04,2022-11-02_14h41.43.230,t1_Paradigm,2021.1.4,59.88845297482621,
P,left,Distractor,0,21,21,21,1899.6186048809323,1901.6196269579232,left,1,4,0.8318436331464909,D30N04,2022-11-02_14h41.43.230,t1_Paradigm,2021.1.4,59.88845297482621,
F,left,Distractor,0,22,22,22,1903.1186199586373,1905.1185808207374,left,1,4,1.1406940628075972,D30N04,2022-11-02_14h41.43.230,t1_Paradigm,2021.1.4,59.88845297482621,
L,right,Target,0,23,23,23,1906.618414645025,1908.6202377660084,left,0,4,0.9351151136215776,D30N04,2022-11-02_14h41.43.230,t1_Paradigm,2021.1.4,59.88845297482621,
L,left,Lure,0,24,24,24,1910.1186786655453,1912.118613863422,left,1,4,1.2128852276946418,D30N04,2022-11-02_14h41.43.230,t1_Paradigm,2021.1.4,59.88845297482621,
V,left,Pretarget,0,25,25,25,1913.6185131313978,1915.6207642030204,left,1,4,1.3746062950231135,D30N04,2022-11-02_14h41.43.230,t1_Paradigm,2021.1.4,59.88845297482621,
Z,left,Distractor,0,26,26,26,1917.1185192266712,1919.120456874196,left,1,4,0.7390168427955359,D30N04,2022-11-02_14h41.43.230,t1_Paradigm,2021.1.4,59.88845297482621,
H,left,Distractor,0,27,27,27,1920.6186998384655,1922.6210647950647,left,1,4,0.6784255779348314,D30N04,2022-11-02_14h41.43.230,t1_Paradigm,2021.1.4,59.88845297482621,
X,left,Distractor,0,28,28,28,1924.1186462644837,1926.1198659558431,left,1,4,0.6035156112047844,D30N04,2022-11-02_14h41.43.230,t1_Paradigm,2021.1.4,59.88845297482621,
V,right,Target,0,29,29,29,1927.6183411811944,1929.6199830487603,right,1,4,0.5115427973214537,D30N04,2022-11-02_14h41.43.230,t1_Paradigm,2021.1.4,59.88845297482621,
C,left,Distractor,0,30,30,30,1931.1187133122003,1933.1204559117905,left,1,4,0.5148990338202566,D30N04,2022-11-02_14h41.43.230,t1_Paradigm,2021.1.4,59.88845297482621,
S,left,Pretarget,0,31,31,31,1934.6184502540855,1936.6195233386825,left,1,4,1.1758431172929704,D30N04,2022-11-02_14h41.43.230,t1_Paradigm,2021.1.4,59.88845297482621,
D,left,Distractor,0,32,32,32,1938.1184621237917,1940.1208110402222,left,1,4,0.7627847844851203,D30N04,2022-11-02_14h41.43.230,t1_Paradigm,2021.1.4,59.88845297482621,
V,left,Distractor,0,33,33,33,1941.618408870534,1943.6206214458798,right,0,4,1.1348740625544451,D30N04,2022-11-02_14h41.43.230,t1_Paradigm,2021.1.4,59.88845297482621,
R,left,Distractor,0,34,34,34,1945.1185115273693,1947.1204623278463,None,0,4,,D30N04,2022-11-02_14h41.43.230,t1_Paradigm,2021.1.4,59.88845297482621,
S,right,Target,0,35,35,35,1948.6185532317031,1950.6203500468982,right,1,4,1.1911887082387693,D30N04,2022-11-02_14h41.43.230,t1_Paradigm,2021.1.4,59.88845297482621,
Y,left,Distractor,0,36,36,36,1952.118598144094,1954.1195656846394,left,1,4,0.7320490109268576,D30N04,2022-11-02_14h41.43.230,t1_Paradigm,2021.1.4,59.88845297482621,
N,left,Pretarget,0,37,37,37,1955.6183139130007,1957.6201973449206,left,1,4,1.231588659225963,D30N04,2022-11-02_14h41.43.230,t1_Paradigm,2021.1.4,59.88845297482621,
Z,left,Pretarget,0,38,38,38,1959.118328349141,1961.1207273107138,left,1,4,0.6907976499642245,D30N04,2022-11-02_14h41.43.230,t1_Paradigm,2021.1.4,59.88845297482621,
P,left,Pretarget,0,39,39,39,1962.618502224097,1964.6312393693952,left,1,4,1.068351799796801,D30N04,2022-11-02_14h41.43.230,t1_Paradigm,2021.1.4,59.88845297482621,
M,left,Distractor,0,40,40,40,1966.118889432808,1968.12036287901,left,1,4,0.7791996104642749,D30N04,2022-11-02_14h41.43.230,t1_Paradigm,2021.1.4,59.88845297482621,
N,right,Target,0,41,41,41,1969.6184056625352,1971.6198649934377,left,0,4,0.9276933461078443,D30N04,2022-11-02_14h41.43.230,t1_Paradigm,2021.1.4,59.88845297482621,
Z,right,Target,0,42,42,42,1973.1187036881456,1975.1205499069183,left,0,4,0.7869408972328529,D30N04,2022-11-02_14h41.43.230,t1_Paradigm,2021.1.4,59.88845297482621,
P,right,Target,0,43,43,43,1976.6186982344952,1978.6208075113827,right,1,4,0.5186216268339194,D30N04,2022-11-02_14h41.43.230,t1_Paradigm,2021.1.4,59.88845297482621,
X,left,Pretarget,0,44,44,44,1980.1185487404582,1982.1207882632152,left,1,4,0.6187078586081043,D30N04,2022-11-02_14h41.43.230,t1_Paradigm,2021.1.4,59.88845297482621,
Z,left,Lure,0,45,45,45,1983.6186927808449,1985.6207484836923,left,1,4,1.4548155994270928,D30N04,2022-11-02_14h41.43.230,t1_Paradigm,2021.1.4,59.88845297482621,
R,left,Pretarget,0,46,46,46,1987.1186959888437,1989.1194585365593,left,1,4,0.7401662783813663,D30N04,2022-11-02_14h41.43.230,t1_Paradigm,2021.1.4,59.88845297482621,
K,left,Distractor,0,47,47,47,1990.618344068469,1992.6207318019588,left,1,4,0.6949539680499583,D30N04,2022-11-02_14h41.43.230,t1_Paradigm,2021.1.4,59.88845297482621,
X,right,Target,0,48,48,48,1994.1187793975114,1996.1206317115575,left,0,4,0.7790337554761209,D30N04,2022-11-02_14h41.43.230,t1_Paradigm,2021.1.4,59.88845297482621,
B,left,Distractor,0,49,49,49,1997.618832650769,1999.6207571453997,left,1,4,0.6388077436713502,D30N04,2022-11-02_14h41.43.230,t1_Paradigm,2021.1.4,59.88845297482621,
R,right,Target,0,50,50,50,2001.1190081297536,2003.1314504574984,right,1,4,0.888076474191621,D30N04,2022-11-02_14h41.43.230,t1_Paradigm,2021.1.4,59.88845297482621,
Y,left,Pretarget,0,51,51,51,2004.6187293523108,2006.6207715814817,left,1,4,1.0629411436384544,D30N04,2022-11-02_14h41.43.230,t1_Paradigm,2021.1.4,59.88845297482621,
W,left,Pretarget,0,52,52,52,2008.1187299939338,2010.1205345083727,left,1,4,0.8910471060080454,D30N04,2022-11-02_14h41.43.230,t1_Paradigm,2021.1.4,59.88845297482621,
Z,left,Distractor,0,53,53,53,2011.6183065345394,2013.6207856967812,left,1,4,0.6388138388865627,D30N04,2022-11-02_14h41.43.230,t1_Paradigm,2021.1.4,59.88845297482621,
Q,left,Distractor,0,54,54,54,2015.118600068905,2017.1214420588803,left,1,4,0.6582384345820174,D30N04,2022-11-02_14h41.43.230,t1_Paradigm,2021.1.4,59.88845297482621,
Y,right,Target,0,55,55,55,2018.6187178034452,2020.620635240397,left,0,4,0.6630398866254836,D30N04,2022-11-02_14h41.43.230,t1_Paradigm,2021.1.4,59.88845297482621,
W,right,Target,0,56,56,56,2022.1188178938464,2024.1191534533282,right,1,4,1.4363944742945023,D30N04,2022-11-02_14h41.43.230,t1_Paradigm,2021.1.4,59.88845297482621,
H,left,Pretarget,0,57,57,57,2025.618851578096,2027.62048959604,left,1,4,1.0230929730460048,D30N04,2022-11-02_14h41.43.230,t1_Paradigm,2021.1.4,59.88845297482621,
M,left,Distractor,0,58,58,58,2029.1187604701845,2031.1196927224519,left,1,4,0.5800033491686918,D30N04,2022-11-02_14h41.43.230,t1_Paradigm,2021.1.4,59.88845297482621,
R,left,Pretarget,0,59,59,59,2032.6022734636208,2034.6041979582515,left,1,4,0.6795009081833996,D30N04,2022-11-02_14h41.43.230,t1_Paradigm,2021.1.4,59.88845297482621,
J,left,Distractor,0,60,60,60,2036.1184197778348,2038.120650959725,left,1,4,0.6349196164519526,D30N04,2022-11-02_14h41.43.230,t1_Paradigm,2021.1.4,59.88845297482621,
H,right,Target,0,61,61,61,2039.6189904856146,2041.6208383084158,left,0,4,1.1347646688227542,D30N04,2022-11-02_14h41.43.230,t1_Paradigm,2021.1.4,59.88845297482621,
Z,left,Distractor,0,62,62,62,2043.1187858135672,2045.1189779743436,left,1,4,1.0286896947654895,D30N04,2022-11-02_14h41.43.230,t1_Paradigm,2021.1.4,59.88845297482621,
R,right,Target,0,63,63,63,2046.6187928712461,2048.6212405948318,left,0,4,0.7421629535965621,D30N04,2022-11-02_14h41.43.230,t1_Paradigm,2021.1.4,59.88845297482621,
J,left,Pretarget,0,0,0,0,2071.07466038235,2073.0873253470636,None,0,4,,D30N04,2022-11-02_14h41.43.230,t1_Paradigm,2021.1.4,59.88845297482621,
G,left,Pretarget,0,1,1,1,2074.58540021081,2076.5876929867663,None,0,4,,D30N04,2022-11-02_14h41.43.230,t1_Paradigm,2021.1.4,59.88845297482621,
Z,left,Distractor,0,2,2,2,2078.0853065364645,2080.086860504118,None,0,4,,D30N04,2022-11-02_14h41.43.230,t1_Paradigm,2021.1.4,59.88845297482621,
F,left,Distractor,0,3,3,3,2081.5854618049343,2083.587147301645,None,0,4,,D30N04,2022-11-02_14h41.43.230,t1_Paradigm,2021.1.4,59.88845297482621,
J,right,Target,0,4,4,4,2085.085685725091,2087.086696573999,right,1,4,0.916957046429161,D30N04,2022-11-02_14h41.43.230,t1_Paradigm,2021.1.4,59.88845297482621,
G,right,Target,0,5,5,5,2088.5855169829447,2090.586608994927,right,1,4,0.8089781090384349,D30N04,2022-11-02_14h41.43.230,t1_Paradigm,2021.1.4,59.88845297482621,
H,left,Distractor,0,6,6,6,2092.0852609825088,2094.0871187502053,left,1,4,0.42870162858162075,D30N04,2022-11-02_14h41.43.230,t1_Paradigm,2021.1.4,59.88845297482621,
P,left,Distractor,0,7,7,7,2095.585326426197,2097.5874055476743,left,1,4,0.6083873190218583,D30N04,2022-11-02_14h41.43.230,t1_Paradigm,2021.1.4,59.88845297482621,
G,left,Lure,0,8,8,8,2099.085583709879,2101.087643903971,left,1,4,1.0441783636342734,D30N04,2022-11-02_14h41.43.230,t1_Paradigm,2021.1.4,59.88845297482621,
S,left,Distractor,0,9,9,9,2102.585330275877,2104.5863882827107,None,0,4,,D30N04,2022-11-02_14h41.43.230,t1_Paradigm,2021.1.4,59.88845297482621,
R,left,Pretarget,0,10,10,10,2106.0857251838315,2108.087287171511,left,1,4,0.6523809004575014,D30N04,2022-11-02_14h41.43.230,t1_Paradigm,2021.1.4,59.88845297482621,
T,left,Pretarget,0,11,11,11,2109.5854900355334,2111.5874604049022,left,1,4,0.5761312621762045,D30N04,2022-11-02_14h41.43.230,t1_Paradigm,2021.1.4,59.88845297482621,
X,left,Distractor,0,12,12,12,2113.085687649902,2115.086469445785,left,1,4,0.5974335152423009,D30N04,2022-11-02_14h41.43.230,t1_Paradigm,2021.1.4,59.88845297482621,
F,left,Pretarget,0,13,13,13,2116.5857489231857,2118.5875473424094,left,1,4,0.5521272097248584,D30N04,2022-11-02_14h41.43.230,t1_Paradigm,2021.1.4,59.88845297482621,
R,right,Target,0,14,14,14,2120.085454426473,2122.086352352868,None,0,4,,D30N04,2022-11-02_14h41.43.230,t1_Paradigm,2021.1.4,59.88845297482621,
T,right,Target,0,15,15,15,2123.5855901259347,2125.5879451376386,left,0,4,0.71979146549711,D30N04,2022-11-02_14h41.43.230,t1_Paradigm,2021.1.4,59.88845297482621,
C,left,Distractor,0,16,16,16,2127.0857591888634,2129.087027000671,left,1,4,0.46859631553525105,D30N04,2022-11-02_14h41.43.230,t1_Paradigm,2021.1.4,59.88845297482621,
F,right,Target,0,17,17,17,2130.585361714533,2132.5872371263104,right,1,4,0.7448596199974418,D30N04,2022-11-02_14h41.43.230,t1_Paradigm,2021.1.4,59.88845297482621,
M,left,Distractor,0,18,18,18,2134.085671289009,2136.087366730557,left,1,4,0.5405199311790057,D30N04,2022-11-02_14h41.43.230,t1_Paradigm,2021.1.4,59.88845297482621,
N,left,Distractor,0,19,19,19,2137.5856475495966,2139.586989466741,left,1,4,0.7848005025298335,D30N04,2022-11-02_14h41.43.230,t1_Paradigm,2021.1.4,59.88845297482621,
R,left,Lure,0,20,20,20,2141.085723579803,2143.0865977667854,left,1,4,0.6132856535259634,D30N04,2022-11-02_14h41.43.230,t1_Paradigm,2021.1.4,59.88845297482621,
F,right,Target,0,21,21,21,2144.5856728929793,2146.5869660481694,right,1,4,0.6326861890265718,D30N04,2022-11-02_14h41.43.230,t1_Paradigm,2021.1.4,59.88845297482621,
P,left,Distractor,0,22,22,22,2148.0855108877295,2150.086754318443,left,1,4,0.7170222977292724,D30N04,2022-11-02_14h41.43.230,t1_Paradigm,2021.1.4,59.88845297482621,
L,left,Pretarget,0,23,23,23,2151.5853883411037,2153.5872201237944,left,1,4,1.3607925363467075,D30N04,2022-11-02_14h41.43.230,t1_Paradigm,2021.1.4,59.88845297482621,
T,left,Distractor,0,24,24,24,2155.0849838090944,2157.08783125272,left,1,4,1.075974068895448,D30N04,2022-11-02_14h41.43.230,t1_Paradigm,2021.1.4,59.88845297482621,
F,left,Distractor,0,25,25,25,2158.5848355983035,2160.5870314919157,left,1,4,0.9207341759465635,D30N04,2022-11-02_14h41.43.230,t1_Paradigm,2021.1.4,59.88845297482621,
V,left,Distractor,0,26,26,26,2162.0856716097915,2164.0866375463083,left,1,4,0.6371626681066118,D30N04,2022-11-02_14h41.43.230,t1_Paradigm,2021.1.4,59.88845297482621,
L,right,Target,0,27,27,27,2165.5854810530436,2167.5859766930225,right,1,4,0.4017878968734294,D30N04,2022-11-02_14h41.43.230,t1_Paradigm,2021.1.4,59.88845297482621,
S,left,Pretarget,0,28,28,28,2169.085683158657,2171.0864091349067,left,1,4,0.7415165364509448,D30N04,2022-11-02_14h41.43.230,t1_Paradigm,2021.1.4,59.88845297482621,
W,left,Distractor,0,29,29,29,2172.585581143445,2174.5877856987063,left,1,4,0.5679597790585831,D30N04,2022-11-02_14h41.43.230,t1_Paradigm,2021.1.4,59.88845297482621,
Q,left,Distractor,0,30,30,30,2176.085628943052,2178.0870882739546,left,1,4,0.5089285771246068,D30N04,2022-11-02_14h41.43.230,t1_Paradigm,2021.1.4,59.88845297482621,
L,right,Target,0,31,31,31,2179.5856526824646,2181.5876153525896,right,1,4,0.448297853639815,D30N04,2022-11-02_14h41.43.230,t1_Paradigm,2021.1.4,59.88845297482621,
S,right,Target,0,32,32,32,2183.0856802714407,2185.0872339183115,left,0,4,0.7087757468107156,D30N04,2022-11-02_14h41.43.230,t1_Paradigm,2021.1.4,59.88845297482621,
Z,left,Pretarget,0,33,33,33,2186.5858262366382,2188.5878296486917,left,1,4,1.1441760539310053,D30N04,2022-11-02_14h41.43.230,t1_Paradigm,2021.1.4,59.88845297482621,
F,left,Distractor,0,34,34,34,2190.085714918154,2192.087613748561,left,1,4,0.5723525286302902,D30N04,2022-11-02_14h41.43.230,t1_Paradigm,2021.1.4,59.88845297482621,
V,left,Distractor,0,35,35,35,2193.5858512592386,2195.586580443487,left,1,4,0.7212639492936432,D30N04,2022-11-02_14h41.43.230,t1_Paradigm,2021.1.4,59.88845297482621,
M,left,Distractor,0,36,36,36,2197.0856116196956,2199.08753868076,left,1,4,0.9646712960675359,D30N04,2022-11-02_14h41.43.230,t1_Paradigm,2021.1.4,59.88845297482621,
Z,right,Target,0,37,37,37,2200.58580506366,2202.5866802130477,right,1,4,1.1293716568616219,D30N04,2022-11-02_14h41.43.230,t1_Paradigm,2021.1.4,59.88845297482621,
H,left,Pretarget,0,38,38,38,2204.085492281127,2206.086998449231,left,1,4,0.5569485516170971,D30N04,2022-11-02_14h41.43.230,t1_Paradigm,2021.1.4,59.88845297482621,
L,left,Distractor,0,39,39,39,2207.585746998375,2209.587830611097,left,1,4,0.6241919784806669,D30N04,2022-11-02_14h41.43.230,t1_Paradigm,2021.1.4,59.88845297482621,
G,left,Distractor,0,40,40,40,2211.085490356316,2213.0863026284496,left,1,4,0.45357024390250444,D30N04,2022-11-02_14h41.43.230,t1_Paradigm,2021.1.4,59.88845297482621,
K,left,Distractor,0,41,41,41,2214.5857415447244,2216.5876179189654,left,1,4,0.6644004103727639,D30N04,2022-11-02_14h41.43.230,t1_Paradigm,2021.1.4,59.88845297482621,
H,right,Target,0,42,42,42,2218.08553591033,2220.0865291150403,right,1,4,1.229586209577974,D30N04,2022-11-02_14h41.43.230,t1_Paradigm,2021.1.4,59.88845297482621,
B,left,Distractor,0,43,43,43,2221.585723579803,2223.5866250350373,left,1,4,0.577214291668497,D30N04,2022-11-02_14h41.43.230,t1_Paradigm,2021.1.4,59.88845297482621,
Z,left,Distractor,0,44,44,44,2225.085871790594,2227.087621447805,left,1,4,0.4202282702899538,D30N04,2022-11-02_14h41.43.230,t1_Paradigm,2021.1.4,59.88845297482621,
T,left,Pretarget,0,45,45,45,2228.585818216554,2230.5876702098176,left,1,4,0.39235790533712134,D30N04,2022-11-02_14h41.43.230,t1_Paradigm,2021.1.4,59.88845297482621,
H,right,Target,0,46,46,46,2232.085490356316,2234.086671230616,left,0,4,0.5574082616949454,D30N04,2022-11-02_14h41.43.230,t1_Paradigm,2021.1.4,59.88845297482621,
F,left,Distractor,0,47,47,47,2235.5858021764434,2237.5872913419735,left,1,4,0.8324512331746519,D30N04,2022-11-02_14h41.43.230,t1_Paradigm,2021.1.4,59.88845297482621,
R,left,Distractor,0,48,48,48,2239.0857845323044,2241.0984421185567,left,1,4,0.6176065433537588,D30N04,2022-11-02_14h41.43.230,t1_Paradigm,2021.1.4,59.88845297482621,
T,right,Target,0,49,49,49,2242.585506717267,2244.5859635401284,right,1,4,0.8577378542395309,D30N04,2022-11-02_14h41.43.230,t1_Paradigm,2021.1.4,59.88845297482621,
H,right,Target,0,50,50,50,2246.0855246821884,2248.0880144309485,right,1,4,0.7961671791854315,D30N04,2022-11-02_14h41.43.230,t1_Paradigm,2021.1.4,59.88845297482621,
Y,left,Pretarget,0,51,51,51,2249.585820782988,2251.587319893413,left,1,4,0.7365986329969019,D30N04,2022-11-02_14h41.43.230,t1_Paradigm,2021.1.4,59.88845297482621,
H,left,Distractor,0,52,52,52,2253.085894567601,2255.0876727762516,left,1,4,1.0124394405283965,D30N04,2022-11-02_14h41.43.230,t1_Paradigm,2021.1.4,59.88845297482621,
S,left,Distractor,0,53,53,53,2256.5857755498146,2258.587296795624,left,1,4,0.7607518585864455,D30N04,2022-11-02_14h41.43.230,t1_Paradigm,2021.1.4,59.88845297482621,
Q,left,Distractor,0,54,54,54,2260.0859863171354,2262.0866256766603,left,1,4,0.6054125168011524,D30N04,2022-11-02_14h41.43.230,t1_Paradigm,2021.1.4,59.88845297482621,
Y,right,Target,0,55,55,55,2263.5859211941715,2265.586750789662,left,0,4,1.0093898912891746,D30N04,2022-11-02_14h41.43.230,t1_Paradigm,2021.1.4,59.88845297482621,
R,left,Distractor,0,56,56,56,2267.0857983268215,2269.087642300001,left,1,4,1.3646787386387587,D30N04,2022-11-02_14h41.43.230,t1_Paradigm,2021.1.4,59.88845297482621,
H,left,Pretarget,0,57,57,57,2270.5858076300938,2272.58709821885,left,1,4,0.888683111872524,D30N04,2022-11-02_14h41.43.230,t1_Paradigm,2021.1.4,59.88845297482621,
J,left,Distractor,0,58,58,58,2274.085816933366,2276.088057097688,None,0,4,,D30N04,2022-11-02_14h41.43.230,t1_Paradigm,2021.1.4,59.88845297482621,
V,left,Distractor,0,59,59,59,2277.585966427345,2279.587259582535,left,1,4,0.8968895624275319,D30N04,2022-11-02_14h41.43.230,t1_Paradigm,2021.1.4,59.88845297482621,
Y,left,Lure,0,60,60,60,2281.085857996077,2283.085471428989,None,0,4,,D30N04,2022-11-02_14h41.43.230,t1_Paradigm,2021.1.4,59.88845297482621,
H,right,Target,0,61,61,61,2284.585971560213,2286.5867597720935,left,0,4,0.8410291731124744,D30N04,2022-11-02_14h41.43.230,t1_Paradigm,2021.1.4,59.88845297482621,
L,left,Distractor,0,62,62,62,2288.085893284355,2290.087903754087,left,1,4,0.6360498039866798,D30N04,2022-11-02_14h41.43.230,t1_Paradigm,2021.1.4,59.88845297482621,
P,left,Distractor,0,63,63,63,2291.5855320606497,2293.5879987116205,left,1,4,0.7998814313905314,D30N04,2022-11-02_14h41.43.230,t1_Paradigm,2021.1.4,59.88845297482621,
