Letter,CorrAnswer,Stimulus,nback_run.thisRepN,nback_run.thisTrialN,nback_run.thisN,nback_run.thisIndex,fixcross.started,nback_trial.started,trial_resp.keys,trial_resp.corr,currentlevel,trial_resp.rt,Participant,date,expName,psychopyVersion,frameRate,
H,left,Distractor,0,0,0,0,280.22628932155203,282.16304790670983,None,0,1,,E02L11,2022-11-04_09h07.58.402,t1_Paradigm,2021.1.4,59.98826094121495,
Q,left,Pretarget,0,1,1,1,283.66394390829373,285.6643397785956,left,1,1,0.8205748011823744,E02L11,2022-11-04_09h07.58.402,t1_Paradigm,2021.1.4,59.98826094121495,
Q,right,Target,0,2,2,2,287.16156323242467,289.16168417490553,right,1,1,0.8591647840803489,E02L11,2022-11-04_09h07.58.402,t1_Paradigm,2021.1.4,59.98826094121495,
T,left,Distractor,0,3,3,3,290.6616905910196,292.66340495995246,left,1,1,0.8135415256256238,E02L11,2022-11-04_09h07.58.402,t1_Paradigm,2021.1.4,59.98826094121495,
Q,left,Lure,0,4,4,4,294.161492335028,296.16304213227704,left,1,1,1.4096729032462463,E02L11,2022-11-04_09h07.58.402,t1_Paradigm,2021.1.4,59.98826094121495,
L,left,Distractor,0,5,5,5,297.6615988414269,299.6632682980271,left,1,1,1.0296822579111904,E02L11,2022-11-04_09h07.58.402,t1_Paradigm,2021.1.4,59.98826094121495,
V,left,Pretarget,0,6,6,6,301.1608369353926,303.1645659444621,left,1,1,0.6803670751396567,E02L11,2022-11-04_09h07.58.402,t1_Paradigm,2021.1.4,59.98826094121495,
V,right,Target,0,7,7,7,304.6616745508509,306.66160397429485,right,1,1,0.8313136672368273,E02L11,2022-11-04_09h07.58.402,t1_Paradigm,2021.1.4,59.98826094121495,
K,left,Distractor,0,8,8,8,308.1616761549376,310.1644116383977,left,1,1,0.6884577159071341,E02L11,2022-11-04_09h07.58.402,t1_Paradigm,2021.1.4,59.98826094121495,
G,left,Pretarget,0,9,9,9,311.6617082351586,313.66404816904105,left,1,1,0.7888137426925823,E02L11,2022-11-04_09h07.58.402,t1_Paradigm,2021.1.4,59.98826094121495,
G,right,Target,0,10,10,10,315.1617262001382,317.16161712724715,None,0,1,,E02L11,2022-11-04_09h07.58.402,t1_Paradigm,2021.1.4,59.98826094121495,
G,right,Target,0,11,11,11,318.661760846735,320.66170631034765,right,1,1,0.687127347686328,E02L11,2022-11-04_09h07.58.402,t1_Paradigm,2021.1.4,59.98826094121495,
P,left,Pretarget,0,12,12,12,322.1616443954408,324.16347938613035,left,1,1,0.5614263138268143,E02L11,2022-11-04_09h07.58.402,t1_Paradigm,2021.1.4,59.98826094121495,
P,right,Target,0,13,13,13,325.66160814475734,327.6615840845043,right,1,1,0.6473613026319072,E02L11,2022-11-04_09h07.58.402,t1_Paradigm,2021.1.4,59.98826094121495,
G,left,Lure,0,14,14,14,329.1617056686664,331.1634614211507,left,1,1,0.7139178912620991,E02L11,2022-11-04_09h07.58.402,t1_Paradigm,2021.1.4,59.98826094121495,
Y,left,Distractor,0,15,15,15,332.6617082351586,334.6636275969213,left,1,1,0.5091986929764971,E02L11,2022-11-04_09h07.58.402,t1_Paradigm,2021.1.4,59.98826094121495,
B,left,Distractor,0,16,16,16,336.1616164855659,338.1635425842833,left,1,1,0.9614523630589247,E02L11,2022-11-04_09h07.58.402,t1_Paradigm,2021.1.4,59.98826094121495,
T,left,Pretarget,0,17,17,17,339.6616588315228,341.6623809580924,left,1,1,0.5664433453930542,E02L11,2022-11-04_09h07.58.402,t1_Paradigm,2021.1.4,59.98826094121495,
T,right,Target,0,18,18,18,343.1617364657577,345.1616819293704,right,1,1,0.7156242401106283,E02L11,2022-11-04_09h07.58.402,t1_Paradigm,2021.1.4,59.98826094121495,
S,left,Distractor,0,19,19,19,346.66178811492864,348.6639342842391,left,1,1,0.5410393105121329,E02L11,2022-11-04_09h07.58.402,t1_Paradigm,2021.1.4,59.98826094121495,
T,left,Lure,0,20,20,20,350.16165530274156,352.16393813386094,right,0,1,0.8008688617264852,E02L11,2022-11-04_09h07.58.402,t1_Paradigm,2021.1.4,59.98826094121495,
J,left,Distractor,0,21,21,21,353.66168866620865,355.6631245785393,left,1,1,0.9018312052357942,E02L11,2022-11-04_09h07.58.402,t1_Paradigm,2021.1.4,59.98826094121495,
P,left,Distractor,0,22,22,22,357.16150484629907,359.1637225544546,left,1,1,0.6813734327442944,E02L11,2022-11-04_09h07.58.402,t1_Paradigm,2021.1.4,59.98826094121495,
F,left,Distractor,0,23,23,23,360.66168032528367,362.6635374514153,left,1,1,0.5894301327643916,E02L11,2022-11-04_09h07.58.402,t1_Paradigm,2021.1.4,59.98826094121495,
L,left,Distractor,0,24,24,24,364.16179388947785,366.16348965186626,left,1,1,0.5455093735363334,E02L11,2022-11-04_09h07.58.402,t1_Paradigm,2021.1.4,59.98826094121495,
W,left,Pretarget,0,25,25,25,367.661693478236,369.66322659375146,left,1,1,0.6458086181664839,E02L11,2022-11-04_09h07.58.402,t1_Paradigm,2021.1.4,59.98826094121495,
W,right,Target,0,26,26,26,371.16180543834344,373.16162001446355,right,1,1,0.6032464578747749,E02L11,2022-11-04_09h07.58.402,t1_Paradigm,2021.1.4,59.98826094121495,
V,left,Distractor,0,27,27,27,374.66172395448666,376.66337384213693,left,1,1,0.7817095697391778,E02L11,2022-11-04_09h07.58.402,t1_Paradigm,2021.1.4,59.98826094121495,
W,left,Lure,0,28,28,28,378.16178971901536,380.1638675573049,left,1,1,0.9771511576836929,E02L11,2022-11-04_09h07.58.402,t1_Paradigm,2021.1.4,59.98826094121495,
R,left,Pretarget,0,29,29,29,381.66171336802654,383.663982725353,left,1,1,0.6610582892317325,E02L11,2022-11-04_09h07.58.402,t1_Paradigm,2021.1.4,59.98826094121495,
R,right,Target,0,30,30,30,385.16159691661596,387.1617229920812,right,1,1,0.7157387665938586,E02L11,2022-11-04_09h07.58.402,t1_Paradigm,2021.1.4,59.98826094121495,
G,left,Distractor,0,31,31,31,388.6617345409468,390.6635252608685,left,1,1,0.6054766773013398,E02L11,2022-11-04_09h07.58.402,t1_Paradigm,2021.1.4,59.98826094121495,
R,left,Lure,0,32,32,32,392.16175603470765,394.1637094016187,left,1,1,0.673328987439163,E02L11,2022-11-04_09h07.58.402,t1_Paradigm,2021.1.4,59.98826094121495,
S,left,Distractor,0,33,33,33,395.6616662100423,397.6634768197546,left,1,1,0.6934259854024276,E02L11,2022-11-04_09h07.58.402,t1_Paradigm,2021.1.4,59.98826094121495,
R,left,Lure,0,34,34,34,399.1617566763889,401.1638528003823,left,1,1,0.9690942011075094,E02L11,2022-11-04_09h07.58.402,t1_Paradigm,2021.1.4,59.98826094121495,
P,left,Pretarget,0,35,35,35,402.66170470626093,404.66334176179953,left,1,1,0.7979065707186237,E02L11,2022-11-04_09h07.58.402,t1_Paradigm,2021.1.4,59.98826094121495,
P,right,Target,0,36,36,36,406.1610024694819,408.1619026415283,right,1,1,0.7229940375545993,E02L11,2022-11-04_09h07.58.402,t1_Paradigm,2021.1.4,59.98826094121495,
Y,left,Pretarget,0,37,37,37,409.6617746412521,411.6634097719798,left,1,1,0.5174952889792621,E02L11,2022-11-04_09h07.58.402,t1_Paradigm,2021.1.4,59.98826094121495,
Y,right,Target,0,38,38,38,413.16166973882355,415.16189173422754,right,1,1,0.6832648847484961,E02L11,2022-11-04_09h07.58.402,t1_Paradigm,2021.1.4,59.98826094121495,
J,left,Distractor,0,39,39,39,416.66187601489946,418.66368854942266,left,1,1,0.5733345054322854,E02L11,2022-11-04_09h07.58.402,t1_Paradigm,2021.1.4,59.98826094121495,
Y,left,Lure,0,40,40,40,420.16176309238654,422.1633119272301,left,1,1,0.8015925922663882,E02L11,2022-11-04_09h07.58.402,t1_Paradigm,2021.1.4,59.98826094121495,
T,left,Distractor,0,41,41,41,423.66131043992937,425.6635621532332,left,1,1,0.6615337185794488,E02L11,2022-11-04_09h07.58.402,t1_Paradigm,2021.1.4,59.98826094121495,
V,left,Distractor,0,42,42,42,427.1609527451219,429.1622305017663,left,1,1,0.650715293479152,E02L11,2022-11-04_09h07.58.402,t1_Paradigm,2021.1.4,59.98826094121495,
N,left,Pretarget,0,43,43,43,430.6618035135325,432.66338859905954,left,1,1,0.733543309266679,E02L11,2022-11-04_09h07.58.402,t1_Paradigm,2021.1.4,59.98826094121495,
N,right,Target,0,44,44,44,434.1618837141432,436.161950761918,right,1,1,0.5631634598830715,E02L11,2022-11-04_09h07.58.402,t1_Paradigm,2021.1.4,59.98826094121495,
N,right,Target,0,45,45,45,437.66180415509734,439.6617335785413,right,1,1,0.8873581972438842,E02L11,2022-11-04_09h07.58.402,t1_Paradigm,2021.1.4,59.98826094121495,
X,left,Distractor,0,46,46,46,441.1618269321043,443.1641864350531,left,1,1,0.6327500287443399,E02L11,2022-11-04_09h07.58.402,t1_Paradigm,2021.1.4,59.98826094121495,
Z,left,Distractor,0,47,47,47,444.66178683179896,446.6637488602428,left,1,1,0.6533064157702029,E02L11,2022-11-04_09h07.58.402,t1_Paradigm,2021.1.4,59.98826094121495,
H,left,Pretarget,0,48,48,48,448.1618971878197,450.1639670060249,left,1,1,0.673162811785005,E02L11,2022-11-04_09h07.58.402,t1_Paradigm,2021.1.4,59.98826094121495,
H,right,Target,0,49,49,49,451.66194915783126,453.6618208368309,right,1,1,0.695187512319535,E02L11,2022-11-04_09h07.58.402,t1_Paradigm,2021.1.4,59.98826094121495,
K,left,Distractor,0,50,50,50,455.16179421020206,457.1634951054584,left,1,1,0.6495110006071627,E02L11,2022-11-04_09h07.58.402,t1_Paradigm,2021.1.4,59.98826094121495,
V,left,Pretarget,0,51,51,51,458.660995411803,460.66384927148465,left,1,1,0.5573017552960664,E02L11,2022-11-04_09h07.58.402,t1_Paradigm,2021.1.4,59.98826094121495,
V,right,Target,0,52,52,52,462.1619568571914,464.1619218896376,right,1,1,0.7071184806991369,E02L11,2022-11-04_09h07.58.402,t1_Paradigm,2021.1.4,59.98826094121495,
R,left,Distractor,0,53,53,53,465.66186125797685,467.6636134815635,left,1,1,1.2374801983824,E02L11,2022-11-04_09h07.58.402,t1_Paradigm,2021.1.4,59.98826094121495,
V,left,Lure,0,54,54,54,469.16185548354406,471.16369849431794,left,1,1,0.9374335538595915,E02L11,2022-11-04_09h07.58.402,t1_Paradigm,2021.1.4,59.98826094121495,
Y,left,Distractor,0,55,55,55,472.6618532378925,474.66327214764897,left,1,1,0.9261287919944152,E02L11,2022-11-04_09h07.58.402,t1_Paradigm,2021.1.4,59.98826094121495,
Q,left,Distractor,0,56,56,56,476.16196070681326,478.16387108608615,left,1,1,0.5932085454696789,E02L11,2022-11-04_09h07.58.402,t1_Paradigm,2021.1.4,59.98826094121495,
Z,left,Pretarget,0,57,57,57,479.66199150378816,481.6639840085991,left,1,1,0.5650905208894983,E02L11,2022-11-04_09h07.58.402,t1_Paradigm,2021.1.4,59.98826094121495,
Z,right,Target,0,58,58,58,483.1619055287447,485.16190649115015,right,1,1,0.859228623798117,E02L11,2022-11-04_09h07.58.402,t1_Paradigm,2021.1.4,59.98826094121495,
B,left,Distractor,0,59,59,59,486.66195878200233,488.6634623835562,left,1,1,0.6696079985704273,E02L11,2022-11-04_09h07.58.402,t1_Paradigm,2021.1.4,59.98826094121495,
S,left,Pretarget,0,60,60,60,490.1619908622233,492.16392690571956,left,1,1,0.5453242703806609,E02L11,2022-11-04_09h07.58.402,t1_Paradigm,2021.1.4,59.98826094121495,
S,right,Target,0,61,61,61,493.66180992953014,495.66198380454443,right,1,1,0.7432045994792134,E02L11,2022-11-04_09h07.58.402,t1_Paradigm,2021.1.4,59.98826094121495,
T,left,Distractor,0,62,62,62,497.16189622541424,499.1631803981727,left,1,1,0.7140558363171294,E02L11,2022-11-04_09h07.58.402,t1_Paradigm,2021.1.4,59.98826094121495,
D,left,Distractor,0,63,63,63,500.6618426514324,502.6640029359842,left,1,1,0.5891827939776704,E02L11,2022-11-04_09h07.58.402,t1_Paradigm,2021.1.4,59.98826094121495,
R,left,Distractor,0,0,0,0,523.1034662075108,525.0966308672214,None,0,1,,E02L11,2022-11-04_09h07.58.402,t1_Paradigm,2021.1.4,59.98826094121495,
V,left,Distractor,0,1,1,1,526.5950214007171,528.597338557709,left,1,1,0.5439214007928967,E02L11,2022-11-04_09h07.58.402,t1_Paradigm,2021.1.4,59.98826094121495,
N,left,Pretarget,0,2,2,2,530.095420479076,532.0970790283754,right,0,1,0.7561643817462027,E02L11,2022-11-04_09h07.58.402,t1_Paradigm,2021.1.4,59.98826094121495,
N,right,Target,0,3,3,3,533.5952485288726,535.5953290503239,right,1,1,0.8259302793303505,E02L11,2022-11-04_09h07.58.402,t1_Paradigm,2021.1.4,59.98826094121495,
S,left,Distractor,0,4,4,4,537.0954307448119,539.0966440200573,left,1,1,0.7165025974391028,E02L11,2022-11-04_09h07.58.402,t1_Paradigm,2021.1.4,59.98826094121495,
N,left,Lure,0,5,5,5,540.5951647994807,542.5972179358359,left,1,1,0.6399918259121478,E02L11,2022-11-04_09h07.58.402,t1_Paradigm,2021.1.4,59.98826094121495,
Z,left,Distractor,0,6,6,6,544.0953091606498,546.0972375049023,left,1,1,0.6440689057344571,E02L11,2022-11-04_09h07.58.402,t1_Paradigm,2021.1.4,59.98826094121495,
L,left,Pretarget,0,7,7,7,547.5953107646201,549.5971290735761,left,1,1,0.7600454513449222,E02L11,2022-11-04_09h07.58.402,t1_Paradigm,2021.1.4,59.98826094121495,
L,right,Target,0,8,8,8,551.0953380328137,553.0954471057048,right,1,1,0.7336793296271935,E02L11,2022-11-04_09h07.58.402,t1_Paradigm,2021.1.4,59.98826094121495,
H,left,Distractor,0,9,9,9,554.5954002685612,556.5968637698097,left,1,1,0.8322776790009812,E02L11,2022-11-04_09h07.58.402,t1_Paradigm,2021.1.4,59.98826094121495,
L,left,Lure,0,10,10,10,558.0953454113333,560.0968464465113,left,1,1,1.220399707206525,E02L11,2022-11-04_09h07.58.402,t1_Paradigm,2021.1.4,59.98826094121495,
X,left,Pretarget,0,11,11,11,561.5953332207864,563.5969099653885,left,1,1,0.648465825826861,E02L11,2022-11-04_09h07.58.402,t1_Paradigm,2021.1.4,59.98826094121495,
X,right,Target,0,12,12,12,565.0953588850098,567.095510624582,right,1,1,0.6538190584396943,E02L11,2022-11-04_09h07.58.402,t1_Paradigm,2021.1.4,59.98826094121495,
X,right,Target,0,13,13,13,568.5950836363481,570.5953582434449,right,1,1,0.5459533642278984,E02L11,2022-11-04_09h07.58.402,t1_Paradigm,2021.1.4,59.98826094121495,
R,left,Distractor,0,14,14,14,572.0945960164536,574.096499338164,left,1,1,0.5648794327862561,E02L11,2022-11-04_09h07.58.402,t1_Paradigm,2021.1.4,59.98826094121495,
T,left,Distractor,0,15,15,15,575.5953351455973,577.5972195399227,left,1,1,0.7281727534718812,E02L11,2022-11-04_09h07.58.402,t1_Paradigm,2021.1.4,59.98826094121495,
V,left,Pretarget,0,16,16,16,579.0952263935469,581.0972233895445,left,1,1,0.7000184783246368,E02L11,2022-11-04_09h07.58.402,t1_Paradigm,2021.1.4,59.98826094121495,
V,right,Target,0,17,17,17,582.595400910126,584.5953960980987,right,1,1,0.5139452876755968,E02L11,2022-11-04_09h07.58.402,t1_Paradigm,2021.1.4,59.98826094121495,
N,left,Distractor,0,18,18,18,586.095309481374,588.0972375049023,left,1,1,0.7241239042486995,E02L11,2022-11-04_09h07.58.402,t1_Paradigm,2021.1.4,59.98826094121495,
B,left,Distractor,0,19,19,19,589.5949803380063,591.5972342968453,left,1,1,0.48812388884834945,E02L11,2022-11-04_09h07.58.402,t1_Paradigm,2021.1.4,59.98826094121495,
V,left,Lure,0,20,20,20,593.0953704338754,595.0971627578838,left,1,1,0.6201360715785995,E02L11,2022-11-04_09h07.58.402,t1_Paradigm,2021.1.4,59.98826094121495,
P,left,Distractor,0,21,21,21,596.5953794163652,598.5971784772119,left,1,1,0.4804740307154134,E02L11,2022-11-04_09h07.58.402,t1_Paradigm,2021.1.4,59.98826094121495,
K,left,Pretarget,0,22,22,22,600.0953919276362,602.0967944764998,left,1,1,0.4684817889938131,E02L11,2022-11-04_09h07.58.402,t1_Paradigm,2021.1.4,59.98826094121495,
K,right,Target,0,23,23,23,603.5954054013127,605.5953357871622,right,1,1,0.6501798740355298,E02L11,2022-11-04_09h07.58.402,t1_Paradigm,2021.1.4,59.98826094121495,
J,left,Pretarget,0,24,24,24,607.095262965071,609.0973231591051,left,1,1,0.9240859212586656,E02L11,2022-11-04_09h07.58.402,t1_Paradigm,2021.1.4,59.98826094121495,
J,right,Target,0,25,25,25,610.5955321183428,612.5955016420921,right,1,1,0.8018120211781934,E02L11,2022-11-04_09h07.58.402,t1_Paradigm,2021.1.4,59.98826094121495,
H,left,Distractor,0,26,26,26,614.0953960980987,616.0972631690092,left,1,1,0.6281968777766451,E02L11,2022-11-04_09h07.58.402,t1_Paradigm,2021.1.4,59.98826094121495,
J,left,Lure,0,27,27,27,617.595460900222,619.5965384760639,left,1,1,0.7448746977606788,E02L11,2022-11-04_09h07.58.402,t1_Paradigm,2021.1.4,59.98826094121495,
V,left,Distractor,0,28,28,28,621.0953582434449,623.0970694043208,left,1,1,0.556360199698247,E02L11,2022-11-04_09h07.58.402,t1_Paradigm,2021.1.4,59.98826094121495,
Z,left,Pretarget,0,29,29,29,624.5956097525777,626.5958423344418,left,1,1,0.5296107189496979,E02L11,2022-11-04_09h07.58.402,t1_Paradigm,2021.1.4,59.98826094121495,
Z,right,Target,0,30,30,30,628.0953871156089,630.0956565897213,right,1,1,0.6138367922976613,E02L11,2022-11-04_09h07.58.402,t1_Paradigm,2021.1.4,59.98826094121495,
T,left,Distractor,0,31,31,31,631.5955869755708,633.5969568026485,left,1,1,0.5044222633587196,E02L11,2022-11-04_09h07.58.402,t1_Paradigm,2021.1.4,59.98826094121495,
Z,left,Lure,0,32,32,32,635.0954086093698,637.0975807636278,left,1,1,0.6357553071575239,E02L11,2022-11-04_09h07.58.402,t1_Paradigm,2021.1.4,59.98826094121495,
F,left,Distractor,0,33,33,33,638.5955840883544,640.5972561114468,left,1,1,0.5760215477785096,E02L11,2022-11-04_09h07.58.402,t1_Paradigm,2021.1.4,59.98826094121495,
Y,left,Pretarget,0,34,34,34,642.0945228735218,644.0969179854728,left,1,1,0.5164196379482746,E02L11,2022-11-04_09h07.58.402,t1_Paradigm,2021.1.4,59.98826094121495,
Y,right,Target,0,35,35,35,645.5955484793521,647.5954631458735,right,1,1,0.458006301894784,E02L11,2022-11-04_09h07.58.402,t1_Paradigm,2021.1.4,59.98826094121495,
Y,right,Target,0,36,36,36,649.0954923388781,651.0951914259931,right,1,1,0.6542370640672743,E02L11,2022-11-04_09h07.58.402,t1_Paradigm,2021.1.4,59.98826094121495,
W,left,Distractor,0,37,37,37,652.5955019629328,654.5972750387155,left,1,1,0.5441976117435843,E02L11,2022-11-04_09h07.58.402,t1_Paradigm,2021.1.4,59.98826094121495,
Q,left,Distractor,0,38,38,38,656.0955058125546,658.097510507796,left,1,1,0.5960454025771469,E02L11,2022-11-04_09h07.58.402,t1_Paradigm,2021.1.4,59.98826094121495,
P,left,Pretarget,0,39,39,39,659.5954503137618,661.5976539065596,left,1,1,0.6317061370937154,E02L11,2022-11-04_09h07.58.402,t1_Paradigm,2021.1.4,59.98826094121495,
P,right,Target,0,40,40,40,663.0954390856205,665.0954862436047,right,1,1,0.6699028160655871,E02L11,2022-11-04_09h07.58.402,t1_Paradigm,2021.1.4,59.98826094121495,
J,left,Distractor,0,41,41,41,666.5954714866821,668.5962151070125,left,1,1,0.6253157500177622,E02L11,2022-11-04_09h07.58.402,t1_Paradigm,2021.1.4,59.98826094121495,
P,left,Lure,0,42,42,42,670.0955099830171,672.0975727435434,left,1,1,1.3317595828557387,E02L11,2022-11-04_09h07.58.402,t1_Paradigm,2021.1.4,59.98826094121495,
L,left,Distractor,0,43,43,43,673.5956014117692,675.5972817755537,left,1,1,0.5521377963013947,E02L11,2022-11-04_09h07.58.402,t1_Paradigm,2021.1.4,59.98826094121495,
Z,left,Distractor,0,44,44,44,677.0954775819555,679.0969773340039,left,1,1,0.6364196893991902,E02L11,2022-11-04_09h07.58.402,t1_Paradigm,2021.1.4,59.98826094121495,
F,left,Pretarget,0,45,45,45,680.5955658026505,682.5973183470778,left,1,1,0.5282957492163405,E02L11,2022-11-04_09h07.58.402,t1_Paradigm,2021.1.4,59.98826094121495,
F,right,Target,0,46,46,46,684.095481752418,686.0956367000472,right,1,1,0.5660830839769915,E02L11,2022-11-04_09h07.58.402,t1_Paradigm,2021.1.4,59.98826094121495,
G,left,Pretarget,0,47,47,47,687.5954483889509,689.5963581850519,left,1,1,0.7933338509174064,E02L11,2022-11-04_09h07.58.402,t1_Paradigm,2021.1.4,59.98826094121495,
G,right,Target,0,48,48,48,691.0955568201607,693.0955475169467,right,1,1,0.8141074213199317,E02L11,2022-11-04_09h07.58.402,t1_Paradigm,2021.1.4,59.98826094121495,
V,left,Distractor,0,49,49,49,694.5955045293085,696.5973844324471,left,1,1,0.6880788481794298,E02L11,2022-11-04_09h07.58.402,t1_Paradigm,2021.1.4,59.98826094121495,
G,left,Lure,0,50,50,50,698.0955558577552,700.097364221816,left,1,1,0.7561932540265843,E02L11,2022-11-04_09h07.58.402,t1_Paradigm,2021.1.4,59.98826094121495,
Q,left,Pretarget,0,51,51,51,701.5955045293085,703.5973058358068,left,1,1,0.6644623252796009,E02L11,2022-11-04_09h07.58.402,t1_Paradigm,2021.1.4,59.98826094121495,
Q,right,Target,0,52,52,52,705.0955173614202,707.0955240983749,left,0,1,1.405992976971902,E02L11,2022-11-04_09h07.58.402,t1_Paradigm,2021.1.4,59.98826094121495,
Y,left,Distractor,0,53,53,53,708.5956498528831,710.5971832892392,left,1,1,0.8646155406022444,E02L11,2022-11-04_09h07.58.402,t1_Paradigm,2021.1.4,59.98826094121495,
V,left,Distractor,0,54,54,54,712.0955853716005,714.0976728339447,left,1,1,0.7876386428251863,E02L11,2022-11-04_09h07.58.402,t1_Paradigm,2021.1.4,59.98826094121495,
B,left,Distractor,0,55,55,55,715.5955850507598,717.5968628074042,left,1,1,0.7446774041745812,E02L11,2022-11-04_09h07.58.402,t1_Paradigm,2021.1.4,59.98826094121495,
J,left,Pretarget,0,56,56,56,719.0957355072023,721.0972814548295,left,1,1,0.7002099973615259,E02L11,2022-11-04_09h07.58.402,t1_Paradigm,2021.1.4,59.98826094121495,
J,right,Target,0,57,57,57,722.5955468752654,724.5956896324642,right,1,1,0.7537859515286982,E02L11,2022-11-04_09h07.58.402,t1_Paradigm,2021.1.4,59.98826094121495,
H,left,Distractor,0,58,58,58,726.0955593866529,728.0974052846432,left,1,1,0.7723264152882621,E02L11,2022-11-04_09h07.58.402,t1_Paradigm,2021.1.4,59.98826094121495,
J,left,Lure,0,59,59,59,729.5955911460333,731.5974023974268,left,1,1,0.8881239530164748,E02L11,2022-11-04_09h07.58.402,t1_Paradigm,2021.1.4,59.98826094121495,
D,left,Pretarget,0,60,60,60,733.0955860131653,735.0975644026184,left,1,1,0.58797657629475,E02L11,2022-11-04_09h07.58.402,t1_Paradigm,2021.1.4,59.98826094121495,
D,right,Target,0,61,61,61,736.5955866548466,738.5957092014141,right,1,1,0.6258392997551709,E02L11,2022-11-04_09h07.58.402,t1_Paradigm,2021.1.4,59.98826094121495,
R,left,Distractor,0,62,62,62,740.0956447201315,742.0973520313855,left,1,1,0.6284195148618892,E02L11,2022-11-04_09h07.58.402,t1_Paradigm,2021.1.4,59.98826094121495,
F,left,Distractor,0,63,63,63,743.5955744642997,745.5977751699975,left,1,1,0.6479268774855882,E02L11,2022-11-04_09h07.58.402,t1_Paradigm,2021.1.4,59.98826094121495,
F,left,Distractor,0,0,0,0,931.709583848482,933.7126356433146,None,0,2,,E02L11,2022-11-04_09h07.58.402,t1_Paradigm,2021.1.4,59.98826094121495,
N,left,Pretarget,0,1,1,1,935.2125843148679,937.214553401107,None,0,2,,E02L11,2022-11-04_09h07.58.402,t1_Paradigm,2021.1.4,59.98826094121495,
V,left,Distractor,0,2,2,2,938.7126237736084,940.7131370577263,left,1,2,0.700722960755229,E02L11,2022-11-04_09h07.58.402,t1_Paradigm,2021.1.4,59.98826094121495,
N,right,Target,0,3,3,3,942.2126888965722,944.2145825941116,right,1,2,0.5914159006206319,E02L11,2022-11-04_09h07.58.402,t1_Paradigm,2021.1.4,59.98826094121495,
N,left,Lure,0,4,4,4,945.7126372472849,947.7126260192599,left,1,2,1.157348528271541,E02L11,2022-11-04_09h07.58.402,t1_Paradigm,2021.1.4,59.98826094121495,
X,left,Distractor,0,5,5,5,949.2126404553419,951.2147118775174,left,1,2,1.0151450893608853,E02L11,2022-11-04_09h07.58.402,t1_Paradigm,2021.1.4,59.98826094121495,
G,left,Pretarget,0,6,6,6,952.7126455882099,954.7143840172794,left,1,2,0.9556092650163919,E02L11,2022-11-04_09h07.58.402,t1_Paradigm,2021.1.4,59.98826094121495,
H,left,Pretarget,0,7,7,7,956.212592976517,958.2143131198827,left,1,2,1.0716339309001341,E02L11,2022-11-04_09h07.58.402,t1_Paradigm,2021.1.4,59.98826094121495,
G,right,Target,0,8,8,8,959.7126629115082,961.7146839677589,right,1,2,0.6755508661735803,E02L11,2022-11-04_09h07.58.402,t1_Paradigm,2021.1.4,59.98826094121495,
H,right,Target,0,9,9,9,963.2127479241462,965.2139223824488,right,1,2,0.8560642271768302,E02L11,2022-11-04_09h07.58.402,t1_Paradigm,2021.1.4,59.98826094121495,
T,left,Pretarget,0,10,10,10,966.712647833745,968.7120768051827,left,1,2,1.229982400778681,E02L11,2022-11-04_09h07.58.402,t1_Paradigm,2021.1.4,59.98826094121495,
K,left,Distractor,0,11,11,11,970.2126657987246,972.2146092207404,left,1,2,0.8794988550944254,E02L11,2022-11-04_09h07.58.402,t1_Paradigm,2021.1.4,59.98826094121495,
T,right,Target,0,12,12,12,973.7127546611009,975.7148389153881,right,1,2,0.8670943819452077,E02L11,2022-11-04_09h07.58.402,t1_Paradigm,2021.1.4,59.98826094121495,
T,left,Lure,0,13,13,13,977.2126532874536,979.2126545706997,left,1,2,1.0814623592887074,E02L11,2022-11-04_09h07.58.402,t1_Paradigm,2021.1.4,59.98826094121495,
J,left,Distractor,0,14,14,14,980.712654249859,982.7145540426718,left,1,2,0.8593668896937743,E02L11,2022-11-04_09h07.58.402,t1_Paradigm,2021.1.4,59.98826094121495,
Q,left,Pretarget,0,15,15,15,984.2126042046584,986.2146053711185,left,1,2,0.8955062617314979,E02L11,2022-11-04_09h07.58.402,t1_Paradigm,2021.1.4,59.98826094121495,
M,left,Distractor,0,16,16,16,987.7126144702779,989.7146336017177,left,1,2,0.8033143396023661,E02L11,2022-11-04_09h07.58.402,t1_Paradigm,2021.1.4,59.98826094121495,
Q,right,Target,0,17,17,17,991.2126327560982,993.2143503330881,right,1,2,0.9675979778403416,E02L11,2022-11-04_09h07.58.402,t1_Paradigm,2021.1.4,59.98826094121495,
R,left,Distractor,0,18,18,18,994.7126860093558,996.7145457017468,left,1,2,0.9555399717064574,E02L11,2022-11-04_09h07.58.402,t1_Paradigm,2021.1.4,59.98826094121495,
W,left,Distractor,0,19,19,19,998.2127273927908,1000.2149848805275,left,1,2,0.8311741182114929,E02L11,2022-11-04_09h07.58.402,t1_Paradigm,2021.1.4,59.98826094121495,
C,left,Pretarget,0,20,20,20,1001.7128050270258,1003.7151863445761,left,1,2,1.426968332263641,E02L11,2022-11-04_09h07.58.402,t1_Paradigm,2021.1.4,59.98826094121495,
T,left,Distractor,0,21,21,21,1005.2127152023604,1007.214477691683,None,0,2,,E02L11,2022-11-04_09h07.58.402,t1_Paradigm,2021.1.4,59.98826094121495,
C,right,Target,0,22,22,22,1008.7127168063307,1010.7140683475882,None,0,2,,E02L11,2022-11-04_09h07.58.402,t1_Paradigm,2021.1.4,59.98826094121495,
F,left,Pretarget,0,23,23,23,1012.2127363752807,1014.2148244791897,left,1,2,0.7191768077900633,E02L11,2022-11-04_09h07.58.402,t1_Paradigm,2021.1.4,59.98826094121495,
C,right,Target,0,24,24,24,1015.7127485658275,1017.7149268152425,right,1,2,0.707205738988705,E02L11,2022-11-04_09h07.58.402,t1_Paradigm,2021.1.4,59.98826094121495,
F,right,Target,0,25,25,25,1019.2127087862464,1021.2145184335532,right,1,2,0.6314498158171773,E02L11,2022-11-04_09h07.58.402,t1_Paradigm,2021.1.4,59.98826094121495,
H,left,Distractor,0,26,26,26,1022.7128361449577,1024.7143913957989,left,1,2,0.7638235430931672,E02L11,2022-11-04_09h07.58.402,t1_Paradigm,2021.1.4,59.98826094121495,
H,left,Lure,0,27,27,27,1026.2126590618864,1028.2127418289892,left,1,2,0.7051157102687284,E02L11,2022-11-04_09h07.58.402,t1_Paradigm,2021.1.4,59.98826094121495,
P,left,Distractor,0,28,28,28,1029.712688254891,1031.7142165583791,left,1,2,0.6760570926126093,E02L11,2022-11-04_09h07.58.402,t1_Paradigm,2021.1.4,59.98826094121495,
G,left,Pretarget,0,29,29,29,1033.2126584203215,1035.21441449353,left,1,2,0.6480301760602742,E02L11,2022-11-04_09h07.58.402,t1_Paradigm,2021.1.4,59.98826094121495,
K,left,Distractor,0,30,30,30,1036.7130039246986,1038.7150609106757,left,1,2,0.618964821449481,E02L11,2022-11-04_09h07.58.402,t1_Paradigm,2021.1.4,59.98826094121495,
G,right,Target,0,31,31,31,1040.2128650171217,1042.214151756256,right,1,2,0.6080495138885453,E02L11,2022-11-04_09h07.58.402,t1_Paradigm,2021.1.4,59.98826094121495,
M,left,Pretarget,0,32,32,32,1043.7127540194197,1045.7148456522264,left,1,2,0.8192072198726237,E02L11,2022-11-04_09h07.58.402,t1_Paradigm,2021.1.4,59.98826094121495,
B,left,Distractor,0,33,33,33,1047.2129535586573,1049.2120832212968,left,1,2,0.7781890822807327,E02L11,2022-11-04_09h07.58.402,t1_Paradigm,2021.1.4,59.98826094121495,
M,right,Target,0,34,34,34,1050.712507963879,1052.714682042948,right,1,2,0.5394798892084509,E02L11,2022-11-04_09h07.58.402,t1_Paradigm,2021.1.4,59.98826094121495,
M,left,Lure,0,35,35,35,1054.2127257888205,1056.2127485658275,left,1,2,1.057430397020653,E02L11,2022-11-04_09h07.58.402,t1_Paradigm,2021.1.4,59.98826094121495,
T,left,Distractor,0,36,36,36,1057.7126420593122,1059.7144045486348,left,1,2,0.7078033941797912,E02L11,2022-11-04_09h07.58.402,t1_Paradigm,2021.1.4,59.98826094121495,
F,left,Distractor,0,37,37,37,1061.2127597938525,1063.2147420329275,left,1,2,0.7912361228372902,E02L11,2022-11-04_09h07.58.402,t1_Paradigm,2021.1.4,59.98826094121495,
X,left,Distractor,0,38,38,38,1064.7128210671945,1066.7146390553098,left,1,2,0.6515756859444082,E02L11,2022-11-04_09h07.58.402,t1_Paradigm,2021.1.4,59.98826094121495,
C,left,Distractor,0,39,39,39,1068.2129301400855,1070.2144234760199,left,1,2,0.9437607428990304,E02L11,2022-11-04_09h07.58.402,t1_Paradigm,2021.1.4,59.98826094121495,
R,left,Distractor,0,40,40,40,1071.7127803252079,1073.714643546613,left,1,2,0.7075874941656366,E02L11,2022-11-04_09h07.58.402,t1_Paradigm,2021.1.4,59.98826094121495,
B,left,Pretarget,0,41,41,41,1075.2128432025202,1077.2148267248413,left,1,2,0.7912027594866231,E02L11,2022-11-04_09h07.58.402,t1_Paradigm,2021.1.4,59.98826094121495,
H,left,Distractor,0,42,42,42,1078.7128303704085,1080.7148883189075,left,1,2,0.6192054233979434,E02L11,2022-11-04_09h07.58.402,t1_Paradigm,2021.1.4,59.98826094121495,
B,right,Target,0,43,43,43,1082.2129410473863,1084.2145935014123,right,1,2,0.9758304135175422,E02L11,2022-11-04_09h07.58.402,t1_Paradigm,2021.1.4,59.98826094121495,
W,left,Pretarget,0,44,44,44,1085.7128942101263,1087.7148645796115,left,1,2,0.7233533364487812,E02L11,2022-11-04_09h07.58.402,t1_Paradigm,2021.1.4,59.98826094121495,
L,left,Pretarget,0,45,45,45,1089.2129567667143,1091.2146506042918,left,1,2,1.0478133775759488,E02L11,2022-11-04_09h07.58.402,t1_Paradigm,2021.1.4,59.98826094121495,
W,right,Target,0,46,46,46,1092.712858601124,1094.715010865475,right,1,2,0.7312158866552636,E02L11,2022-11-04_09h07.58.402,t1_Paradigm,2021.1.4,59.98826094121495,
L,right,Target,0,47,47,47,1096.212807593518,1098.214688138105,right,1,2,0.7993444078601897,E02L11,2022-11-04_09h07.58.402,t1_Paradigm,2021.1.4,59.98826094121495,
W,right,Target,0,48,48,48,1099.7128550722264,1101.7146576618543,right,1,2,1.2835192170459777,E02L11,2022-11-04_09h07.58.402,t1_Paradigm,2021.1.4,59.98826094121495,
X,left,Distractor,0,49,49,49,1103.212874320452,1105.214012848679,left,1,2,0.8562695408472791,E02L11,2022-11-04_09h07.58.402,t1_Paradigm,2021.1.4,59.98826094121495,
R,left,Distractor,0,50,50,50,1106.7128393528983,1108.7143769596005,left,1,2,0.7318735319422558,E02L11,2022-11-04_09h07.58.402,t1_Paradigm,2021.1.4,59.98826094121495,
V,left,Pretarget,0,51,51,51,1110.2127950821305,1112.2142056510784,left,1,2,0.8320906510343775,E02L11,2022-11-04_09h07.58.402,t1_Paradigm,2021.1.4,59.98826094121495,
Z,left,Distractor,0,52,52,52,1113.7129673531745,1115.7144975814736,left,1,2,0.7557964213192463,E02L11,2022-11-04_09h07.58.402,t1_Paradigm,2021.1.4,59.98826094121495,
V,right,Target,0,53,53,53,1117.2128723956412,1119.2145428145304,right,1,2,0.8237584459129721,E02L11,2022-11-04_09h07.58.402,t1_Paradigm,2021.1.4,59.98826094121495,
V,left,Lure,0,54,54,54,1120.7130510826828,1122.7128707915545,left,1,2,1.4213189990259707,E02L11,2022-11-04_09h07.58.402,t1_Paradigm,2021.1.4,59.98826094121495,
N,left,Distractor,0,55,55,55,1124.212763964315,1126.2144327793503,left,1,2,0.8799399585695937,E02L11,2022-11-04_09h07.58.402,t1_Paradigm,2021.1.4,59.98826094121495,
B,left,Distractor,0,56,56,56,1127.7128849069122,1129.7149957878282,left,1,2,1.2991843273630366,E02L11,2022-11-04_09h07.58.402,t1_Paradigm,2021.1.4,59.98826094121495,
V,left,Lure,0,57,57,57,1131.2129224408418,1133.2149707651697,left,1,2,1.2553617337252945,E02L11,2022-11-04_09h07.58.402,t1_Paradigm,2021.1.4,59.98826094121495,
J,left,Distractor,0,58,58,58,1134.7130574986804,1136.7143557866802,left,1,2,1.2439280092949048,E02L11,2022-11-04_09h07.58.402,t1_Paradigm,2021.1.4,59.98826094121495,
H,left,Distractor,0,59,59,59,1138.2130334384274,1140.215110635152,left,1,2,1.0552319370908663,E02L11,2022-11-04_09h07.58.402,t1_Paradigm,2021.1.4,59.98826094121495,
X,left,Pretarget,0,60,60,60,1141.7129182703793,1143.714682042948,left,1,2,0.7236744598485529,E02L11,2022-11-04_09h07.58.402,t1_Paradigm,2021.1.4,59.98826094121495,
P,left,Distractor,0,61,61,61,1145.2129304608097,1147.2148594467435,left,1,2,0.7115413858555257,E02L11,2022-11-04_09h07.58.402,t1_Paradigm,2021.1.4,59.98826094121495,
X,right,Target,0,62,62,62,1148.7130632731132,1150.7147975318367,right,1,2,0.5235472294734791,E02L11,2022-11-04_09h07.58.402,t1_Paradigm,2021.1.4,59.98826094121495,
Q,left,Distractor,0,63,63,63,1152.2130267015891,1154.214945421787,left,1,2,0.6233947841683403,E02L11,2022-11-04_09h07.58.402,t1_Paradigm,2021.1.4,59.98826094121495,
B,left,Pretarget,0,0,0,0,1161.872453709715,1163.8645289238775,None,0,2,,E02L11,2022-11-04_09h07.58.402,t1_Paradigm,2021.1.4,59.98826094121495,
F,left,Distractor,0,1,1,1,1165.3629816930043,1167.365193626727,None,0,2,,E02L11,2022-11-04_09h07.58.402,t1_Paradigm,2021.1.4,59.98826094121495,
B,right,Target,0,2,2,2,1168.8629566704622,1170.8644304374466,right,1,2,0.6300379637395963,E02L11,2022-11-04_09h07.58.402,t1_Paradigm,2021.1.4,59.98826094121495,
V,left,Distractor,0,3,3,3,1172.3629492919426,1174.3651945891324,left,1,2,0.617059254203923,E02L11,2022-11-04_09h07.58.402,t1_Paradigm,2021.1.4,59.98826094121495,
G,left,Pretarget,0,4,4,4,1175.8628209709423,1177.8648731450085,left,1,2,0.9094393590930849,E02L11,2022-11-04_09h07.58.402,t1_Paradigm,2021.1.4,59.98826094121495,
B,left,Lure,0,5,5,5,1179.363012169255,1181.3650707593188,left,1,2,0.7053300063125789,E02L11,2022-11-04_09h07.58.402,t1_Paradigm,2021.1.4,59.98826094121495,
G,right,Target,0,6,6,6,1182.8629518584348,1184.8648163629696,right,1,2,0.8855726100737229,E02L11,2022-11-04_09h07.58.402,t1_Paradigm,2021.1.4,59.98826094121495,
Y,left,Pretarget,0,7,7,7,1186.3629630864598,1188.364411830902,left,1,2,0.6659088240703568,E02L11,2022-11-04_09h07.58.402,t1_Paradigm,2021.1.4,59.98826094121495,
P,left,Distractor,0,8,8,8,1189.8622031052364,1191.8647445031675,left,1,2,0.8935628398321569,E02L11,2022-11-04_09h07.58.402,t1_Paradigm,2021.1.4,59.98826094121495,
Y,right,Target,0,9,9,9,1193.363018585369,1195.3648574256804,right,1,2,0.7695184304611757,E02L11,2022-11-04_09h07.58.402,t1_Paradigm,2021.1.4,59.98826094121495,
X,left,Distractor,0,10,10,10,1196.8630647809478,1198.8649170949357,left,1,2,0.8534599519334733,E02L11,2022-11-04_09h07.58.402,t1_Paradigm,2021.1.4,59.98826094121495,
Y,right,Target,0,11,11,11,1200.3629630864598,1202.3645873098867,right,1,2,0.5698400029214099,E02L11,2022-11-04_09h07.58.402,t1_Paradigm,2021.1.4,59.98826094121495,
N,left,Distractor,0,12,12,12,1203.8631045604125,1205.8648179669399,left,1,2,0.7979380094911903,E02L11,2022-11-04_09h07.58.402,t1_Paradigm,2021.1.4,59.98826094121495,
Y,right,Target,0,13,13,13,1207.3629935627105,1209.3620866538258,right,1,2,0.884401680668816,E02L11,2022-11-04_09h07.58.402,t1_Paradigm,2021.1.4,59.98826094121495,
Y,left,Lure,0,14,14,14,1210.8629752770066,1212.8630112068495,left,1,2,0.7914462485350668,E02L11,2022-11-04_09h07.58.402,t1_Paradigm,2021.1.4,59.98826094121495,
K,left,Distractor,0,15,15,15,1214.3629650112707,1216.3622262029676,left,1,2,0.9082751665264368,E02L11,2022-11-04_09h07.58.402,t1_Paradigm,2021.1.4,59.98826094121495,
T,left,Pretarget,0,16,16,16,1217.863198876381,1219.8650053156307,left,1,2,0.9574679951183498,E02L11,2022-11-04_09h07.58.402,t1_Paradigm,2021.1.4,59.98826094121495,
J,left,Distractor,0,17,17,17,1221.3631318286061,1223.3649918419542,left,1,2,0.8173497730167583,E02L11,2022-11-04_09h07.58.402,t1_Paradigm,2021.1.4,59.98826094121495,
T,right,Target,0,18,18,18,1224.880103567848,1226.8643903371412,right,1,2,0.8061130213318393,E02L11,2022-11-04_09h07.58.402,t1_Paradigm,2021.1.4,59.98826094121495,
S,left,Pretarget,0,19,19,19,1228.3630182645284,1230.3653934868053,left,1,2,0.6812993274070323,E02L11,2022-11-04_09h07.58.402,t1_Paradigm,2021.1.4,59.98826094121495,
R,left,Distractor,0,20,20,20,1231.8630673473235,1233.8648725033272,left,1,2,0.8138844636268914,E02L11,2022-11-04_09h07.58.402,t1_Paradigm,2021.1.4,59.98826094121495,
S,right,Target,0,21,21,21,1235.3630901243305,1237.3645160917658,right,1,2,0.6098116824869066,E02L11,2022-11-04_09h07.58.402,t1_Paradigm,2021.1.4,59.98826094121495,
Q,left,Distractor,0,22,22,22,1238.8630079987925,1240.8651413359912,left,1,2,1.0136190315242857,E02L11,2022-11-04_09h07.58.402,t1_Paradigm,2021.1.4,59.98826094121495,
D,left,Distractor,0,23,23,23,1242.3630625352962,1244.3654460983817,left,1,2,0.9370014326414093,E02L11,2022-11-04_09h07.58.402,t1_Paradigm,2021.1.4,59.98826094121495,
F,left,Distractor,0,24,24,24,1245.8630971820094,1247.8650043532252,left,1,2,0.7334066474577412,E02L11,2022-11-04_09h07.58.402,t1_Paradigm,2021.1.4,59.98826094121495,
Z,left,Distractor,0,25,25,25,1249.3631802698364,1251.3646582072834,left,1,2,0.7378468759125099,E02L11,2022-11-04_09h07.58.402,t1_Paradigm,2021.1.4,59.98826094121495,
P,left,Distractor,0,26,26,26,1252.8632222949527,1254.865456043277,left,1,2,0.7729943263111636,E02L11,2022-11-04_09h07.58.402,t1_Paradigm,2021.1.4,59.98826094121495,
H,left,Distractor,0,27,27,27,1256.3631250917679,1258.3649421175942,left,1,2,0.5855070380493999,E02L11,2022-11-04_09h07.58.402,t1_Paradigm,2021.1.4,59.98826094121495,
Z,left,Pretarget,0,28,28,28,1259.8630548360525,1261.863905604463,left,1,2,0.8627202389761806,E02L11,2022-11-04_09h07.58.402,t1_Paradigm,2021.1.4,59.98826094121495,
J,left,Pretarget,0,29,29,29,1263.3630673473235,1265.3645610040985,left,1,2,0.8339708750136197,E02L11,2022-11-04_09h07.58.402,t1_Paradigm,2021.1.4,59.98826094121495,
Z,right,Target,0,30,30,30,1266.8632473176112,1268.86492511502,left,0,2,0.9816565089859068,E02L11,2022-11-04_09h07.58.402,t1_Paradigm,2021.1.4,59.98826094121495,
J,right,Target,0,31,31,31,1270.3623166693142,1272.3643261765828,right,1,2,0.44225040439050645,E02L11,2022-11-04_09h07.58.402,t1_Paradigm,2021.1.4,59.98826094121495,
V,left,Pretarget,0,32,32,32,1273.8631058436586,1275.8650037116604,left,1,2,0.6694562588818371,E02L11,2022-11-04_09h07.58.402,t1_Paradigm,2021.1.4,59.98826094121495,
Z,left,Lure,0,33,33,33,1277.3631183549296,1279.3649485335918,left,1,2,0.6255736752646044,E02L11,2022-11-04_09h07.58.402,t1_Paradigm,2021.1.4,59.98826094121495,
V,right,Target,0,34,34,34,1280.863241543062,1282.8653623688733,right,1,2,0.6930320397950709,E02L11,2022-11-04_09h07.58.402,t1_Paradigm,2021.1.4,59.98826094121495,
X,left,Distractor,0,35,35,35,1284.3631732121576,1286.3648198917508,left,1,2,0.8096360751660541,E02L11,2022-11-04_09h07.58.402,t1_Paradigm,2021.1.4,59.98826094121495,
S,left,Distractor,0,36,36,36,1287.8631725705927,1289.8647544480627,left,1,2,0.8937376771355048,E02L11,2022-11-04_09h07.58.402,t1_Paradigm,2021.1.4,59.98826094121495,
Q,left,Distractor,0,37,37,37,1291.3631786657497,1293.3652645241236,left,1,2,0.6412115173880011,E02L11,2022-11-04_09h07.58.402,t1_Paradigm,2021.1.4,59.98826094121495,
P,left,Distractor,0,38,38,38,1294.8631802698364,1296.8647720922017,left,1,2,0.9818239678861573,E02L11,2022-11-04_09h07.58.402,t1_Paradigm,2021.1.4,59.98826094121495,
S,left,Lure,0,39,39,39,1298.3632444302784,1300.365043170401,left,1,2,0.6814103251090273,E02L11,2022-11-04_09h07.58.402,t1_Paradigm,2021.1.4,59.98826094121495,
K,left,Pretarget,0,40,40,40,1301.8631802698364,1303.8651220877655,left,1,2,0.8455303540686145,E02L11,2022-11-04_09h07.58.402,t1_Paradigm,2021.1.4,59.98826094121495,
L,left,Distractor,0,41,41,41,1305.3633121197345,1307.3653845043154,left,1,2,0.7212123000063002,E02L11,2022-11-04_09h07.58.402,t1_Paradigm,2021.1.4,59.98826094121495,
K,right,Target,0,42,42,42,1308.8633159693563,1310.8654557224363,right,1,2,0.517049694317393,E02L11,2022-11-04_09h07.58.402,t1_Paradigm,2021.1.4,59.98826094121495,
B,left,Distractor,0,43,43,43,1312.3631324702874,1314.3651753410231,left,1,2,1.12952435889747,E02L11,2022-11-04_09h07.58.402,t1_Paradigm,2021.1.4,59.98826094121495,
N,left,Distractor,0,44,44,44,1315.8631311870413,1317.8644330038223,left,1,2,0.9101088739698753,E02L11,2022-11-04_09h07.58.402,t1_Paradigm,2021.1.4,59.98826094121495,
S,left,Pretarget,0,45,45,45,1319.3631706457818,1321.364976122626,left,1,2,1.1536156695801765,E02L11,2022-11-04_09h07.58.402,t1_Paradigm,2021.1.4,59.98826094121495,
Z,left,Distractor,0,46,46,46,1322.863180590677,1324.8796412913362,left,1,2,0.9508796726586297,E02L11,2022-11-04_09h07.58.402,t1_Paradigm,2021.1.4,59.98826094121495,
S,right,Target,0,47,47,47,1326.3633384255227,1328.364772412926,right,1,2,0.6496896876487881,E02L11,2022-11-04_09h07.58.402,t1_Paradigm,2021.1.4,59.98826094121495,
C,left,Distractor,0,48,48,48,1329.863164871349,1331.8649790098425,left,1,2,0.7816944919759408,E02L11,2022-11-04_09h07.58.402,t1_Paradigm,2021.1.4,59.98826094121495,
T,left,Pretarget,0,49,49,49,1333.363274906529,1335.3653963740217,left,1,2,0.8011463559232652,E02L11,2022-11-04_09h07.58.402,t1_Paradigm,2021.1.4,59.98826094121495,
S,left,Lure,0,50,50,50,1336.863214595709,1338.8642681112979,left,1,2,0.8383549628779292,E02L11,2022-11-04_09h07.58.402,t1_Paradigm,2021.1.4,59.98826094121495,
T,right,Target,0,51,51,51,1340.363255016855,1342.3648295158055,right,1,2,0.6657683125231415,E02L11,2022-11-04_09h07.58.402,t1_Paradigm,2021.1.4,59.98826094121495,
N,left,Pretarget,0,52,52,52,1343.8632450719597,1345.8649353806395,left,1,2,0.7495558488881215,E02L11,2022-11-04_09h07.58.402,t1_Paradigm,2021.1.4,59.98826094121495,
B,left,Distractor,0,53,53,53,1347.3633708265843,1349.3651859274833,left,1,2,0.6574659419711679,E02L11,2022-11-04_09h07.58.402,t1_Paradigm,2021.1.4,59.98826094121495,
N,right,Target,0,54,54,54,1350.8633602400078,1352.8652763938298,None,0,2,,E02L11,2022-11-04_09h07.58.402,t1_Paradigm,2021.1.4,59.98826094121495,
N,left,Lure,0,55,55,55,1354.3632899842924,1356.3632418639027,left,1,2,0.8433841848745942,E02L11,2022-11-04_09h07.58.402,t1_Paradigm,2021.1.4,59.98826094121495,
X,left,Distractor,0,56,56,56,1357.863118034089,1359.865071401,left,1,2,0.7015166261699051,E02L11,2022-11-04_09h07.58.402,t1_Paradigm,2021.1.4,59.98826094121495,
W,left,Distractor,0,57,57,57,1361.3633695433382,1363.3649065084755,left,1,2,0.7058298168703914,E02L11,2022-11-04_09h07.58.402,t1_Paradigm,2021.1.4,59.98826094121495,
S,left,Distractor,0,58,58,58,1364.863440761459,1366.8647916611517,left,1,2,1.2059382480802014,E02L11,2022-11-04_09h07.58.402,t1_Paradigm,2021.1.4,59.98826094121495,
L,left,Distractor,0,59,59,59,1368.3632607912878,1370.3652241029777,left,1,2,0.6979810610646382,E02L11,2022-11-04_09h07.58.402,t1_Paradigm,2021.1.4,59.98826094121495,
K,left,Pretarget,0,60,60,60,1371.8633150069509,1373.8653197021922,left,1,2,0.6373262774432078,E02L11,2022-11-04_09h07.58.402,t1_Paradigm,2021.1.4,59.98826094121495,
V,left,Pretarget,0,61,61,61,1375.3632781145861,1377.3644429487176,left,1,2,0.6421893236692995,E02L11,2022-11-04_09h07.58.402,t1_Paradigm,2021.1.4,59.98826094121495,
K,right,Target,0,62,62,62,1378.863403227646,1380.8645488135517,right,1,2,0.6622619404224679,E02L11,2022-11-04_09h07.58.402,t1_Paradigm,2021.1.4,59.98826094121495,
V,right,Target,0,63,63,63,1382.3633076284314,1384.365581477061,right,1,2,0.7132971382234246,E02L11,2022-11-04_09h07.58.402,t1_Paradigm,2021.1.4,59.98826094121495,
R,left,Distractor,0,0,0,0,1513.261345343315,1515.2654147238936,None,0,3,,E02L11,2022-11-04_09h07.58.402,t1_Paradigm,2021.1.4,59.98826094121495,
P,left,Lure,0,1,1,1,1516.7635498985182,1518.7651423624484,None,0,3,,E02L11,2022-11-04_09h07.58.402,t1_Paradigm,2021.1.4,59.98826094121495,
V,left,Distractor,0,2,2,2,1520.263524234295,1522.2654792051762,None,0,3,,E02L11,2022-11-04_09h07.58.402,t1_Paradigm,2021.1.4,59.98826094121495,
P,left,Pretarget,0,3,3,3,1523.763545086491,1525.7657563786488,left,1,3,0.7531533287838101,E02L11,2022-11-04_09h07.58.402,t1_Paradigm,2021.1.4,59.98826094121495,
Z,left,Distractor,0,4,4,4,1527.2635713922791,1529.2652325080708,left,1,3,1.0458173439837992,E02L11,2022-11-04_09h07.58.402,t1_Paradigm,2021.1.4,59.98826094121495,
L,left,Pretarget,0,5,5,5,1530.7635502193589,1532.765737130423,left,1,3,1.0331408303463832,E02L11,2022-11-04_09h07.58.402,t1_Paradigm,2021.1.4,59.98826094121495,
P,right,Target,0,6,6,6,1534.263567221933,1536.265416327864,right,1,3,0.8136769043048844,E02L11,2022-11-04_09h07.58.402,t1_Paradigm,2021.1.4,59.98826094121495,
S,left,Distractor,0,7,7,7,1537.763641648111,1539.7652636258863,left,1,3,0.7856211154721677,E02L11,2022-11-04_09h07.58.402,t1_Paradigm,2021.1.4,59.98826094121495,
L,right,Target,0,8,8,8,1541.263394950889,1543.2648331088712,right,1,3,0.6461855611996725,E02L11,2022-11-04_09h07.58.402,t1_Paradigm,2021.1.4,59.98826094121495,
D,left,Distractor,0,9,9,9,1544.7635871116072,1546.765405099839,left,1,3,1.097948724287562,E02L11,2022-11-04_09h07.58.402,t1_Paradigm,2021.1.4,59.98826094121495,
G,left,Distractor,0,10,10,10,1548.2635944901267,1550.2651035453891,left,1,3,0.7338368437485769,E02L11,2022-11-04_09h07.58.402,t1_Paradigm,2021.1.4,59.98826094121495,
M,left,Pretarget,0,11,11,11,1551.7635332167847,1553.765491395723,left,1,3,0.7217169224750251,E02L11,2022-11-04_09h07.58.402,t1_Paradigm,2021.1.4,59.98826094121495,
Y,left,Distractor,0,12,12,12,1555.263737247209,1557.2655205887277,left,1,3,0.9014164075488225,E02L11,2022-11-04_09h07.58.402,t1_Paradigm,2021.1.4,59.98826094121495,
V,left,Distractor,0,13,13,13,1558.7636936181225,1560.7653813604265,left,1,3,0.8577202101005241,E02L11,2022-11-04_09h07.58.402,t1_Paradigm,2021.1.4,59.98826094121495,
M,right,Target,0,14,14,14,1562.2636018685298,1564.265576408361,right,1,3,0.5735257037449628,E02L11,2022-11-04_09h07.58.402,t1_Paradigm,2021.1.4,59.98826094121495,
S,left,Pretarget,0,15,15,15,1565.7637667610543,1567.7655982229626,left,1,3,0.8653087948914617,E02L11,2022-11-04_09h07.58.402,t1_Paradigm,2021.1.4,59.98826094121495,
Q,left,Distractor,0,16,16,16,1569.2635951316915,1571.2637597033754,left,1,3,0.6954486455069855,E02L11,2022-11-04_09h07.58.402,t1_Paradigm,2021.1.4,59.98826094121495,
R,left,Pretarget,0,17,17,17,1572.7636291367235,1574.7648395248689,left,1,3,0.71431344083976,E02L11,2022-11-04_09h07.58.402,t1_Paradigm,2021.1.4,59.98826094121495,
S,right,Target,0,18,18,18,1576.2635447656503,1578.2656973509584,right,1,3,0.7813768974738196,E02L11,2022-11-04_09h07.58.402,t1_Paradigm,2021.1.4,59.98826094121495,
F,left,Distractor,0,19,19,19,1579.7637170366943,1581.7631915620295,left,1,3,0.9957432707305998,E02L11,2022-11-04_09h07.58.402,t1_Paradigm,2021.1.4,59.98826094121495,
R,right,Target,0,20,20,20,1583.2637430216419,1585.2655340624042,right,1,3,0.5174583967309445,E02L11,2022-11-04_09h07.58.402,t1_Paradigm,2021.1.4,59.98826094121495,
P,left,Distractor,0,21,21,21,1586.763715432724,1588.7655805788236,left,1,3,0.8414612942142412,E02L11,2022-11-04_09h07.58.402,t1_Paradigm,2021.1.4,59.98826094121495,
L,left,Distractor,0,22,22,22,1590.2636551217875,1592.265401891782,left,1,3,0.9096517303260043,E02L11,2022-11-04_09h07.58.402,t1_Paradigm,2021.1.4,59.98826094121495,
R,right,Target,0,23,23,23,1593.7637414176716,1595.7647792140488,right,1,3,0.5145304317120463,E02L11,2022-11-04_09h07.58.402,t1_Paradigm,2021.1.4,59.98826094121495,
H,left,Pretarget,0,24,24,24,1597.2637811972527,1599.2657425841317,left,1,3,0.8373271113960072,E02L11,2022-11-04_09h07.58.402,t1_Paradigm,2021.1.4,59.98826094121495,
G,left,Pretarget,0,25,25,25,1600.7636252871016,1602.7651997861685,left,1,3,0.8419299867236987,E02L11,2022-11-04_09h07.58.402,t1_Paradigm,2021.1.4,59.98826094121495,
T,left,Distractor,0,26,26,26,1604.2637597033754,1606.2655590850627,left,1,3,0.9895325328689069,E02L11,2022-11-04_09h07.58.402,t1_Paradigm,2021.1.4,59.98826094121495,
H,right,Target,0,27,27,27,1607.7636461392976,1609.7656303031836,right,1,3,0.9456143401330337,E02L11,2022-11-04_09h07.58.402,t1_Paradigm,2021.1.4,59.98826094121495,
G,right,Target,0,28,28,28,1611.2636974677444,1613.2655010197777,right,1,3,0.7255678365472704,E02L11,2022-11-04_09h07.58.402,t1_Paradigm,2021.1.4,59.98826094121495,
D,left,Distractor,0,29,29,29,1614.7637119038263,1616.765635115211,left,1,3,0.7775603092741221,E02L11,2022-11-04_09h07.58.402,t1_Paradigm,2021.1.4,59.98826094121495,
N,left,Pretarget,0,30,30,30,1618.263705166988,1620.2651385128265,left,1,3,0.7658115567173809,E02L11,2022-11-04_09h07.58.402,t1_Paradigm,2021.1.4,59.98826094121495,
V,left,Distractor,0,31,31,31,1621.7636406857055,1623.765383606078,left,1,3,0.9778604522580281,E02L11,2022-11-04_09h07.58.402,t1_Paradigm,2021.1.4,59.98826094121495,
R,left,Distractor,0,32,32,32,1625.2637163951294,1627.2654589946615,left,1,3,0.8856941943522543,E02L11,2022-11-04_09h07.58.402,t1_Paradigm,2021.1.4,59.98826094121495,
N,right,Target,0,33,33,33,1628.763726660749,1630.7655048693996,right,1,3,0.857679468113929,E02L11,2022-11-04_09h07.58.402,t1_Paradigm,2021.1.4,59.98826094121495,
Z,left,Distractor,0,34,34,34,1632.263724735938,1634.2659328200389,left,1,3,0.5732623246731237,E02L11,2022-11-04_09h07.58.402,t1_Paradigm,2021.1.4,59.98826094121495,
N,left,Lure,0,35,35,35,1635.763798520551,1637.7654118366772,left,1,3,1.217671602149494,E02L11,2022-11-04_09h07.58.402,t1_Paradigm,2021.1.4,59.98826094121495,
Y,left,Pretarget,0,36,36,36,1639.2637327560224,1641.2655209095683,left,1,3,1.0297518719453365,E02L11,2022-11-04_09h07.58.402,t1_Paradigm,2021.1.4,59.98826094121495,
Y,left,Lure,0,37,37,37,1642.7638543401845,1644.7637677234598,left,1,3,1.1796651592012495,E02L11,2022-11-04_09h07.58.402,t1_Paradigm,2021.1.4,59.98826094121495,
B,left,Distractor,0,38,38,38,1646.2637016382068,1648.2651593650226,left,1,3,1.037971796351485,E02L11,2022-11-04_09h07.58.402,t1_Paradigm,2021.1.4,59.98826094121495,
Y,right,Target,0,39,39,39,1649.7637552121887,1651.7656027141493,right,1,3,0.8495339701185003,E02L11,2022-11-04_09h07.58.402,t1_Paradigm,2021.1.4,59.98826094121495,
J,left,Distractor,0,40,40,40,1653.2637661194894,1655.265015966259,left,1,3,0.9821226351195946,E02L11,2022-11-04_09h07.58.402,t1_Paradigm,2021.1.4,59.98826094121495,
X,left,Distractor,0,41,41,41,1656.7637792723253,1658.7655353456503,left,1,3,0.7457790401531383,E02L11,2022-11-04_09h07.58.402,t1_Paradigm,2021.1.4,59.98826094121495,
W,left,Pretarget,0,42,42,42,1660.263684314792,1662.2656283783726,left,1,3,0.9736319534713402,E02L11,2022-11-04_09h07.58.402,t1_Paradigm,2021.1.4,59.98826094121495,
S,left,Pretarget,0,43,43,43,1663.7638440744486,1665.7657871756237,left,1,3,0.7213781550526619,E02L11,2022-11-04_09h07.58.402,t1_Paradigm,2021.1.4,59.98826094121495,
R,left,Distractor,0,44,44,44,1667.2639229919296,1669.2658680179156,left,1,3,0.6773768743732944,E02L11,2022-11-04_09h07.58.402,t1_Paradigm,2021.1.4,59.98826094121495,
W,right,Target,0,45,45,45,1670.763731152052,1672.7651901621139,right,1,3,0.5699577374616638,E02L11,2022-11-04_09h07.58.402,t1_Paradigm,2021.1.4,59.98826094121495,
S,right,Target,0,46,46,46,1674.2637824803824,1676.263063882594,right,1,3,0.8482494766358286,E02L11,2022-11-04_09h07.58.402,t1_Paradigm,2021.1.4,59.98826094121495,
D,left,Distractor,0,47,47,47,1677.7635742794955,1679.7654663730646,left,1,3,0.6897941795177758,E02L11,2022-11-04_09h07.58.402,t1_Paradigm,2021.1.4,59.98826094121495,
T,left,Distractor,0,48,48,48,1681.263803653419,1683.2655776916072,left,1,3,0.9175688170362264,E02L11,2022-11-04_09h07.58.402,t1_Paradigm,2021.1.4,59.98826094121495,
S,right,Target,0,49,49,49,1684.7637834427878,1686.7657602282707,right,1,3,0.9694246277213097,E02L11,2022-11-04_09h07.58.402,t1_Paradigm,2021.1.4,59.98826094121495,
K,left,Distractor,0,50,50,50,1688.2638909117086,1690.2658202183666,left,1,3,1.1173553549451753,E02L11,2022-11-04_09h07.58.402,t1_Paradigm,2021.1.4,59.98826094121495,
S,left,Lure,0,51,51,51,1691.7637539289426,1693.765483054798,left,1,3,1.201865659444593,E02L11,2022-11-04_09h07.58.402,t1_Paradigm,2021.1.4,59.98826094121495,
T,left,Pretarget,0,52,52,52,1695.2638270719908,1697.2653553753626,left,1,3,1.1579728100914508,E02L11,2022-11-04_09h07.58.402,t1_Paradigm,2021.1.4,59.98826094121495,
V,left,Distractor,0,53,53,53,1698.7638479241868,1700.7659283288522,left,1,3,0.9053430309286341,E02L11,2022-11-04_09h07.58.402,t1_Paradigm,2021.1.4,59.98826094121495,
B,left,Distractor,0,54,54,54,1702.263091792469,1704.2653778316453,left,1,3,0.8460542246466503,E02L11,2022-11-04_09h07.58.402,t1_Paradigm,2021.1.4,59.98826094121495,
T,right,Target,0,55,55,55,1705.763843112043,1707.7630792811979,right,1,3,0.4842434609308839,E02L11,2022-11-04_09h07.58.402,t1_Paradigm,2021.1.4,59.98826094121495,
Y,left,Pretarget,0,56,56,56,1709.263867813861,1711.264863585122,left,1,3,0.9343698892043903,E02L11,2022-11-04_09h07.58.402,t1_Paradigm,2021.1.4,59.98826094121495,
T,left,Lure,0,57,57,57,1712.7638248263393,1714.7630962836556,left,1,3,1.1643368914956227,E02L11,2022-11-04_09h07.58.402,t1_Paradigm,2021.1.4,59.98826094121495,
P,left,Pretarget,0,58,58,58,1716.2638633226743,1718.2656245287508,left,1,3,1.3096229223301634,E02L11,2022-11-04_09h07.58.402,t1_Paradigm,2021.1.4,59.98826094121495,
Y,right,Target,0,59,59,59,1719.7638216182822,1721.765692538931,right,1,3,0.9457468315958977,E02L11,2022-11-04_09h07.58.402,t1_Paradigm,2021.1.4,59.98826094121495,
R,left,Distractor,0,60,60,60,1723.2639877940528,1725.2804610060994,left,1,3,1.0469276417279616,E02L11,2022-11-04_09h07.58.402,t1_Paradigm,2021.1.4,59.98826094121495,
P,right,Target,0,61,61,61,1726.7637770267902,1728.7652575306129,left,0,3,1.3699767930665985,E02L11,2022-11-04_09h07.58.402,t1_Paradigm,2021.1.4,59.98826094121495,
L,left,Distractor,0,62,62,62,1730.2638453576947,1732.2654015709413,left,1,3,0.717923432122916,E02L11,2022-11-04_09h07.58.402,t1_Paradigm,2021.1.4,59.98826094121495,
V,left,Distractor,0,63,63,63,1733.7638909117086,1735.7632210758748,left,1,3,1.108175910077989,E02L11,2022-11-04_09h07.58.402,t1_Paradigm,2021.1.4,59.98826094121495,
H,left,Lure,0,0,0,0,1755.2946715975413,1757.2986594943795,None,0,3,,E02L11,2022-11-04_09h07.58.402,t1_Paradigm,2021.1.4,59.98826094121495,
B,left,Distractor,0,1,1,1,1758.7972357724793,1760.7989389133872,None,0,3,,E02L11,2022-11-04_09h07.58.402,t1_Paradigm,2021.1.4,59.98826094121495,
T,left,Distractor,0,2,2,2,1762.2973316925345,1764.2993434454547,None,0,3,,E02L11,2022-11-04_09h07.58.402,t1_Paradigm,2021.1.4,59.98826094121495,
R,left,Distractor,0,3,3,3,1765.797367943218,1767.7991317156702,left,1,3,0.6722767550963908,E02L11,2022-11-04_09h07.58.402,t1_Paradigm,2021.1.4,59.98826094121495,
H,left,Pretarget,0,4,4,4,1769.2971619878663,1771.2990024322644,left,1,3,0.9804939203895628,E02L11,2022-11-04_09h07.58.402,t1_Paradigm,2021.1.4,59.98826094121495,
K,left,Distractor,0,5,5,5,1772.7972668904113,1774.7988869433757,left,1,3,0.6966182917822152,E02L11,2022-11-04_09h07.58.402,t1_Paradigm,2021.1.4,59.98826094121495,
G,left,Distractor,0,6,6,6,1776.2974147803616,1778.2990582518978,left,1,3,0.6682801967253909,E02L11,2022-11-04_09h07.58.402,t1_Paradigm,2021.1.4,59.98826094121495,
H,right,Target,0,7,7,7,1779.7973105194978,1781.7987907025963,right,1,3,0.6886441023088992,E02L11,2022-11-04_09h07.58.402,t1_Paradigm,2021.1.4,59.98826094121495,
Y,left,Pretarget,0,8,8,8,1783.297428254038,1785.2991108635906,left,1,3,0.724289438338019,E02L11,2022-11-04_09h07.58.402,t1_Paradigm,2021.1.4,59.98826094121495,
S,left,Distractor,0,9,9,9,1786.797232243698,1788.799290192197,left,1,3,0.7283135858597234,E02L11,2022-11-04_09h07.58.402,t1_Paradigm,2021.1.4,59.98826094121495,
P,left,Distractor,0,10,10,10,1790.2972649656003,1792.2993354253704,left,1,3,0.7159992583328858,E02L11,2022-11-04_09h07.58.402,t1_Paradigm,2021.1.4,59.98826094121495,
Y,right,Target,0,11,11,11,1793.7972723440034,1795.798978692852,right,1,3,1.1524104143027216,E02L11,2022-11-04_09h07.58.402,t1_Paradigm,2021.1.4,59.98826094121495,
H,left,Lure,0,12,12,12,1797.2973653767258,1799.2990531190298,left,1,3,0.7723928213817999,E02L11,2022-11-04_09h07.58.402,t1_Paradigm,2021.1.4,59.98826094121495,
Q,left,Distractor,0,13,13,13,1800.796948654228,1802.79922667332,left,1,3,0.8243038102518767,E02L11,2022-11-04_09h07.58.402,t1_Paradigm,2021.1.4,59.98826094121495,
V,left,Pretarget,0,14,14,14,1804.2973361837212,1806.2988067426486,left,1,3,1.1325995723018423,E02L11,2022-11-04_09h07.58.402,t1_Paradigm,2021.1.4,59.98826094121495,
G,left,Distractor,0,15,15,15,1807.7973272012314,1809.7985844265204,left,1,3,0.8488307709340006,E02L11,2022-11-04_09h07.58.402,t1_Paradigm,2021.1.4,59.98826094121495,
Z,left,Pretarget,0,16,16,16,1811.29744269012,1813.2988259908743,left,1,3,0.8529761816607788,E02L11,2022-11-04_09h07.58.402,t1_Paradigm,2021.1.4,59.98826094121495,
V,right,Target,0,17,17,17,1814.797469316749,1816.7992667736253,right,1,3,0.6963279654737562,E02L11,2022-11-04_09h07.58.402,t1_Paradigm,2021.1.4,59.98826094121495,
N,left,Distractor,0,18,18,18,1818.2974683543434,1820.299311044393,left,1,3,0.6678458300884813,E02L11,2022-11-04_09h07.58.402,t1_Paradigm,2021.1.4,59.98826094121495,
Z,right,Target,0,19,19,19,1821.7973134067142,1823.799341841368,right,1,3,0.9442627988755703,E02L11,2022-11-04_09h07.58.402,t1_Paradigm,2021.1.4,59.98826094121495,
R,left,Distractor,0,20,20,20,1825.2973531862954,1827.2987813992659,left,1,3,0.7887274468084797,E02L11,2022-11-04_09h07.58.402,t1_Paradigm,2021.1.4,59.98826094121495,
P,left,Distractor,0,21,21,21,1828.7974728456466,1830.799139414914,left,1,3,0.7444242908386514,E02L11,2022-11-04_09h07.58.402,t1_Paradigm,2021.1.4,59.98826094121495,
Z,right,Target,0,22,22,22,1832.297387512168,1834.2982915337197,right,1,3,1.1812945153797045,E02L11,2022-11-04_09h07.58.402,t1_Paradigm,2021.1.4,59.98826094121495,
D,left,Pretarget,0,23,23,23,1835.7973259179853,1837.7994554054458,left,1,3,1.055986464722082,E02L11,2022-11-04_09h07.58.402,t1_Paradigm,2021.1.4,59.98826094121495,
K,left,Distractor,0,24,24,24,1839.2973207852338,1841.2983017994557,left,1,3,0.9011536701582372,E02L11,2022-11-04_09h07.58.402,t1_Paradigm,2021.1.4,59.98826094121495,
W,left,Distractor,0,25,25,25,1842.7974086850882,1844.7991442270577,left,1,3,0.8564174307975918,E02L11,2022-11-04_09h07.58.402,t1_Paradigm,2021.1.4,59.98826094121495,
D,right,Target,0,26,26,26,1846.297403231496,1848.2992324477527,right,1,3,0.7001958820037544,E02L11,2022-11-04_09h07.58.402,t1_Paradigm,2021.1.4,59.98826094121495,
G,left,Pretarget,0,27,27,27,1849.7973089155275,1851.7990069235675,left,1,3,1.0730666351737455,E02L11,2022-11-04_09h07.58.402,t1_Paradigm,2021.1.4,59.98826094121495,
V,left,Distractor,0,28,28,28,1853.2973554318305,1855.2992686984362,left,1,3,0.8682338726939633,E02L11,2022-11-04_09h07.58.402,t1_Paradigm,2021.1.4,59.98826094121495,
D,right,Target,0,29,29,29,1856.796608603443,1858.7991865728982,right,1,3,0.8244170536054298,E02L11,2022-11-04_09h07.58.402,t1_Paradigm,2021.1.4,59.98826094121495,
G,right,Target,0,30,30,30,1860.2973666599719,1862.2990945025813,right,1,3,0.6201370339840651,E02L11,2022-11-04_09h07.58.402,t1_Paradigm,2021.1.4,59.98826094121495,
B,left,Pretarget,0,31,31,31,1863.797433386906,1865.7993200267665,left,1,3,0.8803114478942007,E02L11,2022-11-04_09h07.58.402,t1_Paradigm,2021.1.4,59.98826094121495,
N,left,Distractor,0,32,32,32,1867.2974343493115,1869.2966211148305,left,1,3,1.2708924277685583,E02L11,2022-11-04_09h07.58.402,t1_Paradigm,2021.1.4,59.98826094121495,
F,left,Distractor,0,33,33,33,1870.797445898177,1872.799301420222,left,1,3,1.0162188155809417,E02L11,2022-11-04_09h07.58.402,t1_Paradigm,2021.1.4,59.98826094121495,
B,right,Target,0,34,34,34,1874.2974436525255,1876.2988157251384,None,0,3,,E02L11,2022-11-04_09h07.58.402,t1_Paradigm,2021.1.4,59.98826094121495,
Q,left,Pretarget,0,35,35,35,1877.7974080435233,1879.799562553526,left,1,3,1.1199801615439355,E02L11,2022-11-04_09h07.58.402,t1_Paradigm,2021.1.4,59.98826094121495,
S,left,Pretarget,0,36,36,36,1881.2974699584302,1883.2986078450922,left,1,3,1.173039302811958,E02L11,2022-11-04_09h07.58.402,t1_Paradigm,2021.1.4,59.98826094121495,
W,left,Distractor,0,37,37,37,1884.797338750097,1886.7990232844604,left,1,3,0.9686518143862486,E02L11,2022-11-04_09h07.58.402,t1_Paradigm,2021.1.4,59.98826094121495,
Q,right,Target,0,38,38,38,1888.2973717928398,1890.2988077051705,right,1,3,0.6045883749611676,E02L11,2022-11-04_09h07.58.402,t1_Paradigm,2021.1.4,59.98826094121495,
S,right,Target,0,39,39,39,1891.7975774272345,1893.799115675618,right,1,3,0.9764376927632838,E02L11,2022-11-04_09h07.58.402,t1_Paradigm,2021.1.4,59.98826094121495,
T,left,Distractor,0,40,40,40,1895.2974481438287,1897.2991323573515,left,1,3,0.9324178055394441,E02L11,2022-11-04_09h07.58.402,t1_Paradigm,2021.1.4,59.98826094121495,
G,left,Distractor,0,41,41,41,1898.7974179884186,1900.798347032629,left,1,3,1.2253371796105057,E02L11,2022-11-04_09h07.58.402,t1_Paradigm,2021.1.4,59.98826094121495,
D,left,Distractor,0,42,42,42,1902.2974263292272,1904.2992221820168,left,1,3,0.9724440214922652,E02L11,2022-11-04_09h07.58.402,t1_Paradigm,2021.1.4,59.98826094121495,
S,left,Lure,0,43,43,43,1905.7974853569176,1907.7993912450038,left,1,3,1.0722899721004069,E02L11,2022-11-04_09h07.58.402,t1_Paradigm,2021.1.4,59.98826094121495,
Z,left,Pretarget,0,44,44,44,1909.2965405933792,1911.2991577007342,left,1,3,0.8044169381028041,E02L11,2022-11-04_09h07.58.402,t1_Paradigm,2021.1.4,59.98826094121495,
J,left,Distractor,0,45,45,45,1912.7974064394366,1914.7997810201487,left,1,3,1.0643257275223732,E02L11,2022-11-04_09h07.58.402,t1_Paradigm,2021.1.4,59.98826094121495,
M,left,Pretarget,0,46,46,46,1916.2976053371094,1918.2988725071773,left,1,3,1.004809151403606,E02L11,2022-11-04_09h07.58.402,t1_Paradigm,2021.1.4,59.98826094121495,
Z,right,Target,0,47,47,47,1919.7972264692653,1921.7996802880662,right,1,3,0.6880393894389272,E02L11,2022-11-04_09h07.58.402,t1_Paradigm,2021.1.4,59.98826094121495,
P,left,Distractor,0,48,48,48,1923.297467391938,1925.2992648488143,left,1,3,0.8363108090125024,E02L11,2022-11-04_09h07.58.402,t1_Paradigm,2021.1.4,59.98826094121495,
M,right,Target,0,49,49,49,1926.797541176551,1928.7988195747603,right,1,3,0.7448596199974418,E02L11,2022-11-04_09h07.58.402,t1_Paradigm,2021.1.4,59.98826094121495,
K,left,Distractor,0,50,50,50,1930.2973737176508,1932.2966618567007,left,1,3,0.7348544293781742,E02L11,2022-11-04_09h07.58.402,t1_Paradigm,2021.1.4,59.98826094121495,
Y,left,Distractor,0,51,51,51,1933.7975469509838,1935.7995920673711,left,1,3,0.9760309151606634,E02L11,2022-11-04_09h07.58.402,t1_Paradigm,2021.1.4,59.98826094121495,
X,left,Distractor,0,52,52,52,1937.297525457223,1939.2994948641863,left,1,3,1.1562722355592996,E02L11,2022-11-04_09h07.58.402,t1_Paradigm,2021.1.4,59.98826094121495,
F,left,Pretarget,0,53,53,53,1940.7975504798815,1942.7989469334716,left,1,3,0.7288730655563995,E02L11,2022-11-04_09h07.58.402,t1_Paradigm,2021.1.4,59.98826094121495,
M,left,Lure,0,54,54,54,1944.2976723847678,1946.2989905625582,left,1,3,0.9087473878171295,E02L11,2022-11-04_09h07.58.402,t1_Paradigm,2021.1.4,59.98826094121495,
V,left,Distractor,0,55,55,55,1947.7975386101753,1949.799205821124,left,1,3,0.9764556576265022,E02L11,2022-11-04_09h07.58.402,t1_Paradigm,2021.1.4,59.98826094121495,
F,right,Target,0,56,56,56,1951.2977099186974,1953.2990579311736,right,1,3,0.7566009941510856,E02L11,2022-11-04_09h07.58.402,t1_Paradigm,2021.1.4,59.98826094121495,
S,left,Distractor,0,57,57,57,1954.7976560238749,1956.7992330893176,left,1,3,0.9044627486728132,E02L11,2022-11-04_09h07.58.402,t1_Paradigm,2021.1.4,59.98826094121495,
D,left,Distractor,0,58,58,58,1958.2974211963592,1960.297785948962,left,1,3,0.9740031220717356,E02L11,2022-11-04_09h07.58.402,t1_Paradigm,2021.1.4,59.98826094121495,
F,right,Target,0,59,59,59,1961.7976476830663,1963.7989879961824,right,1,3,0.8487486453959718,E02L11,2022-11-04_09h07.58.402,t1_Paradigm,2021.1.4,59.98826094121495,
V,left,Pretarget,0,60,60,60,1965.2976557030343,1967.2990887281485,left,1,3,0.9967637435765937,E02L11,2022-11-04_09h07.58.402,t1_Paradigm,2021.1.4,59.98826094121495,
J,left,Distractor,0,61,61,61,1968.797750660684,1970.799357560696,left,1,3,0.8564257717225701,E02L11,2022-11-04_09h07.58.402,t1_Paradigm,2021.1.4,59.98826094121495,
V,left,Lure,0,62,62,62,1972.2976268308703,1974.2994265332818,None,0,3,,E02L11,2022-11-04_09h07.58.402,t1_Paradigm,2021.1.4,59.98826094121495,
V,right,Target,0,63,63,63,1975.7975844849134,1977.7975572167197,right,1,3,0.7861398532986641,E02L11,2022-11-04_09h07.58.402,t1_Paradigm,2021.1.4,59.98826094121495,
R,left,Distractor,0,0,0,0,2081.846900501754,2083.8495484062005,None,0,4,,E02L11,2022-11-04_09h07.58.402,t1_Paradigm,2021.1.4,59.98826094121495,
F,left,Distractor,0,1,1,1,2085.3477451748913,2087.3496189827565,None,0,4,,E02L11,2022-11-04_09h07.58.402,t1_Paradigm,2021.1.4,59.98826094121495,
P,left,Pretarget,0,2,2,2,2088.847772443085,2090.8498429029714,None,0,4,,E02L11,2022-11-04_09h07.58.402,t1_Paradigm,2021.1.4,59.98826094121495,
H,left,Distractor,0,3,3,3,2092.34786836314,2094.3492786112474,None,0,4,,E02L11,2022-11-04_09h07.58.402,t1_Paradigm,2021.1.4,59.98826094121495,
Z,left,Distractor,0,4,4,4,2095.8478686838644,2097.8490501997294,left,1,4,0.7508326431270689,E02L11,2022-11-04_09h07.58.402,t1_Paradigm,2021.1.4,59.98826094121495,
T,left,Distractor,0,5,5,5,2099.347778859199,2101.3497569278115,left,1,4,0.9146421351470053,E02L11,2022-11-04_09h07.58.402,t1_Paradigm,2021.1.4,59.98826094121495,
P,right,Target,0,6,6,6,2102.847795220092,2104.8492766864365,None,0,4,,E02L11,2022-11-04_09h07.58.402,t1_Paradigm,2021.1.4,59.98826094121495,
G,left,Distractor,0,7,7,7,2106.3477942576865,2108.3497501909733,left,1,4,1.1623690885026008,E02L11,2022-11-04_09h07.58.402,t1_Paradigm,2021.1.4,59.98826094121495,
L,left,Distractor,0,8,8,8,2109.8478876112495,2111.8496523462236,left,1,4,1.4224158229772002,E02L11,2022-11-04_09h07.58.402,t1_Paradigm,2021.1.4,59.98826094121495,
P,left,Lure,0,9,9,9,2113.347828262835,2115.349763023085,right,0,4,1.0742818353464827,E02L11,2022-11-04_09h07.58.402,t1_Paradigm,2021.1.4,59.98826094121495,
Q,left,Pretarget,0,10,10,10,2116.8478398117004,2118.8494053282775,left,1,4,0.7587641658028588,E02L11,2022-11-04_09h07.58.402,t1_Paradigm,2021.1.4,59.98826094121495,
D,left,Distractor,0,11,11,11,2120.3479139170377,2122.350024156389,left,1,4,0.746131922933273,E02L11,2022-11-04_09h07.58.402,t1_Paradigm,2021.1.4,59.98826094121495,
M,left,Pretarget,0,12,12,12,2123.847950167721,2125.8500697104027,left,1,4,1.006028521922417,E02L11,2022-11-04_09h07.58.402,t1_Paradigm,2021.1.4,59.98826094121495,
C,left,Distractor,0,13,13,13,2127.347875420819,2129.3498679255135,left,1,4,0.770139183383435,E02L11,2022-11-04_09h07.58.402,t1_Paradigm,2021.1.4,59.98826094121495,
Q,right,Target,0,14,14,14,2130.8478436613223,2132.849799594609,right,1,4,1.142309624585323,E02L11,2022-11-04_09h07.58.402,t1_Paradigm,2021.1.4,59.98826094121495,
R,left,Distractor,0,15,15,15,2134.3479296363657,2136.3496484966017,left,1,4,0.6821693439269438,E02L11,2022-11-04_09h07.58.402,t1_Paradigm,2021.1.4,59.98826094121495,
M,right,Target,0,16,16,16,2137.847027860349,2139.8498993641697,right,1,4,0.5902648610062897,E02L11,2022-11-04_09h07.58.402,t1_Paradigm,2021.1.4,59.98826094121495,
S,left,Distractor,0,17,17,17,2141.347781425575,2143.347117685131,left,1,4,0.7089027846232057,E02L11,2022-11-04_09h07.58.402,t1_Paradigm,2021.1.4,59.98826094121495,
Z,left,Distractor,0,18,18,18,2144.8478763832245,2146.8496452885447,left,1,4,0.6625391138950363,E02L11,2022-11-04_09h07.58.402,t1_Paradigm,2021.1.4,59.98826094121495,
L,left,Pretarget,0,19,19,19,2148.3479392604204,2150.3496831431985,left,1,4,0.7784874287899584,E02L11,2022-11-04_09h07.58.402,t1_Paradigm,2021.1.4,59.98826094121495,
M,right,Target,0,20,20,20,2151.8478892152198,2153.8497585318983,right,1,4,0.7342301475582644,E02L11,2022-11-04_09h07.58.402,t1_Paradigm,2021.1.4,59.98826094121495,
P,left,Distractor,0,21,21,21,2155.3480091954116,2157.349875945598,left,1,4,0.658080599620007,E02L11,2022-11-04_09h07.58.402,t1_Paradigm,2021.1.4,59.98826094121495,
F,left,Distractor,0,22,22,22,2158.8479020473314,2160.849242681288,left,1,4,0.6949446648359299,E02L11,2022-11-04_09h07.58.402,t1_Paradigm,2021.1.4,59.98826094121495,
L,right,Target,0,23,23,23,2162.347674919176,2164.349979244056,right,1,4,0.6018583452096209,E02L11,2022-11-04_09h07.58.402,t1_Paradigm,2021.1.4,59.98826094121495,
L,left,Lure,0,24,24,24,2165.8479174459353,2167.8479216162814,left,1,4,0.6560919445473701,E02L11,2022-11-04_09h07.58.402,t1_Paradigm,2021.1.4,59.98826094121495,
V,left,Pretarget,0,25,25,25,2169.3480005337624,2171.349470451125,left,1,4,0.8345470363274217,E02L11,2022-11-04_09h07.58.402,t1_Paradigm,2021.1.4,59.98826094121495,
Z,left,Distractor,0,26,26,26,2172.847987060086,2174.849514401052,right,0,4,0.8226661131484434,E02L11,2022-11-04_09h07.58.402,t1_Paradigm,2021.1.4,59.98826094121495,
H,left,Distractor,0,27,27,27,2176.3479549797485,2178.349707524292,left,1,4,0.7785487020155415,E02L11,2022-11-04_09h07.58.402,t1_Paradigm,2021.1.4,59.98826094121495,
X,left,Distractor,0,28,28,28,2179.8479915512726,2181.84912751324,left,1,4,0.7669468770036474,E02L11,2022-11-04_09h07.58.402,t1_Paradigm,2021.1.4,59.98826094121495,
V,right,Target,0,29,29,29,2183.3480355012,2185.349607754615,left,0,4,0.8504485782468691,E02L11,2022-11-04_09h07.58.402,t1_Paradigm,2021.1.4,59.98826094121495,
C,left,Distractor,0,30,30,30,2186.8471561813494,2188.849985660054,left,1,4,0.8381977697135881,E02L11,2022-11-04_09h07.58.402,t1_Paradigm,2021.1.4,59.98826094121495,
S,left,Pretarget,0,31,31,31,2190.3479463180993,2192.3664008068154,left,1,4,0.6654876102693379,E02L11,2022-11-04_09h07.58.402,t1_Paradigm,2021.1.4,59.98826094121495,
D,left,Distractor,0,32,32,32,2193.8479492053157,2195.849219904281,left,1,4,0.8470496749505401,E02L11,2022-11-04_09h07.58.402,t1_Paradigm,2021.1.4,59.98826094121495,
V,left,Distractor,0,33,33,33,2197.348008233006,2199.3494146314915,right,0,4,0.6906805569306016,E02L11,2022-11-04_09h07.58.402,t1_Paradigm,2021.1.4,59.98826094121495,
R,left,Distractor,0,34,34,34,2200.848036142881,2202.8497797048185,left,1,4,0.77446777257137,E02L11,2022-11-04_09h07.58.402,t1_Paradigm,2021.1.4,59.98826094121495,
S,right,Target,0,35,35,35,2204.348047050182,2206.3498788328143,right,1,4,0.6342231541639194,E02L11,2022-11-04_09h07.58.402,t1_Paradigm,2021.1.4,59.98826094121495,
Y,left,Distractor,0,36,36,36,2207.8479796815664,2209.8493989121635,left,1,4,0.7666815732372925,E02L11,2022-11-04_09h07.58.402,t1_Paradigm,2021.1.4,59.98826094121495,
N,left,Pretarget,0,37,37,37,2211.3479848144343,2213.349903534632,left,1,4,0.7383136434946209,E02L11,2022-11-04_09h07.58.402,t1_Paradigm,2021.1.4,59.98826094121495,
Z,left,Pretarget,0,38,38,38,2214.847978077596,2216.849565729499,left,1,4,0.8386581214144826,E02L11,2022-11-04_09h07.58.402,t1_Paradigm,2021.1.4,59.98826094121495,
P,left,Pretarget,0,39,39,39,2218.3480127243092,2220.349796386552,left,1,4,0.7304751535411924,E02L11,2022-11-04_09h07.58.402,t1_Paradigm,2021.1.4,59.98826094121495,
M,left,Distractor,0,40,40,40,2221.848066298291,2223.849374531186,left,1,4,1.0867892859969288,E02L11,2022-11-04_09h07.58.402,t1_Paradigm,2021.1.4,59.98826094121495,
N,right,Target,0,41,41,41,2225.347987060086,2227.350081900833,None,0,4,,E02L11,2022-11-04_09h07.58.402,t1_Paradigm,2021.1.4,59.98826094121495,
Z,right,Target,0,42,42,42,2228.8480759223457,2230.8499138002517,right,1,4,0.7903834296157584,E02L11,2022-11-04_09h07.58.402,t1_Paradigm,2021.1.4,59.98826094121495,
P,right,Target,0,43,43,43,2232.3480743183754,2234.349397949758,right,1,4,0.6666996023850515,E02L11,2022-11-04_09h07.58.402,t1_Paradigm,2021.1.4,59.98826094121495,
X,left,Pretarget,0,44,44,44,2235.847959150211,2237.850124888355,left,1,4,1.1500390416476876,E02L11,2022-11-04_09h07.58.402,t1_Paradigm,2021.1.4,59.98826094121495,
Z,left,Lure,0,45,45,45,2239.3481246844167,2241.3496869929368,None,0,4,,E02L11,2022-11-04_09h07.58.402,t1_Paradigm,2021.1.4,59.98826094121495,
R,left,Pretarget,0,46,46,46,2242.848034859635,2244.8498255795566,left,1,4,1.3024600424105301,E02L11,2022-11-04_09h07.58.402,t1_Paradigm,2021.1.4,59.98826094121495,
K,left,Distractor,0,47,47,47,2246.348096453701,2248.3496946921805,left,1,4,1.194909697282128,E02L11,2022-11-04_09h07.58.402,t1_Paradigm,2021.1.4,59.98826094121495,
X,right,Target,0,48,48,48,2249.8479979673866,2251.849893589737,right,1,4,0.5262868835125118,E02L11,2022-11-04_09h07.58.402,t1_Paradigm,2021.1.4,59.98826094121495,
B,left,Distractor,0,49,49,49,2253.348056032555,2255.3502118259203,left,1,4,0.7060229399939999,E02L11,2022-11-04_09h07.58.402,t1_Paradigm,2021.1.4,59.98826094121495,
R,right,Target,0,50,50,50,2256.8479588294867,2258.850136758061,left,0,4,0.8221579618984833,E02L11,2022-11-04_09h07.58.402,t1_Paradigm,2021.1.4,59.98826094121495,
Y,left,Pretarget,0,51,51,51,2260.348060844699,2262.349814030691,left,1,4,0.7149216824909672,E02L11,2022-11-04_09h07.58.402,t1_Paradigm,2021.1.4,59.98826094121495,
W,left,Pretarget,0,52,52,52,2263.8480935664847,2265.8498797952197,left,1,4,0.7664140239357948,E02L11,2022-11-04_09h07.58.402,t1_Paradigm,2021.1.4,59.98826094121495,
Z,left,Distractor,0,53,53,53,2267.348085867241,2269.349995604949,right,0,4,0.9945643212413415,E02L11,2022-11-04_09h07.58.402,t1_Paradigm,2021.1.4,59.98826094121495,
Q,left,Distractor,0,54,54,54,2270.848039992503,2272.849910592311,left,1,4,1.06248688721098,E02L11,2022-11-04_09h07.58.402,t1_Paradigm,2021.1.4,59.98826094121495,
Y,right,Target,0,55,55,55,2274.3480974161066,2276.3502349236514,right,1,4,0.9700527591630816,E02L11,2022-11-04_09h07.58.402,t1_Paradigm,2021.1.4,59.98826094121495,
W,right,Target,0,56,56,56,2277.8480521829333,2279.8493402053136,right,1,4,0.8470846425043419,E02L11,2022-11-04_09h07.58.402,t1_Paradigm,2021.1.4,59.98826094121495,
H,left,Pretarget,0,57,57,57,2281.3479572254,2283.3494088570587,left,1,4,0.6429053548490629,E02L11,2022-11-04_09h07.58.402,t1_Paradigm,2021.1.4,59.98826094121495,
M,left,Distractor,0,58,58,58,2284.848027481232,2286.8498663215432,left,1,4,0.6625606075394899,E02L11,2022-11-04_09h07.58.402,t1_Paradigm,2021.1.4,59.98826094121495,
R,left,Pretarget,0,59,59,59,2288.3481076818425,2290.3500010585412,left,1,4,0.6501227711560205,E02L11,2022-11-04_09h07.58.402,t1_Paradigm,2021.1.4,59.98826094121495,
J,left,Distractor,0,60,60,60,2291.8477009041235,2293.849500606535,left,1,4,0.7187507819617167,E02L11,2022-11-04_09h07.58.402,t1_Paradigm,2021.1.4,59.98826094121495,
H,right,Target,0,61,61,61,2295.3481189098675,2297.3500363469357,right,1,4,0.9624353022081777,E02L11,2022-11-04_09h07.58.402,t1_Paradigm,2021.1.4,59.98826094121495,
Z,left,Distractor,0,62,62,62,2298.8482276620343,2300.8498977601994,left,1,4,0.6147728941868991,E02L11,2022-11-04_09h07.58.402,t1_Paradigm,2021.1.4,59.98826094121495,
R,right,Target,0,63,63,63,2302.34805378702,2304.349945880589,right,1,4,0.6662892958847806,E02L11,2022-11-04_09h07.58.402,t1_Paradigm,2021.1.4,59.98826094121495,
J,left,Pretarget,0,0,0,0,2310.9108284340473,2312.897305964143,None,0,4,,E02L11,2022-11-04_09h07.58.402,t1_Paradigm,2021.1.4,59.98826094121495,
G,left,Pretarget,0,1,1,1,2314.398212552187,2316.400051713339,None,0,4,,E02L11,2022-11-04_09h07.58.402,t1_Paradigm,2021.1.4,59.98826094121495,
Z,left,Distractor,0,2,2,2,2317.8981641109567,2319.9000677535078,None,0,4,,E02L11,2022-11-04_09h07.58.402,t1_Paradigm,2021.1.4,59.98826094121495,
F,left,Distractor,0,3,3,3,2321.398139409139,2323.399943282013,None,0,4,,E02L11,2022-11-04_09h07.58.402,t1_Paradigm,2021.1.4,59.98826094121495,
J,right,Target,0,4,4,4,2324.898233404383,2326.8972228761995,right,1,4,0.5191086051054299,E02L11,2022-11-04_09h07.58.402,t1_Paradigm,2021.1.4,59.98826094121495,
G,right,Target,0,5,5,5,2328.39817918872,2330.3998364547733,right,1,4,0.7605953069869429,E02L11,2022-11-04_09h07.58.402,t1_Paradigm,2021.1.4,59.98826094121495,
H,left,Distractor,0,6,6,6,2331.898358838167,2333.8999381492613,left,1,4,0.700398308574222,E02L11,2022-11-04_09h07.58.402,t1_Paradigm,2021.1.4,59.98826094121495,
P,left,Distractor,0,7,7,7,2335.3982205722714,2337.3995002537267,left,1,4,0.7368491797242314,E02L11,2022-11-04_09h07.58.402,t1_Paradigm,2021.1.4,59.98826094121495,
G,left,Lure,0,8,8,8,2338.8983107177773,2340.899948414881,left,1,4,1.0606358563527465,E02L11,2022-11-04_09h07.58.402,t1_Paradigm,2021.1.4,59.98826094121495,
S,left,Distractor,0,9,9,9,2342.398183038342,2344.4001983200433,left,1,4,1.2402904289774597,E02L11,2022-11-04_09h07.58.402,t1_Paradigm,2021.1.4,59.98826094121495,
R,left,Pretarget,0,10,10,10,2345.8981990785105,2347.8999997433275,left,1,4,1.148214316694066,E02L11,2022-11-04_09h07.58.402,t1_Paradigm,2021.1.4,59.98826094121495,
T,left,Pretarget,0,11,11,11,2349.398307830561,2351.4001463500317,left,1,4,0.9123490382917225,E02L11,2022-11-04_09h07.58.402,t1_Paradigm,2021.1.4,59.98826094121495,
X,left,Distractor,0,12,12,12,2352.89771017537,2354.8990581877297,left,1,4,0.8053029947914183,E02L11,2022-11-04_09h07.58.402,t1_Paradigm,2021.1.4,59.98826094121495,
F,left,Pretarget,0,13,13,13,2356.398346968461,2358.3995355420047,None,0,4,,E02L11,2022-11-04_09h07.58.402,t1_Paradigm,2021.1.4,59.98826094121495,
R,right,Target,0,14,14,14,2359.898293394479,2361.8985375252087,right,1,4,0.8939365748083219,E02L11,2022-11-04_09h07.58.402,t1_Paradigm,2021.1.4,59.98826094121495,
T,right,Target,0,15,15,15,2363.398314567399,2365.400218851515,right,1,4,0.5124753704294562,E02L11,2022-11-04_09h07.58.402,t1_Paradigm,2021.1.4,59.98826094121495,
C,left,Distractor,0,16,16,16,2366.8982481613057,2368.900173939066,left,1,4,0.7403302084421739,E02L11,2022-11-04_09h07.58.402,t1_Paradigm,2021.1.4,59.98826094121495,
F,right,Target,0,17,17,17,2370.3982455948135,2372.3993353612022,right,1,4,0.8411594189237803,E02L11,2022-11-04_09h07.58.402,t1_Paradigm,2021.1.4,59.98826094121495,
M,left,Distractor,0,18,18,18,2373.898165394203,2375.9000950217014,left,1,4,0.9404452483868226,E02L11,2022-11-04_09h07.58.402,t1_Paradigm,2021.1.4,59.98826094121495,
N,left,Distractor,0,19,19,19,2377.398240782786,2379.400206981809,left,1,4,0.7683497467078269,E02L11,2022-11-04_09h07.58.402,t1_Paradigm,2021.1.4,59.98826094121495,
R,left,Lure,0,20,20,20,2380.8981984368293,2382.899831001181,left,1,4,1.0447699235519394,E02L11,2022-11-04_09h07.58.402,t1_Paradigm,2021.1.4,59.98826094121495,
F,right,Target,0,21,21,21,2384.398246557219,2386.399455341394,left,0,4,1.065323744318448,E02L11,2022-11-04_09h07.58.402,t1_Paradigm,2021.1.4,59.98826094121495,
P,left,Distractor,0,22,22,22,2387.8983511389233,2389.900251573301,left,1,4,0.9721732642501593,E02L11,2022-11-04_09h07.58.402,t1_Paradigm,2021.1.4,59.98826094121495,
L,left,Pretarget,0,23,23,23,2391.39822891308,2393.400062941364,left,1,4,0.672500996151939,E02L11,2022-11-04_09h07.58.402,t1_Paradigm,2021.1.4,59.98826094121495,
T,left,Distractor,0,24,24,24,2394.898356913356,2396.8985522821313,left,1,4,0.9980633148225024,E02L11,2022-11-04_09h07.58.402,t1_Paradigm,2021.1.4,59.98826094121495,
F,left,Distractor,0,25,25,25,2398.3985003121197,2400.400188054424,right,0,4,1.1284743719734251,E02L11,2022-11-04_09h07.58.402,t1_Paradigm,2021.1.4,59.98826094121495,
V,left,Distractor,0,26,26,26,2401.8983219458023,2403.9001341596013,left,1,4,0.8924807726871222,E02L11,2022-11-04_09h07.58.402,t1_Paradigm,2021.1.4,59.98826094121495,
L,right,Target,0,27,27,27,2405.3983100762125,2407.3998268307187,right,1,4,0.624740871717222,E02L11,2022-11-04_09h07.58.402,t1_Paradigm,2021.1.4,59.98826094121495,
S,left,Pretarget,0,28,28,28,2408.8983774447115,2410.8996629005997,left,1,4,1.092862078687176,E02L11,2022-11-04_09h07.58.402,t1_Paradigm,2021.1.4,59.98826094121495,
W,left,Distractor,0,29,29,29,2412.3982597101713,2414.4001970369136,left,1,4,0.680400438606739,E02L11,2022-11-04_09h07.58.402,t1_Paradigm,2021.1.4,59.98826094121495,
Q,left,Distractor,0,30,30,30,2415.8982917903922,2417.8994675318245,left,1,4,0.9730163333006203,E02L11,2022-11-04_09h07.58.402,t1_Paradigm,2021.1.4,59.98826094121495,
L,right,Target,0,31,31,31,2419.398397334502,2421.4000815479085,right,1,4,1.1203692951239645,E02L11,2022-11-04_09h07.58.402,t1_Paradigm,2021.1.4,59.98826094121495,
S,right,Target,0,32,32,32,2422.898315208964,2424.8995855872054,right,1,4,1.0928274319740012,E02L11,2022-11-04_09h07.58.402,t1_Paradigm,2021.1.4,59.98826094121495,
Z,left,Pretarget,0,33,33,33,2426.3983845023904,2428.400386631256,left,1,4,0.7122198832221329,E02L11,2022-11-04_09h07.58.402,t1_Paradigm,2021.1.4,59.98826094121495,
F,left,Distractor,0,34,34,34,2429.898447700427,2431.8999115226325,left,1,4,0.8449012601049617,E02L11,2022-11-04_09h07.58.402,t1_Paradigm,2021.1.4,59.98826094121495,
V,left,Distractor,0,35,35,35,2433.3983180961804,2435.397494916804,left,1,4,0.6910623119911179,E02L11,2022-11-04_09h07.58.402,t1_Paradigm,2021.1.4,59.98826094121495,
M,left,Distractor,0,36,36,36,2436.898341194028,2438.899689848069,left,1,4,0.8689133325824514,E02L11,2022-11-04_09h07.58.402,t1_Paradigm,2021.1.4,59.98826094121495,
Z,right,Target,0,37,37,37,2440.398419148987,2442.399240724393,right,1,4,0.8573692521313205,E02L11,2022-11-04_09h07.58.402,t1_Paradigm,2021.1.4,59.98826094121495,
H,left,Pretarget,0,38,38,38,2443.898447058862,2445.8984284523176,left,1,4,0.6542043422814459,E02L11,2022-11-04_09h07.58.402,t1_Paradigm,2021.1.4,59.98826094121495,
L,left,Distractor,0,39,39,39,2447.3983572341967,2449.399981136783,left,1,4,0.88072143367026,E02L11,2022-11-04_09h07.58.402,t1_Paradigm,2021.1.4,59.98826094121495,
G,left,Distractor,0,40,40,40,2450.89845219173,2452.8994938376127,left,1,4,1.269077326869592,E02L11,2022-11-04_09h07.58.402,t1_Paradigm,2021.1.4,59.98826094121495,
K,left,Distractor,0,41,41,41,2454.3984826679807,2456.40019094164,left,1,4,0.824420582386665,E02L11,2022-11-04_09h07.58.402,t1_Paradigm,2021.1.4,59.98826094121495,
H,right,Target,0,42,42,42,2457.8983155298047,2459.899859873345,right,1,4,0.8929013448068872,E02L11,2022-11-04_09h07.58.402,t1_Paradigm,2021.1.4,59.98826094121495,
B,left,Distractor,0,43,43,43,2461.398472402245,2463.3997758231126,left,1,4,0.7690170160494745,E02L11,2022-11-04_09h07.58.402,t1_Paradigm,2021.1.4,59.98826094121495,
Z,left,Distractor,0,44,44,44,2464.8983950888505,2466.8996458980255,left,1,4,0.8209299296140671,E02L11,2022-11-04_09h07.58.402,t1_Paradigm,2021.1.4,59.98826094121495,
T,left,Pretarget,0,45,45,45,2468.3983103969367,2470.400188054424,left,1,4,1.1447076237527654,E02L11,2022-11-04_09h07.58.402,t1_Paradigm,2021.1.4,59.98826094121495,
H,right,Target,0,46,46,46,2471.8983707078733,2473.8995153313735,right,1,4,0.765514493570663,E02L11,2022-11-04_09h07.58.402,t1_Paradigm,2021.1.4,59.98826094121495,
F,left,Distractor,0,47,47,47,2475.397426265059,2477.399974720669,left,1,4,0.7366011994890869,E02L11,2022-11-04_09h07.58.402,t1_Paradigm,2021.1.4,59.98826094121495,
R,left,Distractor,0,48,48,48,2478.8983841815498,2480.9001466708723,left,1,4,1.0126129947602749,E02L11,2022-11-04_09h07.58.402,t1_Paradigm,2021.1.4,59.98826094121495,
T,right,Target,0,49,49,49,2482.398423961131,2484.4006012481404,left,0,4,1.0159926498308778,E02L11,2022-11-04_09h07.58.402,t1_Paradigm,2021.1.4,59.98826094121495,
H,right,Target,0,50,50,50,2485.8984858759213,2487.899181055138,right,1,4,0.765680990065448,E02L11,2022-11-04_09h07.58.402,t1_Paradigm,2021.1.4,59.98826094121495,
Y,left,Pretarget,0,51,51,51,2489.398528542719,2491.400214360212,left,1,4,0.6884009338682517,E02L11,2022-11-04_09h07.58.402,t1_Paradigm,2021.1.4,59.98826094121495,
H,left,Distractor,0,52,52,52,2492.898441925994,2494.899496724829,left,1,4,0.9973498499020934,E02L11,2022-11-04_09h07.58.402,t1_Paradigm,2021.1.4,59.98826094121495,
S,left,Distractor,0,53,53,53,2496.3983915600693,2498.400197999319,left,1,4,0.8085706898709759,E02L11,2022-11-04_09h07.58.402,t1_Paradigm,2021.1.4,59.98826094121495,
Q,left,Distractor,0,54,54,54,2499.8985875704093,2501.899112082552,left,1,4,0.9096850937930867,E02L11,2022-11-04_09h07.58.402,t1_Paradigm,2021.1.4,59.98826094121495,
Y,right,Target,0,55,55,55,2503.398519560229,2505.400118440273,right,1,4,1.1364870577817783,E02L11,2022-11-04_09h07.58.402,t1_Paradigm,2021.1.4,59.98826094121495,
R,left,Distractor,0,56,56,56,2506.8984329435043,2508.8999233923387,left,1,4,0.9167174069443718,E02L11,2022-11-04_09h07.58.402,t1_Paradigm,2021.1.4,59.98826094121495,
H,left,Pretarget,0,57,57,57,2510.3976261251373,2512.400237137219,left,1,4,1.0646215074229985,E02L11,2022-11-04_09h07.58.402,t1_Paradigm,2021.1.4,59.98826094121495,
J,left,Distractor,0,58,58,58,2513.8984088833677,2515.900609588949,left,1,4,0.9401048767613247,E02L11,2022-11-04_09h07.58.402,t1_Paradigm,2021.1.4,59.98826094121495,
V,left,Distractor,0,59,59,59,2517.39849132963,2519.4003705910873,left,1,4,0.9283949413802475,E02L11,2022-11-04_09h07.58.402,t1_Paradigm,2021.1.4,59.98826094121495,
Y,left,Lure,0,60,60,60,2520.8981657150434,2522.9003667414654,left,1,4,1.028475719387643,E02L11,2022-11-04_09h07.58.402,t1_Paradigm,2021.1.4,59.98826094121495,
H,right,Target,0,61,61,61,2524.3981063665124,2526.400560506154,right,1,4,0.9201448615640402,E02L11,2022-11-04_09h07.58.402,t1_Paradigm,2021.1.4,59.98826094121495,
L,left,Distractor,0,62,62,62,2527.898406316992,2529.8992153810104,left,1,4,0.7656440977007151,E02L11,2022-11-04_09h07.58.402,t1_Paradigm,2021.1.4,59.98826094121495,
P,left,Distractor,0,63,63,63,2531.3985320715,2533.4003237539437,left,1,4,1.184399242629297,E02L11,2022-11-04_09h07.58.402,t1_Paradigm,2021.1.4,59.98826094121495,
