Letter,CorrAnswer,Stimulus,nback_run.thisRepN,nback_run.thisTrialN,nback_run.thisN,nback_run.thisIndex,fixcross.started,nback_trial.started,trial_resp.keys,trial_resp.corr,currentlevel,trial_resp.rt,Participant,date,expName,psychopyVersion,frameRate,
H,left,Distractor,0,0,0,0,289.33870443590786,291.34291305428815,None,0,1,,E13T05,2022-12-08_12h08.05.040,t1_Paradigm,2021.1.4,60.34838247479602,
Q,left,Pretarget,0,1,1,1,292.8414574093531,294.84311050871474,left,1,1,1.0792528491347184,E13T05,2022-12-08_12h08.05.040,t1_Paradigm,2021.1.4,60.34838247479602,
Q,right,Target,0,2,2,2,296.34075212331663,298.34078259962916,left,0,1,0.5003921820225514,E13T05,2022-12-08_12h08.05.040,t1_Paradigm,2021.1.4,60.34838247479602,
T,left,Distractor,0,3,3,3,299.8401331333662,301.84053991194014,left,1,1,0.8325701957710407,E13T05,2022-12-08_12h08.05.040,t1_Paradigm,2021.1.4,60.34838247479602,
Q,left,Lure,0,4,4,4,303.3397114374402,305.33918307441854,left,1,1,0.7996390962980513,E13T05,2022-12-08_12h08.05.040,t1_Paradigm,2021.1.4,60.34838247479602,
L,left,Distractor,0,5,5,5,306.83938919053435,308.8404436709534,left,1,1,0.5838039250265865,E13T05,2022-12-08_12h08.05.040,t1_Paradigm,2021.1.4,60.34838247479602,
V,left,Pretarget,0,6,6,6,310.3384769863751,312.33824568720047,left,1,1,0.575917296911939,E13T05,2022-12-08_12h08.05.040,t1_Paradigm,2021.1.4,60.34838247479602,
V,right,Target,0,7,7,7,313.8378759614079,315.8377120309251,right,1,1,0.631331574262731,E13T05,2022-12-08_12h08.05.040,t1_Paradigm,2021.1.4,60.34838247479602,
K,left,Distractor,0,8,8,8,317.3376473890621,319.3374420749569,left,1,1,0.7107656772568589,E13T05,2022-12-08_12h08.05.040,t1_Paradigm,2021.1.4,60.34838247479602,
G,left,Pretarget,0,9,9,9,320.8371580036419,322.83725937748204,left,1,1,0.6843622831584071,E13T05,2022-12-08_12h08.05.040,t1_Paradigm,2021.1.4,60.34838247479602,
G,right,Target,0,10,10,10,324.33702470987373,326.336338832436,right,1,1,0.6263385918337008,E13T05,2022-12-08_12h08.05.040,t1_Paradigm,2021.1.4,60.34838247479602,
G,right,Target,0,11,11,11,327.83561526061385,329.8360910118936,right,1,1,0.5144424037789577,E13T05,2022-12-08_12h08.05.040,t1_Paradigm,2021.1.4,60.34838247479602,
P,left,Pretarget,0,12,12,12,331.33591216405875,333.33658071811806,left,1,1,0.48741055603204586,E13T05,2022-12-08_12h08.05.040,t1_Paradigm,2021.1.4,60.34838247479602,
P,right,Target,0,13,13,13,334.83484340789437,336.8341780618666,left,0,1,0.5330493154870055,E13T05,2022-12-08_12h08.05.040,t1_Paradigm,2021.1.4,60.34838247479602,
G,left,Lure,0,14,14,14,338.3344829853959,340.3343832155715,left,1,1,1.076487203959914,E13T05,2022-12-08_12h08.05.040,t1_Paradigm,2021.1.4,60.34838247479602,
Y,left,Distractor,0,15,15,15,341.83352009431655,343.8345460232431,left,1,1,0.589494654615919,E13T05,2022-12-08_12h08.05.040,t1_Paradigm,2021.1.4,60.34838247479602,
B,left,Distractor,0,16,16,16,345.3329027083819,347.3334480739777,right,0,1,0.6335236231516319,E13T05,2022-12-08_12h08.05.040,t1_Paradigm,2021.1.4,60.34838247479602,
T,left,Pretarget,0,17,17,17,348.8322516381031,350.83185608764325,left,1,1,0.7146230160324194,E13T05,2022-12-08_12h08.05.040,t1_Paradigm,2021.1.4,60.34838247479602,
T,right,Target,0,18,18,18,352.3317667439278,354.3313952537155,right,1,1,0.7953910191117757,E13T05,2022-12-08_12h08.05.040,t1_Paradigm,2021.1.4,60.34838247479602,
S,left,Distractor,0,19,19,19,355.83107364841635,357.8316270340947,left,1,1,0.662794677873535,E13T05,2022-12-08_12h08.05.040,t1_Paradigm,2021.1.4,60.34838247479602,
T,left,Lure,0,20,20,20,359.33081588297136,361.331245759382,left,1,1,0.6123708165250719,E13T05,2022-12-08_12h08.05.040,t1_Paradigm,2021.1.4,60.34838247479602,
J,left,Distractor,0,21,21,21,362.83020330908585,364.829481822484,left,1,1,0.7102751690217701,E13T05,2022-12-08_12h08.05.040,t1_Paradigm,2021.1.4,60.34838247479602,
P,left,Distractor,0,22,22,22,366.32967446485964,368.3292895009108,left,1,1,0.5785113123274641,E13T05,2022-12-08_12h08.05.040,t1_Paradigm,2021.1.4,60.34838247479602,
F,left,Distractor,0,23,23,23,369.8287754136363,371.8308275922918,left,1,1,0.49777474796974275,E13T05,2022-12-08_12h08.05.040,t1_Paradigm,2021.1.4,60.34838247479602,
L,left,Distractor,0,24,24,24,373.3284560539596,375.3280351600406,left,1,1,0.5110335480039794,E13T05,2022-12-08_12h08.05.040,t1_Paradigm,2021.1.4,60.34838247479602,
W,left,Pretarget,0,25,25,25,376.82783898882917,378.8274087916143,left,1,1,0.4855951302051835,E13T05,2022-12-08_12h08.05.040,t1_Paradigm,2021.1.4,60.34838247479602,
W,right,Target,0,26,26,26,380.32731688147214,382.3269084988824,right,1,1,0.3949483105698164,E13T05,2022-12-08_12h08.05.040,t1_Paradigm,2021.1.4,60.34838247479602,
V,left,Distractor,0,27,27,27,383.82664848781315,385.82629560419264,left,1,1,0.45080882529873634,E13T05,2022-12-08_12h08.05.040,t1_Paradigm,2021.1.4,60.34838247479602,
W,left,Lure,0,28,28,28,387.3260278938469,389.3257144690306,left,1,1,0.49901144465729885,E13T05,2022-12-08_12h08.05.040,t1_Paradigm,2021.1.4,60.34838247479602,
R,left,Pretarget,0,29,29,29,390.8254525331431,392.8271701139656,left,1,1,0.6992478766842396,E13T05,2022-12-08_12h08.05.040,t1_Paradigm,2021.1.4,60.34838247479602,
R,right,Target,0,30,30,30,394.3413427221767,396.3410414878854,right,1,1,0.402405703882323,E13T05,2022-12-08_12h08.05.040,t1_Paradigm,2021.1.4,60.34838247479602,
G,left,Distractor,0,31,31,31,397.8407535669321,399.8404292348041,left,1,1,0.47464803868751915,E13T05,2022-12-08_12h08.05.040,t1_Paradigm,2021.1.4,60.34838247479602,
R,left,Lure,0,32,32,32,401.34054520519385,403.3397528210644,left,1,1,0.5592672852835676,E13T05,2022-12-08_12h08.05.040,t1_Paradigm,2021.1.4,60.34838247479602,
S,left,Distractor,0,33,33,33,404.83972571318554,406.839670855823,left,1,1,0.5045725697145826,E13T05,2022-12-08_12h08.05.040,t1_Paradigm,2021.1.4,60.34838247479602,
R,left,Lure,0,34,34,34,408.33898834682077,410.3397634075736,left,1,1,0.47027067777708,E13T05,2022-12-08_12h08.05.040,t1_Paradigm,2021.1.4,60.34838247479602,
P,left,Pretarget,0,35,35,35,411.83843415913543,413.8384184397728,left,1,1,0.5479615356853174,E13T05,2022-12-08_12h08.05.040,t1_Paradigm,2021.1.4,60.34838247479602,
P,right,Target,0,36,36,36,415.3381067793762,417.3377349683615,right,1,1,0.6286092375321459,E13T05,2022-12-08_12h08.05.040,t1_Paradigm,2021.1.4,60.34838247479602,
Y,left,Pretarget,0,37,37,37,418.8376911787127,420.83750896244237,left,1,1,0.5129532349001238,E13T05,2022-12-08_12h08.05.040,t1_Paradigm,2021.1.4,60.34838247479602,
Y,right,Target,0,38,38,38,422.33743726290595,424.33705839421964,right,1,1,0.7972898537936999,E13T05,2022-12-08_12h08.05.040,t1_Paradigm,2021.1.4,60.34838247479602,
J,left,Distractor,0,39,39,39,425.8358959634934,427.8359617281676,left,1,1,0.5438193235859217,E13T05,2022-12-08_12h08.05.040,t1_Paradigm,2021.1.4,60.34838247479602,
Y,left,Lure,0,40,40,40,429.33629841122274,431.3361117037057,left,1,1,0.45650051729535335,E13T05,2022-12-08_12h08.05.040,t1_Paradigm,2021.1.4,60.34838247479602,
T,left,Distractor,0,41,41,41,432.83515651190646,434.8347635278751,left,1,1,0.5173020443180576,E13T05,2022-12-08_12h08.05.040,t1_Paradigm,2021.1.4,60.34838247479602,
V,left,Distractor,0,42,42,42,436.33525836695117,438.3348653829198,left,1,1,0.5326544066356291,E13T05,2022-12-08_12h08.05.040,t1_Paradigm,2021.1.4,60.34838247479602,
N,left,Pretarget,0,43,43,43,439.83405391099404,441.8363646571015,left,1,1,0.4193142829644785,E13T05,2022-12-08_12h08.05.040,t1_Paradigm,2021.1.4,60.34838247479602,
N,right,Target,0,44,44,44,443.3335982099179,445.33338712135264,right,1,1,0.4208589508125442,E13T05,2022-12-08_12h08.05.040,t1_Paradigm,2021.1.4,60.34838247479602,
N,right,Target,0,45,45,45,446.8332349001903,448.8324277591091,right,1,1,0.4408328053432342,E13T05,2022-12-08_12h08.05.040,t1_Paradigm,2021.1.4,60.34838247479602,
X,left,Distractor,0,46,46,46,450.332548541548,452.33317763680316,left,1,1,0.40577542165556224,E13T05,2022-12-08_12h08.05.040,t1_Paradigm,2021.1.4,60.34838247479602,
Z,left,Distractor,0,47,47,47,453.8318037967074,455.8326664367578,left,1,1,0.4414028727933328,E13T05,2022-12-08_12h08.05.040,t1_Paradigm,2021.1.4,60.34838247479602,
H,left,Pretarget,0,48,48,48,457.3314241260123,459.33088902612144,left,1,1,0.5152347879102308,E13T05,2022-12-08_12h08.05.040,t1_Paradigm,2021.1.4,60.34838247479602,
H,right,Target,0,49,49,49,460.8303566530594,462.8307066494508,right,1,1,0.579182432811649,E13T05,2022-12-08_12h08.05.040,t1_Paradigm,2021.1.4,60.34838247479602,
K,left,Distractor,0,50,50,50,464.33040782118405,466.3304588289084,left,1,1,0.5163223110666877,E13T05,2022-12-08_12h08.05.040,t1_Paradigm,2021.1.4,60.34838247479602,
V,left,Pretarget,0,51,51,51,467.8296916278359,469.8290641365984,left,1,1,0.40209709111513803,E13T05,2022-12-08_12h08.05.040,t1_Paradigm,2021.1.4,60.34838247479602,
V,right,Target,0,52,52,52,471.32923817238407,473.3289667728004,right,1,1,0.5722084900589834,E13T05,2022-12-08_12h08.05.040,t1_Paradigm,2021.1.4,60.34838247479602,
R,left,Distractor,0,53,53,53,474.8283827504074,476.82805360623024,left,1,1,0.5060540393151314,E13T05,2022-12-08_12h08.05.040,t1_Paradigm,2021.1.4,60.34838247479602,
V,left,Lure,0,54,54,54,478.3279283325446,480.32793378620045,left,1,1,0.8269519677269273,E13T05,2022-12-08_12h08.05.040,t1_Paradigm,2021.1.4,60.34838247479602,
Y,left,Distractor,0,55,55,55,481.82727309182155,483.82790282868336,left,1,1,0.4914424117978342,E13T05,2022-12-08_12h08.05.040,t1_Paradigm,2021.1.4,60.34838247479602,
Q,left,Distractor,0,56,56,56,485.3267869144347,487.32648279291425,left,1,1,0.8011385308818717,E13T05,2022-12-08_12h08.05.040,t1_Paradigm,2021.1.4,60.34838247479602,
Z,left,Pretarget,0,57,57,57,488.8259908410673,490.82563763664257,left,1,1,0.47460601345846953,E13T05,2022-12-08_12h08.05.040,t1_Paradigm,2021.1.4,60.34838247479602,
Z,right,Target,0,58,58,58,492.32553481918694,494.32553898963124,left,0,1,0.8646299935026036,E13T05,2022-12-08_12h08.05.040,t1_Paradigm,2021.1.4,60.34838247479602,
B,left,Distractor,0,59,59,59,495.82519139926444,497.824638975997,left,1,1,0.48430935061333,E13T05,2022-12-08_12h08.05.040,t1_Paradigm,2021.1.4,60.34838247479602,
S,left,Pretarget,0,60,60,60,499.32432378676276,501.32403570540737,left,1,1,0.5408830110591225,E13T05,2022-12-08_12h08.05.040,t1_Paradigm,2021.1.4,60.34838247479602,
S,right,Target,0,61,61,61,502.8237763359466,504.8233727654042,right,1,1,0.48320450407845783,E13T05,2022-12-08_12h08.05.040,t1_Paradigm,2021.1.4,60.34838247479602,
T,left,Distractor,0,62,62,62,506.32323401798203,508.3235875432092,left,1,1,0.36338447472553526,E13T05,2022-12-08_12h08.05.040,t1_Paradigm,2021.1.4,60.34838247479602,
D,left,Distractor,0,63,63,63,509.8226339554258,511.8244240377917,left,1,1,0.34472078083672386,E13T05,2022-12-08_12h08.05.040,t1_Paradigm,2021.1.4,60.34838247479602,
R,left,Distractor,0,0,0,0,523.4991769791559,525.5041083673532,None,0,1,,E13T05,2022-12-08_12h08.05.040,t1_Paradigm,2021.1.4,60.34838247479602,
V,left,Distractor,0,1,1,1,527.0030534057278,529.0025808624796,left,1,1,0.5918333106092177,E13T05,2022-12-08_12h08.05.040,t1_Paradigm,2021.1.4,60.34838247479602,
N,left,Pretarget,0,2,2,2,530.5025065965183,532.5024979348291,left,1,1,1.3818364384424058,E13T05,2022-12-08_12h08.05.040,t1_Paradigm,2021.1.4,60.34838247479602,
N,right,Target,0,3,3,3,534.0018914562061,536.0014795447805,right,1,1,0.6882369453105639,E13T05,2022-12-08_12h08.05.040,t1_Paradigm,2021.1.4,60.34838247479602,
S,left,Distractor,0,4,4,4,537.5015679260869,539.5026378050643,left,1,1,0.7960672724493634,E13T05,2022-12-08_12h08.05.040,t1_Paradigm,2021.1.4,60.34838247479602,
N,left,Lure,0,5,5,5,541.0013958151212,543.0012841755761,right,0,1,0.6939398654230899,E13T05,2022-12-08_12h08.05.040,t1_Paradigm,2021.1.4,60.34838247479602,
Z,left,Distractor,0,6,6,6,544.5005458468004,546.4998926912995,left,1,1,0.7939063414796692,E13T05,2022-12-08_12h08.05.040,t1_Paradigm,2021.1.4,60.34838247479602,
L,left,Pretarget,0,7,7,7,547.999758114318,549.9993535813683,left,1,1,0.4303752596497361,E13T05,2022-12-08_12h08.05.040,t1_Paradigm,2021.1.4,60.34838247479602,
L,right,Target,0,8,8,8,551.4991134601041,553.4988096593879,right,1,1,0.6048322599799576,E13T05,2022-12-08_12h08.05.040,t1_Paradigm,2021.1.4,60.34838247479602,
H,left,Distractor,0,9,9,9,554.9984736179395,556.9983639032143,left,1,1,0.6527872191963979,E13T05,2022-12-08_12h08.05.040,t1_Paradigm,2021.1.4,60.34838247479602,
L,left,Lure,0,10,10,10,558.4979637011074,560.4975716794852,left,1,1,0.6482401533448865,E13T05,2022-12-08_12h08.05.040,t1_Paradigm,2021.1.4,60.34838247479602,
X,left,Pretarget,0,11,11,11,561.9974630875713,563.9972167106444,left,1,1,0.43118881679765764,E13T05,2022-12-08_12h08.05.040,t1_Paradigm,2021.1.4,60.34838247479602,
X,right,Target,0,12,12,12,565.496921090411,567.4962002454158,right,1,1,0.4635886660198594,E13T05,2022-12-08_12h08.05.040,t1_Paradigm,2021.1.4,60.34838247479602,
X,right,Target,0,13,13,13,568.9962061802762,570.9958484846065,right,1,1,0.48723443502422015,E13T05,2022-12-08_12h08.05.040,t1_Paradigm,2021.1.4,60.34838247479602,
R,left,Distractor,0,14,14,14,572.4959667006187,574.4953693648895,left,1,1,0.5516687385224941,E13T05,2022-12-08_12h08.05.040,t1_Paradigm,2021.1.4,60.34838247479602,
T,left,Distractor,0,15,15,15,575.9954259866718,577.9947372220049,left,1,1,0.5875861958338646,E13T05,2022-12-08_12h08.05.040,t1_Paradigm,2021.1.4,60.34838247479602,
V,left,Pretarget,0,16,16,16,579.4947646506862,581.4948849519205,left,1,1,0.4515213294089335,E13T05,2022-12-08_12h08.05.040,t1_Paradigm,2021.1.4,60.34838247479602,
V,right,Target,0,17,17,17,582.9938749027569,584.9936904408642,right,1,1,0.46801029778544034,E13T05,2022-12-08_12h08.05.040,t1_Paradigm,2021.1.4,60.34838247479602,
N,left,Distractor,0,18,18,18,586.4933877629592,588.4933377176458,left,1,1,0.5409699487518083,E13T05,2022-12-08_12h08.05.040,t1_Paradigm,2021.1.4,60.34838247479602,
B,left,Distractor,0,19,19,19,589.9930013553949,591.9925775742468,right,0,1,0.4467288490377541,E13T05,2022-12-08_12h08.05.040,t1_Paradigm,2021.1.4,60.34838247479602,
V,left,Lure,0,20,20,20,593.4922671970617,595.4923454730651,left,1,1,0.6580192000765237,E13T05,2022-12-08_12h08.05.040,t1_Paradigm,2021.1.4,60.34838247479602,
P,left,Distractor,0,21,21,21,596.9916379414062,598.9914290984634,left,1,1,0.4904979669099703,E13T05,2022-12-08_12h08.05.040,t1_Paradigm,2021.1.4,60.34838247479602,
K,left,Pretarget,0,22,22,22,600.4911684457893,602.4910324251923,left,1,1,0.5628727934763447,E13T05,2022-12-08_12h08.05.040,t1_Paradigm,2021.1.4,60.34838247479602,
K,right,Target,0,23,23,23,603.9906116916773,605.9902084419391,right,1,1,0.5866439965666359,E13T05,2022-12-08_12h08.05.040,t1_Paradigm,2021.1.4,60.34838247479602,
J,left,Pretarget,0,24,24,24,607.490140912847,609.4896038881361,left,1,1,0.4676477900666214,E13T05,2022-12-08_12h08.05.040,t1_Paradigm,2021.1.4,60.34838247479602,
J,right,Target,0,25,25,25,610.9895517576024,612.988958913118,right,1,1,0.7035639641671878,E13T05,2022-12-08_12h08.05.040,t1_Paradigm,2021.1.4,60.34838247479602,
H,left,Distractor,0,26,26,26,614.4890213093586,616.4889305220277,left,1,1,0.5355737165864412,E13T05,2022-12-08_12h08.05.040,t1_Paradigm,2021.1.4,60.34838247479602,
J,left,Lure,0,27,27,27,617.988335592323,619.9888437447371,left,1,1,0.6238465918668226,E13T05,2022-12-08_12h08.05.040,t1_Paradigm,2021.1.4,60.34838247479602,
V,left,Distractor,0,28,28,28,621.504336779295,623.5039097901154,left,1,1,0.7705592403381161,E13T05,2022-12-08_12h08.05.040,t1_Paradigm,2021.1.4,60.34838247479602,
Z,left,Pretarget,0,29,29,29,625.0035468011902,627.0038047270373,left,1,1,0.7366679766128073,E13T05,2022-12-08_12h08.05.040,t1_Paradigm,2021.1.4,60.34838247479602,
Z,right,Target,0,30,30,30,628.5032405944494,630.5031937571675,right,1,1,0.4955692253406596,E13T05,2022-12-08_12h08.05.040,t1_Paradigm,2021.1.4,60.34838247479602,
T,left,Distractor,0,31,31,31,632.002575729628,634.0026020354981,left,1,1,0.5564169480385317,E13T05,2022-12-08_12h08.05.040,t1_Paradigm,2021.1.4,60.34838247479602,
Z,left,Lure,0,32,32,32,635.5023150769539,637.5018078869489,left,1,1,0.7638926271374658,E13T05,2022-12-08_12h08.05.040,t1_Paradigm,2021.1.4,60.34838247479602,
F,left,Distractor,0,33,33,33,639.001321709562,641.0017968192351,left,1,1,0.6325031478827441,E13T05,2022-12-08_12h08.05.040,t1_Paradigm,2021.1.4,60.34838247479602,
Y,left,Pretarget,0,34,34,34,642.5012240249598,644.5013042257815,left,1,1,0.4599042402169289,E13T05,2022-12-08_12h08.05.040,t1_Paradigm,2021.1.4,60.34838247479602,
Y,right,Target,0,35,35,35,646.0001530231712,648.00051360607,right,1,1,0.8144592459520936,E13T05,2022-12-08_12h08.05.040,t1_Paradigm,2021.1.4,60.34838247479602,
Y,right,Target,0,36,36,36,649.4996424647325,651.4996068555665,right,1,1,0.7852606927754096,E13T05,2022-12-08_12h08.05.040,t1_Paradigm,2021.1.4,60.34838247479602,
W,left,Distractor,0,37,37,37,652.9993003280215,654.9989824119602,left,1,1,0.6257204038920463,E13T05,2022-12-08_12h08.05.040,t1_Paradigm,2021.1.4,60.34838247479602,
Q,left,Distractor,0,38,38,38,656.4985642448701,658.4982180981187,left,1,1,0.6578767634164251,E13T05,2022-12-08_12h08.05.040,t1_Paradigm,2021.1.4,60.34838247479602,
P,left,Pretarget,0,39,39,39,659.9981993311249,661.9990253996002,left,1,1,0.4721355073088489,E13T05,2022-12-08_12h08.05.040,t1_Paradigm,2021.1.4,60.34838247479602,
P,right,Target,0,40,40,40,663.4973230569358,665.4971867155364,right,1,1,0.46881487243990705,E13T05,2022-12-08_12h08.05.040,t1_Paradigm,2021.1.4,60.34838247479602,
J,left,Distractor,0,41,41,41,666.9968429748096,668.9969943939632,left,1,1,0.577337813885606,E13T05,2022-12-08_12h08.05.040,t1_Paradigm,2021.1.4,60.34838247479602,
P,left,Lure,0,42,42,42,670.4962875039109,672.4966182521039,left,1,1,0.85384426604287,E13T05,2022-12-08_12h08.05.040,t1_Paradigm,2021.1.4,60.34838247479602,
L,left,Distractor,0,43,43,43,673.9959992621534,675.9957782286856,left,1,1,0.560054536559619,E13T05,2022-12-08_12h08.05.040,t1_Paradigm,2021.1.4,60.34838247479602,
Z,left,Distractor,0,44,44,44,677.4954065780712,679.4947864653095,left,1,1,0.6984577381772397,E13T05,2022-12-08_12h08.05.040,t1_Paradigm,2021.1.4,60.34838247479602,
F,left,Pretarget,0,45,45,45,680.9945652714396,682.9946262240665,left,1,1,0.5996163192630775,E13T05,2022-12-08_12h08.05.040,t1_Paradigm,2021.1.4,60.34838247479602,
F,right,Target,0,46,46,46,684.4940373896243,686.4936655786096,right,1,1,0.7463851083120971,E13T05,2022-12-08_12h08.05.040,t1_Paradigm,2021.1.4,60.34838247479602,
G,left,Pretarget,0,47,47,47,687.9938094588852,689.9930732153316,left,1,1,0.5175567621336086,E13T05,2022-12-08_12h08.05.040,t1_Paradigm,2021.1.4,60.34838247479602,
G,right,Target,0,48,48,48,691.4930801126029,693.4926245719289,right,1,1,0.7449668369608844,E13T05,2022-12-08_12h08.05.040,t1_Paradigm,2021.1.4,60.34838247479602,
V,left,Distractor,0,49,49,49,694.9922850016446,696.9925490227542,left,1,1,0.5522493924781884,E13T05,2022-12-08_12h08.05.040,t1_Paradigm,2021.1.4,60.34838247479602,
G,left,Lure,0,50,50,50,698.4918507943894,700.4917170194167,left,1,1,0.8783305396718788,E13T05,2022-12-08_12h08.05.040,t1_Paradigm,2021.1.4,60.34838247479602,
Q,left,Pretarget,0,51,51,51,701.9912263507831,703.9907971159791,left,1,1,0.5191976709684241,E13T05,2022-12-08_12h08.05.040,t1_Paradigm,2021.1.4,60.34838247479602,
Q,right,Target,0,52,52,52,705.4905637315842,707.4905172151066,right,1,1,0.7102251237101882,E13T05,2022-12-08_12h08.05.040,t1_Paradigm,2021.1.4,60.34838247479602,
Y,left,Distractor,0,53,53,53,708.9900804414265,710.9898395181535,left,1,1,0.5142566586728208,E13T05,2022-12-08_12h08.05.040,t1_Paradigm,2021.1.4,60.34838247479602,
V,left,Distractor,0,54,54,54,712.4896468757779,714.4889651687827,left,1,1,0.5139621612506744,E13T05,2022-12-08_12h08.05.040,t1_Paradigm,2021.1.4,60.34838247479602,
B,left,Distractor,0,55,55,55,715.9889342112656,717.9893884687262,left,1,1,0.569349811928987,E13T05,2022-12-08_12h08.05.040,t1_Paradigm,2021.1.4,60.34838247479602,
J,left,Pretarget,0,56,56,56,719.4883633418085,721.4878433196736,left,1,1,0.4635909116441326,E13T05,2022-12-08_12h08.05.040,t1_Paradigm,2021.1.4,60.34838247479602,
J,right,Target,0,57,57,57,722.9878739563865,724.9875063158161,right,1,1,0.6585151619656244,E13T05,2022-12-08_12h08.05.040,t1_Paradigm,2021.1.4,60.34838247479602,
H,left,Distractor,0,58,58,58,726.4871535925959,728.4869874164906,left,1,1,0.4699983157825045,E13T05,2022-12-08_12h08.05.040,t1_Paradigm,2021.1.4,60.34838247479602,
J,left,Lure,0,59,59,59,729.9868117766891,731.9862927169634,left,1,1,0.844658705398615,E13T05,2022-12-08_12h08.05.040,t1_Paradigm,2021.1.4,60.34838247479602,
D,left,Pretarget,0,60,60,60,733.4862283959046,735.485667310948,left,1,1,0.5344396769505693,E13T05,2022-12-08_12h08.05.040,t1_Paradigm,2021.1.4,60.34838247479602,
D,right,Target,0,61,61,61,736.9856305789708,738.9851856248042,right,1,1,0.660617385934529,E13T05,2022-12-08_12h08.05.040,t1_Paradigm,2021.1.4,60.34838247479602,
R,left,Distractor,0,62,62,62,740.4848922501951,742.4850834489571,left,1,1,0.48020627651749237,E13T05,2022-12-08_12h08.05.040,t1_Paradigm,2021.1.4,60.34838247479602,
F,left,Distractor,0,63,63,63,743.9842735810471,745.9839899909384,left,1,1,0.4965560162654583,E13T05,2022-12-08_12h08.05.040,t1_Paradigm,2021.1.4,60.34838247479602,
F,left,Distractor,0,0,0,0,892.3046726603425,894.3096377328839,None,0,2,,E13T05,2022-12-08_12h08.05.040,t1_Paradigm,2021.1.4,60.34838247479602,
N,left,Pretarget,0,1,1,1,895.8094646595073,897.8091967887594,left,1,2,0.4878972146252636,E13T05,2022-12-08_12h08.05.040,t1_Paradigm,2021.1.4,60.34838247479602,
V,left,Distractor,0,2,2,2,899.3088508024102,901.3093438770684,left,1,2,0.6417830246937228,E13T05,2022-12-08_12h08.05.040,t1_Paradigm,2021.1.4,60.34838247479602,
N,right,Target,0,3,3,3,902.8084823598292,904.8080948294537,right,1,2,0.666515354447256,E13T05,2022-12-08_12h08.05.040,t1_Paradigm,2021.1.4,60.34838247479602,
N,left,Lure,0,4,4,4,906.3079230392905,908.3074950876999,left,1,2,1.3266656507912558,E13T05,2022-12-08_12h08.05.040,t1_Paradigm,2021.1.4,60.34838247479602,
X,left,Distractor,0,5,5,5,909.8074628469694,911.8073184854875,left,1,2,1.2198846712162776,E13T05,2022-12-08_12h08.05.040,t1_Paradigm,2021.1.4,60.34838247479602,
G,left,Pretarget,0,6,6,6,913.3069968801883,915.3062670526997,left,1,2,0.8285197334134864,E13T05,2022-12-08_12h08.05.040,t1_Paradigm,2021.1.4,60.34838247479602,
H,left,Pretarget,0,7,7,7,916.8061947115584,918.8057035617185,left,1,2,0.872921796177252,E13T05,2022-12-08_12h08.05.040,t1_Paradigm,2021.1.4,60.34838247479602,
G,right,Target,0,8,8,8,920.3054300769127,922.3059369461134,right,1,2,0.7698403201629844,E13T05,2022-12-08_12h08.05.040,t1_Paradigm,2021.1.4,60.34838247479602,
H,right,Target,0,9,9,9,923.8052544371112,925.8047629664688,right,1,2,0.6681415063321765,E13T05,2022-12-08_12h08.05.040,t1_Paradigm,2021.1.4,60.34838247479602,
T,left,Pretarget,0,10,10,10,927.3046428256366,929.3040368282182,left,1,2,0.6679461371277284,E13T05,2022-12-08_12h08.05.040,t1_Paradigm,2021.1.4,60.34838247479602,
K,left,Distractor,0,11,11,11,930.8036895586556,932.8035644453721,left,1,2,0.5127094243980537,E13T05,2022-12-08_12h08.05.040,t1_Paradigm,2021.1.4,60.34838247479602,
T,right,Target,0,12,12,12,934.3035697386258,936.3028626881714,right,1,2,0.6144149750980432,E13T05,2022-12-08_12h08.05.040,t1_Paradigm,2021.1.4,60.34838247479602,
T,left,Lure,0,13,13,13,937.8025189474447,939.8024214232446,left,1,2,0.5973783955032559,E13T05,2022-12-08_12h08.05.040,t1_Paradigm,2021.1.4,60.34838247479602,
J,left,Distractor,0,14,14,14,941.3020055017769,943.3023577437907,left,1,2,0.47821890012710355,E13T05,2022-12-08_12h08.05.040,t1_Paradigm,2021.1.4,60.34838247479602,
Q,left,Pretarget,0,15,15,15,944.8014420107957,946.8010073223359,left,1,2,0.5681814463405317,E13T05,2022-12-08_12h08.05.040,t1_Paradigm,2021.1.4,60.34838247479602,
M,left,Distractor,0,16,16,16,948.3011053277405,950.3031421078376,left,1,2,0.45915484372744686,E13T05,2022-12-08_12h08.05.040,t1_Paradigm,2021.1.4,60.34838247479602,
Q,right,Target,0,17,17,17,951.800626849632,953.800722449012,right,1,2,0.5990930890948221,E13T05,2022-12-08_12h08.05.040,t1_Paradigm,2021.1.4,60.34838247479602,
R,left,Distractor,0,18,18,18,955.2996722994376,957.2995041985141,left,1,2,0.5871784548508003,E13T05,2022-12-08_12h08.05.040,t1_Paradigm,2021.1.4,60.34838247479602,
W,left,Distractor,0,19,19,19,958.7993577518118,960.798789929986,left,1,2,0.44417557564156596,E13T05,2022-12-08_12h08.05.040,t1_Paradigm,2021.1.4,60.34838247479602,
C,left,Pretarget,0,20,20,20,962.2988734992432,964.298675563612,left,1,2,0.5253320715073642,E13T05,2022-12-08_12h08.05.040,t1_Paradigm,2021.1.4,60.34838247479602,
T,left,Distractor,0,21,21,21,965.798305196211,967.7980020371015,left,1,2,0.4435458387797553,E13T05,2022-12-08_12h08.05.040,t1_Paradigm,2021.1.4,60.34838247479602,
C,right,Target,0,22,22,22,969.2973695734127,971.2970805296463,right,1,2,0.7612488872127869,E13T05,2022-12-08_12h08.05.040,t1_Paradigm,2021.1.4,60.34838247479602,
F,left,Pretarget,0,23,23,23,972.7970848604909,974.7967149742963,left,1,2,0.5201029778563679,E13T05,2022-12-08_12h08.05.040,t1_Paradigm,2021.1.4,60.34838247479602,
C,right,Target,0,24,24,24,976.2963927273904,978.2959384699298,right,1,2,0.4709559136063035,E13T05,2022-12-08_12h08.05.040,t1_Paradigm,2021.1.4,60.34838247479602,
F,right,Target,0,25,25,25,979.7959302894451,981.7954853352803,right,1,2,0.4785964856000646,E13T05,2022-12-08_12h08.05.040,t1_Paradigm,2021.1.4,60.34838247479602,
H,left,Distractor,0,26,26,26,983.295409144499,985.2951871486202,left,1,2,0.3841102921705897,E13T05,2022-12-08_12h08.05.040,t1_Paradigm,2021.1.4,60.34838247479602,
H,left,Lure,0,27,27,27,986.7947487709225,988.7942066133601,left,1,2,0.8573448715596896,E13T05,2022-12-08_12h08.05.040,t1_Paradigm,2021.1.4,60.34838247479602,
P,left,Distractor,0,28,28,28,990.2940473345261,992.2936145708863,left,1,2,0.5305300472391536,E13T05,2022-12-08_12h08.05.040,t1_Paradigm,2021.1.4,60.34838247479602,
G,left,Pretarget,0,29,29,29,993.7936974985369,995.7933407652763,left,1,2,0.5135611571386107,E13T05,2022-12-08_12h08.05.040,t1_Paradigm,2021.1.4,60.34838247479602,
K,left,Distractor,0,30,30,30,997.2928276404127,999.2926608227008,left,1,2,0.5053396103849082,E13T05,2022-12-08_12h08.05.040,t1_Paradigm,2021.1.4,60.34838247479602,
G,right,Target,0,31,31,31,1000.7926500757894,1002.7921521890821,right,1,2,0.353638791535559,E13T05,2022-12-08_12h08.05.040,t1_Paradigm,2021.1.4,60.34838247479602,
M,left,Pretarget,0,32,32,32,1004.2917369092211,1006.2915473144767,left,1,2,0.5004967638960807,E13T05,2022-12-08_12h08.05.040,t1_Paradigm,2021.1.4,60.34838247479602,
B,left,Distractor,0,33,33,33,1007.7912516942433,1009.7915083368753,left,1,2,0.7975898048716772,E13T05,2022-12-08_12h08.05.040,t1_Paradigm,2021.1.4,60.34838247479602,
M,right,Target,0,34,34,34,1011.2906840328178,1013.29095607401,right,1,2,0.47081540176623093,E13T05,2022-12-08_12h08.05.040,t1_Paradigm,2021.1.4,60.34838247479602,
M,left,Lure,0,35,35,35,1014.7902514295802,1016.7896043693418,left,1,2,0.6098826661946077,E13T05,2022-12-08_12h08.05.040,t1_Paradigm,2021.1.4,60.34838247479602,
T,left,Distractor,0,36,36,36,1018.2894842285095,1020.2893206188292,left,1,2,0.3932281633206003,E13T05,2022-12-08_12h08.05.040,t1_Paradigm,2021.1.4,60.34838247479602,
F,left,Distractor,0,37,37,37,1021.7891189939619,1023.7886855887155,left,1,2,0.5273816837361665,E13T05,2022-12-08_12h08.05.040,t1_Paradigm,2021.1.4,60.34838247479602,
X,left,Distractor,0,38,38,38,1025.2883245246103,1027.2886527063765,left,1,2,0.493864797452261,E13T05,2022-12-08_12h08.05.040,t1_Paradigm,2021.1.4,60.34838247479602,
C,left,Distractor,0,39,39,39,1028.787911811176,1030.7873334028409,left,1,2,0.44162743509696156,E13T05,2022-12-08_12h08.05.040,t1_Paradigm,2021.1.4,60.34838247479602,
R,left,Distractor,0,40,40,40,1032.2871295323494,1034.287178936056,left,1,2,0.5343950852929993,E13T05,2022-12-08_12h08.05.040,t1_Paradigm,2021.1.4,60.34838247479602,
B,left,Pretarget,0,41,41,41,1035.7866366180915,1037.7859330964748,left,1,2,0.46921298932647915,E13T05,2022-12-08_12h08.05.040,t1_Paradigm,2021.1.4,60.34838247479602,
H,left,Distractor,0,42,42,42,1039.2863063511031,1041.2856371554371,left,1,2,0.4729269290310185,E13T05,2022-12-08_12h08.05.040,t1_Paradigm,2021.1.4,60.34838247479602,
B,right,Target,0,43,43,43,1042.7855173354092,1044.7851958905103,right,1,2,0.41559745602899056,E13T05,2022-12-08_12h08.05.040,t1_Paradigm,2021.1.4,60.34838247479602,
W,left,Pretarget,0,44,44,44,1046.2844642986038,1048.2843241075661,left,1,2,0.45626601008916623,E13T05,2022-12-08_12h08.05.040,t1_Paradigm,2021.1.4,60.34838247479602,
L,left,Pretarget,0,45,45,45,1049.7844779327443,1051.7843967695117,left,1,2,0.45081588297034614,E13T05,2022-12-08_12h08.05.040,t1_Paradigm,2021.1.4,60.34838247479602,
W,right,Target,0,46,46,46,1053.2838595844005,1055.2843327692553,right,1,2,0.4748995484696934,E13T05,2022-12-08_12h08.05.040,t1_Paradigm,2021.1.4,60.34838247479602,
L,right,Target,0,47,47,47,1056.7834179986694,1058.7830102576863,right,1,2,0.7848227962804231,E13T05,2022-12-08_12h08.05.040,t1_Paradigm,2021.1.4,60.34838247479602,
W,right,Target,0,48,48,48,1060.282583428907,1062.2839875849131,right,1,2,0.46890245173926814,E13T05,2022-12-08_12h08.05.040,t1_Paradigm,2021.1.4,60.34838247479602,
X,left,Distractor,0,49,49,49,1063.798840616906,1065.7984088156754,left,1,2,0.5432916021727578,E13T05,2022-12-08_12h08.05.040,t1_Paradigm,2021.1.4,60.34838247479602,
R,left,Distractor,0,50,50,50,1067.298049355586,1069.2977667278865,left,1,2,0.6208342489608185,E13T05,2022-12-08_12h08.05.040,t1_Paradigm,2021.1.4,60.34838247479602,
V,left,Pretarget,0,51,51,51,1070.7975811431825,1072.7974675788173,left,1,2,0.5223312775196973,E13T05,2022-12-08_12h08.05.040,t1_Paradigm,2021.1.4,60.34838247479602,
Z,left,Distractor,0,52,52,52,1074.2969307145104,1076.2970369003997,left,1,2,0.7260516332898987,E13T05,2022-12-08_12h08.05.040,t1_Paradigm,2021.1.4,60.34838247479602,
V,right,Target,0,53,53,53,1077.7966206581277,1079.7959267606093,right,1,2,0.4121869962400524,E13T05,2022-12-08_12h08.05.040,t1_Paradigm,2021.1.4,60.34838247479602,
V,left,Lure,0,54,54,54,1081.2960363149323,1083.2956539174102,left,1,2,0.6193511753444909,E13T05,2022-12-08_12h08.05.040,t1_Paradigm,2021.1.4,60.34838247479602,
N,left,Distractor,0,55,55,55,1084.7950862559846,1086.7948193476477,left,1,2,0.4930156311402243,E13T05,2022-12-08_12h08.05.040,t1_Paradigm,2021.1.4,60.34838247479602,
B,left,Distractor,0,56,56,56,1088.2947149261763,1090.2944242783942,left,1,2,0.541547715480192,E13T05,2022-12-08_12h08.05.040,t1_Paradigm,2021.1.4,60.34838247479602,
V,left,Lure,0,57,57,57,1091.794179345081,1093.7943259521853,left,1,2,0.5979458965248341,E13T05,2022-12-08_12h08.05.040,t1_Paradigm,2021.1.4,60.34838247479602,
J,left,Distractor,0,58,58,58,1095.293565487982,1097.2930599019946,left,1,2,0.5741089287585055,E13T05,2022-12-08_12h08.05.040,t1_Paradigm,2021.1.4,60.34838247479602,
H,left,Distractor,0,59,59,59,1098.793336915638,1100.792774547468,left,1,2,0.5816086681043089,E13T05,2022-12-08_12h08.05.040,t1_Paradigm,2021.1.4,60.34838247479602,
X,left,Pretarget,0,60,60,60,1102.2925809426815,1104.2925642609098,left,1,2,0.5092511649163498,E13T05,2022-12-08_12h08.05.040,t1_Paradigm,2021.1.4,60.34838247479602,
P,left,Distractor,0,61,61,61,1105.7919218523184,1107.7914977503679,left,1,2,1.0131336867525533,E13T05,2022-12-08_12h08.05.040,t1_Paradigm,2021.1.4,60.34838247479602,
X,right,Target,0,62,62,62,1109.2912573083013,1111.290855662579,right,1,2,0.9475566819310188,E13T05,2022-12-08_12h08.05.040,t1_Paradigm,2021.1.4,60.34838247479602,
Q,left,Distractor,0,63,63,63,1112.7908378579978,1114.7912321252425,left,1,2,1.0520391059217218,E13T05,2022-12-08_12h08.05.040,t1_Paradigm,2021.1.4,60.34838247479602,
B,left,Pretarget,0,0,0,0,1133.8158528154509,1135.8204168838784,None,0,2,,E13T05,2022-12-08_12h08.05.040,t1_Paradigm,2021.1.4,60.34838247479602,
F,left,Distractor,0,1,1,1,1137.3201029778575,1139.319562745115,left,1,2,0.8850455941665132,E13T05,2022-12-08_12h08.05.040,t1_Paradigm,2021.1.4,60.34838247479602,
B,right,Target,0,2,2,2,1140.8195369204495,1142.819629311798,right,1,2,0.6234430213262385,E13T05,2022-12-08_12h08.05.040,t1_Paradigm,2021.1.4,60.34838247479602,
V,left,Distractor,0,3,3,3,1144.318795062838,1146.318516605581,left,1,2,0.5949900149971654,E13T05,2022-12-08_12h08.05.040,t1_Paradigm,2021.1.4,60.34838247479602,
G,left,Pretarget,0,4,4,4,1147.818442660422,1149.8180750198499,left,1,2,0.4439275946970156,E13T05,2022-12-08_12h08.05.040,t1_Paradigm,2021.1.4,60.34838247479602,
B,left,Lure,0,5,5,5,1151.3178644124891,1153.3176250932338,left,1,2,0.827027677303704,E13T05,2022-12-08_12h08.05.040,t1_Paradigm,2021.1.4,60.34838247479602,
G,right,Target,0,6,6,6,1154.8172778236712,1156.8172220038978,right,1,2,0.43487805464792473,E13T05,2022-12-08_12h08.05.040,t1_Paradigm,2021.1.4,60.34838247479602,
Y,left,Pretarget,0,7,7,7,1158.3167720772817,1160.316291513951,left,1,2,0.4966307634313125,E13T05,2022-12-08_12h08.05.040,t1_Paradigm,2021.1.4,60.34838247479602,
P,left,Distractor,0,8,8,8,1161.8159824199793,1163.8158752716809,left,1,2,0.35752019055689743,E13T05,2022-12-08_12h08.05.040,t1_Paradigm,2021.1.4,60.34838247479602,
Y,right,Target,0,9,9,9,1165.31553698461,1167.315034606656,right,1,2,0.44749204006802756,E13T05,2022-12-08_12h08.05.040,t1_Paradigm,2021.1.4,60.34838247479602,
X,left,Distractor,0,10,10,10,1168.814743156865,1170.8146520487298,left,1,2,0.5039518153444078,E13T05,2022-12-08_12h08.05.040,t1_Paradigm,2021.1.4,60.34838247479602,
Y,right,Target,0,11,11,11,1172.3144119274675,1174.3155741977916,right,1,2,0.6939757953914523,E13T05,2022-12-08_12h08.05.040,t1_Paradigm,2021.1.4,60.34838247479602,
N,left,Distractor,0,12,12,12,1175.8138439452396,1177.8140630538874,left,1,2,0.5600474788861902,E13T05,2022-12-08_12h08.05.040,t1_Paradigm,2021.1.4,60.34838247479602,
Y,right,Target,0,13,13,13,1179.313111390924,1181.3128290840268,right,1,2,0.6007856472606363,E13T05,2022-12-08_12h08.05.040,t1_Paradigm,2021.1.4,60.34838247479602,
Y,left,Lure,0,14,14,14,1182.812698998292,1184.8125645817126,left,1,2,0.632744712760541,E13T05,2022-12-08_12h08.05.040,t1_Paradigm,2021.1.4,60.34838247479602,
K,left,Distractor,0,15,15,15,1186.312279227186,1188.311601369831,left,1,2,0.6738797148045705,E13T05,2022-12-08_12h08.05.040,t1_Paradigm,2021.1.4,60.34838247479602,
T,left,Pretarget,0,16,16,16,1189.8116676157097,1191.8114398453727,left,1,2,0.5996028455265332,E13T05,2022-12-08_12h08.05.040,t1_Paradigm,2021.1.4,60.34838247479602,
J,left,Distractor,0,17,17,17,1193.3110239239068,1195.3106190701528,left,1,2,0.49784468308644136,E13T05,2022-12-08_12h08.05.040,t1_Paradigm,2021.1.4,60.34838247479602,
T,right,Target,0,18,18,18,1196.8103872897736,1198.8100369725798,right,1,2,0.5013603663574031,E13T05,2022-12-08_12h08.05.040,t1_Paradigm,2021.1.4,60.34838247479602,
S,left,Pretarget,0,19,19,19,1200.3097403899374,1202.3091456206348,left,1,2,0.6402268079273199,E13T05,2022-12-08_12h08.05.040,t1_Paradigm,2021.1.4,60.34838247479602,
R,left,Distractor,0,20,20,20,1203.8090809787718,1205.808888175994,left,1,2,0.6234362844552379,E13T05,2022-12-08_12h08.05.040,t1_Paradigm,2021.1.4,60.34838247479602,
S,right,Target,0,21,21,21,1207.3089220207403,1209.3081684538083,right,1,2,0.4192029642217676,E13T05,2022-12-08_12h08.05.040,t1_Paradigm,2021.1.4,60.34838247479602,
Q,left,Distractor,0,22,22,22,1210.8082828201823,1212.8077868582932,left,1,2,0.6802518305830745,E13T05,2022-12-08_12h08.05.040,t1_Paradigm,2021.1.4,60.34838247479602,
D,left,Distractor,0,23,23,23,1214.307415528483,1216.3071341839968,left,1,2,0.6272679589692416,E13T05,2022-12-08_12h08.05.040,t1_Paradigm,2021.1.4,60.34838247479602,
F,left,Distractor,0,24,24,24,1217.8068594159777,1219.8070403490347,left,1,2,0.5283251662167459,E13T05,2022-12-08_12h08.05.040,t1_Paradigm,2021.1.4,60.34838247479602,
Z,left,Distractor,0,25,25,25,1221.3061842854513,1223.3058374970933,left,1,2,0.520263058699129,E13T05,2022-12-08_12h08.05.040,t1_Paradigm,2021.1.4,60.34838247479602,
P,left,Distractor,0,26,26,26,1224.805737887671,1226.8053834000348,left,1,2,0.6301529429692891,E13T05,2022-12-08_12h08.05.040,t1_Paradigm,2021.1.4,60.34838247479602,
H,left,Distractor,0,27,27,27,1228.305048000193,1230.3051824167724,left,1,2,0.6292652802621888,E13T05,2022-12-08_12h08.05.040,t1_Paradigm,2021.1.4,60.34838247479602,
Z,left,Pretarget,0,28,28,28,1231.8048415632747,1233.8049817543124,left,1,2,0.40865046075305145,E13T05,2022-12-08_12h08.05.040,t1_Paradigm,2021.1.4,60.34838247479602,
J,left,Pretarget,0,29,29,29,1235.3039999358407,1237.3040429234807,left,1,2,0.5146194871958869,E13T05,2022-12-08_12h08.05.040,t1_Paradigm,2021.1.4,60.34838247479602,
Z,right,Target,0,30,30,30,1238.8035403851245,1240.803008493267,right,1,2,0.4126823165206588,E13T05,2022-12-08_12h08.05.040,t1_Paradigm,2021.1.4,60.34838247479602,
J,right,Target,0,31,31,31,1242.303136974986,1244.3024931227792,left,0,2,0.8610456583301129,E13T05,2022-12-08_12h08.05.040,t1_Paradigm,2021.1.4,60.34838247479602,
V,left,Pretarget,0,32,32,32,1245.8022610215994,1247.8019283485846,None,0,2,,E13T05,2022-12-08_12h08.05.040,t1_Paradigm,2021.1.4,60.34838247479602,
Z,left,Lure,0,33,33,33,1249.3016805280422,1251.3019262633643,None,0,2,,E13T05,2022-12-08_12h08.05.040,t1_Paradigm,2021.1.4,60.34838247479602,
V,right,Target,0,34,34,34,1252.8010724454034,1254.8007051256354,right,1,2,0.7831982484131004,E13T05,2022-12-08_12h08.05.040,t1_Paradigm,2021.1.4,60.34838247479602,
X,left,Distractor,0,35,35,35,1256.300550979653,1258.3005131248647,left,1,2,0.5830394507847814,E13T05,2022-12-08_12h08.05.040,t1_Paradigm,2021.1.4,60.34838247479602,
S,left,Distractor,0,36,36,36,1259.8001652136954,1261.79980206437,left,1,2,0.9335048561606527,E13T05,2022-12-08_12h08.05.040,t1_Paradigm,2021.1.4,60.34838247479602,
Q,left,Distractor,0,37,37,37,1263.2995391660716,1265.2990695100543,left,1,2,0.6030947893523262,E13T05,2022-12-08_12h08.05.040,t1_Paradigm,2021.1.4,60.34838247479602,
P,left,Distractor,0,38,38,38,1266.7989634845653,1268.798524625663,left,1,2,0.5740871141333628,E13T05,2022-12-08_12h08.05.040,t1_Paradigm,2021.1.4,60.34838247479602,
S,left,Lure,0,39,39,39,1270.298636104806,1272.2987114935804,left,1,2,0.5118025134943309,E13T05,2022-12-08_12h08.05.040,t1_Paradigm,2021.1.4,60.34838247479602,
K,left,Pretarget,0,40,40,40,1273.8142837665528,1275.8140303319524,left,1,2,0.5039325671496044,E13T05,2022-12-08_12h08.05.040,t1_Paradigm,2021.1.4,60.34838247479602,
L,left,Distractor,0,41,41,41,1277.3136917240772,1279.3135797637296,left,1,2,0.5893522179540014,E13T05,2022-12-08_12h08.05.040,t1_Paradigm,2021.1.4,60.34838247479602,
K,right,Target,0,42,42,42,1280.8132661785112,1282.8128529838723,right,1,2,0.6383125746870064,E13T05,2022-12-08_12h08.05.040,t1_Paradigm,2021.1.4,60.34838247479602,
B,left,Distractor,0,43,43,43,1284.3126571334633,1286.3123145155478,left,1,2,0.7031421078390849,E13T05,2022-12-08_12h08.05.040,t1_Paradigm,2021.1.4,60.34838247479602,
N,left,Distractor,0,44,44,44,1287.8119916270352,1289.8117243978922,left,1,2,0.5155764434148296,E13T05,2022-12-08_12h08.05.040,t1_Paradigm,2021.1.4,60.34838247479602,
S,left,Pretarget,0,45,45,45,1291.3117787740503,1293.3112196139136,left,1,2,0.49527087827846117,E13T05,2022-12-08_12h08.05.040,t1_Paradigm,2021.1.4,60.34838247479602,
Z,left,Distractor,0,46,46,46,1294.8110346708163,1296.8107276620667,left,1,2,0.5154587086071842,E13T05,2022-12-08_12h08.05.040,t1_Paradigm,2021.1.4,60.34838247479602,
S,right,Target,0,47,47,47,1298.3106774563512,1300.3101670583146,right,1,2,0.48313521056843456,E13T05,2022-12-08_12h08.05.040,t1_Paradigm,2021.1.4,60.34838247479602,
C,left,Distractor,0,48,48,48,1301.8097851419952,1303.809793482882,left,1,2,0.4864388428613893,E13T05,2022-12-08_12h08.05.040,t1_Paradigm,2021.1.4,60.34838247479602,
T,left,Pretarget,0,49,49,49,1305.3093429146593,1307.3095402086838,left,1,2,0.7065519260213478,E13T05,2022-12-08_12h08.05.040,t1_Paradigm,2021.1.4,60.34838247479602,
S,left,Lure,0,50,50,50,1308.8086042650812,1310.808384835629,left,1,2,0.6009322543650342,E13T05,2022-12-08_12h08.05.040,t1_Paradigm,2021.1.4,60.34838247479602,
T,right,Target,0,51,51,51,1312.3079586484564,1314.30808568656,right,1,2,0.5153942271444976,E13T05,2022-12-08_12h08.05.040,t1_Paradigm,2021.1.4,60.34838247479602,
N,left,Pretarget,0,52,52,52,1315.8075658248254,1317.8071782944498,left,1,2,1.1598588465512876,E13T05,2022-12-08_12h08.05.040,t1_Paradigm,2021.1.4,60.34838247479602,
B,left,Distractor,0,53,53,53,1319.306815626329,1321.3067318966696,left,1,2,0.5273627563419723,E13T05,2022-12-08_12h08.05.040,t1_Paradigm,2021.1.4,60.34838247479602,
N,right,Target,0,54,54,54,1322.8062223006418,1324.8061302300976,right,1,2,0.3929955809344392,E13T05,2022-12-08_12h08.05.040,t1_Paradigm,2021.1.4,60.34838247479602,
N,left,Lure,0,55,55,55,1326.305923472375,1328.30534506404,left,1,2,0.45824408318367205,E13T05,2022-12-08_12h08.05.040,t1_Paradigm,2021.1.4,60.34838247479602,
X,left,Distractor,0,56,56,56,1329.8053410539997,1331.8048001796506,left,1,2,0.5354203726128617,E13T05,2022-12-08_12h08.05.040,t1_Paradigm,2021.1.4,60.34838247479602,
W,left,Distractor,0,57,57,57,1333.3046001587973,1335.304426604218,left,1,2,0.6739945623849053,E13T05,2022-12-08_12h08.05.040,t1_Paradigm,2021.1.4,60.34838247479602,
S,left,Distractor,0,58,58,58,1336.8039182914017,1338.8036587615388,left,1,2,0.42130711301069823,E13T05,2022-12-08_12h08.05.040,t1_Paradigm,2021.1.4,60.34838247479602,
L,left,Distractor,0,59,59,59,1340.3033336274038,1342.3038340805379,left,1,2,0.44494389952342317,E13T05,2022-12-08_12h08.05.040,t1_Paradigm,2021.1.4,60.34838247479602,
K,left,Pretarget,0,60,60,60,1343.8194560780194,1345.819158693368,left,1,2,0.43679870395499165,E13T05,2022-12-08_12h08.05.040,t1_Paradigm,2021.1.4,60.34838247479602,
V,left,Pretarget,0,61,61,61,1347.3189865824024,1349.3186227914703,left,1,2,0.7876474692639022,E13T05,2022-12-08_12h08.05.040,t1_Paradigm,2021.1.4,60.34838247479602,
K,right,Target,0,62,62,62,1350.8183518730912,1352.8181824889525,right,1,2,0.8119149550475413,E13T05,2022-12-08_12h08.05.040,t1_Paradigm,2021.1.4,60.34838247479602,
V,right,Target,0,63,63,63,1354.3179738064118,1356.3176539655306,right,1,2,0.8443417517464695,E13T05,2022-12-08_12h08.05.040,t1_Paradigm,2021.1.4,60.34838247479602,
R,left,Distractor,0,0,0,0,1472.8770713867525,1474.8815029634206,None,0,3,,E13T05,2022-12-08_12h08.05.040,t1_Paradigm,2021.1.4,60.34838247479602,
P,left,Lure,0,1,1,1,1476.3810960244464,1478.3811178390697,None,0,3,,E13T05,2022-12-08_12h08.05.040,t1_Paradigm,2021.1.4,60.34838247479602,
V,left,Distractor,0,2,2,2,1479.880725336243,1481.8804417461324,left,1,3,0.6813229927738575,E13T05,2022-12-08_12h08.05.040,t1_Paradigm,2021.1.4,60.34838247479602,
P,left,Pretarget,0,3,3,3,1483.3799132227105,1485.3795670759591,left,1,3,0.5592990448094497,E13T05,2022-12-08_12h08.05.040,t1_Paradigm,2021.1.4,60.34838247479602,
Z,left,Distractor,0,4,4,4,1486.8796208105105,1488.878933329057,left,1,3,0.6368108944789128,E13T05,2022-12-08_12h08.05.040,t1_Paradigm,2021.1.4,60.34838247479602,
L,left,Pretarget,0,5,5,5,1490.3788786320947,1492.379129179466,left,1,3,0.9991155453262763,E13T05,2022-12-08_12h08.05.040,t1_Paradigm,2021.1.4,60.34838247479602,
P,right,Target,0,6,6,6,1493.8784546905463,1495.877963219904,right,1,3,0.632510526358601,E13T05,2022-12-08_12h08.05.040,t1_Paradigm,2021.1.4,60.34838247479602,
S,left,Distractor,0,7,7,7,1497.3775684714528,1499.3773984457093,left,1,3,0.7505869898232049,E13T05,2022-12-08_12h08.05.040,t1_Paradigm,2021.1.4,60.34838247479602,
L,right,Target,0,8,8,8,1500.877328670993,1502.8774338944731,right,1,3,0.8807971961796284,E13T05,2022-12-08_12h08.05.040,t1_Paradigm,2021.1.4,60.34838247479602,
D,left,Distractor,0,9,9,9,1504.3766634853673,1506.3762721053517,left,1,3,0.8938894993061695,E13T05,2022-12-08_12h08.05.040,t1_Paradigm,2021.1.4,60.34838247479602,
G,left,Distractor,0,10,10,10,1507.8762475638996,1509.8757471107656,left,1,3,0.6819777522923687,E13T05,2022-12-08_12h08.05.040,t1_Paradigm,2021.1.4,60.34838247479602,
M,left,Pretarget,0,11,11,11,1511.3754970446007,1513.37511208065,left,1,3,0.628722801895492,E13T05,2022-12-08_12h08.05.040,t1_Paradigm,2021.1.4,60.34838247479602,
Y,left,Distractor,0,12,12,12,1514.874877733846,1516.8746252616565,left,1,3,1.048735473625129,E13T05,2022-12-08_12h08.05.040,t1_Paradigm,2021.1.4,60.34838247479602,
V,left,Distractor,0,13,13,13,1518.3744807397725,1520.3740883973478,left,1,3,0.8039279155000258,E13T05,2022-12-08_12h08.05.040,t1_Paradigm,2021.1.4,60.34838247479602,
M,right,Target,0,14,14,14,1521.8738713739203,1523.8734151916397,left,0,3,0.6204303576159873,E13T05,2022-12-08_12h08.05.040,t1_Paradigm,2021.1.4,60.34838247479602,
S,left,Pretarget,0,15,15,15,1525.3733258479242,1527.3727856151818,left,1,3,1.14265641165548,E13T05,2022-12-08_12h08.05.040,t1_Paradigm,2021.1.4,60.34838247479602,
Q,left,Distractor,0,16,16,16,1528.8724729923742,1530.872268319874,None,0,3,,E13T05,2022-12-08_12h08.05.040,t1_Paradigm,2021.1.4,60.34838247479602,
R,left,Pretarget,0,17,17,17,1532.3722825956193,1534.3714600559815,left,1,3,1.4612445563689107,E13T05,2022-12-08_12h08.05.040,t1_Paradigm,2021.1.4,60.34838247479602,
S,right,Target,0,18,18,18,1535.8716831746697,1537.8719770304851,right,1,3,0.8650338848474348,E13T05,2022-12-08_12h08.05.040,t1_Paradigm,2021.1.4,60.34838247479602,
F,left,Distractor,0,19,19,19,1539.370992645585,1541.3705800925527,left,1,3,1.0495779030679842,E13T05,2022-12-08_12h08.05.040,t1_Paradigm,2021.1.4,60.34838247479602,
R,right,Target,0,20,20,20,1542.8706293358573,1544.8699771427655,right,1,3,1.2775580453453586,E13T05,2022-12-08_12h08.05.040,t1_Paradigm,2021.1.4,60.34838247479602,
P,left,Distractor,0,21,21,21,1546.3696998083196,1548.3693202980267,left,1,3,0.8779231194912427,E13T05,2022-12-08_12h08.05.040,t1_Paradigm,2021.1.4,60.34838247479602,
L,left,Distractor,0,22,22,22,1549.8692312751136,1551.8689403065273,None,0,3,,E13T05,2022-12-08_12h08.05.040,t1_Paradigm,2021.1.4,60.34838247479602,
R,right,Target,0,23,23,23,1553.3686462903115,1555.368426540057,left,0,3,1.3064203966732748,E13T05,2022-12-08_12h08.05.040,t1_Paradigm,2021.1.4,60.34838247479602,
H,left,Pretarget,0,24,24,24,1556.8678832596834,1558.8678887133392,left,1,3,0.8165877757910494,E13T05,2022-12-08_12h08.05.040,t1_Paradigm,2021.1.4,60.34838247479602,
G,left,Pretarget,0,25,25,25,1560.3673897038188,1562.3670977728234,left,1,3,0.6701012936409825,E13T05,2022-12-08_12h08.05.040,t1_Paradigm,2021.1.4,60.34838247479602,
T,left,Distractor,0,26,26,26,1563.8668149847217,1565.8667883580492,left,1,3,0.8410647461241751,E13T05,2022-12-08_12h08.05.040,t1_Paradigm,2021.1.4,60.34838247479602,
H,right,Target,0,27,27,27,1567.36643467242,1569.3661212476054,right,1,3,0.4292392951956572,E13T05,2022-12-08_12h08.05.040,t1_Paradigm,2021.1.4,60.34838247479602,
G,right,Target,0,28,28,28,1570.8658663693896,1572.8671970614432,right,1,3,1.186034791116981,E13T05,2022-12-08_12h08.05.040,t1_Paradigm,2021.1.4,60.34838247479602,
D,left,Distractor,0,29,29,29,1574.381812698999,1576.381556697972,left,1,3,0.5269059324546106,E13T05,2022-12-08_12h08.05.040,t1_Paradigm,2021.1.4,60.34838247479602,
N,left,Pretarget,0,30,30,30,1577.8813826621863,1579.881008284745,left,1,3,0.5184030412146967,E13T05,2022-12-08_12h08.05.040,t1_Paradigm,2021.1.4,60.34838247479602,
V,left,Distractor,0,31,31,31,1581.380839702615,1583.380434848863,left,1,3,0.6493077866980457,E13T05,2022-12-08_12h08.05.040,t1_Paradigm,2021.1.4,60.34838247479602,
R,left,Distractor,0,32,32,32,1584.8803538460306,1586.879800460354,left,1,3,1.1631666492903605,E13T05,2022-12-08_12h08.05.040,t1_Paradigm,2021.1.4,60.34838247479602,
N,right,Target,0,33,33,33,1588.3797470466052,1590.3794483787406,right,1,3,0.6244910856785282,E13T05,2022-12-08_12h08.05.040,t1_Paradigm,2021.1.4,60.34838247479602,
Z,left,Distractor,0,34,34,34,1591.879038231733,1593.878605147289,left,1,3,0.6331415464319434,E13T05,2022-12-08_12h08.05.040,t1_Paradigm,2021.1.4,60.34838247479602,
N,left,Lure,0,35,35,35,1595.3784577381775,1597.3784750615541,left,1,3,1.1336588417398161,E13T05,2022-12-08_12h08.05.040,t1_Paradigm,2021.1.4,60.34838247479602,
Y,left,Pretarget,0,36,36,36,1598.8778804526537,1600.878250980455,left,1,3,1.3860104100676836,E13T05,2022-12-08_12h08.05.040,t1_Paradigm,2021.1.4,60.34838247479602,
Y,left,Lure,0,37,37,37,1602.3771706753723,1604.3768764987526,left,1,3,0.893724927216681,E13T05,2022-12-08_12h08.05.040,t1_Paradigm,2021.1.4,60.34838247479602,
B,left,Distractor,0,38,38,38,1605.8765805577168,1607.876363373889,left,1,3,1.342348440493879,E13T05,2022-12-08_12h08.05.040,t1_Paradigm,2021.1.4,60.34838247479602,
Y,right,Target,0,39,39,39,1609.3760911722966,1611.3757629905285,right,1,3,0.7306577269482659,E13T05,2022-12-08_12h08.05.040,t1_Paradigm,2021.1.4,60.34838247479602,
J,left,Distractor,0,40,40,40,1612.876085879041,1614.875462558246,left,1,3,1.4194448499056307,E13T05,2022-12-08_12h08.05.040,t1_Paradigm,2021.1.4,60.34838247479602,
X,left,Distractor,0,41,41,41,1616.37506331855,1618.3747335327662,left,1,3,0.5547045000676007,E13T05,2022-12-08_12h08.05.040,t1_Paradigm,2021.1.4,60.34838247479602,
W,left,Pretarget,0,42,42,42,1619.8746839686573,1621.8740500613549,left,1,3,0.6164196748650284,E13T05,2022-12-08_12h08.05.040,t1_Paradigm,2021.1.4,60.34838247479602,
S,left,Pretarget,0,43,43,43,1623.3740386728368,1625.3734179184685,left,1,3,0.526544066342467,E13T05,2022-12-08_12h08.05.040,t1_Paradigm,2021.1.4,60.34838247479602,
R,left,Distractor,0,44,44,44,1626.8733776576555,1628.8729715206882,left,1,3,1.2845996775922686,E13T05,2022-12-08_12h08.05.040,t1_Paradigm,2021.1.4,60.34838247479602,
W,right,Target,0,45,45,45,1630.3726909782108,1632.3729549993186,right,1,3,0.7543942832853645,E13T05,2022-12-08_12h08.05.040,t1_Paradigm,2021.1.4,60.34838247479602,
S,right,Target,0,46,46,46,1633.8723879795016,1635.8724300047325,right,1,3,0.35447095527160855,E13T05,2022-12-08_12h08.05.040,t1_Paradigm,2021.1.4,60.34838247479602,
D,left,Distractor,0,47,47,47,1637.37169103435,1639.3729485832537,left,1,3,0.6102191888494417,E13T05,2022-12-08_12h08.05.040,t1_Paradigm,2021.1.4,60.34838247479602,
T,left,Distractor,0,48,48,48,1640.871119202484,1642.8708548605719,left,1,3,0.5956627394989482,E13T05,2022-12-08_12h08.05.040,t1_Paradigm,2021.1.4,60.34838247479602,
S,right,Target,0,49,49,49,1644.370614097701,1646.3702804622772,right,1,3,0.9788683663900883,E13T05,2022-12-08_12h08.05.040,t1_Paradigm,2021.1.4,60.34838247479602,
K,left,Distractor,0,50,50,50,1647.8697894728411,1649.8696775124918,left,1,3,0.5506280526442424,E13T05,2022-12-08_12h08.05.040,t1_Paradigm,2021.1.4,60.34838247479602,
S,left,Lure,0,51,51,51,1651.369464017902,1653.3690549937055,left,1,3,1.1870135619592475,E13T05,2022-12-08_12h08.05.040,t1_Paradigm,2021.1.4,60.34838247479602,
T,left,Pretarget,0,52,52,52,1654.8686605660587,1656.868837970278,right,0,3,0.9664439757143555,E13T05,2022-12-08_12h08.05.040,t1_Paradigm,2021.1.4,60.34838247479602,
V,left,Distractor,0,53,53,53,1658.3684201239903,1660.370506307796,left,1,3,1.1519651607632113,E13T05,2022-12-08_12h08.05.040,t1_Paradigm,2021.1.4,60.34838247479602,
B,left,Distractor,0,54,54,54,1661.8677719409407,1663.8671457329165,left,1,3,0.9100297545046487,E13T05,2022-12-08_12h08.05.040,t1_Paradigm,2021.1.4,60.34838247479602,
T,right,Target,0,55,55,55,1665.3669665642774,1667.3665694098017,right,1,3,1.2892291898915573,E13T05,2022-12-08_12h08.05.040,t1_Paradigm,2021.1.4,60.34838247479602,
Y,left,Pretarget,0,56,56,56,1668.8667598065567,1670.868107821987,left,1,3,1.2220526598612196,E13T05,2022-12-08_12h08.05.040,t1_Paradigm,2021.1.4,60.34838247479602,
T,left,Lure,0,57,57,57,1672.3661886162954,1674.3676412135992,right,0,3,1.3974977343259525,E13T05,2022-12-08_12h08.05.040,t1_Paradigm,2021.1.4,60.34838247479602,
P,left,Pretarget,0,58,58,58,1675.881839806876,1677.8823014428126,None,0,3,,E13T05,2022-12-08_12h08.05.040,t1_Paradigm,2021.1.4,60.34838247479602,
Y,right,Target,0,59,59,59,1679.3814219605902,1681.3820196171218,None,0,3,,E13T05,2022-12-08_12h08.05.040,t1_Paradigm,2021.1.4,60.34838247479602,
R,left,Distractor,0,60,60,60,1682.8812373382953,1684.8803445427347,left,1,3,0.9145684794730187,E13T05,2022-12-08_12h08.05.040,t1_Paradigm,2021.1.4,60.34838247479602,
P,right,Target,0,61,61,61,1686.3801647324908,1688.3803902572054,right,1,3,0.7591983125730621,E13T05,2022-12-08_12h08.05.040,t1_Paradigm,2021.1.4,60.34838247479602,
L,left,Distractor,0,62,62,62,1689.8801148475795,1691.8792271848706,None,0,3,,E13T05,2022-12-08_12h08.05.040,t1_Paradigm,2021.1.4,60.34838247479602,
V,left,Distractor,0,63,63,63,1693.3796084595833,1695.378706360727,right,0,3,1.0288100603902421,E13T05,2022-12-08_12h08.05.040,t1_Paradigm,2021.1.4,60.34838247479602,
H,left,Lure,0,0,0,0,1708.190834649964,1710.1929689542612,None,0,3,,E13T05,2022-12-08_12h08.05.040,t1_Paradigm,2021.1.4,60.34838247479602,
B,left,Distractor,0,1,1,1,1711.6926345168304,1713.6923672876892,None,0,3,,E13T05,2022-12-08_12h08.05.040,t1_Paradigm,2021.1.4,60.34838247479602,
T,left,Distractor,0,2,2,2,1715.1920241885691,1717.1922118584935,None,0,3,,E13T05,2022-12-08_12h08.05.040,t1_Paradigm,2021.1.4,60.34838247479602,
R,left,Distractor,0,3,3,3,1718.6919252207535,1720.6912752732842,left,1,3,0.8055351399907522,E13T05,2022-12-08_12h08.05.040,t1_Paradigm,2021.1.4,60.34838247479602,
H,left,Pretarget,0,4,4,4,1722.19152437704,1724.190697666958,None,0,3,,E13T05,2022-12-08_12h08.05.040,t1_Paradigm,2021.1.4,60.34838247479602,
K,left,Distractor,0,5,5,5,1725.6904623577448,1727.6900998500241,None,0,3,,E13T05,2022-12-08_12h08.05.040,t1_Paradigm,2021.1.4,60.34838247479602,
G,left,Distractor,0,6,6,6,1729.1899870876678,1731.1894227946777,None,0,3,,E13T05,2022-12-08_12h08.05.040,t1_Paradigm,2021.1.4,60.34838247479602,
H,right,Target,0,7,7,7,1732.6893446790764,1734.6914741713263,right,1,3,0.9862176489932608,E13T05,2022-12-08_12h08.05.040,t1_Paradigm,2021.1.4,60.34838247479602,
Y,left,Pretarget,0,8,8,8,1736.1887446165201,1738.1887250475193,left,1,3,0.6462040148526285,E13T05,2022-12-08_12h08.05.040,t1_Paradigm,2021.1.4,60.34838247479602,
S,left,Distractor,0,9,9,9,1739.6882209051473,1741.6887255287238,left,1,3,0.7354566233861988,E13T05,2022-12-08_12h08.05.040,t1_Paradigm,2021.1.4,60.34838247479602,
P,left,Distractor,0,10,10,10,1743.1877100259062,1745.1872191968687,None,0,3,,E13T05,2022-12-08_12h08.05.040,t1_Paradigm,2021.1.4,60.34838247479602,
Y,right,Target,0,11,11,11,1746.686881230602,1748.6867375107267,right,1,3,0.6100639200558362,E13T05,2022-12-08_12h08.05.040,t1_Paradigm,2021.1.4,60.34838247479602,
H,left,Lure,0,12,12,12,1750.186439644871,1752.185651431184,left,1,3,0.7985153223671659,E13T05,2022-12-08_12h08.05.040,t1_Paradigm,2021.1.4,60.34838247479602,
Q,left,Distractor,0,13,13,13,1753.6861382501793,1755.6875754489247,left,1,3,0.6365715752253891,E13T05,2022-12-08_12h08.05.040,t1_Paradigm,2021.1.4,60.34838247479602,
V,left,Pretarget,0,14,14,14,1757.1857380480724,1759.1867607689655,left,1,3,0.5675767321372405,E13T05,2022-12-08_12h08.05.040,t1_Paradigm,2021.1.4,60.34838247479602,
G,left,Distractor,0,15,15,15,1760.6847251116797,1762.6869482784896,left,1,3,0.48090755250996153,E13T05,2022-12-08_12h08.05.040,t1_Paradigm,2021.1.4,60.34838247479602,
Z,left,Pretarget,0,16,16,16,1764.1840875151393,1766.1837343107145,left,1,3,0.9121454522119166,E13T05,2022-12-08_12h08.05.040,t1_Paradigm,2021.1.4,60.34838247479602,
V,right,Target,0,17,17,17,1767.6834043645285,1769.6832243938825,left,0,3,0.8221668658334238,E13T05,2022-12-08_12h08.05.040,t1_Paradigm,2021.1.4,60.34838247479602,
N,left,Distractor,0,18,18,18,1771.1831465990854,1773.1837548421245,left,1,3,1.1783223591883143,E13T05,2022-12-08_12h08.05.040,t1_Paradigm,2021.1.4,60.34838247479602,
Z,right,Target,0,19,19,19,1774.682492962378,1776.6846256626595,right,1,3,1.140105383881746,E13T05,2022-12-08_12h08.05.040,t1_Paradigm,2021.1.4,60.34838247479602,
R,left,Distractor,0,20,20,20,1778.1819602685136,1780.1816375404014,left,1,3,1.3997173723000742,E13T05,2022-12-08_12h08.05.040,t1_Paradigm,2021.1.4,60.34838247479602,
P,left,Distractor,0,21,21,21,1781.6815780313918,1783.6809553522016,left,1,3,0.857172600191916,E13T05,2022-12-08_12h08.05.040,t1_Paradigm,2021.1.4,60.34838247479602,
Z,right,Target,0,22,22,22,1785.1806064786233,1787.1807822788269,right,1,3,0.7836124054647371,E13T05,2022-12-08_12h08.05.040,t1_Paradigm,2021.1.4,60.34838247479602,
D,left,Pretarget,0,23,23,23,1788.6803602620967,1790.6799522003093,left,1,3,1.1227220159289573,E13T05,2022-12-08_12h08.05.040,t1_Paradigm,2021.1.4,60.34838247479602,
K,left,Distractor,0,24,24,24,1792.1796533720444,1794.179085871021,left,1,3,0.7070568704039033,E13T05,2022-12-08_12h08.05.040,t1_Paradigm,2021.1.4,60.34838247479602,
W,left,Distractor,0,25,25,25,1795.6788810381204,1797.6787584912618,left,1,3,0.6499763407573482,E13T05,2022-12-08_12h08.05.040,t1_Paradigm,2021.1.4,60.34838247479602,
D,right,Target,0,26,26,26,1799.1783047150075,1801.1779916109936,right,1,3,0.9600814840359817,E13T05,2022-12-08_12h08.05.040,t1_Paradigm,2021.1.4,60.34838247479602,
G,left,Pretarget,0,27,27,27,1802.6778390690288,1804.6773893028148,left,1,3,1.1645557275423926,E13T05,2022-12-08_12h08.05.040,t1_Paradigm,2021.1.4,60.34838247479602,
V,left,Distractor,0,28,28,28,1806.1774003705286,1808.1770247098739,left,1,3,0.7155774058246607,E13T05,2022-12-08_12h08.05.040,t1_Paradigm,2021.1.4,60.34838247479602,
D,right,Target,0,29,29,29,1809.6769344037475,1811.6763428424783,right,1,3,0.8053615854096279,E13T05,2022-12-08_12h08.05.040,t1_Paradigm,2021.1.4,60.34838247479602,
G,right,Target,0,30,30,30,1813.1760414477849,1815.1756398020643,right,1,3,1.339903277807025,E13T05,2022-12-08_12h08.05.040,t1_Paradigm,2021.1.4,60.34838247479602,
B,left,Pretarget,0,31,31,31,1816.6759877132336,1818.6751395093324,left,1,3,0.4710483049566392,E13T05,2022-12-08_12h08.05.040,t1_Paradigm,2021.1.4,60.34838247479602,
N,left,Distractor,0,32,32,32,1820.1752817855922,1822.1749212026916,left,1,3,0.9075467370294064,E13T05,2022-12-08_12h08.05.040,t1_Paradigm,2021.1.4,60.34838247479602,
F,left,Distractor,0,33,33,33,1823.6744940531098,1825.673932647349,left,1,3,0.7076891736905964,E13T05,2022-12-08_12h08.05.040,t1_Paradigm,2021.1.4,60.34838247479602,
B,right,Target,0,34,34,34,1827.1739405070293,1829.1735003649137,right,1,3,0.7651232285643346,E13T05,2022-12-08_12h08.05.040,t1_Paradigm,2021.1.4,60.34838247479602,
Q,left,Pretarget,0,35,35,35,1830.6734065299515,1832.6742085381793,left,1,3,0.7762416290388501,E13T05,2022-12-08_12h08.05.040,t1_Paradigm,2021.1.4,60.34838247479602,
S,left,Pretarget,0,36,36,36,1834.1897561092974,1836.1904012447176,None,0,3,,E13T05,2022-12-08_12h08.05.040,t1_Paradigm,2021.1.4,60.34838247479602,
W,left,Distractor,0,37,37,37,1837.6888028423182,1839.6890148932926,left,1,3,1.2624953684025968,E13T05,2022-12-08_12h08.05.040,t1_Paradigm,2021.1.4,60.34838247479602,
Q,right,Target,0,38,38,38,1841.1884119435072,1843.1881771154985,right,1,3,0.6999436990208778,E13T05,2022-12-08_12h08.05.040,t1_Paradigm,2021.1.4,60.34838247479602,
S,right,Target,0,39,39,39,1844.6878099561309,1846.6873457537677,right,1,3,0.8389301210227131,E13T05,2022-12-08_12h08.05.040,t1_Paradigm,2021.1.4,60.34838247479602,
T,left,Distractor,0,40,40,40,1848.1872673173639,1850.1866831345687,left,1,3,0.553580084531859,E13T05,2022-12-08_12h08.05.040,t1_Paradigm,2021.1.4,60.34838247479602,
G,left,Distractor,0,41,41,41,1851.686411574583,1853.6866454401825,left,1,3,0.9409981794415216,E13T05,2022-12-08_12h08.05.040,t1_Paradigm,2021.1.4,60.34838247479602,
D,left,Distractor,0,42,42,42,1855.185928926032,1857.18531972058,left,1,3,0.9460925357107044,E13T05,2022-12-08_12h08.05.040,t1_Paradigm,2021.1.4,60.34838247479602,
S,left,Lure,0,43,43,43,1858.6854478814967,1860.6866958063001,None,0,3,,E13T05,2022-12-08_12h08.05.040,t1_Paradigm,2021.1.4,60.34838247479602,
Z,left,Pretarget,0,44,44,44,1862.1846922293425,1864.184376879708,left,1,3,1.0562166063809855,E13T05,2022-12-08_12h08.05.040,t1_Paradigm,2021.1.4,60.34838247479602,
J,left,Distractor,0,45,45,45,1865.6844662234234,1867.6836754433098,left,1,3,0.6495544844274264,E13T05,2022-12-08_12h08.05.040,t1_Paradigm,2021.1.4,60.34838247479602,
M,left,Pretarget,0,46,46,46,1869.1836688668427,1871.1835806459385,left,1,3,0.8281113508237468,E13T05,2022-12-08_12h08.05.040,t1_Paradigm,2021.1.4,60.34838247479602,
Z,right,Target,0,47,47,47,1872.6829988691698,1874.6848537538008,right,1,3,0.7449312277949502,E13T05,2022-12-08_12h08.05.040,t1_Paradigm,2021.1.4,60.34838247479602,
P,left,Distractor,0,48,48,48,1876.1828036603656,1878.1831318421337,left,1,3,1.1701537449789612,E13T05,2022-12-08_12h08.05.040,t1_Paradigm,2021.1.4,60.34838247479602,
M,right,Target,0,49,49,49,1879.6820387049174,1881.681725280101,right,1,3,0.7878373848107003,E13T05,2022-12-08_12h08.05.040,t1_Paradigm,2021.1.4,60.34838247479602,
K,left,Distractor,0,50,50,50,1883.1819192056919,1885.1812253081716,left,1,3,1.0939668128994526,E13T05,2022-12-08_12h08.05.040,t1_Paradigm,2021.1.4,60.34838247479602,
Y,left,Distractor,0,51,51,51,1886.6810159840243,1888.6803086127675,left,1,3,0.605065483972794,E13T05,2022-12-08_12h08.05.040,t1_Paradigm,2021.1.4,60.34838247479602,
X,left,Distractor,0,52,52,52,1890.1800829276508,1892.1818422129018,left,1,3,0.6315885376970982,E13T05,2022-12-08_12h08.05.040,t1_Paradigm,2021.1.4,60.34838247479602,
F,left,Pretarget,0,53,53,53,1893.67972795881,1895.6792441874459,left,1,3,0.7564397250716866,E13T05,2022-12-08_12h08.05.040,t1_Paradigm,2021.1.4,60.34838247479602,
M,left,Lure,0,54,54,54,1897.1789158452775,1899.1802446125093,left,1,3,0.7147324099551042,E13T05,2022-12-08_12h08.05.040,t1_Paradigm,2021.1.4,60.34838247479602,
V,left,Distractor,0,55,55,55,1900.678936857892,1902.6799223656035,left,1,3,0.5020218627432769,E13T05,2022-12-08_12h08.05.040,t1_Paradigm,2021.1.4,60.34838247479602,
F,right,Target,0,56,56,56,1904.194562063407,1906.1944407997635,left,0,3,1.0581449549663375,E13T05,2022-12-08_12h08.05.040,t1_Paradigm,2021.1.4,60.34838247479602,
S,left,Distractor,0,57,57,57,1907.6942933906503,1909.6944448098038,left,1,3,1.249924049820038,E13T05,2022-12-08_12h08.05.040,t1_Paradigm,2021.1.4,60.34838247479602,
D,left,Distractor,0,58,58,58,1911.193931364136,1913.193632375469,left,1,3,1.013768877268376,E13T05,2022-12-08_12h08.05.040,t1_Paradigm,2021.1.4,60.34838247479602,
F,right,Target,0,59,59,59,1914.6930088942718,1916.6924022552485,right,1,3,0.45537963059541653,E13T05,2022-12-08_12h08.05.040,t1_Paradigm,2021.1.4,60.34838247479602,
V,left,Pretarget,0,60,60,60,1918.192590085575,1920.1920010907324,left,1,3,0.9292253402527422,E13T05,2022-12-08_12h08.05.040,t1_Paradigm,2021.1.4,60.34838247479602,
J,left,Distractor,0,61,61,61,1921.6919887398053,1923.6914299004711,left,1,3,0.675539230232971,E13T05,2022-12-08_12h08.05.040,t1_Paradigm,2021.1.4,60.34838247479602,
V,left,Lure,0,62,62,62,1925.1910835933177,1927.19087218395,None,0,3,,E13T05,2022-12-08_12h08.05.040,t1_Paradigm,2021.1.4,60.34838247479602,
V,right,Target,0,63,63,63,1928.690730549295,1930.6901470081084,right,1,3,0.6968306238813966,E13T05,2022-12-08_12h08.05.040,t1_Paradigm,2021.1.4,60.34838247479602,
R,left,Distractor,0,0,0,0,2020.9222773825659,2022.9258296374119,None,0,4,,E13T05,2022-12-08_12h08.05.040,t1_Paradigm,2021.1.4,60.34838247479602,
F,left,Distractor,0,1,1,1,2024.4251272386064,2026.4252157803148,None,0,4,,E13T05,2022-12-08_12h08.05.040,t1_Paradigm,2021.1.4,60.34838247479602,
P,left,Pretarget,0,2,2,2,2027.9244626945874,2029.924530704886,None,0,4,,E13T05,2022-12-08_12h08.05.040,t1_Paradigm,2021.1.4,60.34838247479602,
H,left,Distractor,0,3,3,3,2031.4237291778627,2033.425978971345,None,0,4,,E13T05,2022-12-08_12h08.05.040,t1_Paradigm,2021.1.4,60.34838247479602,
Z,left,Distractor,0,4,4,4,2034.9237803459873,2036.9243494510265,left,1,4,0.6900273484807258,E13T05,2022-12-08_12h08.05.040,t1_Paradigm,2021.1.4,60.34838247479602,
T,left,Distractor,0,5,5,5,2038.4228636505813,2040.4221986253579,left,1,4,0.6755549495937885,E13T05,2022-12-08_12h08.05.040,t1_Paradigm,2021.1.4,60.34838247479602,
P,right,Target,0,6,6,6,2041.9219803187189,2043.9221359083149,right,1,4,0.952471388356571,E13T05,2022-12-08_12h08.05.040,t1_Paradigm,2021.1.4,60.34838247479602,
G,left,Distractor,0,7,7,7,2045.4215868534811,2047.421035713427,left,1,4,1.1773352474610874,E13T05,2022-12-08_12h08.05.040,t1_Paradigm,2021.1.4,60.34838247479602,
L,left,Distractor,0,8,8,8,2048.9208235020487,2050.9204539366583,left,1,4,0.8716289589119697,E13T05,2022-12-08_12h08.05.040,t1_Paradigm,2021.1.4,60.34838247479602,
P,left,Lure,0,9,9,9,2052.4203549688427,2054.4200136341406,right,0,4,0.671827856953314,E13T05,2022-12-08_12h08.05.040,t1_Paradigm,2021.1.4,60.34838247479602,
Q,left,Pretarget,0,10,10,10,2055.919650324413,2057.919562424311,left,1,4,0.7775809827817284,E13T05,2022-12-08_12h08.05.040,t1_Paradigm,2021.1.4,60.34838247479602,
D,left,Distractor,0,11,11,11,2059.4193389848188,2061.418730100171,left,1,4,0.9739915147529246,E13T05,2022-12-08_12h08.05.040,t1_Paradigm,2021.1.4,60.34838247479602,
M,left,Pretarget,0,12,12,12,2062.9186122049614,2064.9181370952865,left,1,4,0.2889921162604878,E13T05,2022-12-08_12h08.05.040,t1_Paradigm,2021.1.4,60.34838247479602,
C,left,Distractor,0,13,13,13,2066.4179373952375,2068.417607930258,left,1,4,0.6276157097381656,E13T05,2022-12-08_12h08.05.040,t1_Paradigm,2021.1.4,60.34838247479602,
Q,right,Target,0,14,14,14,2069.917932422788,2071.917759830616,right,1,4,1.0103808737076179,E13T05,2022-12-08_12h08.05.040,t1_Paradigm,2021.1.4,60.34838247479602,
R,left,Distractor,0,15,15,15,2073.416925581658,2075.4165512042164,left,1,4,0.6319889002061245,E13T05,2022-12-08_12h08.05.040,t1_Paradigm,2021.1.4,60.34838247479602,
M,right,Target,0,16,16,16,2076.916666853802,2078.917658456776,left,0,4,1.2790337404876482,E13T05,2022-12-08_12h08.05.040,t1_Paradigm,2021.1.4,60.34838247479602,
S,left,Distractor,0,17,17,17,2080.4160010265714,2082.416772237684,left,1,4,0.7858779183079605,E13T05,2022-12-08_12h08.05.040,t1_Paradigm,2021.1.4,60.34838247479602,
Z,left,Distractor,0,18,18,18,2083.91533423693,2085.916863827024,left,1,4,0.507795680383424,E13T05,2022-12-08_12h08.05.040,t1_Paradigm,2021.1.4,60.34838247479602,
L,left,Pretarget,0,19,19,19,2087.4146045698435,2089.414119515266,left,1,4,0.592096048505482,E13T05,2022-12-08_12h08.05.040,t1_Paradigm,2021.1.4,60.34838247479602,
M,right,Target,0,20,20,20,2090.9146242992465,2092.914086953733,right,1,4,0.9341403674807225,E13T05,2022-12-08_12h08.05.040,t1_Paradigm,2021.1.4,60.34838247479602,
P,left,Distractor,0,21,21,21,2094.4135353324727,2096.413553297458,left,1,4,0.7143278770035977,E13T05,2022-12-08_12h08.05.040,t1_Paradigm,2021.1.4,60.34838247479602,
F,left,Distractor,0,22,22,22,2097.912894527899,2099.9131614362377,None,0,4,,E13T05,2022-12-08_12h08.05.040,t1_Paradigm,2021.1.4,60.34838247479602,
L,right,Target,0,23,23,23,2101.412403217657,2103.4128039009684,right,1,4,0.6735746308768285,E13T05,2022-12-08_12h08.05.040,t1_Paradigm,2021.1.4,60.34838247479602,
L,left,Lure,0,24,24,24,2104.9115445876487,2106.911934042844,left,1,4,0.7641524778046005,E13T05,2022-12-08_12h08.05.040,t1_Paradigm,2021.1.4,60.34838247479602,
V,left,Pretarget,0,25,25,25,2108.411287143006,2110.410846359284,left,1,4,0.8587487067616166,E13T05,2022-12-08_12h08.05.040,t1_Paradigm,2021.1.4,60.34838247479602,
Z,left,Distractor,0,26,26,26,2111.9107165943533,2113.9105510598547,left,1,4,0.9326791084877186,E13T05,2022-12-08_12h08.05.040,t1_Paradigm,2021.1.4,60.34838247479602,
H,left,Distractor,0,27,27,27,2115.4103391692806,2117.4097325302555,left,1,4,0.5169411406150175,E13T05,2022-12-08_12h08.05.040,t1_Paradigm,2021.1.4,60.34838247479602,
X,left,Distractor,0,28,28,28,2118.909731086642,2120.909367616512,left,1,4,0.8228694250392437,E13T05,2022-12-08_12h08.05.040,t1_Paradigm,2021.1.4,60.34838247479602,
V,right,Target,0,29,29,29,2122.4089539406687,2124.4086863907232,right,1,4,1.0390080762226717,E13T05,2022-12-08_12h08.05.040,t1_Paradigm,2021.1.4,60.34838247479602,
C,left,Distractor,0,30,30,30,2125.908665378107,2127.908221386351,left,1,4,0.8353534851266886,E13T05,2022-12-08_12h08.05.040,t1_Paradigm,2021.1.4,60.34838247479602,
S,left,Pretarget,0,31,31,31,2129.4082234715734,2131.407650516894,left,1,4,0.627410074828731,E13T05,2022-12-08_12h08.05.040,t1_Paradigm,2021.1.4,60.34838247479602,
D,left,Distractor,0,32,32,32,2132.907408470812,2134.907610897688,left,1,4,0.49678122017576243,E13T05,2022-12-08_12h08.05.040,t1_Paradigm,2021.1.4,60.34838247479602,
V,left,Distractor,0,33,33,33,2136.4068000673687,2138.406477018454,right,0,4,0.7872756582473812,E13T05,2022-12-08_12h08.05.040,t1_Paradigm,2021.1.4,60.34838247479602,
R,left,Distractor,0,34,34,34,2139.906259674224,2141.9059658184106,left,1,4,0.8325945768192469,E13T05,2022-12-08_12h08.05.040,t1_Paradigm,2021.1.4,60.34838247479602,
S,right,Target,0,35,35,35,2143.405922991171,2145.406556577671,left,0,4,0.9091655104384699,E13T05,2022-12-08_12h08.05.040,t1_Paradigm,2021.1.4,60.34838247479602,
Y,left,Distractor,0,36,36,36,2146.9216604778376,2148.9217849495144,left,1,4,0.7791519564998453,E13T05,2022-12-08_12h08.05.040,t1_Paradigm,2021.1.4,60.34838247479602,
N,left,Pretarget,0,37,37,37,2150.4211184806754,2152.420717797366,left,1,4,0.633343331701326,E13T05,2022-12-08_12h08.05.040,t1_Paradigm,2021.1.4,60.34838247479602,
Z,left,Pretarget,0,38,38,38,2153.9208411462314,2155.920054215756,left,1,4,0.6746303945074033,E13T05,2022-12-08_12h08.05.040,t1_Paradigm,2021.1.4,60.34838247479602,
P,left,Pretarget,0,39,39,39,2157.4199263756454,2159.4193582330154,left,1,4,0.5566148836696811,E13T05,2022-12-08_12h08.05.040,t1_Paradigm,2021.1.4,60.34838247479602,
M,left,Distractor,0,40,40,40,2160.9198373527324,2162.9188787924977,left,1,4,0.9567268440168846,E13T05,2022-12-08_12h08.05.040,t1_Paradigm,2021.1.4,60.34838247479602,
N,right,Target,0,41,41,41,2164.418743253107,2166.43518217617,right,1,4,0.8174998195481749,E13T05,2022-12-08_12h08.05.040,t1_Paradigm,2021.1.4,60.34838247479602,
Z,right,Target,0,42,42,42,2167.9185175679904,2169.918226599406,right,1,4,0.9853996006004309,E13T05,2022-12-08_12h08.05.040,t1_Paradigm,2021.1.4,60.34838247479602,
P,right,Target,0,43,43,43,2171.4180169544543,2173.418527352491,right,1,4,1.0868911755023873,E13T05,2022-12-08_12h08.05.040,t1_Paradigm,2021.1.4,60.34838247479602,
X,left,Pretarget,0,44,44,44,2174.917095446999,2176.91928557107,left,1,4,0.5715774699838221,E13T05,2022-12-08_12h08.05.040,t1_Paradigm,2021.1.4,60.34838247479602,
Z,left,Lure,0,45,45,45,2178.4162352129733,2180.416069999279,left,1,4,1.0314637452174793,E13T05,2022-12-08_12h08.05.040,t1_Paradigm,2021.1.4,60.34838247479602,
R,left,Pretarget,0,46,46,46,2181.9163835844956,2183.915737165864,left,1,4,1.0230192401777458,E13T05,2022-12-08_12h08.05.040,t1_Paradigm,2021.1.4,60.34838247479602,
K,left,Distractor,0,47,47,47,2185.4154903077306,2187.416531956018,left,1,4,0.6138936697479949,E13T05,2022-12-08_12h08.05.040,t1_Paradigm,2021.1.4,60.34838247479602,
X,right,Target,0,48,48,48,2188.9148803002718,2190.914591898114,right,1,4,0.8886995436569123,E13T05,2022-12-08_12h08.05.040,t1_Paradigm,2021.1.4,60.34838247479602,
B,left,Distractor,0,49,49,49,2192.414302373143,2194.4138988026025,left,1,4,0.6277081010848633,E13T05,2022-12-08_12h08.05.040,t1_Paradigm,2021.1.4,60.34838247479602,
R,right,Target,0,50,50,50,2195.9135014877265,2197.9150593085087,right,1,4,0.9527636401562631,E13T05,2022-12-08_12h08.05.040,t1_Paradigm,2021.1.4,60.34838247479602,
Y,left,Pretarget,0,51,51,51,2199.413384554926,2201.4131067392755,left,1,4,0.538466720669021,E13T05,2022-12-08_12h08.05.040,t1_Paradigm,2021.1.4,60.34838247479602,
W,left,Pretarget,0,52,52,52,2202.9122259738397,2204.9126080505594,left,1,4,0.8325695541625464,E13T05,2022-12-08_12h08.05.040,t1_Paradigm,2021.1.4,60.34838247479602,
Z,left,Distractor,0,53,53,53,2206.411907576572,2208.411719906646,right,0,4,0.8899404107887676,E13T05,2022-12-08_12h08.05.040,t1_Paradigm,2021.1.4,60.34838247479602,
Q,left,Distractor,0,54,54,54,2209.9112013281265,2211.9113296494434,left,1,4,1.0163677047330566,E13T05,2022-12-08_12h08.05.040,t1_Paradigm,2021.1.4,60.34838247479602,
Y,right,Target,0,55,55,55,2213.4110215178807,2215.410679541572,right,1,4,0.5026769430660352,E13T05,2022-12-08_12h08.05.040,t1_Paradigm,2021.1.4,60.34838247479602,
W,right,Target,0,56,56,56,2216.9105536262814,2218.9097336530685,right,1,4,0.9236202651427448,E13T05,2022-12-08_12h08.05.040,t1_Paradigm,2021.1.4,60.34838247479602,
H,left,Pretarget,0,57,57,57,2220.409531386593,2222.4093520575534,left,1,4,0.49530392101769394,E13T05,2022-12-08_12h08.05.040,t1_Paradigm,2021.1.4,60.34838247479602,
M,left,Distractor,0,58,58,58,2223.9089528178556,2225.909510053174,left,1,4,1.156051553089128,E13T05,2022-12-08_12h08.05.040,t1_Paradigm,2021.1.4,60.34838247479602,
R,left,Pretarget,0,59,59,59,2227.4087434937082,2229.408234378885,left,1,4,0.7570232662583294,E13T05,2022-12-08_12h08.05.040,t1_Paradigm,2021.1.4,60.34838247479602,
J,left,Distractor,0,60,60,60,2230.9081450351678,2232.9076160305412,left,1,4,0.6921282892362797,E13T05,2022-12-08_12h08.05.040,t1_Paradigm,2021.1.4,60.34838247479602,
H,right,Target,0,61,61,61,2234.4076229278126,2236.4069864540816,right,1,4,0.6763861509225535,E13T05,2022-12-08_12h08.05.040,t1_Paradigm,2021.1.4,60.34838247479602,
Z,left,Distractor,0,62,62,62,2237.906935285957,2239.909087234435,left,1,4,0.9757815971188393,E13T05,2022-12-08_12h08.05.040,t1_Paradigm,2021.1.4,60.34838247479602,
R,right,Target,0,63,63,63,2241.4228200213347,2243.424889523367,right,1,4,0.8457738176402927,E13T05,2022-12-08_12h08.05.040,t1_Paradigm,2021.1.4,60.34838247479602,
J,left,Pretarget,0,0,0,0,2259.064836911628,2261.0695536824205,left,1,4,0.4073451121621474,E13T05,2022-12-08_12h08.05.040,t1_Paradigm,2021.1.4,60.34838247479602,
G,left,Pretarget,0,1,1,1,2262.5692920673373,2264.568804446335,left,1,4,0.3177062564645894,E13T05,2022-12-08_12h08.05.040,t1_Paradigm,2021.1.4,60.34838247479602,
Z,left,Distractor,0,2,2,2,2266.068537377594,2268.0684757833624,left,1,4,0.40783529958935105,E13T05,2022-12-08_12h08.05.040,t1_Paradigm,2021.1.4,60.34838247479602,
F,left,Distractor,0,3,3,3,2269.5680550498455,2271.567835299591,left,1,4,0.41210134175889834,E13T05,2022-12-08_12h08.05.040,t1_Paradigm,2021.1.4,60.34838247479602,
J,right,Target,0,4,4,4,2273.0677645624655,2275.0673584254982,right,1,4,0.5714860410462279,E13T05,2022-12-08_12h08.05.040,t1_Paradigm,2021.1.4,60.34838247479602,
G,right,Target,0,5,5,5,2276.567000248622,2278.5667307738586,right,1,4,0.5027731840546039,E13T05,2022-12-08_12h08.05.040,t1_Paradigm,2021.1.4,60.34838247479602,
H,left,Distractor,0,6,6,6,2280.0662599950283,2282.0661955135656,left,1,4,0.4213225115690875,E13T05,2022-12-08_12h08.05.040,t1_Paradigm,2021.1.4,60.34838247479602,
P,left,Distractor,0,7,7,7,2283.5658261085755,2285.5676473088624,left,1,4,0.5624191776205407,E13T05,2022-12-08_12h08.05.040,t1_Paradigm,2021.1.4,60.34838247479602,
G,left,Lure,0,8,8,8,2287.065204231396,2289.065596253018,left,1,4,0.8699014331887156,E13T05,2022-12-08_12h08.05.040,t1_Paradigm,2021.1.4,60.34838247479602,
S,left,Distractor,0,9,9,9,2290.564818144634,2292.564702655449,left,1,4,0.5438109827009612,E13T05,2022-12-08_12h08.05.040,t1_Paradigm,2021.1.4,60.34838247479602,
R,left,Pretarget,0,10,10,10,2294.0641324275985,2296.064446173219,left,1,4,0.5971464547237701,E13T05,2022-12-08_12h08.05.040,t1_Paradigm,2021.1.4,60.34838247479602,
T,left,Pretarget,0,11,11,11,2297.5643462429925,2299.5632259978993,left,1,4,0.5901535845750914,E13T05,2022-12-08_12h08.05.040,t1_Paradigm,2021.1.4,60.34838247479602,
X,left,Distractor,0,12,12,12,2301.0631982484138,2303.062993255111,left,1,4,0.48806563635480416,E13T05,2022-12-08_12h08.05.040,t1_Paradigm,2021.1.4,60.34838247479602,
F,left,Pretarget,0,13,13,13,2304.562545253315,2306.5621070360194,left,1,4,0.7131033708410541,E13T05,2022-12-08_12h08.05.040,t1_Paradigm,2021.1.4,60.34838247479602,
R,right,Target,0,14,14,14,2308.0617193452417,2310.061292035256,right,1,4,0.4483617377900373,E13T05,2022-12-08_12h08.05.040,t1_Paradigm,2021.1.4,60.34838247479602,
T,right,Target,0,15,15,15,2311.5614811487976,2313.5617188640354,right,1,4,0.4270937627825333,E13T05,2022-12-08_12h08.05.040,t1_Paradigm,2021.1.4,60.34838247479602,
C,left,Distractor,0,16,16,16,2315.060679942577,2317.060382878728,left,1,4,0.6199019945943292,E13T05,2022-12-08_12h08.05.040,t1_Paradigm,2021.1.4,60.34838247479602,
F,right,Target,0,17,17,17,2318.560423460345,2320.561726884118,left,0,4,0.7570826148676133,E13T05,2022-12-08_12h08.05.040,t1_Paradigm,2021.1.4,60.34838247479602,
M,left,Distractor,0,18,18,18,2322.0593588746233,2324.061697209814,left,1,4,0.9284804350099876,E13T05,2022-12-08_12h08.05.040,t1_Paradigm,2021.1.4,60.34838247479602,
N,left,Distractor,0,19,19,19,2325.559305140072,2327.5586660999143,left,1,4,0.829247956884501,E13T05,2022-12-08_12h08.05.040,t1_Paradigm,2021.1.4,60.34838247479602,
R,left,Lure,0,20,20,20,2329.0585895883305,2331.057988402961,left,1,4,1.013391612597843,E13T05,2022-12-08_12h08.05.040,t1_Paradigm,2021.1.4,60.34838247479602,
F,right,Target,0,21,21,21,2332.5582285242253,2334.5593907945495,right,1,4,0.5141556056369154,E13T05,2022-12-08_12h08.05.040,t1_Paradigm,2021.1.4,60.34838247479602,
P,left,Distractor,0,22,22,22,2336.057786617692,2338.057270445195,left,1,4,0.7074729522719281,E13T05,2022-12-08_12h08.05.040,t1_Paradigm,2021.1.4,60.34838247479602,
L,left,Pretarget,0,23,23,23,2339.5568182729567,2341.558845749758,left,1,4,0.5669328799322102,E13T05,2022-12-08_12h08.05.040,t1_Paradigm,2021.1.4,60.34838247479602,
T,left,Distractor,0,24,24,24,2343.0561768267744,2345.05654190092,left,1,4,0.7482948503056832,E13T05,2022-12-08_12h08.05.040,t1_Paradigm,2021.1.4,60.34838247479602,
F,left,Distractor,0,25,25,25,2346.5556688347624,2348.5554077008837,right,0,4,0.5454380969949852,E13T05,2022-12-08_12h08.05.040,t1_Paradigm,2021.1.4,60.34838247479602,
V,left,Distractor,0,26,26,26,2350.0554816460426,2352.055825867974,left,1,4,0.4625803812741651,E13T05,2022-12-08_12h08.05.040,t1_Paradigm,2021.1.4,60.34838247479602,
L,right,Target,0,27,27,27,2353.5711629921334,2355.5710000240615,right,1,4,0.610398197084578,E13T05,2022-12-08_12h08.05.040,t1_Paradigm,2021.1.4,60.34838247479602,
S,left,Pretarget,0,28,28,28,2357.070497164901,2359.0701224666573,left,1,4,0.9461130671206774,E13T05,2022-12-08_12h08.05.040,t1_Paradigm,2021.1.4,60.34838247479602,
W,left,Distractor,0,29,29,29,2360.5698800997707,2362.571762573485,left,1,4,0.9027622767407593,E13T05,2022-12-08_12h08.05.040,t1_Paradigm,2021.1.4,60.34838247479602,
Q,left,Distractor,0,30,30,30,2364.0696913070333,2366.070555230297,left,1,4,0.6717473353273817,E13T05,2022-12-08_12h08.05.040,t1_Paradigm,2021.1.4,60.34838247479602,
L,right,Target,0,31,31,31,2367.5687945014324,2369.5685134777486,right,1,4,0.4443302028266771,E13T05,2022-12-08_12h08.05.040,t1_Paradigm,2021.1.4,60.34838247479602,
S,right,Target,0,32,32,32,2371.0687250475203,2373.0682294064336,left,0,4,0.6325682709502871,E13T05,2022-12-08_12h08.05.040,t1_Paradigm,2021.1.4,60.34838247479602,
Z,left,Pretarget,0,33,33,33,2374.5678147681792,2376.5688862511743,left,1,4,0.6107456270510738,E13T05,2022-12-08_12h08.05.040,t1_Paradigm,2021.1.4,60.34838247479602,
F,left,Distractor,0,34,34,34,2378.067189362164,2380.066715214898,left,1,4,0.7067424831784592,E13T05,2022-12-08_12h08.05.040,t1_Paradigm,2021.1.4,60.34838247479602,
V,left,Distractor,0,35,35,35,2381.566256626593,2383.5663846271073,left,1,4,0.4581164034734684,E13T05,2022-12-08_12h08.05.040,t1_Paradigm,2021.1.4,60.34838247479602,
M,left,Distractor,0,36,36,36,2385.0658198529127,2387.0659302092445,left,1,4,0.8498294128494308,E13T05,2022-12-08_12h08.05.040,t1_Paradigm,2021.1.4,60.34838247479602,
Z,right,Target,0,37,37,37,2388.565841507134,2390.5650558598736,right,1,4,0.45029938967127237,E13T05,2022-12-08_12h08.05.040,t1_Paradigm,2021.1.4,60.34838247479602,
H,left,Pretarget,0,38,38,38,2392.064839478053,2394.064519316369,left,1,4,0.6956327443913324,E13T05,2022-12-08_12h08.05.040,t1_Paradigm,2021.1.4,60.34838247479602,
L,left,Distractor,0,39,39,39,2395.5641890493807,2397.5644373511277,left,1,4,1.1279459767265507,E13T05,2022-12-08_12h08.05.040,t1_Paradigm,2021.1.4,60.34838247479602,
G,left,Distractor,0,40,40,40,2399.0640685877443,2401.0634135074233,left,1,4,0.7698608515711385,E13T05,2022-12-08_12h08.05.040,t1_Paradigm,2021.1.4,60.34838247479602,
K,left,Distractor,0,41,41,41,2402.5630639922365,2404.562902628182,left,1,4,0.6352986277634045,E13T05,2022-12-08_12h08.05.040,t1_Paradigm,2021.1.4,60.34838247479602,
H,right,Target,0,42,42,42,2406.0624106763335,2408.0620863442073,left,0,4,0.5996407003131026,E13T05,2022-12-08_12h08.05.040,t1_Paradigm,2021.1.4,60.34838247479602,
B,left,Distractor,0,43,43,43,2409.5620377425075,2411.5615369685693,left,1,4,0.8235164852794696,E13T05,2022-12-08_12h08.05.040,t1_Paradigm,2021.1.4,60.34838247479602,
Z,left,Distractor,0,44,44,44,2413.061830984787,2415.061353950292,left,1,4,1.0153504374957265,E13T05,2022-12-08_12h08.05.040,t1_Paradigm,2021.1.4,60.34838247479602,
T,left,Pretarget,0,45,45,45,2416.560950860956,2418.562346676077,left,1,4,0.8587525564016687,E13T05,2022-12-08_12h08.05.040,t1_Paradigm,2021.1.4,60.34838247479602,
H,right,Target,0,46,46,46,2420.060421375123,2422.0600659250777,right,1,4,0.8361939897513366,E13T05,2022-12-08_12h08.05.040,t1_Paradigm,2021.1.4,60.34838247479602,
F,left,Distractor,0,47,47,47,2423.5597648511884,2425.559186122051,left,1,4,0.5020103138267586,E13T05,2022-12-08_12h08.05.040,t1_Paradigm,2021.1.4,60.34838247479602,
R,left,Distractor,0,48,48,48,2427.059034221691,2429.058625518299,left,1,4,1.1307972763806902,E13T05,2022-12-08_12h08.05.040,t1_Paradigm,2021.1.4,60.34838247479602,
T,right,Target,0,49,49,49,2430.558556385189,2432.5588043661337,right,1,4,0.8199703256941575,E13T05,2022-12-08_12h08.05.040,t1_Paradigm,2021.1.4,60.34838247479602,
H,right,Target,0,50,50,50,2434.05827584271,2436.057730477116,right,1,4,0.6988151130426559,E13T05,2022-12-08_12h08.05.040,t1_Paradigm,2021.1.4,60.34838247479602,
Y,left,Pretarget,0,51,51,51,2437.5575240401977,2439.5583879634614,left,1,4,0.640835050968235,E13T05,2022-12-08_12h08.05.040,t1_Paradigm,2021.1.4,60.34838247479602,
H,left,Distractor,0,52,52,52,2441.057224249522,2443.0564498303756,left,1,4,0.8422639088275901,E13T05,2022-12-08_12h08.05.040,t1_Paradigm,2021.1.4,60.34838247479602,
S,left,Distractor,0,53,53,53,2444.5562696993275,2446.5557746998493,left,1,4,0.7122994377914438,E13T05,2022-12-08_12h08.05.040,t1_Paradigm,2021.1.4,60.34838247479602,
Q,left,Distractor,0,54,54,54,2448.0561088164777,2450.0551852238004,left,1,4,0.7204895458216924,E13T05,2022-12-08_12h08.05.040,t1_Paradigm,2021.1.4,60.34838247479602,
Y,right,Target,0,55,55,55,2451.5552501864677,2453.554610183901,right,1,4,0.42744857122124813,E13T05,2022-12-08_12h08.05.040,t1_Paradigm,2021.1.4,60.34838247479602,
R,left,Distractor,0,56,56,56,2455.054439676951,2457.0545910961046,left,1,4,0.6228793699428934,E13T05,2022-12-08_12h08.05.040,t1_Paradigm,2021.1.4,60.34838247479602,
H,left,Pretarget,0,57,57,57,2458.554130262177,2460.5539117951357,left,1,4,0.9742513654182403,E13T05,2022-12-08_12h08.05.040,t1_Paradigm,2021.1.4,60.34838247479602,
J,left,Distractor,0,58,58,58,2462.0537983911727,2464.0530679220774,right,0,4,0.6978796506446088,E13T05,2022-12-08_12h08.05.040,t1_Paradigm,2021.1.4,60.34838247479602,
V,left,Distractor,0,59,59,59,2465.552730276613,2467.5523809218284,right,0,4,0.5636180195215275,E13T05,2022-12-08_12h08.05.040,t1_Paradigm,2021.1.4,60.34838247479602,
Y,left,Lure,0,60,60,60,2469.0523830070506,2471.0527897856246,left,1,4,1.1250430277414125,E13T05,2022-12-08_12h08.05.040,t1_Paradigm,2021.1.4,60.34838247479602,
H,right,Target,0,61,61,61,2472.5684467506635,2474.567685163651,right,1,4,0.9383124142841552,E13T05,2022-12-08_12h08.05.040,t1_Paradigm,2021.1.4,60.34838247479602,
L,left,Distractor,0,62,62,62,2476.0682855470095,2478.067426435795,left,1,4,0.6939103515196621,E13T05,2022-12-08_12h08.05.040,t1_Paradigm,2021.1.4,60.34838247479602,
P,left,Distractor,0,63,63,63,2479.567128569939,2481.568156744488,left,1,4,0.6723462750742328,E13T05,2022-12-08_12h08.05.040,t1_Paradigm,2021.1.4,60.34838247479602,
