Letter,CorrAnswer,Stimulus,nback_run.thisRepN,nback_run.thisTrialN,nback_run.thisN,nback_run.thisIndex,fixcross.started,nback_trial.started,trial_resp.keys,trial_resp.corr,currentlevel,trial_resp.rt,Participant,date,expName,psychopyVersion,frameRate
H,left,Distractor,0,0,0,0,211.2098464,213.1529134,None,0,1,,F12E07,2022-09-02_11h59.41.925,t1_Paradigm,04.01.2021,59.9873759
Q,left,Pretarget,0,1,1,1,214.6515817,216.6551214,left,1,1,0.513677062,F12E07,2022-09-02_11h59.41.925,t1_Paradigm,04.01.2021,59.9873759
Q,right,Target,0,2,2,2,218.1517136,220.1513472,right,1,1,0.409653245,F12E07,2022-09-02_11h59.41.925,t1_Paradigm,04.01.2021,59.9873759
T,left,Distractor,0,3,3,3,221.6516196,223.6536275,left,1,1,0.347501436,F12E07,2022-09-02_11h59.41.925,t1_Paradigm,04.01.2021,59.9873759
Q,left,Lure,0,4,4,4,225.1516719,227.1536958,left,1,1,0.431120336,F12E07,2022-09-02_11h59.41.925,t1_Paradigm,04.01.2021,59.9873759
L,left,Distractor,0,5,5,5,228.6516821,230.6534667,left,1,1,0.387343729,F12E07,2022-09-02_11h59.41.925,t1_Paradigm,04.01.2021,59.9873759
V,left,Pretarget,0,6,6,6,232.1515548,234.1530962,left,1,1,0.535808853,F12E07,2022-09-02_11h59.41.925,t1_Paradigm,04.01.2021,59.9873759
V,right,Target,0,7,7,7,235.6516731,237.6516789,left,0,1,0.4134201,F12E07,2022-09-02_11h59.41.925,t1_Paradigm,04.01.2021,59.9873759
K,left,Distractor,0,8,8,8,239.1517216,241.1547596,left,1,1,0.478284609,F12E07,2022-09-02_11h59.41.925,t1_Paradigm,04.01.2021,59.9873759
G,left,Pretarget,0,9,9,9,242.6516058,244.653648,left,1,1,0.547226188,F12E07,2022-09-02_11h59.41.925,t1_Paradigm,04.01.2021,59.9873759
G,right,Target,0,10,10,10,246.1514383,248.15155,right,1,1,0.48934874,F12E07,2022-09-02_11h59.41.925,t1_Paradigm,04.01.2021,59.9873759
G,right,Target,0,11,11,11,249.6516109,251.6513815,right,1,1,0.381727774,F12E07,2022-09-02_11h59.41.925,t1_Paradigm,04.01.2021,59.9873759
P,left,Pretarget,0,12,12,12,253.1516703,255.1534828,left,1,1,0.511600191,F12E07,2022-09-02_11h59.41.925,t1_Paradigm,04.01.2021,59.9873759
P,right,Target,0,13,13,13,256.6516988,258.6515041,left,0,1,0.51727357,F12E07,2022-09-02_11h59.41.925,t1_Paradigm,04.01.2021,59.9873759
G,left,Lure,0,14,14,14,260.1515034,262.1538126,left,1,1,0.375142677,F12E07,2022-09-02_11h59.41.925,t1_Paradigm,04.01.2021,59.9873759
Y,left,Distractor,0,15,15,15,263.6516523,265.6541831,left,1,1,0.442946051,F12E07,2022-09-02_11h59.41.925,t1_Paradigm,04.01.2021,59.9873759
B,left,Distractor,0,16,16,16,267.1515878,269.1530125,left,1,1,0.623919299,F12E07,2022-09-02_11h59.41.925,t1_Paradigm,04.01.2021,59.9873759
T,left,Pretarget,0,17,17,17,270.6515628,272.653408,left,1,1,0.483424495,F12E07,2022-09-02_11h59.41.925,t1_Paradigm,04.01.2021,59.9873759
T,right,Target,0,18,18,18,274.1515743,276.1516491,right,1,1,0.585182167,F12E07,2022-09-02_11h59.41.925,t1_Paradigm,04.01.2021,59.9873759
S,left,Distractor,0,19,19,19,277.6517347,279.6532136,left,1,1,0.523696342,F12E07,2022-09-02_11h59.41.925,t1_Paradigm,04.01.2021,59.9873759
T,left,Lure,0,20,20,20,281.1514739,283.1536278,left,1,1,0.847520363,F12E07,2022-09-02_11h59.41.925,t1_Paradigm,04.01.2021,59.9873759
J,left,Distractor,0,21,21,21,284.6514149,286.6533987,left,1,1,0.499274667,F12E07,2022-09-02_11h59.41.925,t1_Paradigm,04.01.2021,59.9873759
P,left,Distractor,0,22,22,22,288.1512442,290.1522329,left,1,1,0.424720662,F12E07,2022-09-02_11h59.41.925,t1_Paradigm,04.01.2021,59.9873759
F,left,Distractor,0,23,23,23,291.6516125,293.653699,left,1,1,0.523126919,F12E07,2022-09-02_11h59.41.925,t1_Paradigm,04.01.2021,59.9873759
L,left,Distractor,0,24,24,24,295.1515856,297.1533468,left,1,1,0.639619657,F12E07,2022-09-02_11h59.41.925,t1_Paradigm,04.01.2021,59.9873759
W,left,Pretarget,0,25,25,25,298.6512776,300.6539454,left,1,1,0.434799932,F12E07,2022-09-02_11h59.41.925,t1_Paradigm,04.01.2021,59.9873759
W,right,Target,0,26,26,26,302.1516205,304.1512667,right,1,1,0.441657711,F12E07,2022-09-02_11h59.41.925,t1_Paradigm,04.01.2021,59.9873759
V,left,Distractor,0,27,27,27,305.651412,307.6521454,left,1,1,0.540731235,F12E07,2022-09-02_11h59.41.925,t1_Paradigm,04.01.2021,59.9873759
W,left,Lure,0,28,28,28,309.1515679,311.152112,left,1,1,0.416883796,F12E07,2022-09-02_11h59.41.925,t1_Paradigm,04.01.2021,59.9873759
R,left,Pretarget,0,29,29,29,312.6515156,314.6531482,left,1,1,0.435494789,F12E07,2022-09-02_11h59.41.925,t1_Paradigm,04.01.2021,59.9873759
R,right,Target,0,30,30,30,316.1514024,318.1515721,right,1,1,0.473321164,F12E07,2022-09-02_11h59.41.925,t1_Paradigm,04.01.2021,59.9873759
G,left,Distractor,0,31,31,31,319.6515259,321.6528704,left,1,1,0.619926601,F12E07,2022-09-02_11h59.41.925,t1_Paradigm,04.01.2021,59.9873759
R,left,Lure,0,32,32,32,323.1515275,325.1523337,left,1,1,0.528596589,F12E07,2022-09-02_11h59.41.925,t1_Paradigm,04.01.2021,59.9873759
S,left,Distractor,0,33,33,33,326.6514374,328.6517825,left,1,1,0.565278664,F12E07,2022-09-02_11h59.41.925,t1_Paradigm,04.01.2021,59.9873759
R,left,Lure,0,34,34,34,330.1515423,332.1529095,left,1,1,0.519895804,F12E07,2022-09-02_11h59.41.925,t1_Paradigm,04.01.2021,59.9873759
P,left,Pretarget,0,35,35,35,333.6515634,335.6535678,left,1,1,0.555203565,F12E07,2022-09-02_11h59.41.925,t1_Paradigm,04.01.2021,59.9873759
P,right,Target,0,36,36,36,337.1515929,339.1515901,right,1,1,0.401202686,F12E07,2022-09-02_11h59.41.925,t1_Paradigm,04.01.2021,59.9873759
Y,left,Pretarget,0,37,37,37,340.6515634,342.6522836,left,1,1,0.468466151,F12E07,2022-09-02_11h59.41.925,t1_Paradigm,04.01.2021,59.9873759
Y,right,Target,0,38,38,38,344.1513446,346.1514066,right,1,1,0.489388841,F12E07,2022-09-02_11h59.41.925,t1_Paradigm,04.01.2021,59.9873759
J,left,Distractor,0,39,39,39,347.651498,349.6521454,left,1,1,0.380915183,F12E07,2022-09-02_11h59.41.925,t1_Paradigm,04.01.2021,59.9873759
Y,left,Lure,0,40,40,40,351.1514916,353.1536615,left,1,1,0.399113625,F12E07,2022-09-02_11h59.41.925,t1_Paradigm,04.01.2021,59.9873759
T,left,Distractor,0,41,41,41,354.6514078,356.6523038,left,1,1,0.404385681,F12E07,2022-09-02_11h59.41.925,t1_Paradigm,04.01.2021,59.9873759
V,left,Distractor,0,42,42,42,358.1515429,360.1537369,left,1,1,0.566953891,F12E07,2022-09-02_11h59.41.925,t1_Paradigm,04.01.2021,59.9873759
N,left,Pretarget,0,43,43,43,361.6514893,363.6529724,left,1,1,0.363801693,F12E07,2022-09-02_11h59.41.925,t1_Paradigm,04.01.2021,59.9873759
N,right,Target,0,44,44,44,365.151411,367.1511974,right,1,1,0.465707576,F12E07,2022-09-02_11h59.41.925,t1_Paradigm,04.01.2021,59.9873759
N,right,Target,0,45,45,45,368.6514633,370.6513116,right,1,1,0.469353488,F12E07,2022-09-02_11h59.41.925,t1_Paradigm,04.01.2021,59.9873759
X,left,Distractor,0,46,46,46,372.1514563,374.1533641,left,1,1,0.439508018,F12E07,2022-09-02_11h59.41.925,t1_Paradigm,04.01.2021,59.9873759
Z,left,Distractor,0,47,47,47,375.6514909,377.6535505,left,1,1,0.42745261,F12E07,2022-09-02_11h59.41.925,t1_Paradigm,04.01.2021,59.9873759
H,left,Pretarget,0,48,48,48,379.1512959,381.1533898,left,1,1,0.383354239,F12E07,2022-09-02_11h59.41.925,t1_Paradigm,04.01.2021,59.9873759
H,right,Target,0,49,49,49,382.651097,384.6514017,right,1,1,0.389246405,F12E07,2022-09-02_11h59.41.925,t1_Paradigm,04.01.2021,59.9873759
K,left,Distractor,0,50,50,50,386.1513841,388.1515179,left,1,1,0.489283938,F12E07,2022-09-02_11h59.41.925,t1_Paradigm,04.01.2021,59.9873759
V,left,Pretarget,0,51,51,51,389.6514293,391.6514948,left,1,1,0.413438385,F12E07,2022-09-02_11h59.41.925,t1_Paradigm,04.01.2021,59.9873759
V,right,Target,0,52,52,52,393.1515686,395.1514858,right,1,1,0.529648818,F12E07,2022-09-02_11h59.41.925,t1_Paradigm,04.01.2021,59.9873759
R,left,Distractor,0,53,53,53,396.6513392,398.6533901,left,1,1,0.38728374,F12E07,2022-09-02_11h59.41.925,t1_Paradigm,04.01.2021,59.9873759
V,left,Lure,0,54,54,54,400.1513786,402.1525011,left,1,1,0.424393765,F12E07,2022-09-02_11h59.41.925,t1_Paradigm,04.01.2021,59.9873759
Y,left,Distractor,0,55,55,55,403.6514585,405.653666,left,1,1,0.635086408,F12E07,2022-09-02_11h59.41.925,t1_Paradigm,04.01.2021,59.9873759
Q,left,Distractor,0,56,56,56,407.151138,409.1531398,left,1,1,0.511795559,F12E07,2022-09-02_11h59.41.925,t1_Paradigm,04.01.2021,59.9873759
Z,left,Pretarget,0,57,57,57,410.6513206,412.6523597,left,1,1,0.356232055,F12E07,2022-09-02_11h59.41.925,t1_Paradigm,04.01.2021,59.9873759
Z,right,Target,0,58,58,58,414.1513113,416.1512009,right,1,1,0.505547304,F12E07,2022-09-02_11h59.41.925,t1_Paradigm,04.01.2021,59.9873759
B,left,Distractor,0,59,59,59,417.6513536,419.6518669,left,1,1,0.429021651,F12E07,2022-09-02_11h59.41.925,t1_Paradigm,04.01.2021,59.9873759
S,left,Pretarget,0,60,60,60,421.1514691,423.1535562,left,1,1,0.463329152,F12E07,2022-09-02_11h59.41.925,t1_Paradigm,04.01.2021,59.9873759
S,right,Target,0,61,61,61,424.6514845,426.6512022,left,0,1,0.405418983,F12E07,2022-09-02_11h59.41.925,t1_Paradigm,04.01.2021,59.9873759
T,left,Distractor,0,62,62,62,428.1506463,430.15247,left,1,1,0.488324741,F12E07,2022-09-02_11h59.41.925,t1_Paradigm,04.01.2021,59.9873759
D,left,Distractor,0,63,63,63,431.6515172,433.6537134,left,1,1,0.411260783,F12E07,2022-09-02_11h59.41.925,t1_Paradigm,04.01.2021,59.9873759
R,left,Distractor,0,0,0,0,450.5460729,452.5364363,None,0,1,,F12E07,2022-09-02_11h59.41.925,t1_Paradigm,04.01.2021,59.9873759
V,left,Distractor,0,1,1,1,454.0345654,456.0367982,left,1,1,0.556028025,F12E07,2022-09-02_11h59.41.925,t1_Paradigm,04.01.2021,59.9873759
N,left,Pretarget,0,2,2,2,457.5344487,459.5341035,left,1,1,0.45057215,F12E07,2022-09-02_11h59.41.925,t1_Paradigm,04.01.2021,59.9873759
N,right,Target,0,3,3,3,461.0343284,463.0346245,right,1,1,0.470085237,F12E07,2022-09-02_11h59.41.925,t1_Paradigm,04.01.2021,59.9873759
S,left,Distractor,0,4,4,4,464.5346049,466.5368515,left,1,1,0.487677684,F12E07,2022-09-02_11h59.41.925,t1_Paradigm,04.01.2021,59.9873759
N,left,Lure,0,5,5,5,468.0348028,470.0360639,left,1,1,0.572697526,F12E07,2022-09-02_11h59.41.925,t1_Paradigm,04.01.2021,59.9873759
Z,left,Distractor,0,6,6,6,471.5351557,473.5354024,left,1,1,0.433295693,F12E07,2022-09-02_11h59.41.925,t1_Paradigm,04.01.2021,59.9873759
L,left,Pretarget,0,7,7,7,475.0337971,477.0356388,left,1,1,0.485056413,F12E07,2022-09-02_11h59.41.925,t1_Paradigm,04.01.2021,59.9873759
L,right,Target,0,8,8,8,478.5338561,480.5346107,right,1,1,0.489883838,F12E07,2022-09-02_11h59.41.925,t1_Paradigm,04.01.2021,59.9873759
H,left,Distractor,0,9,9,9,482.0346405,484.0337413,left,1,1,0.73508705,F12E07,2022-09-02_11h59.41.925,t1_Paradigm,04.01.2021,59.9873759
L,left,Lure,0,10,10,10,485.534619,487.5366827,left,1,1,0.416045541,F12E07,2022-09-02_11h59.41.925,t1_Paradigm,04.01.2021,59.9873759
X,left,Pretarget,0,11,11,11,489.0347839,491.0359253,left,1,1,0.500775057,F12E07,2022-09-02_11h59.41.925,t1_Paradigm,04.01.2021,59.9873759
X,right,Target,0,12,12,12,492.5339209,494.5347672,left,0,1,0.730010362,F12E07,2022-09-02_11h59.41.925,t1_Paradigm,04.01.2021,59.9873759
X,right,Target,0,13,13,13,496.0342979,498.0347271,right,1,1,0.79814737,F12E07,2022-09-02_11h59.41.925,t1_Paradigm,04.01.2021,59.9873759
R,left,Distractor,0,14,14,14,499.5347239,501.535132,left,1,1,0.529668387,F12E07,2022-09-02_11h59.41.925,t1_Paradigm,04.01.2021,59.9873759
T,left,Distractor,0,15,15,15,503.0338019,505.0337297,left,1,1,0.647056804,F12E07,2022-09-02_11h59.41.925,t1_Paradigm,04.01.2021,59.9873759
V,left,Pretarget,0,16,16,16,506.5347499,508.5341375,left,1,1,0.490490474,F12E07,2022-09-02_11h59.41.925,t1_Paradigm,04.01.2021,59.9873759
V,right,Target,0,17,17,17,510.0348275,512.0348596,right,1,1,0.510058739,F12E07,2022-09-02_11h59.41.925,t1_Paradigm,04.01.2021,59.9873759
N,left,Distractor,0,18,18,18,513.5347326,515.5473442,left,1,1,0.485632252,F12E07,2022-09-02_11h59.41.925,t1_Paradigm,04.01.2021,59.9873759
B,left,Distractor,0,19,19,19,517.0347342,519.0363638,left,1,1,0.404455295,F12E07,2022-09-02_11h59.41.925,t1_Paradigm,04.01.2021,59.9873759
V,left,Lure,0,20,20,20,520.5342308,522.5352757,left,1,1,0.42553229,F12E07,2022-09-02_11h59.41.925,t1_Paradigm,04.01.2021,59.9873759
P,left,Distractor,0,21,21,21,524.0347124,526.0366599,left,1,1,0.540122033,F12E07,2022-09-02_11h59.41.925,t1_Paradigm,04.01.2021,59.9873759
K,left,Pretarget,0,22,22,22,527.5345295,529.5367847,left,1,1,0.447864904,F12E07,2022-09-02_11h59.41.925,t1_Paradigm,04.01.2021,59.9873759
K,right,Target,0,23,23,23,531.0345471,533.0341246,right,1,1,0.502544279,F12E07,2022-09-02_11h59.41.925,t1_Paradigm,04.01.2021,59.9873759
J,left,Pretarget,0,24,24,24,534.534585,536.5347794,left,1,1,0.617808667,F12E07,2022-09-02_11h59.41.925,t1_Paradigm,04.01.2021,59.9873759
J,right,Target,0,25,25,25,538.0342995,540.0343967,right,1,1,0.622315611,F12E07,2022-09-02_11h59.41.925,t1_Paradigm,04.01.2021,59.9873759
H,left,Distractor,0,26,26,26,541.5346379,543.5362631,left,1,1,0.672290749,F12E07,2022-09-02_11h59.41.925,t1_Paradigm,04.01.2021,59.9873759
J,left,Lure,0,27,27,27,545.0347602,547.0364296,left,1,1,0.548425986,F12E07,2022-09-02_11h59.41.925,t1_Paradigm,04.01.2021,59.9873759
V,left,Distractor,0,28,28,28,548.5345067,550.5473099,left,1,1,0.461218277,F12E07,2022-09-02_11h59.41.925,t1_Paradigm,04.01.2021,59.9873759
Z,left,Pretarget,0,29,29,29,552.0345587,554.0471437,left,1,1,0.417819254,F12E07,2022-09-02_11h59.41.925,t1_Paradigm,04.01.2021,59.9873759
Z,right,Target,0,30,30,30,555.5345484,557.5344602,right,1,1,0.562462025,F12E07,2022-09-02_11h59.41.925,t1_Paradigm,04.01.2021,59.9873759
T,left,Distractor,0,31,31,31,559.0347332,561.0347839,left,1,1,0.742056788,F12E07,2022-09-02_11h59.41.925,t1_Paradigm,04.01.2021,59.9873759
Z,left,Lure,0,32,32,32,562.5346187,564.5348901,left,1,1,0.521526118,F12E07,2022-09-02_11h59.41.925,t1_Paradigm,04.01.2021,59.9873759
F,left,Distractor,0,33,33,33,566.0346854,568.0348975,left,1,1,0.541468438,F12E07,2022-09-02_11h59.41.925,t1_Paradigm,04.01.2021,59.9873759
Y,left,Pretarget,0,34,34,34,569.5339963,571.5347942,left,1,1,0.817683876,F12E07,2022-09-02_11h59.41.925,t1_Paradigm,04.01.2021,59.9873759
Y,right,Target,0,35,35,35,573.0348744,575.034653,right,1,1,0.614173663,F12E07,2022-09-02_11h59.41.925,t1_Paradigm,04.01.2021,59.9873759
Y,right,Target,0,36,36,36,576.5347608,578.5347037,left,0,1,0.714187136,F12E07,2022-09-02_11h59.41.925,t1_Paradigm,04.01.2021,59.9873759
W,left,Distractor,0,37,37,37,580.034679,582.0351063,left,1,1,1.069350601,F12E07,2022-09-02_11h59.41.925,t1_Paradigm,04.01.2021,59.9873759
Q,left,Distractor,0,38,38,38,583.5349186,585.5347345,left,1,1,0.657721538,F12E07,2022-09-02_11h59.41.925,t1_Paradigm,04.01.2021,59.9873759
P,left,Pretarget,0,39,39,39,587.0346187,589.0339164,left,1,1,0.630874602,F12E07,2022-09-02_11h59.41.925,t1_Paradigm,04.01.2021,59.9873759
P,right,Target,0,40,40,40,590.534688,592.5345921,right,1,1,0.570158701,F12E07,2022-09-02_11h59.41.925,t1_Paradigm,04.01.2021,59.9873759
J,left,Distractor,0,41,41,41,594.0345061,596.0365858,left,1,1,0.508012024,F12E07,2022-09-02_11h59.41.925,t1_Paradigm,04.01.2021,59.9873759
P,left,Lure,0,42,42,42,597.5344689,599.5365884,left,1,1,0.864451638,F12E07,2022-09-02_11h59.41.925,t1_Paradigm,04.01.2021,59.9873759
L,left,Distractor,0,43,43,43,601.0343094,603.0361467,left,1,1,0.580579304,F12E07,2022-09-02_11h59.41.925,t1_Paradigm,04.01.2021,59.9873759
Z,left,Distractor,0,44,44,44,604.534586,606.536642,left,1,1,0.503985641,F12E07,2022-09-02_11h59.41.925,t1_Paradigm,04.01.2021,59.9873759
F,left,Pretarget,0,45,45,45,608.0343739,610.0360854,left,1,1,0.540520148,F12E07,2022-09-02_11h59.41.925,t1_Paradigm,04.01.2021,59.9873759
F,right,Target,0,46,46,46,611.5512853,613.5346036,right,1,1,0.433936654,F12E07,2022-09-02_11h59.41.925,t1_Paradigm,04.01.2021,59.9873759
G,left,Pretarget,0,47,47,47,615.0344519,617.0358958,left,1,1,0.532682961,F12E07,2022-09-02_11h59.41.925,t1_Paradigm,04.01.2021,59.9873759
G,right,Target,0,48,48,48,618.5346058,620.5346261,right,1,1,0.666245882,F12E07,2022-09-02_11h59.41.925,t1_Paradigm,04.01.2021,59.9873759
V,left,Distractor,0,49,49,49,622.0345638,624.035849,left,1,1,0.732711833,F12E07,2022-09-02_11h59.41.925,t1_Paradigm,04.01.2021,59.9873759
G,left,Lure,0,50,50,50,625.5344846,627.5362631,left,1,1,0.704307405,F12E07,2022-09-02_11h59.41.925,t1_Paradigm,04.01.2021,59.9873759
Q,left,Pretarget,0,51,51,51,629.0346014,631.0364136,left,1,1,0.7081705,F12E07,2022-09-02_11h59.41.925,t1_Paradigm,04.01.2021,59.9873759
Q,right,Target,0,52,52,52,632.5345888,634.5344519,right,1,1,0.410225235,F12E07,2022-09-02_11h59.41.925,t1_Paradigm,04.01.2021,59.9873759
Y,left,Distractor,0,53,53,53,636.0344753,638.035541,left,1,1,0.508998168,F12E07,2022-09-02_11h59.41.925,t1_Paradigm,04.01.2021,59.9873759
V,left,Distractor,0,54,54,54,639.534601,641.5361598,left,1,1,0.544520546,F12E07,2022-09-02_11h59.41.925,t1_Paradigm,04.01.2021,59.9873759
B,left,Distractor,0,55,55,55,643.0345327,645.0336819,left,1,1,0.470796455,F12E07,2022-09-02_11h59.41.925,t1_Paradigm,04.01.2021,59.9873759
J,left,Pretarget,0,56,56,56,646.5344413,648.5357623,left,1,1,0.552776058,F12E07,2022-09-02_11h59.41.925,t1_Paradigm,04.01.2021,59.9873759
J,right,Target,0,57,57,57,650.0346158,652.0344916,right,1,1,0.43030967,F12E07,2022-09-02_11h59.41.925,t1_Paradigm,04.01.2021,59.9873759
H,left,Distractor,0,58,58,58,653.5345337,655.5364168,left,1,1,0.384258579,F12E07,2022-09-02_11h59.41.925,t1_Paradigm,04.01.2021,59.9873759
J,left,Lure,0,59,59,59,657.0346078,659.0367536,left,1,1,0.595944104,F12E07,2022-09-02_11h59.41.925,t1_Paradigm,04.01.2021,59.9873759
D,left,Pretarget,0,60,60,60,660.5344641,662.5366224,left,1,1,0.6479512,F12E07,2022-09-02_11h59.41.925,t1_Paradigm,04.01.2021,59.9873759
D,right,Target,0,61,61,61,664.0345353,666.0336986,right,1,1,0.558900805,F12E07,2022-09-02_11h59.41.925,t1_Paradigm,04.01.2021,59.9873759
R,left,Distractor,0,62,62,62,667.5345956,669.5345917,left,1,1,0.530130021,F12E07,2022-09-02_11h59.41.925,t1_Paradigm,04.01.2021,59.9873759
F,left,Distractor,0,63,63,63,671.0344634,673.0350854,left,1,1,0.389382104,F12E07,2022-09-02_11h59.41.925,t1_Paradigm,04.01.2021,59.9873759
F,left,Distractor,0,0,0,0,785.9346184,787.9177599,None,0,2,,F12E07,2022-09-02_11h59.41.925,t1_Paradigm,04.01.2021,59.9873759
N,left,Pretarget,0,1,1,1,789.4178042,791.4196129,None,0,2,,F12E07,2022-09-02_11h59.41.925,t1_Paradigm,04.01.2021,59.9873759
V,left,Distractor,0,2,2,2,792.9177394,794.9194034,left,1,2,0.409067782,F12E07,2022-09-02_11h59.41.925,t1_Paradigm,04.01.2021,59.9873759
N,right,Target,0,3,3,3,796.4177445,798.4194945,right,1,2,0.461280833,F12E07,2022-09-02_11h59.41.925,t1_Paradigm,04.01.2021,59.9873759
N,left,Lure,0,4,4,4,799.9177423,801.9178501,left,1,2,0.402573472,F12E07,2022-09-02_11h59.41.925,t1_Paradigm,04.01.2021,59.9873759
X,left,Distractor,0,5,5,5,803.4177041,805.4189164,left,1,2,0.421512644,F12E07,2022-09-02_11h59.41.925,t1_Paradigm,04.01.2021,59.9873759
G,left,Pretarget,0,6,6,6,806.917647,808.9197797,left,1,2,0.34474639,F12E07,2022-09-02_11h59.41.925,t1_Paradigm,04.01.2021,59.9873759
H,left,Pretarget,0,7,7,7,810.4176338,812.420104,left,1,2,0.364217131,F12E07,2022-09-02_11h59.41.925,t1_Paradigm,04.01.2021,59.9873759
G,right,Target,0,8,8,8,813.9174872,815.9196921,right,1,2,0.352742695,F12E07,2022-09-02_11h59.41.925,t1_Paradigm,04.01.2021,59.9873759
H,right,Target,0,9,9,9,817.4178369,819.4183649,right,1,2,0.550018125,F12E07,2022-09-02_11h59.41.925,t1_Paradigm,04.01.2021,59.9873759
T,left,Pretarget,0,10,10,10,820.9174859,822.9197883,left,1,2,0.456554461,F12E07,2022-09-02_11h59.41.925,t1_Paradigm,04.01.2021,59.9873759
K,left,Distractor,0,11,11,11,824.4177179,826.4196632,left,1,2,0.428887877,F12E07,2022-09-02_11h59.41.925,t1_Paradigm,04.01.2021,59.9873759
T,right,Target,0,12,12,12,827.9174045,829.919499,right,1,2,0.448765394,F12E07,2022-09-02_11h59.41.925,t1_Paradigm,04.01.2021,59.9873759
T,left,Lure,0,13,13,13,831.4175132,833.4176056,left,1,2,0.422871561,F12E07,2022-09-02_11h59.41.925,t1_Paradigm,04.01.2021,59.9873759
J,left,Distractor,0,14,14,14,834.9176155,836.9175398,left,1,2,0.346983662,F12E07,2022-09-02_11h59.41.925,t1_Paradigm,04.01.2021,59.9873759
Q,left,Pretarget,0,15,15,15,838.4177211,840.4194098,left,1,2,0.364904289,F12E07,2022-09-02_11h59.41.925,t1_Paradigm,04.01.2021,59.9873759
M,left,Distractor,0,16,16,16,841.9177317,843.9198252,left,1,2,0.416452959,F12E07,2022-09-02_11h59.41.925,t1_Paradigm,04.01.2021,59.9873759
Q,right,Target,0,17,17,17,845.4177682,847.4195073,right,1,2,0.341027977,F12E07,2022-09-02_11h59.41.925,t1_Paradigm,04.01.2021,59.9873759
R,left,Distractor,0,18,18,18,848.9178606,850.9195522,left,1,2,0.377395988,F12E07,2022-09-02_11h59.41.925,t1_Paradigm,04.01.2021,59.9873759
W,left,Distractor,0,19,19,19,852.4177278,854.4194213,left,1,2,0.605035304,F12E07,2022-09-02_11h59.41.925,t1_Paradigm,04.01.2021,59.9873759
C,left,Pretarget,0,20,20,20,855.9177609,857.9192795,left,1,2,0.417001851,F12E07,2022-09-02_11h59.41.925,t1_Paradigm,04.01.2021,59.9873759
T,left,Distractor,0,21,21,21,859.4174968,861.4196812,left,1,2,0.4047854,F12E07,2022-09-02_11h59.41.925,t1_Paradigm,04.01.2021,59.9873759
C,right,Target,0,22,22,22,862.9176961,864.9193684,right,1,2,0.361176573,F12E07,2022-09-02_11h59.41.925,t1_Paradigm,04.01.2021,59.9873759
F,left,Pretarget,0,23,23,23,866.4177391,868.4194685,left,1,2,0.332797808,F12E07,2022-09-02_11h59.41.925,t1_Paradigm,04.01.2021,59.9873759
C,right,Target,0,24,24,24,869.9177259,871.9195465,right,1,2,0.416750342,F12E07,2022-09-02_11h59.41.925,t1_Paradigm,04.01.2021,59.9873759
F,right,Target,0,25,25,25,873.4177099,875.4189546,left,0,2,0.389536089,F12E07,2022-09-02_11h59.41.925,t1_Paradigm,04.01.2021,59.9873759
H,left,Distractor,0,26,26,26,876.9177204,878.9199276,left,1,2,0.504355205,F12E07,2022-09-02_11h59.41.925,t1_Paradigm,04.01.2021,59.9873759
H,left,Lure,0,27,27,27,880.4174029,882.417706,left,1,2,0.430830973,F12E07,2022-09-02_11h59.41.925,t1_Paradigm,04.01.2021,59.9873759
P,left,Distractor,0,28,28,28,883.9176261,885.919413,left,1,2,0.384928413,F12E07,2022-09-02_11h59.41.925,t1_Paradigm,04.01.2021,59.9873759
G,left,Pretarget,0,29,29,29,887.4173021,889.4190883,left,1,2,0.469259173,F12E07,2022-09-02_11h59.41.925,t1_Paradigm,04.01.2021,59.9873759
K,left,Distractor,0,30,30,30,890.9177076,892.9194695,left,1,2,0.424766537,F12E07,2022-09-02_11h59.41.925,t1_Paradigm,04.01.2021,59.9873759
G,right,Target,0,31,31,31,894.4173971,896.4185372,right,1,2,0.381729378,F12E07,2022-09-02_11h59.41.925,t1_Paradigm,04.01.2021,59.9873759
M,left,Pretarget,0,32,32,32,897.917561,899.9197322,left,1,2,0.464593753,F12E07,2022-09-02_11h59.41.925,t1_Paradigm,04.01.2021,59.9873759
B,left,Distractor,0,33,33,33,901.4175382,903.4201592,left,1,2,0.420179713,F12E07,2022-09-02_11h59.41.925,t1_Paradigm,04.01.2021,59.9873759
M,right,Target,0,34,34,34,904.9175357,906.9194589,right,1,2,0.376914785,F12E07,2022-09-02_11h59.41.925,t1_Paradigm,04.01.2021,59.9873759
M,left,Lure,0,35,35,35,908.4176759,910.4176707,left,1,2,0.494623042,F12E07,2022-09-02_11h59.41.925,t1_Paradigm,04.01.2021,59.9873759
T,left,Distractor,0,36,36,36,911.9177429,913.9196048,left,1,2,0.496811231,F12E07,2022-09-02_11h59.41.925,t1_Paradigm,04.01.2021,59.9873759
F,left,Distractor,0,37,37,37,915.4177885,917.4194534,left,1,2,0.484822869,F12E07,2022-09-02_11h59.41.925,t1_Paradigm,04.01.2021,59.9873759
X,left,Distractor,0,38,38,38,918.9176787,920.9194646,left,1,2,0.456781268,F12E07,2022-09-02_11h59.41.925,t1_Paradigm,04.01.2021,59.9873759
C,left,Distractor,0,39,39,39,922.4175219,924.4193758,left,1,2,0.540994293,F12E07,2022-09-02_11h59.41.925,t1_Paradigm,04.01.2021,59.9873759
R,left,Distractor,0,40,40,40,925.9175928,927.9189058,left,1,2,0.481884967,F12E07,2022-09-02_11h59.41.925,t1_Paradigm,04.01.2021,59.9873759
B,left,Pretarget,0,41,41,41,929.4177397,931.419192,left,1,2,0.437144993,F12E07,2022-09-02_11h59.41.925,t1_Paradigm,04.01.2021,59.9873759
H,left,Distractor,0,42,42,42,932.9176255,934.9198506,left,1,2,0.568456527,F12E07,2022-09-02_11h59.41.925,t1_Paradigm,04.01.2021,59.9873759
B,right,Target,0,43,43,43,936.4173814,938.4195846,right,1,2,0.477003968,F12E07,2022-09-02_11h59.41.925,t1_Paradigm,04.01.2021,59.9873759
W,left,Pretarget,0,44,44,44,939.9174558,941.9199298,left,1,2,0.560553255,F12E07,2022-09-02_11h59.41.925,t1_Paradigm,04.01.2021,59.9873759
L,left,Pretarget,0,45,45,45,943.4175722,945.4195692,left,1,2,0.468723434,F12E07,2022-09-02_11h59.41.925,t1_Paradigm,04.01.2021,59.9873759
W,right,Target,0,46,46,46,946.9176268,948.918585,right,1,2,0.649782978,F12E07,2022-09-02_11h59.41.925,t1_Paradigm,04.01.2021,59.9873759
L,right,Target,0,47,47,47,950.4176335,952.4190457,right,1,2,0.509282399,F12E07,2022-09-02_11h59.41.925,t1_Paradigm,04.01.2021,59.9873759
W,right,Target,0,48,48,48,953.9176592,955.9193966,right,1,2,0.64086918,F12E07,2022-09-02_11h59.41.925,t1_Paradigm,04.01.2021,59.9873759
X,left,Distractor,0,49,49,49,957.4176027,959.4193889,left,1,2,0.48496338,F12E07,2022-09-02_11h59.41.925,t1_Paradigm,04.01.2021,59.9873759
R,left,Distractor,0,50,50,50,960.9176319,962.9183037,left,1,2,0.505928416,F12E07,2022-09-02_11h59.41.925,t1_Paradigm,04.01.2021,59.9873759
V,left,Pretarget,0,51,51,51,964.4176364,966.418371,left,1,2,0.637932882,F12E07,2022-09-02_11h59.41.925,t1_Paradigm,04.01.2021,59.9873759
Z,left,Distractor,0,52,52,52,967.9177169,969.9196574,left,1,2,0.592871464,F12E07,2022-09-02_11h59.41.925,t1_Paradigm,04.01.2021,59.9873759
V,right,Target,0,53,53,53,971.4174413,973.4181394,right,1,2,0.438095849,F12E07,2022-09-02_11h59.41.925,t1_Paradigm,04.01.2021,59.9873759
V,left,Lure,0,54,54,54,974.9173926,976.9175998,left,1,2,0.81073531,F12E07,2022-09-02_11h59.41.925,t1_Paradigm,04.01.2021,59.9873759
N,left,Distractor,0,55,55,55,978.4175963,980.4196889,left,1,2,0.700554025,F12E07,2022-09-02_11h59.41.925,t1_Paradigm,04.01.2021,59.9873759
B,left,Distractor,0,56,56,56,981.9171988,983.9181879,left,1,2,0.722115431,F12E07,2022-09-02_11h59.41.925,t1_Paradigm,04.01.2021,59.9873759
V,left,Lure,0,57,57,57,985.4174657,987.4179636,left,1,2,0.838302125,F12E07,2022-09-02_11h59.41.925,t1_Paradigm,04.01.2021,59.9873759
J,left,Distractor,0,58,58,58,988.9173794,990.9193957,left,1,2,0.600791097,F12E07,2022-09-02_11h59.41.925,t1_Paradigm,04.01.2021,59.9873759
H,left,Distractor,0,59,59,59,992.4176297,994.418824,left,1,2,0.63744783,F12E07,2022-09-02_11h59.41.925,t1_Paradigm,04.01.2021,59.9873759
X,left,Pretarget,0,60,60,60,995.9177872,997.919379,left,1,2,0.848918738,F12E07,2022-09-02_11h59.41.925,t1_Paradigm,04.01.2021,59.9873759
P,left,Distractor,0,61,61,61,999.4170968,1001.418297,left,1,2,0.566077461,F12E07,2022-09-02_11h59.41.925,t1_Paradigm,04.01.2021,59.9873759
X,right,Target,0,62,62,62,1002.917265,1004.918126,right,1,2,0.489977191,F12E07,2022-09-02_11h59.41.925,t1_Paradigm,04.01.2021,59.9873759
Q,left,Distractor,0,63,63,63,1006.41729,1008.419283,left,1,2,0.525140912,F12E07,2022-09-02_11h59.41.925,t1_Paradigm,04.01.2021,59.9873759
B,left,Pretarget,0,0,0,0,1015.650166,1017.635631,None,0,2,,F12E07,2022-09-02_11h59.41.925,t1_Paradigm,04.01.2021,59.9873759
F,left,Distractor,0,1,1,1,1019.134229,1021.135155,None,0,2,,F12E07,2022-09-02_11h59.41.925,t1_Paradigm,04.01.2021,59.9873759
B,right,Target,0,2,2,2,1022.633773,1024.636045,right,1,2,0.468324998,F12E07,2022-09-02_11h59.41.925,t1_Paradigm,04.01.2021,59.9873759
V,left,Distractor,0,3,3,3,1026.134037,1028.134919,left,1,2,0.633301788,F12E07,2022-09-02_11h59.41.925,t1_Paradigm,04.01.2021,59.9873759
G,left,Pretarget,0,4,4,4,1029.634153,1031.636261,left,1,2,0.747898267,F12E07,2022-09-02_11h59.41.925,t1_Paradigm,04.01.2021,59.9873759
B,left,Lure,0,5,5,5,1033.134091,1035.134628,left,1,2,0.881707564,F12E07,2022-09-02_11h59.41.925,t1_Paradigm,04.01.2021,59.9873759
G,right,Target,0,6,6,6,1036.634067,1038.636474,right,1,2,0.819528486,F12E07,2022-09-02_11h59.41.925,t1_Paradigm,04.01.2021,59.9873759
Y,left,Pretarget,0,7,7,7,1040.133859,1042.136219,left,1,2,0.920021879,F12E07,2022-09-02_11h59.41.925,t1_Paradigm,04.01.2021,59.9873759
P,left,Distractor,0,8,8,8,1043.634031,1045.635816,left,1,2,0.52454775,F12E07,2022-09-02_11h59.41.925,t1_Paradigm,04.01.2021,59.9873759
Y,right,Target,0,9,9,9,1047.134167,1049.134684,right,1,2,0.562003279,F12E07,2022-09-02_11h59.41.925,t1_Paradigm,04.01.2021,59.9873759
X,left,Distractor,0,10,10,10,1050.634266,1052.635729,left,1,2,0.836324703,F12E07,2022-09-02_11h59.41.925,t1_Paradigm,04.01.2021,59.9873759
Y,right,Target,0,11,11,11,1054.134161,1056.13632,right,1,2,0.999878095,F12E07,2022-09-02_11h59.41.925,t1_Paradigm,04.01.2021,59.9873759
N,left,Distractor,0,12,12,12,1057.633916,1059.636077,left,1,2,0.731935172,F12E07,2022-09-02_11h59.41.925,t1_Paradigm,04.01.2021,59.9873759
Y,right,Target,0,13,13,13,1061.133972,1063.135974,right,1,2,0.752222033,F12E07,2022-09-02_11h59.41.925,t1_Paradigm,04.01.2021,59.9873759
Y,left,Lure,0,14,14,14,1064.633867,1066.634166,left,1,2,0.853804548,F12E07,2022-09-02_11h59.41.925,t1_Paradigm,04.01.2021,59.9873759
K,left,Distractor,0,15,15,15,1068.134192,1070.135357,left,1,2,0.585012784,F12E07,2022-09-02_11h59.41.925,t1_Paradigm,04.01.2021,59.9873759
T,left,Pretarget,0,16,16,16,1071.634003,1073.633326,left,1,2,0.670919322,F12E07,2022-09-02_11h59.41.925,t1_Paradigm,04.01.2021,59.9873759
J,left,Distractor,0,17,17,17,1075.1342,1077.136178,left,1,2,0.608093187,F12E07,2022-09-02_11h59.41.925,t1_Paradigm,04.01.2021,59.9873759
T,right,Target,0,18,18,18,1078.650719,1080.635075,right,1,2,0.740961892,F12E07,2022-09-02_11h59.41.925,t1_Paradigm,04.01.2021,59.9873759
S,left,Pretarget,0,19,19,19,1082.133981,1084.135885,left,1,2,0.952294214,F12E07,2022-09-02_11h59.41.925,t1_Paradigm,04.01.2021,59.9873759
R,left,Distractor,0,20,20,20,1085.633909,1087.634424,left,1,2,0.685785595,F12E07,2022-09-02_11h59.41.925,t1_Paradigm,04.01.2021,59.9873759
S,right,Target,0,21,21,21,1089.133774,1091.135054,right,1,2,0.54531838,F12E07,2022-09-02_11h59.41.925,t1_Paradigm,04.01.2021,59.9873759
Q,left,Distractor,0,22,22,22,1092.633909,1094.635983,left,1,2,0.852063878,F12E07,2022-09-02_11h59.41.925,t1_Paradigm,04.01.2021,59.9873759
D,left,Distractor,0,23,23,23,1096.133932,1098.136307,left,1,2,0.6799377,F12E07,2022-09-02_11h59.41.925,t1_Paradigm,04.01.2021,59.9873759
F,left,Distractor,0,24,24,24,1099.634046,1101.635852,left,1,2,0.636316041,F12E07,2022-09-02_11h59.41.925,t1_Paradigm,04.01.2021,59.9873759
Z,left,Distractor,0,25,25,25,1103.1341,1105.134901,left,1,2,0.801260109,F12E07,2022-09-02_11h59.41.925,t1_Paradigm,04.01.2021,59.9873759
P,left,Distractor,0,26,26,26,1106.633857,1108.635075,left,1,2,0.836900542,F12E07,2022-09-02_11h59.41.925,t1_Paradigm,04.01.2021,59.9873759
H,left,Distractor,0,27,27,27,1110.133999,1112.13584,left,1,2,1.016341962,F12E07,2022-09-02_11h59.41.925,t1_Paradigm,04.01.2021,59.9873759
Z,left,Pretarget,0,28,28,28,1113.634133,1115.63471,left,1,2,0.781418521,F12E07,2022-09-02_11h59.41.925,t1_Paradigm,04.01.2021,59.9873759
J,left,Pretarget,0,29,29,29,1117.133857,1119.135981,left,1,2,1.280277429,F12E07,2022-09-02_11h59.41.925,t1_Paradigm,04.01.2021,59.9873759
Z,right,Target,0,30,30,30,1120.634073,1122.634933,left,0,2,1.317219034,F12E07,2022-09-02_11h59.41.925,t1_Paradigm,04.01.2021,59.9873759
J,right,Target,0,31,31,31,1124.133942,1126.136159,right,1,2,0.487958065,F12E07,2022-09-02_11h59.41.925,t1_Paradigm,04.01.2021,59.9873759
V,left,Pretarget,0,32,32,32,1127.633989,1129.634788,left,1,2,0.749220612,F12E07,2022-09-02_11h59.41.925,t1_Paradigm,04.01.2021,59.9873759
Z,left,Lure,0,33,33,33,1131.13371,1133.135225,left,1,2,1.08904462,F12E07,2022-09-02_11h59.41.925,t1_Paradigm,04.01.2021,59.9873759
V,right,Target,0,34,34,34,1134.634118,1136.63624,right,1,2,1.219955152,F12E07,2022-09-02_11h59.41.925,t1_Paradigm,04.01.2021,59.9873759
X,left,Distractor,0,35,35,35,1138.133781,1140.134556,left,1,2,0.873706126,F12E07,2022-09-02_11h59.41.925,t1_Paradigm,04.01.2021,59.9873759
S,left,Distractor,0,36,36,36,1141.633795,1143.634723,None,0,2,,F12E07,2022-09-02_11h59.41.925,t1_Paradigm,04.01.2021,59.9873759
Q,left,Distractor,0,37,37,37,1145.134016,1147.13474,left,1,2,0.705498221,F12E07,2022-09-02_11h59.41.925,t1_Paradigm,04.01.2021,59.9873759
P,left,Distractor,0,38,38,38,1148.633749,1150.636012,left,1,2,0.835986578,F12E07,2022-09-02_11h59.41.925,t1_Paradigm,04.01.2021,59.9873759
S,left,Lure,0,39,39,39,1152.133741,1154.136043,left,1,2,0.9680459,F12E07,2022-09-02_11h59.41.925,t1_Paradigm,04.01.2021,59.9873759
K,left,Pretarget,0,40,40,40,1155.633806,1157.636442,left,1,2,0.699684973,F12E07,2022-09-02_11h59.41.925,t1_Paradigm,04.01.2021,59.9873759
L,left,Distractor,0,41,41,41,1159.133715,1161.135841,left,1,2,0.672426769,F12E07,2022-09-02_11h59.41.925,t1_Paradigm,04.01.2021,59.9873759
K,right,Target,0,42,42,42,1162.634105,1164.635928,right,1,2,0.500175479,F12E07,2022-09-02_11h59.41.925,t1_Paradigm,04.01.2021,59.9873759
B,left,Distractor,0,43,43,43,1166.133901,1168.146578,left,1,2,0.765519587,F12E07,2022-09-02_11h59.41.925,t1_Paradigm,04.01.2021,59.9873759
N,left,Distractor,0,44,44,44,1169.634141,1171.636359,left,1,2,0.811998627,F12E07,2022-09-02_11h59.41.925,t1_Paradigm,04.01.2021,59.9873759
S,left,Pretarget,0,45,45,45,1173.133715,1175.133973,left,1,2,0.738125684,F12E07,2022-09-02_11h59.41.925,t1_Paradigm,04.01.2021,59.9873759
Z,left,Distractor,0,46,46,46,1176.633954,1178.635763,left,1,2,0.564613322,F12E07,2022-09-02_11h59.41.925,t1_Paradigm,04.01.2021,59.9873759
S,right,Target,0,47,47,47,1180.133853,1182.135494,right,1,2,0.376883026,F12E07,2022-09-02_11h59.41.925,t1_Paradigm,04.01.2021,59.9873759
C,left,Distractor,0,48,48,48,1183.63392,1185.634952,left,1,2,0.669105188,F12E07,2022-09-02_11h59.41.925,t1_Paradigm,04.01.2021,59.9873759
T,left,Pretarget,0,49,49,49,1187.134014,1189.135084,left,1,2,0.865335126,F12E07,2022-09-02_11h59.41.925,t1_Paradigm,04.01.2021,59.9873759
S,left,Lure,0,50,50,50,1190.633771,1192.636122,left,1,2,0.66044322,F12E07,2022-09-02_11h59.41.925,t1_Paradigm,04.01.2021,59.9873759
T,right,Target,0,51,51,51,1194.134,1196.136411,right,1,2,0.535702668,F12E07,2022-09-02_11h59.41.925,t1_Paradigm,04.01.2021,59.9873759
N,left,Pretarget,0,52,52,52,1197.633938,1199.635423,left,1,2,0.620675031,F12E07,2022-09-02_11h59.41.925,t1_Paradigm,04.01.2021,59.9873759
B,left,Distractor,0,53,53,53,1201.134153,1203.135455,left,1,2,0.576629913,F12E07,2022-09-02_11h59.41.925,t1_Paradigm,04.01.2021,59.9873759
N,right,Target,0,54,54,54,1204.634102,1206.636325,right,1,2,0.403715205,F12E07,2022-09-02_11h59.41.925,t1_Paradigm,04.01.2021,59.9873759
N,left,Lure,0,55,55,55,1208.133812,1210.133749,left,1,2,1.050394747,F12E07,2022-09-02_11h59.41.925,t1_Paradigm,04.01.2021,59.9873759
X,left,Distractor,0,56,56,56,1211.633893,1213.634643,left,1,2,0.573558558,F12E07,2022-09-02_11h59.41.925,t1_Paradigm,04.01.2021,59.9873759
W,left,Distractor,0,57,57,57,1215.133638,1217.135583,left,1,2,0.544855784,F12E07,2022-09-02_11h59.41.925,t1_Paradigm,04.01.2021,59.9873759
S,left,Distractor,0,58,58,58,1218.63403,1220.63453,left,1,2,0.421553065,F12E07,2022-09-02_11h59.41.925,t1_Paradigm,04.01.2021,59.9873759
L,left,Distractor,0,59,59,59,1222.13417,1224.135408,left,1,2,0.584686208,F12E07,2022-09-02_11h59.41.925,t1_Paradigm,04.01.2021,59.9873759
K,left,Pretarget,0,60,60,60,1225.633886,1227.636064,left,1,2,0.491939535,F12E07,2022-09-02_11h59.41.925,t1_Paradigm,04.01.2021,59.9873759
V,left,Pretarget,0,61,61,61,1229.13372,1231.136093,left,1,2,0.528215155,F12E07,2022-09-02_11h59.41.925,t1_Paradigm,04.01.2021,59.9873759
K,right,Target,0,62,62,62,1232.633358,1234.635209,right,1,2,0.932736535,F12E07,2022-09-02_11h59.41.925,t1_Paradigm,04.01.2021,59.9873759
V,right,Target,0,63,63,63,1236.134008,1238.135764,right,1,2,0.664837883,F12E07,2022-09-02_11h59.41.925,t1_Paradigm,04.01.2021,59.9873759
R,left,Distractor,0,0,0,0,1317.140916,1319.135619,None,0,3,,F12E07,2022-09-02_11h59.41.925,t1_Paradigm,04.01.2021,59.9873759
P,left,Lure,0,1,1,1,1320.633626,1322.635903,None,0,3,,F12E07,2022-09-02_11h59.41.925,t1_Paradigm,04.01.2021,59.9873759
V,left,Distractor,0,2,2,2,1324.133718,1326.135816,None,0,3,,F12E07,2022-09-02_11h59.41.925,t1_Paradigm,04.01.2021,59.9873759
P,left,Pretarget,0,3,3,3,1327.633668,1329.635144,left,1,3,0.557004225,F12E07,2022-09-02_11h59.41.925,t1_Paradigm,04.01.2021,59.9873759
Z,left,Distractor,0,4,4,4,1331.133919,1333.136074,left,1,3,0.528083306,F12E07,2022-09-02_11h59.41.925,t1_Paradigm,04.01.2021,59.9873759
L,left,Pretarget,0,5,5,5,1334.633541,1336.634427,left,1,3,0.549485594,F12E07,2022-09-02_11h59.41.925,t1_Paradigm,04.01.2021,59.9873759
P,right,Target,0,6,6,6,1338.133661,1340.134232,right,1,3,0.505565269,F12E07,2022-09-02_11h59.41.925,t1_Paradigm,04.01.2021,59.9873759
S,left,Distractor,0,7,7,7,1341.63366,1343.635791,left,1,3,0.540279226,F12E07,2022-09-02_11h59.41.925,t1_Paradigm,04.01.2021,59.9873759
L,right,Target,0,8,8,8,1345.133862,1347.13556,right,1,3,0.464266535,F12E07,2022-09-02_11h59.41.925,t1_Paradigm,04.01.2021,59.9873759
D,left,Distractor,0,9,9,9,1348.633582,1350.63584,left,1,3,0.580503915,F12E07,2022-09-02_11h59.41.925,t1_Paradigm,04.01.2021,59.9873759
G,left,Distractor,0,10,10,10,1352.133562,1354.134643,left,1,3,0.985335831,F12E07,2022-09-02_11h59.41.925,t1_Paradigm,04.01.2021,59.9873759
M,left,Pretarget,0,11,11,11,1355.633888,1357.634743,left,1,3,0.509463652,F12E07,2022-09-02_11h59.41.925,t1_Paradigm,04.01.2021,59.9873759
Y,left,Distractor,0,12,12,12,1359.133864,1361.134338,left,1,3,0.673758738,F12E07,2022-09-02_11h59.41.925,t1_Paradigm,04.01.2021,59.9873759
V,left,Distractor,0,13,13,13,1362.63388,1364.635597,left,1,3,0.788308701,F12E07,2022-09-02_11h59.41.925,t1_Paradigm,04.01.2021,59.9873759
M,right,Target,0,14,14,14,1366.133858,1368.135005,right,1,3,0.424737664,F12E07,2022-09-02_11h59.41.925,t1_Paradigm,04.01.2021,59.9873759
S,left,Pretarget,0,15,15,15,1369.633923,1371.636185,left,1,3,0.651798896,F12E07,2022-09-02_11h59.41.925,t1_Paradigm,04.01.2021,59.9873759
Q,left,Distractor,0,16,16,16,1373.133622,1375.134547,left,1,3,0.593394371,F12E07,2022-09-02_11h59.41.925,t1_Paradigm,04.01.2021,59.9873759
R,left,Pretarget,0,17,17,17,1376.63383,1378.635607,left,1,3,0.948644131,F12E07,2022-09-02_11h59.41.925,t1_Paradigm,04.01.2021,59.9873759
S,right,Target,0,18,18,18,1380.133008,1382.135644,right,1,3,0.920349738,F12E07,2022-09-02_11h59.41.925,t1_Paradigm,04.01.2021,59.9873759
F,left,Distractor,0,19,19,19,1383.633965,1385.635946,left,1,3,0.796340294,F12E07,2022-09-02_11h59.41.925,t1_Paradigm,04.01.2021,59.9873759
R,right,Target,0,20,20,20,1387.133754,1389.135823,right,1,3,0.896277096,F12E07,2022-09-02_11h59.41.925,t1_Paradigm,04.01.2021,59.9873759
P,left,Distractor,0,21,21,21,1390.63364,1392.635582,left,1,3,0.628498744,F12E07,2022-09-02_11h59.41.925,t1_Paradigm,04.01.2021,59.9873759
L,left,Distractor,0,22,22,22,1394.133859,1396.13623,left,1,3,0.935744372,F12E07,2022-09-02_11h59.41.925,t1_Paradigm,04.01.2021,59.9873759
R,right,Target,0,23,23,23,1397.633741,1399.635169,right,1,3,0.684759351,F12E07,2022-09-02_11h59.41.925,t1_Paradigm,04.01.2021,59.9873759
H,left,Pretarget,0,24,24,24,1401.133842,1403.135733,left,1,3,0.544335764,F12E07,2022-09-02_11h59.41.925,t1_Paradigm,04.01.2021,59.9873759
G,left,Pretarget,0,25,25,25,1404.633521,1406.635937,left,1,3,0.484120313,F12E07,2022-09-02_11h59.41.925,t1_Paradigm,04.01.2021,59.9873759
T,left,Distractor,0,26,26,26,1408.133846,1410.135977,None,0,3,,F12E07,2022-09-02_11h59.41.925,t1_Paradigm,04.01.2021,59.9873759
H,right,Target,0,27,27,27,1411.63348,1413.63511,right,1,3,0.892682191,F12E07,2022-09-02_11h59.41.925,t1_Paradigm,04.01.2021,59.9873759
G,right,Target,0,28,28,28,1415.133497,1417.135886,left,0,3,0.832021789,F12E07,2022-09-02_11h59.41.925,t1_Paradigm,04.01.2021,59.9873759
D,left,Distractor,0,29,29,29,1418.632923,1420.635495,left,1,3,1.396407662,F12E07,2022-09-02_11h59.41.925,t1_Paradigm,04.01.2021,59.9873759
N,left,Pretarget,0,30,30,30,1422.133736,1424.133564,left,1,3,1.402343778,F12E07,2022-09-02_11h59.41.925,t1_Paradigm,04.01.2021,59.9873759
V,left,Distractor,0,31,31,31,1425.633758,1427.635079,left,1,3,1.21300017,F12E07,2022-09-02_11h59.41.925,t1_Paradigm,04.01.2021,59.9873759
R,left,Distractor,0,32,32,32,1429.133712,1431.134408,right,0,3,1.057660906,F12E07,2022-09-02_11h59.41.925,t1_Paradigm,04.01.2021,59.9873759
N,right,Target,0,33,33,33,1432.633691,1434.636196,right,1,3,1.219737648,F12E07,2022-09-02_11h59.41.925,t1_Paradigm,04.01.2021,59.9873759
Z,left,Distractor,0,34,34,34,1436.133675,1438.134722,left,1,3,0.937189584,F12E07,2022-09-02_11h59.41.925,t1_Paradigm,04.01.2021,59.9873759
N,left,Lure,0,35,35,35,1439.633792,1441.63459,None,0,3,,F12E07,2022-09-02_11h59.41.925,t1_Paradigm,04.01.2021,59.9873759
Y,left,Pretarget,0,36,36,36,1443.133696,1445.135873,left,1,3,0.704061992,F12E07,2022-09-02_11h59.41.925,t1_Paradigm,04.01.2021,59.9873759
Y,left,Lure,0,37,37,37,1446.633691,1448.633573,left,1,3,0.710439851,F12E07,2022-09-02_11h59.41.925,t1_Paradigm,04.01.2021,59.9873759
B,left,Distractor,0,38,38,38,1450.133807,1452.134511,left,1,3,0.473175841,F12E07,2022-09-02_11h59.41.925,t1_Paradigm,04.01.2021,59.9873759
Y,right,Target,0,39,39,39,1453.633653,1455.635169,right,1,3,0.588841874,F12E07,2022-09-02_11h59.41.925,t1_Paradigm,04.01.2021,59.9873759
J,left,Distractor,0,40,40,40,1457.133626,1459.135976,left,1,3,0.544033569,F12E07,2022-09-02_11h59.41.925,t1_Paradigm,04.01.2021,59.9873759
X,left,Distractor,0,41,41,41,1460.633395,1462.635021,left,1,3,0.661359429,F12E07,2022-09-02_11h59.41.925,t1_Paradigm,04.01.2021,59.9873759
W,left,Pretarget,0,42,42,42,1464.133597,1466.134315,left,1,3,0.537406125,F12E07,2022-09-02_11h59.41.925,t1_Paradigm,04.01.2021,59.9873759
S,left,Pretarget,0,43,43,43,1467.633335,1469.634494,left,1,3,0.685374648,F12E07,2022-09-02_11h59.41.925,t1_Paradigm,04.01.2021,59.9873759
R,left,Distractor,0,44,44,44,1471.133448,1473.134081,left,1,3,0.881943674,F12E07,2022-09-02_11h59.41.925,t1_Paradigm,04.01.2021,59.9873759
W,right,Target,0,45,45,45,1474.633601,1476.634126,right,1,3,0.533629968,F12E07,2022-09-02_11h59.41.925,t1_Paradigm,04.01.2021,59.9873759
S,right,Target,0,46,46,46,1478.133627,1480.135315,right,1,3,0.85667829,F12E07,2022-09-02_11h59.41.925,t1_Paradigm,04.01.2021,59.9873759
D,left,Distractor,0,47,47,47,1481.633625,1483.635554,left,1,3,0.908099282,F12E07,2022-09-02_11h59.41.925,t1_Paradigm,04.01.2021,59.9873759
T,left,Distractor,0,48,48,48,1485.133437,1487.135929,left,1,3,1.072081907,F12E07,2022-09-02_11h59.41.925,t1_Paradigm,04.01.2021,59.9873759
S,right,Target,0,49,49,49,1488.633649,1490.635038,right,1,3,0.804791495,F12E07,2022-09-02_11h59.41.925,t1_Paradigm,04.01.2021,59.9873759
K,left,Distractor,0,50,50,50,1492.133643,1494.135597,left,1,3,0.712460902,F12E07,2022-09-02_11h59.41.925,t1_Paradigm,04.01.2021,59.9873759
S,left,Lure,0,51,51,51,1495.650491,1497.634205,left,1,3,1.085608834,F12E07,2022-09-02_11h59.41.925,t1_Paradigm,04.01.2021,59.9873759
T,left,Pretarget,0,52,52,52,1499.133706,1501.133972,right,0,3,0.51400845,F12E07,2022-09-02_11h59.41.925,t1_Paradigm,04.01.2021,59.9873759
V,left,Distractor,0,53,53,53,1502.633592,1504.634242,left,1,3,0.725634626,F12E07,2022-09-02_11h59.41.925,t1_Paradigm,04.01.2021,59.9873759
B,left,Distractor,0,54,54,54,1506.133712,1508.13574,left,1,3,0.792303004,F12E07,2022-09-02_11h59.41.925,t1_Paradigm,04.01.2021,59.9873759
T,right,Target,0,55,55,55,1509.63371,1511.634162,right,1,3,0.781821769,F12E07,2022-09-02_11h59.41.925,t1_Paradigm,04.01.2021,59.9873759
Y,left,Pretarget,0,56,56,56,1513.132883,1515.135381,left,1,3,0.608433878,F12E07,2022-09-02_11h59.41.925,t1_Paradigm,04.01.2021,59.9873759
T,left,Lure,0,57,57,57,1516.633572,1518.635143,left,1,3,0.884660864,F12E07,2022-09-02_11h59.41.925,t1_Paradigm,04.01.2021,59.9873759
P,left,Pretarget,0,58,58,58,1520.133403,1522.135429,left,1,3,0.968468075,F12E07,2022-09-02_11h59.41.925,t1_Paradigm,04.01.2021,59.9873759
Y,right,Target,0,59,59,59,1523.633091,1525.634823,right,1,3,1.357121959,F12E07,2022-09-02_11h59.41.925,t1_Paradigm,04.01.2021,59.9873759
R,left,Distractor,0,60,60,60,1527.133722,1529.135777,left,1,3,1.232020506,F12E07,2022-09-02_11h59.41.925,t1_Paradigm,04.01.2021,59.9873759
P,right,Target,0,61,61,61,1530.633337,1532.63431,left,0,3,0.885470568,F12E07,2022-09-02_11h59.41.925,t1_Paradigm,04.01.2021,59.9873759
L,left,Distractor,0,62,62,62,1534.133756,1536.135514,left,1,3,0.744559363,F12E07,2022-09-02_11h59.41.925,t1_Paradigm,04.01.2021,59.9873759
V,left,Distractor,0,63,63,63,1537.633658,1539.634236,left,1,3,0.861902868,F12E07,2022-09-02_11h59.41.925,t1_Paradigm,04.01.2021,59.9873759
H,left,Lure,0,0,0,0,1552.478406,1554.467596,None,0,3,,F12E07,2022-09-02_11h59.41.925,t1_Paradigm,04.01.2021,59.9873759
B,left,Distractor,0,1,1,1,1555.966676,1557.967863,None,0,3,,F12E07,2022-09-02_11h59.41.925,t1_Paradigm,04.01.2021,59.9873759
T,left,Distractor,0,2,2,2,1559.466095,1561.467652,None,0,3,,F12E07,2022-09-02_11h59.41.925,t1_Paradigm,04.01.2021,59.9873759
R,left,Distractor,0,3,3,3,1562.966768,1564.968821,left,1,3,0.470941136,F12E07,2022-09-02_11h59.41.925,t1_Paradigm,04.01.2021,59.9873759
H,left,Pretarget,0,4,4,4,1566.467007,1568.468672,left,1,3,0.475073704,F12E07,2022-09-02_11h59.41.925,t1_Paradigm,04.01.2021,59.9873759
K,left,Distractor,0,5,5,5,1569.966743,1571.967492,left,1,3,0.704160478,F12E07,2022-09-02_11h59.41.925,t1_Paradigm,04.01.2021,59.9873759
G,left,Distractor,0,6,6,6,1573.466524,1575.468788,left,1,3,0.851040841,F12E07,2022-09-02_11h59.41.925,t1_Paradigm,04.01.2021,59.9873759
H,right,Target,0,7,7,7,1576.9668,1578.985286,right,1,3,0.486429444,F12E07,2022-09-02_11h59.41.925,t1_Paradigm,04.01.2021,59.9873759
Y,left,Pretarget,0,8,8,8,1580.46702,1582.466843,left,1,3,0.636910808,F12E07,2022-09-02_11h59.41.925,t1_Paradigm,04.01.2021,59.9873759
S,left,Distractor,0,9,9,9,1583.96682,1585.967795,left,1,3,0.896224805,F12E07,2022-09-02_11h59.41.925,t1_Paradigm,04.01.2021,59.9873759
P,left,Distractor,0,10,10,10,1587.467032,1589.467494,left,1,3,0.948254678,F12E07,2022-09-02_11h59.41.925,t1_Paradigm,04.01.2021,59.9873759
Y,right,Target,0,11,11,11,1590.966781,1592.96832,right,1,3,0.775481122,F12E07,2022-09-02_11h59.41.925,t1_Paradigm,04.01.2021,59.9873759
H,left,Lure,0,12,12,12,1594.466953,1596.469094,left,1,3,1.130576256,F12E07,2022-09-02_11h59.41.925,t1_Paradigm,04.01.2021,59.9873759
Q,left,Distractor,0,13,13,13,1597.966933,1599.96733,left,1,3,0.976352741,F12E07,2022-09-02_11h59.41.925,t1_Paradigm,04.01.2021,59.9873759
V,left,Pretarget,0,14,14,14,1601.466044,1603.46777,left,1,3,0.756115604,F12E07,2022-09-02_11h59.41.925,t1_Paradigm,04.01.2021,59.9873759
G,left,Distractor,0,15,15,15,1604.96699,1606.969131,left,1,3,0.902656559,F12E07,2022-09-02_11h59.41.925,t1_Paradigm,04.01.2021,59.9873759
Z,left,Pretarget,0,16,16,16,1608.46675,1610.467935,left,1,3,0.651869151,F12E07,2022-09-02_11h59.41.925,t1_Paradigm,04.01.2021,59.9873759
V,right,Target,0,17,17,17,1611.966671,1613.968825,left,0,3,0.782946179,F12E07,2022-09-02_11h59.41.925,t1_Paradigm,04.01.2021,59.9873759
N,left,Distractor,0,18,18,18,1615.466583,1617.46913,left,1,3,0.994907272,F12E07,2022-09-02_11h59.41.925,t1_Paradigm,04.01.2021,59.9873759
Z,right,Target,0,19,19,19,1618.966965,1620.967414,right,1,3,0.824393765,F12E07,2022-09-02_11h59.41.925,t1_Paradigm,04.01.2021,59.9873759
R,left,Distractor,0,20,20,20,1622.466652,1624.467637,left,1,3,1.148217786,F12E07,2022-09-02_11h59.41.925,t1_Paradigm,04.01.2021,59.9873759
P,left,Distractor,0,21,21,21,1625.966851,1627.966762,left,1,3,0.800988711,F12E07,2022-09-02_11h59.41.925,t1_Paradigm,04.01.2021,59.9873759
Z,right,Target,0,22,22,22,1629.467028,1631.46893,right,1,3,0.642672407,F12E07,2022-09-02_11h59.41.925,t1_Paradigm,04.01.2021,59.9873759
D,left,Pretarget,0,23,23,23,1632.966731,1634.967127,left,1,3,0.648733314,F12E07,2022-09-02_11h59.41.925,t1_Paradigm,04.01.2021,59.9873759
K,left,Distractor,0,24,24,24,1636.466751,1638.468819,left,1,3,1.018801228,F12E07,2022-09-02_11h59.41.925,t1_Paradigm,04.01.2021,59.9873759
W,left,Distractor,0,25,25,25,1639.966915,1641.969149,left,1,3,0.862786676,F12E07,2022-09-02_11h59.41.925,t1_Paradigm,04.01.2021,59.9873759
D,right,Target,0,26,26,26,1643.467034,1645.467167,left,0,3,1.18837222,F12E07,2022-09-02_11h59.41.925,t1_Paradigm,04.01.2021,59.9873759
G,left,Pretarget,0,27,27,27,1646.966945,1648.967718,left,1,3,0.952258284,F12E07,2022-09-02_11h59.41.925,t1_Paradigm,04.01.2021,59.9873759
V,left,Distractor,0,28,28,28,1650.466716,1652.467324,left,1,3,1.116867435,F12E07,2022-09-02_11h59.41.925,t1_Paradigm,04.01.2021,59.9873759
D,right,Target,0,29,29,29,1653.966967,1655.967145,right,1,3,0.752461031,F12E07,2022-09-02_11h59.41.925,t1_Paradigm,04.01.2021,59.9873759
G,right,Target,0,30,30,30,1657.466653,1659.4676,right,1,3,0.708127512,F12E07,2022-09-02_11h59.41.925,t1_Paradigm,04.01.2021,59.9873759
B,left,Pretarget,0,31,31,31,1660.966775,1662.969189,left,1,3,0.918518281,F12E07,2022-09-02_11h59.41.925,t1_Paradigm,04.01.2021,59.9873759
N,left,Distractor,0,32,32,32,1664.466693,1666.467426,left,1,3,0.988225293,F12E07,2022-09-02_11h59.41.925,t1_Paradigm,04.01.2021,59.9873759
F,left,Distractor,0,33,33,33,1667.96682,1669.967945,left,1,3,1.167722853,F12E07,2022-09-02_11h59.41.925,t1_Paradigm,04.01.2021,59.9873759
B,right,Target,0,34,34,34,1671.466653,1673.467418,right,1,3,0.756395664,F12E07,2022-09-02_11h59.41.925,t1_Paradigm,04.01.2021,59.9873759
Q,left,Pretarget,0,35,35,35,1674.966714,1676.968053,left,1,3,0.647801385,F12E07,2022-09-02_11h59.41.925,t1_Paradigm,04.01.2021,59.9873759
S,left,Pretarget,0,36,36,36,1678.466721,1680.467308,left,1,3,1.004322483,F12E07,2022-09-02_11h59.41.925,t1_Paradigm,04.01.2021,59.9873759
W,left,Distractor,0,37,37,37,1681.966626,1683.969142,left,1,3,0.84675108,F12E07,2022-09-02_11h59.41.925,t1_Paradigm,04.01.2021,59.9873759
Q,right,Target,0,38,38,38,1685.466407,1687.467412,right,1,3,0.548410588,F12E07,2022-09-02_11h59.41.925,t1_Paradigm,04.01.2021,59.9873759
S,right,Target,0,39,39,39,1688.966922,1690.967519,right,1,3,0.616504288,F12E07,2022-09-02_11h59.41.925,t1_Paradigm,04.01.2021,59.9873759
T,left,Distractor,0,40,40,40,1692.466967,1694.467113,left,1,3,1.148720161,F12E07,2022-09-02_11h59.41.925,t1_Paradigm,04.01.2021,59.9873759
G,left,Distractor,0,41,41,41,1695.966422,1697.968336,left,1,3,0.639184009,F12E07,2022-09-02_11h59.41.925,t1_Paradigm,04.01.2021,59.9873759
D,left,Distractor,0,42,42,42,1699.466915,1701.467465,left,1,3,0.532424716,F12E07,2022-09-02_11h59.41.925,t1_Paradigm,04.01.2021,59.9873759
S,left,Lure,0,43,43,43,1702.966642,1704.968816,left,1,3,0.679070252,F12E07,2022-09-02_11h59.41.925,t1_Paradigm,04.01.2021,59.9873759
Z,left,Pretarget,0,44,44,44,1706.466623,1708.467795,left,1,3,0.732086591,F12E07,2022-09-02_11h59.41.925,t1_Paradigm,04.01.2021,59.9873759
J,left,Distractor,0,45,45,45,1709.966742,1711.969119,right,0,3,0.574480542,F12E07,2022-09-02_11h59.41.925,t1_Paradigm,04.01.2021,59.9873759
M,left,Pretarget,0,46,46,46,1713.466787,1715.468629,left,1,3,0.531099484,F12E07,2022-09-02_11h59.41.925,t1_Paradigm,04.01.2021,59.9873759
Z,right,Target,0,47,47,47,1716.966973,1718.967921,left,0,3,0.519700115,F12E07,2022-09-02_11h59.41.925,t1_Paradigm,04.01.2021,59.9873759
P,left,Distractor,0,48,48,48,1720.466619,1722.468924,left,1,3,0.65086023,F12E07,2022-09-02_11h59.41.925,t1_Paradigm,04.01.2021,59.9873759
M,right,Target,0,49,49,49,1723.966423,1725.967386,right,1,3,0.720197357,F12E07,2022-09-02_11h59.41.925,t1_Paradigm,04.01.2021,59.9873759
K,left,Distractor,0,50,50,50,1727.466611,1729.469357,left,1,3,0.514330214,F12E07,2022-09-02_11h59.41.925,t1_Paradigm,04.01.2021,59.9873759
Y,left,Distractor,0,51,51,51,1730.966731,1732.967846,left,1,3,0.647843731,F12E07,2022-09-02_11h59.41.925,t1_Paradigm,04.01.2021,59.9873759
X,left,Distractor,0,52,52,52,1734.466776,1736.467439,left,1,3,0.652176479,F12E07,2022-09-02_11h59.41.925,t1_Paradigm,04.01.2021,59.9873759
F,left,Pretarget,0,53,53,53,1737.966638,1739.967657,left,1,3,0.89624277,F12E07,2022-09-02_11h59.41.925,t1_Paradigm,04.01.2021,59.9873759
M,left,Lure,0,54,54,54,1741.466736,1743.468935,left,1,3,0.866730613,F12E07,2022-09-02_11h59.41.925,t1_Paradigm,04.01.2021,59.9873759
V,left,Distractor,0,55,55,55,1744.966421,1746.968456,left,1,3,0.90322117,F12E07,2022-09-02_11h59.41.925,t1_Paradigm,04.01.2021,59.9873759
F,right,Target,0,56,56,56,1748.46693,1750.466998,right,1,3,0.620632364,F12E07,2022-09-02_11h59.41.925,t1_Paradigm,04.01.2021,59.9873759
S,left,Distractor,0,57,57,57,1751.966894,1753.966163,left,1,3,0.785478588,F12E07,2022-09-02_11h59.41.925,t1_Paradigm,04.01.2021,59.9873759
D,left,Distractor,0,58,58,58,1755.466681,1757.467571,left,1,3,0.868079905,F12E07,2022-09-02_11h59.41.925,t1_Paradigm,04.01.2021,59.9873759
F,right,Target,0,59,59,59,1758.966671,1760.966694,right,1,3,0.71307203,F12E07,2022-09-02_11h59.41.925,t1_Paradigm,04.01.2021,59.9873759
V,left,Pretarget,0,60,60,60,1762.466952,1764.46871,left,1,3,1.163134426,F12E07,2022-09-02_11h59.41.925,t1_Paradigm,04.01.2021,59.9873759
J,left,Distractor,0,61,61,61,1765.966801,1767.967224,left,1,3,0.832837267,F12E07,2022-09-02_11h59.41.925,t1_Paradigm,04.01.2021,59.9873759
V,left,Lure,0,62,62,62,1769.466883,1771.466818,left,1,3,1.029007856,F12E07,2022-09-02_11h59.41.925,t1_Paradigm,04.01.2021,59.9873759
V,right,Target,0,63,63,63,1772.966803,1774.966557,right,1,3,0.92105486,F12E07,2022-09-02_11h59.41.925,t1_Paradigm,04.01.2021,59.9873759
R,left,Distractor,0,0,0,0,1857.910722,1859.901843,None,0,4,,F12E07,2022-09-02_11h59.41.925,t1_Paradigm,04.01.2021,59.9873759
F,left,Distractor,0,1,1,1,1861.400109,1863.402368,None,0,4,,F12E07,2022-09-02_11h59.41.925,t1_Paradigm,04.01.2021,59.9873759
P,left,Pretarget,0,2,2,2,1864.899766,1866.899221,None,0,4,,F12E07,2022-09-02_11h59.41.925,t1_Paradigm,04.01.2021,59.9873759
H,left,Distractor,0,3,3,3,1868.40026,1870.399624,None,0,4,,F12E07,2022-09-02_11h59.41.925,t1_Paradigm,04.01.2021,59.9873759
Z,left,Distractor,0,4,4,4,1871.899809,1873.902313,left,1,4,0.481148727,F12E07,2022-09-02_11h59.41.925,t1_Paradigm,04.01.2021,59.9873759
T,left,Distractor,0,5,5,5,1875.399915,1877.401843,left,1,4,0.598032202,F12E07,2022-09-02_11h59.41.925,t1_Paradigm,04.01.2021,59.9873759
P,right,Target,0,6,6,6,1878.900003,1880.900255,right,1,4,0.747532874,F12E07,2022-09-02_11h59.41.925,t1_Paradigm,04.01.2021,59.9873759
G,left,Distractor,0,7,7,7,1882.39996,1884.40232,left,1,4,0.813475277,F12E07,2022-09-02_11h59.41.925,t1_Paradigm,04.01.2021,59.9873759
L,left,Distractor,0,8,8,8,1885.899489,1887.89929,left,1,4,0.72420385,F12E07,2022-09-02_11h59.41.925,t1_Paradigm,04.01.2021,59.9873759
P,left,Lure,0,9,9,9,1889.40008,1891.400746,left,1,4,0.726931628,F12E07,2022-09-02_11h59.41.925,t1_Paradigm,04.01.2021,59.9873759
Q,left,Pretarget,0,10,10,10,1892.900012,1894.900856,left,1,4,0.682780966,F12E07,2022-09-02_11h59.41.925,t1_Paradigm,04.01.2021,59.9873759
D,left,Distractor,0,11,11,11,1896.400067,1898.40197,left,1,4,0.669615904,F12E07,2022-09-02_11h59.41.925,t1_Paradigm,04.01.2021,59.9873759
M,left,Pretarget,0,12,12,12,1899.899725,1901.902029,left,1,4,0.657426079,F12E07,2022-09-02_11h59.41.925,t1_Paradigm,04.01.2021,59.9873759
C,left,Distractor,0,13,13,13,1903.399749,1905.399843,left,1,4,0.631675644,F12E07,2022-09-02_11h59.41.925,t1_Paradigm,04.01.2021,59.9873759
Q,right,Target,0,14,14,14,1906.899991,1908.902128,right,1,4,0.681572506,F12E07,2022-09-02_11h59.41.925,t1_Paradigm,04.01.2021,59.9873759
R,left,Distractor,0,15,15,15,1910.399916,1912.402159,left,1,4,0.82959749,F12E07,2022-09-02_11h59.41.925,t1_Paradigm,04.01.2021,59.9873759
M,right,Target,0,16,16,16,1913.899791,1915.90125,right,1,4,1.202532409,F12E07,2022-09-02_11h59.41.925,t1_Paradigm,04.01.2021,59.9873759
S,left,Distractor,0,17,17,17,1917.39902,1919.399071,left,1,4,0.952514284,F12E07,2022-09-02_11h59.41.925,t1_Paradigm,04.01.2021,59.9873759
Z,left,Distractor,0,18,18,18,1920.899897,1922.900777,left,1,4,0.50657804,F12E07,2022-09-02_11h59.41.925,t1_Paradigm,04.01.2021,59.9873759
L,left,Pretarget,0,19,19,19,1924.399987,1926.401709,left,1,4,0.557941287,F12E07,2022-09-02_11h59.41.925,t1_Paradigm,04.01.2021,59.9873759
M,right,Target,0,20,20,20,1927.900197,1929.902152,right,1,4,0.545639823,F12E07,2022-09-02_11h59.41.925,t1_Paradigm,04.01.2021,59.9873759
P,left,Distractor,0,21,21,21,1931.399978,1933.401462,left,1,4,0.502093873,F12E07,2022-09-02_11h59.41.925,t1_Paradigm,04.01.2021,59.9873759
F,left,Distractor,0,22,22,22,1934.900036,1936.90204,left,1,4,0.937603098,F12E07,2022-09-02_11h59.41.925,t1_Paradigm,04.01.2021,59.9873759
L,right,Target,0,23,23,23,1938.399751,1940.402076,right,1,4,0.653502995,F12E07,2022-09-02_11h59.41.925,t1_Paradigm,04.01.2021,59.9873759
L,left,Lure,0,24,24,24,1941.900003,1943.89999,left,1,4,1.123493595,F12E07,2022-09-02_11h59.41.925,t1_Paradigm,04.01.2021,59.9873759
V,left,Pretarget,0,25,25,25,1945.39999,1947.401856,left,1,4,0.741776408,F12E07,2022-09-02_11h59.41.925,t1_Paradigm,04.01.2021,59.9873759
Z,left,Distractor,0,26,26,26,1948.899266,1950.898998,left,1,4,0.908701427,F12E07,2022-09-02_11h59.41.925,t1_Paradigm,04.01.2021,59.9873759
H,left,Distractor,0,27,27,27,1952.400051,1954.401779,left,1,4,0.9900128,F12E07,2022-09-02_11h59.41.925,t1_Paradigm,04.01.2021,59.9873759
X,left,Distractor,0,28,28,28,1955.900033,1957.902121,left,1,4,0.721357376,F12E07,2022-09-02_11h59.41.925,t1_Paradigm,04.01.2021,59.9873759
V,right,Target,0,29,29,29,1959.399936,1961.401628,left,0,4,0.517945329,F12E07,2022-09-02_11h59.41.925,t1_Paradigm,04.01.2021,59.9873759
C,left,Distractor,0,30,30,30,1962.899637,1964.901608,left,1,4,1.081905177,F12E07,2022-09-02_11h59.41.925,t1_Paradigm,04.01.2021,59.9873759
S,left,Pretarget,0,31,31,31,1966.399851,1968.400965,left,1,4,0.8147649,F12E07,2022-09-02_11h59.41.925,t1_Paradigm,04.01.2021,59.9873759
D,left,Distractor,0,32,32,32,1969.899819,1971.901742,left,1,4,0.657660585,F12E07,2022-09-02_11h59.41.925,t1_Paradigm,04.01.2021,59.9873759
V,left,Distractor,0,33,33,33,1973.400046,1975.400951,right,0,4,1.462834797,F12E07,2022-09-02_11h59.41.925,t1_Paradigm,04.01.2021,59.9873759
R,left,Distractor,0,34,34,34,1976.899961,1978.902237,left,1,4,1.06528508,F12E07,2022-09-02_11h59.41.925,t1_Paradigm,04.01.2021,59.9873759
S,right,Target,0,35,35,35,1980.400008,1982.40202,left,0,4,0.637566526,F12E07,2022-09-02_11h59.41.925,t1_Paradigm,04.01.2021,59.9873759
Y,left,Distractor,0,36,36,36,1983.899438,1985.900313,left,1,4,0.739076219,F12E07,2022-09-02_11h59.41.925,t1_Paradigm,04.01.2021,59.9873759
N,left,Pretarget,0,37,37,37,1987.399813,1989.401776,left,1,4,0.837855569,F12E07,2022-09-02_11h59.41.925,t1_Paradigm,04.01.2021,59.9873759
Z,left,Pretarget,0,38,38,38,1990.899779,1992.90196,left,1,4,0.777767156,F12E07,2022-09-02_11h59.41.925,t1_Paradigm,04.01.2021,59.9873759
P,left,Pretarget,0,39,39,39,1994.399689,1996.401577,left,1,4,0.59006092,F12E07,2022-09-02_11h59.41.925,t1_Paradigm,04.01.2021,59.9873759
M,left,Distractor,0,40,40,40,1997.899733,1999.902019,left,1,4,1.105671133,F12E07,2022-09-02_11h59.41.925,t1_Paradigm,04.01.2021,59.9873759
N,right,Target,0,41,41,41,2001.399813,2003.402053,right,1,4,0.485337756,F12E07,2022-09-02_11h59.41.925,t1_Paradigm,04.01.2021,59.9873759
Z,right,Target,0,42,42,42,2004.899822,2006.90049,right,1,4,0.634854789,F12E07,2022-09-02_11h59.41.925,t1_Paradigm,04.01.2021,59.9873759
P,right,Target,0,43,43,43,2008.399944,2010.401779,left,0,4,1.069545007,F12E07,2022-09-02_11h59.41.925,t1_Paradigm,04.01.2021,59.9873759
X,left,Pretarget,0,44,44,44,2011.899135,2013.900976,left,1,4,0.995038159,F12E07,2022-09-02_11h59.41.925,t1_Paradigm,04.01.2021,59.9873759
Z,left,Lure,0,45,45,45,2015.399709,2017.401728,left,1,4,0.821935461,F12E07,2022-09-02_11h59.41.925,t1_Paradigm,04.01.2021,59.9873759
R,left,Pretarget,0,46,46,46,2018.899524,2020.899001,left,1,4,0.700817082,F12E07,2022-09-02_11h59.41.925,t1_Paradigm,04.01.2021,59.9873759
K,left,Distractor,0,47,47,47,2022.399548,2024.412588,left,1,4,1.13874836,F12E07,2022-09-02_11h59.41.925,t1_Paradigm,04.01.2021,59.9873759
X,right,Target,0,48,48,48,2025.89995,2027.900918,right,1,4,0.915065812,F12E07,2022-09-02_11h59.41.925,t1_Paradigm,04.01.2021,59.9873759
B,left,Distractor,0,49,49,49,2029.39891,2031.401771,left,1,4,0.48569545,F12E07,2022-09-02_11h59.41.925,t1_Paradigm,04.01.2021,59.9873759
R,right,Target,0,50,50,50,2032.89962,2034.912556,left,0,4,0.478723145,F12E07,2022-09-02_11h59.41.925,t1_Paradigm,04.01.2021,59.9873759
Y,left,Pretarget,0,51,51,51,2036.399714,2038.401625,left,1,4,0.445972494,F12E07,2022-09-02_11h59.41.925,t1_Paradigm,04.01.2021,59.9873759
W,left,Pretarget,0,52,52,52,2039.899937,2041.901603,left,1,4,0.70572599,F12E07,2022-09-02_11h59.41.925,t1_Paradigm,04.01.2021,59.9873759
Z,left,Distractor,0,53,53,53,2043.399502,2045.400145,left,1,4,1.1271286,F12E07,2022-09-02_11h59.41.925,t1_Paradigm,04.01.2021,59.9873759
Q,left,Distractor,0,54,54,54,2046.899846,2048.901906,left,1,4,0.825444711,F12E07,2022-09-02_11h59.41.925,t1_Paradigm,04.01.2021,59.9873759
Y,right,Target,0,55,55,55,2050.399841,2052.401842,right,1,4,1.06952608,F12E07,2022-09-02_11h59.41.925,t1_Paradigm,04.01.2021,59.9873759
W,right,Target,0,56,56,56,2053.899113,2055.902147,left,0,4,0.673246738,F12E07,2022-09-02_11h59.41.925,t1_Paradigm,04.01.2021,59.9873759
H,left,Pretarget,0,57,57,57,2057.399851,2059.401521,left,1,4,0.534033537,F12E07,2022-09-02_11h59.41.925,t1_Paradigm,04.01.2021,59.9873759
M,left,Distractor,0,58,58,58,2060.899709,2062.902026,left,1,4,0.521324013,F12E07,2022-09-02_11h59.41.925,t1_Paradigm,04.01.2021,59.9873759
R,left,Pretarget,0,59,59,59,2064.399912,2066.399388,left,1,4,0.51200376,F12E07,2022-09-02_11h59.41.925,t1_Paradigm,04.01.2021,59.9873759
J,left,Distractor,0,60,60,60,2067.899792,2069.900482,left,1,4,0.466892297,F12E07,2022-09-02_11h59.41.925,t1_Paradigm,04.01.2021,59.9873759
H,right,Target,0,61,61,61,2071.40002,2073.399936,right,1,4,0.711818657,F12E07,2022-09-02_11h59.41.925,t1_Paradigm,04.01.2021,59.9873759
Z,left,Distractor,0,62,62,62,2074.900152,2076.89959,left,1,4,0.859540804,F12E07,2022-09-02_11h59.41.925,t1_Paradigm,04.01.2021,59.9873759
R,right,Target,0,63,63,63,2078.39955,2080.399601,right,1,4,0.800166175,F12E07,2022-09-02_11h59.41.925,t1_Paradigm,04.01.2021,59.9873759
J,left,Pretarget,0,0,0,0,2094.178087,2096.150832,None,0,4,,F12E07,2022-09-02_11h59.41.925,t1_Paradigm,04.01.2021,59.9873759
G,left,Pretarget,0,1,1,1,2097.649581,2099.652041,None,0,4,,F12E07,2022-09-02_11h59.41.925,t1_Paradigm,04.01.2021,59.9873759
Z,left,Distractor,0,2,2,2,2101.149883,2103.150337,None,0,4,,F12E07,2022-09-02_11h59.41.925,t1_Paradigm,04.01.2021,59.9873759
F,left,Distractor,0,3,3,3,2104.649679,2106.650211,None,0,4,,F12E07,2022-09-02_11h59.41.925,t1_Paradigm,04.01.2021,59.9873759
J,right,Target,0,4,4,4,2108.135037,2110.151734,right,1,4,0.535531681,F12E07,2022-09-02_11h59.41.925,t1_Paradigm,04.01.2021,59.9873759
G,right,Target,0,5,5,5,2111.649832,2113.650483,right,1,4,0.684877406,F12E07,2022-09-02_11h59.41.925,t1_Paradigm,04.01.2021,59.9873759
H,left,Distractor,0,6,6,6,2115.1497,2117.149154,left,1,4,0.70632621,F12E07,2022-09-02_11h59.41.925,t1_Paradigm,04.01.2021,59.9873759
P,left,Distractor,0,7,7,7,2118.649277,2120.650811,left,1,4,0.980727193,F12E07,2022-09-02_11h59.41.925,t1_Paradigm,04.01.2021,59.9873759
G,left,Lure,0,8,8,8,2122.149889,2124.14986,left,1,4,1.017434613,F12E07,2022-09-02_11h59.41.925,t1_Paradigm,04.01.2021,59.9873759
S,left,Distractor,0,9,9,9,2125.649608,2127.649743,left,1,4,0.653558814,F12E07,2022-09-02_11h59.41.925,t1_Paradigm,04.01.2021,59.9873759
R,left,Pretarget,0,10,10,10,2129.149368,2131.151227,left,1,4,1.136213064,F12E07,2022-09-02_11h59.41.925,t1_Paradigm,04.01.2021,59.9873759
T,left,Pretarget,0,11,11,11,2132.649829,2134.651877,left,1,4,0.691805119,F12E07,2022-09-02_11h59.41.925,t1_Paradigm,04.01.2021,59.9873759
X,left,Distractor,0,12,12,12,2136.149774,2138.152014,left,1,4,0.471198098,F12E07,2022-09-02_11h59.41.925,t1_Paradigm,04.01.2021,59.9873759
F,left,Pretarget,0,13,13,13,2139.649578,2141.65044,left,1,4,0.397056965,F12E07,2022-09-02_11h59.41.925,t1_Paradigm,04.01.2021,59.9873759
R,right,Target,0,14,14,14,2143.149778,2145.150273,left,0,4,0.497304945,F12E07,2022-09-02_11h59.41.925,t1_Paradigm,04.01.2021,59.9873759
T,right,Target,0,15,15,15,2146.649896,2148.650333,right,1,4,0.532971362,F12E07,2022-09-02_11h59.41.925,t1_Paradigm,04.01.2021,59.9873759
C,left,Distractor,0,16,16,16,2150.149479,2152.151107,left,1,4,0.55219252,F12E07,2022-09-02_11h59.41.925,t1_Paradigm,04.01.2021,59.9873759
F,right,Target,0,17,17,17,2153.649732,2155.650107,right,1,4,0.717219355,F12E07,2022-09-02_11h59.41.925,t1_Paradigm,04.01.2021,59.9873759
M,left,Distractor,0,18,18,18,2157.149821,2159.15021,left,1,4,0.609075481,F12E07,2022-09-02_11h59.41.925,t1_Paradigm,04.01.2021,59.9873759
N,left,Distractor,0,19,19,19,2160.649868,2162.652244,left,1,4,0.707243703,F12E07,2022-09-02_11h59.41.925,t1_Paradigm,04.01.2021,59.9873759
R,left,Lure,0,20,20,20,2164.149847,2166.151707,left,1,4,0.871717797,F12E07,2022-09-02_11h59.41.925,t1_Paradigm,04.01.2021,59.9873759
F,right,Target,0,21,21,21,2167.649572,2169.650971,right,1,4,0.828610062,F12E07,2022-09-02_11h59.41.925,t1_Paradigm,04.01.2021,59.9873759
P,left,Distractor,0,22,22,22,2171.14952,2173.150317,left,1,4,0.753082103,F12E07,2022-09-02_11h59.41.925,t1_Paradigm,04.01.2021,59.9873759
L,left,Pretarget,0,23,23,23,2174.649464,2176.650272,left,1,4,0.613174045,F12E07,2022-09-02_11h59.41.925,t1_Paradigm,04.01.2021,59.9873759
T,left,Distractor,0,24,24,24,2178.149711,2180.151546,left,1,4,0.567763595,F12E07,2022-09-02_11h59.41.925,t1_Paradigm,04.01.2021,59.9873759
F,left,Distractor,0,25,25,25,2181.64984,2183.650003,left,1,4,0.685278408,F12E07,2022-09-02_11h59.41.925,t1_Paradigm,04.01.2021,59.9873759
V,left,Distractor,0,26,26,26,2185.149764,2187.15038,left,1,4,0.833107382,F12E07,2022-09-02_11h59.41.925,t1_Paradigm,04.01.2021,59.9873759
L,right,Target,0,27,27,27,2188.649747,2190.651601,right,1,4,0.771596534,F12E07,2022-09-02_11h59.41.925,t1_Paradigm,04.01.2021,59.9873759
S,left,Pretarget,0,28,28,28,2192.149558,2194.150427,left,1,4,1.032881217,F12E07,2022-09-02_11h59.41.925,t1_Paradigm,04.01.2021,59.9873759
W,left,Distractor,0,29,29,29,2195.649475,2197.651678,left,1,4,0.699629795,F12E07,2022-09-02_11h59.41.925,t1_Paradigm,04.01.2021,59.9873759
Q,left,Distractor,0,30,30,30,2199.149411,2201.150236,left,1,4,0.945373237,F12E07,2022-09-02_11h59.41.925,t1_Paradigm,04.01.2021,59.9873759
L,right,Target,0,31,31,31,2202.6495,2204.65015,right,1,4,0.597329646,F12E07,2022-09-02_11h59.41.925,t1_Paradigm,04.01.2021,59.9873759
S,right,Target,0,32,32,32,2206.149549,2208.15058,right,1,4,0.440615105,F12E07,2022-09-02_11h59.41.925,t1_Paradigm,04.01.2021,59.9873759
Z,left,Pretarget,0,33,33,33,2209.649475,2211.651863,left,1,4,0.683431552,F12E07,2022-09-02_11h59.41.925,t1_Paradigm,04.01.2021,59.9873759
F,left,Distractor,0,34,34,34,2213.149759,2215.150413,left,1,4,0.656806932,F12E07,2022-09-02_11h59.41.925,t1_Paradigm,04.01.2021,59.9873759
V,left,Distractor,0,35,35,35,2216.64962,2218.651826,left,1,4,0.803454072,F12E07,2022-09-02_11h59.41.925,t1_Paradigm,04.01.2021,59.9873759
M,left,Distractor,0,36,36,36,2220.149512,2222.151917,left,1,4,0.471288244,F12E07,2022-09-02_11h59.41.925,t1_Paradigm,04.01.2021,59.9873759
Z,right,Target,0,37,37,37,2223.64978,2225.651518,left,0,4,0.491851956,F12E07,2022-09-02_11h59.41.925,t1_Paradigm,04.01.2021,59.9873759
H,left,Pretarget,0,38,38,38,2227.149559,2229.150215,left,1,4,0.625022857,F12E07,2022-09-02_11h59.41.925,t1_Paradigm,04.01.2021,59.9873759
L,left,Distractor,0,39,39,39,2230.649689,2232.651924,left,1,4,0.467366763,F12E07,2022-09-02_11h59.41.925,t1_Paradigm,04.01.2021,59.9873759
G,left,Distractor,0,40,40,40,2234.149373,2236.151758,left,1,4,1.223645976,F12E07,2022-09-02_11h59.41.925,t1_Paradigm,04.01.2021,59.9873759
K,left,Distractor,0,41,41,41,2237.649825,2239.650371,left,1,4,0.797064343,F12E07,2022-09-02_11h59.41.925,t1_Paradigm,04.01.2021,59.9873759
H,right,Target,0,42,42,42,2241.149483,2243.150347,right,1,4,0.704989109,F12E07,2022-09-02_11h59.41.925,t1_Paradigm,04.01.2021,59.9873759
B,left,Distractor,0,43,43,43,2244.649033,2246.648738,left,1,4,0.614715497,F12E07,2022-09-02_11h59.41.925,t1_Paradigm,04.01.2021,59.9873759
Z,left,Distractor,0,44,44,44,2248.149826,2250.150774,left,1,4,0.936462327,F12E07,2022-09-02_11h59.41.925,t1_Paradigm,04.01.2021,59.9873759
T,left,Pretarget,0,45,45,45,2251.64948,2253.651925,None,0,4,,F12E07,2022-09-02_11h59.41.925,t1_Paradigm,04.01.2021,59.9873759
H,right,Target,0,46,46,46,2255.149392,2257.151754,right,1,4,0.975470536,F12E07,2022-09-02_11h59.41.925,t1_Paradigm,04.01.2021,59.9873759
F,left,Distractor,0,47,47,47,2258.649718,2260.649942,left,1,4,0.661228542,F12E07,2022-09-02_11h59.41.925,t1_Paradigm,04.01.2021,59.9873759
R,left,Distractor,0,48,48,48,2262.149357,2264.150168,left,1,4,0.520905688,F12E07,2022-09-02_11h59.41.925,t1_Paradigm,04.01.2021,59.9873759
T,right,Target,0,49,49,49,2265.649465,2267.650503,right,1,4,0.460632814,F12E07,2022-09-02_11h59.41.925,t1_Paradigm,04.01.2021,59.9873759
H,right,Target,0,50,50,50,2269.149342,2271.149968,left,0,4,1.025399478,F12E07,2022-09-02_11h59.41.925,t1_Paradigm,04.01.2021,59.9873759
Y,left,Pretarget,0,51,51,51,2272.649417,2274.650448,None,0,4,,F12E07,2022-09-02_11h59.41.925,t1_Paradigm,04.01.2021,59.9873759
H,left,Distractor,0,52,52,52,2276.14954,2278.150046,left,1,4,0.825270837,F12E07,2022-09-02_11h59.41.925,t1_Paradigm,04.01.2021,59.9873759
S,left,Distractor,0,53,53,53,2279.649319,2281.650114,left,1,4,0.733174109,F12E07,2022-09-02_11h59.41.925,t1_Paradigm,04.01.2021,59.9873759
Q,left,Distractor,0,54,54,54,2283.149345,2285.149779,left,1,4,0.545704625,F12E07,2022-09-02_11h59.41.925,t1_Paradigm,04.01.2021,59.9873759
Y,right,Target,0,55,55,55,2286.649506,2288.649658,left,0,4,0.661566026,F12E07,2022-09-02_11h59.41.925,t1_Paradigm,04.01.2021,59.9873759
R,left,Distractor,0,56,56,56,2290.149005,2292.151596,left,1,4,0.823768522,F12E07,2022-09-02_11h59.41.925,t1_Paradigm,04.01.2021,59.9873759
H,left,Pretarget,0,57,57,57,2293.649779,2295.650207,left,1,4,0.653299286,F12E07,2022-09-02_11h59.41.925,t1_Paradigm,04.01.2021,59.9873759
J,left,Distractor,0,58,58,58,2297.149382,2299.151533,left,1,4,1.00781441,F12E07,2022-09-02_11h59.41.925,t1_Paradigm,04.01.2021,59.9873759
V,left,Distractor,0,59,59,59,2300.649618,2302.650836,left,1,4,0.70847077,F12E07,2022-09-02_11h59.41.925,t1_Paradigm,04.01.2021,59.9873759
Y,left,Lure,0,60,60,60,2304.149589,2306.150357,left,1,4,0.872942939,F12E07,2022-09-02_11h59.41.925,t1_Paradigm,04.01.2021,59.9873759
H,right,Target,0,61,61,61,2307.649544,2309.650091,right,1,4,0.525222396,F12E07,2022-09-02_11h59.41.925,t1_Paradigm,04.01.2021,59.9873759
L,left,Distractor,0,62,62,62,2311.14971,2313.152128,left,1,4,0.703111456,F12E07,2022-09-02_11h59.41.925,t1_Paradigm,04.01.2021,59.9873759
P,left,Distractor,0,63,63,63,2314.649362,2316.648823,left,1,4,0.998631781,F12E07,2022-09-02_11h59.41.925,t1_Paradigm,04.01.2021,59.9873759
