Currentstep,EDround.thisRepN,EDround.thisTrialN,EDround.thisN,EDround.thisIndex,question.started,EDclick.clicked_name,EDleftbutton.wasclicked,EDrightbutton.wasclicked,EDleftbutton.value,EDrightbutton.value,EDleftbutton.nback,EDrightbutton.nback,Participant,date,expName,psychopyVersion,frameRate
,,,,,,,,,,,,,F12E07,2022-09-02_11h59.41.925,t1_Paradigm,04.01.2021,59.9873759
0,0,0,0,0,2495.362285,EDleftbutton,1,0,1,2,2,4,F12E07,2022-09-02_11h59.41.925,t1_Paradigm,04.01.2021,59.9873759
1,0,1,1,1,2503.032088,EDrightbutton,0,1,0.5,2,2,4,F12E07,2022-09-02_11h59.41.925,t1_Paradigm,04.01.2021,59.9873759
2,0,2,2,2,2506.910445,EDrightbutton,0,1,0.75,2,2,4,F12E07,2022-09-02_11h59.41.925,t1_Paradigm,04.01.2021,59.9873759
3,0,3,3,3,2509.199096,EDrightbutton,0,1,0.88,2,2,4,F12E07,2022-09-02_11h59.41.925,t1_Paradigm,04.01.2021,59.9873759
4,0,4,4,4,2513.186281,EDrightbutton,0,1,0.94,2,2,4,F12E07,2022-09-02_11h59.41.925,t1_Paradigm,04.01.2021,59.9873759
5,0,5,5,5,2514.940925,EDrightbutton,0,1,0.97,2,2,4,F12E07,2022-09-02_11h59.41.925,t1_Paradigm,04.01.2021,59.9873759
0,0,0,0,0,2516.375328,EDrightbutton,0,1,1,2,2,3,F12E07,2022-09-02_11h59.41.925,t1_Paradigm,04.01.2021,59.9873759
1,0,1,1,1,2522.194027,EDleftbutton,1,0,1.5,2,2,3,F12E07,2022-09-02_11h59.41.925,t1_Paradigm,04.01.2021,59.9873759
2,0,2,2,2,2524.056106,EDrightbutton,0,1,1.25,2,2,3,F12E07,2022-09-02_11h59.41.925,t1_Paradigm,04.01.2021,59.9873759
3,0,3,3,3,2525.810889,EDrightbutton,0,1,1.38,2,2,3,F12E07,2022-09-02_11h59.41.925,t1_Paradigm,04.01.2021,59.9873759
4,0,4,4,4,2529.039357,EDleftbutton,1,0,1.44,2,2,3,F12E07,2022-09-02_11h59.41.925,t1_Paradigm,04.01.2021,59.9873759
5,0,5,5,5,2532.074079,EDleftbutton,1,0,1.41,2,2,3,F12E07,2022-09-02_11h59.41.925,t1_Paradigm,04.01.2021,59.9873759
0,0,0,0,0,2534.042633,EDleftbutton,1,0,1,2,1,3,F12E07,2022-09-02_11h59.41.925,t1_Paradigm,04.01.2021,59.9873759
1,0,1,1,1,2537.736648,EDrightbutton,0,1,0.5,2,1,3,F12E07,2022-09-02_11h59.41.925,t1_Paradigm,04.01.2021,59.9873759
2,0,2,2,2,2539.416786,EDrightbutton,0,1,0.75,2,1,3,F12E07,2022-09-02_11h59.41.925,t1_Paradigm,04.01.2021,59.9873759
3,0,3,3,3,2541.256738,EDrightbutton,0,1,0.88,2,1,3,F12E07,2022-09-02_11h59.41.925,t1_Paradigm,04.01.2021,59.9873759
4,0,4,4,4,2543.110306,EDleftbutton,1,0,0.94,2,1,3,F12E07,2022-09-02_11h59.41.925,t1_Paradigm,04.01.2021,59.9873759
5,0,5,5,5,2544.549169,EDleftbutton,1,0,0.91,2,1,3,F12E07,2022-09-02_11h59.41.925,t1_Paradigm,04.01.2021,59.9873759
0,0,0,0,0,2546.432684,EDrightbutton,0,1,1,2,3,4,F12E07,2022-09-02_11h59.41.925,t1_Paradigm,04.01.2021,59.9873759
1,0,1,1,1,2551.670039,EDleftbutton,1,0,1.5,2,3,4,F12E07,2022-09-02_11h59.41.925,t1_Paradigm,04.01.2021,59.9873759
2,0,2,2,2,2553.294134,EDleftbutton,1,0,1.25,2,3,4,F12E07,2022-09-02_11h59.41.925,t1_Paradigm,04.01.2021,59.9873759
3,0,3,3,3,2554.308081,EDrightbutton,0,1,1.12,2,3,4,F12E07,2022-09-02_11h59.41.925,t1_Paradigm,04.01.2021,59.9873759
4,0,4,4,4,2555.956124,EDrightbutton,0,1,1.18,2,3,4,F12E07,2022-09-02_11h59.41.925,t1_Paradigm,04.01.2021,59.9873759
5,0,5,5,5,2557.482597,EDrightbutton,0,1,1.21,2,3,4,F12E07,2022-09-02_11h59.41.925,t1_Paradigm,04.01.2021,59.9873759
0,0,0,0,0,2559.818104,EDrightbutton,0,1,1,2,1,2,F12E07,2022-09-02_11h59.41.925,t1_Paradigm,04.01.2021,59.9873759
1,0,1,1,1,2562.34169,EDrightbutton,0,1,1.5,2,1,2,F12E07,2022-09-02_11h59.41.925,t1_Paradigm,04.01.2021,59.9873759
2,0,2,2,2,2563.906576,EDrightbutton,0,1,1.75,2,1,2,F12E07,2022-09-02_11h59.41.925,t1_Paradigm,04.01.2021,59.9873759
3,0,3,3,3,2566.045832,EDleftbutton,1,0,1.88,2,1,2,F12E07,2022-09-02_11h59.41.925,t1_Paradigm,04.01.2021,59.9873759
4,0,4,4,4,2567.891048,EDrightbutton,0,1,1.82,2,1,2,F12E07,2022-09-02_11h59.41.925,t1_Paradigm,04.01.2021,59.9873759
5,0,5,5,5,2569.109701,EDleftbutton,1,0,1.85,2,1,2,F12E07,2022-09-02_11h59.41.925,t1_Paradigm,04.01.2021,59.9873759
0,0,0,0,0,2570.417528,EDleftbutton,1,0,1,2,1,4,F12E07,2022-09-02_11h59.41.925,t1_Paradigm,04.01.2021,59.9873759
1,0,1,1,1,2572.258542,EDleftbutton,1,0,0.5,2,1,4,F12E07,2022-09-02_11h59.41.925,t1_Paradigm,04.01.2021,59.9873759
2,0,2,2,2,2575.339974,EDrightbutton,0,1,0.25,2,1,4,F12E07,2022-09-02_11h59.41.925,t1_Paradigm,04.01.2021,59.9873759
3,0,3,3,3,2576.599337,EDrightbutton,0,1,0.38,2,1,4,F12E07,2022-09-02_11h59.41.925,t1_Paradigm,04.01.2021,59.9873759
4,0,4,4,4,2577.753098,EDrightbutton,0,1,0.44,2,1,4,F12E07,2022-09-02_11h59.41.925,t1_Paradigm,04.01.2021,59.9873759
5,0,5,5,5,2579.652291,EDleftbutton,1,0,0.47,2,1,4,F12E07,2022-09-02_11h59.41.925,t1_Paradigm,04.01.2021,59.9873759
