Letter,CorrAnswer,Stimulus,nback_run.thisRepN,nback_run.thisTrialN,nback_run.thisN,nback_run.thisIndex,fixcross.started,nback_trial.started,trial_resp.keys,trial_resp.corr,currentlevel,trial_resp.rt,Participant,date,expName,psychopyVersion,frameRate,
H,left,Distractor,0,0,0,0,221.72624892731415,223.70971632968963,None,0,1,,F14A01,2022-12-08_09h14.56.457,t1_Paradigm,2021.1.4,60.03087073574671,
Q,left,Pretarget,0,1,1,1,225.208064032337,227.21204905082345,left,1,1,0.968730661576501,F14A01,2022-12-08_09h14.56.457,t1_Paradigm,2021.1.4,60.03087073574671,
Q,right,Target,0,2,2,2,228.70720764795055,230.7069644790556,left,0,1,0.6684420990159197,F14A01,2022-12-08_09h14.56.457,t1_Paradigm,2021.1.4,60.03087073574671,
T,left,Distractor,0,3,3,3,232.20649177540577,234.2083396023645,None,0,1,,F14A01,2022-12-08_09h14.56.457,t1_Paradigm,2021.1.4,60.03087073574671,
Q,left,Lure,0,4,4,4,235.70615477154797,237.70762918347555,left,1,1,1.3728725528721952,F14A01,2022-12-08_09h14.56.457,t1_Paradigm,2021.1.4,60.03087073574671,
L,left,Distractor,0,5,5,5,239.2054379365934,241.2069508449158,left,1,1,0.9863549528017757,F14A01,2022-12-08_09h14.56.457,t1_Paradigm,2021.1.4,60.03087073574671,
V,left,Pretarget,0,6,6,6,242.70508296775142,244.70704050943573,left,1,1,0.6602991490692602,F14A01,2022-12-08_09h14.56.457,t1_Paradigm,2021.1.4,60.03087073574671,
V,right,Target,0,7,7,7,246.20417942528093,248.20400170025755,left,0,1,0.8632861485157264,F14A01,2022-12-08_09h14.56.457,t1_Paradigm,2021.1.4,60.03087073574671,
K,left,Distractor,0,8,8,8,249.703548244805,251.70550097444016,left,1,1,0.6461350421454881,F14A01,2022-12-08_09h14.56.457,t1_Paradigm,2021.1.4,60.03087073574671,
G,left,Pretarget,0,9,9,9,253.20306238822013,255.20518386038657,left,1,1,0.7319483185897298,F14A01,2022-12-08_09h14.56.457,t1_Paradigm,2021.1.4,60.03087073574671,
G,right,Target,0,10,10,10,256.70177324019346,258.7024559095978,right,1,1,0.6329910896886304,F14A01,2022-12-08_09h14.56.457,t1_Paradigm,2021.1.4,60.03087073574671,
G,right,Target,0,11,11,11,260.2021509860692,262.2015093794864,right,1,1,0.4671226350781126,F14A01,2022-12-08_09h14.56.457,t1_Paradigm,2021.1.4,60.03087073574671,
P,left,Pretarget,0,12,12,12,263.7013427221764,265.70471051513005,left,1,1,0.5378013746421857,F14A01,2022-12-08_09h14.56.457,t1_Paradigm,2021.1.4,60.03087073574671,
P,right,Target,0,13,13,13,267.2006916518965,269.19961631926344,right,1,1,0.6936819395766634,F14A01,2022-12-08_09h14.56.457,t1_Paradigm,2021.1.4,60.03087073574671,
G,left,Lure,0,14,14,14,270.70032834216886,272.701631765942,left,1,1,0.9648181446341368,F14A01,2022-12-08_09h14.56.457,t1_Paradigm,2021.1.4,60.03087073574671,
Y,left,Distractor,0,15,15,15,274.19978313697516,276.2016470040983,left,1,1,0.6835625205515043,F14A01,2022-12-08_09h14.56.457,t1_Paradigm,2021.1.4,60.03087073574671,
B,left,Distractor,0,16,16,16,277.6991176305469,279.70112168870855,left,1,1,0.7455401124416312,F14A01,2022-12-08_09h14.56.457,t1_Paradigm,2021.1.4,60.03087073574671,
T,left,Pretarget,0,17,17,17,281.1987325061957,283.1993901529431,left,1,1,0.6618364384419237,F14A01,2022-12-08_09h14.56.457,t1_Paradigm,2021.1.4,60.03087073574671,
T,right,Target,0,18,18,18,284.6973824055435,286.6974741552849,right,1,1,0.4478834200838264,F14A01,2022-12-08_09h14.56.457,t1_Paradigm,2021.1.4,60.03087073574671,
S,left,Distractor,0,19,19,19,288.19672588160756,290.2003182368651,left,1,1,0.4739653692847696,F14A01,2022-12-08_09h14.56.457,t1_Paradigm,2021.1.4,60.03087073574671,
T,left,Lure,0,20,20,20,291.69605267590055,293.69775325414844,left,1,1,0.4520304442323777,F14A01,2022-12-08_09h14.56.457,t1_Paradigm,2021.1.4,60.03087073574671,
J,left,Distractor,0,21,21,21,295.1961875736845,297.1982410355531,left,1,1,0.5414636650173179,F14A01,2022-12-08_09h14.56.457,t1_Paradigm,2021.1.4,60.03087073574671,
P,left,Distractor,0,22,22,22,298.6958085445958,300.70825282507417,left,1,1,0.8700416242270421,F14A01,2022-12-08_09h14.56.457,t1_Paradigm,2021.1.4,60.03087073574671,
F,left,Distractor,0,23,23,23,302.19505706288555,304.1968827544172,left,1,1,0.6492173201697824,F14A01,2022-12-08_09h14.56.457,t1_Paradigm,2021.1.4,60.03087073574671,
L,left,Distractor,0,24,24,24,305.69453367231563,307.6952769735419,left,1,1,0.6757384490763343,F14A01,2022-12-08_09h14.56.457,t1_Paradigm,2021.1.4,60.03087073574671,
W,left,Pretarget,0,25,25,25,309.1939397050214,311.1957689253893,left,1,1,0.5286276837200603,F14A01,2022-12-08_09h14.56.457,t1_Paradigm,2021.1.4,60.03087073574671,
W,right,Target,0,26,26,26,312.69345577325635,314.6930993607996,left,0,1,0.49472519188043407,F14A01,2022-12-08_09h14.56.457,t1_Paradigm,2021.1.4,60.03087073574671,
V,left,Distractor,0,27,27,27,316.1931508497278,318.19325446919083,left,1,1,0.7924203806333026,F14A01,2022-12-08_09h14.56.457,t1_Paradigm,2021.1.4,60.03087073574671,
W,left,Lure,0,28,28,28,319.7087738096193,321.71093057014764,None,0,1,,F14A01,2022-12-08_09h14.56.457,t1_Paradigm,2021.1.4,60.03087073574671,
R,left,Pretarget,0,29,29,29,323.208443863434,325.2110433325047,left,1,1,0.6855383480233286,F14A01,2022-12-08_09h14.56.457,t1_Paradigm,2021.1.4,60.03087073574671,
R,right,Target,0,30,30,30,326.708585177284,328.707523959996,right,1,1,0.9951237899701937,F14A01,2022-12-08_09h14.56.457,t1_Paradigm,2021.1.4,60.03087073574671,
G,left,Distractor,0,31,31,31,330.20720812915556,332.20860105704696,left,1,1,1.0675919702935062,F14A01,2022-12-08_09h14.56.457,t1_Paradigm,2021.1.4,60.03087073574671,
R,left,Lure,0,32,32,32,333.70687786216695,335.7086198240395,left,1,1,0.9783114518754701,F14A01,2022-12-08_09h14.56.457,t1_Paradigm,2021.1.4,60.03087073574671,
S,left,Distractor,0,33,33,33,337.20612509724356,339.20728929238817,left,1,1,0.7965539310434906,F14A01,2022-12-08_09h14.56.457,t1_Paradigm,2021.1.4,60.03087073574671,
R,left,Lure,0,34,34,34,340.7057534466305,342.7076445820335,left,1,1,1.07761001547874,F14A01,2022-12-08_09h14.56.457,t1_Paradigm,2021.1.4,60.03087073574671,
P,left,Pretarget,0,35,35,35,344.20407965545746,346.2064314643869,left,1,1,0.7653808336071961,F14A01,2022-12-08_09h14.56.457,t1_Paradigm,2021.1.4,60.03087073574671,
P,right,Target,0,36,36,36,347.7046152365524,349.7041715656003,right,1,1,0.7069160377584467,F14A01,2022-12-08_09h14.56.457,t1_Paradigm,2021.1.4,60.03087073574671,
Y,left,Pretarget,0,37,37,37,351.2037671930516,353.20553032794123,left,1,1,0.5795041985131775,F14A01,2022-12-08_09h14.56.457,t1_Paradigm,2021.1.4,60.03087073574671,
Y,right,Target,0,38,38,38,354.7030785887864,356.7027725424464,right,1,1,0.5743719874565159,F14A01,2022-12-08_09h14.56.457,t1_Paradigm,2021.1.4,60.03087073574671,
J,left,Distractor,0,39,39,39,358.2018651503365,360.20402383568467,left,1,1,0.6712019697322376,F14A01,2022-12-08_09h14.56.457,t1_Paradigm,2021.1.4,60.03087073574671,
Y,left,Lure,0,40,40,40,361.7021174621252,363.7045260532375,left,1,1,0.919525531932095,F14A01,2022-12-08_09h14.56.457,t1_Paradigm,2021.1.4,60.03087073574671,
T,left,Distractor,0,41,41,41,365.20153761017605,367.2028612445565,left,1,1,0.7381802433294524,F14A01,2022-12-08_09h14.56.457,t1_Paradigm,2021.1.4,60.03087073574671,
V,left,Distractor,0,42,42,42,368.7010748514281,370.7019573812829,left,1,1,0.7272633073216639,F14A01,2022-12-08_09h14.56.457,t1_Paradigm,2021.1.4,60.03087073574671,
N,left,Pretarget,0,43,43,43,372.20021076776266,374.2021968609399,left,1,1,0.6987618596965604,F14A01,2022-12-08_09h14.56.457,t1_Paradigm,2021.1.4,60.03087073574671,
N,right,Target,0,44,44,44,375.69999727317213,377.6995141434152,right,1,1,1.019554243826633,F14A01,2022-12-08_09h14.56.457,t1_Paradigm,2021.1.4,60.03087073574671,
N,right,Target,0,45,45,45,379.19921563595244,381.19894776520414,right,1,1,0.6535077433895822,F14A01,2022-12-08_09h14.56.457,t1_Paradigm,2021.1.4,60.03087073574671,
X,left,Distractor,0,46,46,46,382.69856264085274,384.7008884647157,left,1,1,0.6973159992621731,F14A01,2022-12-08_09h14.56.457,t1_Paradigm,2021.1.4,60.03087073574671,
Z,left,Distractor,0,47,47,47,386.1981101478102,388.1997747960895,left,1,1,0.6820560282947099,F14A01,2022-12-08_09h14.56.457,t1_Paradigm,2021.1.4,60.03087073574671,
H,left,Pretarget,0,48,48,48,389.69675715992844,391.70964479055556,left,1,1,0.7905924434785447,F14A01,2022-12-08_09h14.56.457,t1_Paradigm,2021.1.4,60.03087073574671,
H,right,Target,0,49,49,49,393.1969433862391,395.19659274824176,right,1,1,0.4823412224211552,F14A01,2022-12-08_09h14.56.457,t1_Paradigm,2021.1.4,60.03087073574671,
K,left,Distractor,0,50,50,50,396.6963070729107,398.69797011717355,left,1,1,0.5543336514633666,F14A01,2022-12-08_09h14.56.457,t1_Paradigm,2021.1.4,60.03087073574671,
V,left,Pretarget,0,51,51,51,400.1958087049975,402.19770497325317,left,1,1,0.5873735032521381,F14A01,2022-12-08_09h14.56.457,t1_Paradigm,2021.1.4,60.03087073574671,
V,right,Target,0,52,52,52,403.6950780755012,405.69489585923156,right,1,1,0.7738724967318831,F14A01,2022-12-08_09h14.56.457,t1_Paradigm,2021.1.4,60.03087073574671,
R,left,Distractor,0,53,53,53,407.19475614939824,409.1959059083947,left,1,1,0.5490766479263129,F14A01,2022-12-08_09h14.56.457,t1_Paradigm,2021.1.4,60.03087073574671,
V,left,Lure,0,54,54,54,410.69400049724527,412.6955015358458,left,1,1,0.5376839606374233,F14A01,2022-12-08_09h14.56.457,t1_Paradigm,2021.1.4,60.03087073574671,
Y,left,Distractor,0,55,55,55,414.1937173883405,416.19500701757215,left,1,1,0.8115312743109371,F14A01,2022-12-08_09h14.56.457,t1_Paradigm,2021.1.4,60.03087073574671,
Q,left,Distractor,0,56,56,56,417.6930528443222,419.694744440078,left,1,1,0.6736018991555284,F14A01,2022-12-08_09h14.56.457,t1_Paradigm,2021.1.4,60.03087073574671,
Z,left,Pretarget,0,57,57,57,421.19224073079,423.1946217328191,left,1,1,0.5313856296165795,F14A01,2022-12-08_09h14.56.457,t1_Paradigm,2021.1.4,60.03087073574671,
Z,right,Target,0,58,58,58,424.708332063487,426.7080622679189,right,1,1,0.7503624275184393,F14A01,2022-12-08_09h14.56.457,t1_Paradigm,2021.1.4,60.03087073574671,
B,left,Distractor,0,59,59,59,428.20824015334415,430.20959201841424,left,1,1,0.5864977102664852,F14A01,2022-12-08_09h14.56.457,t1_Paradigm,2021.1.4,60.03087073574671,
S,left,Pretarget,0,60,60,60,431.707270846199,433.70772093321693,left,1,1,0.5683181085439628,F14A01,2022-12-08_09h14.56.457,t1_Paradigm,2021.1.4,60.03087073574671,
S,right,Target,0,61,61,61,435.206721149759,437.2065209685052,right,1,1,0.5128072694024013,F14A01,2022-12-08_09h14.56.457,t1_Paradigm,2021.1.4,60.03087073574671,
T,left,Distractor,0,62,62,62,438.70611563354646,440.70814792239776,left,1,1,0.7274493732306837,F14A01,2022-12-08_09h14.56.457,t1_Paradigm,2021.1.4,60.03087073574671,
D,left,Distractor,0,63,63,63,442.20550241805495,444.2068895714872,left,1,1,0.8147428360614413,F14A01,2022-12-08_09h14.56.457,t1_Paradigm,2021.1.4,60.03087073574671,
R,left,Distractor,0,0,0,0,460.74440928083936,462.7347277583069,None,0,1,,F14A01,2022-12-08_09h14.56.457,t1_Paradigm,2021.1.4,60.03087073574671,
V,left,Distractor,0,1,1,1,464.23523029666285,466.2364236849071,left,1,1,0.8361012775992549,F14A01,2022-12-08_09h14.56.457,t1_Paradigm,2021.1.4,60.03087073574671,
N,left,Pretarget,0,2,2,2,467.73471717179837,469.7363211882555,left,1,1,0.6451979757312074,F14A01,2022-12-08_09h14.56.457,t1_Paradigm,2021.1.4,60.03087073574671,
N,right,Target,0,3,3,3,471.2341475855544,473.2338011179995,right,1,1,0.5908266298813487,F14A01,2022-12-08_09h14.56.457,t1_Paradigm,2021.1.4,60.03087073574671,
S,left,Distractor,0,4,4,4,474.7334503196005,476.73481726242517,left,1,1,0.7245769005589864,F14A01,2022-12-08_09h14.56.457,t1_Paradigm,2021.1.4,60.03087073574671,
N,left,Lure,0,5,5,5,478.23296382140893,480.23466151242724,left,1,1,0.9942335608363919,F14A01,2022-12-08_09h14.56.457,t1_Paradigm,2021.1.4,60.03087073574671,
Z,left,Distractor,0,6,6,6,481.7324484509211,483.7334708510109,left,1,1,0.7716275152984053,F14A01,2022-12-08_09h14.56.457,t1_Paradigm,2021.1.4,60.03087073574671,
L,left,Pretarget,0,7,7,7,485.23207391307847,487.2338749027565,left,1,1,0.6374788069326769,F14A01,2022-12-08_09h14.56.457,t1_Paradigm,2021.1.4,60.03087073574671,
L,right,Target,0,8,8,8,488.73106514712845,490.7310269715367,right,1,1,0.5388234539286714,F14A01,2022-12-08_09h14.56.457,t1_Paradigm,2021.1.4,60.03087073574671,
H,left,Distractor,0,9,9,9,492.23092287086865,494.22978562320054,left,1,1,0.5649403706881913,F14A01,2022-12-08_09h14.56.457,t1_Paradigm,2021.1.4,60.03087073574671,
L,left,Lure,0,10,10,10,495.7300722609416,497.73183667904436,left,1,1,0.897675619751908,F14A01,2022-12-08_09h14.56.457,t1_Paradigm,2021.1.4,60.03087073574671,
X,left,Pretarget,0,11,11,11,499.22978145275783,501.2314088878552,left,1,1,0.7968946241387584,F14A01,2022-12-08_09h14.56.457,t1_Paradigm,2021.1.4,60.03087073574671,
X,right,Target,0,12,12,12,502.7289484870116,504.72861196435883,right,1,1,0.5105638919856119,F14A01,2022-12-08_09h14.56.457,t1_Paradigm,2021.1.4,60.03087073574671,
X,right,Target,0,13,13,13,506.2283153817159,508.2279528739966,right,1,1,0.4999247716282298,F14A01,2022-12-08_09h14.56.457,t1_Paradigm,2021.1.4,60.03087073574671,
R,left,Distractor,0,14,14,14,509.7279142171999,511.72962121151363,left,1,1,0.5269165189633895,F14A01,2022-12-08_09h14.56.457,t1_Paradigm,2021.1.4,60.03087073574671,
T,left,Distractor,0,15,15,15,513.2270796474372,515.2281581881032,left,1,1,0.7039020908355269,F14A01,2022-12-08_09h14.56.457,t1_Paradigm,2021.1.4,60.03087073574671,
V,left,Pretarget,0,16,16,16,516.726642873756,518.7285773176034,left,1,1,0.7085081844938941,F14A01,2022-12-08_09h14.56.457,t1_Paradigm,2021.1.4,60.03087073574671,
V,right,Target,0,17,17,17,520.2260790619712,522.225966460016,right,1,1,0.479495697225957,F14A01,2022-12-08_09h14.56.457,t1_Paradigm,2021.1.4,60.03087073574671,
N,left,Distractor,0,18,18,18,523.7255470097125,525.7275202707581,left,1,1,0.6004048537538438,F14A01,2022-12-08_09h14.56.457,t1_Paradigm,2021.1.4,60.03087073574671,
B,left,Distractor,0,19,19,19,527.2248991474653,529.226833912116,left,1,1,0.7442758266699911,F14A01,2022-12-08_09h14.56.457,t1_Paradigm,2021.1.4,60.03087073574671,
V,left,Lure,0,20,20,20,530.7236119242584,532.7232131657672,left,1,1,0.8583050358097353,F14A01,2022-12-08_09h14.56.457,t1_Paradigm,2021.1.4,60.03087073574671,
P,left,Distractor,0,21,21,21,534.2238549327517,536.2256613760858,left,1,1,0.7707979179867834,F14A01,2022-12-08_09h14.56.457,t1_Paradigm,2021.1.4,60.03087073574671,
K,left,Pretarget,0,22,22,22,537.723167932503,539.7240565576203,left,1,1,0.679377320811227,F14A01,2022-12-08_09h14.56.457,t1_Paradigm,2021.1.4,60.03087073574671,
K,right,Target,0,23,23,23,541.2218287391629,543.2224389070232,right,1,1,0.5797954879017198,F14A01,2022-12-08_09h14.56.457,t1_Paradigm,2021.1.4,60.03087073574671,
J,left,Pretarget,0,24,24,24,544.7220524994586,546.7235256281731,left,1,1,0.5830936665411173,F14A01,2022-12-08_09h14.56.457,t1_Paradigm,2021.1.4,60.03087073574671,
J,right,Target,0,25,25,25,548.2218826341159,550.2215008781991,right,1,1,0.7607830808344715,F14A01,2022-12-08_09h14.56.457,t1_Paradigm,2021.1.4,60.03087073574671,
H,left,Distractor,0,26,26,26,551.72086841451,553.7224971328208,left,1,1,0.5567701524619224,F14A01,2022-12-08_09h14.56.457,t1_Paradigm,2021.1.4,60.03087073574671,
J,left,Lure,0,27,27,27,555.2204528138459,557.2220911562554,left,1,1,0.6474076688027708,F14A01,2022-12-08_09h14.56.457,t1_Paradigm,2021.1.4,60.03087073574671,
V,left,Distractor,0,28,28,28,558.7365107830008,560.738636746413,left,1,1,0.7735282748001282,F14A01,2022-12-08_09h14.56.457,t1_Paradigm,2021.1.4,60.03087073574671,
Z,left,Pretarget,0,29,29,29,562.2358690160163,564.2367345432965,left,1,1,0.739575737647101,F14A01,2022-12-08_09h14.56.457,t1_Paradigm,2021.1.4,60.03087073574671,
Z,right,Target,0,30,30,30,565.7352821063946,567.7349346764299,right,1,1,0.7251668578119279,F14A01,2022-12-08_09h14.56.457,t1_Paradigm,2021.1.4,60.03087073574671,
T,left,Distractor,0,31,31,31,569.2346621540337,571.2369177219759,left,1,1,0.5694515065724772,F14A01,2022-12-08_09h14.56.457,t1_Paradigm,2021.1.4,60.03087073574671,
Z,left,Lure,0,32,32,32,572.7342138314341,574.7349596990866,left,1,1,0.7469266242671893,F14A01,2022-12-08_09h14.56.457,t1_Paradigm,2021.1.4,60.03087073574671,
F,left,Distractor,0,33,33,33,576.2335829717613,578.2347154073802,left,1,1,0.6537611779897361,F14A01,2022-12-08_09h14.56.457,t1_Paradigm,2021.1.4,60.03087073574671,
Y,left,Pretarget,0,34,34,34,579.7333149406113,581.7344775317395,left,1,1,0.6180297865855664,F14A01,2022-12-08_09h14.56.457,t1_Paradigm,2021.1.4,60.03087073574671,
Y,right,Target,0,35,35,35,583.2327421463344,585.2320681386193,right,1,1,0.7836278040213074,F14A01,2022-12-08_09h14.56.457,t1_Paradigm,2021.1.4,60.03087073574671,
Y,right,Target,0,36,36,36,586.7319656419675,588.7317606486642,right,1,1,0.6625200702558232,F14A01,2022-12-08_09h14.56.457,t1_Paradigm,2021.1.4,60.03087073574671,
W,left,Distractor,0,37,37,37,590.2311782302888,592.2335242647591,left,1,1,0.5671048304955093,F14A01,2022-12-08_09h14.56.457,t1_Paradigm,2021.1.4,60.03087073574671,
Q,left,Distractor,0,38,38,38,593.7310131769952,595.732724662555,left,1,1,0.5238220504143101,F14A01,2022-12-08_09h14.56.457,t1_Paradigm,2021.1.4,60.03087073574671,
P,left,Pretarget,0,39,39,39,597.2300682509003,599.2323167611701,left,1,1,0.5815448282498892,F14A01,2022-12-08_09h14.56.457,t1_Paradigm,2021.1.4,60.03087073574671,
P,right,Target,0,40,40,40,600.7296927506477,602.7293360173876,right,1,1,0.6543216213397045,F14A01,2022-12-08_09h14.56.457,t1_Paradigm,2021.1.4,60.03087073574671,
J,left,Distractor,0,41,41,41,604.2291039162062,606.2304256257671,left,1,1,0.5606210751723211,F14A01,2022-12-08_09h14.56.457,t1_Paradigm,2021.1.4,60.03087073574671,
P,left,Lure,0,42,42,42,607.728287311428,609.7301280807142,left,1,1,0.752854748289792,F14A01,2022-12-08_09h14.56.457,t1_Paradigm,2021.1.4,60.03087073574671,
L,left,Distractor,0,43,43,43,611.2278287231227,613.2291918163082,left,1,1,0.452647348961591,F14A01,2022-12-08_09h14.56.457,t1_Paradigm,2021.1.4,60.03087073574671,
Z,left,Distractor,0,44,44,44,614.7273133526351,616.7282260379993,left,1,1,0.6620035769567494,F14A01,2022-12-08_09h14.56.457,t1_Paradigm,2021.1.4,60.03087073574671,
F,left,Pretarget,0,45,45,45,618.2266173698943,620.2281366942825,left,1,1,0.6830886940899745,F14A01,2022-12-08_09h14.56.457,t1_Paradigm,2021.1.4,60.03087073574671,
F,right,Target,0,46,46,46,621.7260760143399,623.7260715230939,right,1,1,0.7384843648496826,F14A01,2022-12-08_09h14.56.457,t1_Paradigm,2021.1.4,60.03087073574671,
G,left,Pretarget,0,47,47,47,625.2258702190286,627.2270087499098,left,1,1,0.6200376943868378,F14A01,2022-12-08_09h14.56.457,t1_Paradigm,2021.1.4,60.03087073574671,
G,right,Target,0,48,48,48,628.7249657141483,630.724751738353,right,1,1,0.5131357719731113,F14A01,2022-12-08_09h14.56.457,t1_Paradigm,2021.1.4,60.03087073574671,
V,left,Distractor,0,49,49,49,632.2243685388212,634.2262372179939,left,1,1,0.4917840673044793,F14A01,2022-12-08_09h14.56.457,t1_Paradigm,2021.1.4,60.03087073574671,
G,left,Lure,0,50,50,50,635.7244466544228,637.7361065708535,left,1,1,0.7599178743573702,F14A01,2022-12-08_09h14.56.457,t1_Paradigm,2021.1.4,60.03087073574671,
Q,left,Pretarget,0,51,51,51,639.2228492144329,641.2242617113252,left,1,1,0.487030083328591,F14A01,2022-12-08_09h14.56.457,t1_Paradigm,2021.1.4,60.03087073574671,
Q,right,Target,0,52,52,52,642.7227573042901,644.7223816436358,right,1,1,0.6605307690456357,F14A01,2022-12-08_09h14.56.457,t1_Paradigm,2021.1.4,60.03087073574671,
Y,left,Distractor,0,53,53,53,646.2221995877678,648.222801735546,left,1,1,0.5427962818896503,F14A01,2022-12-08_09h14.56.457,t1_Paradigm,2021.1.4,60.03087073574671,
V,left,Distractor,0,54,54,54,649.7215225324212,651.7226373238591,left,1,1,0.5316275152983962,F14A01,2022-12-08_09h14.56.457,t1_Paradigm,2021.1.4,60.03087073574671,
B,left,Distractor,0,55,55,55,653.2204277911892,655.2222884502796,left,1,1,0.5077472390867115,F14A01,2022-12-08_09h14.56.457,t1_Paradigm,2021.1.4,60.03087073574671,
J,left,Pretarget,0,56,56,56,656.7203990792946,658.7225529525933,left,1,1,0.4511251373437517,F14A01,2022-12-08_09h14.56.457,t1_Paradigm,2021.1.4,60.03087073574671,
J,right,Target,0,57,57,57,660.2364204768742,662.2363874341352,right,1,1,0.6092089792841762,F14A01,2022-12-08_09h14.56.457,t1_Paradigm,2021.1.4,60.03087073574671,
H,left,Distractor,0,58,58,58,663.736038881359,665.736954774756,left,1,1,0.540056942584215,F14A01,2022-12-08_09h14.56.457,t1_Paradigm,2021.1.4,60.03087073574671,
J,left,Lure,0,59,59,59,667.2354221370313,669.2361323955186,left,1,1,0.598822331116935,F14A01,2022-12-08_09h14.56.457,t1_Paradigm,2021.1.4,60.03087073574671,
D,left,Pretarget,0,60,60,60,670.7348734030013,672.7341053999214,left,1,1,0.5933134969964158,F14A01,2022-12-08_09h14.56.457,t1_Paradigm,2021.1.4,60.03087073574671,
D,right,Target,0,61,61,61,674.2343269145942,676.2341119763889,right,1,1,0.5735571470963805,F14A01,2022-12-08_09h14.56.457,t1_Paradigm,2021.1.4,60.03087073574671,
R,left,Distractor,0,62,62,62,677.7342940322569,679.7326258551414,left,1,1,0.6940717155760012,F14A01,2022-12-08_09h14.56.457,t1_Paradigm,2021.1.4,60.03087073574671,
F,left,Distractor,0,63,63,63,681.2331226190381,683.234524850225,left,1,1,0.774416899917469,F14A01,2022-12-08_09h14.56.457,t1_Paradigm,2021.1.4,60.03087073574671,
F,left,Distractor,0,0,0,0,888.7490375099248,890.7489438353639,None,0,2,,F14A01,2022-12-08_09h14.56.457,t1_Paradigm,2021.1.4,60.03087073574671,
N,left,Pretarget,0,1,1,1,892.2484826806324,894.2499805112,None,0,2,,F14A01,2022-12-08_09h14.56.457,t1_Paradigm,2021.1.4,60.03087073574671,
V,left,Distractor,0,2,2,2,895.7480702880014,897.7491173899446,left,1,2,0.6089783217175864,F14A01,2022-12-08_09h14.56.457,t1_Paradigm,2021.1.4,60.03087073574671,
N,right,Target,0,3,3,3,899.2473877789987,901.2496568206791,right,1,2,1.3678689839357503,F14A01,2022-12-08_09h14.56.457,t1_Paradigm,2021.1.4,60.03087073574671,
N,left,Lure,0,4,4,4,902.7467889996553,904.7464338704115,left,1,2,0.9065740614496463,F14A01,2022-12-08_09h14.56.457,t1_Paradigm,2021.1.4,60.03087073574671,
X,left,Distractor,0,5,5,5,906.246440446879,908.2481256265689,left,1,2,0.7955639320857699,F14A01,2022-12-08_09h14.56.457,t1_Paradigm,2021.1.4,60.03087073574671,
G,left,Pretarget,0,6,6,6,909.7456504687741,911.7469689703019,left,1,2,1.1645454618364965,F14A01,2022-12-08_09h14.56.457,t1_Paradigm,2021.1.4,60.03087073574671,
H,left,Pretarget,0,7,7,7,913.2454286332979,915.2443549046814,left,1,2,0.8662638446671735,F14A01,2022-12-08_09h14.56.457,t1_Paradigm,2021.1.4,60.03087073574671,
G,right,Target,0,8,8,8,916.7445507550908,918.745585666509,right,1,2,1.1508291963077681,F14A01,2022-12-08_09h14.56.457,t1_Paradigm,2021.1.4,60.03087073574671,
H,right,Target,0,9,9,9,920.2439798856337,922.2433405246741,right,1,2,0.9783297376634437,F14A01,2022-12-08_09h14.56.457,t1_Paradigm,2021.1.4,60.03087073574671,
T,left,Pretarget,0,10,10,10,923.7433734070112,925.7449010722851,left,1,2,0.6394357070103069,F14A01,2022-12-08_09h14.56.457,t1_Paradigm,2021.1.4,60.03087073574671,
K,left,Distractor,0,11,11,11,927.2429350293135,929.2440116451596,left,1,2,0.637042835259308,F14A01,2022-12-08_09h14.56.457,t1_Paradigm,2021.1.4,60.03087073574671,
T,right,Target,0,12,12,12,930.7422547659341,932.7436640547933,right,1,2,0.8869665642769178,F14A01,2022-12-08_09h14.56.457,t1_Paradigm,2021.1.4,60.03087073574671,
T,left,Lure,0,13,13,13,934.2415866930794,936.2414936601251,left,1,2,0.9143230649542602,F14A01,2022-12-08_09h14.56.457,t1_Paradigm,2021.1.4,60.03087073574671,
J,left,Distractor,0,14,14,14,937.7410559240341,939.7428905980576,left,1,2,1.211081828899296,F14A01,2022-12-08_09h14.56.457,t1_Paradigm,2021.1.4,60.03087073574671,
Q,left,Pretarget,0,15,15,15,941.240414798656,943.2420489706226,left,1,2,1.1233280133451444,F14A01,2022-12-08_09h14.56.457,t1_Paradigm,2021.1.4,60.03087073574671,
M,left,Distractor,0,16,16,16,944.7402779760521,946.7392501223064,left,1,2,0.7230017563979345,F14A01,2022-12-08_09h14.56.457,t1_Paradigm,2021.1.4,60.03087073574671,
Q,right,Target,0,17,17,17,948.2395819933115,950.2407914217199,right,1,2,0.6409508609558543,F14A01,2022-12-08_09h14.56.457,t1_Paradigm,2021.1.4,60.03087073574671,
R,left,Distractor,0,18,18,18,951.7389014091284,953.7398660646261,left,1,2,0.6754214954244162,F14A01,2022-12-08_09h14.56.457,t1_Paradigm,2021.1.4,60.03087073574671,
W,left,Distractor,0,19,19,19,955.2380822379239,957.2399396889812,left,1,2,0.6559195425347752,F14A01,2022-12-08_09h14.56.457,t1_Paradigm,2021.1.4,60.03087073574671,
C,left,Pretarget,0,20,20,20,958.737729514705,960.7391532397126,left,1,2,0.6452977455546716,F14A01,2022-12-08_09h14.56.457,t1_Paradigm,2021.1.4,60.03087073574671,
T,left,Distractor,0,21,21,21,962.2373033275323,964.2378932847853,left,1,2,0.5413991835557681,F14A01,2022-12-08_09h14.56.457,t1_Paradigm,2021.1.4,60.03087073574671,
C,right,Target,0,22,22,22,965.7365807181184,967.7374205811354,right,1,2,0.7870177324016367,F14A01,2022-12-08_09h14.56.457,t1_Paradigm,2021.1.4,60.03087073574671,
F,left,Pretarget,0,23,23,23,969.2358427101465,971.2376850834492,left,1,2,0.6613841058010621,F14A01,2022-12-08_09h14.56.457,t1_Paradigm,2021.1.4,60.03087073574671,
C,right,Target,0,24,24,24,972.7354919117472,974.7363330579772,right,1,2,0.9202280911404159,F14A01,2022-12-08_09h14.56.457,t1_Paradigm,2021.1.4,60.03087073574671,
F,right,Target,0,25,25,25,976.2348466159262,978.2339069830857,right,1,2,0.8217161372076589,F14A01,2022-12-08_09h14.56.457,t1_Paradigm,2021.1.4,60.03087073574671,
H,left,Distractor,0,26,26,26,979.7342430245337,981.7360250868176,left,1,2,0.6008071410810771,F14A01,2022-12-08_09h14.56.457,t1_Paradigm,2021.1.4,60.03087073574671,
H,left,Lure,0,27,27,27,983.2337465814401,985.2332528651743,left,1,2,1.2199183555621858,F14A01,2022-12-08_09h14.56.457,t1_Paradigm,2021.1.4,60.03087073574671,
P,left,Distractor,0,28,28,28,986.7330072902548,988.7343623633581,left,1,2,0.628774451226036,F14A01,2022-12-08_09h14.56.457,t1_Paradigm,2021.1.4,60.03087073574671,
G,left,Pretarget,0,29,29,29,990.2492144329401,992.2503892145935,left,1,2,0.8296980439017716,F14A01,2022-12-08_09h14.56.457,t1_Paradigm,2021.1.4,60.03087073574671,
K,left,Distractor,0,30,30,30,993.7485453976758,995.7500287920955,left,1,2,0.6026309077929,F14A01,2022-12-08_09h14.56.457,t1_Paradigm,2021.1.4,60.03087073574671,
G,right,Target,0,31,31,31,997.2479822274979,999.2490726378853,right,1,2,0.6902560812272895,F14A01,2022-12-08_09h14.56.457,t1_Paradigm,2021.1.4,60.03087073574671,
M,left,Pretarget,0,32,32,32,1000.7474607617476,1002.7493923183654,left,1,2,0.678804366132681,F14A01,2022-12-08_09h14.56.457,t1_Paradigm,2021.1.4,60.03087073574671,
B,left,Distractor,0,33,33,33,1004.2469011204055,1006.2489253891747,left,1,2,0.6919050101455468,F14A01,2022-12-08_09h14.56.457,t1_Paradigm,2021.1.4,60.03087073574671,
M,right,Target,0,34,34,34,1007.7462997746359,1009.747801454843,right,1,2,0.5025951382262974,F14A01,2022-12-08_09h14.56.457,t1_Paradigm,2021.1.4,60.03087073574671,
M,left,Lure,0,35,35,35,1011.2458617177415,1013.2455797316481,left,1,2,1.41101895145448,F14A01,2022-12-08_09h14.56.457,t1_Paradigm,2021.1.4,60.03087073574671,
T,left,Distractor,0,36,36,36,1014.7450932334566,1016.7468358369358,left,1,2,0.8520009303297229,F14A01,2022-12-08_09h14.56.457,t1_Paradigm,2021.1.4,60.03087073574671,
F,left,Distractor,0,37,37,37,1018.2444739227024,1020.2458944396769,left,1,2,0.7764103715703641,F14A01,2022-12-08_09h14.56.457,t1_Paradigm,2021.1.4,60.03087073574671,
X,left,Distractor,0,38,38,38,1021.7439123565407,1023.7447448410824,left,1,2,0.768964206372857,F14A01,2022-12-08_09h14.56.457,t1_Paradigm,2021.1.4,60.03087073574671,
C,left,Distractor,0,39,39,39,1025.243712656492,1027.2446275874793,left,1,2,0.651716377809862,F14A01,2022-12-08_09h14.56.457,t1_Paradigm,2021.1.4,60.03087073574671,
R,left,Distractor,0,40,40,40,1028.7430731351303,1030.7441372396481,left,1,2,0.9338744215515362,F14A01,2022-12-08_09h14.56.457,t1_Paradigm,2021.1.4,60.03087073574671,
B,left,Pretarget,0,41,41,41,1032.2422286204658,1034.2440138907825,left,1,2,0.6947405904384141,F14A01,2022-12-08_09h14.56.457,t1_Paradigm,2021.1.4,60.03087073574671,
H,left,Distractor,0,42,42,42,1035.7419025239199,1037.7440961768268,left,1,2,0.49179914505930356,F14A01,2022-12-08_09h14.56.457,t1_Paradigm,2021.1.4,60.03087073574671,
B,right,Target,0,43,43,43,1039.2411965962772,1041.2426094139726,right,1,2,0.7312890678258555,F14A01,2022-12-08_09h14.56.457,t1_Paradigm,2021.1.4,60.03087073574671,
W,left,Pretarget,0,44,44,44,1042.7408210960245,1044.7415775501856,left,1,2,0.7776528427179983,F14A01,2022-12-08_09h14.56.457,t1_Paradigm,2021.1.4,60.03087073574671,
L,left,Pretarget,0,45,45,45,1046.2399627868183,1048.2411119042083,left,1,2,0.8567873154379413,F14A01,2022-12-08_09h14.56.457,t1_Paradigm,2021.1.4,60.03087073574671,
W,right,Target,0,46,46,46,1049.7395494317773,1051.7407890156953,right,1,2,0.6543540224724893,F14A01,2022-12-08_09h14.56.457,t1_Paradigm,2021.1.4,60.03087073574671,
L,right,Target,0,47,47,47,1053.238975033484,1055.2401921611715,right,1,2,0.7863552736048405,F14A01,2022-12-08_09h14.56.457,t1_Paradigm,2021.1.4,60.03087073574671,
W,right,Target,0,48,48,48,1056.7383178679413,1058.739615196452,right,1,2,0.6696720588352036,F14A01,2022-12-08_09h14.56.457,t1_Paradigm,2021.1.4,60.03087073574671,
X,left,Distractor,0,49,49,49,1060.2377360911726,1062.2391473048513,left,1,2,0.7081957220880213,F14A01,2022-12-08_09h14.56.457,t1_Paradigm,2021.1.4,60.03087073574671,
R,left,Distractor,0,50,50,50,1063.737131858173,1065.738058979685,left,1,2,1.0813226719706108,F14A01,2022-12-08_09h14.56.457,t1_Paradigm,2021.1.4,60.03087073574671,
V,left,Pretarget,0,51,51,51,1067.23678555102,1069.2385910319442,left,1,2,0.5806241228033286,F14A01,2022-12-08_09h14.56.457,t1_Paradigm,2021.1.4,60.03087073574671,
Z,left,Distractor,0,52,52,52,1070.7359342994862,1072.737222003898,left,1,2,0.7169773913878998,F14A01,2022-12-08_09h14.56.457,t1_Paradigm,2021.1.4,60.03087073574671,
V,right,Target,0,53,53,53,1074.235501054641,1076.2371018630654,right,1,2,0.7588473537734899,F14A01,2022-12-08_09h14.56.457,t1_Paradigm,2021.1.4,60.03087073574671,
V,left,Lure,0,54,54,54,1077.7347739539807,1079.734587246465,right,0,2,0.558460465004373,F14A01,2022-12-08_09h14.56.457,t1_Paradigm,2021.1.4,60.03087073574671,
N,left,Distractor,0,55,55,55,1081.2344651808128,1083.2355857467098,left,1,2,0.6319141530393608,F14A01,2022-12-08_09h14.56.457,t1_Paradigm,2021.1.4,60.03087073574671,
B,left,Distractor,0,56,56,56,1084.7331805240322,1086.735140632143,left,1,2,0.6616991346331815,F14A01,2022-12-08_09h14.56.457,t1_Paradigm,2021.1.4,60.03087073574671,
V,left,Lure,0,57,57,57,1088.2331316015304,1090.2346483594922,left,1,2,0.6919043685388715,F14A01,2022-12-08_09h14.56.457,t1_Paradigm,2021.1.4,60.03087073574671,
J,left,Distractor,0,58,58,58,1091.7492165181613,1093.75083529157,left,1,2,0.6193312855393742,F14A01,2022-12-08_09h14.56.457,t1_Paradigm,2021.1.4,60.03087073574671,
H,left,Distractor,0,59,59,59,1095.248712375789,1097.2505900374538,left,1,2,0.7636067914054365,F14A01,2022-12-08_09h14.56.457,t1_Paradigm,2021.1.4,60.03087073574671,
X,left,Pretarget,0,60,60,60,1098.748031470803,1100.750433325046,left,1,2,1.1235519340430073,F14A01,2022-12-08_09h14.56.457,t1_Paradigm,2021.1.4,60.03087073574671,
P,left,Distractor,0,61,61,61,1102.247808352114,1104.2489693392256,left,1,2,0.669209781292011,F14A01,2022-12-08_09h14.56.457,t1_Paradigm,2021.1.4,60.03087073574671,
X,right,Target,0,62,62,62,1105.746946193268,1107.7481171252819,right,1,2,0.8543229045526459,F14A01,2022-12-08_09h14.56.457,t1_Paradigm,2021.1.4,60.03087073574671,
Q,left,Distractor,0,63,63,63,1109.2464888881761,1111.2483986301702,left,1,2,0.765239359356201,F14A01,2022-12-08_09h14.56.457,t1_Paradigm,2021.1.4,60.03087073574671,
B,left,Pretarget,0,0,0,0,1120.8526714092088,1122.862920753567,None,0,2,,F14A01,2022-12-08_09h14.56.457,t1_Paradigm,2021.1.4,60.03087073574671,
F,left,Distractor,0,1,1,1,1124.3606797821747,1126.3616396256227,None,0,2,,F14A01,2022-12-08_09h14.56.457,t1_Paradigm,2021.1.4,60.03087073574671,
B,right,Target,0,2,2,2,1127.860001443615,1129.8612955640926,right,1,2,0.7344582835416986,F14A01,2022-12-08_09h14.56.457,t1_Paradigm,2021.1.4,60.03087073574671,
V,left,Distractor,0,3,3,3,1131.3594559176179,1133.361467354255,left,1,2,0.5886679445329719,F14A01,2022-12-08_09h14.56.457,t1_Paradigm,2021.1.4,60.03087073574671,
G,left,Pretarget,0,4,4,4,1134.858907183588,1136.8600595090109,left,1,2,0.7906739275144901,F14A01,2022-12-08_09h14.56.457,t1_Paradigm,2021.1.4,60.03087073574671,
B,left,Lure,0,5,5,5,1138.3581986895185,1140.3603352394396,left,1,2,1.1947497333326282,F14A01,2022-12-08_09h14.56.457,t1_Paradigm,2021.1.4,60.03087073574671,
G,right,Target,0,6,6,6,1141.8578482119226,1143.859259746405,left,0,2,0.9926340356250876,F14A01,2022-12-08_09h14.56.457,t1_Paradigm,2021.1.4,60.03087073574671,
Y,left,Pretarget,0,7,7,7,1145.3571567204278,1147.3591601369833,left,1,2,0.5942146334423342,F14A01,2022-12-08_09h14.56.457,t1_Paradigm,2021.1.4,60.03087073574671,
P,left,Distractor,0,8,8,8,1148.856458171261,1150.8587631429098,left,1,2,0.6483306198720129,F14A01,2022-12-08_09h14.56.457,t1_Paradigm,2021.1.4,60.03087073574671,
Y,right,Target,0,9,9,9,1152.3559604449545,1154.3577793996167,right,1,2,0.8988722160293037,F14A01,2022-12-08_09h14.56.457,t1_Paradigm,2021.1.4,60.03087073574671,
X,left,Distractor,0,10,10,10,1155.8555272001092,1157.856741119764,left,1,2,0.5790733596927566,F14A01,2022-12-08_09h14.56.457,t1_Paradigm,2021.1.4,60.03087073574671,
Y,right,Target,0,11,11,11,1159.3549155886342,1161.3559418383632,left,0,2,0.8864593742728175,F14A01,2022-12-08_09h14.56.457,t1_Paradigm,2021.1.4,60.03087073574671,
N,left,Distractor,0,12,12,12,1162.854294032257,1164.8532799730526,left,1,2,0.7597253923822791,F14A01,2022-12-08_09h14.56.457,t1_Paradigm,2021.1.4,60.03087073574671,
Y,right,Target,0,13,13,13,1166.3538463512634,1168.355503621067,right,1,2,0.48964302613740074,F14A01,2022-12-08_09h14.56.457,t1_Paradigm,2021.1.4,60.03087073574671,
Y,left,Lure,0,14,14,14,1169.853252704773,1171.8527682918027,right,0,2,1.0724431576668394,F14A01,2022-12-08_09h14.56.457,t1_Paradigm,2021.1.4,60.03087073574671,
K,left,Distractor,0,15,15,15,1173.3526160706408,1175.3545716875058,left,1,2,0.7740332191806374,F14A01,2022-12-08_09h14.56.457,t1_Paradigm,2021.1.4,60.03087073574671,
T,left,Pretarget,0,16,16,16,1176.851979436509,1178.8530114606976,left,1,2,0.7355775662258566,F14A01,2022-12-08_09h14.56.457,t1_Paradigm,2021.1.4,60.03087073574671,
J,left,Distractor,0,17,17,17,1180.3513652586078,1182.3531085036932,left,1,2,0.7156980278618903,F14A01,2022-12-08_09h14.56.457,t1_Paradigm,2021.1.4,60.03087073574671,
T,right,Target,0,18,18,18,1183.8506772959493,1185.8635485656084,left,0,2,0.7591341519164416,F14A01,2022-12-08_09h14.56.457,t1_Paradigm,2021.1.4,60.03087073574671,
S,left,Pretarget,0,19,19,19,1187.3503688435846,1189.3522705654962,left,1,2,0.6982504992502072,F14A01,2022-12-08_09h14.56.457,t1_Paradigm,2021.1.4,60.03087073574671,
R,left,Distractor,0,20,20,20,1190.8499987969878,1192.8510763752436,left,1,2,0.7905982179377133,F14A01,2022-12-08_09h14.56.457,t1_Paradigm,2021.1.4,60.03087073574671,
S,right,Target,0,21,21,21,1194.349244428048,1196.350417926488,right,1,2,0.8002049933029411,F14A01,2022-12-08_09h14.56.457,t1_Paradigm,2021.1.4,60.03087073574671,
Q,left,Distractor,0,22,22,22,1197.8478503773451,1199.849414614194,left,1,2,0.6837784211666076,F14A01,2022-12-08_09h14.56.457,t1_Paradigm,2021.1.4,60.03087073574671,
D,left,Distractor,0,23,23,23,1201.3482662988124,1203.360397154475,left,1,2,0.5556803836807376,F14A01,2022-12-08_09h14.56.457,t1_Paradigm,2021.1.4,60.03087073574671,
F,left,Distractor,0,24,24,24,1204.8476210029914,1206.8485083448957,left,1,2,0.7074880300269797,F14A01,2022-12-08_09h14.56.457,t1_Paradigm,2021.1.4,60.03087073574671,
Z,left,Distractor,0,25,25,25,1208.346154771548,1210.348008693769,left,1,2,0.8026854443528464,F14A01,2022-12-08_09h14.56.457,t1_Paradigm,2021.1.4,60.03087073574671,
P,left,Distractor,0,26,26,26,1211.8464317851901,1213.8474304458366,left,1,2,0.7105764033140076,F14A01,2022-12-08_09h14.56.457,t1_Paradigm,2021.1.4,60.03087073574671,
H,left,Distractor,0,27,27,27,1215.345677095447,1217.3477405022174,left,1,2,0.7807450656441688,F14A01,2022-12-08_09h14.56.457,t1_Paradigm,2021.1.4,60.03087073574671,
Z,left,Pretarget,0,28,28,28,1218.8618040373096,1220.8632489353342,left,1,2,0.6230388091780696,F14A01,2022-12-08_09h14.56.457,t1_Paradigm,2021.1.4,60.03087073574671,
J,left,Pretarget,0,29,29,29,1222.361240546328,1224.363309727558,left,1,2,0.6120083088053434,F14A01,2022-12-08_09h14.56.457,t1_Paradigm,2021.1.4,60.03087073574671,
Z,right,Target,0,30,30,30,1225.860509916832,1227.8615477154797,right,1,2,1.1158940386731047,F14A01,2022-12-08_09h14.56.457,t1_Paradigm,2021.1.4,60.03087073574671,
J,right,Target,0,31,31,31,1229.3599923007212,1231.361229318213,right,1,2,0.7178137255687034,F14A01,2022-12-08_09h14.56.457,t1_Paradigm,2021.1.4,60.03087073574671,
V,left,Pretarget,0,32,32,32,1232.858876707275,1234.859995027549,left,1,2,0.6751375845115035,F14A01,2022-12-08_09h14.56.457,t1_Paradigm,2021.1.4,60.03087073574671,
Z,left,Lure,0,33,33,33,1236.3591046380136,1238.3609255174958,left,1,2,1.017528371040953,F14A01,2022-12-08_09h14.56.457,t1_Paradigm,2021.1.4,60.03087073574671,
V,right,Target,0,34,34,34,1239.8584603046027,1241.8599844410403,right,1,2,0.9054284728958919,F14A01,2022-12-08_09h14.56.457,t1_Paradigm,2021.1.4,60.03087073574671,
X,left,Distractor,0,35,35,35,1243.3576254140369,1245.3597783249259,left,1,2,0.6089565070938079,F14A01,2022-12-08_09h14.56.457,t1_Paradigm,2021.1.4,60.03087073574671,
S,left,Distractor,0,36,36,36,1246.8571061939094,1248.8590194647397,left,1,2,0.7006279724428168,F14A01,2022-12-08_09h14.56.457,t1_Paradigm,2021.1.4,60.03087073574671,
Q,left,Distractor,0,37,37,37,1250.356870563892,1252.357819500028,left,1,2,0.6460131368949078,F14A01,2022-12-08_09h14.56.457,t1_Paradigm,2021.1.4,60.03087073574671,
P,left,Distractor,0,38,38,38,1253.8560459390312,1255.8584298282901,left,1,2,0.9603179160621949,F14A01,2022-12-08_09h14.56.457,t1_Paradigm,2021.1.4,60.03087073574671,
S,left,Lure,0,39,39,39,1257.355627771941,1259.3563117245583,left,1,2,1.114849823959048,F14A01,2022-12-08_09h14.56.457,t1_Paradigm,2021.1.4,60.03087073574671,
K,left,Pretarget,0,40,40,40,1260.855053694451,1262.8563356244038,left,1,2,0.6507254164430378,F14A01,2022-12-08_09h14.56.457,t1_Paradigm,2021.1.4,60.03087073574671,
L,left,Distractor,0,41,41,41,1264.353840256001,1266.3561837240452,left,1,2,0.7539785222197679,F14A01,2022-12-08_09h14.56.457,t1_Paradigm,2021.1.4,60.03087073574671,
K,right,Target,0,42,42,42,1267.8537919751059,1269.8559429611748,right,1,2,0.7146390561965745,F14A01,2022-12-08_09h14.56.457,t1_Paradigm,2021.1.4,60.03087073574671,
B,left,Distractor,0,43,43,43,1271.3533519933915,1273.3552068780225,left,1,2,0.6023829268488043,F14A01,2022-12-08_09h14.56.457,t1_Paradigm,2021.1.4,60.03087073574671,
N,left,Distractor,0,44,44,44,1274.8527936352627,1276.8534804751096,left,1,2,0.690985267108772,F14A01,2022-12-08_09h14.56.457,t1_Paradigm,2021.1.4,60.03087073574671,
S,left,Pretarget,0,45,45,45,1278.3523353677608,1280.3540407580583,left,1,2,0.6832952914096495,F14A01,2022-12-08_09h14.56.457,t1_Paradigm,2021.1.4,60.03087073574671,
Z,left,Distractor,0,46,46,46,1281.851531274311,1283.8532491759368,left,1,2,0.8194493411501753,F14A01,2022-12-08_09h14.56.457,t1_Paradigm,2021.1.4,60.03087073574671,
S,right,Target,0,47,47,47,1285.3511811175183,1287.3521630963935,right,1,2,0.4750766318861679,F14A01,2022-12-08_09h14.56.457,t1_Paradigm,2021.1.4,60.03087073574671,
C,left,Distractor,0,48,48,48,1288.850474548269,1290.8511299493932,left,1,2,0.635784003144181,F14A01,2022-12-08_09h14.56.457,t1_Paradigm,2021.1.4,60.03087073574671,
T,left,Pretarget,0,49,49,49,1292.349734615477,1294.3507512411077,left,1,2,0.5521406401626336,F14A01,2022-12-08_09h14.56.457,t1_Paradigm,2021.1.4,60.03087073574671,
S,left,Lure,0,50,50,50,1295.8492083376775,1297.850902820663,left,1,2,0.7692792352049764,F14A01,2022-12-08_09h14.56.457,t1_Paradigm,2021.1.4,60.03087073574671,
T,right,Target,0,51,51,51,1299.3478736355835,1301.3507586195835,right,1,2,0.4691238060104297,F14A01,2022-12-08_09h14.56.457,t1_Paradigm,2021.1.4,60.03087073574671,
N,left,Pretarget,0,52,52,52,1302.847435578689,1304.8487909725957,left,1,2,0.6885266306830999,F14A01,2022-12-08_09h14.56.457,t1_Paradigm,2021.1.4,60.03087073574671,
B,left,Distractor,0,53,53,53,1306.3475749677193,1308.349670454819,left,1,2,0.4849400498851537,F14A01,2022-12-08_09h14.56.457,t1_Paradigm,2021.1.4,60.03087073574671,
N,right,Target,0,54,54,54,1309.8470387450177,1311.8486280045233,right,1,2,0.6539090683072573,F14A01,2022-12-08_09h14.56.457,t1_Paradigm,2021.1.4,60.03087073574671,
N,left,Lure,0,55,55,55,1313.3463600856546,1315.3460489064616,None,0,2,,F14A01,2022-12-08_09h14.56.457,t1_Paradigm,2021.1.4,60.03087073574671,
X,left,Distractor,0,56,56,56,1316.8459781693361,1318.8473775132932,left,1,2,0.7100660052769854,F14A01,2022-12-08_09h14.56.457,t1_Paradigm,2021.1.4,60.03087073574671,
W,left,Distractor,0,57,57,57,1320.3453492344831,1322.3472647509363,left,1,2,0.821222100139039,F14A01,2022-12-08_09h14.56.457,t1_Paradigm,2021.1.4,60.03087073574671,
S,left,Distractor,0,58,58,58,1323.8614732891162,1325.8629691948638,left,1,2,0.8963234338784787,F14A01,2022-12-08_09h14.56.457,t1_Paradigm,2021.1.4,60.03087073574671,
L,left,Distractor,0,59,59,59,1327.3606188295491,1329.3632276019155,left,1,2,0.656760047158059,F14A01,2022-12-08_09h14.56.457,t1_Paradigm,2021.1.4,60.03087073574671,
K,left,Pretarget,0,60,60,60,1330.8602215146727,1332.8612195337125,left,1,2,0.541695926599914,F14A01,2022-12-08_09h14.56.457,t1_Paradigm,2021.1.4,60.03087073574671,
V,left,Pretarget,0,61,61,61,1334.3596670061836,1336.3605639721866,left,1,2,0.526780177564433,F14A01,2022-12-08_09h14.56.457,t1_Paradigm,2021.1.4,60.03087073574671,
K,right,Target,0,62,62,62,1337.8592427438305,1339.8602009832623,right,1,2,0.8016364175896342,F14A01,2022-12-08_09h14.56.457,t1_Paradigm,2021.1.4,60.03087073574671,
V,right,Target,0,63,63,63,1341.3583151411133,1343.3601735545806,right,1,2,0.7821059132065784,F14A01,2022-12-08_09h14.56.457,t1_Paradigm,2021.1.4,60.03087073574671,
R,left,Distractor,0,0,0,0,1430.609975699151,1432.5957637925364,None,0,3,,F14A01,2022-12-08_09h14.56.457,t1_Paradigm,2021.1.4,60.03087073574671,
P,left,Lure,0,1,1,1,1434.0935273123903,1436.0941827135146,None,0,3,,F14A01,2022-12-08_09h14.56.457,t1_Paradigm,2021.1.4,60.03087073574671,
V,left,Distractor,0,2,2,2,1437.592641414101,1439.5944866746333,None,0,3,,F14A01,2022-12-08_09h14.56.457,t1_Paradigm,2021.1.4,60.03087073574671,
P,left,Pretarget,0,3,3,3,1441.0922918989152,1443.0937971079586,None,0,3,,F14A01,2022-12-08_09h14.56.457,t1_Paradigm,2021.1.4,60.03087073574671,
Z,left,Distractor,0,4,4,4,1444.5914942215306,1446.5935428713499,None,0,3,,F14A01,2022-12-08_09h14.56.457,t1_Paradigm,2021.1.4,60.03087073574671,
L,left,Pretarget,0,5,5,5,1448.0909891167482,1450.0922870868656,left,1,3,0.6420608403441292,F14A01,2022-12-08_09h14.56.457,t1_Paradigm,2021.1.4,60.03087073574671,
P,right,Target,0,6,6,6,1451.5905144882788,1453.5912828121616,left,0,3,0.8030604634000156,F14A01,2022-12-08_09h14.56.457,t1_Paradigm,2021.1.4,60.03087073574671,
S,left,Distractor,0,7,7,7,1455.0899567717568,1457.091973982853,left,1,3,0.9668026337949414,F14A01,2022-12-08_09h14.56.457,t1_Paradigm,2021.1.4,60.03087073574671,
L,right,Target,0,8,8,8,1458.589383335873,1460.590422417734,right,1,3,0.8433283341487368,F14A01,2022-12-08_09h14.56.457,t1_Paradigm,2021.1.4,60.03087073574671,
D,left,Distractor,0,9,9,9,1462.0885728263572,1464.0908322439388,left,1,3,0.6443154458761455,F14A01,2022-12-08_09h14.56.457,t1_Paradigm,2021.1.4,60.03087073574671,
G,left,Distractor,0,10,10,10,1465.588186418793,1467.6002807028801,left,1,3,0.5710401244718923,F14A01,2022-12-08_09h14.56.457,t1_Paradigm,2021.1.4,60.03087073574671,
M,left,Pretarget,0,11,11,11,1469.087536952529,1471.0894656219173,left,1,3,0.7256538372084833,F14A01,2022-12-08_09h14.56.457,t1_Paradigm,2021.1.4,60.03087073574671,
Y,left,Distractor,0,12,12,12,1472.587115577406,1474.5890516252696,left,1,3,0.7722550065363976,F14A01,2022-12-08_09h14.56.457,t1_Paradigm,2021.1.4,60.03087073574671,
V,left,Distractor,0,13,13,13,1476.0863458099082,1478.0876133037125,left,1,3,0.8725140551941877,F14A01,2022-12-08_09h14.56.457,t1_Paradigm,2021.1.4,60.03087073574671,
M,right,Target,0,14,14,14,1479.5851314090485,1481.5847814126575,right,1,3,1.4430149093332147,F14A01,2022-12-08_09h14.56.457,t1_Paradigm,2021.1.4,60.03087073574671,
S,left,Pretarget,0,15,15,15,1483.0851957301081,1485.0865036451276,left,1,3,0.7946024846214641,F14A01,2022-12-08_09h14.56.457,t1_Paradigm,2021.1.4,60.03087073574671,
Q,left,Distractor,0,16,16,16,1486.584603687634,1488.5858317226337,left,1,3,0.6785130767439114,F14A01,2022-12-08_09h14.56.457,t1_Paradigm,2021.1.4,60.03087073574671,
R,left,Pretarget,0,17,17,17,1490.0841450993287,1492.0855190998261,left,1,3,0.745119860129762,F14A01,2022-12-08_09h14.56.457,t1_Paradigm,2021.1.4,60.03087073574671,
S,right,Target,0,18,18,18,1493.583301867877,1495.5854608740285,right,1,3,0.5469789152034537,F14A01,2022-12-08_09h14.56.457,t1_Paradigm,2021.1.4,60.03087073574671,
F,left,Distractor,0,19,19,19,1497.083109225501,1499.0849865663624,left,1,3,0.5686074731129338,F14A01,2022-12-08_09h14.56.457,t1_Paradigm,2021.1.4,60.03087073574671,
R,right,Target,0,20,20,20,1500.5823763503815,1502.5812990929287,right,1,3,0.6267027035696628,F14A01,2022-12-08_09h14.56.457,t1_Paradigm,2021.1.4,60.03087073574671,
P,left,Distractor,0,21,21,21,1504.0817599268569,1506.083777458757,left,1,3,0.698596966804871,F14A01,2022-12-08_09h14.56.457,t1_Paradigm,2021.1.4,60.03087073574671,
L,left,Distractor,0,22,22,22,1507.5814396047706,1509.58310136582,left,1,3,0.8760483450560059,F14A01,2022-12-08_09h14.56.457,t1_Paradigm,2021.1.4,60.03087073574671,
R,right,Target,0,23,23,23,1511.080081484036,1513.0831945591765,left,0,3,1.0769023234179258,F14A01,2022-12-08_09h14.56.457,t1_Paradigm,2021.1.4,60.03087073574671,
H,left,Pretarget,0,24,24,24,1514.5801345769808,1516.5821136124857,left,1,3,0.6473585858993829,F14A01,2022-12-08_09h14.56.457,t1_Paradigm,2021.1.4,60.03087073574671,
G,left,Pretarget,0,25,25,25,1518.0789416699415,1520.0815427430286,left,1,3,0.5873378940868861,F14A01,2022-12-08_09h14.56.457,t1_Paradigm,2021.1.4,60.03087073574671,
T,left,Distractor,0,26,26,26,1521.5790108030508,1523.5778283221186,left,1,3,0.6493536615685116,F14A01,2022-12-08_09h14.56.457,t1_Paradigm,2021.1.4,60.03087073574671,
H,right,Target,0,27,27,27,1525.07849414935,1527.079177460361,right,1,3,0.7552261262203501,F14A01,2022-12-08_09h14.56.457,t1_Paradigm,2021.1.4,60.03087073574671,
G,right,Target,0,28,28,28,1528.5780429395206,1530.578709247957,right,1,3,0.703805208241647,F14A01,2022-12-08_09h14.56.457,t1_Paradigm,2021.1.4,60.03087073574671,
D,left,Distractor,0,29,29,29,1532.0940117253606,1534.0955522227657,left,1,3,0.6559593221427349,F14A01,2022-12-08_09h14.56.457,t1_Paradigm,2021.1.4,60.03087073574671,
N,left,Pretarget,0,30,30,30,1535.5934706906094,1537.5945460232422,left,1,3,0.5597311668420843,F14A01,2022-12-08_09h14.56.457,t1_Paradigm,2021.1.4,60.03087073574671,
V,left,Distractor,0,31,31,31,1539.092598266058,1541.094978947284,left,1,3,0.7116289589130247,F14A01,2022-12-08_09h14.56.457,t1_Paradigm,2021.1.4,60.03087073574671,
R,left,Distractor,0,32,32,32,1542.5920511360448,1544.6049846415424,None,0,3,,F14A01,2022-12-08_09h14.56.457,t1_Paradigm,2021.1.4,60.03087073574671,
N,right,Target,0,33,33,33,1546.0915463520657,1548.0930137063208,right,1,3,1.115228692646724,F14A01,2022-12-08_09h14.56.457,t1_Paradigm,2021.1.4,60.03087073574671,
Z,left,Distractor,0,34,34,34,1549.5910104501675,1551.592146093819,left,1,3,1.219363686671386,F14A01,2022-12-08_09h14.56.457,t1_Paradigm,2021.1.4,60.03087073574671,
N,left,Lure,0,35,35,35,1553.0905454457964,1555.0920468052002,None,0,3,,F14A01,2022-12-08_09h14.56.457,t1_Paradigm,2021.1.4,60.03087073574671,
Y,left,Pretarget,0,36,36,36,1556.590349595387,1558.591991787436,left,1,3,0.8506179473401971,F14A01,2022-12-08_09h14.56.457,t1_Paradigm,2021.1.4,60.03087073574671,
Y,left,Lure,0,37,37,37,1560.0892417012199,1562.0890274046212,left,1,3,1.009836791325597,F14A01,2022-12-08_09h14.56.457,t1_Paradigm,2021.1.4,60.03087073574671,
B,left,Distractor,0,38,38,38,1563.5888081355718,1565.590023980046,left,1,3,0.757283437728347,F14A01,2022-12-08_09h14.56.457,t1_Paradigm,2021.1.4,60.03087073574671,
Y,right,Target,0,39,39,39,1567.088410499892,1569.0898685508516,right,1,3,0.5013876346370125,F14A01,2022-12-08_09h14.56.457,t1_Paradigm,2021.1.4,60.03087073574671,
J,left,Distractor,0,40,40,40,1570.5875489826528,1572.5897381443135,left,1,3,0.9185371369908353,F14A01,2022-12-08_09h14.56.457,t1_Paradigm,2021.1.4,60.03087073574671,
X,left,Distractor,0,41,41,41,1574.0873213727175,1576.0889308428307,left,1,3,0.7453562921555204,F14A01,2022-12-08_09h14.56.457,t1_Paradigm,2021.1.4,60.03087073574671,
W,left,Pretarget,0,42,42,42,1577.5863992236561,1579.588367351849,left,1,3,0.6372250515287305,F14A01,2022-12-08_09h14.56.457,t1_Paradigm,2021.1.4,60.03087073574671,
S,left,Pretarget,0,43,43,43,1581.0858248253628,1583.0870255920825,left,1,3,1.0478574350172494,F14A01,2022-12-08_09h14.56.457,t1_Paradigm,2021.1.4,60.03087073574671,
R,left,Distractor,0,44,44,44,1584.585483330259,1586.5868249296238,left,1,3,0.8410300993687088,F14A01,2022-12-08_09h14.56.457,t1_Paradigm,2021.1.4,60.03087073574671,
W,right,Target,0,45,45,45,1588.085153384074,1590.086377569434,right,1,3,0.5125028270790608,F14A01,2022-12-08_09h14.56.457,t1_Paradigm,2021.1.4,60.03087073574671,
S,right,Target,0,46,46,46,1591.5842982829006,1593.5860299790677,right,1,3,0.8356720427955224,F14A01,2022-12-08_09h14.56.457,t1_Paradigm,2021.1.4,60.03087073574671,
D,left,Distractor,0,47,47,47,1595.0835920344546,1597.0848011420596,left,1,3,0.7362551027772497,F14A01,2022-12-08_09h14.56.457,t1_Paradigm,2021.1.4,60.03087073574671,
T,left,Distractor,0,48,48,48,1598.5829537963061,1600.5842081371754,left,1,3,0.6361105808946377,F14A01,2022-12-08_09h14.56.457,t1_Paradigm,2021.1.4,60.03087073574671,
S,right,Target,0,49,49,49,1602.0822565303522,1604.084315125073,right,1,3,0.6290750439102339,F14A01,2022-12-08_09h14.56.457,t1_Paradigm,2021.1.4,60.03087073574671,
K,left,Distractor,0,50,50,50,1605.5821421639787,1607.5839088277046,left,1,3,0.7041163874341692,F14A01,2022-12-08_09h14.56.457,t1_Paradigm,2021.1.4,60.03087073574671,
S,left,Lure,0,51,51,51,1609.0811459093572,1611.0821811415788,left,1,3,1.3960435330063774,F14A01,2022-12-08_09h14.56.457,t1_Paradigm,2021.1.4,60.03087073574671,
T,left,Pretarget,0,52,52,52,1612.5807620682187,1614.5796527304371,None,0,3,,F14A01,2022-12-08_09h14.56.457,t1_Paradigm,2021.1.4,60.03087073574671,
V,left,Distractor,0,53,53,53,1616.0802479809443,1618.0822805905989,left,1,3,0.9131094661029238,F14A01,2022-12-08_09h14.56.457,t1_Paradigm,2021.1.4,60.03087073574671,
B,left,Distractor,0,54,54,54,1619.5797091918164,1621.5810642649196,left,1,3,0.7319200879001073,F14A01,2022-12-08_09h14.56.457,t1_Paradigm,2021.1.4,60.03087073574671,
T,right,Target,0,55,55,55,1623.0791704026885,1625.0801366622024,left,0,3,0.4733324243907191,F14A01,2022-12-08_09h14.56.457,t1_Paradigm,2021.1.4,60.03087073574671,
Y,left,Pretarget,0,56,56,56,1626.5784911017188,1628.579661392126,left,1,3,0.6787950628372528,F14A01,2022-12-08_09h14.56.457,t1_Paradigm,2021.1.4,60.03087073574671,
T,left,Lure,0,57,57,57,1630.077947179738,1632.090264422113,right,0,3,0.9259172167103316,F14A01,2022-12-08_09h14.56.457,t1_Paradigm,2021.1.4,60.03087073574671,
P,left,Pretarget,0,58,58,58,1633.5942207287046,1635.595624563908,left,1,3,0.6894746044094973,F14A01,2022-12-08_09h14.56.457,t1_Paradigm,2021.1.4,60.03087073574671,
Y,right,Target,0,59,59,59,1637.0933614570888,1639.0953635904305,right,1,3,0.7931822884502253,F14A01,2022-12-08_09h14.56.457,t1_Paradigm,2021.1.4,60.03087073574671,
R,left,Distractor,0,60,60,60,1640.5927456751708,1642.5950272281796,left,1,3,1.2471606502685972,F14A01,2022-12-08_09h14.56.457,t1_Paradigm,2021.1.4,60.03087073574671,
P,right,Target,0,61,61,61,1644.0925142155959,1646.0934785502902,right,1,3,1.074541211192809,F14A01,2022-12-08_09h14.56.457,t1_Paradigm,2021.1.4,60.03087073574671,
L,left,Distractor,0,62,62,62,1647.5918307441837,1649.593582330155,left,1,3,1.0389833743697636,F14A01,2022-12-08_09h14.56.457,t1_Paradigm,2021.1.4,60.03087073574671,
V,left,Distractor,0,63,63,63,1651.0912188119053,1653.0926332336169,left,1,3,1.085855622478448,F14A01,2022-12-08_09h14.56.457,t1_Paradigm,2021.1.4,60.03087073574671,
H,left,Lure,0,0,0,0,1659.1439319255417,1661.1417921675877,None,0,3,,F14A01,2022-12-08_09h14.56.457,t1_Paradigm,2021.1.4,60.03087073574671,
B,left,Distractor,0,1,1,1,1662.6392105030998,1664.640085654479,None,0,3,,F14A01,2022-12-08_09h14.56.457,t1_Paradigm,2021.1.4,60.03087073574671,
T,left,Distractor,0,2,2,2,1666.138564886476,1668.1392934307507,None,0,3,,F14A01,2022-12-08_09h14.56.457,t1_Paradigm,2021.1.4,60.03087073574671,
R,left,Distractor,0,3,3,3,1669.6380806339073,1671.6400728223473,left,1,3,1.0078978562319207,F14A01,2022-12-08_09h14.56.457,t1_Paradigm,2021.1.4,60.03087073574671,
H,left,Pretarget,0,4,4,4,1673.1375649426166,1675.1396889812092,left,1,3,1.2504055755612171,F14A01,2022-12-08_09h14.56.457,t1_Paradigm,2021.1.4,60.03087073574671,
K,left,Distractor,0,5,5,5,1676.636786834233,1678.6388839253493,None,0,3,,F14A01,2022-12-08_09h14.56.457,t1_Paradigm,2021.1.4,60.03087073574671,
G,left,Distractor,0,6,6,6,1680.1363863113236,1682.1381670903945,left,1,3,1.1081796819235024,F14A01,2022-12-08_09h14.56.457,t1_Paradigm,2021.1.4,60.03087073574671,
H,right,Target,0,7,7,7,1683.6357942688494,1685.6371929712002,right,1,3,1.2325573636385343,F14A01,2022-12-08_09h14.56.457,t1_Paradigm,2021.1.4,60.03087073574671,
Y,left,Pretarget,0,8,8,8,1687.135284993624,1689.1371087603359,left,1,3,0.42727790387107234,F14A01,2022-12-08_09h14.56.457,t1_Paradigm,2021.1.4,60.03087073574671,
S,left,Distractor,0,9,9,9,1690.634727277102,1692.6358289156049,left,1,3,0.6784559737579912,F14A01,2022-12-08_09h14.56.457,t1_Paradigm,2021.1.4,60.03087073574671,
P,left,Distractor,0,10,10,10,1694.1339854194905,1696.1354806836318,left,1,3,0.7044038271833415,F14A01,2022-12-08_09h14.56.457,t1_Paradigm,2021.1.4,60.03087073574671,
Y,right,Target,0,11,11,11,1697.6335858589912,1699.634863618501,right,1,3,1.089458885048316,F14A01,2022-12-08_09h14.56.457,t1_Paradigm,2021.1.4,60.03087073574671,
H,left,Lure,0,12,12,12,1701.1329110492672,1703.1351156094863,left,1,3,0.6094043484886242,F14A01,2022-12-08_09h14.56.457,t1_Paradigm,2021.1.4,60.03087073574671,
Q,left,Distractor,0,13,13,13,1704.632480691652,1706.6343602781365,left,1,3,0.6523871774925283,F14A01,2022-12-08_09h14.56.457,t1_Paradigm,2021.1.4,60.03087073574671,
V,left,Pretarget,0,14,14,14,1708.1316948839897,1710.1333922542046,left,1,3,0.5448343452003428,F14A01,2022-12-08_09h14.56.457,t1_Paradigm,2021.1.4,60.03087073574671,
G,left,Distractor,0,15,15,15,1711.6312196139131,1713.633112353333,left,1,3,0.9539217400370035,F14A01,2022-12-08_09h14.56.457,t1_Paradigm,2021.1.4,60.03087073574671,
Z,left,Pretarget,0,16,16,16,1715.1306647846206,1717.1320346146751,left,1,3,0.6752742467137978,F14A01,2022-12-08_09h14.56.457,t1_Paradigm,2021.1.4,60.03087073574671,
V,right,Target,0,17,17,17,1718.6299806716017,1720.6314441762172,left,0,3,0.5178833398831557,F14A01,2022-12-08_09h14.56.457,t1_Paradigm,2021.1.4,60.03087073574671,
N,left,Distractor,0,18,18,18,1722.1296006801028,1724.1306779375557,left,1,3,0.5648239190932145,F14A01,2022-12-08_09h14.56.457,t1_Paradigm,2021.1.4,60.03087073574671,
Z,right,Target,0,19,19,19,1725.628831875015,1727.630960725657,right,1,3,0.6877852542770597,F14A01,2022-12-08_09h14.56.457,t1_Paradigm,2021.1.4,60.03087073574671,
R,left,Distractor,0,20,20,20,1729.1284047254323,1731.1296982043038,left,1,3,0.9227367728790341,F14A01,2022-12-08_09h14.56.457,t1_Paradigm,2021.1.4,60.03087073574671,
P,left,Distractor,0,21,21,21,1732.6279868791455,1734.6292842076562,left,1,3,0.7902074795288172,F14A01,2022-12-08_09h14.56.457,t1_Paradigm,2021.1.4,60.03087073574671,
Z,right,Target,0,22,22,22,1736.1272963500608,1738.1290017403578,right,1,3,0.5672472671571995,F14A01,2022-12-08_09h14.56.457,t1_Paradigm,2021.1.4,60.03087073574671,
D,left,Pretarget,0,23,23,23,1739.626815305525,1741.628599292629,left,1,3,0.7403735754332956,F14A01,2022-12-08_09h14.56.457,t1_Paradigm,2021.1.4,60.03087073574671,
K,left,Distractor,0,24,24,24,1743.1260327058956,1745.1274407115418,left,1,3,0.9667035055781525,F14A01,2022-12-08_09h14.56.457,t1_Paradigm,2021.1.4,60.03087073574671,
W,left,Distractor,0,25,25,25,1746.625505465686,1748.6272583348707,left,1,3,0.7726204014852556,F14A01,2022-12-08_09h14.56.457,t1_Paradigm,2021.1.4,60.03087073574671,
D,right,Target,0,26,26,26,1750.124957694066,1752.1264744520279,left,0,3,0.648675804213326,F14A01,2022-12-08_09h14.56.457,t1_Paradigm,2021.1.4,60.03087073574671,
G,left,Pretarget,0,27,27,27,1753.6409768460223,1755.6420743140827,left,1,3,0.8908123541345958,F14A01,2022-12-08_09h14.56.457,t1_Paradigm,2021.1.4,60.03087073574671,
V,left,Distractor,0,28,28,28,1757.1404393401078,1759.1418470249507,left,1,3,0.8680311499992968,F14A01,2022-12-08_09h14.56.457,t1_Paradigm,2021.1.4,60.03087073574671,
D,right,Target,0,29,29,29,1760.640101053037,1762.64186450873,right,1,3,0.9709868711252057,F14A01,2022-12-08_09h14.56.457,t1_Paradigm,2021.1.4,60.03087073574671,
G,right,Target,0,30,30,30,1764.1392536511423,1766.1416247082695,left,0,3,1.396426251333196,F14A01,2022-12-08_09h14.56.457,t1_Paradigm,2021.1.4,60.03087073574671,
B,left,Pretarget,0,31,31,31,1767.637816933602,1769.6393824536642,left,1,3,0.8574298844305304,F14A01,2022-12-08_09h14.56.457,t1_Paradigm,2021.1.4,60.03087073574671,
N,left,Distractor,0,32,32,32,1771.138174148067,1773.140084210864,left,1,3,0.7077141963477516,F14A01,2022-12-08_09h14.56.457,t1_Paradigm,2021.1.4,60.03087073574671,
F,left,Distractor,0,33,33,33,1774.637452821866,1776.6397404701372,left,1,3,1.223198569217402,F14A01,2022-12-08_09h14.56.457,t1_Paradigm,2021.1.4,60.03087073574671,
B,right,Target,0,34,34,34,1778.1370965698109,1780.1390525074787,right,1,3,0.4994320177725058,F14A01,2022-12-08_09h14.56.457,t1_Paradigm,2021.1.4,60.03087073574671,
Q,left,Pretarget,0,35,35,35,1781.6362328069488,1783.637465974801,left,1,3,0.6125183860385732,F14A01,2022-12-08_09h14.56.457,t1_Paradigm,2021.1.4,60.03087073574671,
S,left,Pretarget,0,36,36,36,1785.135788654792,1787.1376653540467,left,1,3,0.715165173594869,F14A01,2022-12-08_09h14.56.457,t1_Paradigm,2021.1.4,60.03087073574671,
W,left,Distractor,0,37,37,37,1788.6353740165375,1790.6362575088021,left,1,3,0.767075958199257,F14A01,2022-12-08_09h14.56.457,t1_Paradigm,2021.1.4,60.03087073574671,
Q,right,Target,0,38,38,38,1792.1348714781814,1794.1359689462413,right,1,3,0.6667880372456239,F14A01,2022-12-08_09h14.56.457,t1_Paradigm,2021.1.4,60.03087073574671,
S,right,Target,0,39,39,39,1795.634153680817,1797.6357933064394,right,1,3,0.6767422425755285,F14A01,2022-12-08_09h14.56.457,t1_Paradigm,2021.1.4,60.03087073574671,
T,left,Distractor,0,40,40,40,1799.1334990817006,1801.1325148572025,left,1,3,0.7468570099531462,F14A01,2022-12-08_09h14.56.457,t1_Paradigm,2021.1.4,60.03087073574671,
G,left,Distractor,0,41,41,41,1802.6329217961777,1804.634725352282,left,1,3,0.9169911859298736,F14A01,2022-12-08_09h14.56.457,t1_Paradigm,2021.1.4,60.03087073574671,
D,left,Distractor,0,42,42,42,1806.1324523005608,1808.1332004138364,left,1,3,1.2093289597150942,F14A01,2022-12-08_09h14.56.457,t1_Paradigm,2021.1.4,60.03087073574671,
S,left,Lure,0,43,43,43,1809.6317787740502,1811.6333638631133,left,1,3,1.2799749773434996,F14A01,2022-12-08_09h14.56.457,t1_Paradigm,2021.1.4,60.03087073574671,
Z,left,Pretarget,0,44,44,44,1813.1311594632964,1815.1319223335233,left,1,3,0.9524806916519992,F14A01,2022-12-08_09h14.56.457,t1_Paradigm,2021.1.4,60.03087073574671,
J,left,Distractor,0,45,45,45,1816.630612654086,1818.6319099825967,left,1,3,1.0270097123197957,F14A01,2022-12-08_09h14.56.457,t1_Paradigm,2021.1.4,60.03087073574671,
M,left,Pretarget,0,46,46,46,1820.1301938453892,1822.132586075533,left,1,3,0.9097496932322429,F14A01,2022-12-08_09h14.56.457,t1_Paradigm,2021.1.4,60.03087073574671,
Z,right,Target,0,47,47,47,1823.629107765846,1825.631099633482,right,1,3,0.6801831786792718,F14A01,2022-12-08_09h14.56.457,t1_Paradigm,2021.1.4,60.03087073574671,
P,left,Distractor,0,48,48,48,1827.1291165879363,1829.1307664792641,left,1,3,0.6737821906053796,F14A01,2022-12-08_09h14.56.457,t1_Paradigm,2021.1.4,60.03087073574671,
M,right,Target,0,49,49,49,1830.6283474620452,1832.6292373703757,right,1,3,0.7092158765549357,F14A01,2022-12-08_09h14.56.457,t1_Paradigm,2021.1.4,60.03087073574671,
K,left,Distractor,0,50,50,50,1834.1278423572628,1836.1296308356125,left,1,3,0.7797104750297876,F14A01,2022-12-08_09h14.56.457,t1_Paradigm,2021.1.4,60.03087073574671,
Y,left,Distractor,0,51,51,51,1837.6273013225116,1839.6284722545254,left,1,3,1.0797808913521294,F14A01,2022-12-08_09h14.56.457,t1_Paradigm,2021.1.4,60.03087073574671,
X,left,Distractor,0,52,52,52,1841.1265854499668,1843.1275709576782,left,1,3,1.412440110035277,F14A01,2022-12-08_09h14.56.457,t1_Paradigm,2021.1.4,60.03087073574671,
F,left,Pretarget,0,53,53,53,1844.6261473930724,1846.6277716201369,left,1,3,0.8710771772521184,F14A01,2022-12-08_09h14.56.457,t1_Paradigm,2021.1.4,60.03087073574671,
M,left,Lure,0,54,54,54,1848.1254279916914,1850.1274910776585,left,1,3,0.8115912645262142,F14A01,2022-12-08_09h14.56.457,t1_Paradigm,2021.1.4,60.03087073574671,
V,left,Distractor,0,55,55,55,1851.6415183619786,1853.6428298058338,left,1,3,0.9890862720253608,F14A01,2022-12-08_09h14.56.457,t1_Paradigm,2021.1.4,60.03087073574671,
F,right,Target,0,56,56,56,1855.140978931244,1857.1430609446054,right,1,3,1.243321918082529,F14A01,2022-12-08_09h14.56.457,t1_Paradigm,2021.1.4,60.03087073574671,
S,left,Distractor,0,57,57,57,1858.6407179577661,1860.6424422754578,left,1,3,1.0371422842795255,F14A01,2022-12-08_09h14.56.457,t1_Paradigm,2021.1.4,60.03087073574671,
D,left,Distractor,0,58,58,58,1862.139754745884,1864.142103988387,left,1,3,0.9695801486923301,F14A01,2022-12-08_09h14.56.457,t1_Paradigm,2021.1.4,60.03087073574671,
F,right,Target,0,59,59,59,1865.6395287399648,1867.6411959546706,right,1,3,0.7353979163826807,F14A01,2022-12-08_09h14.56.457,t1_Paradigm,2021.1.4,60.03087073574671,
V,left,Pretarget,0,60,60,60,1869.1381735064604,1871.137607609454,left,1,3,0.9810424502957176,F14A01,2022-12-08_09h14.56.457,t1_Paradigm,2021.1.4,60.03087073574671,
J,left,Distractor,0,61,61,61,1872.6383042338014,1874.639346202892,left,1,3,1.041888889780239,F14A01,2022-12-08_09h14.56.457,t1_Paradigm,2021.1.4,60.03087073574671,
V,left,Lure,0,62,62,62,1876.1375893236666,1878.1388369276672,None,0,3,,F14A01,2022-12-08_09h14.56.457,t1_Paradigm,2021.1.4,60.03087073574671,
V,right,Target,0,63,63,63,1879.6373552976654,1881.6366761570973,right,1,3,0.5742375708778127,F14A01,2022-12-08_09h14.56.457,t1_Paradigm,2021.1.4,60.03087073574671,
R,left,Distractor,0,0,0,0,1942.2998721598885,1944.292420861838,None,0,4,,F14A01,2022-12-08_09h14.56.457,t1_Paradigm,2021.1.4,60.03087073574671,
F,left,Distractor,0,1,1,1,1945.7931216566283,1947.7943028543475,None,0,4,,F14A01,2022-12-08_09h14.56.457,t1_Paradigm,2021.1.4,60.03087073574671,
P,left,Pretarget,0,2,2,2,1949.2924138041656,1951.2935058185697,None,0,4,,F14A01,2022-12-08_09h14.56.457,t1_Paradigm,2021.1.4,60.03087073574671,
H,left,Distractor,0,3,3,3,1952.7916950443912,1954.7931794012209,None,0,4,,F14A01,2022-12-08_09h14.56.457,t1_Paradigm,2021.1.4,60.03087073574671,
Z,left,Distractor,0,4,4,4,1956.2912852181864,1958.2923858942793,left,1,4,0.5490436051873075,F14A01,2022-12-08_09h14.56.457,t1_Paradigm,2021.1.4,60.03087073574671,
T,left,Distractor,0,5,5,5,1959.7905314908533,1961.7925631380979,left,1,4,0.9701486121243761,F14A01,2022-12-08_09h14.56.457,t1_Paradigm,2021.1.4,60.03087073574671,
P,right,Target,0,6,6,6,1963.2899984761846,1965.2911167964583,right,1,4,0.5696353268585881,F14A01,2022-12-08_09h14.56.457,t1_Paradigm,2021.1.4,60.03087073574671,
G,left,Distractor,0,7,7,7,1966.789325912084,1968.7903669187647,left,1,4,0.6328585979294985,F14A01,2022-12-08_09h14.56.457,t1_Paradigm,2021.1.4,60.03087073574671,
L,left,Distractor,0,8,8,8,1970.2890617305736,1972.2900482006946,left,1,4,0.6263280053253766,F14A01,2022-12-08_09h14.56.457,t1_Paradigm,2021.1.4,60.03087073574671,
P,left,Lure,0,9,9,9,1973.7884632720331,1975.7902940964175,right,0,4,0.5950204913106063,F14A01,2022-12-08_09h14.56.457,t1_Paradigm,2021.1.4,60.03087073574671,
Q,left,Pretarget,0,10,10,10,1977.2878654550998,1979.2884188407772,left,1,4,0.6429295756574902,F14A01,2022-12-08_09h14.56.457,t1_Paradigm,2021.1.4,60.03087073574671,
D,left,Distractor,0,11,11,11,1980.7871264847179,1982.7889313240355,left,1,4,1.2394097219439573,F14A01,2022-12-08_09h14.56.457,t1_Paradigm,2021.1.4,60.03087073574671,
M,left,Pretarget,0,12,12,12,1984.2866370992967,1986.2855162125963,left,1,4,0.5471733219983435,F14A01,2022-12-08_09h14.56.457,t1_Paradigm,2021.1.4,60.03087073574671,
C,left,Distractor,0,13,13,13,1987.7860736083155,1989.787317362676,left,1,4,0.6486251172937045,F14A01,2022-12-08_09h14.56.457,t1_Paradigm,2021.1.4,60.03087073574671,
Q,right,Target,0,14,14,14,1991.2857510406059,1993.2862405864287,right,1,4,0.9120771211114516,F14A01,2022-12-08_09h14.56.457,t1_Paradigm,2021.1.4,60.03087073574671,
R,left,Distractor,0,15,15,15,1994.7850810429316,1996.7868390449687,left,1,4,0.7169222132215509,F14A01,2022-12-08_09h14.56.457,t1_Paradigm,2021.1.4,60.03087073574671,
M,right,Target,0,16,16,16,1998.2842281873811,2000.2862704211345,right,1,4,0.4258407051256654,F14A01,2022-12-08_09h14.56.457,t1_Paradigm,2021.1.4,60.03087073574671,
S,left,Distractor,0,17,17,17,2001.7837590125675,2003.7851795295421,left,1,4,0.7217993856615976,F14A01,2022-12-08_09h14.56.457,t1_Paradigm,2021.1.4,60.03087073574671,
Z,left,Distractor,0,18,18,18,2005.283125907272,2007.2842278665778,left,1,4,0.9777859760843057,F14A01,2022-12-08_09h14.56.457,t1_Paradigm,2021.1.4,60.03087073574671,
L,left,Pretarget,0,19,19,19,2008.7820132010554,2010.7815618308243,left,1,4,0.7242105432001154,F14A01,2022-12-08_09h14.56.457,t1_Paradigm,2021.1.4,60.03087073574671,
M,right,Target,0,20,20,20,2012.281949521602,2014.2829106482634,left,0,4,0.6227731840526758,F14A01,2022-12-08_09h14.56.457,t1_Paradigm,2021.1.4,60.03087073574671,
P,left,Distractor,0,21,21,21,2015.7814136197037,2017.7822708060987,left,1,4,0.6977487629019379,F14A01,2022-12-08_09h14.56.457,t1_Paradigm,2021.1.4,60.03087073574671,
F,left,Distractor,0,22,22,22,2019.2802159006153,2021.2826260957438,left,1,4,0.7028828987786255,F14A01,2022-12-08_09h14.56.457,t1_Paradigm,2021.1.4,60.03087073574671,
L,right,Target,0,23,23,23,2022.7804701372236,2024.7820523390571,right,1,4,0.7536856288143099,F14A01,2022-12-08_09h14.56.457,t1_Paradigm,2021.1.4,60.03087073574671,
L,left,Lure,0,24,24,24,2026.27969395366,2028.279321821842,right,0,4,0.7316595956272067,F14A01,2022-12-08_09h14.56.457,t1_Paradigm,2021.1.4,60.03087073574671,
V,left,Pretarget,0,25,25,25,2029.7791808287955,2031.781282731961,left,1,4,0.6547739539805661,F14A01,2022-12-08_09h14.56.457,t1_Paradigm,2021.1.4,60.03087073574671,
Z,left,Distractor,0,26,26,26,2033.278610600945,2035.2794401982567,left,1,4,1.2001462863008783,F14A01,2022-12-08_09h14.56.457,t1_Paradigm,2021.1.4,60.03087073574671,
H,left,Distractor,0,27,27,27,2036.777965305124,2038.779583436926,left,1,4,0.8147117181424619,F14A01,2022-12-08_09h14.56.457,t1_Paradigm,2021.1.4,60.03087073574671,
X,left,Distractor,0,28,28,28,2040.2774836189822,2042.2794960180292,left,1,4,0.6695045995170403,F14A01,2022-12-08_09h14.56.457,t1_Paradigm,2021.1.4,60.03087073574671,
V,right,Target,0,29,29,29,2043.776764217601,2045.7787795038778,right,1,4,1.026837440952022,F14A01,2022-12-08_09h14.56.457,t1_Paradigm,2021.1.4,60.03087073574671,
C,left,Distractor,0,30,30,30,2047.2930047238285,2049.2943187341107,left,1,4,0.6909066703024109,F14A01,2022-12-08_09h14.56.457,t1_Paradigm,2021.1.4,60.03087073574671,
S,left,Pretarget,0,31,31,31,2050.792402415649,2052.7935829717617,left,1,4,0.9089255495764519,F14A01,2022-12-08_09h14.56.457,t1_Paradigm,2021.1.4,60.03087073574671,
D,left,Distractor,0,32,32,32,2054.291820959683,2056.292568110549,left,1,4,1.070722048008065,F14A01,2022-12-08_09h14.56.457,t1_Paradigm,2021.1.4,60.03087073574671,
V,left,Distractor,0,33,33,33,2057.7912808873416,2059.792786737992,left,1,4,1.3044269250203797,F14A01,2022-12-08_09h14.56.457,t1_Paradigm,2021.1.4,60.03087073574671,
R,left,Distractor,0,34,34,34,2061.2907173963604,2063.292555920024,left,1,4,0.7275395189553819,F14A01,2022-12-08_09h14.56.457,t1_Paradigm,2021.1.4,60.03087073574671,
S,right,Target,0,35,35,35,2064.790169624741,2066.792139677753,right,1,4,0.47254485231042054,F14A01,2022-12-08_09h14.56.457,t1_Paradigm,2021.1.4,60.03087073574671,
Y,left,Distractor,0,36,36,36,2068.28944252408,2070.2904075003808,left,1,4,0.7161250170429412,F14A01,2022-12-08_09h14.56.457,t1_Paradigm,2021.1.4,60.03087073574671,
N,left,Pretarget,0,37,37,37,2071.7889743116766,2073.790178928036,left,1,4,0.6038294288900943,F14A01,2022-12-08_09h14.56.457,t1_Paradigm,2021.1.4,60.03087073574671,
Z,left,Pretarget,0,38,38,38,2075.288312013281,2077.290185504503,left,1,4,0.744135314828327,F14A01,2022-12-08_09h14.56.457,t1_Paradigm,2021.1.4,60.03087073574671,
P,left,Pretarget,0,39,39,39,2078.7879470995376,2080.78971440487,left,1,4,0.5705047037781696,F14A01,2022-12-08_09h14.56.457,t1_Paradigm,2021.1.4,60.03087073574671,
M,left,Distractor,0,40,40,40,2082.2872376430587,2084.289070071459,left,1,4,0.829656981080916,F14A01,2022-12-08_09h14.56.457,t1_Paradigm,2021.1.4,60.03087073574671,
N,right,Target,0,41,41,41,2085.7857810357136,2087.7875422457837,left,0,4,1.0652260460192338,F14A01,2022-12-08_09h14.56.457,t1_Paradigm,2021.1.4,60.03087073574671,
Z,right,Target,0,42,42,42,2089.2864058001232,2091.2869665642775,left,0,4,1.1367106434513516,F14A01,2022-12-08_09h14.56.457,t1_Paradigm,2021.1.4,60.03087073574671,
P,right,Target,0,43,43,43,2092.785400883813,2094.7870780434205,left,0,4,0.7431870202990467,F14A01,2022-12-08_09h14.56.457,t1_Paradigm,2021.1.4,60.03087073574671,
X,left,Pretarget,0,44,44,44,2096.2847491719267,2098.2856365138305,left,1,4,0.6359328558714878,F14A01,2022-12-08_09h14.56.457,t1_Paradigm,2021.1.4,60.03087073574671,
Z,left,Lure,0,45,45,45,2099.7843714260507,2101.7856074811325,right,0,4,0.6622730517215132,F14A01,2022-12-08_09h14.56.457,t1_Paradigm,2021.1.4,60.03087073574671,
R,left,Pretarget,0,46,46,46,2103.28367255608,2105.2853112192934,left,1,4,0.774327716602329,F14A01,2022-12-08_09h14.56.457,t1_Paradigm,2021.1.4,60.03087073574671,
K,left,Distractor,0,47,47,47,2106.783516164476,2108.785280903382,left,1,4,0.6004455957718164,F14A01,2022-12-08_09h14.56.457,t1_Paradigm,2021.1.4,60.03087073574671,
X,right,Target,0,48,48,48,2110.2827505674213,2112.2840161364056,right,1,4,0.7500050526518862,F14A01,2022-12-08_09h14.56.457,t1_Paradigm,2021.1.4,60.03087073574671,
B,left,Distractor,0,49,49,49,2113.7820709456482,2115.784250804013,left,1,4,0.6575222757783195,F14A01,2022-12-08_09h14.56.457,t1_Paradigm,2021.1.4,60.03087073574671,
R,right,Target,0,50,50,50,2117.2813829829893,2119.2824178944074,right,1,4,0.5343838571784545,F14A01,2022-12-08_09h14.56.457,t1_Paradigm,2021.1.4,60.03087073574671,
Y,left,Pretarget,0,51,51,51,2120.7809895177525,2122.7816240666634,left,1,4,0.6308949609820047,F14A01,2022-12-08_09h14.56.457,t1_Paradigm,2021.1.4,60.03087073574671,
W,left,Pretarget,0,52,52,52,2124.2802810236835,2126.282034213671,left,1,4,0.47319832861512623,F14A01,2022-12-08_09h14.56.457,t1_Paradigm,2021.1.4,60.03087073574671,
Z,left,Distractor,0,53,53,53,2127.7798769719375,2129.781053036804,left,1,4,0.4430408943994735,F14A01,2022-12-08_09h14.56.457,t1_Paradigm,2021.1.4,60.03087073574671,
Q,left,Distractor,0,54,54,54,2131.2791357559327,2133.2799659948514,left,1,4,0.6986274431178572,F14A01,2022-12-08_09h14.56.457,t1_Paradigm,2021.1.4,60.03087073574671,
Y,right,Target,0,55,55,55,2134.778631934364,2136.7796184044846,right,1,4,0.5659765653194881,F14A01,2022-12-08_09h14.56.457,t1_Paradigm,2021.1.4,60.03087073574671,
W,right,Target,0,56,56,56,2138.278139982516,2140.2793182930054,right,1,4,0.4255109193422868,F14A01,2022-12-08_09h14.56.457,t1_Paradigm,2021.1.4,60.03087073574671,
H,left,Pretarget,0,57,57,57,2141.7774244307748,2143.778748065155,left,1,4,0.5377898257233937,F14A01,2022-12-08_09h14.56.457,t1_Paradigm,2021.1.4,60.03087073574671,
M,left,Distractor,0,58,58,58,2145.2769712961253,2147.2784963949734,left,1,4,0.6781855365834417,F14A01,2022-12-08_09h14.56.457,t1_Paradigm,2021.1.4,60.03087073574671,
R,left,Pretarget,0,59,59,59,2148.7930773857743,2150.7950092631954,right,0,4,0.9811714132183624,F14A01,2022-12-08_09h14.56.457,t1_Paradigm,2021.1.4,60.03087073574671,
J,left,Distractor,0,60,60,60,2152.2923990472145,2154.2936569169196,left,1,4,0.5723727413446795,F14A01,2022-12-08_09h14.56.457,t1_Paradigm,2021.1.4,60.03087073574671,
H,right,Target,0,61,61,61,2155.7919115866125,2157.7930988795943,left,0,4,0.5174537842758582,F14A01,2022-12-08_09h14.56.457,t1_Paradigm,2021.1.4,60.03087073574671,
Z,left,Distractor,0,62,62,62,2159.291182881936,2161.290181975667,left,1,4,0.5018133406047127,F14A01,2022-12-08_09h14.56.457,t1_Paradigm,2021.1.4,60.03087073574671,
R,right,Target,0,63,63,63,2162.790575440904,2164.7918945840383,right,1,4,0.742207607850105,F14A01,2022-12-08_09h14.56.457,t1_Paradigm,2021.1.4,60.03087073574671,
J,left,Pretarget,0,0,0,0,2175.5009731567843,2177.4903135050163,None,0,4,,F14A01,2022-12-08_09h14.56.457,t1_Paradigm,2021.1.4,60.03087073574671,
G,left,Pretarget,0,1,1,1,2178.9879666685383,2180.9890711942708,None,0,4,,F14A01,2022-12-08_09h14.56.457,t1_Paradigm,2021.1.4,60.03087073574671,
Z,left,Distractor,0,2,2,2,2182.4875562007264,2184.488558711012,None,0,4,,F14A01,2022-12-08_09h14.56.457,t1_Paradigm,2021.1.4,60.03087073574671,
F,left,Distractor,0,3,3,3,2185.9869911057285,2187.988729217962,None,0,4,,F14A01,2022-12-08_09h14.56.457,t1_Paradigm,2021.1.4,60.03087073574671,
J,right,Target,0,4,4,4,2189.4863239952847,2191.488213847474,right,1,4,0.4596206501078086,F14A01,2022-12-08_09h14.56.457,t1_Paradigm,2021.1.4,60.03087073574671,
G,right,Target,0,5,5,5,2192.9858150408627,2194.987995220031,right,1,4,0.7182144088797031,F14A01,2022-12-08_09h14.56.457,t1_Paradigm,2021.1.4,60.03087073574671,
H,left,Distractor,0,6,6,6,2196.4850882610053,2198.4859711116633,left,1,4,0.7911426211235266,F14A01,2022-12-08_09h14.56.457,t1_Paradigm,2021.1.4,60.03087073574671,
P,left,Distractor,0,7,7,7,2199.98468420926,2201.9857306695967,left,1,4,0.5930343981331134,F14A01,2022-12-08_09h14.56.457,t1_Paradigm,2021.1.4,60.03087073574671,
G,left,Lure,0,8,8,8,2203.4840405174555,2205.485620152863,left,1,4,0.48479183876452225,F14A01,2022-12-08_09h14.56.457,t1_Paradigm,2021.1.4,60.03087073574671,
S,left,Distractor,0,9,9,9,2206.9835418287394,2208.9853133045144,left,1,4,0.6216256706793502,F14A01,2022-12-08_09h14.56.457,t1_Paradigm,2021.1.4,60.03087073574671,
R,left,Pretarget,0,10,10,10,2210.4829619767897,2212.483436444858,left,1,4,1.0206462582304994,F14A01,2022-12-08_09h14.56.457,t1_Paradigm,2021.1.4,60.03087073574671,
T,left,Pretarget,0,11,11,11,2213.9824398694327,2215.983576154691,left,1,4,0.6430611050068364,F14A01,2022-12-08_09h14.56.457,t1_Paradigm,2021.1.4,60.03087073574671,
X,left,Distractor,0,12,12,12,2217.481701540658,2219.4826899355985,left,1,4,0.46624427566621307,F14A01,2022-12-08_09h14.56.457,t1_Paradigm,2021.1.4,60.03087073574671,
F,left,Pretarget,0,13,13,13,2220.981331173258,2222.9824732329753,left,1,4,0.8354096257025958,F14A01,2022-12-08_09h14.56.457,t1_Paradigm,2021.1.4,60.03087073574671,
R,right,Target,0,14,14,14,2224.4805052651845,2226.4817592852505,right,1,4,0.43429643828130793,F14A01,2022-12-08_09h14.56.457,t1_Paradigm,2021.1.4,60.03087073574671,
T,right,Target,0,15,15,15,2227.979991177909,2229.9811688467926,right,1,4,0.48940755652165535,F14A01,2022-12-08_09h14.56.457,t1_Paradigm,2021.1.4,60.03087073574671,
C,left,Distractor,0,16,16,16,2231.479454955208,2233.4813066318065,left,1,4,0.711382261181825,F14A01,2022-12-08_09h14.56.457,t1_Paradigm,2021.1.4,60.03087073574671,
F,right,Target,0,17,17,17,2234.9788086969775,2236.978103571343,left,0,4,0.7410427710988188,F14A01,2022-12-08_09h14.56.457,t1_Paradigm,2021.1.4,60.03087073574671,
M,left,Distractor,0,18,18,18,2238.4784495576923,2240.479558895474,left,1,4,0.6637031927948556,F14A01,2022-12-08_09h14.56.457,t1_Paradigm,2021.1.4,60.03087073574671,
N,left,Distractor,0,19,19,19,2241.9778536655786,2243.97891424126,left,1,4,0.7880619471156933,F14A01,2022-12-08_09h14.56.457,t1_Paradigm,2021.1.4,60.03087073574671,
R,left,Lure,0,20,20,20,2245.4765481565846,2247.479272097332,left,1,4,0.9809625702760059,F14A01,2022-12-08_09h14.56.457,t1_Paradigm,2021.1.4,60.03087073574671,
F,right,Target,0,21,21,21,2248.976660918941,2250.9771113267625,left,0,4,0.7530959923651608,F14A01,2022-12-08_09h14.56.457,t1_Paradigm,2021.1.4,60.03087073574671,
P,left,Distractor,0,22,22,22,2252.475977768332,2254.477319046893,left,1,4,0.7171846303144775,F14A01,2022-12-08_09h14.56.457,t1_Paradigm,2021.1.4,60.03087073574671,
L,left,Pretarget,0,23,23,23,2255.975355249545,2257.9773426259353,left,1,4,0.6739948831873335,F14A01,2022-12-08_09h14.56.457,t1_Paradigm,2021.1.4,60.03087073574671,
T,left,Distractor,0,24,24,24,2259.4748928116005,2261.477012358947,left,1,4,1.3482845845996962,F14A01,2022-12-08_09h14.56.457,t1_Paradigm,2021.1.4,60.03087073574671,
F,left,Distractor,0,25,25,25,2262.9742125482207,2264.975721927707,right,0,4,0.47867059116060773,F14A01,2022-12-08_09h14.56.457,t1_Paradigm,2021.1.4,60.03087073574671,
V,left,Distractor,0,26,26,26,2266.4737061602254,2268.4755947292024,left,1,4,0.6067201873488557,F14A01,2022-12-08_09h14.56.457,t1_Paradigm,2021.1.4,60.03087073574671,
L,right,Target,0,27,27,27,2269.973438770682,2271.9748891223626,left,0,4,0.4254329641421464,F14A01,2022-12-08_09h14.56.457,t1_Paradigm,2021.1.4,60.03087073574671,
S,left,Pretarget,0,28,28,28,2273.489204488038,2275.4900215740217,left,1,4,1.1380589796849563,F14A01,2022-12-08_09h14.56.457,t1_Paradigm,2021.1.4,60.03087073574671,
W,left,Distractor,0,29,29,29,2276.9887269723386,2278.9896117478165,left,1,4,0.4835374978947584,F14A01,2022-12-08_09h14.56.457,t1_Paradigm,2021.1.4,60.03087073574671,
Q,left,Distractor,0,30,30,30,2280.4880588994847,2282.4889516950443,left,1,4,0.7184412168071503,F14A01,2022-12-08_09h14.56.457,t1_Paradigm,2021.1.4,60.03087073574671,
L,right,Target,0,31,31,31,2283.987010353926,2285.9868563683467,right,1,4,0.9263907223689785,F14A01,2022-12-08_09h14.56.457,t1_Paradigm,2021.1.4,60.03087073574671,
S,right,Target,0,32,32,32,2287.4871734824,2289.48770761988,left,0,4,1.0456175864364923,F14A01,2022-12-08_09h14.56.457,t1_Paradigm,2021.1.4,60.03087073574671,
Z,left,Pretarget,0,33,33,33,2290.9864547226252,2292.9884645552465,left,1,4,0.7978236704707342,F14A01,2022-12-08_09h14.56.457,t1_Paradigm,2021.1.4,60.03087073574671,
F,left,Distractor,0,34,34,34,2294.4858674922007,2296.485131248647,left,1,4,0.484809482944911,F14A01,2022-12-08_09h14.56.457,t1_Paradigm,2021.1.4,60.03087073574671,
V,left,Distractor,0,35,35,35,2297.9852215547735,2299.987376711285,left,1,4,0.8837165061313499,F14A01,2022-12-08_09h14.56.457,t1_Paradigm,2021.1.4,60.03087073574671,
M,left,Distractor,0,36,36,36,2301.4848268063233,2303.4861501199002,left,1,4,1.1071049908969144,F14A01,2022-12-08_09h14.56.457,t1_Paradigm,2021.1.4,60.03087073574671,
Z,right,Target,0,37,37,37,2304.983975233986,2306.986261599044,right,1,4,0.5539044166594067,F14A01,2022-12-08_09h14.56.457,t1_Paradigm,2021.1.4,60.03087073574671,
H,left,Pretarget,0,38,38,38,2308.483590109635,2310.484685011268,left,1,4,0.7776608628005306,F14A01,2022-12-08_09h14.56.457,t1_Paradigm,2021.1.4,60.03087073574671,
L,left,Distractor,0,39,39,39,2311.9828941268943,2313.9847830166736,left,1,4,0.8526726924214927,F14A01,2022-12-08_09h14.56.457,t1_Paradigm,2021.1.4,60.03087073574671,
G,left,Distractor,0,40,40,40,2315.4815231740276,2317.4836738392933,left,1,4,0.6680106185890509,F14A01,2022-12-08_09h14.56.457,t1_Paradigm,2021.1.4,60.03087073574671,
K,left,Distractor,0,41,41,41,2318.9819560980695,2320.983128954903,left,1,4,0.8291488286672575,F14A01,2022-12-08_09h14.56.457,t1_Paradigm,2021.1.4,60.03087073574671,
H,right,Target,0,42,42,42,2322.4815963171786,2324.482154194102,right,1,4,0.6320607601433039,F14A01,2022-12-08_09h14.56.457,t1_Paradigm,2021.1.4,60.03087073574671,
B,left,Distractor,0,43,43,43,2325.98067833856,2327.982374425562,left,1,4,0.7396081387796585,F14A01,2022-12-08_09h14.56.457,t1_Paradigm,2021.1.4,60.03087073574671,
Z,left,Distractor,0,44,44,44,2329.479371546352,2331.4820152862767,left,1,4,1.1125660253273963,F14A01,2022-12-08_09h14.56.457,t1_Paradigm,2021.1.4,60.03087073574671,
T,left,Pretarget,0,45,45,45,2332.979624820551,2334.9784330363227,left,1,4,0.8978623272673758,F14A01,2022-12-08_09h14.56.457,t1_Paradigm,2021.1.4,60.03087073574671,
H,right,Target,0,46,46,46,2336.4790375901257,2338.480742980423,left,0,4,0.8768320674971619,F14A01,2022-12-08_09h14.56.457,t1_Paradigm,2021.1.4,60.03087073574671,
F,left,Distractor,0,47,47,47,2339.9784420188153,2341.979698605308,left,1,4,0.8792413002156536,F14A01,2022-12-08_09h14.56.457,t1_Paradigm,2021.1.4,60.03087073574671,
R,left,Distractor,0,48,48,48,2343.477799931027,2345.4790587631433,left,1,4,0.7633963444463916,F14A01,2022-12-08_09h14.56.457,t1_Paradigm,2021.1.4,60.03087073574671,
T,right,Target,0,49,49,49,2346.977244139325,2348.9786351423963,left,0,4,0.5613425617748362,F14A01,2022-12-08_09h14.56.457,t1_Paradigm,2021.1.4,60.03087073574671,
H,right,Target,0,50,50,50,2350.4764868831553,2352.477941084476,right,1,4,0.7147529413650773,F14A01,2022-12-08_09h14.56.457,t1_Paradigm,2021.1.4,60.03087073574671,
Y,left,Pretarget,0,51,51,51,2353.976092776312,2355.9751409529463,left,1,4,0.7553817158163838,F14A01,2022-12-08_09h14.56.457,t1_Paradigm,2021.1.4,60.03087073574671,
H,left,Distractor,0,52,52,52,2357.475720804896,2359.476139773994,None,0,4,,F14A01,2022-12-08_09h14.56.457,t1_Paradigm,2021.1.4,60.03087073574671,
S,left,Distractor,0,53,53,53,2360.974995308252,2362.9763500605513,left,1,4,0.7860059188210471,F14A01,2022-12-08_09h14.56.457,t1_Paradigm,2021.1.4,60.03087073574671,
Q,left,Distractor,0,54,54,54,2364.474499506765,2366.475128602019,left,1,4,1.0577487629020652,F14A01,2022-12-08_09h14.56.457,t1_Paradigm,2021.1.4,60.03087073574671,
Y,right,Target,0,55,55,55,2367.9739292789145,2369.975314186724,left,0,4,0.7659865102214098,F14A01,2022-12-08_09h14.56.457,t1_Paradigm,2021.1.4,60.03087073574671,
R,left,Distractor,0,56,56,56,2371.473226880108,2373.474628790492,left,1,4,0.6421936529068262,F14A01,2022-12-08_09h14.56.457,t1_Paradigm,2021.1.4,60.03087073574671,
H,left,Pretarget,0,57,57,57,2374.989294473361,2376.9901760408065,left,1,4,0.8690144120878358,F14A01,2022-12-08_09h14.56.457,t1_Paradigm,2021.1.4,60.03087073574671,
J,left,Distractor,0,58,58,58,2378.4887945014316,2380.4898480194406,left,1,4,0.6471372316277666,F14A01,2022-12-08_09h14.56.457,t1_Paradigm,2021.1.4,60.03087073574671,
V,left,Distractor,0,59,59,59,2381.988035641246,2383.9894035464804,left,1,4,0.7881203333145095,F14A01,2022-12-08_09h14.56.457,t1_Paradigm,2021.1.4,60.03087073574671,
Y,left,Lure,0,60,60,60,2385.487619719778,2387.4890251589986,right,0,4,1.190008260684408,F14A01,2022-12-08_09h14.56.457,t1_Paradigm,2021.1.4,60.03087073574671,
H,right,Target,0,61,61,61,2388.9871136525862,2390.9894898425655,right,1,4,0.8935131970451948,F14A01,2022-12-08_09h14.56.457,t1_Paradigm,2021.1.4,60.03087073574671,
L,left,Distractor,0,62,62,62,2392.485922349563,2394.485321164195,left,1,4,0.6794719577824253,F14A01,2022-12-08_09h14.56.457,t1_Paradigm,2021.1.4,60.03087073574671,
P,left,Distractor,0,63,63,63,2395.986020354969,2397.987702968233,left,1,4,0.7398156985086644,F14A01,2022-12-08_09h14.56.457,t1_Paradigm,2021.1.4,60.03087073574671,
