Letter,CorrAnswer,Stimulus,nback_run.thisRepN,nback_run.thisTrialN,nback_run.thisN,nback_run.thisIndex,fixcross.started,nback_trial.started,trial_resp.keys,trial_resp.corr,currentlevel,trial_resp.rt,Participant,date,expName,psychopyVersion,frameRate,
H,left,Distractor,0,0,0,0,211.20984636805952,213.1529133610602,None,0,1,,F17E07,2022-09-02_11h59.41.925,t1_Paradigm,2021.1.4,59.98737589931132,
Q,left,Pretarget,0,1,1,1,214.65158171302755,216.65512143951491,left,1,1,0.513677061710041,F17E07,2022-09-02_11h59.41.925,t1_Paradigm,2021.1.4,59.98737589931132,
Q,right,Target,0,2,2,2,218.15171356254723,220.1513472069346,right,1,1,0.40965324541321024,F17E07,2022-09-02_11h59.41.925,t1_Paradigm,2021.1.4,59.98737589931132,
T,left,Distractor,0,3,3,3,221.65161956762313,223.65362746577011,left,1,1,0.34750143557903357,F17E07,2022-09-02_11h59.41.925,t1_Paradigm,2021.1.4,59.98737589931132,
Q,left,Lure,0,4,4,4,225.1516718583007,227.15369579652906,left,1,1,0.4311203359393403,F17E07,2022-09-02_11h59.41.925,t1_Paradigm,2021.1.4,59.98737589931132,
L,left,Distractor,0,5,5,5,228.6516821239784,230.65346674408647,left,1,1,0.3873437294678297,F17E07,2022-09-02_11h59.41.925,t1_Paradigm,2021.1.4,59.98737589931132,
V,left,Pretarget,0,6,6,6,232.15155476567452,234.15309621806955,left,1,1,0.535808853484923,F17E07,2022-09-02_11h59.41.925,t1_Paradigm,2021.1.4,59.98737589931132,
V,right,Target,0,7,7,7,235.65167314151768,237.65167891595047,left,0,1,0.4134200995322317,F17E07,2022-09-02_11h59.41.925,t1_Paradigm,2021.1.4,59.98737589931132,
K,left,Distractor,0,8,8,8,239.15172158257337,241.15475957514718,left,1,1,0.47828460892196745,F17E07,2022-09-02_11h59.41.925,t1_Paradigm,2021.1.4,59.98737589931132,
G,left,Pretarget,0,9,9,9,242.6516057731642,244.6536479970673,left,1,1,0.5472261877148412,F17E07,2022-09-02_11h59.41.925,t1_Paradigm,2021.1.4,59.98737589931132,
G,right,Target,0,10,10,10,246.1514383146423,248.1515499536472,right,1,1,0.4893487403751351,F17E07,2022-09-02_11h59.41.925,t1_Paradigm,2021.1.4,59.98737589931132,
G,right,Target,0,11,11,11,249.65161090597394,251.65138153271982,right,1,1,0.38172777407453395,F17E07,2022-09-02_11h59.41.925,t1_Paradigm,2021.1.4,59.98737589931132,
P,left,Pretarget,0,12,12,12,253.15167025430128,255.15348278416786,left,1,1,0.5116001911810599,F17E07,2022-09-02_11h59.41.925,t1_Paradigm,2021.1.4,59.98737589931132,
P,right,Target,0,13,13,13,256.6516988056537,258.65150407899637,left,0,1,0.5172735700907651,F17E07,2022-09-02_11h59.41.925,t1_Paradigm,2021.1.4,59.98737589931132,
G,left,Lure,0,14,14,14,260.1515034374024,262.1538125683728,left,1,1,0.37514267658116296,F17E07,2022-09-02_11h59.41.925,t1_Paradigm,2021.1.4,59.98737589931132,
Y,left,Distractor,0,15,15,15,263.65165228940896,265.65418309438974,left,1,1,0.4429460507526528,F17E07,2022-09-02_11h59.41.925,t1_Paradigm,2021.1.4,59.98737589931132,
B,left,Distractor,0,16,16,16,267.15158780824277,269.15301248882315,left,1,1,0.6239192991051823,F17E07,2022-09-02_11h59.41.925,t1_Paradigm,2021.1.4,59.98737589931132,
T,left,Pretarget,0,17,17,17,270.65156278572977,272.6534080373822,left,1,1,0.4834244945086539,F17E07,2022-09-02_11h59.41.925,t1_Paradigm,2021.1.4,59.98737589931132,
T,right,Target,0,18,18,18,274.15157433456625,276.15164908138104,right,1,1,0.5851821672695223,F17E07,2022-09-02_11h59.41.925,t1_Paradigm,2021.1.4,59.98737589931132,
S,left,Distractor,0,19,19,19,277.65173473546747,279.65321363150724,left,1,1,0.5236963419010863,F17E07,2022-09-02_11h59.41.925,t1_Paradigm,2021.1.4,59.98737589931132,
T,left,Lure,0,20,20,20,281.1514739236445,283.15362778655253,left,1,1,0.8475203628768213,F17E07,2022-09-02_11h59.41.925,t1_Paradigm,2021.1.4,59.98737589931132,
J,left,Distractor,0,21,21,21,284.6514148960996,286.65339873410994,left,1,1,0.4992746672651265,F17E07,2022-09-02_11h59.41.925,t1_Paradigm,2021.1.4,59.98737589931132,
P,left,Distractor,0,22,22,22,288.1512442295789,290.1522329405707,left,1,1,0.424720661889296,F17E07,2022-09-02_11h59.41.925,t1_Paradigm,2021.1.4,59.98737589931132,
F,left,Distractor,0,23,23,23,291.65161250997335,293.653699004557,left,1,1,0.5231269187934231,F17E07,2022-09-02_11h59.41.925,t1_Paradigm,2021.1.4,59.98737589931132,
L,left,Distractor,0,24,24,24,295.1515855626494,297.1533467642439,left,1,1,0.6396196574496571,F17E07,2022-09-02_11h59.41.925,t1_Paradigm,2021.1.4,59.98737589931132,
W,left,Pretarget,0,25,25,25,298.65127759295865,300.65394538029796,left,1,1,0.43479993200162426,F17E07,2022-09-02_11h59.41.925,t1_Paradigm,2021.1.4,59.98737589931132,
W,right,Target,0,26,26,26,302.1516205300286,304.1512666857161,right,1,1,0.4416577109368518,F17E07,2022-09-02_11h59.41.925,t1_Paradigm,2021.1.4,59.98737589931132,
V,left,Distractor,0,27,27,27,305.6514120088832,307.6521453617024,left,1,1,0.5407312354946043,F17E07,2022-09-02_11h59.41.925,t1_Paradigm,2021.1.4,59.98737589931132,
W,left,Lure,0,28,28,28,309.1515679185395,311.15211199832265,left,1,1,0.41688379598781466,F17E07,2022-09-02_11h59.41.925,t1_Paradigm,2021.1.4,59.98737589931132,
R,left,Pretarget,0,29,29,29,312.65151562786195,314.6531481879647,left,1,1,0.4354947885731235,F17E07,2022-09-02_11h59.41.925,t1_Paradigm,2021.1.4,59.98737589931132,
R,right,Target,0,30,30,30,316.15140238482854,318.1515720889729,right,1,1,0.47332116425968707,F17E07,2022-09-02_11h59.41.925,t1_Paradigm,2021.1.4,59.98737589931132,
G,left,Distractor,0,31,31,31,319.65152589351055,321.6528703736549,left,1,1,0.619926600571489,F17E07,2022-09-02_11h59.41.925,t1_Paradigm,2021.1.4,59.98737589931132,
R,left,Lure,0,32,32,32,323.15152749750996,325.15233367230394,left,1,1,0.5285965885850601,F17E07,2022-09-02_11h59.41.925,t1_Paradigm,2021.1.4,59.98737589931132,
S,left,Distractor,0,33,33,33,326.6514373522368,328.6517825349001,left,1,1,0.5652786644350272,F17E07,2022-09-02_11h59.41.925,t1_Paradigm,2021.1.4,59.98737589931132,
R,left,Lure,0,34,34,34,330.15154225440347,332.15290951146744,left,1,1,0.5198958035907708,F17E07,2022-09-02_11h59.41.925,t1_Paradigm,2021.1.4,59.98737589931132,
P,left,Pretarget,0,35,35,35,333.6515634273237,335.65356779663125,left,1,1,0.5552035647560842,F17E07,2022-09-02_11h59.41.925,t1_Paradigm,2021.1.4,59.98737589931132,
P,right,Target,0,36,36,36,337.1515929410816,339.1515900538652,right,1,1,0.4012026857526507,F17E07,2022-09-02_11h59.41.925,t1_Paradigm,2021.1.4,59.98737589931132,
Y,left,Pretarget,0,37,37,37,340.6515634273237,342.65228362724883,left,1,1,0.46846615060348995,F17E07,2022-09-02_11h59.41.925,t1_Paradigm,2021.1.4,59.98737589931132,
Y,right,Target,0,38,38,38,344.1513446405297,346.15140655526193,right,1,1,0.4893888405931648,F17E07,2022-09-02_11h59.41.925,t1_Paradigm,2021.1.4,59.98737589931132,
J,left,Distractor,0,39,39,39,347.65149798375205,349.6521453617024,left,1,1,0.3809151832247153,F17E07,2022-09-02_11h59.41.925,t1_Paradigm,2021.1.4,59.98737589931132,
Y,left,Lure,0,40,40,40,351.1514915677253,353.1536614707438,left,1,1,0.3991136247641407,F17E07,2022-09-02_11h59.41.925,t1_Paradigm,2021.1.4,59.98737589931132,
T,left,Distractor,0,41,41,41,354.6514078384789,356.6523038377636,left,1,1,0.40438568068202585,F17E07,2022-09-02_11h59.41.925,t1_Paradigm,2021.1.4,59.98737589931132,
V,left,Distractor,0,42,42,42,358.1515428959974,360.15373685915256,left,1,1,0.5669538911606651,F17E07,2022-09-02_11h59.41.925,t1_Paradigm,2021.1.4,59.98737589931132,
N,left,Pretarget,0,43,43,43,361.65148932210286,363.6529723886051,left,1,1,0.3638016931945458,F17E07,2022-09-02_11h59.41.925,t1_Paradigm,2021.1.4,59.98737589931132,
N,right,Target,0,44,44,44,365.15141104647773,367.1511973925226,right,1,1,0.4657075763680041,F17E07,2022-09-02_11h59.41.925,t1_Paradigm,2021.1.4,59.98737589931132,
N,right,Target,0,45,45,45,368.6514633371844,370.65131159796147,right,1,1,0.46935348823899403,F17E07,2022-09-02_11h59.41.925,t1_Paradigm,2021.1.4,59.98737589931132,
X,left,Distractor,0,46,46,46,372.1514562795346,374.1533640875423,left,1,1,0.4395080184331164,F17E07,2022-09-02_11h59.41.925,t1_Paradigm,2021.1.4,59.98737589931132,
Z,left,Distractor,0,47,47,47,375.6514909261314,377.65355047333287,left,1,1,0.427452609554166,F17E07,2022-09-02_11h59.41.925,t1_Paradigm,2021.1.4,59.98737589931132,
H,left,Pretarget,0,48,48,48,379.1512958786625,381.15338975167833,left,1,1,0.38335423890384845,F17E07,2022-09-02_11h59.41.925,t1_Paradigm,2021.1.4,59.98737589931132,
H,right,Target,0,49,49,49,382.65109698157175,384.6514017432346,right,1,1,0.38924640460754745,F17E07,2022-09-02_11h59.41.925,t1_Paradigm,2021.1.4,59.98737589931132,
K,left,Distractor,0,50,50,50,386.1513840991538,388.1515178734844,left,1,1,0.48928393839742057,F17E07,2022-09-02_11h59.41.925,t1_Paradigm,2021.1.4,59.98737589931132,
V,left,Pretarget,0,51,51,51,389.6514293321816,391.65149477575324,left,1,1,0.4134383852069732,F17E07,2022-09-02_11h59.41.925,t1_Paradigm,2021.1.4,59.98737589931132,
V,right,Target,0,52,52,52,393.15156856016256,395.1514857932925,right,1,1,0.5296488183084875,F17E07,2022-09-02_11h59.41.925,t1_Paradigm,2021.1.4,59.98737589931132,
R,left,Distractor,0,53,53,53,396.65133918690844,398.65339007246075,left,1,1,0.3872837395174429,F17E07,2022-09-02_11h59.41.925,t1_Paradigm,2021.1.4,59.98737589931132,
V,left,Lure,0,54,54,54,400.1513786455034,402.15250113082584,left,1,1,0.4243937649007421,F17E07,2022-09-02_11h59.41.925,t1_Paradigm,2021.1.4,59.98737589931132,
Y,left,Distractor,0,55,55,55,403.65145852515707,405.65366596198874,left,1,1,0.6350864079431631,F17E07,2022-09-02_11h59.41.925,t1_Paradigm,2021.1.4,59.98737589931132,
Q,left,Distractor,0,56,56,56,407.15113804419525,409.1531398470979,left,1,1,0.5117955594614614,F17E07,2022-09-02_11h59.41.925,t1_Paradigm,2021.1.4,59.98737589931132,
Z,left,Pretarget,0,57,57,57,410.6513205803931,412.6523596572515,left,1,1,0.3562320551718585,F17E07,2022-09-02_11h59.41.925,t1_Paradigm,2021.1.4,59.98737589931132,
Z,right,Target,0,58,58,58,414.15131127714994,416.15120092133293,right,1,1,0.5055473038228229,F17E07,2022-09-02_11h59.41.925,t1_Paradigm,2021.1.4,59.98737589931132,
B,left,Distractor,0,59,59,59,417.6513536229904,419.65186690576957,left,1,1,0.42902165092527866,F17E07,2022-09-02_11h59.41.925,t1_Paradigm,2021.1.4,59.98737589931132,
S,left,Pretarget,0,60,60,60,421.1514691116172,423.15355624776566,left,1,1,0.46332915223320015,F17E07,2022-09-02_11h59.41.925,t1_Paradigm,2021.1.4,59.98737589931132,
S,right,Target,0,61,61,61,424.65148451010464,426.6512022045499,left,0,1,0.4054189831367694,F17E07,2022-09-02_11h59.41.925,t1_Paradigm,2021.1.4,59.98737589931132,
T,left,Distractor,0,62,62,62,428.1506462551188,430.1524700130685,left,1,1,0.4883247411926277,F17E07,2022-09-02_11h59.41.925,t1_Paradigm,2021.1.4,59.98737589931132,
D,left,Distractor,0,63,63,63,431.65151723186136,433.65371344063897,left,1,1,0.411260782944737,F17E07,2022-09-02_11h59.41.925,t1_Paradigm,2021.1.4,59.98737589931132,
R,left,Distractor,0,0,0,0,450.54607290541753,452.53643634170294,None,0,1,,F17E07,2022-09-02_11h59.41.925,t1_Paradigm,2021.1.4,59.98737589931132,
V,left,Distractor,0,1,1,1,454.0345654259145,456.03679820607067,left,1,1,0.5560280252539087,F17E07,2022-09-02_11h59.41.925,t1_Paradigm,2021.1.4,59.98737589931132,
N,left,Pretarget,0,2,2,2,457.53444865407073,459.53410347140743,left,1,1,0.45057214991538785,F17E07,2022-09-02_11h59.41.925,t1_Paradigm,2021.1.4,59.98737589931132,
N,right,Target,0,3,3,3,461.03432835341664,463.0346244534303,right,1,1,0.47008523702970706,F17E07,2022-09-02_11h59.41.925,t1_Paradigm,2021.1.4,59.98737589931132,
S,left,Distractor,0,4,4,4,464.53460488453857,466.5368514591828,left,1,1,0.48767768405377865,F17E07,2022-09-02_11h59.41.925,t1_Paradigm,2021.1.4,59.98737589931132,
N,left,Lure,0,5,5,5,468.03480281919474,470.0360638908751,left,1,1,0.5726975256402511,F17E07,2022-09-02_11h59.41.925,t1_Paradigm,2021.1.4,59.98737589931132,
Z,left,Distractor,0,6,6,6,471.53515570113086,473.53540239768336,left,1,1,0.4332956926082261,F17E07,2022-09-02_11h59.41.925,t1_Paradigm,2021.1.4,59.98737589931132,
L,left,Pretarget,0,7,7,7,475.0337971057161,477.03563882855815,left,1,1,0.48505641298834234,F17E07,2022-09-02_11h59.41.925,t1_Paradigm,2021.1.4,59.98737589931132,
L,right,Target,0,8,8,8,478.533856133261,480.53461065897136,right,1,1,0.489883837668458,F17E07,2022-09-02_11h59.41.925,t1_Paradigm,2021.1.4,59.98737589931132,
H,left,Distractor,0,9,9,9,482.0346404935117,484.0337412862282,left,1,1,0.7350870495429263,F17E07,2022-09-02_11h59.41.925,t1_Paradigm,2021.1.4,59.98737589931132,
L,left,Lure,0,10,10,10,485.534618999809,487.5366827174439,left,1,1,0.41604554100194946,F17E07,2022-09-02_11h59.41.925,t1_Paradigm,2021.1.4,59.98737589931132,
X,left,Pretarget,0,11,11,11,489.03478389189695,491.03592530451715,left,1,1,0.5007750570075586,F17E07,2022-09-02_11h59.41.925,t1_Paradigm,2021.1.4,59.98737589931132,
X,right,Target,0,12,12,12,492.5339209352096,494.5347672102216,left,0,1,0.7300103618763387,F17E07,2022-09-02_11h59.41.925,t1_Paradigm,2021.1.4,59.98737589931132,
X,right,Target,0,13,13,13,496.03429787725327,498.0347271100036,right,1,1,0.7981473699037451,F17E07,2022-09-02_11h59.41.925,t1_Paradigm,2021.1.4,59.98737589931132,
R,left,Distractor,0,14,14,14,499.53472390197567,501.53513196180575,left,1,1,0.5296683872293215,F17E07,2022-09-02_11h59.41.925,t1_Paradigm,2021.1.4,59.98737589931132,
T,left,Distractor,0,15,15,15,503.0338019177434,505.0337297373626,left,1,1,0.6470568043587264,F17E07,2022-09-02_11h59.41.925,t1_Paradigm,2021.1.4,59.98737589931132,
V,left,Pretarget,0,16,16,16,506.53474988692324,508.53413747638115,left,1,1,0.49049047380685806,F17E07,2022-09-02_11h59.41.925,t1_Paradigm,2021.1.4,59.98737589931132,
V,right,Target,0,17,17,17,510.0348275209544,512.0348596011172,right,1,1,0.5100587387860287,F17E07,2022-09-02_11h59.41.925,t1_Paradigm,2021.1.4,59.98737589931132,
N,left,Distractor,0,18,18,18,513.5347325636249,515.5473442427465,left,1,1,0.4856322521227412,F17E07,2022-09-02_11h59.41.925,t1_Paradigm,2021.1.4,59.98737589931132,
B,left,Distractor,0,19,19,19,517.0347341676243,519.0363638405106,left,1,1,0.4044552946870681,F17E07,2022-09-02_11h59.41.925,t1_Paradigm,2021.1.4,59.98737589931132,
V,left,Lure,0,20,20,20,520.5342308296822,522.5352756809734,left,1,1,0.4255322903045453,F17E07,2022-09-02_11h59.41.925,t1_Paradigm,2021.1.4,59.98737589931132,
P,left,Distractor,0,21,21,21,524.0347123531101,526.0366599405243,left,1,1,0.5401220329804346,F17E07,2022-09-02_11h59.41.925,t1_Paradigm,2021.1.4,59.98737589931132,
K,left,Pretarget,0,22,22,22,527.5345294961298,529.5367847323942,left,1,1,0.4478649039519951,F17E07,2022-09-02_11h59.41.925,t1_Paradigm,2021.1.4,59.98737589931132,
K,right,Target,0,23,23,23,531.0345471402106,533.0341246443277,right,1,1,0.5025442786572967,F17E07,2022-09-02_11h59.41.925,t1_Paradigm,2021.1.4,59.98737589931132,
J,left,Pretarget,0,24,24,24,534.5345849948353,536.5347794006811,left,1,1,0.6178086674190126,F17E07,2022-09-02_11h59.41.925,t1_Paradigm,2021.1.4,59.98737589931132,
J,right,Target,0,25,25,25,538.0342994812527,540.0343966842047,right,1,1,0.6223156111664139,F17E07,2022-09-02_11h59.41.925,t1_Paradigm,2021.1.4,59.98737589931132,
H,left,Distractor,0,26,26,26,541.5346379271068,543.5362631087773,left,1,1,0.6722907490329817,F17E07,2022-09-02_11h59.41.925,t1_Paradigm,2021.1.4,59.98737589931132,
J,left,Lure,0,27,27,27,545.0347601525718,547.0364296048647,left,1,1,0.5484259861987084,F17E07,2022-09-02_11h59.41.925,t1_Paradigm,2021.1.4,59.98737589931132,
V,left,Distractor,0,28,28,28,548.5345067191811,550.5473099169612,left,1,1,0.46121827673050575,F17E07,2022-09-02_11h59.41.925,t1_Paradigm,2021.1.4,59.98737589931132,
Z,left,Pretarget,0,29,29,29,552.0345586890762,554.0471437416272,left,1,1,0.4178192538674921,F17E07,2022-09-02_11h59.41.925,t1_Paradigm,2021.1.4,59.98737589931132,
Z,right,Target,0,30,30,30,555.5345484234276,557.5344602029363,right,1,1,0.5624620250891894,F17E07,2022-09-02_11h59.41.925,t1_Paradigm,2021.1.4,59.98737589931132,
T,left,Distractor,0,31,31,31,559.0347332052188,561.034783891897,left,1,1,0.7420567883236799,F17E07,2022-09-02_11h59.41.925,t1_Paradigm,2021.1.4,59.98737589931132,
Z,left,Lure,0,32,32,32,562.5346186789975,564.5348900772806,left,1,1,0.5215261181001551,F17E07,2022-09-02_11h59.41.925,t1_Paradigm,2021.1.4,59.98737589931132,
F,left,Distractor,0,33,33,33,566.034685405757,568.0348974557128,left,1,1,0.5414684379065875,F17E07,2022-09-02_11h59.41.925,t1_Paradigm,2021.1.4,59.98737589931132,
Y,left,Pretarget,0,34,34,34,569.5339963236183,571.5347941575747,left,1,1,0.8176838755316567,F17E07,2022-09-02_11h59.41.925,t1_Paradigm,2021.1.4,59.98737589931132,
Y,right,Target,0,35,35,35,573.0348743580107,575.0346530047827,right,1,1,0.6141736628196668,F17E07,2022-09-02_11h59.41.925,t1_Paradigm,2021.1.4,59.98737589931132,
Y,right,Target,0,36,36,36,576.5347607941658,578.5347036914609,left,0,1,0.7141871364729013,F17E07,2022-09-02_11h59.41.925,t1_Paradigm,2021.1.4,59.98737589931132,
W,left,Distractor,0,37,37,37,580.0346789897303,582.0351062976697,left,1,1,1.0693506010284182,F17E07,2022-09-02_11h59.41.925,t1_Paradigm,2021.1.4,59.98737589931132,
Q,left,Distractor,0,38,38,38,583.534918628633,585.5347344884358,left,1,1,0.6577215376601089,F17E07,2022-09-02_11h59.41.925,t1_Paradigm,2021.1.4,59.98737589931132,
P,left,Pretarget,0,39,39,39,587.0346186789975,589.0339164439938,left,1,1,0.6308746018039528,F17E07,2022-09-02_11h59.41.925,t1_Paradigm,2021.1.4,59.98737589931132,
P,right,Target,0,40,40,40,590.534687972191,592.534592052456,right,1,1,0.5701587006333284,F17E07,2022-09-02_11h59.41.925,t1_Paradigm,2021.1.4,59.98737589931132,
J,left,Distractor,0,41,41,41,594.0345060775871,596.0365858353325,left,1,1,0.5080120236380026,F17E07,2022-09-02_11h59.41.925,t1_Paradigm,2021.1.4,59.98737589931132,
P,left,Lure,0,42,42,42,597.5344688645855,599.5365884017374,left,1,1,0.8644516375206877,F17E07,2022-09-02_11h59.41.925,t1_Paradigm,2021.1.4,59.98737589931132,
L,left,Distractor,0,43,43,43,601.0343094261189,603.036146657716,left,1,1,0.5805793037870899,F17E07,2022-09-02_11h59.41.925,t1_Paradigm,2021.1.4,59.98737589931132,
Z,left,Distractor,0,44,44,44,604.5345859572408,606.5366419756319,left,1,1,0.5039856409130152,F17E07,2022-09-02_11h59.41.925,t1_Paradigm,2021.1.4,59.98737589931132,
F,left,Pretarget,0,45,45,45,608.034373907285,610.0360853846068,left,1,1,0.5405201479443349,F17E07,2022-09-02_11h59.41.925,t1_Paradigm,2021.1.4,59.98737589931132,
F,right,Target,0,46,46,46,611.5512852921966,613.5346036013216,right,1,1,0.4339366544736549,F17E07,2022-09-02_11h59.41.925,t1_Paradigm,2021.1.4,59.98737589931132,
G,left,Pretarget,0,47,47,47,615.0344518620986,617.0358957907592,left,1,1,0.5326829612604342,F17E07,2022-09-02_11h59.41.925,t1_Paradigm,2021.1.4,59.98737589931132,
G,right,Target,0,48,48,48,618.534605846944,620.5346260574588,right,1,1,0.6662458817008883,F17E07,2022-09-02_11h59.41.925,t1_Paradigm,2021.1.4,59.98737589931132,
V,left,Distractor,0,49,49,49,622.0345638219151,624.035848953703,left,1,1,0.7327118334069382,F17E07,2022-09-02_11h59.41.925,t1_Paradigm,2021.1.4,59.98737589931132,
G,left,Lure,0,50,50,50,625.5344845838845,627.5362631087773,left,1,1,0.7043074050743598,F17E07,2022-09-02_11h59.41.925,t1_Paradigm,2021.1.4,59.98737589931132,
Q,left,Pretarget,0,51,51,51,629.0346013556991,631.0364135647833,left,1,1,0.7081704997108318,F17E07,2022-09-02_11h59.41.925,t1_Paradigm,2021.1.4,59.98737589931132,
Q,right,Target,0,52,52,52,632.5345888444572,634.5344518620986,right,1,1,0.4102252348966431,F17E07,2022-09-02_11h59.41.925,t1_Paradigm,2021.1.4,59.98737589931132,
Y,left,Distractor,0,53,53,53,636.0344752806122,638.0355409840413,left,1,1,0.5089981682249345,F17E07,2022-09-02_11h59.41.925,t1_Paradigm,2021.1.4,59.98737589931132,
V,left,Distractor,0,54,54,54,639.5346010349167,641.5361598106101,left,1,1,0.5445205457508564,F17E07,2022-09-02_11h59.41.925,t1_Paradigm,2021.1.4,59.98737589931132,
B,left,Distractor,0,55,55,55,643.0345327041287,645.0336819379008,left,1,1,0.4707964545232244,F17E07,2022-09-02_11h59.41.925,t1_Paradigm,2021.1.4,59.98737589931132,
J,left,Pretarget,0,56,56,56,646.5344412756385,648.5357623372402,left,1,1,0.5527760579134338,F17E07,2022-09-02_11h59.41.925,t1_Paradigm,2021.1.4,59.98737589931132,
J,right,Target,0,57,57,57,650.0346157917811,652.0344916415052,right,1,1,0.43030966992955655,F17E07,2022-09-02_11h59.41.925,t1_Paradigm,2021.1.4,59.98737589931132,
H,left,Distractor,0,58,58,58,653.5345336665341,655.5364167728112,left,1,1,0.3842585790262092,F17E07,2022-09-02_11h59.41.925,t1_Paradigm,2021.1.4,59.98737589931132,
J,left,Lure,0,59,59,59,657.034607771755,659.0367536146368,left,1,1,0.5959441035229247,F17E07,2022-09-02_11h59.41.925,t1_Paradigm,2021.1.4,59.98737589931132,
D,left,Pretarget,0,60,60,60,660.5344640525582,662.5366224067111,left,1,1,0.6479511996440124,F17E07,2022-09-02_11h59.41.925,t1_Paradigm,2021.1.4,59.98737589931132,
D,right,Target,0,61,61,61,664.0345352705626,666.0336986196053,right,1,1,0.5589008048991673,F17E07,2022-09-02_11h59.41.925,t1_Paradigm,2021.1.4,59.98737589931132,
R,left,Distractor,0,62,62,62,667.5345955812663,669.5345917316445,left,1,1,0.5301300209539477,F17E07,2022-09-02_11h59.41.925,t1_Paradigm,2021.1.4,59.98737589931132,
F,left,Distractor,0,63,63,63,671.0344634109642,673.035085445561,left,1,1,0.3893821037490852,F17E07,2022-09-02_11h59.41.925,t1_Paradigm,2021.1.4,59.98737589931132,
F,left,Distractor,0,0,0,0,785.9346183582093,787.9177599055693,None,0,2,,F17E07,2022-09-02_11h59.41.925,t1_Paradigm,2021.1.4,59.98737589931132,
N,left,Pretarget,0,1,1,1,789.4178041761916,791.4196128564654,None,0,2,,F17E07,2022-09-02_11h59.41.925,t1_Paradigm,2021.1.4,59.98737589931132,
V,left,Distractor,0,2,2,2,792.917739374243,794.9194033729145,left,1,2,0.40906778219505213,F17E07,2022-09-02_11h59.41.925,t1_Paradigm,2021.1.4,59.98737589931132,
N,right,Target,0,3,3,3,796.4177445070818,798.4194944806222,right,1,2,0.46128083305666223,F17E07,2022-09-02_11h59.41.925,t1_Paradigm,2021.1.4,59.98737589931132,
N,left,Lure,0,4,4,4,799.9177422614594,801.9178500508424,left,1,2,0.40257347162696533,F17E07,2022-09-02_11h59.41.925,t1_Paradigm,2021.1.4,59.98737589931132,
X,left,Distractor,0,5,5,5,803.4177040860523,805.4189163958654,left,1,2,0.42151264438871294,F17E07,2022-09-02_11h59.41.925,t1_Paradigm,2021.1.4,59.98737589931132,
G,left,Pretarget,0,6,6,6,806.9176469833474,808.9197796733642,left,1,2,0.34474639015388675,F17E07,2022-09-02_11h59.41.925,t1_Paradigm,2021.1.4,59.98737589931132,
H,left,Pretarget,0,7,7,7,810.4176338304824,812.4201040039188,left,1,2,0.3642171314568259,F17E07,2022-09-02_11h59.41.925,t1_Paradigm,2021.1.4,59.98737589931132,
G,right,Target,0,8,8,8,813.9174872240692,815.919692094496,right,1,2,0.35274269455112517,F17E07,2022-09-02_11h59.41.925,t1_Paradigm,2021.1.4,59.98737589931132,
H,right,Target,0,9,9,9,817.4178368979774,819.41836493765,right,1,2,0.5500181253009941,F17E07,2022-09-02_11h59.41.925,t1_Paradigm,2021.1.4,59.98737589931132,
T,left,Pretarget,0,10,10,10,820.9174859408522,822.9197883350134,left,1,2,0.45655446089222096,F17E07,2022-09-02_11h59.41.925,t1_Paradigm,2021.1.4,59.98737589931132,
K,left,Distractor,0,11,11,11,824.4177178805403,826.419663222332,left,1,2,0.42888787656556815,F17E07,2022-09-02_11h59.41.925,t1_Paradigm,2021.1.4,59.98737589931132,
T,right,Target,0,12,12,12,827.9174044572283,829.919498971838,right,1,2,0.44876539448159747,F17E07,2022-09-02_11h59.41.925,t1_Paradigm,2021.1.4,59.98737589931132,
T,left,Lure,0,13,13,13,831.4175132090168,833.4176055999123,left,1,2,0.42287156061502174,F17E07,2022-09-02_11h59.41.925,t1_Paradigm,2021.1.4,59.98737589931132,
J,left,Distractor,0,14,14,14,834.9176155447785,836.9175398355583,left,1,2,0.3469836615549866,F17E07,2022-09-02_11h59.41.925,t1_Paradigm,2021.1.4,59.98737589931132,
Q,left,Pretarget,0,15,15,15,838.4177210885391,840.4194097889413,left,1,2,0.3649042887846008,F17E07,2022-09-02_11h59.41.925,t1_Paradigm,2021.1.4,59.98737589931132,
M,left,Distractor,0,16,16,16,841.9177316749992,843.9198252272035,left,1,2,0.4164529592380859,F17E07,2022-09-02_11h59.41.925,t1_Paradigm,2021.1.4,59.98737589931132,
Q,right,Target,0,17,17,17,845.4177682464069,847.4195073126757,right,1,2,0.3410279771196656,F17E07,2022-09-02_11h59.41.925,t1_Paradigm,2021.1.4,59.98737589931132,
R,left,Distractor,0,18,18,18,848.9178606373025,850.9195522249211,left,1,2,0.3773959880345501,F17E07,2022-09-02_11h59.41.925,t1_Paradigm,2021.1.4,59.98737589931132,
W,left,Distractor,0,19,19,19,852.4177278253774,854.4194213378069,left,1,2,0.6050353042373899,F17E07,2022-09-02_11h59.41.925,t1_Paradigm,2021.1.4,59.98737589931132,
C,left,Pretarget,0,20,20,20,855.9177608679747,857.9192795434501,left,1,2,0.41700185104855336,F17E07,2022-09-02_11h59.41.925,t1_Paradigm,2021.1.4,59.98737589931132,
T,left,Distractor,0,21,21,21,859.4174968481238,861.4196811872243,left,1,2,0.40478539967443794,F17E07,2022-09-02_11h59.41.925,t1_Paradigm,2021.1.4,59.98737589931132,
C,right,Target,0,22,22,22,862.917696065997,864.9193684055354,right,1,2,0.36117657250724733,F17E07,2022-09-02_11h59.41.925,t1_Paradigm,2021.1.4,59.98737589931132,
F,left,Pretarget,0,23,23,23,866.4177390534314,868.4194684956747,left,1,2,0.33279780828161165,F17E07,2022-09-02_11h59.41.925,t1_Paradigm,2021.1.4,59.98737589931132,
C,right,Target,0,24,24,24,869.9177259005664,871.9195464504883,right,1,2,0.4167503424396273,F17E07,2022-09-02_11h59.41.925,t1_Paradigm,2021.1.4,59.98737589931132,
F,right,Target,0,25,25,25,873.417709860485,875.4189545712725,left,0,2,0.3895360885653645,F17E07,2022-09-02_11h59.41.925,t1_Paradigm,2021.1.4,59.98737589931132,
H,left,Distractor,0,26,26,26,876.9177204469452,878.9199275629653,left,1,2,0.5043552045244724,F17E07,2022-09-02_11h59.41.925,t1_Paradigm,2021.1.4,59.98737589931132,
H,left,Lure,0,27,27,27,880.4174028531997,882.4177060108632,left,1,2,0.43083097276394255,F17E07,2022-09-02_11h59.41.925,t1_Paradigm,2021.1.4,59.98737589931132,
P,left,Distractor,0,28,28,28,883.9176261312386,885.9194129969692,left,1,2,0.38492841308470815,F17E07,2022-09-02_11h59.41.925,t1_Paradigm,2021.1.4,59.98737589931132,
G,left,Pretarget,0,29,29,29,887.4173021214665,889.4190883456031,left,1,2,0.4692591725324746,F17E07,2022-09-02_11h59.41.925,t1_Paradigm,2021.1.4,59.98737589931132,
K,left,Distractor,0,30,30,30,890.9177076148626,892.9194694580801,left,1,2,0.424766536540119,F17E07,2022-09-02_11h59.41.925,t1_Paradigm,2021.1.4,59.98737589931132,
G,right,Target,0,31,31,31,894.4173970787961,896.4185372081993,right,1,2,0.3817293780739419,F17E07,2022-09-02_11h59.41.925,t1_Paradigm,2021.1.4,59.98737589931132,
M,left,Pretarget,0,32,32,32,897.9175610084785,899.919732194714,left,1,2,0.46459375269478187,F17E07,2022-09-02_11h59.41.925,t1_Paradigm,2021.1.4,59.98737589931132,
B,left,Distractor,0,33,33,33,901.4175382315589,903.4201591818419,left,1,2,0.42017971313907765,F17E07,2022-09-02_11h59.41.925,t1_Paradigm,2021.1.4,59.98737589931132,
M,right,Target,0,34,34,34,904.9175356651249,906.91945887162,right,1,2,0.3769147854181938,F17E07,2022-09-02_11h59.41.925,t1_Paradigm,2021.1.4,59.98737589931132,
M,left,Lure,0,35,35,35,908.4176758555113,910.4176707226725,left,1,2,0.49462304191547446,F17E07,2022-09-02_11h59.41.925,t1_Paradigm,2021.1.4,59.98737589931132,
T,left,Distractor,0,36,36,36,911.9177429030533,913.9196048364101,left,1,2,0.4968112306378316,F17E07,2022-09-02_11h59.41.925,t1_Paradigm,2021.1.4,59.98737589931132,
F,left,Distractor,0,37,37,37,915.4177884569217,917.4194534179987,left,1,2,0.4848228693008423,F17E07,2022-09-02_11h59.41.925,t1_Paradigm,2021.1.4,59.98737589931132,
X,left,Distractor,0,38,38,38,918.9176787427277,920.9194646460528,left,1,2,0.45678126777056605,F17E07,2022-09-02_11h59.41.925,t1_Paradigm,2021.1.4,59.98737589931132,
C,left,Distractor,0,39,39,39,922.417521870666,924.4193757839676,left,1,2,0.5409942929400131,F17E07,2022-09-02_11h59.41.925,t1_Paradigm,2021.1.4,59.98737589931132,
R,left,Distractor,0,40,40,40,925.9175927678589,927.9189058094053,left,1,2,0.4818849668954499,F17E07,2022-09-02_11h59.41.925,t1_Paradigm,2021.1.4,59.98737589931132,
B,left,Pretarget,0,41,41,41,929.4177396950545,931.4191919645527,left,1,2,0.4371449927566573,F17E07,2022-09-02_11h59.41.925,t1_Paradigm,2021.1.4,59.98737589931132,
H,left,Distractor,0,42,42,42,932.9176254896156,934.9198505705572,left,1,2,0.5684565265546553,F17E07,2022-09-02_11h59.41.925,t1_Paradigm,2021.1.4,59.98737589931132,
B,right,Target,0,43,43,43,936.4173813594971,938.4195846258954,right,1,2,0.47700396832078695,F17E07,2022-09-02_11h59.41.925,t1_Paradigm,2021.1.4,59.98737589931132,
W,left,Pretarget,0,44,44,44,939.9174557855004,941.9199298085878,left,1,2,0.5605532547051553,F17E07,2022-09-02_11h59.41.925,t1_Paradigm,2021.1.4,59.98737589931132,
L,left,Pretarget,0,45,45,45,943.4175722365326,945.4195692274079,left,1,2,0.46872343361610547,F17E07,2022-09-02_11h59.41.925,t1_Paradigm,2021.1.4,59.98737589931132,
W,right,Target,0,46,46,46,946.9176267728326,948.918585007661,right,1,2,0.6497829776199069,F17E07,2022-09-02_11h59.41.925,t1_Paradigm,2021.1.4,59.98737589931132,
L,right,Target,0,47,47,47,950.4176335096708,952.4190456789511,right,1,2,0.5092823985614814,F17E07,2022-09-02_11h59.41.925,t1_Paradigm,2021.1.4,59.98737589931132,
W,right,Target,0,48,48,48,953.9176591738069,955.9193966360763,right,1,2,0.6408691802644171,F17E07,2022-09-02_11h59.41.925,t1_Paradigm,2021.1.4,59.98737589931132,
X,left,Distractor,0,49,49,49,957.417602712696,959.4193889368325,left,1,2,0.48496338046970777,F17E07,2022-09-02_11h59.41.925,t1_Paradigm,2021.1.4,59.98737589931132,
R,left,Distractor,0,50,50,50,960.9176319056714,962.9183036645118,left,1,2,0.5059284162998665,F17E07,2022-09-02_11h59.41.925,t1_Paradigm,2021.1.4,59.98737589931132,
V,left,Pretarget,0,51,51,51,964.4176363968872,966.4183710328944,left,1,2,0.6379328818584327,F17E07,2022-09-02_11h59.41.925,t1_Paradigm,2021.1.4,59.98737589931132,
Z,left,Distractor,0,52,52,52,967.9177169181348,969.9196574478992,left,1,2,0.5928714643523563,F17E07,2022-09-02_11h59.41.925,t1_Paradigm,2021.1.4,59.98737589931132,
V,right,Target,0,53,53,53,971.4174413494184,973.4181394140178,right,1,2,0.4380958491237834,F17E07,2022-09-02_11h59.41.925,t1_Paradigm,2021.1.4,59.98737589931132,
V,left,Lure,0,54,54,54,974.9173925875511,976.9175998254796,left,1,2,0.8107353096711449,F17E07,2022-09-02_11h59.41.925,t1_Paradigm,2021.1.4,59.98737589931132,
N,left,Distractor,0,55,55,55,978.4175962966692,980.4196888864681,left,1,2,0.700554024631856,F17E07,2022-09-02_11h59.41.925,t1_Paradigm,2021.1.4,59.98737589931132,
B,left,Distractor,0,56,56,56,981.9171988232993,983.9181878551026,left,1,2,0.7221154308936093,F17E07,2022-09-02_11h59.41.925,t1_Paradigm,2021.1.4,59.98737589931132,
V,left,Lure,0,57,57,57,985.4174657303665,987.4179636146582,left,1,2,0.8383021246700082,F17E07,2022-09-02_11h59.41.925,t1_Paradigm,2021.1.4,59.98737589931132,
J,left,Distractor,0,58,58,58,988.9173794346862,990.9193956736708,left,1,2,0.6007910971238744,F17E07,2022-09-02_11h59.41.925,t1_Paradigm,2021.1.4,59.98737589931132,
H,left,Distractor,0,59,59,59,992.417629660049,994.4188240049698,left,1,2,0.6374478296202142,F17E07,2022-09-02_11h59.41.925,t1_Paradigm,2021.1.4,59.98737589931132,
X,left,Pretarget,0,60,60,60,995.9177871737047,997.9193789919664,left,1,2,0.8489187377272174,F17E07,2022-09-02_11h59.41.925,t1_Paradigm,2021.1.4,59.98737589931132,
P,left,Distractor,0,61,61,61,999.417096808349,1001.4182966068911,left,1,2,0.5660774607677013,F17E07,2022-09-02_11h59.41.925,t1_Paradigm,2021.1.4,59.98737589931132,
X,right,Target,0,62,62,62,1002.9172645876533,1004.9181262611528,right,1,2,0.4899771909986157,F17E07,2022-09-02_11h59.41.925,t1_Paradigm,2021.1.4,59.98737589931132,
Q,left,Distractor,0,63,63,63,1006.4172896101954,1008.4192830722604,left,1,2,0.5251409121847246,F17E07,2022-09-02_11h59.41.925,t1_Paradigm,2021.1.4,59.98737589931132,
B,left,Pretarget,0,0,0,0,1015.6501660149079,1017.6356308085087,None,0,2,,F17E07,2022-09-02_11h59.41.925,t1_Paradigm,2021.1.4,59.98737589931132,
F,left,Distractor,0,1,1,1,1019.1342289048771,1021.1351550595136,None,0,2,,F17E07,2022-09-02_11h59.41.925,t1_Paradigm,2021.1.4,59.98737589931132,
B,right,Target,0,2,2,2,1022.6337727248028,1024.6360446427716,right,1,2,0.46832499784068204,F17E07,2022-09-02_11h59.41.925,t1_Paradigm,2021.1.4,59.98737589931132,
V,left,Distractor,0,3,3,3,1026.1340373862477,1028.1349189494504,left,1,2,0.6333017878059763,F17E07,2022-09-02_11h59.41.925,t1_Paradigm,2021.1.4,59.98737589931132,
G,left,Pretarget,0,4,4,4,1029.6341531956568,1031.6362605423492,left,1,2,0.7478982673492283,F17E07,2022-09-02_11h59.41.925,t1_Paradigm,2021.1.4,59.98737589931132,
B,left,Lure,0,5,5,5,1033.1340909601422,1035.1346279822465,left,1,2,0.8817075635306537,F17E07,2022-09-02_11h59.41.925,t1_Paradigm,2021.1.4,59.98737589931132,
G,right,Target,0,6,6,6,1036.6340669000056,1038.636473875522,right,1,2,0.8195284855901264,F17E07,2022-09-02_11h59.41.925,t1_Paradigm,2021.1.4,59.98737589931132,
Y,left,Pretarget,0,7,7,7,1040.1338586996717,1042.1362188381318,left,1,2,0.9200218786718324,F17E07,2022-09-02_11h59.41.925,t1_Paradigm,2021.1.4,59.98737589931132,
P,left,Distractor,0,8,8,8,1043.6340312910033,1045.635816231923,left,1,2,0.524547749751946,F17E07,2022-09-02_11h59.41.925,t1_Paradigm,2021.1.4,59.98737589931132,
Y,right,Target,0,9,9,9,1047.1341669901449,1049.1346838017635,right,1,2,0.5620032785809599,F17E07,2022-09-02_11h59.41.925,t1_Paradigm,2021.1.4,59.98737589931132,
X,left,Distractor,0,10,10,10,1050.6342657970963,1052.6357292946486,left,1,2,0.8363247026863974,F17E07,2022-09-02_11h59.41.925,t1_Paradigm,2021.1.4,59.98737589931132,
Y,right,Target,0,11,11,11,1054.1341605741181,1056.136319569865,right,1,2,0.999878095346503,F17E07,2022-09-02_11h59.41.925,t1_Paradigm,2021.1.4,59.98737589931132,
N,left,Distractor,0,12,12,12,1057.6339164439705,1059.6360773645574,left,1,2,0.7319351723708678,F17E07,2022-09-02_11h59.41.925,t1_Paradigm,2021.1.4,59.98737589931132,
Y,right,Target,0,13,13,13,1061.1339716218936,1063.1359743872017,right,1,2,0.7522220333048608,F17E07,2022-09-02_11h59.41.925,t1_Paradigm,2021.1.4,59.98737589931132,
Y,left,Lure,0,14,14,14,1064.6338673613209,1066.6341660277394,left,1,2,0.853804548329208,F17E07,2022-09-02_11h59.41.925,t1_Paradigm,2021.1.4,59.98737589931132,
K,left,Distractor,0,15,15,15,1068.134192012687,1070.1353571646323,left,1,2,0.5850127839657944,F17E07,2022-09-02_11h59.41.925,t1_Paradigm,2021.1.4,59.98737589931132,
T,left,Pretarget,0,16,16,16,1071.6340030604624,1073.6333258479717,left,1,2,0.6709193215647247,F17E07,2022-09-02_11h59.41.925,t1_Paradigm,2021.1.4,59.98737589931132,
J,left,Distractor,0,17,17,17,1075.1341997119307,1077.1361777755083,left,1,2,0.6080931865144521,F17E07,2022-09-02_11h59.41.925,t1_Paradigm,2021.1.4,59.98737589931132,
T,right,Target,0,18,18,18,1078.6507190771226,1080.635075179889,right,1,2,0.7409618919482455,F17E07,2022-09-02_11h59.41.925,t1_Paradigm,2021.1.4,59.98737589931132,
S,left,Pretarget,0,19,19,19,1082.1339809251367,1084.135884562711,left,1,2,0.9522942136973143,F17E07,2022-09-02_11h59.41.925,t1_Paradigm,2021.1.4,59.98737589931132,
R,left,Distractor,0,20,20,20,1085.6339087447268,1087.6344242731575,left,1,2,0.6857855953567196,F17E07,2022-09-02_11h59.41.925,t1_Paradigm,2021.1.4,59.98737589931132,
S,right,Target,0,21,21,21,1089.1337736872083,1091.1350540069689,right,1,2,0.545318379678065,F17E07,2022-09-02_11h59.41.925,t1_Paradigm,2021.1.4,59.98737589931132,
Q,left,Distractor,0,22,22,22,1092.6339087447268,1094.635983048851,left,1,2,0.8520638780319132,F17E07,2022-09-02_11h59.41.925,t1_Paradigm,2021.1.4,59.98737589931132,
D,left,Distractor,0,23,23,23,1096.133931842458,1098.1363073794055,left,1,2,0.6799377003044356,F17E07,2022-09-02_11h59.41.925,t1_Paradigm,2021.1.4,59.98737589931132,
F,left,Distractor,0,24,24,24,1099.6340457270853,1101.635852482519,left,1,2,0.6363160410546698,F17E07,2022-09-02_11h59.41.925,t1_Paradigm,2021.1.4,59.98737589931132,
Z,left,Distractor,0,25,25,25,1103.1341002633853,1105.134900984529,left,1,2,0.8012601092923433,F17E07,2022-09-02_11h59.41.925,t1_Paradigm,2021.1.4,59.98737589931132,
P,left,Distractor,0,26,26,26,1106.6338570956432,1108.6350745382952,left,1,2,0.8369005418499,F17E07,2022-09-02_11h59.41.925,t1_Paradigm,2021.1.4,59.98737589931132,
H,left,Distractor,0,27,27,27,1110.1339985692175,1112.135839971248,left,1,2,1.01634196183295,F17E07,2022-09-02_11h59.41.925,t1_Paradigm,2021.1.4,59.98737589931132,
Z,left,Pretarget,0,28,28,28,1113.6341326643596,1115.6347101074934,left,1,2,0.7814185211609583,F17E07,2022-09-02_11h59.41.925,t1_Paradigm,2021.1.4,59.98737589931132,
J,left,Pretarget,0,29,29,29,1117.1338570956432,1119.1359814448224,left,1,2,1.2802774293522816,F17E07,2022-09-02_11h59.41.925,t1_Paradigm,2021.1.4,59.98737589931132,
Z,right,Target,0,30,30,30,1120.6340733160323,1122.6349330647208,left,0,2,1.3172190338082146,F17E07,2022-09-02_11h59.41.925,t1_Paradigm,2021.1.4,59.98737589931132,
J,right,Target,0,31,31,31,1124.133942428918,1126.1361588482105,right,1,2,0.4879580647684634,F17E07,2022-09-02_11h59.41.925,t1_Paradigm,2021.1.4,59.98737589931132,
V,left,Pretarget,0,32,32,32,1127.6339889451629,1129.6347877415246,left,1,2,0.7492206121678464,F17E07,2022-09-02_11h59.41.925,t1_Paradigm,2021.1.4,59.98737589931132,
Z,left,Lure,0,33,33,33,1131.133710489259,1133.1352253151126,left,1,2,1.0890446203120518,F17E07,2022-09-02_11h59.41.925,t1_Paradigm,2021.1.4,59.98737589931132,
V,right,Target,0,34,34,34,1134.6341175866837,1136.6362403318344,right,1,2,1.219955151900649,F17E07,2022-09-02_11h59.41.925,t1_Paradigm,2021.1.4,59.98737589931132,
X,left,Distractor,0,35,35,35,1138.133781386452,1140.1345561226772,left,1,2,0.8737061263527721,F17E07,2022-09-02_11h59.41.925,t1_Paradigm,2021.1.4,59.98737589931132,
S,left,Distractor,0,36,36,36,1141.633795180911,1143.634722939576,None,0,2,,F17E07,2022-09-02_11h59.41.925,t1_Paradigm,2021.1.4,59.98737589931132,
Q,left,Distractor,0,37,37,37,1145.1340162133274,1147.1347396212514,left,1,2,0.7054982211557217,F17E07,2022-09-02_11h59.41.925,t1_Paradigm,2021.1.4,59.98737589931132,
P,left,Distractor,0,38,38,38,1148.6337493062601,1150.6360116002033,left,1,2,0.83598657764378,F17E07,2022-09-02_11h59.41.925,t1_Paradigm,2021.1.4,59.98737589931132,
S,left,Lure,0,39,39,39,1152.133740644611,1154.1360427179607,left,1,2,0.9680459003138822,F17E07,2022-09-02_11h59.41.925,t1_Paradigm,2021.1.4,59.98737589931132,
K,left,Pretarget,0,40,40,40,1155.633805767371,1157.63644179533,left,1,2,0.6996849727001972,F17E07,2022-09-02_11h59.41.925,t1_Paradigm,2021.1.4,59.98737589931132,
L,left,Distractor,0,41,41,41,1159.133714980475,1161.135840612871,left,1,2,0.6724267689860426,F17E07,2022-09-02_11h59.41.925,t1_Paradigm,2021.1.4,59.98737589931132,
K,right,Target,0,42,42,42,1162.6341050754127,1164.6359278709278,right,1,2,0.5001754785480443,F17E07,2022-09-02_11h59.41.925,t1_Paradigm,2021.1.4,59.98737589931132,
B,left,Distractor,0,43,43,43,1166.1339007247007,1168.1465778473648,left,1,2,0.7655195865372662,F17E07,2022-09-02_11h59.41.925,t1_Paradigm,2021.1.4,59.98737589931132,
N,left,Distractor,0,44,44,44,1169.6341410051973,1171.6363587076776,left,1,2,0.8119986269448418,F17E07,2022-09-02_11h59.41.925,t1_Paradigm,2021.1.4,59.98737589931132,
S,left,Pretarget,0,45,45,45,1173.133714980475,1175.133972584299,left,1,2,0.7381256837106775,F17E07,2022-09-02_11h59.41.925,t1_Paradigm,2021.1.4,59.98737589931132,
Z,left,Distractor,0,46,46,46,1176.6339542985952,1178.6357626580284,left,1,2,0.5646133215923328,F17E07,2022-09-02_11h59.41.925,t1_Paradigm,2021.1.4,59.98737589931132,
S,right,Target,0,47,47,47,1180.1338532460213,1182.1354938261793,right,1,2,0.3768830260669347,F17E07,2022-09-02_11h59.41.925,t1_Paradigm,2021.1.4,59.98737589931132,
C,left,Distractor,0,48,48,48,1183.6339196519984,1185.6349519920186,left,1,2,0.6691051876987331,F17E07,2022-09-02_11h59.41.925,t1_Paradigm,2021.1.4,59.98737589931132,
T,left,Pretarget,0,49,49,49,1187.1340136469225,1189.1350838415383,left,1,2,0.8653351255343296,F17E07,2022-09-02_11h59.41.925,t1_Paradigm,2021.1.4,59.98737589931132,
S,left,Lure,0,50,50,50,1190.6337714415858,1192.6361219559913,left,1,2,0.660443219676381,F17E07,2022-09-02_11h59.41.925,t1_Paradigm,2021.1.4,59.98737589931132,
T,right,Target,0,51,51,51,1194.1339998524345,1196.1364113191667,right,1,2,0.535702668101294,F17E07,2022-09-02_11h59.41.925,t1_Paradigm,2021.1.4,59.98737589931132,
N,left,Pretarget,0,52,52,52,1197.6339379377023,1199.6354229289864,left,1,2,0.6206750310375355,F17E07,2022-09-02_11h59.41.925,t1_Paradigm,2021.1.4,59.98737589931132,
B,left,Distractor,0,53,53,53,1201.134152554063,1203.1354546883667,left,1,2,0.5766299134702422,F17E07,2022-09-02_11h59.41.925,t1_Paradigm,2021.1.4,59.98737589931132,
N,right,Target,0,54,54,54,1204.6341018673847,1206.6363247027039,right,1,2,0.40371520502958447,F17E07,2022-09-02_11h59.41.925,t1_Paradigm,2021.1.4,59.98737589931132,
N,left,Lure,0,55,55,55,1208.1338118626154,1210.1337489854777,left,1,2,1.0503947465622332,F17E07,2022-09-02_11h59.41.925,t1_Paradigm,2021.1.4,59.98737589931132,
X,left,Distractor,0,56,56,56,1211.6338927046454,1213.634643380734,left,1,2,0.5735585575457662,F17E07,2022-09-02_11h59.41.925,t1_Paradigm,2021.1.4,59.98737589931132,
W,left,Distractor,0,57,57,57,1215.1336376672552,1217.1355826882645,left,1,2,0.5448557835770771,F17E07,2022-09-02_11h59.41.925,t1_Paradigm,2021.1.4,59.98737589931132,
S,left,Distractor,0,58,58,58,1218.6340303285979,1220.634530458512,left,1,2,0.4215530654473696,F17E07,2022-09-02_11h59.41.925,t1_Paradigm,2021.1.4,59.98737589931132,
L,left,Distractor,0,59,59,59,1222.1341698773613,1224.1354081720929,left,1,2,0.5846862077596597,F17E07,2022-09-02_11h59.41.925,t1_Paradigm,2021.1.4,59.98737589931132,
K,left,Pretarget,0,60,60,60,1225.6338859678071,1227.6360642116924,left,1,2,0.49193953527719714,F17E07,2022-09-02_11h59.41.925,t1_Paradigm,2021.1.4,59.98737589931132,
V,left,Pretarget,0,61,61,61,1229.1337201133138,1231.1360934046388,left,1,2,0.5282151552964933,F17E07,2022-09-02_11h59.41.925,t1_Paradigm,2021.1.4,59.98737589931132,
K,right,Target,0,62,62,62,1232.6333579281345,1234.6352089542197,right,1,2,0.9327365351491608,F17E07,2022-09-02_11h59.41.925,t1_Paradigm,2021.1.4,59.98737589931132,
V,right,Target,0,63,63,63,1236.1340078724897,1238.135764262057,right,1,2,0.6648378828249406,F17E07,2022-09-02_11h59.41.925,t1_Paradigm,2021.1.4,59.98737589931132,
R,left,Distractor,0,0,0,0,1317.1409163381031,1319.1356186180492,None,0,3,,F17E07,2022-09-02_11h59.41.925,t1_Paradigm,2021.1.4,59.98737589931132,
P,left,Lure,0,1,1,1,1320.6336264392012,1322.6359031691973,None,0,3,,F17E07,2022-09-02_11h59.41.925,t1_Paradigm,2021.1.4,59.98737589931132,
V,left,Distractor,0,2,2,2,1324.1337178676913,1326.1358159111405,None,0,3,,F17E07,2022-09-02_11h59.41.925,t1_Paradigm,2021.1.4,59.98737589931132,
P,left,Pretarget,0,3,3,3,1327.6336675018247,1329.635144152271,left,1,3,0.5570042249455582,F17E07,2022-09-02_11h59.41.925,t1_Paradigm,2021.1.4,59.98737589931132,
Z,left,Distractor,0,4,4,4,1331.133919331187,1333.136074477341,left,1,3,0.5280833058059216,F17E07,2022-09-02_11h59.41.925,t1_Paradigm,2021.1.4,59.98737589931132,
L,left,Pretarget,0,5,5,5,1334.6335414267378,1336.6344274811563,left,1,3,0.5494855943834409,F17E07,2022-09-02_11h59.41.925,t1_Paradigm,2021.1.4,59.98737589931132,
P,right,Target,0,6,6,6,1338.1336614065804,1340.1342324336874,right,1,3,0.5055652687442489,F17E07,2022-09-02_11h59.41.925,t1_Paradigm,2021.1.4,59.98737589931132,
S,left,Distractor,0,7,7,7,1341.6336601233925,1343.6357908885984,left,1,3,0.5402792258537374,F17E07,2022-09-02_11h59.41.925,t1_Paradigm,2021.1.4,59.98737589931132,
L,right,Target,0,8,8,8,1345.133861586888,1347.1355595905334,right,1,3,0.46426653492380865,F17E07,2022-09-02_11h59.41.925,t1_Paradigm,2021.1.4,59.98737589931132,
D,left,Distractor,0,9,9,9,1348.6335815269558,1350.6358396504656,left,1,3,0.5805039153783582,F17E07,2022-09-02_11h59.41.925,t1_Paradigm,2021.1.4,59.98737589931132,
G,left,Distractor,0,10,10,10,1352.1335622788465,1354.134643380734,left,1,3,0.9853358313266654,F17E07,2022-09-02_11h59.41.925,t1_Paradigm,2021.1.4,59.98737589931132,
M,left,Pretarget,0,11,11,11,1355.633887892618,1357.6347425084678,left,1,3,0.509463651542319,F17E07,2022-09-02_11h59.41.925,t1_Paradigm,2021.1.4,59.98737589931132,
Y,left,Distractor,0,12,12,12,1359.133863511699,1361.1343376566656,left,1,3,0.6737587378593162,F17E07,2022-09-02_11h59.41.925,t1_Paradigm,2021.1.4,59.98737589931132,
V,left,Distractor,0,13,13,13,1362.633879872592,1364.635596803535,left,1,3,0.7883087011286989,F17E07,2022-09-02_11h59.41.925,t1_Paradigm,2021.1.4,59.98737589931132,
M,right,Target,0,14,14,14,1366.1338580580486,1368.1350049243192,right,1,3,0.42473766434704885,F17E07,2022-09-02_11h59.41.925,t1_Paradigm,2021.1.4,59.98737589931132,
S,left,Pretarget,0,15,15,15,1369.6339225392148,1371.6361851539405,left,1,3,0.6517988958221395,F17E07,2022-09-02_11h59.41.925,t1_Paradigm,2021.1.4,59.98737589931132,
Q,left,Distractor,0,16,16,16,1373.1336216271739,1375.134547461028,left,1,3,0.5933943712152541,F17E07,2022-09-02_11h59.41.925,t1_Paradigm,2021.1.4,59.98737589931132,
R,left,Pretarget,0,17,17,17,1376.6338298275077,1378.6356070691836,left,1,3,0.948644131392939,F17E07,2022-09-02_11h59.41.925,t1_Paradigm,2021.1.4,59.98737589931132,
S,right,Target,0,18,18,18,1380.1330079334439,1382.1356436405913,right,1,3,0.9203497380658519,F17E07,2022-09-02_11h59.41.925,t1_Paradigm,2021.1.4,59.98737589931132,
F,left,Distractor,0,19,19,19,1383.6339645642438,1385.6359464774432,left,1,3,0.7963402936584316,F17E07,2022-09-02_11h59.41.925,t1_Paradigm,2021.1.4,59.98737589931132,
R,right,Target,0,20,20,20,1387.133754439099,1389.1358229687612,right,1,3,0.8962770957150497,F17E07,2022-09-02_11h59.41.925,t1_Paradigm,2021.1.4,59.98737589931132,
P,left,Distractor,0,21,21,21,1390.6336402336601,1392.635582367453,left,1,3,0.6284987440740224,F17E07,2022-09-02_11h59.41.925,t1_Paradigm,2021.1.4,59.98737589931132,
L,left,Distractor,0,22,22,22,1394.1338586996717,1396.1362303869973,left,1,3,0.9357443723129109,F17E07,2022-09-02_11h59.41.925,t1_Paradigm,2021.1.4,59.98737589931132,
R,right,Target,0,23,23,23,1397.6337409654225,1399.6351685331902,right,1,3,0.684759350551758,F17E07,2022-09-02_11h59.41.925,t1_Paradigm,2021.1.4,59.98737589931132,
H,left,Pretarget,0,24,24,24,1401.1338420179673,1403.135732823488,left,1,3,0.5443357639596798,F17E07,2022-09-02_11h59.41.925,t1_Paradigm,2021.1.4,59.98737589931132,
G,left,Pretarget,0,25,25,25,1404.633521216223,1406.635936532577,left,1,3,0.4841203134856187,F17E07,2022-09-02_11h59.41.925,t1_Paradigm,2021.1.4,59.98737589931132,
T,left,Distractor,0,26,26,26,1408.1338458675891,1410.135977274418,None,0,3,,F17E07,2022-09-02_11h59.41.925,t1_Paradigm,2021.1.4,59.98737589931132,
H,right,Target,0,27,27,27,1411.633480474411,1413.6351104680798,right,1,3,0.8926821913337335,F17E07,2022-09-02_11h59.41.925,t1_Paradigm,2021.1.4,59.98737589931132,
G,right,Target,0,28,28,28,1415.1334965144924,1417.1358858458989,left,0,3,0.8320217888394836,F17E07,2022-09-02_11h59.41.925,t1_Paradigm,2021.1.4,59.98737589931132,
D,left,Distractor,0,29,29,29,1418.632923241763,1420.6354947885848,left,1,3,1.3964076620468404,F17E07,2022-09-02_11h59.41.925,t1_Paradigm,2021.1.4,59.98737589931132,
N,left,Pretarget,0,30,30,30,1422.1337361533951,1424.1335642036574,left,1,3,1.4023437775613274,F17E07,2022-09-02_11h59.41.925,t1_Paradigm,2021.1.4,59.98737589931132,
V,left,Distractor,0,31,31,31,1425.633757647127,1427.635079029511,left,1,3,1.2130001700134017,F17E07,2022-09-02_11h59.41.925,t1_Paradigm,2021.1.4,59.98737589931132,
R,left,Distractor,0,32,32,32,1429.1337120932585,1431.1344079122646,right,0,3,1.0576609061390627,F17E07,2022-09-02_11h59.41.925,t1_Paradigm,2021.1.4,59.98737589931132,
N,right,Target,0,33,33,33,1432.6336905995558,1434.6361957404006,right,1,3,1.219737648323644,F17E07,2022-09-02_11h59.41.925,t1_Paradigm,2021.1.4,59.98737589931132,
Z,left,Distractor,0,34,34,34,1436.1336748802569,1438.134721656359,left,1,3,0.9371895842195954,F17E07,2022-09-02_11h59.41.925,t1_Paradigm,2021.1.4,59.98737589931132,
N,left,Lure,0,35,35,35,1439.6337922936946,1441.6345901276509,None,0,3,,F17E07,2022-09-02_11h59.41.925,t1_Paradigm,2021.1.4,59.98737589931132,
Y,left,Pretarget,0,36,36,36,1443.1336957323656,1445.1358730138454,left,1,3,0.704061991738854,F17E07,2022-09-02_11h59.41.925,t1_Paradigm,2021.1.4,59.98737589931132,
Y,left,Lure,0,37,37,37,1446.6336905995558,1448.6335728653066,left,1,3,0.7104398512747139,F17E07,2022-09-02_11h59.41.925,t1_Paradigm,2021.1.4,59.98737589931132,
B,left,Distractor,0,38,38,38,1450.133807050588,1452.1345108896203,left,1,3,0.47317584106349386,F17E07,2022-09-02_11h59.41.925,t1_Paradigm,2021.1.4,59.98737589931132,
Y,right,Target,0,39,39,39,1453.6336530657427,1455.6351694955956,right,1,3,0.588841873628553,F17E07,2022-09-02_11h59.41.925,t1_Paradigm,2021.1.4,59.98737589931132,
J,left,Distractor,0,40,40,40,1457.1336261183897,1459.1359763120126,left,1,3,0.544033568672603,F17E07,2022-09-02_11h59.41.925,t1_Paradigm,2021.1.4,59.98737589931132,
X,left,Distractor,0,41,41,41,1460.6333948203246,1462.6350209644006,left,1,3,0.6613594294758514,F17E07,2022-09-02_11h59.41.925,t1_Paradigm,2021.1.4,59.98737589931132,
W,left,Pretarget,0,42,42,42,1464.1335966046317,1466.1343152005575,left,1,3,0.5374061253969558,F17E07,2022-09-02_11h59.41.925,t1_Paradigm,2021.1.4,59.98737589931132,
S,left,Pretarget,0,43,43,43,1467.6333348304033,1469.6344942079158,left,1,3,0.6853746483393479,F17E07,2022-09-02_11h59.41.925,t1_Paradigm,2021.1.4,59.98737589931132,
R,left,Distractor,0,44,44,44,1471.1334483942192,1473.1340813360875,left,1,3,0.8819436736230273,F17E07,2022-09-02_11h59.41.925,t1_Paradigm,2021.1.4,59.98737589931132,
W,right,Target,0,45,45,45,1474.6336007750651,1476.634126248333,right,1,3,0.533629968034802,F17E07,2022-09-02_11h59.41.925,t1_Paradigm,2021.1.4,59.98737589931132,
S,right,Target,0,46,46,46,1478.1336267600127,1480.1353148187918,right,1,3,0.8566782903799322,F17E07,2022-09-02_11h59.41.925,t1_Paradigm,2021.1.4,59.98737589931132,
D,left,Distractor,0,47,47,47,1481.6336254767957,1483.6355544576945,left,1,3,0.908099281747127,F17E07,2022-09-02_11h59.41.925,t1_Paradigm,2021.1.4,59.98737589931132,
T,left,Distractor,0,48,48,48,1485.1334374869766,1487.135928512551,left,1,3,1.0720819070993457,F17E07,2022-09-02_11h59.41.925,t1_Paradigm,2021.1.4,59.98737589931132,
S,right,Target,0,49,49,49,1488.633648574527,1490.635038287699,right,1,3,0.8047914949129336,F17E07,2022-09-02_11h59.41.925,t1_Paradigm,2021.1.4,59.98737589931132,
K,left,Distractor,0,50,50,50,1492.133643441688,1494.135597445129,left,1,3,0.7124609022866935,F17E07,2022-09-02_11h59.41.925,t1_Paradigm,2021.1.4,59.98737589931132,
S,left,Lure,0,51,51,51,1495.6504909870855,1497.6342054863635,left,1,3,1.0856088336149696,F17E07,2022-09-02_11h59.41.925,t1_Paradigm,2021.1.4,59.98737589931132,
T,left,Pretarget,0,52,52,52,1499.1337059980433,1501.1339716218936,right,0,3,0.5140084499143995,F17E07,2022-09-02_11h59.41.925,t1_Paradigm,2021.1.4,59.98737589931132,
V,left,Distractor,0,53,53,53,1502.6335917926044,1504.6342423785536,left,1,3,0.7256346260546707,F17E07,2022-09-02_11h59.41.925,t1_Paradigm,2021.1.4,59.98737589931132,
B,left,Distractor,0,54,54,54,1506.1337120932585,1508.1357398811087,left,1,3,0.7923030036618002,F17E07,2022-09-02_11h59.41.925,t1_Paradigm,2021.1.4,59.98737589931132,
T,right,Target,0,55,55,55,1509.633710489259,1511.6341621781175,right,1,3,0.7818217689637095,F17E07,2022-09-02_11h59.41.925,t1_Paradigm,2021.1.4,59.98737589931132,
Y,left,Pretarget,0,56,56,56,1513.1328831415449,1515.135381224769,left,1,3,0.6084338779328391,F17E07,2022-09-02_11h59.41.925,t1_Paradigm,2021.1.4,59.98737589931132,
T,left,Lure,0,57,57,57,1516.6335715820896,1518.6351425482717,left,1,3,0.8846608644234948,F17E07,2022-09-02_11h59.41.925,t1_Paradigm,2021.1.4,59.98737589931132,
P,left,Pretarget,0,58,58,58,1520.1334031611914,1522.1354290242307,left,1,3,0.968468075414421,F17E07,2022-09-02_11h59.41.925,t1_Paradigm,2021.1.4,59.98737589931132,
Y,right,Target,0,59,59,59,1523.6330913418788,1525.6348233505269,right,1,3,1.3571219591831323,F17E07,2022-09-02_11h59.41.925,t1_Paradigm,2021.1.4,59.98737589931132,
R,left,Distractor,0,60,60,60,1527.1337220381247,1529.135776773328,left,1,3,1.232020505645778,F17E07,2022-09-02_11h59.41.925,t1_Paradigm,2021.1.4,59.98737589931132,
P,right,Target,0,61,61,61,1530.6333373968373,1532.6343103885301,left,0,3,0.8854705680569168,F17E07,2022-09-02_11h59.41.925,t1_Paradigm,2021.1.4,59.98737589931132,
L,left,Distractor,0,62,62,62,1534.133755722316,1536.1355137158826,left,1,3,0.744559362763539,F17E07,2022-09-02_11h59.41.925,t1_Paradigm,2021.1.4,59.98737589931132,
V,left,Distractor,0,63,63,63,1537.63365787777,1539.6342356417153,left,1,3,0.8619028676184826,F17E07,2022-09-02_11h59.41.925,t1_Paradigm,2021.1.4,59.98737589931132,
H,left,Lure,0,0,0,0,1552.4784058719524,1554.4675961362664,None,0,3,,F17E07,2022-09-02_11h59.41.925,t1_Paradigm,2021.1.4,59.98737589931132,
B,left,Distractor,0,1,1,1,1555.9666763976566,1557.967863364116,None,0,3,,F17E07,2022-09-02_11h59.41.925,t1_Paradigm,2021.1.4,59.98737589931132,
T,left,Distractor,0,2,2,2,1559.4660947840894,1561.4676519557834,None,0,3,,F17E07,2022-09-02_11h59.41.925,t1_Paradigm,2021.1.4,59.98737589931132,
R,left,Distractor,0,3,3,3,1562.9667684677697,1564.968820636539,left,1,3,0.4709411360672675,F17E07,2022-09-02_11h59.41.925,t1_Paradigm,2021.1.4,59.98737589931132,
H,left,Pretarget,0,4,4,4,1566.467007144267,1568.4686717845325,left,1,3,0.4750737041758839,F17E07,2022-09-02_11h59.41.925,t1_Paradigm,2021.1.4,59.98737589931132,
K,left,Distractor,0,5,5,5,1569.966743124416,1571.9674915548821,left,1,3,0.7041604778787587,F17E07,2022-09-02_11h59.41.925,t1_Paradigm,2021.1.4,59.98737589931132,
G,left,Distractor,0,6,6,6,1573.4665236960282,1575.4687882355647,left,1,3,0.8510408412548713,F17E07,2022-09-02_11h59.41.925,t1_Paradigm,2021.1.4,59.98737589931132,
H,right,Target,0,7,7,7,1576.9667999063386,1578.9852857862425,right,1,3,0.48642944445600733,F17E07,2022-09-02_11h59.41.925,t1_Paradigm,2021.1.4,59.98737589931132,
Y,left,Pretarget,0,8,8,8,1580.467020297132,1582.4668425729615,left,1,3,0.6369108075159602,F17E07,2022-09-02_11h59.41.925,t1_Paradigm,2021.1.4,59.98737589931132,
S,left,Distractor,0,9,9,9,1583.9668201168242,1585.9677947125456,left,1,3,0.896224805037491,F17E07,2022-09-02_11h59.41.925,t1_Paradigm,2021.1.4,59.98737589931132,
P,left,Distractor,0,10,10,10,1587.4670324875915,1589.4674938005046,left,1,3,0.9482546781073324,F17E07,2022-09-02_11h59.41.925,t1_Paradigm,2021.1.4,59.98737589931132,
Y,right,Target,0,11,11,11,1590.9667806582293,1592.9683198650018,right,1,3,0.7754811224294826,F17E07,2022-09-02_11h59.41.925,t1_Paradigm,2021.1.4,59.98737589931132,
H,left,Lure,0,12,12,12,1594.466953249561,1596.469093959633,left,1,3,1.130576256196946,F17E07,2022-09-02_11h59.41.925,t1_Paradigm,2021.1.4,59.98737589931132,
Q,left,Distractor,0,13,13,13,1597.9669333598576,1599.9673298708221,left,1,3,0.9763527407485526,F17E07,2022-09-02_11h59.41.925,t1_Paradigm,2021.1.4,59.98737589931132,
V,left,Pretarget,0,14,14,14,1601.4660440974112,1603.467770010815,left,1,3,0.756115604104707,F17E07,2022-09-02_11h59.41.925,t1_Paradigm,2021.1.4,59.98737589931132,
G,left,Distractor,0,15,15,15,1604.9669898209686,1606.9691308518231,left,1,3,0.9026565592503175,F17E07,2022-09-02_11h59.41.925,t1_Paradigm,2021.1.4,59.98737589931132,
Z,left,Pretarget,0,16,16,16,1608.4667501820659,1610.4679345821205,left,1,3,0.6518691513629165,F17E07,2022-09-02_11h59.41.925,t1_Paradigm,2021.1.4,59.98737589931132,
V,right,Target,0,17,17,17,1611.9666706232238,1613.9688251277548,left,0,3,0.7829461790970527,F17E07,2022-09-02_11h59.41.925,t1_Paradigm,2021.1.4,59.98737589931132,
N,left,Distractor,0,18,18,18,1615.466583365138,1617.4691302102292,left,1,3,0.9949072722520214,F17E07,2022-09-02_11h59.41.925,t1_Paradigm,2021.1.4,59.98737589931132,
Z,right,Target,0,19,19,19,1618.9669647984265,1620.9674136000685,right,1,3,0.8243937648949213,F17E07,2022-09-02_11h59.41.925,t1_Paradigm,2021.1.4,59.98737589931132,
R,left,Distractor,0,20,20,20,1622.46665233752,1624.467636557296,left,1,3,1.1482177858997602,F17E07,2022-09-02_11h59.41.925,t1_Paradigm,2021.1.4,59.98737589931132,
P,left,Distractor,0,21,21,21,1625.9668512346107,1627.9667617309315,left,1,3,0.8009887110092677,F17E07,2022-09-02_11h59.41.925,t1_Paradigm,2021.1.4,59.98737589931132,
Z,right,Target,0,22,22,22,1629.4670279963757,1631.468929709139,right,1,3,0.6426724068878684,F17E07,2022-09-02_11h59.41.925,t1_Paradigm,2021.1.4,59.98737589931132,
D,left,Pretarget,0,23,23,23,1632.966731254768,1634.967127444921,left,1,3,0.648733314301353,F17E07,2022-09-02_11h59.41.925,t1_Paradigm,2021.1.4,59.98737589931132,
K,left,Distractor,0,24,24,24,1636.4667508236598,1638.468819353322,left,1,3,1.0188012280268595,F17E07,2022-09-02_11h59.41.925,t1_Paradigm,2021.1.4,59.98737589931132,
W,left,Distractor,0,25,25,25,1639.9669150741538,1641.969149137527,left,1,3,0.8627866764727514,F17E07,2022-09-02_11h59.41.925,t1_Paradigm,2021.1.4,59.98737589931132,
D,right,Target,0,26,26,26,1643.467034091591,1645.467166903516,left,0,3,1.1883722198545001,F17E07,2022-09-02_11h59.41.925,t1_Paradigm,2021.1.4,59.98737589931132,
G,left,Pretarget,0,27,27,27,1646.9669445879117,1648.9677183617314,left,1,3,0.9522582839126699,F17E07,2022-09-02_11h59.41.925,t1_Paradigm,2021.1.4,59.98737589931132,
V,left,Distractor,0,28,28,28,1650.4667155354691,1652.4673237755778,left,1,3,1.116867435106542,F17E07,2022-09-02_11h59.41.925,t1_Paradigm,2021.1.4,59.98737589931132,
D,right,Target,0,29,29,29,1653.9669673648314,1655.9671450890019,right,1,3,0.752461030613631,F17E07,2022-09-02_11h59.41.925,t1_Paradigm,2021.1.4,59.98737589931132,
G,right,Target,0,30,30,30,1657.4666532999254,1659.4675996650767,right,1,3,0.7081275122764055,F17E07,2022-09-02_11h59.41.925,t1_Paradigm,2021.1.4,59.98737589931132,
B,left,Pretarget,0,31,31,31,1660.966774562985,1662.969188596151,left,1,3,0.9185182809014805,F17E07,2022-09-02_11h59.41.925,t1_Paradigm,2021.1.4,59.98737589931132,
N,left,Distractor,0,32,32,32,1664.4666927585495,1666.467425790528,left,1,3,0.9882252926472574,F17E07,2022-09-02_11h59.41.925,t1_Paradigm,2021.1.4,59.98737589931132,
F,left,Distractor,0,33,33,33,1667.9668201168242,1669.967944847769,left,1,3,1.167722852958832,F17E07,2022-09-02_11h59.41.925,t1_Paradigm,2021.1.4,59.98737589931132,
B,right,Target,0,34,34,34,1671.4666529791139,1673.4674180912843,right,1,3,0.7563956640369724,F17E07,2022-09-02_11h59.41.925,t1_Paradigm,2021.1.4,59.98737589931132,
Q,left,Pretarget,0,35,35,35,1674.9667136106582,1676.9680526371521,left,1,3,0.6478013852029108,F17E07,2022-09-02_11h59.41.925,t1_Paradigm,2021.1.4,59.98737589931132,
S,left,Pretarget,0,36,36,36,1678.466720668308,1680.467308056308,left,1,3,1.0043224827386439,F17E07,2022-09-02_11h59.41.925,t1_Paradigm,2021.1.4,59.98737589931132,
W,left,Distractor,0,37,37,37,1681.96662603179,1683.9691424006887,left,1,3,0.8467510803020559,F17E07,2022-09-02_11h59.41.925,t1_Paradigm,2021.1.4,59.98737589931132,
Q,right,Target,0,38,38,38,1685.466407244996,1687.4674119960691,right,1,3,0.5484105877403636,F17E07,2022-09-02_11h59.41.925,t1_Paradigm,2021.1.4,59.98737589931132,
S,right,Target,0,39,39,39,1688.966922452586,1690.9675188230467,right,1,3,0.6165042875218205,F17E07,2022-09-02_11h59.41.925,t1_Paradigm,2021.1.4,59.98737589931132,
T,left,Distractor,0,40,40,40,1692.466967044049,1694.467113008839,left,1,3,1.1487201614363585,F17E07,2022-09-02_11h59.41.925,t1_Paradigm,2021.1.4,59.98737589931132,
G,left,Distractor,0,41,41,41,1695.9664223226719,1697.9683355843008,left,1,3,0.6391840086726006,F17E07,2022-09-02_11h59.41.925,t1_Paradigm,2021.1.4,59.98737589931132,
D,left,Distractor,0,42,42,42,1699.4669147533423,1701.4674649283406,left,1,3,0.532424715871457,F17E07,2022-09-02_11h59.41.925,t1_Paradigm,2021.1.4,59.98737589931132,
S,left,Lure,0,43,43,43,1702.9666420718713,1704.9688158245117,left,1,3,0.6790702523721848,F17E07,2022-09-02_11h59.41.925,t1_Paradigm,2021.1.4,59.98737589931132,
Z,left,Pretarget,0,44,44,44,1706.4666231445735,1708.4677953541395,left,1,3,0.7320865908113774,F17E07,2022-09-02_11h59.41.925,t1_Paradigm,2021.1.4,59.98737589931132,
J,left,Distractor,0,45,45,45,1709.966741841199,1711.9691186613636,right,0,3,0.5744805417780299,F17E07,2022-09-02_11h59.41.925,t1_Paradigm,2021.1.4,59.98737589931132,
M,left,Pretarget,0,46,46,46,1713.4667867534445,1715.468629438692,left,1,3,0.5310994838364422,F17E07,2022-09-02_11h59.41.925,t1_Paradigm,2021.1.4,59.98737589931132,
Z,right,Target,0,47,47,47,1716.9669734600757,1718.9679207876325,left,0,3,0.5197001145279501,F17E07,2022-09-02_11h59.41.925,t1_Paradigm,2021.1.4,59.98737589931132,
P,left,Distractor,0,48,48,48,1720.4666186533286,1722.4689239347063,left,1,3,0.6508602298854385,F17E07,2022-09-02_11h59.41.925,t1_Paradigm,2021.1.4,59.98737589931132,
M,right,Target,0,49,49,49,1723.9664229642658,1725.9673860111216,right,1,3,0.720197357237339,F17E07,2022-09-02_11h59.41.925,t1_Paradigm,2021.1.4,59.98737589931132,
K,left,Distractor,0,50,50,50,1727.4666106333025,1729.4693570170493,left,1,3,0.5143302140641026,F17E07,2022-09-02_11h59.41.925,t1_Paradigm,2021.1.4,59.98737589931132,
Y,left,Distractor,0,51,51,51,1730.966730613145,1732.9678457200353,left,1,3,0.6478437310724985,F17E07,2022-09-02_11h59.41.925,t1_Paradigm,2021.1.4,59.98737589931132,
X,left,Distractor,0,52,52,52,1734.4667761670134,1736.4674389434222,left,1,3,0.6521764794597402,F17E07,2022-09-02_11h59.41.925,t1_Paradigm,2021.1.4,59.98737589931132,
F,left,Pretarget,0,53,53,53,1737.9666375806555,1739.9676567678107,left,1,3,0.8962427699298132,F17E07,2022-09-02_11h59.41.925,t1_Paradigm,2021.1.4,59.98737589931132,
M,left,Lure,0,54,54,54,1741.4667360667663,1743.4689345211664,left,1,3,0.866730613168329,F17E07,2022-09-02_11h59.41.925,t1_Paradigm,2021.1.4,59.98737589931132,
V,left,Distractor,0,55,55,55,1744.9664213602664,1746.9684562057664,left,1,3,0.903221170330653,F17E07,2022-09-02_11h59.41.925,t1_Paradigm,2021.1.4,59.98737589931132,
F,right,Target,0,56,56,56,1748.4669295102358,1750.4669984826178,right,1,3,0.6206323643855285,F17E07,2022-09-02_11h59.41.925,t1_Paradigm,2021.1.4,59.98737589931132,
S,left,Distractor,0,57,57,57,1751.9668935804511,1753.9661631148483,left,1,3,0.7854785880772397,F17E07,2022-09-02_11h59.41.925,t1_Paradigm,2021.1.4,59.98737589931132,
D,left,Distractor,0,58,58,58,1755.46668056809,1757.4675707929418,left,1,3,0.8680799053108785,F17E07,2022-09-02_11h59.41.925,t1_Paradigm,2021.1.4,59.98737589931132,
F,right,Target,0,59,59,59,1758.9666706232238,1760.9666940417374,right,1,3,0.7130720296117943,F17E07,2022-09-02_11h59.41.925,t1_Paradigm,2021.1.4,59.98737589931132,
V,left,Pretarget,0,60,60,60,1762.4669516455615,1764.468710280722,left,1,3,1.1631344255292788,F17E07,2022-09-02_11h59.41.925,t1_Paradigm,2021.1.4,59.98737589931132,
J,left,Distractor,0,61,61,61,1765.9668005479325,1767.9672243270325,left,1,3,0.8328372669056989,F17E07,2022-09-02_11h59.41.925,t1_Paradigm,2021.1.4,59.98737589931132,
V,left,Lure,0,62,62,62,1769.466882993991,1771.4668181920424,left,1,3,1.0290078564430587,F17E07,2022-09-02_11h59.41.925,t1_Paradigm,2021.1.4,59.98737589931132,
V,right,Target,0,63,63,63,1772.966802793555,1774.9665567385964,right,1,3,0.9210548603150528,F17E07,2022-09-02_11h59.41.925,t1_Paradigm,2021.1.4,59.98737589931132,
R,left,Distractor,0,0,0,0,1857.9107224776235,1859.9018426852417,None,0,4,,F17E07,2022-09-02_11h59.41.925,t1_Paradigm,2021.1.4,59.98737589931132,
F,left,Distractor,0,1,1,1,1861.4001093934057,1863.4023681585095,None,0,4,,F17E07,2022-09-02_11h59.41.925,t1_Paradigm,2021.1.4,59.98737589931132,
P,left,Pretarget,0,2,2,2,1864.8997658147127,1866.8992210933648,None,0,4,,F17E07,2022-09-02_11h59.41.925,t1_Paradigm,2021.1.4,59.98737589931132,
H,left,Distractor,0,3,3,3,1868.4002598494117,1870.399624020356,None,0,4,,F17E07,2022-09-02_11h59.41.925,t1_Paradigm,2021.1.4,59.98737589931132,
Z,left,Distractor,0,4,4,4,1871.8998094437702,1873.902313301398,left,1,4,0.4811487268889323,F17E07,2022-09-02_11h59.41.925,t1_Paradigm,2021.1.4,59.98737589931132,
T,left,Distractor,0,5,5,5,1875.3999149875308,1877.4018430060532,left,1,4,0.5980322020768654,F17E07,2022-09-02_11h59.41.925,t1_Paradigm,2021.1.4,59.98737589931132,
P,right,Target,0,6,6,6,1878.9000025664282,1880.900254716602,right,1,4,0.7475328741420526,F17E07,2022-09-02_11h59.41.925,t1_Paradigm,2021.1.4,59.98737589931132,
G,left,Distractor,0,7,7,7,1882.3999602205877,1884.4023197174538,left,1,4,0.8134752774203662,F17E07,2022-09-02_11h59.41.925,t1_Paradigm,2021.1.4,59.98737589931132,
L,left,Distractor,0,8,8,8,1885.899488642026,1887.8992903865292,left,1,4,0.7242038502590731,F17E07,2022-09-02_11h59.41.925,t1_Paradigm,2021.1.4,59.98737589931132,
P,left,Lure,0,9,9,9,1889.4000795588363,1891.400745543273,left,1,4,0.7269316275487654,F17E07,2022-09-02_11h59.41.925,t1_Paradigm,2021.1.4,59.98737589931132,
Q,left,Pretarget,0,10,10,10,1892.9000121904828,1894.9008562198724,left,1,4,0.6827809661917854,F17E07,2022-09-02_11h59.41.925,t1_Paradigm,2021.1.4,59.98737589931132,
D,left,Distractor,0,11,11,11,1896.4000667267537,1898.401970364328,left,1,4,0.6696159040729981,F17E07,2022-09-02_11h59.41.925,t1_Paradigm,2021.1.4,59.98737589931132,
M,left,Pretarget,0,12,12,12,1899.8997253937123,1901.9020290710614,left,1,4,0.6574260792694986,F17E07,2022-09-02_11h59.41.925,t1_Paradigm,2021.1.4,59.98737589931132,
C,left,Distractor,0,13,13,13,1903.3997491330374,1905.399843448744,left,1,4,0.6316756437590811,F17E07,2022-09-02_11h59.41.925,t1_Paradigm,2021.1.4,59.98737589931132,
Q,right,Target,0,14,14,14,1906.8999910175626,1908.9021278779837,right,1,4,0.6815725060296245,F17E07,2022-09-02_11h59.41.925,t1_Paradigm,2021.1.4,59.98737589931132,
R,left,Distractor,0,15,15,15,1910.3999162707478,1912.4021586749586,left,1,4,0.8295974900538567,F17E07,2022-09-02_11h59.41.925,t1_Paradigm,2021.1.4,59.98737589931132,
M,right,Target,0,16,16,16,1913.8997908372548,1915.9012501644029,right,1,4,1.2025324089918286,F17E07,2022-09-02_11h59.41.925,t1_Paradigm,2021.1.4,59.98737589931132,
S,left,Distractor,0,17,17,17,1917.3990199506516,1919.3990712789528,left,1,4,0.9525142836791929,F17E07,2022-09-02_11h59.41.925,t1_Paradigm,2021.1.4,59.98737589931132,
Z,left,Distractor,0,18,18,18,1920.899896701827,1922.9007769818418,left,1,4,0.5065780398435891,F17E07,2022-09-02_11h59.41.925,t1_Paradigm,2021.1.4,59.98737589931132,
L,left,Pretarget,0,19,19,19,1924.3999874887231,1926.4017092317226,left,1,4,0.5579412868828513,F17E07,2022-09-02_11h59.41.925,t1_Paradigm,2021.1.4,59.98737589931132,
M,right,Target,0,20,20,20,1927.9001972930855,1929.902152258932,right,1,4,0.5456398230453487,F17E07,2022-09-02_11h59.41.925,t1_Paradigm,2021.1.4,59.98737589931132,
P,left,Distractor,0,21,21,21,1931.399977543886,1933.4014618935762,left,1,4,0.5020938730158377,F17E07,2022-09-02_11h59.41.925,t1_Paradigm,2021.1.4,59.98737589931132,
F,left,Distractor,0,22,22,22,1934.9000356089964,1936.9020396575215,left,1,4,0.9376030976709444,F17E07,2022-09-02_11h59.41.925,t1_Paradigm,2021.1.4,59.98737589931132,
L,right,Target,0,23,23,23,1938.3997507370368,1940.4020762289001,right,1,4,0.6535029946826398,F17E07,2022-09-02_11h59.41.925,t1_Paradigm,2021.1.4,59.98737589931132,
L,left,Lure,0,24,24,24,1941.900003208022,1943.8999903759395,left,1,4,1.1234935951943044,F17E07,2022-09-02_11h59.41.925,t1_Paradigm,2021.1.4,59.98737589931132,
V,left,Pretarget,0,25,25,25,1945.3999897343456,1947.4018555173243,left,1,4,0.7417764075798914,F17E07,2022-09-02_11h59.41.925,t1_Paradigm,2021.1.4,59.98737589931132,
Z,left,Distractor,0,26,26,26,1948.8992656847986,1950.898998456949,left,1,4,0.9087014266115148,F17E07,2022-09-02_11h59.41.925,t1_Paradigm,2021.1.4,59.98737589931132,
H,left,Distractor,0,27,27,27,1952.4000513282954,1954.40177916651,left,1,4,0.990012799971737,F17E07,2022-09-02_11h59.41.925,t1_Paradigm,2021.1.4,59.98737589931132,
X,left,Distractor,0,28,28,28,1955.90003272178,1957.9021211411455,left,1,4,0.7213573763729073,F17E07,2022-09-02_11h59.41.925,t1_Paradigm,2021.1.4,59.98737589931132,
V,right,Target,0,29,29,29,1959.3999358396395,1961.4016277480696,left,0,4,0.5179453289601952,F17E07,2022-09-02_11h59.41.925,t1_Paradigm,2021.1.4,59.98737589931132,
C,left,Distractor,0,30,30,30,1962.899637173221,1964.9016081791779,left,1,4,1.081905177416047,F17E07,2022-09-02_11h59.41.925,t1_Paradigm,2021.1.4,59.98737589931132,
S,left,Pretarget,0,31,31,31,1966.3998505063937,1968.4009652924724,left,1,4,0.814764900424052,F17E07,2022-09-02_11h59.41.925,t1_Paradigm,2021.1.4,59.98737589931132,
D,left,Distractor,0,32,32,32,1969.8998193886073,1971.9017419534794,left,1,4,0.6576605853333604,F17E07,2022-09-02_11h59.41.925,t1_Paradigm,2021.1.4,59.98737589931132,
V,left,Distractor,0,33,33,33,1973.4000455538626,1975.4009511771728,right,0,4,1.4628347967227455,F17E07,2022-09-02_11h59.41.925,t1_Paradigm,2021.1.4,59.98737589931132,
R,left,Distractor,0,34,34,34,1976.8999605413992,1978.9022372713953,left,1,4,1.0652850804617628,F17E07,2022-09-02_11h59.41.925,t1_Paradigm,2021.1.4,59.98737589931132,
S,right,Target,0,35,35,35,1980.4000080200494,1982.4020200886007,left,0,4,0.6375665262748953,F17E07,2022-09-02_11h59.41.925,t1_Paradigm,2021.1.4,59.98737589931132,
Y,left,Distractor,0,36,36,36,1983.8994379553478,1985.9003131024947,left,1,4,0.7390762192953844,F17E07,2022-09-02_11h59.41.925,t1_Paradigm,2021.1.4,59.98737589931132,
N,left,Pretarget,0,37,37,37,1987.399813293392,1989.4017756376707,left,1,4,0.8378555686213076,F17E07,2022-09-02_11h59.41.925,t1_Paradigm,2021.1.4,59.98737589931132,
Z,left,Pretarget,0,38,38,38,1990.8997789676068,1992.901959777868,left,1,4,0.7777671556686983,F17E07,2022-09-02_11h59.41.925,t1_Paradigm,2021.1.4,59.98737589931132,
P,left,Pretarget,0,39,39,39,1994.3996888223046,1996.40157674058,left,1,4,0.5900609202508349,F17E07,2022-09-02_11h59.41.925,t1_Paradigm,2021.1.4,59.98737589931132,
M,left,Distractor,0,40,40,40,1997.8997327721445,1999.9020194470068,left,1,4,1.1056711332930718,F17E07,2022-09-02_11h59.41.925,t1_Paradigm,2021.1.4,59.98737589931132,
N,right,Target,0,41,41,41,2001.3998129725805,2003.402053131198,right,1,4,0.4853377561084926,F17E07,2022-09-02_11h59.41.925,t1_Paradigm,2021.1.4,59.98737589931132,
Z,right,Target,0,42,42,42,2004.8998216342297,2006.9004895434773,right,1,4,0.6348547890665941,F17E07,2022-09-02_11h59.41.925,t1_Paradigm,2021.1.4,59.98737589931132,
P,right,Target,0,43,43,43,2008.3999441805063,2010.4017794872925,left,0,4,1.0695450068742502,F17E07,2022-09-02_11h59.41.925,t1_Paradigm,2021.1.4,59.98737589931132,
X,left,Pretarget,0,44,44,44,2011.8991354392783,2013.900976199715,left,1,4,0.9950381593662314,F17E07,2022-09-02_11h59.41.925,t1_Paradigm,2021.1.4,59.98737589931132,
Z,left,Lure,0,45,45,45,2015.399709353631,2017.4017281590204,left,1,4,0.8219354611064773,F17E07,2022-09-02_11h59.41.925,t1_Paradigm,2021.1.4,59.98737589931132,
R,left,Pretarget,0,46,46,46,2018.899524250999,2020.8990010233538,left,1,4,0.700817082048161,F17E07,2022-09-02_11h59.41.925,t1_Paradigm,2021.1.4,59.98737589931132,
K,left,Distractor,0,47,47,47,2022.3995483111357,2024.4125879397907,left,1,4,1.1387483598955441,F17E07,2022-09-02_11h59.41.925,t1_Paradigm,2021.1.4,59.98737589931132,
X,right,Target,0,48,48,48,2025.8999496341276,2027.900917813793,right,1,4,0.9150658124999609,F17E07,2022-09-02_11h59.41.925,t1_Paradigm,2021.1.4,59.98737589931132,
B,left,Distractor,0,49,49,49,2029.3989095948637,2031.4017714672664,left,1,4,0.4856954500719439,F17E07,2022-09-02_11h59.41.925,t1_Paradigm,2021.1.4,59.98737589931132,
R,right,Target,0,50,50,50,2032.8996195291402,2034.9125555388164,left,0,4,0.47872314488631673,F17E07,2022-09-02_11h59.41.925,t1_Paradigm,2021.1.4,59.98737589931132,
Y,left,Pretarget,0,51,51,51,2036.3997135240352,2038.4016251816647,left,1,4,0.44597249446087517,F17E07,2022-09-02_11h59.41.925,t1_Paradigm,2021.1.4,59.98737589931132,
W,left,Pretarget,0,52,52,52,2039.899937443668,2041.9016033671505,left,1,4,0.7057259903813247,F17E07,2022-09-02_11h59.41.925,t1_Paradigm,2021.1.4,59.98737589931132,
Z,left,Distractor,0,53,53,53,2043.399502436485,2045.4001446815964,left,1,4,1.127128599822754,F17E07,2022-09-02_11h59.41.925,t1_Paradigm,2021.1.4,59.98737589931132,
Q,left,Distractor,0,54,54,54,2046.899846015178,2048.9019055623794,left,1,4,0.8254447114304639,F17E07,2022-09-02_11h59.41.925,t1_Paradigm,2021.1.4,59.98737589931132,
Y,right,Target,0,55,55,55,2050.399840882339,2052.401842043648,right,1,4,1.0695260795764625,F17E07,2022-09-02_11h59.41.925,t1_Paradigm,2021.1.4,59.98737589931132,
W,right,Target,0,56,56,56,2053.89911298317,2055.9021468053106,left,0,4,0.6732467382680625,F17E07,2022-09-02_11h59.41.925,t1_Paradigm,2021.1.4,59.98737589931132,
H,left,Pretarget,0,57,57,57,2057.3998505063937,2059.4015212419035,left,1,4,0.5340335365908686,F17E07,2022-09-02_11h59.41.925,t1_Paradigm,2021.1.4,59.98737589931132,
M,left,Distractor,0,58,58,58,2060.899708712008,2062.902025542251,left,1,4,0.5213240129523911,F17E07,2022-09-02_11h59.41.925,t1_Paradigm,2021.1.4,59.98737589931132,
R,left,Pretarget,0,59,59,59,2064.399911779532,2066.399388231075,left,1,4,0.5120037597953342,F17E07,2022-09-02_11h59.41.925,t1_Paradigm,2021.1.4,59.98737589931132,
J,left,Distractor,0,60,60,60,2067.8997924412834,2069.9004824858275,left,1,4,0.4668922972341534,F17E07,2022-09-02_11h59.41.925,t1_Paradigm,2021.1.4,59.98737589931132,
H,right,Target,0,61,61,61,2071.400020210509,2073.399936160451,right,1,4,0.711818657204276,F17E07,2022-09-02_11h59.41.925,t1_Paradigm,2021.1.4,59.98737589931132,
Z,left,Distractor,0,62,62,62,2074.90015238084,2076.8995896945707,left,1,4,0.8595408043765929,F17E07,2022-09-02_11h59.41.925,t1_Paradigm,2021.1.4,59.98737589931132,
R,right,Target,0,63,63,63,2078.3995502359467,2080.3996012434363,right,1,4,0.8001661752932705,F17E07,2022-09-02_11h59.41.925,t1_Paradigm,2021.1.4,59.98737589931132,
J,left,Pretarget,0,0,0,0,2094.1780869950308,2096.150831678533,None,0,4,,F17E07,2022-09-02_11h59.41.925,t1_Paradigm,2021.1.4,59.98737589931132,
G,left,Pretarget,0,1,1,1,2097.6495811933128,2099.652041421912,None,0,4,,F17E07,2022-09-02_11h59.41.925,t1_Paradigm,2021.1.4,59.98737589931132,
Z,left,Distractor,0,2,2,2,2101.1498833885707,2103.1503373230516,None,0,4,,F17E07,2022-09-02_11h59.41.925,t1_Paradigm,2021.1.4,59.98737589931132,
F,left,Distractor,0,3,3,3,2104.6496790378587,2106.6502112479648,None,0,4,,F17E07,2022-09-02_11h59.41.925,t1_Paradigm,2021.1.4,59.98737589931132,
J,right,Target,0,4,4,4,2108.1350366836705,2110.151734414656,right,1,4,0.5355316807690542,F17E07,2022-09-02_11h59.41.925,t1_Paradigm,2021.1.4,59.98737589931132,
G,right,Target,0,5,5,5,2111.649831739487,2113.6504826462187,right,1,4,0.6848774056124967,F17E07,2022-09-02_11h59.41.925,t1_Paradigm,2021.1.4,59.98737589931132,
H,left,Distractor,0,6,6,6,2115.149700210779,2117.149153564591,left,1,4,0.7063262104638852,F17E07,2022-09-02_11h59.41.925,t1_Paradigm,2021.1.4,59.98737589931132,
P,left,Distractor,0,7,7,7,2118.649277073273,2120.650811147236,left,1,4,0.9807271933823358,F17E07,2022-09-02_11h59.41.925,t1_Paradigm,2021.1.4,59.98737589931132,
G,left,Lure,0,8,8,8,2122.149888842192,2124.149859970028,left,1,4,1.0174346125859302,F17E07,2022-09-02_11h59.41.925,t1_Paradigm,2021.1.4,59.98737589931132,
S,left,Distractor,0,9,9,9,2125.6496084614773,2127.6497431982134,left,1,4,0.6535588141705375,F17E07,2022-09-02_11h59.41.925,t1_Paradigm,2021.1.4,59.98737589931132,
R,left,Pretarget,0,10,10,10,2129.149367860169,2131.1512269062805,left,1,4,1.1362130636698566,F17E07,2022-09-02_11h59.41.925,t1_Paradigm,2021.1.4,59.98737589931132,
T,left,Pretarget,0,11,11,11,2132.6498291730823,2134.651876529824,left,1,4,0.6918051193351857,F17E07,2022-09-02_11h59.41.925,t1_Paradigm,2021.1.4,59.98737589931132,
X,left,Distractor,0,12,12,12,2136.149773674377,2138.152013832965,left,1,4,0.47119809829746373,F17E07,2022-09-02_11h59.41.925,t1_Paradigm,2021.1.4,59.98737589931132,
F,left,Pretarget,0,13,13,13,2139.649577985314,2141.650439979596,left,1,4,0.39705696477903984,F17E07,2022-09-02_11h59.41.925,t1_Paradigm,2021.1.4,59.98737589931132,
R,right,Target,0,14,14,14,2143.149777844781,2145.150272521074,left,0,4,0.49730494452524,F17E07,2022-09-02_11h59.41.925,t1_Paradigm,2021.1.4,59.98737589931132,
T,right,Target,0,15,15,15,2146.6498955790303,2148.65033347343,right,1,4,0.5329713620303664,F17E07,2022-09-02_11h59.41.925,t1_Paradigm,2021.1.4,59.98737589931132,
C,left,Distractor,0,16,16,16,2150.1494791783625,2152.1511066056264,left,1,4,0.5521925195644144,F17E07,2022-09-02_11h59.41.925,t1_Paradigm,2021.1.4,59.98737589931132,
F,right,Target,0,17,17,17,2153.649731649348,2155.6501073081745,right,1,4,0.717219354613917,F17E07,2022-09-02_11h59.41.925,t1_Paradigm,2021.1.4,59.98737589931132,
M,left,Distractor,0,18,18,18,2157.149820511433,2159.150209964748,left,1,4,0.6090754814213142,F17E07,2022-09-02_11h59.41.925,t1_Paradigm,2021.1.4,59.98737589931132,
N,left,Distractor,0,19,19,19,2160.6498679900833,2162.652243527031,left,1,4,0.7072437034512404,F17E07,2022-09-02_11h59.41.925,t1_Paradigm,2021.1.4,59.98737589931132,
R,left,Lure,0,20,20,20,2164.149846817163,2166.1517071464914,left,1,4,0.871717797126621,F17E07,2022-09-02_11h59.41.925,t1_Paradigm,2021.1.4,59.98737589931132,
F,right,Target,0,21,21,21,2167.649571569258,2169.6509705857025,right,1,4,0.8286100622499362,F17E07,2022-09-02_11h59.41.925,t1_Paradigm,2021.1.4,59.98737589931132,
P,left,Distractor,0,22,22,22,2171.149520240986,2173.1503167917253,left,1,4,0.7530821027758066,F17E07,2022-09-02_11h59.41.925,t1_Paradigm,2021.1.4,59.98737589931132,
L,left,Pretarget,0,23,23,23,2174.6494641006866,2176.6502722002915,left,1,4,0.6131740445853211,F17E07,2022-09-02_11h59.41.925,t1_Paradigm,2021.1.4,59.98737589931132,
T,left,Distractor,0,24,24,24,2178.1497111180215,2180.151546424837,left,1,4,0.5677635947940871,F17E07,2022-09-02_11h59.41.925,t1_Paradigm,2021.1.4,59.98737589931132,
F,left,Distractor,0,25,25,25,2181.649840080325,2183.6500033684133,left,1,4,0.6852784077927936,F17E07,2022-09-02_11h59.41.925,t1_Paradigm,2021.1.4,59.98737589931132,
V,left,Distractor,0,26,26,26,2185.149764050322,2187.150380310486,left,1,4,0.833107381942682,F17E07,2022-09-02_11h59.41.925,t1_Paradigm,2021.1.4,59.98737589931132,
L,right,Target,0,27,27,27,2188.6497467270237,2190.6516012819193,right,1,4,0.7715965340612456,F17E07,2022-09-02_11h59.41.925,t1_Paradigm,2021.1.4,59.98737589931132,
S,left,Pretarget,0,28,28,28,2192.149558416393,2194.150427468325,left,1,4,1.0328812167281285,F17E07,2022-09-02_11h59.41.925,t1_Paradigm,2021.1.4,59.98737589931132,
W,left,Distractor,0,29,29,29,2195.6494753287407,2197.6516782743565,left,1,4,0.699629794806242,F17E07,2022-09-02_11h59.41.925,t1_Paradigm,2021.1.4,59.98737589931132,
Q,left,Distractor,0,30,30,30,2199.149410526792,2201.1502359496953,left,1,4,0.9453732367837802,F17E07,2022-09-02_11h59.41.925,t1_Paradigm,2021.1.4,59.98737589931132,
L,right,Target,0,31,31,31,2202.649499709689,2204.650150295609,right,1,4,0.5973296462325379,F17E07,2022-09-02_11h59.41.925,t1_Paradigm,2021.1.4,59.98737589931132,
S,right,Target,0,32,32,32,2206.14954911315,2208.150580169953,right,1,4,0.4406151052680798,F17E07,2022-09-02_11h59.41.925,t1_Paradigm,2021.1.4,59.98737589931132,
Z,left,Pretarget,0,33,33,33,2209.649475007929,2211.6518627353653,left,1,4,0.6834315521409735,F17E07,2022-09-02_11h59.41.925,t1_Paradigm,2021.1.4,59.98737589931132,
F,left,Distractor,0,34,34,34,2213.149758596701,2215.1504133530543,left,1,4,0.6568069318891503,F17E07,2022-09-02_11h59.41.925,t1_Paradigm,2021.1.4,59.98737589931132,
V,left,Distractor,0,35,35,35,2216.6496203311253,2218.65182648474,left,1,4,0.8034540724183898,F17E07,2022-09-02_11h59.41.925,t1_Paradigm,2021.1.4,59.98737589931132,
M,left,Distractor,0,36,36,36,2220.149512220931,2222.151917271636,left,1,4,0.47128824357059784,F17E07,2022-09-02_11h59.41.925,t1_Paradigm,2021.1.4,59.98737589931132,
Z,right,Target,0,37,37,37,2223.649780411215,2225.651518194267,left,0,4,0.49185195640893653,F17E07,2022-09-02_11h59.41.925,t1_Paradigm,2021.1.4,59.98737589931132,
H,left,Pretarget,0,38,38,38,2227.1495587372046,2229.1502150975866,left,1,4,0.6250228571298067,F17E07,2022-09-02_11h59.41.925,t1_Paradigm,2021.1.4,59.98737589931132,
L,left,Distractor,0,39,39,39,2230.6496886619134,2232.651924329286,left,1,4,0.4673667630122509,F17E07,2022-09-02_11h59.41.925,t1_Paradigm,2021.1.4,59.98737589931132,
G,left,Distractor,0,40,40,40,2234.1493726721965,2236.151758153981,left,1,4,1.2236459760169964,F17E07,2022-09-02_11h59.41.925,t1_Paradigm,2021.1.4,59.98737589931132,
K,left,Distractor,0,41,41,41,2237.649825002649,2239.650371007214,left,1,4,0.7970643432054203,F17E07,2022-09-02_11h59.41.925,t1_Paradigm,2021.1.4,59.98737589931132,
H,right,Target,0,42,42,42,2241.1494830279844,2243.1503472678887,right,1,4,0.7049891087808646,F17E07,2022-09-02_11h59.41.925,t1_Paradigm,2021.1.4,59.98737589931132,
B,left,Distractor,0,43,43,43,2244.649032622343,2246.64873844714,left,1,4,0.6147154969803523,F17E07,2022-09-02_11h59.41.925,t1_Paradigm,2021.1.4,59.98737589931132,
Z,left,Distractor,0,44,44,44,2248.1498259650543,2250.1507736134226,left,1,4,0.9364623266737908,F17E07,2022-09-02_11h59.41.925,t1_Paradigm,2021.1.4,59.98737589931132,
T,left,Pretarget,0,45,45,45,2251.6494798199565,2253.6519246500975,None,0,4,,F17E07,2022-09-02_11h59.41.925,t1_Paradigm,2021.1.4,59.98737589931132,
H,right,Target,0,46,46,46,2255.1493915994943,2257.1517539835477,right,1,4,0.9754705359518994,F17E07,2022-09-02_11h59.41.925,t1_Paradigm,2021.1.4,59.98737589931132,
F,left,Distractor,0,47,47,47,2258.649718496483,2260.6499417744926,left,1,4,0.6612285423616413,F17E07,2022-09-02_11h59.41.925,t1_Paradigm,2021.1.4,59.98737589931132,
R,left,Distractor,0,48,48,48,2262.149356632086,2264.150167939719,left,1,4,0.5209056875028182,F17E07,2022-09-02_11h59.41.925,t1_Paradigm,2021.1.4,59.98737589931132,
T,right,Target,0,49,49,49,2265.6494653839036,2267.6505028567335,right,1,4,0.46063281351234764,F17E07,2022-09-02_11h59.41.925,t1_Paradigm,2021.1.4,59.98737589931132,
H,right,Target,0,50,50,50,2269.1493418752216,2271.14996775944,left,0,4,1.025399478385225,F17E07,2022-09-02_11h59.41.925,t1_Paradigm,2021.1.4,59.98737589931132,
Y,left,Pretarget,0,51,51,51,2272.6494172636303,2274.650447999651,None,0,4,,F17E07,2022-09-02_11h59.41.925,t1_Paradigm,2021.1.4,59.98737589931132,
H,left,Distractor,0,52,52,52,2276.1495401306893,2278.1500460350653,left,1,4,0.8252708368818276,F17E07,2022-09-02_11h59.41.925,t1_Paradigm,2021.1.4,59.98737589931132,
S,left,Distractor,0,53,53,53,2279.6493194190843,2281.6501140450127,left,1,4,0.7331741087546106,F17E07,2022-09-02_11h59.41.925,t1_Paradigm,2021.1.4,59.98737589931132,
Q,left,Distractor,0,54,54,54,2283.149345404032,2285.1497788071865,left,1,4,0.5457046249939594,F17E07,2022-09-02_11h59.41.925,t1_Paradigm,2021.1.4,59.98737589931132,
Y,right,Target,0,55,55,55,2286.649505804904,2288.6496578649385,left,0,4,0.6615660258103162,F17E07,2022-09-02_11h59.41.925,t1_Paradigm,2021.1.4,59.98737589931132,
R,left,Distractor,0,56,56,56,2290.1490047125844,2292.151595828298,left,1,4,0.8237685222993605,F17E07,2022-09-02_11h59.41.925,t1_Paradigm,2021.1.4,59.98737589931132,
H,left,Pretarget,0,57,57,57,2293.6497788071865,2295.650207398343,left,1,4,0.6532992855645716,F17E07,2022-09-02_11h59.41.925,t1_Paradigm,2021.1.4,59.98737589931132,
J,left,Distractor,0,58,58,58,2297.1493819754396,2299.1515329511603,left,1,4,1.0078144097642507,F17E07,2022-09-02_11h59.41.925,t1_Paradigm,2021.1.4,59.98737589931132,
V,left,Distractor,0,59,59,59,2300.6496177647205,2302.6508364905603,left,1,4,0.7084707701578736,F17E07,2022-09-02_11h59.41.925,t1_Paradigm,2021.1.4,59.98737589931132,
Y,left,Lure,0,60,60,60,2304.149588571774,2306.1503568919434,left,1,4,0.8729429389932193,F17E07,2022-09-02_11h59.41.925,t1_Paradigm,2021.1.4,59.98737589931132,
H,right,Target,0,61,61,61,2307.649543980311,2309.6500909473107,right,1,4,0.5252223958086688,F17E07,2022-09-02_11h59.41.925,t1_Paradigm,2021.1.4,59.98737589931132,
L,left,Distractor,0,62,62,62,2311.1497098348336,2313.1521277175925,left,1,4,0.7031114561541472,F17E07,2022-09-02_11h59.41.925,t1_Paradigm,2021.1.4,59.98737589931132,
P,left,Distractor,0,63,63,63,2314.6493620857364,2316.6488228179805,left,1,4,0.9986317805596627,F17E07,2022-09-02_11h59.41.925,t1_Paradigm,2021.1.4,59.98737589931132,
