Letter,CorrAnswer,Stimulus,nback_run.thisRepN,nback_run.thisTrialN,nback_run.thisN,nback_run.thisIndex,fixcross.started,nback_trial.started,trial_resp.keys,trial_resp.corr,currentlevel,trial_resp.rt,Participant,date,expName,psychopyVersion,frameRate,
H,left,Distractor,0,0,0,0,243.69360975340533,245.64992358497693,None,0,1,,G13A01,2023-01-27_14h32.39.510,t1_Paradigm,2021.1.4,60.044881662699886,
Q,left,Pretarget,0,1,1,1,247.15149551455397,249.1501195949677,left,1,1,0.8502467608486768,G13A01,2023-01-27_14h32.39.510,t1_Paradigm,2021.1.4,60.044881662699886,
Q,right,Target,0,2,2,2,250.64996368522407,252.6499861413613,right,1,1,0.6463877058558865,G13A01,2023-01-27_14h32.39.510,t1_Paradigm,2021.1.4,60.044881662699886,
T,left,Distractor,0,3,3,3,254.14996528923803,256.15014108869946,left,1,1,0.5701962794701103,G13A01,2023-01-27_14h32.39.510,t1_Paradigm,2021.1.4,60.044881662699886,
Q,left,Lure,0,4,4,4,257.6499996150378,259.65001565513376,left,1,1,0.4943628680630354,G13A01,2023-01-27_14h32.39.510,t1_Paradigm,2021.1.4,60.044881662699886,
L,left,Distractor,0,5,5,5,261.14984755491605,263.1501731689059,left,1,1,0.5780453408660833,G13A01,2023-01-27_14h32.39.510,t1_Paradigm,2021.1.4,60.044881662699886,
V,left,Pretarget,0,6,6,6,264.6501349934697,266.64985814137617,left,1,1,0.48647563124541193,G13A01,2023-01-27_14h32.39.510,t1_Paradigm,2021.1.4,60.044881662699886,
V,right,Target,0,7,7,7,268.1498600661871,270.15016450724215,right,1,1,0.4420535431272583,G13A01,2023-01-27_14h32.39.510,t1_Paradigm,2021.1.4,60.044881662699886,
K,left,Distractor,0,8,8,8,271.6500323368382,273.64998742456373,left,1,1,0.5742345344624482,G13A01,2023-01-27_14h32.39.510,t1_Paradigm,2021.1.4,60.044881662699886,
G,left,Pretarget,0,9,9,9,275.1501308230363,277.149951173953,left,1,1,0.5945541301916819,G13A01,2023-01-27_14h32.39.510,t1_Paradigm,2021.1.4,60.044881662699886,
G,right,Target,0,10,10,10,278.64998421655037,280.6498238155764,right,1,1,0.4863912603323115,G13A01,2023-01-27_14h32.39.510,t1_Paradigm,2021.1.4,60.044881662699886,
G,right,Target,0,11,11,11,282.149935775451,284.14997074287385,right,1,1,0.4422960694064386,G13A01,2023-01-27_14h32.39.510,t1_Paradigm,2021.1.4,60.044881662699886,
P,left,Pretarget,0,12,12,12,285.64988284313586,287.65009008119523,left,1,1,0.6221976345404983,G13A01,2023-01-27_14h32.39.510,t1_Paradigm,2021.1.4,60.044881662699886,
P,right,Target,0,13,13,13,289.14985749978223,291.15009521401953,right,1,1,0.5625159599003382,G13A01,2023-01-27_14h32.39.510,t1_Paradigm,2021.1.4,60.044881662699886,
G,left,Lure,0,14,14,14,292.64986744463386,294.6498244571703,left,1,1,0.518445149922627,G13A01,2023-01-27_14h32.39.510,t1_Paradigm,2021.1.4,60.044881662699886,
Y,left,Distractor,0,15,15,15,296.1498899007711,298.1501898505958,left,1,1,0.49009171086072456,G13A01,2023-01-27_14h32.39.510,t1_Paradigm,2021.1.4,60.044881662699886,
B,left,Distractor,0,16,16,16,299.6503114345396,301.6501032340748,left,1,1,0.6381017121893819,G13A01,2023-01-27_14h32.39.510,t1_Paradigm,2021.1.4,60.044881662699886,
T,left,Pretarget,0,17,17,17,303.15004901854263,305.14988925917714,left,1,1,0.5785807593201753,G13A01,2023-01-27_14h32.39.510,t1_Paradigm,2021.1.4,60.044881662699886,
T,right,Target,0,18,18,18,306.6501279358199,308.6500063518906,right,1,1,0.5825615907669999,G13A01,2023-01-27_14h32.39.510,t1_Paradigm,2021.1.4,60.044881662699886,
S,left,Distractor,0,19,19,19,310.15021358995,312.1496938907803,left,1,1,0.5866232643020339,G13A01,2023-01-27_14h32.39.510,t1_Paradigm,2021.1.4,60.044881662699886,
T,left,Lure,0,20,20,20,313.65008591076185,315.6500217503781,left,1,1,0.4464722692355281,G13A01,2023-01-27_14h32.39.510,t1_Paradigm,2021.1.4,60.044881662699886,
J,left,Distractor,0,21,21,21,317.15015327917354,319.14976318400295,left,1,1,0.8025515304179862,G13A01,2023-01-27_14h32.39.510,t1_Paradigm,2021.1.4,60.044881662699886,
P,left,Distractor,0,22,22,22,320.64988797596016,322.64998934937466,left,1,1,0.47021931303606834,G13A01,2023-01-27_14h32.39.510,t1_Paradigm,2021.1.4,60.044881662699886,
F,left,Distractor,0,23,23,23,324.1499450787087,326.14988444713526,left,1,1,0.45831531495787203,G13A01,2023-01-27_14h32.39.510,t1_Paradigm,2021.1.4,60.044881662699886,
L,left,Distractor,0,24,24,24,327.6499774797121,329.6501112541155,left,1,1,0.5901443865441252,G13A01,2023-01-27_14h32.39.510,t1_Paradigm,2021.1.4,60.044881662699886,
W,left,Pretarget,0,25,25,25,331.1501876049879,333.1499210185575,left,1,1,0.4668380604562117,G13A01,2023-01-27_14h32.39.510,t1_Paradigm,2021.1.4,60.044881662699886,
W,right,Target,0,26,26,26,334.6499633644271,336.6501603368233,right,1,1,0.6463963674905244,G13A01,2023-01-27_14h32.39.510,t1_Paradigm,2021.1.4,60.044881662699886,
V,left,Distractor,0,27,27,27,338.1500268832024,340.1501051588857,left,1,1,0.6020682743546786,G13A01,2023-01-27_14h32.39.510,t1_Paradigm,2021.1.4,60.044881662699886,
W,left,Lure,0,28,28,28,341.6500474145287,343.6498693694448,left,1,1,0.7024382231611526,G13A01,2023-01-27_14h32.39.510,t1_Paradigm,2021.1.4,60.044881662699886,
R,left,Pretarget,0,29,29,29,345.1501449383213,347.1498761062976,left,1,1,0.5944370374782011,G13A01,2023-01-27_14h32.39.510,t1_Paradigm,2021.1.4,60.044881662699886,
R,right,Target,0,30,30,30,348.64997651730664,350.64998485815886,right,1,1,0.47030721278861165,G13A01,2023-01-27_14h32.39.510,t1_Paradigm,2021.1.4,60.044881662699886,
G,left,Distractor,0,31,31,31,352.15007436189626,354.1501122165355,left,1,1,0.5060856130585307,G13A01,2023-01-27_14h32.39.510,t1_Paradigm,2021.1.4,60.044881662699886,
R,left,Lure,0,32,32,32,355.6499710636708,357.6501455799298,left,1,1,0.6062024491402553,G13A01,2023-01-27_14h32.39.510,t1_Paradigm,2021.1.4,60.044881662699886,
S,left,Distractor,0,33,33,33,359.14985589576827,361.1498584621877,left,1,1,0.6424081576114986,G13A01,2023-01-27_14h32.39.510,t1_Paradigm,2021.1.4,60.044881662699886,
R,left,Lure,0,34,34,34,362.6500172591477,364.6499601563992,left,1,1,0.5823787336557871,G13A01,2023-01-27_14h32.39.510,t1_Paradigm,2021.1.4,60.044881662699886,
P,left,Pretarget,0,35,35,35,366.14973431182443,368.1499274345988,left,1,1,0.6183332541986601,G13A01,2023-01-27_14h32.39.510,t1_Paradigm,2021.1.4,60.044881662699886,
P,right,Target,0,36,36,36,369.64964416647854,371.6500759659102,right,1,1,0.5101896324486006,G13A01,2023-01-27_14h32.39.510,t1_Paradigm,2021.1.4,60.044881662699886,
Y,left,Pretarget,0,37,37,37,373.15001405113435,375.14975484315073,left,1,1,0.5945727367216023,G13A01,2023-01-27_14h32.39.510,t1_Paradigm,2021.1.4,60.044881662699886,
Y,right,Target,0,38,38,38,376.64993481304555,378.64999704863294,right,1,1,0.48622251850611065,G13A01,2023-01-27_14h32.39.510,t1_Paradigm,2021.1.4,60.044881662699886,
J,left,Distractor,0,39,39,39,380.14974682311004,382.15003682806855,left,1,1,0.49015105923172086,G13A01,2023-01-27_14h32.39.510,t1_Paradigm,2021.1.4,60.044881662699886,
Y,left,Lure,0,40,40,40,383.64992615139636,385.65013338945573,left,1,1,0.6220603312976891,G13A01,2023-01-27_14h32.39.510,t1_Paradigm,2021.1.4,60.044881662699886,
T,left,Distractor,0,41,41,41,387.1502543317911,389.1499274345988,left,1,1,0.6102743883238873,G13A01,2023-01-27_14h32.39.510,t1_Paradigm,2021.1.4,60.044881662699886,
V,left,Distractor,0,42,42,42,390.6500644170301,392.649937379465,left,1,1,0.5022635785862803,G13A01,2023-01-27_14h32.39.510,t1_Paradigm,2021.1.4,60.044881662699886,
N,left,Pretarget,0,43,43,43,394.1501054796827,396.1500981012359,left,1,1,0.7784670029504923,G13A01,2023-01-27_14h32.39.510,t1_Paradigm,2021.1.4,60.044881662699886,
N,right,Target,0,44,44,44,397.6497997554252,399.6500916852092,right,1,1,0.5421710208029253,G13A01,2023-01-27_14h32.39.510,t1_Paradigm,2021.1.4,60.044881662699886,
N,right,Target,0,45,45,45,401.14998132933397,403.14999351980805,right,1,1,0.5784960676101036,G13A01,2023-01-27_14h32.39.510,t1_Paradigm,2021.1.4,60.044881662699886,
X,left,Distractor,0,46,46,46,404.64996721404896,406.6506174796086,left,1,1,1.0458108397724573,G13A01,2023-01-27_14h32.39.510,t1_Paradigm,2021.1.4,60.044881662699886,
Z,left,Distractor,0,47,47,47,408.15009842204745,410.1501391638885,left,1,1,0.6340750060626306,G13A01,2023-01-27_14h32.39.510,t1_Paradigm,2021.1.4,60.044881662699886,
H,left,Pretarget,0,48,48,48,411.6501058004942,413.64992615139636,left,1,1,0.47827849972236436,G13A01,2023-01-27_14h32.39.510,t1_Paradigm,2021.1.4,60.044881662699886,
H,right,Target,0,49,49,49,415.15008302354545,417.1500634546246,right,1,1,0.594241348298965,G13A01,2023-01-27_14h32.39.510,t1_Paradigm,2021.1.4,60.044881662699886,
K,left,Distractor,0,50,50,50,418.64991492332774,420.64981290830474,left,1,1,0.5343274130427744,G13A01,2023-01-27_14h32.39.510,t1_Paradigm,2021.1.4,60.044881662699886,
V,left,Pretarget,0,51,51,51,422.14980488826404,424.15004516892077,left,1,1,0.506135978968814,G13A01,2023-01-27_14h32.39.510,t1_Paradigm,2021.1.4,60.044881662699886,
V,right,Target,0,52,52,52,425.6500990636414,427.6499396250729,right,1,1,0.542222028307151,G13A01,2023-01-27_14h32.39.510,t1_Paradigm,2021.1.4,60.044881662699886,
R,left,Distractor,0,53,53,53,429.1499428331008,431.1499187729496,left,1,1,0.48244154668645933,G13A01,2023-01-27_14h32.39.510,t1_Paradigm,2021.1.4,60.044881662699886,
V,left,Lure,0,54,54,54,432.65008077793755,434.6500477353402,left,1,1,0.5180880973493913,G13A01,2023-01-27_14h32.39.510,t1_Paradigm,2021.1.4,60.044881662699886,
Y,left,Distractor,0,55,55,55,436.1501545623905,438.14992679300485,left,1,1,0.522332307198667,G13A01,2023-01-27_14h32.39.510,t1_Paradigm,2021.1.4,60.044881662699886,
Q,left,Distractor,0,56,56,56,439.64998646215827,441.6498847679468,left,1,1,0.5423667099967133,G13A01,2023-01-27_14h32.39.510,t1_Paradigm,2021.1.4,60.044881662699886,
Z,left,Pretarget,0,57,57,57,443.14995181554696,445.15008206114,left,1,1,0.6421123782056384,G13A01,2023-01-27_14h32.39.510,t1_Paradigm,2021.1.4,60.044881662699886,
Z,right,Target,0,58,58,58,446.64979301858693,448.6499774797121,right,1,1,0.47028764385322575,G13A01,2023-01-27_14h32.39.510,t1_Paradigm,2021.1.4,60.044881662699886,
B,left,Distractor,0,59,59,59,450.15034223152907,452.1501898505958,left,1,1,0.5539428484917153,G13A01,2023-01-27_14h32.39.510,t1_Paradigm,2021.1.4,60.044881662699886,
S,left,Pretarget,0,60,60,60,453.6499755549012,455.6500644170301,left,1,1,0.5740853615570813,G13A01,2023-01-27_14h32.39.510,t1_Paradigm,2021.1.4,60.044881662699886,
S,right,Target,0,61,61,61,457.150155524796,459.1499915949971,right,1,1,0.48228082490095403,G13A01,2023-01-27_14h32.39.510,t1_Paradigm,2021.1.4,60.044881662699886,
T,left,Distractor,0,62,62,62,460.6499415498838,462.63325439467735,left,1,1,0.7589256727515021,G13A01,2023-01-27_14h32.39.510,t1_Paradigm,2021.1.4,60.044881662699886,
D,left,Distractor,0,63,63,63,464.1334205700841,466.1334093420155,left,1,1,0.6991047700721538,G13A01,2023-01-27_14h32.39.510,t1_Paradigm,2021.1.4,60.044881662699886,
R,left,Distractor,0,0,0,0,485.43616586488497,487.44990805815905,None,0,1,,G13A01,2023-01-27_14h32.39.510,t1_Paradigm,2021.1.4,60.044881662699886,
V,left,Distractor,0,1,1,1,488.94981566720526,490.94994045916246,left,1,1,0.5543063171062386,G13A01,2023-01-27_14h32.39.510,t1_Paradigm,2021.1.4,60.044881662699886,
N,left,Pretarget,0,2,2,2,492.44981277998886,494.45002803808893,left,1,1,0.6061912210570881,G13A01,2023-01-27_14h32.39.510,t1_Paradigm,2021.1.4,60.044881662699886,
N,right,Target,0,3,3,3,495.94999948672194,497.94980732635304,right,1,1,0.48260964690416586,G13A01,2023-01-27_14h32.39.510,t1_Paradigm,2021.1.4,60.044881662699886,
S,left,Distractor,0,4,4,4,499.450026113278,501.450071346364,left,1,1,0.45407655874441843,G13A01,2023-01-27_14h32.39.510,t1_Paradigm,2021.1.4,60.044881662699886,
N,left,Lure,0,5,5,5,502.94994976242015,504.9499622736912,left,1,1,0.6022132768412121,G13A01,2023-01-27_14h32.39.510,t1_Paradigm,2021.1.4,60.044881662699886,
Z,left,Distractor,0,6,6,6,506.45007230876945,508.44991928622767,left,1,1,0.5743092813063413,G13A01,2023-01-27_14h32.39.510,t1_Paradigm,2021.1.4,60.044881662699886,
L,left,Pretarget,0,7,7,7,509.9504511758714,511.9498615418852,left,1,1,0.5465839724784018,G13A01,2023-01-27_14h32.39.510,t1_Paradigm,2021.1.4,60.044881662699886,
L,right,Target,0,8,8,8,513.4501351859508,515.449969331341,right,1,1,0.5022934131702641,G13A01,2023-01-27_14h32.39.510,t1_Paradigm,2021.1.4,60.044881662699886,
H,left,Distractor,0,9,9,9,516.9500213012507,518.9501598876959,left,1,1,0.5540108584973495,G13A01,2023-01-27_14h32.39.510,t1_Paradigm,2021.1.4,60.044881662699886,
L,left,Lure,0,10,10,10,520.4499738225713,522.4501335819368,left,1,1,0.558055529530975,G13A01,2023-01-27_14h32.39.510,t1_Paradigm,2021.1.4,60.044881662699886,
X,left,Pretarget,0,11,11,11,523.9502689603687,525.9499613112857,left,1,1,0.6421120573941153,G13A01,2023-01-27_14h32.39.510,t1_Paradigm,2021.1.4,60.044881662699886,
X,right,Target,0,12,12,12,527.4499590656778,529.4496446797566,right,1,1,0.6468175804620842,G13A01,2023-01-27_14h32.39.510,t1_Paradigm,2021.1.4,60.044881662699886,
X,right,Target,0,13,13,13,530.949911586984,532.9500129603985,right,1,1,0.5541186479531461,G13A01,2023-01-27_14h32.39.510,t1_Paradigm,2021.1.4,60.044881662699886,
R,left,Distractor,0,14,14,14,534.4505512660835,536.4501348651393,left,1,1,0.6220949779090006,G13A01,2023-01-27_14h32.39.510,t1_Paradigm,2021.1.4,60.044881662699886,
T,left,Distractor,0,15,15,15,537.950215707242,539.9499151158088,left,1,1,0.5465303985547507,G13A01,2023-01-27_14h32.39.510,t1_Paradigm,2021.1.4,60.044881662699886,
V,left,Pretarget,0,16,16,16,541.4500370205496,543.4502923789114,left,1,1,0.5499761323299026,G13A01,2023-01-27_14h32.39.510,t1_Paradigm,2021.1.4,60.044881662699886,
V,right,Target,0,17,17,17,544.9497717173363,546.9498467849917,right,1,1,0.506319156876998,G13A01,2023-01-27_14h32.39.510,t1_Paradigm,2021.1.4,60.044881662699886,
N,left,Distractor,0,18,18,18,548.4497004993027,550.4499013213208,left,1,1,0.5902906722330954,G13A01,2023-01-27_14h32.39.510,t1_Paradigm,2021.1.4,60.044881662699886,
B,left,Distractor,0,19,19,19,551.9498916972661,553.9499388551485,left,1,1,0.7702146935043857,G13A01,2023-01-27_14h32.39.510,t1_Paradigm,2021.1.4,60.044881662699886,
V,left,Lure,0,20,20,20,555.4501367899647,557.4499215318501,left,1,1,0.5023421750665875,G13A01,2023-01-27_14h32.39.510,t1_Paradigm,2021.1.4,60.044881662699886,
P,left,Distractor,0,21,21,21,558.9497191058181,560.949953612042,left,1,1,0.6022944397263927,G13A01,2023-01-27_14h32.39.510,t1_Paradigm,2021.1.4,60.044881662699886,
K,left,Pretarget,0,22,22,22,562.4499741433683,564.4500440781994,left,1,1,0.5581806422997033,G13A01,2023-01-27_14h32.39.510,t1_Paradigm,2021.1.4,60.044881662699886,
K,right,Target,0,23,23,23,565.9498637874931,567.9499240982695,right,1,1,0.5943260400090367,G13A01,2023-01-27_14h32.39.510,t1_Paradigm,2021.1.4,60.044881662699886,
J,left,Pretarget,0,24,24,24,569.4501188250433,571.4496995368972,left,1,1,0.5665972023416543,G13A01,2023-01-27_14h32.39.510,t1_Paradigm,2021.1.4,60.044881662699886,
J,right,Target,0,25,25,25,572.9499138326064,574.9499231358641,right,1,1,0.5863034247449832,G13A01,2023-01-27_14h32.39.510,t1_Paradigm,2021.1.4,60.044881662699886,
H,left,Distractor,0,26,26,26,576.4500354165357,578.4495561384247,left,1,1,0.7026595765200909,G13A01,2023-01-27_14h32.39.510,t1_Paradigm,2021.1.4,60.044881662699886,
J,left,Lure,0,27,27,27,579.9498307448957,581.9496639278805,left,1,1,1.026520055893343,G13A01,2023-01-27_14h32.39.510,t1_Paradigm,2021.1.4,60.044881662699886,
V,left,Distractor,0,28,28,28,583.4501634165208,585.4499433463789,left,1,1,0.9986686718912097,G13A01,2023-01-27_14h32.39.510,t1_Paradigm,2021.1.4,60.044881662699886,
Z,left,Pretarget,0,29,29,29,586.9498435769783,588.9498471057886,left,1,1,0.7306129755306756,G13A01,2023-01-27_14h32.39.510,t1_Paradigm,2021.1.4,60.044881662699886,
Z,right,Target,0,30,30,30,590.4499879378563,592.4499240982695,right,1,1,0.6383044590183999,G13A01,2023-01-27_14h32.39.510,t1_Paradigm,2021.1.4,60.044881662699886,
T,left,Distractor,0,31,31,31,593.9500873864599,595.9498997173214,left,1,1,0.7703276157844812,G13A01,2023-01-27_14h32.39.510,t1_Paradigm,2021.1.4,60.044881662699886,
Z,left,Lure,0,32,32,32,597.4498631458846,599.4496450005681,left,1,1,0.8545021987811197,G13A01,2023-01-27_14h32.39.510,t1_Paradigm,2021.1.4,60.044881662699886,
F,left,Distractor,0,33,33,33,600.950041832577,602.9498002687033,left,1,1,0.8904169398883823,G13A01,2023-01-27_14h32.39.510,t1_Paradigm,2021.1.4,60.044881662699886,
Y,left,Pretarget,0,34,34,34,604.4499330807157,606.4501242786791,left,1,1,0.8144343555904925,G13A01,2023-01-27_14h32.39.510,t1_Paradigm,2021.1.4,60.044881662699886,
Y,right,Target,0,35,35,35,607.949795135879,609.9501114465966,right,1,1,0.6261152679944644,G13A01,2023-01-27_14h32.39.510,t1_Paradigm,2021.1.4,60.044881662699886,
Y,right,Target,0,36,36,36,611.4498872060358,613.4499805594096,right,1,1,0.7102382018638309,G13A01,2023-01-27_14h32.39.510,t1_Paradigm,2021.1.4,60.044881662699886,
W,left,Distractor,0,37,37,37,614.9500447197934,616.9500161684264,left,1,1,0.6181927429570351,G13A01,2023-01-27_14h32.39.510,t1_Paradigm,2021.1.4,60.044881662699886,
Q,left,Distractor,0,38,38,38,618.4500033363438,620.449839085748,left,1,1,0.7987548392993631,G13A01,2023-01-27_14h32.39.510,t1_Paradigm,2021.1.4,60.044881662699886,
P,left,Pretarget,0,39,39,39,621.950011677196,623.9497627348755,left,1,1,0.6903962802462047,G13A01,2023-01-27_14h32.39.510,t1_Paradigm,2021.1.4,60.044881662699886,
P,right,Target,0,40,40,40,625.449939817554,627.4500254716841,right,1,1,0.7261878333811183,G13A01,2023-01-27_14h32.39.510,t1_Paradigm,2021.1.4,60.044881662699886,
J,left,Distractor,0,41,41,41,628.9498737323593,630.9498679579265,left,1,1,0.6023614873411134,G13A01,2023-01-27_14h32.39.510,t1_Paradigm,2021.1.4,60.044881662699886,
P,left,Lure,0,42,42,42,632.4500787248107,634.4498596170743,left,1,1,0.7183175990649033,G13A01,2023-01-27_14h32.39.510,t1_Paradigm,2021.1.4,60.044881662699886,
L,left,Distractor,0,43,43,43,635.9500350957387,637.9500485694152,left,1,1,0.7381091547867982,G13A01,2023-01-27_14h32.39.510,t1_Paradigm,2021.1.4,60.044881662699886,
Z,left,Distractor,0,44,44,44,639.4498827148054,641.4499709353549,left,1,1,0.678559008956654,G13A01,2023-01-27_14h32.39.510,t1_Paradigm,2021.1.4,60.044881662699886,
F,left,Pretarget,0,45,45,45,642.9500062235602,644.9499757473823,left,1,1,0.7145719154505059,G13A01,2023-01-27_14h32.39.510,t1_Paradigm,2021.1.4,60.044881662699886,
F,right,Target,0,46,46,46,646.4500299629144,648.4496992161003,right,1,1,0.734365716794855,G13A01,2023-01-27_14h32.39.510,t1_Paradigm,2021.1.4,60.044881662699886,
G,left,Pretarget,0,47,47,47,649.949736749928,651.9499417423649,left,1,1,0.6261354785237927,G13A01,2023-01-27_14h32.39.510,t1_Paradigm,2021.1.4,60.044881662699886,
G,right,Target,0,48,48,48,653.4499821634236,655.450026113278,right,1,1,0.6145163525507087,G13A01,2023-01-27_14h32.39.510,t1_Paradigm,2021.1.4,60.044881662699886,
V,left,Distractor,0,49,49,49,656.9498859228333,658.9498981133074,left,1,1,0.6341920987761114,G13A01,2023-01-27_14h32.39.510,t1_Paradigm,2021.1.4,60.044881662699886,
G,left,Lure,0,50,50,50,660.4497460531857,662.4499840882345,left,1,1,0.5102201086265268,G13A01,2023-01-27_14h32.39.510,t1_Paradigm,2021.1.4,60.044881662699886,
Q,left,Pretarget,0,51,51,51,663.949807326353,665.9498750155617,left,1,1,0.9628488881717203,G13A01,2023-01-27_14h32.39.510,t1_Paradigm,2021.1.4,60.044881662699886,
Q,right,Target,0,52,52,52,667.4498679579265,669.4496575118392,right,1,1,0.7265670213091653,G13A01,2023-01-27_14h32.39.510,t1_Paradigm,2021.1.4,60.044881662699886,
Y,left,Distractor,0,53,53,53,670.9500790456077,672.9498268952739,left,1,1,0.5864067229849752,G13A01,2023-01-27_14h32.39.510,t1_Paradigm,2021.1.4,60.044881662699886,
V,left,Distractor,0,54,54,54,674.449677401557,676.4500033363438,left,1,1,0.7022059625596739,G13A01,2023-01-27_14h32.39.510,t1_Paradigm,2021.1.4,60.044881662699886,
B,left,Distractor,0,55,55,55,677.9499641985021,679.9500533814571,left,1,1,0.89851622680726,G13A01,2023-01-27_14h32.39.510,t1_Paradigm,2021.1.4,60.044881662699886,
J,left,Pretarget,0,56,56,56,681.4500145644124,683.4503388951853,left,1,1,0.6781615353393136,G13A01,2023-01-27_14h32.39.510,t1_Paradigm,2021.1.4,60.044881662699886,
J,right,Target,0,57,57,57,684.9499815218151,686.9499844090315,right,1,1,0.6663640434999252,G13A01,2023-01-27_14h32.39.510,t1_Paradigm,2021.1.4,60.044881662699886,
H,left,Distractor,0,58,58,58,688.4499494416232,690.4498525594245,left,1,1,0.6383500129013555,G13A01,2023-01-27_14h32.39.510,t1_Paradigm,2021.1.4,60.044881662699886,
J,left,Lure,0,59,59,59,691.949997882708,693.9500424741855,left,1,1,0.9625274446007097,G13A01,2023-01-27_14h32.39.510,t1_Paradigm,2021.1.4,60.044881662699886,
D,left,Pretarget,0,60,60,60,695.4498477473971,697.449779737377,left,1,1,0.5986151621327735,G13A01,2023-01-27_14h32.39.510,t1_Paradigm,2021.1.4,60.044881662699886,
D,right,Target,0,61,61,61,698.9496745143406,700.9498942636856,right,1,1,0.6183322917931946,G13A01,2023-01-27_14h32.39.510,t1_Paradigm,2021.1.4,60.044881662699886,
R,left,Distractor,0,62,62,62,702.4500030155468,704.4499770305847,left,1,1,0.6701722834695829,G13A01,2023-01-27_14h32.39.510,t1_Paradigm,2021.1.4,60.044881662699886,
F,left,Distractor,0,63,63,63,705.9495352863014,707.9500161684264,left,1,1,0.6900992176379077,G13A01,2023-01-27_14h32.39.510,t1_Paradigm,2021.1.4,60.044881662699886,
F,left,Distractor,0,0,0,0,857.4931168732874,859.4996971629589,None,0,2,,G13A01,2023-01-27_14h32.39.510,t1_Paradigm,2021.1.4,60.044881662699886,
N,left,Pretarget,0,1,1,1,860.9998280501604,862.9999387268326,None,0,2,,G13A01,2023-01-27_14h32.39.510,t1_Paradigm,2021.1.4,60.044881662699886,
V,left,Distractor,0,2,2,2,864.4835178372305,866.483079621772,left,1,2,0.84531571403204,G13A01,2023-01-27_14h32.39.510,t1_Paradigm,2021.1.4,60.044881662699886,
N,right,Target,0,3,3,3,867.9831075315305,869.9830995114899,right,1,2,0.6089892557065468,G13A01,2023-01-27_14h32.39.510,t1_Paradigm,2021.1.4,60.044881662699886,
N,left,Lure,0,4,4,4,871.4832390603406,873.4830738473247,None,0,2,,G13A01,2023-01-27_14h32.39.510,t1_Paradigm,2021.1.4,60.044881662699886,
X,left,Distractor,0,5,5,5,874.9835611455055,876.9833192608203,left,1,2,0.7927863189543132,G13A01,2023-01-27_14h32.39.510,t1_Paradigm,2021.1.4,60.044881662699886,
G,left,Pretarget,0,6,6,6,878.4829256368248,880.4831761831592,left,1,2,0.7973067392740631,G13A01,2023-01-27_14h32.39.510,t1_Paradigm,2021.1.4,60.044881662699886,
H,left,Pretarget,0,7,7,7,881.9831688047125,883.9831027195032,left,1,2,0.7369799319130834,G13A01,2023-01-27_14h32.39.510,t1_Paradigm,2021.1.4,60.044881662699886,
G,right,Target,0,8,8,8,885.4831745791453,887.4831691255094,right,1,2,0.46894861650071107,G13A01,2023-01-27_14h32.39.510,t1_Paradigm,2021.1.4,60.044881662699886,
H,right,Target,0,9,9,9,888.9831360829121,890.9831187595992,right,1,2,0.9530859223159496,G13A01,2023-01-27_14h32.39.510,t1_Paradigm,2021.1.4,60.044881662699886,
T,left,Pretarget,0,10,10,10,892.4831482733862,894.4829894764116,left,1,2,0.5411791011574678,G13A01,2023-01-27_14h32.39.510,t1_Paradigm,2021.1.4,60.044881662699886,
K,left,Distractor,0,11,11,11,895.9835082131758,897.9832323235023,left,1,2,0.8332545229932293,G13A01,2023-01-27_14h32.39.510,t1_Paradigm,2021.1.4,60.044881662699886,
T,right,Target,0,12,12,12,899.4830112909549,901.4831646342791,right,1,2,1.0132866545172874,G13A01,2023-01-27_14h32.39.510,t1_Paradigm,2021.1.4,60.044881662699886,
T,left,Lure,0,13,13,13,902.9830359927,904.9831527646165,left,1,2,1.3690377352904761,G13A01,2023-01-27_14h32.39.510,t1_Paradigm,2021.1.4,60.044881662699886,
J,left,Distractor,0,14,14,14,906.4830590904457,908.4833574362565,left,1,2,1.1489127380191348,G13A01,2023-01-27_14h32.39.510,t1_Paradigm,2021.1.4,60.044881662699886,
Q,left,Pretarget,0,15,15,15,909.983095982665,911.9831219676271,left,1,2,1.0729814820369938,G13A01,2023-01-27_14h32.39.510,t1_Paradigm,2021.1.4,60.044881662699886,
M,left,Distractor,0,16,16,16,913.4830109701434,915.4832303986914,left,1,2,0.6131439618038712,G13A01,2023-01-27_14h32.39.510,t1_Paradigm,2021.1.4,60.044881662699886,
Q,right,Target,0,17,17,17,916.983445977603,918.9832961630891,right,1,2,0.9687705714313779,G13A01,2023-01-27_14h32.39.510,t1_Paradigm,2021.1.4,60.044881662699886,
R,left,Distractor,0,18,18,18,920.483271782141,922.4831739375368,left,1,2,0.5889407376089366,G13A01,2023-01-27_14h32.39.510,t1_Paradigm,2021.1.4,60.044881662699886,
W,left,Distractor,0,19,19,19,923.983080263366,925.9829930052365,left,1,2,0.9295271892478922,G13A01,2023-01-27_14h32.39.510,t1_Paradigm,2021.1.4,60.044881662699886,
C,left,Pretarget,0,20,20,20,927.4834485440078,929.4829894764116,left,1,2,0.7571526003448525,G13A01,2023-01-27_14h32.39.510,t1_Paradigm,2021.1.4,60.044881662699886,
T,left,Distractor,0,21,21,21,930.9832275114604,932.982949376179,left,1,2,0.8572165041114204,G13A01,2023-01-27_14h32.39.510,t1_Paradigm,2021.1.4,60.044881662699886,
C,right,Target,0,22,22,22,934.4831447445613,936.482963491464,right,1,2,0.5411925748485373,G13A01,2023-01-27_14h32.39.510,t1_Paradigm,2021.1.4,60.044881662699886,
F,left,Pretarget,0,23,23,23,937.9833051455353,939.9832923134672,left,1,2,0.7688634756632382,G13A01,2023-01-27_14h32.39.510,t1_Paradigm,2021.1.4,60.044881662699886,
C,right,Target,0,24,24,24,941.4832871806284,943.4832255866495,right,1,2,0.8208869660738856,G13A01,2023-01-27_14h32.39.510,t1_Paradigm,2021.1.4,60.044881662699886,
F,right,Target,0,25,25,25,944.98311009795,946.9833067495492,right,1,2,1.0971750821481692,G13A01,2023-01-27_14h32.39.510,t1_Paradigm,2021.1.4,60.044881662699886,
H,left,Distractor,0,26,26,26,948.483414218208,950.4835714111687,left,1,2,1.4205861179943895,G13A01,2023-01-27_14h32.39.510,t1_Paradigm,2021.1.4,60.044881662699886,
H,left,Lure,0,27,27,27,951.9832294362859,953.9832188498112,left,1,2,1.1209603013994638,G13A01,2023-01-27_14h32.39.510,t1_Paradigm,2021.1.4,60.044881662699886,
P,left,Distractor,0,28,28,28,955.4831424989534,957.4831572558323,left,1,2,1.0294047070638044,G13A01,2023-01-27_14h32.39.510,t1_Paradigm,2021.1.4,60.044881662699886,
G,left,Pretarget,0,29,29,29,958.9830132157658,960.9833096367656,left,1,2,0.8888745240838034,G13A01,2023-01-27_14h32.39.510,t1_Paradigm,2021.1.4,60.044881662699886,
K,left,Distractor,0,30,30,30,962.4830632608646,964.4829282032442,left,1,2,0.8455656187579734,G13A01,2023-01-27_14h32.39.510,t1_Paradigm,2021.1.4,60.044881662699886,
G,right,Target,0,31,31,31,965.9832531756256,967.9832955214806,right,1,2,0.6728496965952218,G13A01,2023-01-27_14h32.39.510,t1_Paradigm,2021.1.4,60.044881662699886,
M,left,Pretarget,0,32,32,32,969.4833118823881,971.4828560228052,left,1,2,1.0135214815381914,G13A01,2023-01-27_14h32.39.510,t1_Paradigm,2021.1.4,60.044881662699886,
B,left,Distractor,0,33,33,33,972.9833173360093,974.9829901180201,left,1,2,0.7134564870648319,G13A01,2023-01-27_14h32.39.510,t1_Paradigm,2021.1.4,60.044881662699886,
M,right,Target,0,34,34,34,976.4832413059485,978.4832320026908,right,1,2,0.6528557148267282,G13A01,2023-01-27_14h32.39.510,t1_Paradigm,2021.1.4,60.044881662699886,
M,left,Lure,0,35,35,35,979.9830180277932,981.9829285240412,left,1,2,1.169250940263737,G13A01,2023-01-27_14h32.39.510,t1_Paradigm,2021.1.4,60.044881662699886,
T,left,Distractor,0,36,36,36,983.4832438723679,985.4831184388022,left,1,2,1.0929488372203195,G13A01,2023-01-27_14h32.39.510,t1_Paradigm,2021.1.4,60.044881662699886,
F,left,Distractor,0,37,37,37,986.9829538673948,988.9832486843952,left,1,2,1.2888795927719912,G13A01,2023-01-27_14h32.39.510,t1_Paradigm,2021.1.4,60.044881662699886,
X,left,Distractor,0,38,38,38,990.4832820478041,992.483387912449,left,1,2,1.3087195895786863,G13A01,2023-01-27_14h32.39.510,t1_Paradigm,2021.1.4,60.044881662699886,
C,left,Distractor,0,39,39,39,993.983181957592,995.9831177971937,left,1,2,0.8490681344846962,G13A01,2023-01-27_14h32.39.510,t1_Paradigm,2021.1.4,60.044881662699886,
R,left,Distractor,0,40,40,40,997.4834421279811,999.4831668799015,left,1,2,0.6451044980203733,G13A01,2023-01-27_14h32.39.510,t1_Paradigm,2021.1.4,60.044881662699886,
B,left,Pretarget,0,41,41,41,1000.9830148197652,1002.9829035014991,left,1,2,0.5691190265060868,G13A01,2023-01-27_14h32.39.510,t1_Paradigm,2021.1.4,60.044881662699886,
H,left,Distractor,0,42,42,42,1004.482701717061,1006.4829692658968,left,1,2,0.6692111608281266,G13A01,2023-01-27_14h32.39.510,t1_Paradigm,2021.1.4,60.044881662699886,
B,right,Target,0,43,43,43,1007.9831004738953,1009.9830138573598,right,1,2,0.6413674760697177,G13A01,2023-01-27_14h32.39.510,t1_Paradigm,2021.1.4,60.044881662699886,
W,left,Pretarget,0,44,44,44,1011.4836262682948,1013.4831303084793,left,1,2,0.9169353917677654,G13A01,2023-01-27_14h32.39.510,t1_Paradigm,2021.1.4,60.044881662699886,
L,left,Pretarget,0,45,45,45,1014.9831864488224,1016.9832637620857,left,1,2,0.6971453117439523,G13A01,2023-01-27_14h32.39.510,t1_Paradigm,2021.1.4,60.044881662699886,
W,right,Target,0,46,46,46,1018.4832233410416,1020.4831149099773,right,1,2,0.5730199782701675,G13A01,2023-01-27_14h32.39.510,t1_Paradigm,2021.1.4,60.044881662699886,
L,right,Target,0,47,47,47,1021.9830446543492,1023.9834854362416,right,1,2,1.0887296499277,G13A01,2023-01-27_14h32.39.510,t1_Paradigm,2021.1.4,60.044881662699886,
W,right,Target,0,48,48,48,1025.4828864989977,1027.4830157821707,right,1,2,0.6295555481337942,G13A01,2023-01-27_14h32.39.510,t1_Paradigm,2021.1.4,60.044881662699886,
X,left,Distractor,0,49,49,49,1028.9831444237643,1030.9830029501027,left,1,2,0.761334253824316,G13A01,2023-01-27_14h32.39.510,t1_Paradigm,2021.1.4,60.044881662699886,
R,left,Distractor,0,50,50,50,1032.4829946092505,1034.4830404839304,left,1,2,0.6850546069035772,G13A01,2023-01-27_14h32.39.510,t1_Paradigm,2021.1.4,60.044881662699886,
V,left,Pretarget,0,51,51,51,1035.983282368601,1037.9830754513387,left,1,2,0.5929706517490558,G13A01,2023-01-27_14h32.39.510,t1_Paradigm,2021.1.4,60.044881662699886,
Z,left,Distractor,0,52,52,52,1039.4829593210306,1041.4829702283023,left,1,2,0.9974772134446539,G13A01,2023-01-27_14h32.39.510,t1_Paradigm,2021.1.4,60.044881662699886,
V,right,Target,0,53,53,53,1042.9831781079702,1044.9832891054393,right,1,2,0.697102003483451,G13A01,2023-01-27_14h32.39.510,t1_Paradigm,2021.1.4,60.044881662699886,
V,left,Lure,0,54,54,54,1046.4829971756699,1048.4830180277932,left,1,2,0.9570552048826357,G13A01,2023-01-27_14h32.39.510,t1_Paradigm,2021.1.4,60.044881662699886,
N,left,Distractor,0,55,55,55,1049.9830911706376,1051.9828553811967,left,1,2,1.2337356617645128,G13A01,2023-01-27_14h32.39.510,t1_Paradigm,2021.1.4,60.044881662699886,
B,left,Distractor,0,56,56,56,1053.4832310402853,1055.4831107395585,left,1,2,1.1729491451987997,G13A01,2023-01-27_14h32.39.510,t1_Paradigm,2021.1.4,60.044881662699886,
V,left,Lure,0,57,57,57,1056.9831351205066,1058.9829753611266,left,1,2,1.2571134625177365,G13A01,2023-01-27_14h32.39.510,t1_Paradigm,2021.1.4,60.044881662699886,
J,left,Distractor,0,58,58,58,1060.4830542784184,1062.4833211856312,left,1,2,1.404807153114234,G13A01,2023-01-27_14h32.39.510,t1_Paradigm,2021.1.4,60.044881662699886,
H,left,Distractor,0,59,59,59,1063.9831341581012,1065.9831036819087,None,0,2,,G13A01,2023-01-27_14h32.39.510,t1_Paradigm,2021.1.4,60.044881662699886,
X,left,Pretarget,0,60,60,60,1067.4826622584224,1069.4830231606174,left,1,2,0.7731574098143028,G13A01,2023-01-27_14h32.39.510,t1_Paradigm,2021.1.4,60.044881662699886,
P,left,Distractor,0,61,61,61,1070.9830087245355,1072.9832727445464,left,1,2,0.8728636193991406,G13A01,2023-01-27_14h32.39.510,t1_Paradigm,2021.1.4,60.044881662699886,
X,right,Target,0,62,62,62,1074.4830279726593,1076.4833956116927,right,1,2,0.540789968406898,G13A01,2023-01-27_14h32.39.510,t1_Paradigm,2021.1.4,60.044881662699886,
Q,left,Distractor,0,63,63,63,1077.9830189901986,1079.9831652758876,left,1,2,0.6569661502580857,G13A01,2023-01-27_14h32.39.510,t1_Paradigm,2021.1.4,60.044881662699886,
B,left,Pretarget,0,0,0,0,1088.62652044087,1090.6332261640928,None,0,2,,G13A01,2023-01-27_14h32.39.510,t1_Paradigm,2021.1.4,60.044881662699886,
F,left,Distractor,0,1,1,1,1092.1167805727455,1094.118573855667,None,0,2,,G13A01,2023-01-27_14h32.39.510,t1_Paradigm,2021.1.4,60.044881662699886,
B,right,Target,0,2,2,2,1095.6168662268756,1097.6191538655985,right,1,2,0.6211816547584021,G13A01,2023-01-27_14h32.39.510,t1_Paradigm,2021.1.4,60.044881662699886,
V,left,Distractor,0,3,3,3,1099.1169858860085,1101.1188064370945,left,1,2,0.8654203724727267,G13A01,2023-01-27_14h32.39.510,t1_Paradigm,2021.1.4,60.044881662699886,
G,left,Pretarget,0,4,4,4,1102.616955730613,1104.6190605122392,left,1,2,0.8691724721138598,G13A01,2023-01-27_14h32.39.510,t1_Paradigm,2021.1.4,60.044881662699886,
B,left,Lure,0,5,5,5,1106.116798537667,1108.1190922716341,left,1,2,0.6978109757910715,G13A01,2023-01-27_14h32.39.510,t1_Paradigm,2021.1.4,60.044881662699886,
G,right,Target,0,6,6,6,1109.6168245226145,1111.616298407418,right,1,2,0.6240092031657696,G13A01,2023-01-27_14h32.39.510,t1_Paradigm,2021.1.4,60.044881662699886,
Y,left,Pretarget,0,7,7,7,1113.1168277306424,1115.1191009332833,left,1,2,0.6091307293536374,G13A01,2023-01-27_14h32.39.510,t1_Paradigm,2021.1.4,60.044881662699886,
P,left,Distractor,0,8,8,8,1116.6168312594673,1118.6159371844115,left,1,2,0.7604222138761543,G13A01,2023-01-27_14h32.39.510,t1_Paradigm,2021.1.4,60.044881662699886,
Y,right,Target,0,9,9,9,1120.1168399211165,1122.118526056176,right,1,2,0.6981006599526154,G13A01,2023-01-27_14h32.39.510,t1_Paradigm,2021.1.4,60.044881662699886,
X,left,Distractor,0,10,10,10,1123.616332091624,1125.6185690436396,left,1,2,0.829779275416513,G13A01,2023-01-27_14h32.39.510,t1_Paradigm,2021.1.4,60.044881662699886,
Y,right,Target,0,11,11,11,1127.116943540139,1129.1187576751981,left,0,2,1.2814491779136006,G13A01,2023-01-27_14h32.39.510,t1_Paradigm,2021.1.4,60.044881662699886,
N,left,Distractor,0,12,12,12,1130.6168274098309,1132.618675549893,left,1,2,0.6456373500695918,G13A01,2023-01-27_14h32.39.510,t1_Paradigm,2021.1.4,60.044881662699886,
Y,right,Target,0,13,13,13,1134.1167876303953,1136.1189418155118,right,1,2,0.6014664498798084,G13A01,2023-01-27_14h32.39.510,t1_Paradigm,2021.1.4,60.044881662699886,
Y,left,Lure,0,14,14,14,1137.61682548502,1139.6168014248833,left,1,2,0.7193586014036555,G13A01,2023-01-27_14h32.39.510,t1_Paradigm,2021.1.4,60.044881662699886,
K,left,Distractor,0,15,15,15,1141.1168575652264,1143.1190255448164,left,1,2,0.881325412512524,G13A01,2023-01-27_14h32.39.510,t1_Paradigm,2021.1.4,60.044881662699886,
T,left,Pretarget,0,16,16,16,1144.616740472513,1146.618864181437,left,1,2,0.6614747009298299,G13A01,2023-01-27_14h32.39.510,t1_Paradigm,2021.1.4,60.044881662699886,
J,left,Distractor,0,17,17,17,1148.116807199316,1150.1189758205146,left,1,2,0.6012245652091224,G13A01,2023-01-27_14h32.39.510,t1_Paradigm,2021.1.4,60.044881662699886,
T,right,Target,0,18,18,18,1151.6168347882776,1153.6183120812784,right,1,2,0.6060080431489041,G13A01,2023-01-27_14h32.39.510,t1_Paradigm,2021.1.4,60.044881662699886,
S,left,Pretarget,0,19,19,19,1155.1169778659532,1157.1190576250228,left,1,2,0.5612677195022115,G13A01,2023-01-27_14h32.39.510,t1_Paradigm,2021.1.4,60.044881662699886,
R,left,Distractor,0,20,20,20,1158.6168264474254,1160.6183014948183,left,1,2,0.6939337633812102,G13A01,2023-01-27_14h32.39.510,t1_Paradigm,2021.1.4,60.044881662699886,
S,right,Target,0,21,21,21,1162.1167898760032,1164.119094196445,right,1,2,0.5691286505752942,G13A01,2023-01-27_14h32.39.510,t1_Paradigm,2021.1.4,60.044881662699886,
Q,left,Distractor,0,22,22,22,1165.616782497571,1167.6178591089265,left,1,2,0.6864385465305531,G13A01,2023-01-27_14h32.39.510,t1_Paradigm,2021.1.4,60.044881662699886,
D,left,Distractor,0,23,23,23,1169.116795008842,1171.1190236200055,left,1,2,0.8171865155309206,G13A01,2023-01-27_14h32.39.510,t1_Paradigm,2021.1.4,60.044881662699886,
F,left,Distractor,0,24,24,24,1172.6168360714946,1174.6190428681293,left,1,2,0.5811638566519832,G13A01,2023-01-27_14h32.39.510,t1_Paradigm,2021.1.4,60.044881662699886,
Z,left,Distractor,0,25,25,25,1176.1167943672335,1178.1190155999648,left,1,2,0.6171998608915601,G13A01,2023-01-27_14h32.39.510,t1_Paradigm,2021.1.4,60.044881662699886,
P,left,Distractor,0,26,26,26,1179.6335492116632,1181.617959199124,left,1,2,0.6702608248160686,G13A01,2023-01-27_14h32.39.510,t1_Paradigm,2021.1.4,60.044881662699886,
H,left,Distractor,0,27,27,27,1183.1167895552062,1185.1191480911657,left,1,2,0.5293135992978932,G13A01,2023-01-27_14h32.39.510,t1_Paradigm,2021.1.4,60.044881662699886,
Z,left,Pretarget,0,28,28,28,1186.616782818368,1188.6191484119772,left,1,2,0.6131866284704302,G13A01,2023-01-27_14h32.39.510,t1_Paradigm,2021.1.4,60.044881662699886,
J,left,Pretarget,0,29,29,29,1190.1168225978035,1192.1190954796475,left,1,2,0.713312446983764,G13A01,2023-01-27_14h32.39.510,t1_Paradigm,2021.1.4,60.044881662699886,
Z,right,Target,0,30,30,30,1193.616885154188,1195.6188677102618,None,0,2,,G13A01,2023-01-27_14h32.39.510,t1_Paradigm,2021.1.4,60.044881662699886,
J,right,Target,0,31,31,31,1197.1168302970618,1199.1187098757073,left,0,2,0.6736112804210279,G13A01,2023-01-27_14h32.39.510,t1_Paradigm,2021.1.4,60.044881662699886,
V,left,Pretarget,0,32,32,32,1200.6163927231974,1202.6184689534275,left,1,2,0.7259648760373238,G13A01,2023-01-27_14h32.39.510,t1_Paradigm,2021.1.4,60.044881662699886,
Z,left,Lure,0,33,33,33,1204.1168084825185,1206.1183464070928,right,0,2,0.5218100416095695,G13A01,2023-01-27_14h32.39.510,t1_Paradigm,2021.1.4,60.044881662699886,
V,right,Target,0,34,34,34,1207.6167924424226,1209.6186707378656,right,1,2,0.5094822641549399,G13A01,2023-01-27_14h32.39.510,t1_Paradigm,2021.1.4,60.044881662699886,
X,left,Distractor,0,35,35,35,1211.1333904147032,1213.1186527729587,left,1,2,0.5297069025109522,G13A01,2023-01-27_14h32.39.510,t1_Paradigm,2021.1.4,60.044881662699886,
S,left,Distractor,0,36,36,36,1214.6168447331438,1216.6188667478564,left,1,2,0.6294641195854638,G13A01,2023-01-27_14h32.39.510,t1_Paradigm,2021.1.4,60.044881662699886,
Q,left,Distractor,0,37,37,37,1218.1168104073295,1220.1189915398136,left,1,2,0.5050949766300619,G13A01,2023-01-27_14h32.39.510,t1_Paradigm,2021.1.4,60.044881662699886,
P,left,Distractor,0,38,38,38,1221.6167536253924,1223.6172746077646,left,1,2,0.5108139130461495,G13A01,2023-01-27_14h32.39.510,t1_Paradigm,2021.1.4,60.044881662699886,
S,left,Lure,0,39,39,39,1225.1168861165934,1227.118793605012,left,1,2,0.6256148169486551,G13A01,2023-01-27_14h32.39.510,t1_Paradigm,2021.1.4,60.044881662699886,
K,left,Pretarget,0,40,40,40,1228.6333987555554,1230.6496069534478,left,1,2,0.6147864678059705,G13A01,2023-01-27_14h32.39.510,t1_Paradigm,2021.1.4,60.044881662699886,
L,left,Distractor,0,41,41,41,1232.1334317981527,1234.118790396984,left,1,2,0.5533666881819954,G13A01,2023-01-27_14h32.39.510,t1_Paradigm,2021.1.4,60.044881662699886,
K,right,Target,0,42,42,42,1235.6166958810354,1237.6188237603928,right,1,2,0.6374344441137509,G13A01,2023-01-27_14h32.39.510,t1_Paradigm,2021.1.4,60.044881662699886,
B,left,Distractor,0,43,43,43,1239.1167436805263,1241.1189228881994,left,1,2,0.5294675842451397,G13A01,2023-01-27_14h32.39.510,t1_Paradigm,2021.1.4,60.044881662699886,
N,left,Distractor,0,44,44,44,1242.6167459261342,1244.617913324444,left,1,2,0.5501788791734725,G13A01,2023-01-27_14h32.39.510,t1_Paradigm,2021.1.4,60.044881662699886,
S,left,Pretarget,0,45,45,45,1246.133383677865,1248.1187150085316,left,1,2,0.4733002950088121,G13A01,2023-01-27_14h32.39.510,t1_Paradigm,2021.1.4,60.044881662699886,
Z,left,Distractor,0,46,46,46,1249.6333368407795,1251.618525735379,left,1,2,0.6696436018537497,G13A01,2023-01-27_14h32.39.510,t1_Paradigm,2021.1.4,60.044881662699886,
S,right,Target,0,47,47,47,1253.1167164123617,1255.119244331756,right,1,2,0.6890485912299482,G13A01,2023-01-27_14h32.39.510,t1_Paradigm,2021.1.4,60.044881662699886,
C,left,Distractor,0,48,48,48,1256.6167661366635,1258.6187798105238,left,1,2,0.51740992203122,G13A01,2023-01-27_14h32.39.510,t1_Paradigm,2021.1.4,60.044881662699886,
T,left,Pretarget,0,49,49,49,1260.1168755301333,1262.119184662588,left,1,2,0.7131931086478289,G13A01,2023-01-27_14h32.39.510,t1_Paradigm,2021.1.4,60.044881662699886,
S,left,Lure,0,50,50,50,1263.6333387655905,1265.6180496652814,left,1,2,0.5263375195936533,G13A01,2023-01-27_14h32.39.510,t1_Paradigm,2021.1.4,60.044881662699886,
T,right,Target,0,51,51,51,1267.1167478509597,1269.118628071199,right,1,2,0.5138458123110468,G13A01,2023-01-27_14h32.39.510,t1_Paradigm,2021.1.4,60.044881662699886,
N,left,Pretarget,0,52,52,52,1270.61680880333,1272.6178052141913,left,1,2,0.5343360746919643,G13A01,2023-01-27_14h32.39.510,t1_Paradigm,2021.1.4,60.044881662699886,
B,left,Distractor,0,53,53,53,1274.1167991792609,1276.118673304285,left,1,2,0.6174045325460611,G13A01,2023-01-27_14h32.39.510,t1_Paradigm,2021.1.4,60.044881662699886,
N,right,Target,0,54,54,54,1277.6166827281559,1279.6186928731913,right,1,2,0.44568694605550263,G13A01,2023-01-27_14h32.39.510,t1_Paradigm,2021.1.4,60.044881662699886,
N,left,Lure,0,55,55,55,1281.1169258960435,1283.1167866679898,right,0,2,0.8513791917503113,G13A01,2023-01-27_14h32.39.510,t1_Paradigm,2021.1.4,60.044881662699886,
X,left,Distractor,0,56,56,56,1284.6167314900522,1286.618981594962,left,1,2,0.7253502194944303,G13A01,2023-01-27_14h32.39.510,t1_Paradigm,2021.1.4,60.044881662699886,
W,left,Distractor,0,57,57,57,1288.116824843426,1290.1188981864543,left,1,2,0.7133708329492947,G13A01,2023-01-27_14h32.39.510,t1_Paradigm,2021.1.4,60.044881662699886,
S,left,Distractor,0,58,58,58,1291.6167314900522,1293.6181337153976,left,1,2,0.4783850059757242,G13A01,2023-01-27_14h32.39.510,t1_Paradigm,2021.1.4,60.044881662699886,
L,left,Distractor,0,59,59,59,1295.1334834472655,1297.1186283920106,left,1,2,0.6256472179375123,G13A01,2023-01-27_14h32.39.510,t1_Paradigm,2021.1.4,60.044881662699886,
K,left,Pretarget,0,60,60,60,1298.6334180036647,1300.6183608431747,left,1,2,0.5818471648090053,G13A01,2023-01-27_14h32.39.510,t1_Paradigm,2021.1.4,60.044881662699886,
V,left,Pretarget,0,61,61,61,1302.1333971515414,1304.1189684420824,left,1,2,0.553179019028903,G13A01,2023-01-27_14h32.39.510,t1_Paradigm,2021.1.4,60.044881662699886,
K,right,Target,0,62,62,62,1305.6335059034027,1307.618631920821,right,1,2,0.5094829057488823,G13A01,2023-01-27_14h32.39.510,t1_Paradigm,2021.1.4,60.044881662699886,
V,right,Target,0,63,63,63,1309.11689959027,1311.1186145975225,right,1,2,0.4974339051696006,G13A01,2023-01-27_14h32.39.510,t1_Paradigm,2021.1.4,60.044881662699886,
R,left,Distractor,0,0,0,0,1405.8301520473033,1407.8461712928547,None,0,3,,G13A01,2023-01-27_14h32.39.510,t1_Paradigm,2021.1.4,60.044881662699886,
P,left,Lure,0,1,1,1,1409.3333350442845,1411.33518639236,None,0,3,,G13A01,2023-01-27_14h32.39.510,t1_Paradigm,2021.1.4,60.044881662699886,
V,left,Distractor,0,2,2,2,1412.8333337610675,1414.8357266228413,None,0,3,,G13A01,2023-01-27_14h32.39.510,t1_Paradigm,2021.1.4,60.044881662699886,
P,left,Pretarget,0,3,3,3,1416.3331406382931,1418.33541319934,left,1,3,0.848767222254537,G13A01,2023-01-27_14h32.39.510,t1_Paradigm,2021.1.4,60.044881662699886,
Z,left,Distractor,0,4,4,4,1419.8335599264537,1421.8351876755623,left,1,3,0.7251311117579462,G13A01,2023-01-27_14h32.39.510,t1_Paradigm,2021.1.4,60.044881662699886,
L,left,Pretarget,0,5,5,5,1423.3334701019048,1425.3355655802588,left,1,3,1.016559155235882,G13A01,2023-01-27_14h32.39.510,t1_Paradigm,2021.1.4,60.044881662699886,
P,right,Target,0,6,6,6,1426.8331942122313,1428.8351774098992,right,1,3,0.8132127417338779,G13A01,2023-01-27_14h32.39.510,t1_Paradigm,2021.1.4,60.044881662699886,
S,left,Distractor,0,7,7,7,1430.3331040668709,1432.3349182019301,left,1,3,0.8012548489205074,G13A01,2023-01-27_14h32.39.510,t1_Paradigm,2021.1.4,60.044881662699886,
L,right,Target,0,8,8,8,1433.833418773589,1435.8355700714892,left,0,3,0.8043797807622468,G13A01,2023-01-27_14h32.39.510,t1_Paradigm,2021.1.4,60.044881662699886,
D,left,Distractor,0,9,9,9,1437.3332185931795,1439.34626400462,left,1,3,0.8140227666735882,G13A01,2023-01-27_14h32.39.510,t1_Paradigm,2021.1.4,60.044881662699886,
G,left,Distractor,0,10,10,10,1440.8335156557878,1442.8356432143337,left,1,3,1.180948341905605,G13A01,2023-01-27_14h32.39.510,t1_Paradigm,2021.1.4,60.044881662699886,
M,left,Pretarget,0,11,11,11,1444.333420377603,1446.3353901015944,left,1,3,0.5768586944323033,G13A01,2023-01-27_14h32.39.510,t1_Paradigm,2021.1.4,60.044881662699886,
Y,left,Distractor,0,12,12,12,1447.833408187129,1449.8342682571674,left,1,3,1.0460418171714991,G13A01,2023-01-27_14h32.39.510,t1_Paradigm,2021.1.4,60.044881662699886,
V,left,Distractor,0,13,13,13,1451.3332718462916,1453.3350680164294,right,0,3,1.1452706734417006,G13A01,2023-01-27_14h32.39.510,t1_Paradigm,2021.1.4,60.044881662699886,
M,right,Target,0,14,14,14,1454.833362633246,1456.8356717657152,right,1,3,0.5405990912258858,G13A01,2023-01-27_14h32.39.510,t1_Paradigm,2021.1.4,60.044881662699886,
S,left,Pretarget,0,15,15,15,1458.3333562172047,1460.335358663011,left,1,3,1.0089198983187089,G13A01,2023-01-27_14h32.39.510,t1_Paradigm,2021.1.4,60.044881662699886,
Q,left,Distractor,0,16,16,16,1461.8331784929323,1463.8354337306664,left,1,3,1.1088538772746688,G13A01,2023-01-27_14h32.39.510,t1_Paradigm,2021.1.4,60.044881662699886,
R,left,Pretarget,0,17,17,17,1465.333276016725,1467.335593169235,left,1,3,1.0485546588897705,G13A01,2023-01-27_14h32.39.510,t1_Paradigm,2021.1.4,60.044881662699886,
S,right,Target,0,18,18,18,1468.833465931486,1470.8356024724926,right,1,3,0.5886472038255306,G13A01,2023-01-27_14h32.39.510,t1_Paradigm,2021.1.4,60.044881662699886,
F,left,Distractor,0,19,19,19,1472.333418773589,1474.335255364771,left,1,3,0.8008820770482998,G13A01,2023-01-27_14h32.39.510,t1_Paradigm,2021.1.4,60.044881662699886,
R,right,Target,0,20,20,20,1475.8333350442845,1477.835170352264,None,0,3,,G13A01,2023-01-27_14h32.39.510,t1_Paradigm,2021.1.4,60.044881662699886,
P,left,Distractor,0,21,21,21,1479.3332400868967,1481.3353939512162,left,1,3,0.9687821202969644,G13A01,2023-01-27_14h32.39.510,t1_Paradigm,2021.1.4,60.044881662699886,
L,left,Distractor,0,22,22,22,1482.8333161169721,1484.8352017908473,left,1,3,0.8131094435084378,G13A01,2023-01-27_14h32.39.510,t1_Paradigm,2021.1.4,60.044881662699886,
R,right,Target,0,23,23,23,1486.3334008086822,1488.3357747431437,left,0,3,1.0405163243267452,G13A01,2023-01-27_14h32.39.510,t1_Paradigm,2021.1.4,60.044881662699886,
H,left,Pretarget,0,24,24,24,1489.833376106937,1491.8358918358572,left,1,3,1.2362436914263526,G13A01,2023-01-27_14h32.39.510,t1_Paradigm,2021.1.4,60.044881662699886,
G,left,Pretarget,0,25,25,25,1493.3334357760905,1495.335661500052,left,1,3,0.8566326445434242,G13A01,2023-01-27_14h32.39.510,t1_Paradigm,2021.1.4,60.044881662699886,
T,left,Distractor,0,26,26,26,1496.8331075956958,1498.8356865226087,left,1,3,0.508592680314905,G13A01,2023-01-27_14h32.39.510,t1_Paradigm,2021.1.4,60.044881662699886,
H,right,Target,0,27,27,27,1500.3333793149504,1502.3353230539942,right,1,3,0.5768471455812687,G13A01,2023-01-27_14h32.39.510,t1_Paradigm,2021.1.4,60.044881662699886,
G,right,Target,0,28,28,28,1503.833332477865,1505.8356137005612,right,1,3,0.660645748663228,G13A01,2023-01-27_14h32.39.510,t1_Paradigm,2021.1.4,60.044881662699886,
D,left,Distractor,0,29,29,29,1507.3334588738362,1509.3351395552745,left,1,3,0.9690394034550991,G13A01,2023-01-27_14h32.39.510,t1_Paradigm,2021.1.4,60.044881662699886,
N,left,Pretarget,0,30,30,30,1510.8335278462619,1512.8355979812623,left,1,3,0.9574119366589002,G13A01,2023-01-27_14h32.39.510,t1_Paradigm,2021.1.4,60.044881662699886,
V,left,Distractor,0,31,31,31,1514.3333863726002,1516.3357853296038,left,1,3,1.008493231711327,G13A01,2023-01-27_14h32.39.510,t1_Paradigm,2021.1.4,60.044881662699886,
R,left,Distractor,0,32,32,32,1517.8333841269778,1519.8356008684787,left,1,3,0.9966575644357363,G13A01,2023-01-27_14h32.39.510,t1_Paradigm,2021.1.4,60.044881662699886,
N,right,Target,0,33,33,33,1521.3333270242292,1523.3358735501388,left,0,3,1.0162733206962002,G13A01,2023-01-27_14h32.39.510,t1_Paradigm,2021.1.4,60.044881662699886,
Z,left,Distractor,0,34,34,34,1524.8334434753488,1526.835302522668,left,1,3,0.8132403306954075,G13A01,2023-01-27_14h32.39.510,t1_Paradigm,2021.1.4,60.044881662699886,
N,left,Lure,0,35,35,35,1528.3333651996654,1530.3349935903825,right,0,3,0.8815583147370489,G13A01,2023-01-27_14h32.39.510,t1_Paradigm,2021.1.4,60.044881662699886,
Y,left,Pretarget,0,36,36,36,1531.8333170793776,1533.835693901041,left,1,3,0.7722052696190076,G13A01,2023-01-27_14h32.39.510,t1_Paradigm,2021.1.4,60.044881662699886,
Y,left,Lure,0,37,37,37,1535.3333238162159,1537.3332978312537,left,1,3,0.7790345015964704,G13A01,2023-01-27_14h32.39.510,t1_Paradigm,2021.1.4,60.044881662699886,
B,left,Distractor,0,38,38,38,1538.8330533801636,1540.8340096907923,left,1,3,0.750049724301789,G13A01,2023-01-27_14h32.39.510,t1_Paradigm,2021.1.4,60.044881662699886,
Y,right,Target,0,39,39,39,1542.3334980116779,1544.3347844275122,right,1,3,0.753390876649064,G13A01,2023-01-27_14h32.39.510,t1_Paradigm,2021.1.4,60.044881662699886,
J,left,Distractor,0,40,40,40,1545.833321891405,1547.8355392744998,left,1,3,0.9809222286276054,G13A01,2023-01-27_14h32.39.510,t1_Paradigm,2021.1.4,60.044881662699886,
X,left,Distractor,0,41,41,41,1549.3332821119548,1551.3354693396832,left,1,3,0.9846659874310717,G13A01,2023-01-27_14h32.39.510,t1_Paradigm,2021.1.4,60.044881662699886,
W,left,Pretarget,0,42,42,42,1552.833405941521,1554.83499230718,left,1,3,0.9892768738936866,G13A01,2023-01-27_14h32.39.510,t1_Paradigm,2021.1.4,60.044881662699886,
S,left,Pretarget,0,43,43,43,1556.3330851395585,1558.3356929386355,left,1,3,0.912631191953551,G13A01,2023-01-27_14h32.39.510,t1_Paradigm,2021.1.4,60.044881662699886,
R,left,Distractor,0,44,44,44,1559.8333190041885,1561.8350478059147,left,1,3,0.9170460684399586,G13A01,2023-01-27_14h32.39.510,t1_Paradigm,2021.1.4,60.044881662699886,
W,right,Target,0,45,45,45,1563.3332121771382,1565.335244457514,right,1,3,0.873024341170094,G13A01,2023-01-27_14h32.39.510,t1_Paradigm,2021.1.4,60.044881662699886,
S,right,Target,0,46,46,46,1566.8332817911578,1568.834975304664,right,1,3,1.2293608855252387,G13A01,2023-01-27_14h32.39.510,t1_Paradigm,2021.1.4,60.044881662699886,
D,left,Distractor,0,47,47,47,1570.3332959064428,1572.3353387732786,left,1,3,0.624867669204832,G13A01,2023-01-27_14h32.39.510,t1_Paradigm,2021.1.4,60.044881662699886,
T,left,Distractor,0,48,48,48,1573.833278262333,1575.8358308834868,left,1,3,0.9323293943161843,G13A01,2023-01-27_14h32.39.510,t1_Paradigm,2021.1.4,60.044881662699886,
S,right,Target,0,49,49,49,1577.3334566282283,1579.3352797457192,right,1,3,0.7130445773655083,G13A01,2023-01-27_14h32.39.510,t1_Paradigm,2021.1.4,60.044881662699886,
K,left,Distractor,0,50,50,50,1580.8332792247384,1582.835415444948,left,1,3,0.7166860003198963,G13A01,2023-01-27_14h32.39.510,t1_Paradigm,2021.1.4,60.044881662699886,
S,left,Lure,0,51,51,51,1584.3333334402705,1586.3355062319024,right,0,3,1.0407604546198854,G13A01,2023-01-27_14h32.39.510,t1_Paradigm,2021.1.4,60.044881662699886,
T,left,Pretarget,0,52,52,52,1587.8333174001746,1589.8342541418824,right,0,3,1.0938974485907238,G13A01,2023-01-27_14h32.39.510,t1_Paradigm,2021.1.4,60.044881662699886,
V,left,Distractor,0,53,53,53,1591.3332468237495,1593.3341267835058,left,1,3,0.6020198332553264,G13A01,2023-01-27_14h32.39.510,t1_Paradigm,2021.1.4,60.044881662699886,
B,left,Distractor,0,54,54,54,1594.833350442772,1596.845885458315,left,1,3,0.8822223747847602,G13A01,2023-01-27_14h32.39.510,t1_Paradigm,2021.1.4,60.044881662699886,
T,right,Target,0,55,55,55,1598.3334473249706,1600.3353621918213,left,0,3,1.0729044895560946,G13A01,2023-01-27_14h32.39.510,t1_Paradigm,2021.1.4,60.044881662699886,
Y,left,Pretarget,0,56,56,56,1601.8334267936443,1603.8352954650181,left,1,3,0.8527971363946563,G13A01,2023-01-27_14h32.39.510,t1_Paradigm,2021.1.4,60.044881662699886,
T,left,Lure,0,57,57,57,1605.333376427734,1607.3349278259848,right,0,3,1.2413081918784883,G13A01,2023-01-27_14h32.39.510,t1_Paradigm,2021.1.4,60.044881662699886,
P,left,Pretarget,0,58,58,58,1608.8333668036794,1610.834790522742,left,1,3,0.9735447460989235,G13A01,2023-01-27_14h32.39.510,t1_Paradigm,2021.1.4,60.044881662699886,
Y,right,Target,0,59,59,59,1612.3333276658377,1614.3495843048295,right,1,3,0.8345666029781569,G13A01,2023-01-27_14h32.39.510,t1_Paradigm,2021.1.4,60.044881662699886,
R,left,Distractor,0,60,60,60,1615.8332654302649,1617.8352890489768,left,1,3,0.6768468889204087,G13A01,2023-01-27_14h32.39.510,t1_Paradigm,2021.1.4,60.044881662699886,
P,right,Target,0,61,61,61,1619.33326190144,1621.3348251693533,left,0,3,1.033324906937196,G13A01,2023-01-27_14h32.39.510,t1_Paradigm,2021.1.4,60.044881662699886,
L,left,Distractor,0,62,62,62,1622.8334434753488,1624.8349602269736,left,1,3,1.1491488482570276,G13A01,2023-01-27_14h32.39.510,t1_Paradigm,2021.1.4,60.044881662699886,
V,left,Distractor,0,63,63,63,1626.333073590693,1628.3351841467374,left,1,3,1.057124883067445,G13A01,2023-01-27_14h32.39.510,t1_Paradigm,2021.1.4,60.044881662699886,
H,left,Lure,0,0,0,0,1637.2685846987733,1639.2687463829643,None,0,3,,G13A01,2023-01-27_14h32.39.510,t1_Paradigm,2021.1.4,60.044881662699886,
B,left,Distractor,0,1,1,1,1640.765755867149,1642.7680178417213,None,0,3,,G13A01,2023-01-27_14h32.39.510,t1_Paradigm,2021.1.4,60.044881662699886,
T,left,Distractor,0,2,2,2,1644.2666387141217,1646.2674153756525,None,0,3,,G13A01,2023-01-27_14h32.39.510,t1_Paradigm,2021.1.4,60.044881662699886,
R,left,Distractor,0,3,3,3,1647.766671435922,1649.7688374907157,left,1,3,1.1753962225047871,G13A01,2023-01-27_14h32.39.510,t1_Paradigm,2021.1.4,60.044881662699886,
H,left,Pretarget,0,4,4,4,1651.2666817015852,1653.268509310321,left,1,3,1.1637366754875984,G13A01,2023-01-27_14h32.39.510,t1_Paradigm,2021.1.4,60.044881662699886,
K,left,Distractor,0,5,5,5,1654.7665540224116,1656.768389330391,left,1,3,1.231763050542213,G13A01,2023-01-27_14h32.39.510,t1_Paradigm,2021.1.4,60.044881662699886,
G,left,Distractor,0,6,6,6,1658.2664994860825,1660.2674131300446,left,1,3,0.9329482212779112,G13A01,2023-01-27_14h32.39.510,t1_Paradigm,2021.1.4,60.044881662699886,
H,right,Target,0,7,7,7,1661.7665902730369,1663.7684592652076,left,0,3,1.2397702673042659,G13A01,2023-01-27_14h32.39.510,t1_Paradigm,2021.1.4,60.044881662699886,
Y,left,Pretarget,0,8,8,8,1665.2666743231384,1667.2669704233413,left,1,3,1.1011588008113904,G13A01,2023-01-27_14h32.39.510,t1_Paradigm,2021.1.4,60.044881662699886,
S,left,Distractor,0,9,9,9,1668.7665331702883,1670.7687495909777,left,1,3,0.8635837812762475,G13A01,2023-01-27_14h32.39.510,t1_Paradigm,2021.1.4,60.044881662699886,
P,left,Distractor,0,10,10,10,1672.2666833055991,1674.268204869266,right,0,3,1.0920589325978654,G13A01,2023-01-27_14h32.39.510,t1_Paradigm,2021.1.4,60.044881662699886,
Y,right,Target,0,11,11,11,1675.7666723983275,1677.7680906637688,right,1,3,0.967918521433603,G13A01,2023-01-27_14h32.39.510,t1_Paradigm,2021.1.4,60.044881662699886,
H,left,Lure,0,12,12,12,1679.2666374309192,1681.267912939482,left,1,3,0.7964181178685976,G13A01,2023-01-27_14h32.39.510,t1_Paradigm,2021.1.4,60.044881662699886,
Q,left,Distractor,0,13,13,13,1682.7666178619984,1684.767796488377,left,1,3,0.5603065968462033,G13A01,2023-01-27_14h32.39.510,t1_Paradigm,2021.1.4,60.044881662699886,
V,left,Pretarget,0,14,14,14,1686.266657320637,1688.2685644882586,left,1,3,0.6916923201351892,G13A01,2023-01-27_14h32.39.510,t1_Paradigm,2021.1.4,60.044881662699886,
G,left,Distractor,0,15,15,15,1689.7666541126237,1691.7681455209095,left,1,3,1.0961866913421545,G13A01,2023-01-27_14h32.39.510,t1_Paradigm,2021.1.4,60.044881662699886,
Z,left,Pretarget,0,16,16,16,1693.2666473757854,1695.2690116861777,left,1,3,1.0191181924164994,G13A01,2023-01-27_14h32.39.510,t1_Paradigm,2021.1.4,60.044881662699886,
V,right,Target,0,17,17,17,1696.766584819401,1698.7686206286016,right,1,3,1.2315911007026443,G13A01,2023-01-27_14h32.39.510,t1_Paradigm,2021.1.4,60.044881662699886,
N,left,Distractor,0,18,18,18,1700.2666377517162,1702.2688952350727,left,1,3,0.9633413191622822,G13A01,2023-01-27_14h32.39.510,t1_Paradigm,2021.1.4,60.044881662699886,
Z,right,Target,0,19,19,19,1703.7668023231236,1705.7684413003008,right,1,3,1.0156772706686752,G13A01,2023-01-27_14h32.39.510,t1_Paradigm,2021.1.4,60.044881662699886,
R,left,Distractor,0,20,20,20,1707.2666672655032,1709.268301109856,left,1,3,0.8759022554877447,G13A01,2023-01-27_14h32.39.510,t1_Paradigm,2021.1.4,60.044881662699886,
P,left,Distractor,0,21,21,21,1710.7666541126237,1712.768697300271,right,0,3,1.1194496450043516,G13A01,2023-01-27_14h32.39.510,t1_Paradigm,2021.1.4,60.044881662699886,
Z,right,Target,0,22,22,22,1714.266776658973,1716.2672620323283,right,1,3,1.0289571883477038,G13A01,2023-01-27_14h32.39.510,t1_Paradigm,2021.1.4,60.044881662699886,
D,left,Pretarget,0,23,23,23,1717.766655395826,1719.7686488591717,left,1,3,0.6317299437796464,G13A01,2023-01-27_14h32.39.510,t1_Paradigm,2021.1.4,60.044881662699886,
K,left,Distractor,0,24,24,24,1721.266572628927,1723.2685702626914,left,1,3,0.8439782906934852,G13A01,2023-01-27_14h32.39.510,t1_Paradigm,2021.1.4,60.044881662699886,
W,left,Distractor,0,25,25,25,1724.7666120875656,1726.769058523263,left,1,3,0.9112366658664541,G13A01,2023-01-27_14h32.39.510,t1_Paradigm,2021.1.4,60.044881662699886,
D,right,Target,0,26,26,26,1728.2666136915796,1730.2676822828798,right,1,3,0.5326563556591282,G13A01,2023-01-27_14h32.39.510,t1_Paradigm,2021.1.4,60.044881662699886,
G,left,Pretarget,0,27,27,27,1731.7666403181356,1733.7683181123575,left,1,3,1.0157327694032574,G13A01,2023-01-27_14h32.39.510,t1_Paradigm,2021.1.4,60.044881662699886,
V,left,Distractor,0,28,28,28,1735.2666945336678,1737.2674006187735,left,1,3,0.7808980401605368,G13A01,2023-01-27_14h32.39.510,t1_Paradigm,2021.1.4,60.044881662699886,
D,right,Target,0,29,29,29,1738.7665790449682,1740.7684377714904,left,0,3,0.5596723713824758,G13A01,2023-01-27_14h32.39.510,t1_Paradigm,2021.1.4,60.044881662699886,
G,right,Target,0,30,30,30,1742.266612729174,1744.2678850297234,left,0,3,0.8522366953839082,G13A01,2023-01-27_14h32.39.510,t1_Paradigm,2021.1.4,60.044881662699886,
B,left,Pretarget,0,31,31,31,1745.766556909628,1747.7828029621596,left,1,3,0.7454179857013514,G13A01,2023-01-27_14h32.39.510,t1_Paradigm,2021.1.4,60.044881662699886,
N,left,Distractor,0,32,32,32,1749.266584498604,1751.2690408791532,left,1,3,0.8751801303005777,G13A01,2023-01-27_14h32.39.510,t1_Paradigm,2021.1.4,60.044881662699886,
F,left,Distractor,0,33,33,33,1752.766645130163,1754.7678423630568,left,1,3,0.8804130517673912,G13A01,2023-01-27_14h32.39.510,t1_Paradigm,2021.1.4,60.044881662699886,
B,right,Target,0,34,34,34,1756.2667278970766,1758.267169962157,right,1,3,0.40487837114778813,G13A01,2023-01-27_14h32.39.510,t1_Paradigm,2021.1.4,60.044881662699886,
Q,left,Pretarget,0,35,35,35,1759.7664927492442,1761.7687252100295,left,1,3,0.5992959038703702,G13A01,2023-01-27_14h32.39.510,t1_Paradigm,2021.1.4,60.044881662699886,
S,left,Pretarget,0,36,36,36,1763.2666518670012,1765.2684143529477,left,1,3,0.5078301340836333,G13A01,2023-01-27_14h32.39.510,t1_Paradigm,2021.1.4,60.044881662699886,
W,left,Distractor,0,37,37,37,1766.7666422429465,1768.7686132501549,left,1,3,1.0076187255908735,G13A01,2023-01-27_14h32.39.510,t1_Paradigm,2021.1.4,60.044881662699886,
Q,right,Target,0,38,38,38,1770.2666034259164,1772.2687672350876,right,1,3,0.5152807594568003,G13A01,2023-01-27_14h32.39.510,t1_Paradigm,2021.1.4,60.044881662699886,
S,right,Target,0,39,39,39,1773.7667105737637,1775.7689889092435,right,1,3,0.7271880938933464,G13A01,2023-01-27_14h32.39.510,t1_Paradigm,2021.1.4,60.044881662699886,
T,left,Distractor,0,40,40,40,1777.2664186439943,1779.2677371400205,left,1,3,0.7003696921747178,G13A01,2023-01-27_14h32.39.510,t1_Paradigm,2021.1.4,60.044881662699886,
G,left,Distractor,0,41,41,41,1780.766542794343,1782.7691223628499,left,1,3,0.6391128799295984,G13A01,2023-01-27_14h32.39.510,t1_Paradigm,2021.1.4,60.044881662699886,
D,left,Distractor,0,42,42,42,1784.2665931602533,1786.2685208591865,left,1,3,0.9636932389112189,G13A01,2023-01-27_14h32.39.510,t1_Paradigm,2021.1.4,60.044881662699886,
S,left,Lure,0,43,43,43,1787.7667663933098,1789.7686148541688,right,0,3,0.7116895099024987,G13A01,2023-01-27_14h32.39.510,t1_Paradigm,2021.1.4,60.044881662699886,
Z,left,Pretarget,0,44,44,44,1791.2666117667686,1793.268579886746,left,1,3,0.6356527100724634,G13A01,2023-01-27_14h32.39.510,t1_Paradigm,2021.1.4,60.044881662699886,
J,left,Distractor,0,45,45,45,1794.7666265236476,1796.76849679905,left,1,3,0.7036569497868186,G13A01,2023-01-27_14h32.39.510,t1_Paradigm,2021.1.4,60.044881662699886,
M,left,Pretarget,0,46,46,46,1798.2667481075914,1800.2682802577183,left,1,3,0.7239361244719476,G13A01,2023-01-27_14h32.39.510,t1_Paradigm,2021.1.4,60.044881662699886,
Z,right,Target,0,47,47,47,1801.766643205352,1803.7685051398876,right,1,3,0.5515852749376791,G13A01,2023-01-27_14h32.39.510,t1_Paradigm,2021.1.4,60.044881662699886,
P,left,Distractor,0,48,48,48,1805.266350313177,1807.2687646686682,left,1,3,0.6353492314228788,G13A01,2023-01-27_14h32.39.510,t1_Paradigm,2021.1.4,60.044881662699886,
M,right,Target,0,49,49,49,1808.7665963682666,1810.7682350246469,right,1,3,0.5758635667734779,G13A01,2023-01-27_14h32.39.510,t1_Paradigm,2021.1.4,60.044881662699886,
K,left,Distractor,0,50,50,50,1812.2666938920593,1814.2687213604077,left,1,3,0.8193698936374858,G13A01,2023-01-27_14h32.39.510,t1_Paradigm,2021.1.4,60.044881662699886,
Y,left,Distractor,0,51,51,51,1815.7664648394712,1817.7680454306974,left,1,3,0.9840452356438618,G13A01,2023-01-27_14h32.39.510,t1_Paradigm,2021.1.4,60.044881662699886,
X,left,Distractor,0,52,52,52,1819.2665036565013,1821.2676893405296,left,1,3,1.0526410341699375,G13A01,2023-01-27_14h32.39.510,t1_Paradigm,2021.1.4,60.044881662699886,
F,left,Pretarget,0,53,53,53,1822.7666319772834,1824.7688288290665,left,1,3,0.6872748772293562,G13A01,2023-01-27_14h32.39.510,t1_Paradigm,2021.1.4,60.044881662699886,
M,left,Lure,0,54,54,54,1826.2666393557301,1828.2671503932506,left,1,3,0.6770435405196622,G13A01,2023-01-27_14h32.39.510,t1_Paradigm,2021.1.4,60.044881662699886,
V,left,Distractor,0,55,55,55,1829.7664924284327,1831.7685885483952,left,1,3,0.8713160707557108,G13A01,2023-01-27_14h32.39.510,t1_Paradigm,2021.1.4,60.044881662699886,
F,right,Target,0,56,56,56,1833.2665780825628,1835.2682340622414,right,1,3,0.5719719182816334,G13A01,2023-01-27_14h32.39.510,t1_Paradigm,2021.1.4,60.044881662699886,
S,left,Distractor,0,57,57,57,1836.766641280541,1838.768437129882,left,1,3,0.6077137471293099,G13A01,2023-01-27_14h32.39.510,t1_Paradigm,2021.1.4,60.044881662699886,
D,left,Distractor,0,58,58,58,1840.2666778519633,1842.2678850297234,left,1,3,0.7882055878581014,G13A01,2023-01-27_14h32.39.510,t1_Paradigm,2021.1.4,60.044881662699886,
F,right,Target,0,59,59,59,1843.7664937116497,1845.7682003780355,right,1,3,0.8238287199783372,G13A01,2023-01-27_14h32.39.510,t1_Paradigm,2021.1.4,60.044881662699886,
V,left,Pretarget,0,60,60,60,1847.2663695612864,1849.268389651188,left,1,3,0.8917046389251482,G13A01,2023-01-27_14h32.39.510,t1_Paradigm,2021.1.4,60.044881662699886,
J,left,Distractor,0,61,61,61,1850.7666037467134,1852.7687534405995,left,1,3,0.9114294678292936,G13A01,2023-01-27_14h32.39.510,t1_Paradigm,2021.1.4,60.044881662699886,
V,left,Lure,0,62,62,62,1854.2664725387149,1856.2683963880263,right,0,3,1.3958821219566744,G13A01,2023-01-27_14h32.39.510,t1_Paradigm,2021.1.4,60.044881662699886,
V,right,Target,0,63,63,63,1857.7665187341918,1859.7665097517456,left,0,3,1.193567086753319,G13A01,2023-01-27_14h32.39.510,t1_Paradigm,2021.1.4,60.044881662699886,
R,left,Distractor,0,0,0,0,1931.2422141365969,1933.2344824887114,None,0,4,,G13A01,2023-01-27_14h32.39.510,t1_Paradigm,2021.1.4,60.044881662699886,
F,left,Distractor,0,1,1,1,1934.7333606442844,1936.7349155713455,None,0,4,,G13A01,2023-01-27_14h32.39.510,t1_Paradigm,2021.1.4,60.044881662699886,
P,left,Pretarget,0,2,2,2,1938.233314127996,1940.2323440228938,None,0,4,,G13A01,2023-01-27_14h32.39.510,t1_Paradigm,2021.1.4,60.044881662699886,
H,left,Distractor,0,3,3,3,1941.7332156417979,1943.7347506791411,None,0,4,,G13A01,2023-01-27_14h32.39.510,t1_Paradigm,2021.1.4,60.044881662699886,
Z,left,Distractor,0,4,4,4,1945.233266649302,1947.2351584184216,left,1,4,0.9410484706168063,G13A01,2023-01-27_14h32.39.510,t1_Paradigm,2021.1.4,60.044881662699886,
T,left,Distractor,0,5,5,5,1948.7332454763819,1950.7355793105817,left,1,4,0.8484249265748076,G13A01,2023-01-27_14h32.39.510,t1_Paradigm,2021.1.4,60.044881662699886,
P,right,Target,0,6,6,6,1952.233168163104,1954.2355546088365,right,1,4,0.6447044579836074,G13A01,2023-01-27_14h32.39.510,t1_Paradigm,2021.1.4,60.044881662699886,
G,left,Distractor,0,7,7,7,1955.7323135467013,1957.745938326465,left,1,4,0.6381164690683363,G13A01,2023-01-27_14h32.39.510,t1_Paradigm,2021.1.4,60.044881662699886,
L,left,Distractor,0,8,8,8,1959.2332287946774,1961.2350121327327,left,1,4,0.5891867927130079,G13A01,2023-01-27_14h32.39.510,t1_Paradigm,2021.1.4,60.044881662699886,
P,left,Lure,0,9,9,9,1962.733121967627,1964.735018548774,right,0,4,1.0250594446115429,G13A01,2023-01-27_14h32.39.510,t1_Paradigm,2021.1.4,60.044881662699886,
Q,left,Pretarget,0,10,10,10,1966.2332534964225,1968.2349107593182,left,1,4,0.9491570607788162,G13A01,2023-01-27_14h32.39.510,t1_Paradigm,2021.1.4,60.044881662699886,
D,left,Distractor,0,11,11,11,1969.7332650453027,1971.7356056163553,left,1,4,0.6484280062577454,G13A01,2023-01-27_14h32.39.510,t1_Paradigm,2021.1.4,60.044881662699886,
M,left,Pretarget,0,12,12,12,1973.2332066593372,1975.2335752607905,left,1,4,0.9105944203620311,G13A01,2023-01-27_14h32.39.510,t1_Paradigm,2021.1.4,60.044881662699886,
C,left,Distractor,0,13,13,13,1976.7333506994182,1978.7350477417494,left,1,4,0.9131711016525514,G13A01,2023-01-27_14h32.39.510,t1_Paradigm,2021.1.4,60.044881662699886,
Q,right,Target,0,14,14,14,1980.2331845240114,1982.2357525436382,right,1,4,1.0923255190136842,G13A01,2023-01-27_14h32.39.510,t1_Paradigm,2021.1.4,60.044881662699886,
R,left,Distractor,0,15,15,15,1983.7332076217426,1985.7351731753151,left,1,4,1.064976190085872,G13A01,2023-01-27_14h32.39.510,t1_Paradigm,2021.1.4,60.044881662699886,
M,right,Target,0,16,16,16,1987.233312203185,1989.2335556918697,right,1,4,0.7987044733890798,G13A01,2023-01-27_14h32.39.510,t1_Paradigm,2021.1.4,60.044881662699886,
S,left,Distractor,0,17,17,17,1990.733152443805,1992.735379130172,right,0,4,1.1206908277526964,G13A01,2023-01-27_14h32.39.510,t1_Paradigm,2021.1.4,60.044881662699886,
Z,left,Distractor,0,18,18,18,1994.2331107395585,1996.2353922830516,left,1,4,0.9809222286276054,G13A01,2023-01-27_14h32.39.510,t1_Paradigm,2021.1.4,60.044881662699886,
L,left,Pretarget,0,19,19,19,1997.733180674375,1999.735120243,left,1,4,0.9052014187182067,G13A01,2023-01-27_14h32.39.510,t1_Paradigm,2021.1.4,60.044881662699886,
M,right,Target,0,20,20,20,2001.2331020779093,2003.235251130187,right,1,4,0.7976628294418333,G13A01,2023-01-27_14h32.39.510,t1_Paradigm,2021.1.4,60.044881662699886,
P,left,Distractor,0,21,21,21,2004.733140253331,2006.7353849046049,right,0,4,1.0567716801160714,G13A01,2023-01-27_14h32.39.510,t1_Paradigm,2021.1.4,60.044881662699886,
F,left,Distractor,0,22,22,22,2008.2332320026908,2010.2348559021775,right,0,4,1.3011826684814878,G13A01,2023-01-27_14h32.39.510,t1_Paradigm,2021.1.4,60.044881662699886,
L,right,Target,0,23,23,23,2011.7331264588574,2013.735205255507,left,0,4,0.7130400861205999,G13A01,2023-01-27_14h32.39.510,t1_Paradigm,2021.1.4,60.044881662699886,
L,left,Lure,0,24,24,24,2015.233225907461,2017.2331595014548,left,1,4,0.9110663200408453,G13A01,2023-01-27_14h32.39.510,t1_Paradigm,2021.1.4,60.044881662699886,
V,left,Pretarget,0,25,25,25,2018.7331825992005,2020.7339400126075,left,1,4,0.9302204422710929,G13A01,2023-01-27_14h32.39.510,t1_Paradigm,2021.1.4,60.044881662699886,
Z,left,Distractor,0,26,26,26,2022.233240343543,2024.234826709202,left,1,4,0.965490050642984,G13A01,2023-01-27_14h32.39.510,t1_Paradigm,2021.1.4,60.044881662699886,
H,left,Distractor,0,27,27,27,2025.7332348899072,2027.7356768343889,left,1,4,1.0806107940879883,G13A01,2023-01-27_14h32.39.510,t1_Paradigm,2021.1.4,60.044881662699886,
X,left,Distractor,0,28,28,28,2029.2331614262657,2031.2355064885487,left,1,4,0.6525730883004144,G13A01,2023-01-27_14h32.39.510,t1_Paradigm,2021.1.4,60.044881662699886,
V,right,Target,0,29,29,29,2032.7331309500732,2034.7351090149314,left,0,4,1.0570536650338909,G13A01,2023-01-27_14h32.39.510,t1_Paradigm,2021.1.4,60.044881662699886,
C,left,Distractor,0,30,30,30,2036.232950017773,2038.2348417868925,left,1,4,0.6932446807768429,G13A01,2023-01-27_14h32.39.510,t1_Paradigm,2021.1.4,60.044881662699886,
S,left,Pretarget,0,31,31,31,2039.7331825992005,2041.7353242730314,left,1,4,0.7448748679889832,G13A01,2023-01-27_14h32.39.510,t1_Paradigm,2021.1.4,60.044881662699886,
D,left,Distractor,0,32,32,32,2043.2333272808755,2045.2354618970712,left,1,4,0.7325538273726124,G13A01,2023-01-27_14h32.39.510,t1_Paradigm,2021.1.4,60.044881662699886,
V,left,Distractor,0,33,33,33,2046.7332028097153,2048.7355828394066,left,1,4,1.1845050731644733,G13A01,2023-01-27_14h32.39.510,t1_Paradigm,2021.1.4,60.044881662699886,
R,left,Distractor,0,34,34,34,2050.2329766443436,2052.235100674079,left,1,4,0.9169697175821057,G13A01,2023-01-27_14h32.39.510,t1_Paradigm,2021.1.4,60.044881662699886,
S,right,Target,0,35,35,35,2053.7332310402853,2055.734432122801,right,1,4,0.5535800214856863,G13A01,2023-01-27_14h32.39.510,t1_Paradigm,2021.1.4,60.044881662699886,
Y,left,Distractor,0,36,36,36,2057.2331245340465,2059.2354558018415,left,1,4,0.5566719107155222,G13A01,2023-01-27_14h32.39.510,t1_Paradigm,2021.1.4,60.044881662699886,
N,left,Pretarget,0,37,37,37,2060.733227832272,2062.7323465892987,left,1,4,0.579898613752448,G13A01,2023-01-27_14h32.39.510,t1_Paradigm,2021.1.4,60.044881662699886,
Z,left,Pretarget,0,38,38,38,2064.2329282032442,2066.2346791403106,left,1,4,0.7095898611150915,G13A01,2023-01-27_14h32.39.510,t1_Paradigm,2021.1.4,60.044881662699886,
P,left,Pretarget,0,39,39,39,2067.733111701964,2069.7352880224207,left,1,4,1.016632298080367,G13A01,2023-01-27_14h32.39.510,t1_Paradigm,2021.1.4,60.044881662699886,
M,left,Distractor,0,40,40,40,2071.2331758623477,2073.235145265542,left,1,4,0.8612191500869812,G13A01,2023-01-27_14h32.39.510,t1_Paradigm,2021.1.4,60.044881662699886,
N,right,Target,0,41,41,41,2074.7331572558323,2076.7348190099583,right,1,4,1.0895698302483652,G13A01,2023-01-27_14h32.39.510,t1_Paradigm,2021.1.4,60.044881662699886,
Z,right,Target,0,42,42,42,2078.2330789801636,2080.234920383373,right,1,4,0.9490986748423893,G13A01,2023-01-27_14h32.39.510,t1_Paradigm,2021.1.4,60.044881662699886,
P,right,Target,0,43,43,43,2081.7331797119696,2083.7351539271913,left,0,4,0.6649833118863171,G13A01,2023-01-27_14h32.39.510,t1_Paradigm,2021.1.4,60.044881662699886,
X,left,Pretarget,0,44,44,44,2085.2331389701285,2087.2458401610784,left,1,4,0.5623237995168893,G13A01,2023-01-27_14h32.39.510,t1_Paradigm,2021.1.4,60.044881662699886,
Z,left,Lure,0,45,45,45,2088.733318298415,2090.7345617267856,right,0,4,1.0575996699626558,G13A01,2023-01-27_14h32.39.510,t1_Paradigm,2021.1.4,60.044881662699886,
R,left,Pretarget,0,46,46,46,2092.2331213260186,2094.235071160292,right,0,4,0.9169908905168995,G13A01,2023-01-27_14h32.39.510,t1_Paradigm,2021.1.4,60.044881662699886,
K,left,Distractor,0,47,47,47,2095.7331954312685,2097.735683892024,left,1,4,0.6643096277839504,G13A01,2023-01-27_14h32.39.510,t1_Paradigm,2021.1.4,60.044881662699886,
X,right,Target,0,48,48,48,2099.233086037799,2101.2459270983964,right,1,4,0.8983224624244031,G13A01,2023-01-27_14h32.39.510,t1_Paradigm,2021.1.4,60.044881662699886,
B,left,Distractor,0,49,49,49,2102.7332095465536,2104.73456076438,left,1,4,0.673620262867189,G13A01,2023-01-27_14h32.39.510,t1_Paradigm,2021.1.4,60.044881662699886,
R,right,Target,0,50,50,50,2106.233097586679,2108.235134679082,left,0,4,0.7890255576494383,G13A01,2023-01-27_14h32.39.510,t1_Paradigm,2021.1.4,60.044881662699886,
Y,left,Pretarget,0,51,51,51,2109.733154368616,2111.7354121727694,left,1,4,0.6649104898388032,G13A01,2023-01-27_14h32.39.510,t1_Paradigm,2021.1.4,60.044881662699886,
W,left,Pretarget,0,52,52,52,2113.2331251756405,2115.234111320853,left,1,4,0.6700166945229284,G13A01,2023-01-27_14h32.39.510,t1_Paradigm,2021.1.4,60.044881662699886,
Z,left,Distractor,0,53,53,53,2116.7331986392965,2118.7460040908772,right,0,4,0.9341387173335534,G13A01,2023-01-27_14h32.39.510,t1_Paradigm,2021.1.4,60.044881662699886,
Q,left,Distractor,0,54,54,54,2120.233200243296,2122.2353454459662,left,1,4,0.6288257237029029,G13A01,2023-01-27_14h32.39.510,t1_Paradigm,2021.1.4,60.044881662699886,
Y,right,Target,0,55,55,55,2123.7332952006836,2125.7353592404543,left,0,4,1.0486361425719224,G13A01,2023-01-27_14h32.39.510,t1_Paradigm,2021.1.4,60.044881662699886,
W,right,Target,0,56,56,56,2127.2328521731833,2129.2347442631,left,0,4,0.6693051557958825,G13A01,2023-01-27_14h32.39.510,t1_Paradigm,2021.1.4,60.044881662699886,
H,left,Pretarget,0,57,57,57,2130.732983701979,2132.733875210615,left,1,4,0.9143862994387746,G13A01,2023-01-27_14h32.39.510,t1_Paradigm,2021.1.4,60.044881662699886,
M,left,Distractor,0,58,58,58,2134.233148273386,2136.2352623582556,left,1,4,0.9167737075913465,G13A01,2023-01-27_14h32.39.510,t1_Paradigm,2021.1.4,60.044881662699886,
R,left,Pretarget,0,59,59,59,2137.733142178142,2139.735030739248,left,1,4,0.8411298901482951,G13A01,2023-01-27_14h32.39.510,t1_Paradigm,2021.1.4,60.044881662699886,
J,left,Distractor,0,60,60,60,2141.233328243281,2143.234910438521,left,1,4,0.9572354955744231,G13A01,2023-01-27_14h32.39.510,t1_Paradigm,2021.1.4,60.044881662699886,
H,right,Target,0,61,61,61,2144.7331306292763,2146.735487240425,right,1,4,0.8643350994680077,G13A01,2023-01-27_14h32.39.510,t1_Paradigm,2021.1.4,60.044881662699886,
Z,left,Distractor,0,62,62,62,2148.2332769149652,2150.2348571853945,left,1,4,0.8531480937381275,G13A01,2023-01-27_14h32.39.510,t1_Paradigm,2021.1.4,60.044881662699886,
R,right,Target,0,63,63,63,2151.7331405741425,2153.735450989814,right,1,4,0.824643236148404,G13A01,2023-01-27_14h32.39.510,t1_Paradigm,2021.1.4,60.044881662699886,
J,left,Pretarget,0,0,0,0,2159.730678739943,2161.7353746389417,None,0,4,,G13A01,2023-01-27_14h32.39.510,t1_Paradigm,2021.1.4,60.044881662699886,
G,left,Pretarget,0,1,1,1,2163.2330805841775,2165.234993847029,None,0,4,,G13A01,2023-01-27_14h32.39.510,t1_Paradigm,2021.1.4,60.044881662699886,
Z,left,Distractor,0,2,2,2,2166.733202168107,2168.734972674094,None,0,4,,G13A01,2023-01-27_14h32.39.510,t1_Paradigm,2021.1.4,60.044881662699886,
F,left,Distractor,0,3,3,3,2170.2331675214955,2172.2349951302313,None,0,4,,G13A01,2023-01-27_14h32.39.510,t1_Paradigm,2021.1.4,60.044881662699886,
J,right,Target,0,4,4,4,2173.733236173124,2175.735048704155,right,1,4,0.8567978575592861,G13A01,2023-01-27_14h32.39.510,t1_Paradigm,2021.1.4,60.044881662699886,
G,right,Target,0,5,5,5,2177.2332499675977,2179.2355016765214,right,1,4,0.6205548077268759,G13A01,2023-01-27_14h32.39.510,t1_Paradigm,2021.1.4,60.044881662699886,
H,left,Distractor,0,6,6,6,2180.7331229300326,2182.7346913307847,left,1,4,0.6093504786986159,G13A01,2023-01-27_14h32.39.510,t1_Paradigm,2021.1.4,60.044881662699886,
P,left,Distractor,0,7,7,7,2184.233249005192,2186.2341969749687,left,1,4,0.6300011420535157,G13A01,2023-01-27_14h32.39.510,t1_Paradigm,2021.1.4,60.044881662699886,
G,left,Lure,0,8,8,8,2187.7333009751164,2189.734046839658,left,1,4,0.778064396494301,G13A01,2023-01-27_14h32.39.510,t1_Paradigm,2021.1.4,60.044881662699886,
S,left,Distractor,0,9,9,9,2191.233288143034,2193.235120884594,left,1,4,0.8775117189070443,G13A01,2023-01-27_14h32.39.510,t1_Paradigm,2021.1.4,60.044881662699886,
R,left,Pretarget,0,10,10,10,2194.7331335164927,2196.7353541076154,left,1,4,0.5448330354120117,G13A01,2023-01-27_14h32.39.510,t1_Paradigm,2021.1.4,60.044881662699886,
T,left,Pretarget,0,11,11,11,2198.2331688047125,2200.234964654039,left,1,4,0.8850858530204277,G13A01,2023-01-27_14h32.39.510,t1_Paradigm,2021.1.4,60.044881662699886,
X,left,Distractor,0,12,12,12,2201.733139611737,2203.7355036013323,left,1,4,0.9363163209927734,G13A01,2023-01-27_14h32.39.510,t1_Paradigm,2021.1.4,60.044881662699886,
F,left,Pretarget,0,13,13,13,2205.2331604638603,2207.2347975162265,left,1,4,0.6852894339390332,G13A01,2023-01-27_14h32.39.510,t1_Paradigm,2021.1.4,60.044881662699886,
R,right,Target,0,14,14,14,2208.733084112988,2210.734698067623,left,0,4,1.1373548852279782,G13A01,2023-01-27_14h32.39.510,t1_Paradigm,2021.1.4,60.044881662699886,
T,right,Target,0,15,15,15,2212.2330930954486,2214.2343246541423,left,0,4,0.5656922200287227,G13A01,2023-01-27_14h32.39.510,t1_Paradigm,2021.1.4,60.044881662699886,
C,left,Distractor,0,16,16,16,2215.733076092947,2217.734710258097,left,1,4,0.8571805742831202,G13A01,2023-01-27_14h32.39.510,t1_Paradigm,2021.1.4,60.044881662699886,
F,right,Target,0,17,17,17,2219.2330141781713,2221.2355664785136,right,1,4,0.7967347493977286,G13A01,2023-01-27_14h32.39.510,t1_Paradigm,2021.1.4,60.044881662699886,
M,left,Distractor,0,18,18,18,2222.7331607846572,2224.7350137367466,left,1,4,0.5612972332746722,G13A01,2023-01-27_14h32.39.510,t1_Paradigm,2021.1.4,60.044881662699886,
N,left,Distractor,0,19,19,19,2226.233087000219,2228.2354602930573,left,1,4,0.5325411877711304,G13A01,2023-01-27_14h32.39.510,t1_Paradigm,2021.1.4,60.044881662699886,
R,left,Lure,0,20,20,20,2229.7330722433253,2231.7349739572965,left,1,4,0.6814568129921099,G13A01,2023-01-27_14h32.39.510,t1_Paradigm,2021.1.4,60.044881662699886,
F,right,Target,0,21,21,21,2233.2330542784184,2235.2347433006944,left,0,4,0.8776236787816742,G13A01,2023-01-27_14h32.39.510,t1_Paradigm,2021.1.4,60.044881662699886,
P,left,Distractor,0,22,22,22,2236.733083471394,2238.734976202919,left,1,4,1.0091268155811122,G13A01,2023-01-27_14h32.39.510,t1_Paradigm,2021.1.4,60.044881662699886,
L,left,Pretarget,0,23,23,23,2240.233238097935,2242.235011170327,left,1,4,0.66138230994693,G13A01,2023-01-27_14h32.39.510,t1_Paradigm,2021.1.4,60.044881662699886,
T,left,Distractor,0,24,24,24,2243.733157897441,2245.7343990802037,right,0,4,0.9696437943348428,G13A01,2023-01-27_14h32.39.510,t1_Paradigm,2021.1.4,60.044881662699886,
F,left,Distractor,0,25,25,25,2247.233092133043,2249.234743621506,left,1,4,0.9733930067741312,G13A01,2023-01-27_14h32.39.510,t1_Paradigm,2021.1.4,60.044881662699886,
V,left,Distractor,0,26,26,26,2250.733129987668,2252.7352097467374,left,1,4,0.7688868942059344,G13A01,2023-01-27_14h32.39.510,t1_Paradigm,2021.1.4,60.044881662699886,
L,right,Target,0,27,27,27,2254.2330491455796,2256.2353836214024,right,1,4,0.48460792227706406,G13A01,2023-01-27_14h32.39.510,t1_Paradigm,2021.1.4,60.044881662699886,
S,left,Pretarget,0,28,28,28,2257.733224624244,2259.734992243015,left,1,4,0.5371004251355771,G13A01,2023-01-27_14h32.39.510,t1_Paradigm,2021.1.4,60.044881662699886,
W,left,Distractor,0,29,29,29,2261.233167842307,2263.2352238620224,left,1,4,0.5729032063536579,G13A01,2023-01-27_14h32.39.510,t1_Paradigm,2021.1.4,60.044881662699886,
Q,left,Distractor,0,30,30,30,2264.733076413744,2266.735405756728,left,1,4,0.6727358118951088,G13A01,2023-01-27_14h32.39.510,t1_Paradigm,2021.1.4,60.044881662699886,
L,right,Target,0,31,31,31,2268.233093737057,2270.234898889641,right,1,4,0.6292892825149465,G13A01,2023-01-27_14h32.39.510,t1_Paradigm,2021.1.4,60.044881662699886,
S,right,Target,0,32,32,32,2271.733244193165,2273.735240543727,right,1,4,0.4728996133781038,G13A01,2023-01-27_14h32.39.510,t1_Paradigm,2021.1.4,60.044881662699886,
Z,left,Pretarget,0,33,33,33,2275.2331017570978,2277.235298288084,left,1,4,0.5887200258730445,G13A01,2023-01-27_14h32.39.510,t1_Paradigm,2021.1.4,60.044881662699886,
F,left,Distractor,0,34,34,34,2278.7331190804107,2280.7344966039964,left,1,4,0.6416375913249794,G13A01,2023-01-27_14h32.39.510,t1_Paradigm,2021.1.4,60.044881662699886,
V,left,Distractor,0,35,35,35,2282.2332477219898,2284.2351115813362,left,1,4,0.5487237215129426,G13A01,2023-01-27_14h32.39.510,t1_Paradigm,2021.1.4,60.044881662699886,
M,left,Distractor,0,36,36,36,2285.7330263686454,2287.734298027586,left,1,4,0.6336005399789428,G13A01,2023-01-27_14h32.39.510,t1_Paradigm,2021.1.4,60.044881662699886,
Z,right,Target,0,37,37,37,2289.2331450653583,2291.2350836715777,right,1,4,0.6528977398847928,G13A01,2023-01-27_14h32.39.510,t1_Paradigm,2021.1.4,60.044881662699886,
H,left,Pretarget,0,38,38,38,2292.7331158723828,2294.7343994010007,left,1,4,0.6576776889996836,G13A01,2023-01-27_14h32.39.510,t1_Paradigm,2021.1.4,60.044881662699886,
L,left,Distractor,0,39,39,39,2296.233134478898,2298.2492278296995,left,1,4,0.5509702975832624,G13A01,2023-01-27_14h32.39.510,t1_Paradigm,2021.1.4,60.044881662699886,
G,left,Distractor,0,40,40,40,2299.73312774206,2301.7346095262765,left,1,4,0.7295700483955443,G13A01,2023-01-27_14h32.39.510,t1_Paradigm,2021.1.4,60.044881662699886,
K,left,Distractor,0,41,41,41,2303.233135762115,2305.234823180377,left,1,4,0.509067788021639,G13A01,2023-01-27_14h32.39.510,t1_Paradigm,2021.1.4,60.044881662699886,
H,right,Target,0,42,42,42,2306.733057165635,2308.735000904664,right,1,4,0.44901173749531154,G13A01,2023-01-27_14h32.39.510,t1_Paradigm,2021.1.4,60.044881662699886,
B,left,Distractor,0,43,43,43,2310.233083471394,2312.2351074109174,left,1,4,0.4688767568732146,G13A01,2023-01-27_14h32.39.510,t1_Paradigm,2021.1.4,60.044881662699886,
Z,left,Distractor,0,44,44,44,2313.732977606749,2315.734409987461,left,1,4,0.7457824167067884,G13A01,2023-01-27_14h32.39.510,t1_Paradigm,2021.1.4,60.044881662699886,
T,left,Pretarget,0,45,45,45,2317.232839020304,2319.2348174059443,left,1,4,0.6532018601283198,G13A01,2023-01-27_14h32.39.510,t1_Paradigm,2021.1.4,60.044881662699886,
H,right,Target,0,46,46,46,2320.733248684395,2322.7350397217087,right,1,4,0.40097260737093166,G13A01,2023-01-27_14h32.39.510,t1_Paradigm,2021.1.4,60.044881662699886,
F,left,Distractor,0,47,47,47,2324.233108493936,2326.245827328996,left,1,4,0.6344291714194696,G13A01,2023-01-27_14h32.39.510,t1_Paradigm,2021.1.4,60.044881662699886,
R,left,Distractor,0,48,48,48,2327.7332050553377,2329.7351061277004,left,1,4,0.6008671918389155,G13A01,2023-01-27_14h32.39.510,t1_Paradigm,2021.1.4,60.044881662699886,
T,right,Target,0,49,49,49,2331.2329545090033,2333.2349505387538,left,0,4,0.621103058278095,G13A01,2023-01-27_14h32.39.510,t1_Paradigm,2021.1.4,60.044881662699886,
H,right,Target,0,50,50,50,2334.7330732057308,2336.7348360124597,right,1,4,0.8972670240036678,G13A01,2023-01-27_14h32.39.510,t1_Paradigm,2021.1.4,60.044881662699886,
Y,left,Pretarget,0,51,51,51,2338.233076413744,2340.2355064885487,left,1,4,0.5004632380150724,G13A01,2023-01-27_14h32.39.510,t1_Paradigm,2021.1.4,60.044881662699886,
H,left,Distractor,0,52,52,52,2341.733069676906,2343.7351212054054,left,1,4,0.6810416952794185,G13A01,2023-01-27_14h32.39.510,t1_Paradigm,2021.1.4,60.044881662699886,
S,left,Distractor,0,53,53,53,2345.2331723335374,2347.235133075068,left,1,4,0.49293594098708127,G13A01,2023-01-27_14h32.39.510,t1_Paradigm,2021.1.4,60.044881662699886,
Q,left,Distractor,0,54,54,54,2348.7329291656497,2350.7351459071506,left,1,4,0.6729902078513987,G13A01,2023-01-27_14h32.39.510,t1_Paradigm,2021.1.4,60.044881662699886,
Y,right,Target,0,55,55,55,2352.2331001530983,2354.235186969803,left,0,4,0.5811680270853685,G13A01,2023-01-27_14h32.39.510,t1_Paradigm,2021.1.4,60.044881662699886,
R,left,Distractor,0,56,56,56,2355.7331287044653,2357.7335030803515,right,0,4,0.6343342140462482,G13A01,2023-01-27_14h32.39.510,t1_Paradigm,2021.1.4,60.044881662699886,
H,left,Pretarget,0,57,57,57,2359.233004233305,2361.234944122727,left,1,4,0.7010802685108501,G13A01,2023-01-27_14h32.39.510,t1_Paradigm,2021.1.4,60.044881662699886,
J,left,Distractor,0,58,58,58,2362.733150198197,2364.7346252455754,left,1,4,0.5777097820246127,G13A01,2023-01-27_14h32.39.510,t1_Paradigm,2021.1.4,60.044881662699886,
V,left,Distractor,0,59,59,59,2366.2329464889626,2368.234984864568,left,1,4,0.5813778315641684,G13A01,2023-01-27_14h32.39.510,t1_Paradigm,2021.1.4,60.044881662699886,
Y,left,Lure,0,60,60,60,2369.732879120551,2371.734865205435,right,0,4,0.6651190111006144,G13A01,2023-01-27_14h32.39.510,t1_Paradigm,2021.1.4,60.044881662699886,
H,right,Target,0,61,61,61,2373.233079621772,2375.2346704786614,left,0,4,0.8774972828105092,G13A01,2023-01-27_14h32.39.510,t1_Paradigm,2021.1.4,60.044881662699886,
L,left,Distractor,0,62,62,62,2376.7332194914197,2378.7349011352635,left,1,4,0.7051958367519546,G13A01,2023-01-27_14h32.39.510,t1_Paradigm,2021.1.4,60.044881662699886,
P,left,Distractor,0,63,63,63,2380.233013215766,2382.2350477417494,left,1,4,0.8849944244720973,G13A01,2023-01-27_14h32.39.510,t1_Paradigm,2021.1.4,60.044881662699886,
