Letter,CorrAnswer,Stimulus,finaln_nback_run.thisRepN,finaln_nback_run.thisTrialN,finaln_nback_run.thisN,finaln_nback_run.thisIndex,finaln_fixcross.started,finaln_nback_trial.started,finaln_trial_resp.keys,finaln_trial_resp.corr,finaln_level,finaln_money,finaln_trial_resp.rt,Participant,date,expName,psychopyVersion,frameRate,
D,left,Distractor,0,0,0,0,2884.344397037057,2886.3477757210785,None,0,2,1.47,,G26N02,2022-09-02_14h41.38.487,t1_Paradigm,2021.1.4,59.96706534128246,
M,left,Pretarget,0,1,1,1,2887.846245175926,2889.848249866045,left,1,2,1.47,0.9136151469720062,G26N02,2022-09-02_14h41.38.487,t1_Paradigm,2021.1.4,59.96706534128246,
T,left,Distractor,0,2,2,2,2891.3461152512173,2893.348126357392,left,1,2,1.47,0.4693759443471208,G26N02,2022-09-02_14h41.38.487,t1_Paradigm,2021.1.4,59.96706534128246,
G,left,Pretarget,0,3,3,3,2894.8461790907604,2896.847832502972,left,1,2,1.47,0.7458740083093289,G26N02,2022-09-02_14h41.38.487,t1_Paradigm,2021.1.4,59.96706534128246,
M,right,Target,0,4,4,4,2898.3461306497047,2900.3478074804298,right,1,2,1.47,0.47806133088306524,G26N02,2022-09-02_14h41.38.487,t1_Paradigm,2021.1.4,59.96706534128246,
P,left,Distractor,0,5,5,5,2901.846107872785,2903.848429835838,left,1,2,1.47,0.5772519480669871,G26N02,2022-09-02_14h41.38.487,t1_Paradigm,2021.1.4,59.96706534128246,
G,right,Target,0,6,6,6,2905.3460437124304,2907.3486560010642,right,1,2,1.47,0.5809379601560067,G26N02,2022-09-02_14h41.38.487,t1_Paradigm,2021.1.4,59.96706534128246,
J,left,Distractor,0,7,7,7,2908.846133536921,2910.8481606831774,left,1,2,1.47,0.6014429662609473,G26N02,2022-09-02_14h41.38.487,t1_Paradigm,2021.1.4,59.96706534128246,
M,left,Lure,0,8,8,8,2912.3461017775408,2914.3480484025495,left,1,2,1.47,0.925303558644373,G26N02,2022-09-02_14h41.38.487,t1_Paradigm,2021.1.4,59.96706534128246,
F,left,Pretarget,0,9,9,9,2915.846097286325,2917.84800284871,None,0,2,1.47,,G26N02,2022-09-02_14h41.38.487,t1_Paradigm,2021.1.4,59.96706534128246,
R,left,Distractor,0,10,10,10,2919.346241326304,2921.34748571628,left,1,2,1.47,0.7741376046906225,G26N02,2022-09-02_14h41.38.487,t1_Paradigm,2021.1.4,59.96706534128246,
G,left,Distractor,0,11,11,11,2922.84623009825,2924.847989054222,left,1,2,1.47,0.809471992397448,G26N02,2022-09-02_14h41.38.487,t1_Paradigm,2021.1.4,59.96706534128246,
F,right,Target,0,12,12,12,2926.346069055784,2928.347936442733,right,1,2,1.47,0.5416776006459258,G26N02,2022-09-02_14h41.38.487,t1_Paradigm,2021.1.4,59.96706534128246,
F,left,Lure,0,13,13,13,2929.845311001234,2931.8461855068163,left,1,2,1.47,0.7233761817624327,G26N02,2022-09-02_14h41.38.487,t1_Paradigm,2021.1.4,59.96706534128246,
S,left,Distractor,0,14,14,14,2933.3461037023517,2935.3476422675303,left,1,2,1.47,0.8219380275404546,G26N02,2022-09-02_14h41.38.487,t1_Paradigm,2021.1.4,59.96706534128246,
F,right,Target,0,15,15,15,2936.8461037023517,2938.8482383171795,right,1,2,1.47,0.873379229393322,G26N02,2022-09-02_14h41.38.487,t1_Paradigm,2021.1.4,59.96706534128246,
T,left,Pretarget,0,16,16,16,2940.345953567128,2942.347555330256,left,1,2,1.47,0.9739688629924785,G26N02,2022-09-02_14h41.38.487,t1_Paradigm,2021.1.4,59.96706534128246,
Z,left,Distractor,0,17,17,17,2943.8460918327037,2945.8482055954228,left,1,2,1.47,0.6733763421652839,G26N02,2022-09-02_14h41.38.487,t1_Paradigm,2021.1.4,59.96706534128246,
W,left,Distractor,0,18,18,18,2947.346086699865,2949.3482463372347,left,1,2,1.47,0.53323570266366,G26N02,2022-09-02_14h41.38.487,t1_Paradigm,2021.1.4,59.96706534128246,
T,right,Target,0,19,19,19,2950.846086058271,2952.84802562563,right,1,2,1.47,0.6654490101791453,G26N02,2022-09-02_14h41.38.487,t1_Paradigm,2021.1.4,59.96706534128246,
V,left,Distractor,0,20,20,20,2954.34606648935,2956.3478328237834,left,1,2,1.47,0.47800807777093723,G26N02,2022-09-02_14h41.38.487,t1_Paradigm,2021.1.4,59.96706534128246,
N,left,Distractor,0,21,21,21,2957.846050128457,2959.84832814167,left,1,2,1.47,0.6892117580282502,G26N02,2022-09-02_14h41.38.487,t1_Paradigm,2021.1.4,59.96706534128246,
P,left,Pretarget,0,22,22,22,2961.3460619981342,2963.3481687032036,left,1,2,1.47,0.6294787934166379,G26N02,2022-09-02_14h41.38.487,t1_Paradigm,2021.1.4,59.96706534128246,
T,left,Lure,0,23,23,23,2964.8460619981342,2966.848058026604,right,0,2,1.47,1.0813906114199199,G26N02,2022-09-02_14h41.38.487,t1_Paradigm,2021.1.4,59.96706534128246,
L,left,Pretarget,0,24,24,24,2968.3461816571944,2970.3479832797893,left,1,2,1.47,1.11748048721347,G26N02,2022-09-02_14h41.38.487,t1_Paradigm,2021.1.4,59.96706534128246,
P,right,Target,0,25,25,25,2971.8461434817873,2973.847452032118,left,0,2,1.47,0.9143885999801569,G26N02,2022-09-02_14h41.38.487,t1_Paradigm,2021.1.4,59.96706534128246,
G,left,Pretarget,0,26,26,26,2975.346146048192,2977.3463795918506,None,0,2,1.47,,G26N02,2022-09-02_14h41.38.487,t1_Paradigm,2021.1.4,59.96706534128246,
L,right,Target,0,27,27,27,2978.8460773966217,2980.8481593999604,right,1,2,1.47,0.601483066478977,G26N02,2022-09-02_14h41.38.487,t1_Paradigm,2021.1.4,59.96706534128246,
F,left,Distractor,0,28,28,28,2982.346045958053,2984.347968522925,left,1,2,1.47,0.5895851712557487,G26N02,2022-09-02_14h41.38.487,t1_Paradigm,2021.1.4,59.96706534128246,
G,right,Target,0,29,29,29,2985.846070980595,2987.847994828655,right,1,2,1.47,0.41729987584403716,G26N02,2022-09-02_14h41.38.487,t1_Paradigm,2021.1.4,59.96706534128246,
R,left,Pretarget,0,30,30,30,2989.3462066797074,2991.3480753499025,left,1,2,1.47,0.4693794731865637,G26N02,2022-09-02_14h41.38.487,t1_Paradigm,2021.1.4,59.96706534128246,
X,left,Distractor,0,31,31,31,2992.8460340883757,2994.847957294871,left,1,2,1.47,0.5215180980158038,G26N02,2022-09-02_14h41.38.487,t1_Paradigm,2021.1.4,59.96706534128246,
W,left,Distractor,0,32,32,32,2996.3460222187277,2998.3477035406686,left,1,2,1.47,0.49366159905912355,G26N02,2022-09-02_14h41.38.487,t1_Paradigm,2021.1.4,59.96706534128246,
R,right,Target,0,33,33,33,2999.846147973003,3001.8481975753675,right,1,2,1.47,0.4811310828081332,G26N02,2022-09-02_14h41.38.487,t1_Paradigm,2021.1.4,59.96706534128246,
S,left,Distractor,0,34,34,34,3003.3461296872993,3005.3479800717905,left,1,2,1.47,0.5494275293021929,G26N02,2022-09-02_14h41.38.487,t1_Paradigm,2021.1.4,59.96706534128246,
D,left,Distractor,0,35,35,35,3006.8460542988905,3008.8479736557347,left,1,2,1.47,0.5055152236600406,G26N02,2022-09-02_14h41.38.487,t1_Paradigm,2021.1.4,59.96706534128246,
R,right,Target,0,36,36,36,3010.3461665794894,3012.3481648535817,right,1,2,1.47,0.7813707217283081,G26N02,2022-09-02_14h41.38.487,t1_Paradigm,2021.1.4,59.96706534128246,
T,left,Distractor,0,37,37,37,3013.845945547102,3015.84796403168,left,1,2,1.47,0.6415451095381286,G26N02,2022-09-02_14h41.38.487,t1_Paradigm,2021.1.4,59.96706534128246,
G,left,Distractor,0,38,38,38,3017.346025105944,3019.348112562904,left,1,2,1.47,0.6136892521753907,G26N02,2022-09-02_14h41.38.487,t1_Paradigm,2021.1.4,59.96706534128246,
K,left,Pretarget,0,39,39,39,3020.8460850958654,3022.847902116948,left,1,2,1.47,0.6016899835958611,G26N02,2022-09-02_14h41.38.487,t1_Paradigm,2021.1.4,59.96706534128246,
R,left,Lure,0,40,40,40,3024.3460247851326,3026.347697766236,right,0,2,1.47,0.7982827482628636,G26N02,2022-09-02_14h41.38.487,t1_Paradigm,2021.1.4,59.96706534128246,
Q,left,Pretarget,0,41,41,41,3027.8460331259703,3029.847539610986,left,1,2,1.47,0.7698465605208185,G26N02,2022-09-02_14h41.38.487,t1_Paradigm,2021.1.4,59.96706534128246,
K,right,Target,0,42,42,42,3031.345998158591,3033.348011831142,right,1,2,1.47,0.6934319050051272,G26N02,2022-09-02_14h41.38.487,t1_Paradigm,2021.1.4,59.96706534128246,
Z,left,Distractor,0,43,43,43,3034.8460680933786,3036.8479261770844,left,1,2,1.47,0.6494650630629621,G26N02,2022-09-02_14h41.38.487,t1_Paradigm,2021.1.4,59.96706534128246,
Q,right,Target,0,44,44,44,3038.345816263987,3040.3479864878173,right,1,2,1.47,0.861675739986822,G26N02,2022-09-02_14h41.38.487,t1_Paradigm,2021.1.4,59.96706534128246,
W,left,Distractor,0,45,45,45,3041.846003291401,3043.847314728948,left,1,2,1.47,0.6100375658716075,G26N02,2022-09-02_14h41.38.487,t1_Paradigm,2021.1.4,59.96706534128246,
X,left,Distractor,0,46,46,46,3045.34604018362,3047.3480904275784,left,1,2,1.47,0.9973078317416366,G26N02,2022-09-02_14h41.38.487,t1_Paradigm,2021.1.4,59.96706534128246,
R,left,Distractor,0,47,47,47,3048.8459821185097,3050.8476429091534,left,1,2,1.47,0.5216964638093486,G26N02,2022-09-02_14h41.38.487,t1_Paradigm,2021.1.4,59.96706534128246,
P,left,Pretarget,0,48,48,48,3052.3451101793326,3054.347842447838,left,1,2,1.47,0.62163037864957,G26N02,2022-09-02_14h41.38.487,t1_Paradigm,2021.1.4,59.96706534128246,
Z,left,Pretarget,0,49,49,49,3055.8459558127506,3057.8471514408593,left,1,2,1.47,0.4985323320142925,G26N02,2022-09-02_14h41.38.487,t1_Paradigm,2021.1.4,59.96706534128246,
V,left,Distractor,0,50,50,50,3059.345971211238,3061.3481924425287,left,1,2,1.47,0.5331904696067795,G26N02,2022-09-02_14h41.38.487,t1_Paradigm,2021.1.4,59.96706534128246,
P,right,Target,0,51,51,51,3062.8460761134047,3064.84674177703,right,1,2,1.47,0.9226425081433263,G26N02,2022-09-02_14h41.38.487,t1_Paradigm,2021.1.4,59.96706534128246,
Z,right,Target,0,52,52,52,3066.3459615871834,3068.3475344781473,right,1,2,1.47,0.9738219357968774,G26N02,2022-09-02_14h41.38.487,t1_Paradigm,2021.1.4,59.96706534128246,
H,left,Distractor,0,53,53,53,3069.8459195621544,3071.84770033267,left,1,2,1.47,0.7536932301009074,G26N02,2022-09-02_14h41.38.487,t1_Paradigm,2021.1.4,59.96706534128246,
L,left,Distractor,0,54,54,54,3073.3461258376774,3075.347439520847,left,1,2,1.47,0.6300488580891397,G26N02,2022-09-02_14h41.38.487,t1_Paradigm,2021.1.4,59.96706534128246,
Z,right,Target,0,55,55,55,3076.845967361616,3078.8481083924707,left,0,2,1.47,1.1136398487142287,G26N02,2022-09-02_14h41.38.487,t1_Paradigm,2021.1.4,59.96706534128246,
Z,left,Lure,0,56,56,56,3080.345940414263,3082.3460488452693,left,1,2,1.47,0.6075096481072251,G26N02,2022-09-02_14h41.38.487,t1_Paradigm,2021.1.4,59.96706534128246,
B,left,Distractor,0,57,57,57,3083.8459426598856,3085.8478539967036,left,1,2,1.47,0.48208835523109883,G26N02,2022-09-02_14h41.38.487,t1_Paradigm,2021.1.4,59.96706534128246,
J,left,Distractor,0,58,58,58,3087.3459465095075,3089.348268793343,left,1,2,1.47,0.45310103008523583,G26N02,2022-09-02_14h41.38.487,t1_Paradigm,2021.1.4,59.96706534128246,
X,left,Pretarget,0,59,59,59,3090.845889727585,3092.8478559215146,left,1,2,1.47,0.42538985432474874,G26N02,2022-09-02_14h41.38.487,t1_Paradigm,2021.1.4,59.96706534128246,
R,left,Distractor,0,60,60,60,3094.3459452262905,3096.348043590522,left,1,2,1.47,0.5092509599926416,G26N02,2022-09-02_14h41.38.487,t1_Paradigm,2021.1.4,59.96706534128246,
F,left,Distractor,0,61,61,61,3097.8459628704004,3099.84751394685,left,1,2,1.47,0.5300308931909967,G26N02,2022-09-02_14h41.38.487,t1_Paradigm,2021.1.4,59.96706534128246,
X,right,Target,0,62,62,62,3101.345925978181,3103.347881264839,right,1,2,1.47,0.6135609314660542,G26N02,2022-09-02_14h41.38.487,t1_Paradigm,2021.1.4,59.96706534128246,
T,left,Distractor,0,63,63,63,3104.8458762539085,3106.848343219346,left,1,2,1.47,0.5530391153297387,G26N02,2022-09-02_14h41.38.487,t1_Paradigm,2021.1.4,59.96706534128246,
