Letter,CorrAnswer,Stimulus,nback_run.thisRepN,nback_run.thisTrialN,nback_run.thisN,nback_run.thisIndex,fixcross.started,nback_trial.started,trial_resp.keys,trial_resp.corr,currentlevel,trial_resp.rt,Participant,date,expName,psychopyVersion,frameRate,
H,left,Distractor,0,0,0,0,241.52019479082082,243.47006085608155,None,0,1,,G26N02,2022-09-02_14h41.38.487,t1_Paradigm,2021.1.4,59.96706534128246,
Q,left,Pretarget,0,1,1,1,244.9698632422078,246.96900028549135,left,1,1,0.6428636047057807,G26N02,2022-09-02_14h41.38.487,t1_Paradigm,2021.1.4,59.96706534128246,
Q,right,Target,0,2,2,2,248.46544195251772,250.4653710553248,left,0,1,0.6342661178787239,G26N02,2022-09-02_14h41.38.487,t1_Paradigm,2021.1.4,59.96706534128246,
T,left,Distractor,0,3,3,3,251.96532068945817,253.96739338955376,left,1,1,0.5563603758637328,G26N02,2022-09-02_14h41.38.487,t1_Paradigm,2021.1.4,59.96706534128246,
Q,left,Lure,0,4,4,4,255.46533993756748,257.46715086343465,left,1,1,0.7525149252905976,G26N02,2022-09-02_14h41.38.487,t1_Paradigm,2021.1.4,59.96706534128246,
L,left,Distractor,0,5,5,5,258.9652594163199,260.96776166994823,left,1,1,0.5318767864664551,G26N02,2022-09-02_14h41.38.487,t1_Paradigm,2021.1.4,59.96706534128246,
V,left,Pretarget,0,6,6,6,262.4654653710313,264.4678681761434,left,1,1,0.5681681257847231,G26N02,2022-09-02_14h41.38.487,t1_Paradigm,2021.1.4,59.96706534128246,
V,right,Target,0,7,7,7,265.96532068945817,267.96542206281447,right,1,1,0.4942938993044663,G26N02,2022-09-02_14h41.38.487,t1_Paradigm,2021.1.4,59.96706534128246,
K,left,Distractor,0,8,8,8,269.46534571200027,271.4674379809876,left,1,1,0.6402914162899833,G26N02,2022-09-02_14h41.38.487,t1_Paradigm,2021.1.4,59.96706534128246,
G,left,Pretarget,0,9,9,9,272.9652420930215,274.9668428937439,left,1,1,0.8208934970316477,G26N02,2022-09-02_14h41.38.487,t1_Paradigm,2021.1.4,59.96706534128246,
G,right,Target,0,10,10,10,276.4654595965985,278.46542462921934,right,1,1,0.650336360646179,G26N02,2022-09-02_14h41.38.487,t1_Paradigm,2021.1.4,59.96706534128246,
G,right,Target,0,11,11,11,279.96540249389363,281.9653447495948,right,1,1,0.47822750615887344,G26N02,2022-09-02_14h41.38.487,t1_Paradigm,2021.1.4,59.96706534128246,
P,left,Pretarget,0,12,12,12,283.4653068949701,285.46789704827825,left,1,1,0.5118796095193829,G26N02,2022-09-02_14h41.38.487,t1_Paradigm,2021.1.4,59.96706534128246,
P,right,Target,0,13,13,13,286.9654008898942,288.9654493309499,right,1,1,0.550238836905919,G26N02,2022-09-02_14h41.38.487,t1_Paradigm,2021.1.4,59.96706534128246,
G,left,Lure,0,14,14,14,290.465312027809,292.46667479362804,left,1,1,0.5049397053371649,G26N02,2022-09-02_14h41.38.487,t1_Paradigm,2021.1.4,59.96706534128246,
Y,left,Distractor,0,15,15,15,293.9652741732134,295.96748898847727,left,1,1,0.6521046198904514,G26N02,2022-09-02_14h41.38.487,t1_Paradigm,2021.1.4,59.96706534128246,
B,left,Distractor,0,16,16,16,297.46531010299805,299.4668871643953,left,1,1,0.6088429001683835,G26N02,2022-09-02_14h41.38.487,t1_Paradigm,2021.1.4,59.96706534128246,
T,left,Pretarget,0,17,17,17,300.96538196259644,302.9668284576619,left,1,1,0.5969389097299427,G26N02,2022-09-02_14h41.38.487,t1_Paradigm,2021.1.4,59.96706534128246,
T,right,Target,0,18,18,18,304.4653742633527,306.46531299021444,right,1,1,0.6666542623424903,G26N02,2022-09-02_14h41.38.487,t1_Paradigm,2021.1.4,59.96706534128246,
S,left,Distractor,0,19,19,19,307.96523952661664,309.96896499730065,left,1,1,0.938737131858943,G26N02,2022-09-02_14h41.38.487,t1_Paradigm,2021.1.4,59.96706534128246,
T,left,Lure,0,20,20,20,311.4653752257582,313.46698308410123,left,1,1,0.9606286431080662,G26N02,2022-09-02_14h41.38.487,t1_Paradigm,2021.1.4,59.96706534128246,
J,left,Distractor,0,21,21,21,314.96536143127014,316.96772221132414,left,1,1,0.5158713456476107,G26N02,2022-09-02_14h41.38.487,t1_Paradigm,2021.1.4,59.96706534128246,
P,left,Distractor,0,22,22,22,318.46529406291666,320.4820829015807,left,1,1,0.9054792938404717,G26N02,2022-09-02_14h41.38.487,t1_Paradigm,2021.1.4,59.96706534128246,
F,left,Distractor,0,23,23,23,321.9653033661598,323.96743733939365,left,1,1,0.5242725018179044,G26N02,2022-09-02_14h41.38.487,t1_Paradigm,2021.1.4,59.96706534128246,
L,left,Distractor,0,24,24,24,325.46526037872536,327.4668374401226,left,1,1,0.5607624174153898,G26N02,2022-09-02_14h41.38.487,t1_Paradigm,2021.1.4,59.96706534128246,
W,left,Pretarget,0,25,25,25,328.9644824344723,330.96725191597943,left,1,1,0.468346170760924,G26N02,2022-09-02_14h41.38.487,t1_Paradigm,2021.1.4,59.96706534128246,
W,right,Target,0,26,26,26,332.46525845391443,334.4653126694029,right,1,1,0.794297748914687,G26N02,2022-09-02_14h41.38.487,t1_Paradigm,2021.1.4,59.96706534128246,
V,left,Distractor,0,27,27,27,335.96526037872536,337.96690865809796,left,1,1,0.47660168292350136,G26N02,2022-09-02_14h41.38.487,t1_Paradigm,2021.1.4,59.96706534128246,
W,left,Lure,0,28,28,28,339.4652680779691,341.4665288288379,left,1,1,0.5292282472364604,G26N02,2022-09-02_14h41.38.487,t1_Paradigm,2021.1.4,59.96706534128246,
R,left,Pretarget,0,29,29,29,342.9654182131926,344.966908016504,left,1,1,0.5808439652610105,G26N02,2022-09-02_14h41.38.487,t1_Paradigm,2021.1.4,59.96706534128246,
R,right,Target,0,30,30,30,346.46525267948164,348.46523952661664,right,1,1,0.650387688918272,G26N02,2022-09-02_14h41.38.487,t1_Paradigm,2021.1.4,59.96706534128246,
G,left,Distractor,0,31,31,31,349.96516349658486,351.9665034854843,left,1,1,0.5091643435007427,G26N02,2022-09-02_14h41.38.487,t1_Paradigm,2021.1.4,59.96706534128246,
R,left,Lure,0,32,32,32,353.46524273461546,355.46679220706574,left,1,1,0.9928656899137422,G26N02,2022-09-02_14h41.38.487,t1_Paradigm,2021.1.4,59.96706534128246,
S,left,Distractor,0,33,33,33,356.9652507546707,358.9674071840127,left,1,1,0.6601891446916852,G26N02,2022-09-02_14h41.38.487,t1_Paradigm,2021.1.4,59.96706534128246,
R,left,Lure,0,34,34,34,360.46523503540084,362.46705269807717,left,1,1,0.4885804201767314,G26N02,2022-09-02_14h41.38.487,t1_Paradigm,2021.1.4,59.96706534128246,
P,left,Pretarget,0,35,35,35,363.96509003298706,365.96678514944506,left,1,1,0.700744901667349,G26N02,2022-09-02_14h41.38.487,t1_Paradigm,2021.1.4,59.96706534128246,
P,right,Target,0,36,36,36,367.46525171707617,369.4652151456685,right,1,1,0.40231105577549897,G26N02,2022-09-02_14h41.38.487,t1_Paradigm,2021.1.4,59.96706534128246,
Y,left,Pretarget,0,37,37,37,370.965353411244,372.96690577088157,left,1,1,0.5166249089525081,G26N02,2022-09-02_14h41.38.487,t1_Paradigm,2021.1.4,59.96706534128246,
Y,right,Target,0,38,38,38,374.46522059931885,376.46527930602315,right,1,1,0.8423609083984047,G26N02,2022-09-02_14h41.38.487,t1_Paradigm,2021.1.4,59.96706534128246,
J,left,Distractor,0,39,39,39,377.96518659431604,379.96697025204776,left,1,1,0.4606113198096864,G26N02,2022-09-02_14h41.38.487,t1_Paradigm,2021.1.4,59.96706534128246,
Y,left,Lure,0,40,40,40,381.46522348653525,383.4670417908346,left,1,1,0.8325119739456568,G26N02,2022-09-02_14h41.38.487,t1_Paradigm,2021.1.4,59.96706534128246,
T,left,Distractor,0,41,41,41,384.96527770202374,386.9669400966668,left,1,1,0.6127695135946851,G26N02,2022-09-02_14h41.38.487,t1_Paradigm,2021.1.4,59.96706534128246,
V,left,Distractor,0,42,42,42,388.4651801782893,390.46694522950565,left,1,1,0.5525508550927043,G26N02,2022-09-02_14h41.38.487,t1_Paradigm,2021.1.4,59.96706534128246,
N,left,Pretarget,0,43,43,43,391.9649889804423,393.9684196343296,left,1,1,0.5711903990304563,G26N02,2022-09-02_14h41.38.487,t1_Paradigm,2021.1.4,59.96706534128246,
N,right,Target,0,44,44,44,395.46520712564234,397.4652331105899,right,1,1,0.45037549844710156,G26N02,2022-09-02_14h41.38.487,t1_Paradigm,2021.1.4,59.96706534128246,
N,right,Target,0,45,45,45,398.96518242391176,400.96520872964174,right,1,1,0.5984713796642609,G26N02,2022-09-02_14h41.38.487,t1_Paradigm,2021.1.4,59.96706534128246,
X,left,Distractor,0,46,46,46,402.46519429355976,404.46758105856134,left,1,1,0.520041126786964,G26N02,2022-09-02_14h41.38.487,t1_Paradigm,2021.1.4,59.96706534128246,
Z,left,Distractor,0,47,47,47,405.965202313615,407.9671383521636,left,1,1,0.6523628652794287,G26N02,2022-09-02_14h41.38.487,t1_Paradigm,2021.1.4,59.96706534128246,
H,left,Pretarget,0,48,48,48,409.46527321080794,411.4673869734979,left,1,1,0.6402615817496553,G26N02,2022-09-02_14h41.38.487,t1_Paradigm,2021.1.4,59.96706534128246,
H,right,Target,0,49,49,49,412.96517825347837,414.965284438862,right,1,1,0.5823687359516043,G26N02,2022-09-02_14h41.38.487,t1_Paradigm,2021.1.4,59.96706534128246,
K,left,Distractor,0,50,50,50,416.4654162883817,418.4669413798838,left,1,1,0.5686329675081652,G26N02,2022-09-02_14h41.38.487,t1_Paradigm,2021.1.4,59.96706534128246,
V,left,Pretarget,0,51,51,51,419.9651214715559,421.96616632284713,left,1,1,0.621490509074647,G26N02,2022-09-02_14h41.38.487,t1_Paradigm,2021.1.4,59.96706534128246,
V,right,Target,0,52,52,52,423.4651686294237,425.46519974718103,right,1,1,0.6424167279037647,G26N02,2022-09-02_14h41.38.487,t1_Paradigm,2021.1.4,59.96706534128246,
R,left,Distractor,0,53,53,53,426.96529630851,428.9669840465067,left,1,1,0.5324770065199118,G26N02,2022-09-02_14h41.38.487,t1_Paradigm,2021.1.4,59.96706534128246,
V,left,Lure,0,54,54,54,430.46519685996464,432.4664977110515,right,0,1,0.8570735181274358,G26N02,2022-09-02_14h41.38.487,t1_Paradigm,2021.1.4,59.96706534128246,
Y,left,Distractor,0,55,55,55,433.9651917271549,435.9670042570215,left,1,1,0.7808590429194737,G26N02,2022-09-02_14h41.38.487,t1_Paradigm,2021.1.4,59.96706534128246,
Q,left,Distractor,0,56,56,56,437.46524433864397,439.46686727469205,left,1,1,0.5289453000877984,G26N02,2022-09-02_14h41.38.487,t1_Paradigm,2021.1.4,59.96706534128246,
Z,left,Pretarget,0,57,57,57,440.9651448900986,442.96686599147506,left,1,1,0.5166098312765826,G26N02,2022-09-02_14h41.38.487,t1_Paradigm,2021.1.4,59.96706534128246,
Z,right,Target,0,58,58,58,444.4651480981265,446.46525300029316,right,1,1,1.0342154311947525,G26N02,2022-09-02_14h41.38.487,t1_Paradigm,2021.1.4,59.96706534128246,
B,left,Distractor,0,59,59,59,447.9652642283472,449.9666626031685,left,1,1,0.8290309541625902,G26N02,2022-09-02_14h41.38.487,t1_Paradigm,2021.1.4,59.96706534128246,
S,left,Pretarget,0,60,60,60,451.46517664947896,453.46677007174003,left,1,1,0.832678149221465,G26N02,2022-09-02_14h41.38.487,t1_Paradigm,2021.1.4,59.96706534128246,
S,right,Target,0,61,61,61,454.9650759177166,456.96504704555264,right,1,1,0.6783853406377602,G26N02,2022-09-02_14h41.38.487,t1_Paradigm,2021.1.4,59.96706534128246,
T,left,Distractor,0,62,62,62,458.4652462634549,460.466771354957,left,1,1,0.5527228048304096,G26N02,2022-09-02_14h41.38.487,t1_Paradigm,2021.1.4,59.96706534128246,
D,left,Distractor,0,63,63,63,461.96521642888547,463.9675265222613,left,1,1,0.5560562557948288,G26N02,2022-09-02_14h41.38.487,t1_Paradigm,2021.1.4,59.96706534128246,
R,left,Distractor,0,0,0,0,474.1612487528764,476.1506507463346,None,0,1,,G26N02,2022-09-02_14h41.38.487,t1_Paradigm,2021.1.4,59.96706534128246,
V,left,Distractor,0,1,1,1,477.64852350993897,479.65036811999744,left,1,1,0.6009855029697064,G26N02,2022-09-02_14h41.38.487,t1_Paradigm,2021.1.4,59.96706534128246,
N,left,Pretarget,0,2,2,2,481.1484795600991,483.14983494748594,left,1,1,0.6057253488106653,G26N02,2022-09-02_14h41.38.487,t1_Paradigm,2021.1.4,59.96706534128246,
N,right,Target,0,3,3,3,484.6484609536128,486.6483390489302,right,1,1,0.6432338099402841,G26N02,2022-09-02_14h41.38.487,t1_Paradigm,2021.1.4,59.96706534128246,
S,left,Distractor,0,4,4,4,488.14853602121,490.1500469974417,left,1,1,0.5653806793852709,G26N02,2022-09-02_14h41.38.487,t1_Paradigm,2021.1.4,59.96706534128246,
N,left,Lure,0,5,5,5,491.64768878379255,493.6500755487941,left,1,1,0.521384323714301,G26N02,2022-09-02_14h41.38.487,t1_Paradigm,2021.1.4,59.96706534128246,
Z,left,Distractor,0,6,6,6,495.14844523431384,497.1494551182259,left,1,1,0.49391407004441135,G26N02,2022-09-02_14h41.38.487,t1_Paradigm,2021.1.4,59.96706534128246,
L,left,Pretarget,0,7,7,7,498.64843368544825,500.6501939246373,left,1,1,0.5773440181801561,G26N02,2022-09-02_14h41.38.487,t1_Paradigm,2021.1.4,59.96706534128246,
L,right,Target,0,8,8,8,502.1483932644187,504.14856296856306,right,1,1,0.6788065533328336,G26N02,2022-09-02_14h41.38.487,t1_Paradigm,2021.1.4,59.96706534128246,
H,left,Distractor,0,9,9,9,505.64752004208276,507.64880806108704,left,1,1,0.5545629236730747,G26N02,2022-09-02_14h41.38.487,t1_Paradigm,2021.1.4,59.96706534128246,
L,left,Lure,0,10,10,10,509.14842919423245,511.1505853027629,left,1,1,0.845028054114664,G26N02,2022-09-02_14h41.38.487,t1_Paradigm,2021.1.4,59.96706534128246,
X,left,Pretarget,0,11,11,11,512.6484535751515,514.6501666565018,left,1,1,0.5775711458118167,G26N02,2022-09-02_14h41.38.487,t1_Paradigm,2021.1.4,59.96706534128246,
X,right,Target,0,12,12,12,516.1484744272602,518.1484439510969,right,1,1,0.5509747561009135,G26N02,2022-09-02_14h41.38.487,t1_Paradigm,2021.1.4,59.96706534128246,
X,right,Target,0,13,13,13,519.6485494948865,521.6483037607395,right,1,1,0.507206811249489,G26N02,2022-09-02_14h41.38.487,t1_Paradigm,2021.1.4,59.96706534128246,
R,left,Distractor,0,14,14,14,523.1485199811286,525.1502199095848,left,1,1,0.3976866985904053,G26N02,2022-09-02_14h41.38.487,t1_Paradigm,2021.1.4,59.96706534128246,
T,left,Distractor,0,15,15,15,526.6482774550095,528.6503283405618,left,1,1,0.5451971166476142,G26N02,2022-09-02_14h41.38.487,t1_Paradigm,2021.1.4,59.96706534128246,
V,left,Pretarget,0,16,16,16,530.1484211741772,532.1475957512739,left,1,1,0.7759491721517406,G26N02,2022-09-02_14h41.38.487,t1_Paradigm,2021.1.4,59.96706534128246,
V,right,Target,0,17,17,17,533.6484064173128,535.6484182869608,right,1,1,0.4432184114702977,G26N02,2022-09-02_14h41.38.487,t1_Paradigm,2021.1.4,59.96706534128246,
N,left,Distractor,0,18,18,18,537.1485058658582,539.1498099249438,left,1,1,0.42971329946885817,G26N02,2022-09-02_14h41.38.487,t1_Paradigm,2021.1.4,59.96706534128246,
B,left,Distractor,0,19,19,19,540.648357976228,542.6501153282006,left,1,1,0.4975195608858485,G26N02,2022-09-02_14h41.38.487,t1_Paradigm,2021.1.4,59.96706534128246,
V,left,Lure,0,20,20,20,544.148401284474,546.1504091826209,left,1,1,0.9329934973502532,G26N02,2022-09-02_14h41.38.487,t1_Paradigm,2021.1.4,59.96706534128246,
P,left,Distractor,0,21,21,21,547.648507149046,549.6498115289724,left,1,1,1.0978217561496422,G26N02,2022-09-02_14h41.38.487,t1_Paradigm,2021.1.4,59.96706534128246,
K,left,Pretarget,0,22,22,22,551.1483923020132,553.1499135439226,left,1,1,0.5416111946979072,G26N02,2022-09-02_14h41.38.487,t1_Paradigm,2021.1.4,59.96706534128246,
K,right,Target,0,23,23,23,554.648524793156,556.6483425777697,right,1,1,0.4350382876873482,G26N02,2022-09-02_14h41.38.487,t1_Paradigm,2021.1.4,59.96706534128246,
J,left,Pretarget,0,24,24,24,558.1483794699598,560.1497162508313,left,1,1,0.45368938049068674,G26N02,2022-09-02_14h41.38.487,t1_Paradigm,2021.1.4,59.96706534128246,
J,right,Target,0,25,25,25,561.6483765827434,563.648290287063,right,1,1,0.5071849967353046,G26N02,2022-09-02_14h41.38.487,t1_Paradigm,2021.1.4,59.96706534128246,
H,left,Distractor,0,26,26,26,565.1483117807948,567.1502163807745,left,1,1,0.6691799345135223,G26N02,2022-09-02_14h41.38.487,t1_Paradigm,2021.1.4,59.96706534128246,
J,left,Lure,0,27,27,27,568.648374978744,570.6645510860544,left,1,1,0.7868426371132955,G26N02,2022-09-02_14h41.38.487,t1_Paradigm,2021.1.4,59.96706534128246,
V,left,Distractor,0,28,28,28,572.1484067380952,574.1496097446652,left,1,1,0.7098890346824192,G26N02,2022-09-02_14h41.38.487,t1_Paradigm,2021.1.4,59.96706534128246,
Z,left,Pretarget,0,29,29,29,575.6483615050674,577.649971609033,left,1,1,0.6335430307372008,G26N02,2022-09-02_14h41.38.487,t1_Paradigm,2021.1.4,59.96706534128246,
Z,right,Target,0,30,30,30,579.148370487499,581.1483765827434,right,1,1,0.39916399063076824,G26N02,2022-09-02_14h41.38.487,t1_Paradigm,2021.1.4,59.96706534128246,
T,left,Distractor,0,31,31,31,582.6484657656401,584.6500710575783,left,1,1,0.6894132215238642,G26N02,2022-09-02_14h41.38.487,t1_Paradigm,2021.1.4,59.96706534128246,
Z,left,Lure,0,32,32,32,586.1483685626881,588.147429575969,left,1,1,0.7600431799073704,G26N02,2022-09-02_14h41.38.487,t1_Paradigm,2021.1.4,59.96706534128246,
F,left,Distractor,0,33,33,33,589.6483486729849,591.649929584004,left,1,1,0.681769157468807,G26N02,2022-09-02_14h41.38.487,t1_Paradigm,2021.1.4,59.96706534128246,
Y,left,Pretarget,0,34,34,34,593.1485902366985,595.1499029574625,left,1,1,0.701441041455837,G26N02,2022-09-02_14h41.38.487,t1_Paradigm,2021.1.4,59.96706534128246,
Y,right,Target,0,35,35,35,596.648427590233,598.6482806630083,right,1,1,0.6271385446598288,G26N02,2022-09-02_14h41.38.487,t1_Paradigm,2021.1.4,59.96706534128246,
Y,right,Target,0,36,36,36,600.1484266278276,602.1483339161205,right,1,1,0.6472335661237594,G26N02,2022-09-02_14h41.38.487,t1_Paradigm,2021.1.4,59.96706534128246,
W,left,Distractor,0,37,37,37,603.648345464986,605.6500947969034,left,1,1,0.5212912911956664,G26N02,2022-09-02_14h41.38.487,t1_Paradigm,2021.1.4,59.96706534128246,
Q,left,Distractor,0,38,38,38,607.1483611842559,609.149887558975,left,1,1,0.7014862745127175,G26N02,2022-09-02_14h41.38.487,t1_Paradigm,2021.1.4,59.96706534128246,
P,left,Pretarget,0,39,39,39,610.6483239712543,612.6475213252706,left,1,1,0.8518463744549081,G26N02,2022-09-02_14h41.38.487,t1_Paradigm,2021.1.4,59.96706534128246,
P,right,Target,0,40,40,40,614.1482768133865,616.1483223672549,right,1,1,0.5510052322933916,G26N02,2022-09-02_14h41.38.487,t1_Paradigm,2021.1.4,59.96706534128246,
J,left,Distractor,0,41,41,41,617.6485142066958,619.6489257953363,left,1,1,0.4267487705219537,G26N02,2022-09-02_14h41.38.487,t1_Paradigm,2021.1.4,59.96706534128246,
P,left,Lure,0,42,42,42,621.1484170037729,623.1500639999285,left,1,1,0.701248560420936,G26N02,2022-09-02_14h41.38.487,t1_Paradigm,2021.1.4,59.96706534128246,
L,left,Distractor,0,43,43,43,624.6484266278276,626.649749614211,left,1,1,0.5302926674485207,G26N02,2022-09-02_14h41.38.487,t1_Paradigm,2021.1.4,59.96706534128246,
Z,left,Distractor,0,44,44,44,628.1484298358264,630.1499667970056,left,1,1,0.5816831826232374,G26N02,2022-09-02_14h41.38.487,t1_Paradigm,2021.1.4,59.96706534128246,
F,left,Pretarget,0,45,45,45,631.6484397806926,633.6492129128892,left,1,1,0.5062043057987466,G26N02,2022-09-02_14h41.38.487,t1_Paradigm,2021.1.4,59.96706534128246,
F,right,Target,0,46,46,46,635.148263981333,637.148495920992,right,1,1,0.6389369913376868,G26N02,2022-09-02_14h41.38.487,t1_Paradigm,2021.1.4,59.96706534128246,
G,left,Pretarget,0,47,47,47,638.6482540364668,640.6494076395466,left,1,1,0.4980495253694244,G26N02,2022-09-02_14h41.38.487,t1_Paradigm,2021.1.4,59.96706534128246,
G,right,Target,0,48,48,48,642.1482729637646,644.1483351993083,right,1,1,0.647176463418873,G26N02,2022-09-02_14h41.38.487,t1_Paradigm,2021.1.4,59.96706534128246,
V,left,Distractor,0,49,49,49,645.6484038508788,647.6500453934423,left,1,1,0.505395564599894,G26N02,2022-09-02_14h41.38.487,t1_Paradigm,2021.1.4,59.96706534128246,
G,left,Lure,0,50,50,50,649.1482986279298,651.1504499244329,left,1,1,0.5731293248245493,G26N02,2022-09-02_14h41.38.487,t1_Paradigm,2021.1.4,59.96706534128246,
Q,left,Pretarget,0,51,51,51,652.6484173245553,654.650158315635,left,1,1,0.8171420413709711,G26N02,2022-09-02_14h41.38.487,t1_Paradigm,2021.1.4,59.96706534128246,
Q,right,Target,0,52,52,52,656.1482556404953,658.148386848392,right,1,1,0.6151027046726085,G26N02,2022-09-02_14h41.38.487,t1_Paradigm,2021.1.4,59.96706534128246,
Y,left,Distractor,0,53,53,53,659.6483165928221,661.6502638594247,left,1,1,0.4411768291320186,G26N02,2022-09-02_14h41.38.487,t1_Paradigm,2021.1.4,59.96706534128246,
V,left,Distractor,0,54,54,54,663.1480689338641,665.149669413775,left,1,1,0.8458659882599022,G26N02,2022-09-02_14h41.38.487,t1_Paradigm,2021.1.4,59.96706534128246,
B,left,Distractor,0,55,55,55,666.6482434500067,668.6492687324062,left,1,1,0.4983850840071682,G26N02,2022-09-02_14h41.38.487,t1_Paradigm,2021.1.4,59.96706534128246,
J,left,Pretarget,0,56,56,56,670.1482126530609,672.1498176241876,left,1,1,0.5494397197617218,G26N02,2022-09-02_14h41.38.487,t1_Paradigm,2021.1.4,59.96706534128246,
J,right,Target,0,57,57,57,673.6482851542532,675.648304723145,right,1,1,0.4110464873665478,G26N02,2022-09-02_14h41.38.487,t1_Paradigm,2021.1.4,59.96706534128246,
H,left,Distractor,0,58,58,58,677.1482434500067,679.1497168924543,left,1,1,0.6695729166385718,G26N02,2022-09-02_14h41.38.487,t1_Paradigm,2021.1.4,59.96706534128246,
J,left,Lure,0,59,59,59,680.6482588484942,682.6501047417696,left,1,1,0.8491227676277049,G26N02,2022-09-02_14h41.38.487,t1_Paradigm,2021.1.4,59.96706534128246,
D,left,Pretarget,0,60,60,60,684.1482790590089,686.1500322405482,left,1,1,0.6614454043738078,G26N02,2022-09-02_14h41.38.487,t1_Paradigm,2021.1.4,59.96706534128246,
D,right,Target,0,61,61,61,687.6483547682292,689.6483050439565,right,1,1,0.7631533528619912,G26N02,2022-09-02_14h41.38.487,t1_Paradigm,2021.1.4,59.96706534128246,
R,left,Distractor,0,62,62,62,691.148347389797,693.149970967439,left,1,1,0.4778178423293866,G26N02,2022-09-02_14h41.38.487,t1_Paradigm,2021.1.4,59.96706534128246,
F,left,Distractor,0,63,63,63,694.6483509186073,696.6473269194248,left,1,1,0.6920691391860601,G26N02,2022-09-02_14h41.38.487,t1_Paradigm,2021.1.4,59.96706534128246,
F,left,Distractor,0,0,0,0,896.158200494654,898.1480147183756,None,0,2,,G26N02,2022-09-02_14h41.38.487,t1_Paradigm,2021.1.4,59.96706534128246,
N,left,Pretarget,0,1,1,1,899.6481440014613,901.6496569025039,left,1,2,1.1457052666228265,G26N02,2022-09-02_14h41.38.487,t1_Paradigm,2021.1.4,59.96706534128246,
V,left,Distractor,0,2,2,2,903.1480917107838,905.1500556590909,left,1,2,0.7651083187083714,G26N02,2022-09-02_14h41.38.487,t1_Paradigm,2021.1.4,59.96706534128246,
N,right,Target,0,3,3,3,906.6481247533811,908.650051809469,right,1,2,0.81706087855855,G26N02,2022-09-02_14h41.38.487,t1_Paradigm,2021.1.4,59.96706534128246,
N,left,Lure,0,4,4,4,910.1480384577007,912.148152983922,None,0,2,,G26N02,2022-09-02_14h41.38.487,t1_Paradigm,2021.1.4,59.96706534128246,
X,left,Distractor,0,5,5,5,913.6477657762007,915.6501105162024,left,1,2,1.000994806207018,G26N02,2022-09-02_14h41.38.487,t1_Paradigm,2021.1.4,59.96706534128246,
G,left,Pretarget,0,6,6,6,917.1481192997308,919.1498548371892,left,1,2,0.7332732364593539,G26N02,2022-09-02_14h41.38.487,t1_Paradigm,2021.1.4,59.96706534128246,
H,left,Pretarget,0,7,7,7,920.6479880918341,922.6501262354723,left,1,2,0.5612218055175617,G26N02,2022-09-02_14h41.38.487,t1_Paradigm,2021.1.4,59.96706534128246,
G,right,Target,0,8,8,8,924.1480718210805,926.1499658346002,right,1,2,0.4851468790729996,G26N02,2022-09-02_14h41.38.487,t1_Paradigm,2021.1.4,59.96706534128246,
H,right,Target,0,9,9,9,927.6480445529451,929.6502474985318,right,1,2,0.7290065732377116,G26N02,2022-09-02_14h41.38.487,t1_Paradigm,2021.1.4,59.96706534128246,
T,left,Pretarget,0,10,10,10,931.1480160015635,933.1495677196363,left,1,2,0.5416429540782701,G26N02,2022-09-02_14h41.38.487,t1_Paradigm,2021.1.4,59.96706534128246,
K,left,Distractor,0,11,11,11,934.6480512897833,936.6499055238673,left,1,2,1.121204353927169,G26N02,2022-09-02_14h41.38.487,t1_Paradigm,2021.1.4,59.96706534128246,
T,right,Target,0,12,12,12,938.1482007833838,940.1501041001466,right,1,2,0.43703367456328124,G26N02,2022-09-02_14h41.38.487,t1_Paradigm,2021.1.4,59.96706534128246,
T,left,Lure,0,13,13,13,941.6480416657287,943.6481654951931,left,1,2,0.8750358496035915,G26N02,2022-09-02_14h41.38.487,t1_Paradigm,2021.1.4,59.96706534128246,
J,left,Distractor,0,14,14,14,945.1480493649724,947.1500585463073,left,1,2,0.9571524353814311,G26N02,2022-09-02_14h41.38.487,t1_Paradigm,2021.1.4,59.96706534128246,
Q,left,Pretarget,0,15,15,15,948.6481055052718,950.6495949877717,left,1,2,0.5616728527820669,G26N02,2022-09-02_14h41.38.487,t1_Paradigm,2021.1.4,59.96706534128246,
M,left,Distractor,0,16,16,16,952.1480676506471,954.1508358489373,left,1,2,0.5482578861119691,G26N02,2022-09-02_14h41.38.487,t1_Paradigm,2021.1.4,59.96706534128246,
Q,right,Target,0,17,17,17,955.6481587583548,957.6496511280711,right,1,2,0.745626670162892,G26N02,2022-09-02_14h41.38.487,t1_Paradigm,2021.1.4,59.96706534128246,
R,left,Distractor,0,18,18,18,959.1479669189139,961.1502510273422,left,1,2,0.604911474743858,G26N02,2022-09-02_14h41.38.487,t1_Paradigm,2021.1.4,59.96706534128246,
W,left,Distractor,0,19,19,19,962.6480689338641,964.650489383057,left,1,2,0.5607746079040226,G26N02,2022-09-02_14h41.38.487,t1_Paradigm,2021.1.4,59.96706534128246,
C,left,Pretarget,0,20,20,20,966.1479579364532,968.150626044604,left,1,2,0.5324535880354233,G26N02,2022-09-02_14h41.38.487,t1_Paradigm,2021.1.4,59.96706534128246,
T,left,Distractor,0,21,21,21,969.6479370843444,971.6505875483854,left,1,2,0.7126784058636986,G26N02,2022-09-02_14h41.38.487,t1_Paradigm,2021.1.4,59.96706534128246,
C,right,Target,0,22,22,22,973.1479797509674,975.1500710575783,right,1,2,0.4291320067131892,G26N02,2022-09-02_14h41.38.487,t1_Paradigm,2021.1.4,59.96706534128246,
F,left,Pretarget,0,23,23,23,976.6480580265925,978.649995989952,left,1,2,0.6250607117253821,G26N02,2022-09-02_14h41.38.487,t1_Paradigm,2021.1.4,59.96706534128246,
C,right,Target,0,24,24,24,980.1479659565084,982.149819228187,right,1,2,0.7093574661703315,G26N02,2022-09-02_14h41.38.487,t1_Paradigm,2021.1.4,59.96706534128246,
F,right,Target,0,25,25,25,983.6479508788325,985.6471376463887,right,1,2,0.7320641346741468,G26N02,2022-09-02_14h41.38.487,t1_Paradigm,2021.1.4,59.96706534128246,
H,left,Distractor,0,26,26,26,987.1479297059122,989.149655619316,left,1,2,0.44561704611987807,G26N02,2022-09-02_14h41.38.487,t1_Paradigm,2021.1.4,59.96706534128246,
H,left,Lure,0,27,27,27,990.6479601820756,992.6479826381837,left,1,2,0.4190222604374867,G26N02,2022-09-02_14h41.38.487,t1_Paradigm,2021.1.4,59.96706534128246,
P,left,Distractor,0,28,28,28,994.148017605592,996.15027187948,left,1,2,0.7728842322831042,G26N02,2022-09-02_14h41.38.487,t1_Paradigm,2021.1.4,59.96706534128246,
G,left,Pretarget,0,29,29,29,997.6479816757783,999.6500540550915,left,1,2,0.5849226386635564,G26N02,2022-09-02_14h41.38.487,t1_Paradigm,2021.1.4,59.96706534128246,
K,left,Distractor,0,30,30,30,1001.1480522521888,1003.1498327018635,left,1,2,0.5572945505555253,G26N02,2022-09-02_14h41.38.487,t1_Paradigm,2021.1.4,59.96706534128246,
G,right,Target,0,31,31,31,1004.647989375022,1006.6501355387154,right,1,2,0.5610444021585863,G26N02,2022-09-02_14h41.38.487,t1_Paradigm,2021.1.4,59.96706534128246,
M,left,Pretarget,0,32,32,32,1008.147908532992,1010.1499940651411,left,1,2,1.3330268607533071,G26N02,2022-09-02_14h41.38.487,t1_Paradigm,2021.1.4,59.96706534128246,
B,left,Distractor,0,33,33,33,1011.6480336456734,1013.6502786163182,left,1,2,0.7288946134212893,G26N02,2022-09-02_14h41.38.487,t1_Paradigm,2021.1.4,59.96706534128246,
M,right,Target,0,34,34,34,1015.1479364427505,1017.1497759199701,right,1,2,0.6532434660475701,G26N02,2022-09-02_14h41.38.487,t1_Paradigm,2021.1.4,59.96706534128246,
M,left,Lure,0,35,35,35,1018.6478908888821,1020.6478655455576,left,1,2,0.6270297928422224,G26N02,2022-09-02_14h41.38.487,t1_Paradigm,2021.1.4,59.96706534128246,
T,left,Distractor,0,36,36,36,1022.1479136658309,1024.1498025465116,left,1,2,0.6454261690960266,G26N02,2022-09-02_14h41.38.487,t1_Paradigm,2021.1.4,59.96706534128246,
F,left,Distractor,0,37,37,37,1025.647947349993,1027.6495818349067,left,1,2,0.3933953336090781,G26N02,2022-09-02_14h41.38.487,t1_Paradigm,2021.1.4,59.96706534128246,
X,left,Distractor,0,38,38,38,1029.1479358011275,1031.1496376544237,left,1,2,0.6374972330813762,G26N02,2022-09-02_14h41.38.487,t1_Paradigm,2021.1.4,59.96706534128246,
C,left,Distractor,0,39,39,39,1032.6480535353767,1034.649859970028,left,1,2,0.43314491579076275,G26N02,2022-09-02_14h41.38.487,t1_Paradigm,2021.1.4,59.96706534128246,
R,left,Distractor,0,40,40,40,1036.1479213650746,1038.1499202807609,left,1,2,0.6452372168423608,G26N02,2022-09-02_14h41.38.487,t1_Paradigm,2021.1.4,59.96706534128246,
B,left,Pretarget,0,41,41,41,1039.6479364427505,1041.650198415853,right,0,2,1.2729166332574096,G26N02,2022-09-02_14h41.38.487,t1_Paradigm,2021.1.4,59.96706534128246,
H,left,Distractor,0,42,42,42,1043.1481741568423,1045.1485645725625,left,1,2,0.7185673635394778,G26N02,2022-09-02_14h41.38.487,t1_Paradigm,2021.1.4,59.96706534128246,
B,right,Target,0,43,43,43,1046.6480034903216,1048.6498128121602,right,1,2,0.5453648959519342,G26N02,2022-09-02_14h41.38.487,t1_Paradigm,2021.1.4,59.96706534128246,
W,left,Pretarget,0,44,44,44,1050.1478899264766,1052.1501701853122,left,1,2,0.4848536663048435,G26N02,2022-09-02_14h41.38.487,t1_Paradigm,2021.1.4,59.96706534128246,
L,left,Pretarget,0,45,45,45,1053.6480317208625,1055.649671980209,left,1,2,0.7774749052769039,G26N02,2022-09-02_14h41.38.487,t1_Paradigm,2021.1.4,59.96706534128246,
W,right,Target,0,46,46,46,1057.1479232898855,1059.149522165797,right,1,2,0.6694846961472649,G26N02,2022-09-02_14h41.38.487,t1_Paradigm,2021.1.4,59.96706534128246,
L,right,Target,0,47,47,47,1060.6479059665871,1062.650065603957,right,1,2,0.6086934065679088,G26N02,2022-09-02_14h41.38.487,t1_Paradigm,2021.1.4,59.96706534128246,
W,right,Target,0,48,48,48,1064.1479916206445,1066.1499898947368,right,1,2,0.9971291451656725,G26N02,2022-09-02_14h41.38.487,t1_Paradigm,2021.1.4,59.96706534128246,
X,left,Distractor,0,49,49,49,1067.6478982673434,1069.6498131329718,left,1,2,0.8091213560837787,G26N02,2022-09-02_14h41.38.487,t1_Paradigm,2021.1.4,59.96706534128246,
R,left,Distractor,0,50,50,50,1071.164578995813,1073.1499016742455,left,1,2,0.3972799219773151,G26N02,2022-09-02_14h41.38.487,t1_Paradigm,2021.1.4,59.96706534128246,
V,left,Pretarget,0,51,51,51,1074.6478857560724,1076.6501220650389,left,1,2,0.6086010156432167,G26N02,2022-09-02_14h41.38.487,t1_Paradigm,2021.1.4,59.96706534128246,
Z,left,Distractor,0,52,52,52,1078.1480265880236,1080.1499988771684,left,1,2,0.9329797028622124,G26N02,2022-09-02_14h41.38.487,t1_Paradigm,2021.1.4,59.96706534128246,
V,right,Target,0,53,53,53,1081.6478748488007,1083.6501547868247,right,1,2,0.6007416936336085,G26N02,2022-09-02_14h41.38.487,t1_Paradigm,2021.1.4,59.96706534128246,
V,left,Lure,0,54,54,54,1085.1478722823958,1087.1478863976663,left,1,2,0.7510806207137648,G26N02,2022-09-02_14h41.38.487,t1_Paradigm,2021.1.4,59.96706534128246,
N,left,Distractor,0,55,55,55,1088.6469547894085,1090.6501390675548,left,1,2,0.7528206493589096,G26N02,2022-09-02_14h41.38.487,t1_Paradigm,2021.1.4,59.96706534128246,
B,left,Distractor,0,56,56,56,1092.1479903374275,1094.1481218661647,left,1,2,0.7589794013183564,G26N02,2022-09-02_14h41.38.487,t1_Paradigm,2021.1.4,59.96706534128246,
V,left,Lure,0,57,57,57,1095.6479406131548,1097.6501053833636,left,1,2,0.5688331477867905,G26N02,2022-09-02_14h41.38.487,t1_Paradigm,2021.1.4,59.96706534128246,
J,left,Distractor,0,58,58,58,1099.1480358912959,1101.1498208322155,left,1,2,0.5412592751672491,G26N02,2022-09-02_14h41.38.487,t1_Paradigm,2021.1.4,59.96706534128246,
H,left,Distractor,0,59,59,59,1102.6479839214007,1104.6498827469477,left,1,2,0.7372239099931903,G26N02,2022-09-02_14h41.38.487,t1_Paradigm,2021.1.4,59.96706534128246,
X,left,Pretarget,0,60,60,60,1106.147810688446,1108.1494778951455,left,1,2,0.7895723391848151,G26N02,2022-09-02_14h41.38.487,t1_Paradigm,2021.1.4,59.96706534128246,
P,left,Distractor,0,61,61,61,1109.648006377538,1111.6483278208761,left,1,2,0.6505917188187595,G26N02,2022-09-02_14h41.38.487,t1_Paradigm,2021.1.4,59.96706534128246,
X,right,Target,0,62,62,62,1113.1478649039636,1115.1498785765143,right,1,2,0.7490063165896572,G26N02,2022-09-02_14h41.38.487,t1_Paradigm,2021.1.4,59.96706534128246,
Q,left,Distractor,0,63,63,63,1116.647868432774,1118.6498038297286,left,1,2,0.4973642928234767,G26N02,2022-09-02_14h41.38.487,t1_Paradigm,2021.1.4,59.96706534128246,
B,left,Pretarget,0,0,0,0,1132.8890584147885,1134.8827094273875,None,0,2,,G26N02,2022-09-02_14h41.38.487,t1_Paradigm,2021.1.4,59.96706534128246,
F,left,Distractor,0,1,1,1,1136.381194601534,1138.3832470911148,left,1,2,0.395846579776844,G26N02,2022-09-02_14h41.38.487,t1_Paradigm,2021.1.4,59.96706534128246,
B,right,Target,0,2,2,2,1139.8809215992515,1141.8832968153874,right,1,2,0.46391044498886913,G26N02,2022-09-02_14h41.38.487,t1_Paradigm,2021.1.4,59.96706534128246,
V,left,Distractor,0,3,3,3,1143.381287954835,1145.3831665698672,left,1,2,0.7718605539121199,G26N02,2022-09-02_14h41.38.487,t1_Paradigm,2021.1.4,59.96706534128246,
G,left,Pretarget,0,4,4,4,1146.8812013383722,1148.8835242638306,left,1,2,0.9993420356186107,G26N02,2022-09-02_14h41.38.487,t1_Paradigm,2021.1.4,59.96706534128246,
B,left,Lure,0,5,5,5,1150.381097398611,1152.3832384294656,None,0,2,,G26N02,2022-09-02_14h41.38.487,t1_Paradigm,2021.1.4,59.96706534128246,
G,right,Target,0,6,6,6,1153.8810688472586,1155.8834684443136,left,0,2,0.5916527385415975,G26N02,2022-09-02_14h41.38.487,t1_Paradigm,2021.1.4,59.96706534128246,
Y,left,Pretarget,0,7,7,7,1157.3811246667465,1159.382830048853,left,1,2,0.5320509818266146,G26N02,2022-09-02_14h41.38.487,t1_Paradigm,2021.1.4,59.96706534128246,
P,left,Distractor,0,8,8,8,1160.8812577994831,1162.8830898982706,left,1,2,0.8399394968000706,G26N02,2022-09-02_14h41.38.487,t1_Paradigm,2021.1.4,59.96706534128246,
Y,right,Target,0,9,9,9,1164.3811018898268,1166.3831601538404,right,1,2,0.4442850772466045,G26N02,2022-09-02_14h41.38.487,t1_Paradigm,2021.1.4,59.96706534128246,
X,left,Distractor,0,10,10,10,1167.8811468020722,1169.8832307302218,left,1,2,1.039773000695277,G26N02,2022-09-02_14h41.38.487,t1_Paradigm,2021.1.4,59.96706534128246,
Y,right,Target,0,11,11,11,1171.381217057642,1173.3831107503793,right,1,2,1.1079183495312463,G26N02,2022-09-02_14h41.38.487,t1_Paradigm,2021.1.4,59.96706534128246,
N,left,Distractor,0,12,12,12,1174.881210320833,1176.8817967464274,left,1,2,0.6652918173058424,G26N02,2022-09-02_14h41.38.487,t1_Paradigm,2021.1.4,59.96706534128246,
Y,right,Target,0,13,13,13,1178.3811352532066,1180.3830433819967,right,1,2,0.6678210182872135,G26N02,2022-09-02_14h41.38.487,t1_Paradigm,2021.1.4,59.96706534128246,
Y,left,Lure,0,14,14,14,1181.881110551476,1183.8811054186372,left,1,2,0.6258315983577631,G26N02,2022-09-02_14h41.38.487,t1_Paradigm,2021.1.4,59.96706534128246,
K,left,Distractor,0,15,15,15,1185.3810807169066,1187.3823892672372,left,1,2,1.0924909934983589,G26N02,2022-09-02_14h41.38.487,t1_Paradigm,2021.1.4,59.96706534128246,
T,left,Pretarget,0,16,16,16,1188.881260365888,1190.883339161228,left,1,2,0.744115693931235,G26N02,2022-09-02_14h41.38.487,t1_Paradigm,2021.1.4,59.96706534128246,
J,left,Distractor,0,17,17,17,1192.3811147219094,1194.3832332966267,left,1,2,0.5717338371905498,G26N02,2022-09-02_14h41.38.487,t1_Paradigm,2021.1.4,59.96706534128246,
T,right,Target,0,18,18,18,1195.881097398611,1197.8829179485328,right,1,2,0.5598779670253862,G26N02,2022-09-02_14h41.38.487,t1_Paradigm,2021.1.4,59.96706534128246,
S,left,Pretarget,0,19,19,19,1199.3810916241782,1201.3831806851667,left,1,2,0.8354736156761646,G26N02,2022-09-02_14h41.38.487,t1_Paradigm,2021.1.4,59.96706534128246,
R,left,Distractor,0,20,20,20,1202.8811824110744,1204.8830116226454,left,1,2,0.680070833011996,G26N02,2022-09-02_14h41.38.487,t1_Paradigm,2021.1.4,59.96706534128246,
S,right,Target,0,21,21,21,1206.3810155941464,1208.3831036927295,right,1,2,0.38019434170564637,G26N02,2022-09-02_14h41.38.487,t1_Paradigm,2021.1.4,59.96706534128246,
Q,left,Distractor,0,22,22,22,1209.8809693987132,1211.8827973270672,left,1,2,0.5445737988338806,G26N02,2022-09-02_14h41.38.487,t1_Paradigm,2021.1.4,59.96706534128246,
D,left,Distractor,0,23,23,23,1213.3810813585296,1215.3830164346728,left,1,2,1.0280146542354487,G26N02,2022-09-02_14h41.38.487,t1_Paradigm,2021.1.4,59.96706534128246,
F,left,Distractor,0,24,24,24,1216.8810781505017,1218.8830943894864,left,1,2,0.6157882580009755,G26N02,2022-09-02_14h41.38.487,t1_Paradigm,2021.1.4,59.96706534128246,
Z,left,Distractor,0,25,25,25,1220.3810682056355,1222.3833985095553,left,1,2,0.9235843820788432,G26N02,2022-09-02_14h41.38.487,t1_Paradigm,2021.1.4,59.96706534128246,
P,left,Distractor,0,26,26,26,1223.8807935993536,1225.8831633618684,left,1,2,0.4958754519466311,G26N02,2022-09-02_14h41.38.487,t1_Paradigm,2021.1.4,59.96706534128246,
H,left,Distractor,0,27,27,27,1227.3811102306645,1229.3833160634967,left,1,2,0.4515002293919679,G26N02,2022-09-02_14h41.38.487,t1_Paradigm,2021.1.4,59.96706534128246,
Z,left,Pretarget,0,28,28,28,1230.8810451079335,1232.8831155624066,left,1,2,1.1596771451295353,G26N02,2022-09-02_14h41.38.487,t1_Paradigm,2021.1.4,59.96706534128246,
J,left,Pretarget,0,29,29,29,1234.3810945113946,1236.3827132770093,left,1,2,1.10013986955164,G26N02,2022-09-02_14h41.38.487,t1_Paradigm,2021.1.4,59.96706534128246,
Z,right,Target,0,30,30,30,1237.881165087776,1239.8832490159257,left,0,2,1.1995470279362053,G26N02,2022-09-02_14h41.38.487,t1_Paradigm,2021.1.4,59.96706534128246,
J,right,Target,0,31,31,31,1241.381054731959,1243.3832766048727,right,1,2,0.5797875650750939,G26N02,2022-09-02_14h41.38.487,t1_Paradigm,2021.1.4,59.96706534128246,
V,left,Pretarget,0,32,32,32,1244.8810479951499,1246.8829740888323,left,1,2,0.6640570513845887,G26N02,2022-09-02_14h41.38.487,t1_Paradigm,2021.1.4,59.96706534128246,
Z,left,Lure,0,33,33,33,1248.3810800753126,1250.3830886150536,left,1,2,0.49189975587069057,G26N02,2022-09-02_14h41.38.487,t1_Paradigm,2021.1.4,59.96706534128246,
V,right,Target,0,34,34,34,1251.881067884853,1253.8829830712639,right,1,2,0.5921522268617991,G26N02,2022-09-02_14h41.38.487,t1_Paradigm,2021.1.4,59.96706534128246,
X,left,Distractor,0,35,35,35,1255.3811634837766,1257.3829849960748,left,1,2,0.48381972225615755,G26N02,2022-09-02_14h41.38.487,t1_Paradigm,2021.1.4,59.96706534128246,
S,left,Distractor,0,36,36,36,1258.8810406166886,1260.8829314222094,left,1,2,0.8080136276548728,G26N02,2022-09-02_14h41.38.487,t1_Paradigm,2021.1.4,59.96706534128246,
Q,left,Distractor,0,37,37,37,1262.3810595439863,1264.3827062193595,left,1,2,0.58813835537876,G26N02,2022-09-02_14h41.38.487,t1_Paradigm,2021.1.4,59.96706534128246,
P,left,Distractor,0,38,38,38,1265.881138140423,1267.883063271729,left,1,2,0.6238381362927612,G26N02,2022-09-02_14h41.38.487,t1_Paradigm,2021.1.4,59.96706534128246,
S,left,Lure,0,39,39,39,1269.3811785614525,1271.3832239933836,left,1,2,0.43557370582129806,G26N02,2022-09-02_14h41.38.487,t1_Paradigm,2021.1.4,59.96706534128246,
K,left,Pretarget,0,40,40,40,1272.8809411681432,1274.883102730324,left,1,2,1.2238214545650408,G26N02,2022-09-02_14h41.38.487,t1_Paradigm,2021.1.4,59.96706534128246,
L,left,Distractor,0,41,41,41,1276.3811246667465,1278.3830703293497,left,1,2,0.6357373147038743,G26N02,2022-09-02_14h41.38.487,t1_Paradigm,2021.1.4,59.96706534128246,
K,right,Target,0,42,42,42,1279.881084245746,1281.8830379283754,right,1,2,0.3996878598991316,G26N02,2022-09-02_14h41.38.487,t1_Paradigm,2021.1.4,59.96706534128246,
B,left,Distractor,0,43,43,43,1283.3809973084717,1285.3829853168863,left,1,2,0.9641943545138929,G26N02,2022-09-02_14h41.38.487,t1_Paradigm,2021.1.4,59.96706534128246,
N,left,Distractor,0,44,44,44,1286.8809299400891,1288.882608695625,left,1,2,0.5681864114885684,G26N02,2022-09-02_14h41.38.487,t1_Paradigm,2021.1.4,59.96706534128246,
S,left,Pretarget,0,45,45,45,1290.3808644965466,1292.3831935172202,left,1,2,0.5397136523679364,G26N02,2022-09-02_14h41.38.487,t1_Paradigm,2021.1.4,59.96706534128246,
Z,left,Distractor,0,46,46,46,1293.8810062909033,1295.8833940183104,left,1,2,0.4955527253623586,G26N02,2022-09-02_14h41.38.487,t1_Paradigm,2021.1.4,59.96706534128246,
S,right,Target,0,47,47,47,1297.3807865417039,1299.3830780285934,right,1,2,0.5317449369467795,G26N02,2022-09-02_14h41.38.487,t1_Paradigm,2021.1.4,59.96706534128246,
C,left,Distractor,0,48,48,48,1300.8809960252547,1302.883092143864,left,1,2,0.9996820854430553,G26N02,2022-09-02_14h41.38.487,t1_Paradigm,2021.1.4,59.96706534128246,
T,left,Pretarget,0,49,49,49,1304.3810030829045,1306.383279492089,left,1,2,0.7956929157371633,G26N02,2022-09-02_14h41.38.487,t1_Paradigm,2021.1.4,59.96706534128246,
S,left,Lure,0,50,50,50,1307.881052807148,1309.8832429206814,left,1,2,0.9277050805394538,G26N02,2022-09-02_14h41.38.487,t1_Paradigm,2021.1.4,59.96706534128246,
T,right,Target,0,51,51,51,1311.3809520754148,1313.3813649472722,right,1,2,0.5173765474755783,G26N02,2022-09-02_14h41.38.487,t1_Paradigm,2021.1.4,59.96706534128246,
N,left,Pretarget,0,52,52,52,1314.8810094989312,1316.8821573275782,left,1,2,0.5366172739013564,G26N02,2022-09-02_14h41.38.487,t1_Paradigm,2021.1.4,59.96706534128246,
B,left,Distractor,0,53,53,53,1318.381094832177,1320.3830562140793,left,1,2,1.1480609138379805,G26N02,2022-09-02_14h41.38.487,t1_Paradigm,2021.1.4,59.96706534128246,
N,right,Target,0,54,54,54,1321.881111834693,1323.8830478732416,right,1,2,0.5597018468542956,G26N02,2022-09-02_14h41.38.487,t1_Paradigm,2021.1.4,59.96706534128246,
N,left,Lure,0,55,55,55,1325.3810066117148,1327.3810332382564,left,1,2,0.7418258110701572,G26N02,2022-09-02_14h41.38.487,t1_Paradigm,2021.1.4,59.96706534128246,
X,left,Distractor,0,56,56,56,1328.881067884853,1330.8830995223252,left,1,2,0.8717691253987141,G26N02,2022-09-02_14h41.38.487,t1_Paradigm,2021.1.4,59.96706534128246,
W,left,Distractor,0,57,57,57,1332.3809697194956,1334.3830873318366,left,1,2,0.5877633381460328,G26N02,2022-09-02_14h41.38.487,t1_Paradigm,2021.1.4,59.96706534128246,
S,left,Distractor,0,58,58,58,1335.880957529036,1337.897645635967,left,1,2,0.44927739404374734,G26N02,2022-09-02_14h41.38.487,t1_Paradigm,2021.1.4,59.96706534128246,
L,left,Distractor,0,59,59,59,1339.38094950901,1341.3827902694175,left,1,2,0.612051559262909,G26N02,2022-09-02_14h41.38.487,t1_Paradigm,2021.1.4,59.96706534128246,
K,left,Pretarget,0,60,60,60,1342.880948867387,1344.8822429816355,left,1,2,0.40851985281915404,G26N02,2022-09-02_14h41.38.487,t1_Paradigm,2021.1.4,59.96706534128246,
V,left,Pretarget,0,61,61,61,1346.3810245766072,1348.3829602943442,left,1,2,0.4279889900935814,G26N02,2022-09-02_14h41.38.487,t1_Paradigm,2021.1.4,59.96706534128246,
K,right,Target,0,62,62,62,1349.8807996945689,1351.8833013066032,right,1,2,0.81541003275197,G26N02,2022-09-02_14h41.38.487,t1_Paradigm,2021.1.4,59.96706534128246,
V,right,Target,0,63,63,63,1353.3807733888389,1355.383226239006,left,0,2,0.6754320397449192,G26N02,2022-09-02_14h41.38.487,t1_Paradigm,2021.1.4,59.96706534128246,
R,left,Distractor,0,0,0,0,1465.459644423332,1467.466610312491,None,0,3,,G26N02,2022-09-02_14h41.38.487,t1_Paradigm,2021.1.4,59.96706534128246,
P,left,Lure,0,1,1,1,1468.964083357103,1470.9658413506986,None,0,3,,G26N02,2022-09-02_14h41.38.487,t1_Paradigm,2021.1.4,59.96706534128246,
V,left,Distractor,0,2,2,2,1472.4643505849817,1474.466185891768,None,0,3,,G26N02,2022-09-02_14h41.38.487,t1_Paradigm,2021.1.4,59.96706534128246,
P,left,Pretarget,0,3,3,3,1475.964001231856,1477.9664794253767,left,1,3,1.1001668169046752,G26N02,2022-09-02_14h41.38.487,t1_Paradigm,2021.1.4,59.96706534128246,
Z,left,Distractor,0,4,4,4,1479.4641269861604,1481.4665313952428,left,1,3,1.280507765011862,G26N02,2022-09-02_14h41.38.487,t1_Paradigm,2021.1.4,59.96706534128246,
L,left,Pretarget,0,5,5,5,1482.9640070062887,1484.9661980822275,None,0,3,,G26N02,2022-09-02_14h41.38.487,t1_Paradigm,2021.1.4,59.96706534128246,
P,right,Target,0,6,6,6,1486.464177352027,1488.463358665962,right,1,3,0.9552921060239896,G26N02,2022-09-02_14h41.38.487,t1_Paradigm,2021.1.4,59.96706534128246,
S,left,Distractor,0,7,7,7,1489.9642373419483,1491.9632293828472,left,1,3,0.7837831508368254,G26N02,2022-09-02_14h41.38.487,t1_Paradigm,2021.1.4,59.96706534128246,
L,right,Target,0,8,8,8,1493.4640875275363,1495.4660832351947,right,1,3,1.2967496366763953,G26N02,2022-09-02_14h41.38.487,t1_Paradigm,2021.1.4,59.96706534128246,
D,left,Distractor,0,9,9,9,1496.9641362894035,1498.9662304832018,left,1,3,0.6286203279159963,G26N02,2022-09-02_14h41.38.487,t1_Paradigm,2021.1.4,59.96706534128246,
G,left,Distractor,0,10,10,10,1500.4641343645926,1502.4662830946909,left,1,3,0.8724466587009374,G26N02,2022-09-02_14h41.38.487,t1_Paradigm,2021.1.4,59.96706534128246,
M,left,Pretarget,0,11,11,11,1503.964099076402,1505.9659610097297,left,1,3,1.1006759292795323,G26N02,2022-09-02_14h41.38.487,t1_Paradigm,2021.1.4,59.96706534128246,
Y,left,Distractor,0,12,12,12,1507.4641369309975,1509.466499956674,left,1,3,1.3442462602397427,G26N02,2022-09-02_14h41.38.487,t1_Paradigm,2021.1.4,59.96706534128246,
V,left,Distractor,0,13,13,13,1510.964126023755,1512.9664977110515,left,1,3,0.5963053262967151,G26N02,2022-09-02_14h41.38.487,t1_Paradigm,2021.1.4,59.96706534128246,
M,right,Target,0,14,14,14,1514.4641276277544,1516.4660537214368,right,1,3,0.8566670623258688,G26N02,2022-09-02_14h41.38.487,t1_Paradigm,2021.1.4,59.96706534128246,
S,left,Pretarget,0,15,15,15,1517.9641728608112,1519.9657983632642,left,1,3,0.6848321725556161,G26N02,2022-09-02_14h41.38.487,t1_Paradigm,2021.1.4,59.96706534128246,
Q,left,Distractor,0,16,16,16,1521.4642646101129,1523.4660270948953,left,1,3,0.9609529736626428,G26N02,2022-09-02_14h41.38.487,t1_Paradigm,2021.1.4,59.96706534128246,
R,left,Pretarget,0,17,17,17,1524.9640881691303,1526.9663661823433,None,0,3,,G26N02,2022-09-02_14h41.38.487,t1_Paradigm,2021.1.4,59.96706534128246,
S,right,Target,0,18,18,18,1528.4640127807215,1530.4654573510052,None,0,3,,G26N02,2022-09-02_14h41.38.487,t1_Paradigm,2021.1.4,59.96706534128246,
F,left,Distractor,0,19,19,19,1531.9641087004566,1533.9660274157068,left,1,3,0.6686823709751479,G26N02,2022-09-02_14h41.38.487,t1_Paradigm,2021.1.4,59.96706534128246,
R,right,Target,0,20,20,20,1535.464153612702,1537.4663767688035,left,0,3,0.8002040299179498,G26N02,2022-09-02_14h41.38.487,t1_Paradigm,2021.1.4,59.96706534128246,
P,left,Distractor,0,21,21,21,1538.9639085201488,1540.966127505846,left,1,3,0.8524927899998147,G26N02,2022-09-02_14h41.38.487,t1_Paradigm,2021.1.4,59.96706534128246,
L,left,Distractor,0,22,22,22,1542.4640621841827,1544.4664354755369,left,1,3,0.6481767232471611,G26N02,2022-09-02_14h41.38.487,t1_Paradigm,2021.1.4,59.96706534128246,
R,right,Target,0,23,23,23,1545.964099076402,1547.9662125183095,right,1,3,0.7323929565027356,G26N02,2022-09-02_14h41.38.487,t1_Paradigm,2021.1.4,59.96706534128246,
H,left,Pretarget,0,24,24,24,1549.4641625951335,1551.4659985435428,left,1,3,1.3607296956470236,G26N02,2022-09-02_14h41.38.487,t1_Paradigm,2021.1.4,59.96706534128246,
G,left,Pretarget,0,25,25,25,1552.9640615425888,1554.9661124281702,left,1,3,1.2364963316358626,G26N02,2022-09-02_14h41.38.487,t1_Paradigm,2021.1.4,59.96706534128246,
T,left,Distractor,0,26,26,26,1556.4640381240752,1558.4661291098455,left,1,3,0.6646056223544292,G26N02,2022-09-02_14h41.38.487,t1_Paradigm,2021.1.4,59.96706534128246,
H,right,Target,0,27,27,27,1559.964028820803,1561.9662779618811,right,1,3,1.1964718223607633,G26N02,2022-09-02_14h41.38.487,t1_Paradigm,2021.1.4,59.96706534128246,
G,right,Target,0,28,28,28,1563.4640002694505,1565.4661092201422,right,1,3,0.7362554095161613,G26N02,2022-09-02_14h41.38.487,t1_Paradigm,2021.1.4,59.96706534128246,
D,left,Distractor,0,29,29,29,1566.9641994873527,1568.9656645889336,left,1,3,0.6928907124674879,G26N02,2022-09-02_14h41.38.487,t1_Paradigm,2021.1.4,59.96706534128246,
N,left,Pretarget,0,30,30,30,1570.4639970614517,1572.4658307642385,left,1,3,0.6167166582890786,G26N02,2022-09-02_14h41.38.487,t1_Paradigm,2021.1.4,59.96706534128246,
V,left,Distractor,0,31,31,31,1573.9641051716171,1575.9654791655194,left,1,3,0.4930636245990172,G26N02,2022-09-02_14h41.38.487,t1_Paradigm,2021.1.4,59.96706534128246,
R,left,Distractor,0,32,32,32,1577.4641603495402,1579.4659517064865,left,1,3,0.4809264113137033,G26N02,2022-09-02_14h41.38.487,t1_Paradigm,2021.1.4,59.96706534128246,
N,right,Target,0,33,33,33,1580.9640926603752,1582.9768095624459,left,0,3,0.6817476637661457,G26N02,2022-09-02_14h41.38.487,t1_Paradigm,2021.1.4,59.96706534128246,
Z,left,Distractor,0,34,34,34,1584.4640390864806,1586.463170034549,left,1,3,0.5394169107312337,G26N02,2022-09-02_14h41.38.487,t1_Paradigm,2021.1.4,59.96706534128246,
N,left,Lure,0,35,35,35,1587.9640721290489,1589.965747676586,left,1,3,1.1007869266613852,G26N02,2022-09-02_14h41.38.487,t1_Paradigm,2021.1.4,59.96706534128246,
Y,left,Pretarget,0,36,36,36,1591.464011818316,1593.4656507944455,left,1,3,0.5768608907237649,G26N02,2022-09-02_14h41.38.487,t1_Paradigm,2021.1.4,59.96706534128246,
Y,left,Lure,0,37,37,37,1594.9640625049942,1596.9641828056483,left,1,3,0.9183395942964125,G26N02,2022-09-02_14h41.38.487,t1_Paradigm,2021.1.4,59.96706534128246,
B,left,Distractor,0,38,38,38,1598.4640589761839,1600.4659712754074,left,1,3,0.5845992704853415,G26N02,2022-09-02_14h41.38.487,t1_Paradigm,2021.1.4,59.96706534128246,
Y,right,Target,0,39,39,39,1601.9641709360003,1603.9659561977023,None,0,3,,G26N02,2022-09-02_14h41.38.487,t1_Paradigm,2021.1.4,59.96706534128246,
J,left,Distractor,0,40,40,40,1605.4642177730566,1607.4660556462477,left,1,3,0.9446475832373835,G26N02,2022-09-02_14h41.38.487,t1_Paradigm,2021.1.4,59.96706534128246,
X,left,Distractor,0,41,41,41,1608.9639778133424,1610.966035435733,left,1,3,0.7886304652492981,G26N02,2022-09-02_14h41.38.487,t1_Paradigm,2021.1.4,59.96706534128246,
W,left,Pretarget,0,42,42,42,1612.4640323496424,1614.4662571097433,left,1,3,0.680619083228521,G26N02,2022-09-02_14h41.38.487,t1_Paradigm,2021.1.4,59.96706534128246,
S,left,Pretarget,0,43,43,43,1615.96397556772,1617.9660928592493,left,1,3,0.780755423969822,G26N02,2022-09-02_14h41.38.487,t1_Paradigm,2021.1.4,59.96706534128246,
R,left,Distractor,0,44,44,44,1619.4640933019691,1621.4657223332324,left,1,3,0.640960929566063,G26N02,2022-09-02_14h41.38.487,t1_Paradigm,2021.1.4,59.96706534128246,
W,right,Target,0,45,45,45,1622.9639778133424,1624.9661923077947,right,1,3,0.40435167570831254,G26N02,2022-09-02_14h41.38.487,t1_Paradigm,2021.1.4,59.96706534128246,
S,right,Target,0,46,46,46,1626.4640487105353,1628.4772930106847,None,0,3,,G26N02,2022-09-02_14h41.38.487,t1_Paradigm,2021.1.4,59.96706534128246,
D,left,Distractor,0,47,47,47,1629.9640076479118,1631.9657893808035,left,1,3,0.6208052765286993,G26N02,2022-09-02_14h41.38.487,t1_Paradigm,2021.1.4,59.96706534128246,
T,left,Distractor,0,48,48,48,1633.4639864749915,1635.464408008469,left,1,3,0.562684019911103,G26N02,2022-09-02_14h41.38.487,t1_Paradigm,2021.1.4,59.96706534128246,
S,right,Target,0,49,49,49,1636.9639540740172,1638.9662577513664,right,1,3,0.7084220082615502,G26N02,2022-09-02_14h41.38.487,t1_Paradigm,2021.1.4,59.96706534128246,
K,left,Distractor,0,50,50,50,1640.4640791866987,1642.465518303332,left,1,3,1.049001825362211,G26N02,2022-09-02_14h41.38.487,t1_Paradigm,2021.1.4,59.96706534128246,
S,left,Lure,0,51,51,51,1643.9640596177778,1645.966227275203,right,0,3,1.0843875413411297,G26N02,2022-09-02_14h41.38.487,t1_Paradigm,2021.1.4,59.96706534128246,
T,left,Pretarget,0,52,52,52,1647.4640862443193,1649.4660136212187,right,0,3,0.9287335709377658,G26N02,2022-09-02_14h41.38.487,t1_Paradigm,2021.1.4,59.96706534128246,
V,left,Distractor,0,53,53,53,1650.9639864749915,1652.965488789574,left,1,3,0.5812715939537156,G26N02,2022-09-02_14h41.38.487,t1_Paradigm,2021.1.4,59.96706534128246,
B,left,Distractor,0,54,54,54,1654.4639438083395,1656.4657678871008,left,1,3,0.6649062136129942,G26N02,2022-09-02_14h41.38.487,t1_Paradigm,2021.1.4,59.96706534128246,
T,right,Target,0,55,55,55,1657.964041332074,1659.9662478065002,right,1,3,1.212421122851083,G26N02,2022-09-02_14h41.38.487,t1_Paradigm,2021.1.4,59.96706534128246,
Y,left,Pretarget,0,56,56,56,1661.463999307045,1663.465937591216,left,1,3,1.1046028634882532,G26N02,2022-09-02_14h41.38.487,t1_Paradigm,2021.1.4,59.96706534128246,
T,left,Lure,0,57,57,57,1664.963072831597,1666.9661534907937,left,1,3,1.2523878877982497,G26N02,2022-09-02_14h41.38.487,t1_Paradigm,2021.1.4,59.96706534128246,
P,left,Pretarget,0,58,58,58,1668.463934825908,1670.4654425941117,left,1,3,0.889139577629976,G26N02,2022-09-02_14h41.38.487,t1_Paradigm,2021.1.4,59.96706534128246,
Y,right,Target,0,59,59,59,1671.9640718082373,1673.9659456112713,left,0,3,1.3246905065025203,G26N02,2022-09-02_14h41.38.487,t1_Paradigm,2021.1.4,59.96706534128246,
R,left,Distractor,0,60,60,60,1675.4638892720686,1677.4659751250292,left,1,3,0.6885300543217454,G26N02,2022-09-02_14h41.38.487,t1_Paradigm,2021.1.4,59.96706534128246,
P,right,Target,0,61,61,61,1678.9641013220244,1680.9658638068067,right,1,3,0.4687292080197949,G26N02,2022-09-02_14h41.38.487,t1_Paradigm,2021.1.4,59.96706534128246,
L,left,Distractor,0,62,62,62,1682.4639319386915,1684.4661974406336,left,1,3,0.6002896839636378,G26N02,2022-09-02_14h41.38.487,t1_Paradigm,2021.1.4,59.96706534128246,
V,left,Distractor,0,63,63,63,1685.9639983446395,1687.9663308941526,left,1,3,0.5085121535812505,G26N02,2022-09-02_14h41.38.487,t1_Paradigm,2021.1.4,59.96706534128246,
H,left,Lure,0,0,0,0,1705.559398047597,1707.548692251672,None,0,3,,G26N02,2022-09-02_14h41.38.487,t1_Paradigm,2021.1.4,59.96706534128246,
B,left,Distractor,0,1,1,1,1709.0473464883398,1711.0489610835211,left,1,3,0.3215354213025421,G26N02,2022-09-02_14h41.38.487,t1_Paradigm,2021.1.4,59.96706534128246,
T,left,Distractor,0,2,2,2,1712.5472255460627,1714.5495734940632,left,1,3,0.8690554634376895,G26N02,2022-09-02_14h41.38.487,t1_Paradigm,2021.1.4,59.96706534128246,
R,left,Distractor,0,3,3,3,1716.0473471299338,1718.0497107972042,left,1,3,0.5848315309558529,G26N02,2022-09-02_14h41.38.487,t1_Paradigm,2021.1.4,59.96706534128246,
H,left,Pretarget,0,4,4,4,1719.5473480923392,1721.5495167121408,left,1,3,0.3971490348922089,G26N02,2022-09-02_14h41.38.487,t1_Paradigm,2021.1.4,59.96706534128246,
K,left,Distractor,0,5,5,5,1723.0472496061993,1725.0493110782409,left,1,3,1.0892778431880288,G26N02,2022-09-02_14h41.38.487,t1_Paradigm,2021.1.4,59.96706534128246,
G,left,Distractor,0,6,6,6,1726.5472739871475,1728.5482450540294,left,1,3,0.9502016238984652,G26N02,2022-09-02_14h41.38.487,t1_Paradigm,2021.1.4,59.96706534128246,
H,right,Target,0,7,7,7,1730.0472489646054,1732.048679740401,right,1,3,0.5697958738601301,G26N02,2022-09-02_14h41.38.487,t1_Paradigm,2021.1.4,59.96706534128246,
Y,left,Pretarget,0,8,8,8,1733.547310558526,1735.5493088326184,left,1,3,0.5734129135671537,G26N02,2022-09-02_14h41.38.487,t1_Paradigm,2021.1.4,59.96706534128246,
S,left,Distractor,0,9,9,9,1737.0472287540906,1739.0494628174638,left,1,3,0.4812048672174569,G26N02,2022-09-02_14h41.38.487,t1_Paradigm,2021.1.4,59.96706534128246,
P,left,Distractor,0,10,10,10,1740.5474029494508,1742.5478126132803,left,1,3,0.7266910262114834,G26N02,2022-09-02_14h41.38.487,t1_Paradigm,2021.1.4,59.96706534128246,
Y,right,Target,0,11,11,11,1744.0472964432556,1746.0487477503775,right,1,3,1.0016989660507534,G26N02,2022-09-02_14h41.38.487,t1_Paradigm,2021.1.4,59.96706534128246,
H,left,Lure,0,12,12,12,1747.547326277825,1749.5489986173343,left,1,3,0.7012033273640554,G26N02,2022-09-02_14h41.38.487,t1_Paradigm,2021.1.4,59.96706534128246,
Q,left,Distractor,0,13,13,13,1751.047299330472,1753.048896602384,left,1,3,1.1695815782877617,G26N02,2022-09-02_14h41.38.487,t1_Paradigm,2021.1.4,59.96706534128246,
V,left,Pretarget,0,14,14,14,1754.5470725236228,1756.5479495956097,left,1,3,0.9988743066496681,G26N02,2022-09-02_14h41.38.487,t1_Paradigm,2021.1.4,59.96706534128246,
G,left,Distractor,0,15,15,15,1758.047215280414,1760.0491458653414,left,1,3,1.4493069078307599,G26N02,2022-09-02_14h41.38.487,t1_Paradigm,2021.1.4,59.96706534128246,
Z,left,Pretarget,0,16,16,16,1761.5472293956846,1763.5493421959982,left,1,3,1.1170807682792656,G26N02,2022-09-02_14h41.38.487,t1_Paradigm,2021.1.4,59.96706534128246,
V,right,Target,0,17,17,17,1765.0472188092244,1767.049338025594,right,1,3,0.6412233453884255,G26N02,2022-09-02_14h41.38.487,t1_Paradigm,2021.1.4,59.96706534128246,
N,left,Distractor,0,18,18,18,1768.547220413253,1770.5490618152835,left,1,3,0.9333367552317213,G26N02,2022-09-02_14h41.38.487,t1_Paradigm,2021.1.4,59.96706534128246,
Z,right,Target,0,19,19,19,1772.0473779269087,1774.0488141563255,left,0,3,1.2737333944824059,G26N02,2022-09-02_14h41.38.487,t1_Paradigm,2021.1.4,59.96706534128246,
R,left,Distractor,0,20,20,20,1775.5472662879038,1777.5493146070512,left,1,3,1.245324795745546,G26N02,2022-09-02_14h41.38.487,t1_Paradigm,2021.1.4,59.96706534128246,
P,left,Distractor,0,21,21,21,1779.047205335548,1781.0492193289392,left,1,3,1.2171952944772784,G26N02,2022-09-02_14h41.38.487,t1_Paradigm,2021.1.4,59.96706534128246,
Z,right,Target,0,22,22,22,1782.5471678017639,1784.5491256548266,left,0,3,1.3814769070886541,G26N02,2022-09-02_14h41.38.487,t1_Paradigm,2021.1.4,59.96706534128246,
D,left,Pretarget,0,23,23,23,1786.0471944283054,1788.049276431644,left,1,3,0.5372489325236529,G26N02,2022-09-02_14h41.38.487,t1_Paradigm,2021.1.4,59.96706534128246,
K,left,Distractor,0,24,24,24,1789.547218488442,1791.54929150932,left,1,3,0.52538343827473,G26N02,2022-09-02_14h41.38.487,t1_Paradigm,2021.1.4,59.96706534128246,
W,left,Distractor,0,25,25,25,1793.0473176161759,1795.0494705167075,left,1,3,0.6570507411961444,G26N02,2022-09-02_14h41.38.487,t1_Paradigm,2021.1.4,59.96706534128246,
D,right,Target,0,26,26,26,1796.546970829484,1798.5489277201414,right,1,3,0.7414187136455439,G26N02,2022-09-02_14h41.38.487,t1_Paradigm,2021.1.4,59.96706534128246,
G,left,Pretarget,0,27,27,27,1800.0471536864934,1802.0492902261321,left,1,3,0.9691083956859075,G26N02,2022-09-02_14h41.38.487,t1_Paradigm,2021.1.4,59.96706534128246,
V,left,Distractor,0,28,28,28,1803.547120643896,1805.5493386671878,left,1,3,1.2292231144092511,G26N02,2022-09-02_14h41.38.487,t1_Paradigm,2021.1.4,59.96706534128246,
D,right,Target,0,29,29,29,1807.0472691751202,1809.0489094344375,right,1,3,0.9296366278431378,G26N02,2022-09-02_14h41.38.487,t1_Paradigm,2021.1.4,59.96706534128246,
G,right,Target,0,30,30,30,1810.5472553806321,1812.5491740958823,right,1,3,1.3012514476140495,G26N02,2022-09-02_14h41.38.487,t1_Paradigm,2021.1.4,59.96706534128246,
B,left,Pretarget,0,31,31,31,1814.0472800823627,1816.0493174942676,left,1,3,0.9531029548961669,G26N02,2022-09-02_14h41.38.487,t1_Paradigm,2021.1.4,59.96706534128246,
N,left,Distractor,0,32,32,32,1817.5469499773753,1819.549100953096,left,1,3,0.8614556700049434,G26N02,2022-09-02_14h41.38.487,t1_Paradigm,2021.1.4,59.96706534128246,
F,left,Distractor,0,33,33,33,1821.047110699059,1823.0490974242566,left,1,3,0.9779516166890971,G26N02,2022-09-02_14h41.38.487,t1_Paradigm,2021.1.4,59.96706534128246,
B,right,Target,0,34,34,34,1824.5471819170343,1826.54930915343,right,1,3,0.46908305236138403,G26N02,2022-09-02_14h41.38.487,t1_Paradigm,2021.1.4,59.96706534128246,
Q,left,Pretarget,0,35,35,35,1828.0471742177906,1830.0492295945878,left,1,3,0.7293273749819491,G26N02,2022-09-02_14h41.38.487,t1_Paradigm,2021.1.4,59.96706534128246,
S,left,Pretarget,0,36,36,36,1831.5472396613332,1833.5488215347577,left,1,3,1.0695786910655443,G26N02,2022-09-02_14h41.38.487,t1_Paradigm,2021.1.4,59.96706534128246,
W,left,Distractor,0,37,37,37,1835.0471732553851,1837.0487823969452,left,1,3,0.7856001719483174,G26N02,2022-09-02_14h41.38.487,t1_Paradigm,2021.1.4,59.96706534128246,
Q,right,Target,0,38,38,38,1838.5472390197392,1840.5495407722774,left,0,3,0.66092249751091,G26N02,2022-09-02_14h41.38.487,t1_Paradigm,2021.1.4,59.96706534128246,
S,right,Target,0,39,39,39,1842.0471700473572,1844.0493306471326,right,1,3,0.9210583891253918,G26N02,2022-09-02_14h41.38.487,t1_Paradigm,2021.1.4,59.96706534128246,
T,left,Distractor,0,40,40,40,1845.547204693954,1847.5491513189627,left,1,3,1.0053208177851047,G26N02,2022-09-02_14h41.38.487,t1_Paradigm,2021.1.4,59.96706534128246,
G,left,Distractor,0,41,41,41,1849.0471517616825,1851.0488876199233,left,1,3,0.5934097697027028,G26N02,2022-09-02_14h41.38.487,t1_Paradigm,2021.1.4,59.96706534128246,
D,left,Distractor,0,42,42,42,1852.5471591401147,1854.549211308884,left,1,3,0.5975333553506061,G26N02,2022-09-02_14h41.38.487,t1_Paradigm,2021.1.4,59.96706534128246,
S,left,Lure,0,43,43,43,1856.047323711391,1858.0488330836233,left,1,3,0.889645161194494,G26N02,2022-09-02_14h41.38.487,t1_Paradigm,2021.1.4,59.96706534128246,
Z,left,Pretarget,0,44,44,44,1859.5471354007896,1861.5491445821244,left,1,3,0.7010031470854301,G26N02,2022-09-02_14h41.38.487,t1_Paradigm,2021.1.4,59.96706534128246,
J,left,Distractor,0,45,45,45,1863.0474789794534,1865.0492876596982,left,1,3,1.2650701433012728,G26N02,2022-09-02_14h41.38.487,t1_Paradigm,2021.1.4,59.96706534128246,
M,left,Pretarget,0,46,46,46,1866.5471405335993,1868.5491317500419,left,1,3,0.8692335083906073,G26N02,2022-09-02_14h41.38.487,t1_Paradigm,2021.1.4,59.96706534128246,
Z,right,Target,0,47,47,47,1870.0471296263568,1872.0490557200392,right,1,3,0.8413875958649442,G26N02,2022-09-02_14h41.38.487,t1_Paradigm,2021.1.4,59.96706534128246,
P,left,Distractor,0,48,48,48,1873.5470170249464,1875.548594407126,left,1,3,1.3898568903387059,G26N02,2022-09-02_14h41.38.487,t1_Paradigm,2021.1.4,59.96706534128246,
M,right,Target,0,49,49,49,1877.0471825586283,1879.0492668075894,left,0,3,1.1690994132659398,G26N02,2022-09-02_14h41.38.487,t1_Paradigm,2021.1.4,59.96706534128246,
K,left,Distractor,0,50,50,50,1880.547098187788,1882.5486864772392,left,1,3,1.013807948824251,G26N02,2022-09-02_14h41.38.487,t1_Paradigm,2021.1.4,59.96706534128246,
Y,left,Distractor,0,51,51,51,1884.0471556112752,1886.048854577355,left,1,3,0.8256856335210614,G26N02,2022-09-02_14h41.38.487,t1_Paradigm,2021.1.4,59.96706534128246,
X,left,Distractor,0,52,52,52,1887.54690506513,1889.5484263070102,left,1,3,0.6856855052174069,G26N02,2022-09-02_14h41.38.487,t1_Paradigm,2021.1.4,59.96706534128246,
F,left,Pretarget,0,53,53,53,1891.047120643896,1893.0491282212315,left,1,3,0.4975850044284016,G26N02,2022-09-02_14h41.38.487,t1_Paradigm,2021.1.4,59.96706534128246,
M,left,Lure,0,54,54,54,1894.5471880122786,1896.5492712988053,right,0,3,1.1891751866205595,G26N02,2022-09-02_14h41.38.487,t1_Paradigm,2021.1.4,59.96706534128246,
V,left,Distractor,0,55,55,55,1898.047119360679,1900.0486560010759,None,0,3,,G26N02,2022-09-02_14h41.38.487,t1_Paradigm,2021.1.4,59.96706534128246,
F,right,Target,0,56,56,56,1901.547188333061,1903.5462377974764,left,0,3,0.7199529063072987,G26N02,2022-09-02_14h41.38.487,t1_Paradigm,2021.1.4,59.96706534128246,
S,left,Distractor,0,57,57,57,1905.0471969947102,1907.0489822564414,left,1,3,0.6414318665338214,G26N02,2022-09-02_14h41.38.487,t1_Paradigm,2021.1.4,59.96706534128246,
D,left,Distractor,0,58,58,58,1908.5470853557053,1910.5490971034742,left,1,3,0.5331834119861014,G26N02,2022-09-02_14h41.38.487,t1_Paradigm,2021.1.4,59.96706534128246,
F,right,Target,0,59,59,59,1912.0470978669764,1914.0492068176682,None,0,3,,G26N02,2022-09-02_14h41.38.487,t1_Paradigm,2021.1.4,59.96706534128246,
V,left,Pretarget,0,60,60,60,1915.5462464591255,1917.5477199015731,left,1,3,0.7023543640389107,G26N02,2022-09-02_14h41.38.487,t1_Paradigm,2021.1.4,59.96706534128246,
J,left,Distractor,0,61,61,61,1919.047178388224,1921.0492202913447,left,1,3,1.153085952391848,G26N02,2022-09-02_14h41.38.487,t1_Paradigm,2021.1.4,59.96706534128246,
V,left,Lure,0,62,62,62,1922.5472412653617,1924.5492299153993,right,0,3,0.9010596081789117,G26N02,2022-09-02_14h41.38.487,t1_Paradigm,2021.1.4,59.96706534128246,
V,right,Target,0,63,63,63,1926.047259871848,1928.0472396613332,left,0,3,0.8591561630601063,G26N02,2022-09-02_14h41.38.487,t1_Paradigm,2021.1.4,59.96706534128246,
R,left,Distractor,0,0,0,0,2015.47391208107,2017.4657399773423,None,0,4,,G26N02,2022-09-02_14h41.38.487,t1_Paradigm,2021.1.4,59.96706534128246,
F,left,Distractor,0,1,1,1,2018.9636412922991,2020.965664909716,left,1,4,0.4845501878007781,G26N02,2022-09-02_14h41.38.487,t1_Paradigm,2021.1.4,59.96706534128246,
P,left,Pretarget,0,2,2,2,2022.4637664049806,2024.466049230221,left,1,4,0.47229588188929483,G26N02,2022-09-02_14h41.38.487,t1_Paradigm,2021.1.4,59.96706534128246,
H,left,Distractor,0,3,3,3,2025.963658294786,2027.9653136318084,left,1,4,0.8130774832388852,G26N02,2022-09-02_14h41.38.487,t1_Paradigm,2021.1.4,59.96706534128246,
Z,left,Distractor,0,4,4,4,2029.4636085705133,2031.4644827552838,left,1,4,0.5138528610696085,G26N02,2022-09-02_14h41.38.487,t1_Paradigm,2021.1.4,59.96706534128246,
T,left,Distractor,0,5,5,5,2032.9636226858129,2034.9659494608932,left,1,4,0.596644092904171,G26N02,2022-09-02_14h41.38.487,t1_Paradigm,2021.1.4,59.96706534128246,
P,right,Target,0,6,6,6,2036.4637862946838,2038.4657005187182,right,1,4,1.4485219059279189,G26N02,2022-09-02_14h41.38.487,t1_Paradigm,2021.1.4,59.96706534128246,
G,left,Distractor,0,7,7,7,2039.9635748863511,2041.9651907647494,left,1,4,0.8611531539645512,G26N02,2022-09-02_14h41.38.487,t1_Paradigm,2021.1.4,59.96706534128246,
L,left,Distractor,0,8,8,8,2043.4637099438696,2045.4652857220499,left,1,4,0.7687378696864471,G26N02,2022-09-02_14h41.38.487,t1_Paradigm,2021.1.4,59.96706534128246,
P,left,Lure,0,9,9,9,2046.9636255730293,2048.9653761881636,left,1,4,1.4449533073056955,G26N02,2022-09-02_14h41.38.487,t1_Paradigm,2021.1.4,59.96706534128246,
Q,left,Pretarget,0,10,10,10,2050.46370481106,2052.465863165213,None,0,4,,G26N02,2022-09-02_14h41.38.487,t1_Paradigm,2021.1.4,59.96706534128246,
D,left,Distractor,0,11,11,11,2053.9636505955423,2055.9659773706226,left,1,4,1.4362393694464117,G26N02,2022-09-02_14h41.38.487,t1_Paradigm,2021.1.4,59.96706534128246,
M,left,Pretarget,0,12,12,12,2057.4635954176483,2059.4656475864467,left,1,4,0.6566824608016759,G26N02,2022-09-02_14h41.38.487,t1_Paradigm,2021.1.4,59.96706534128246,
C,left,Distractor,0,13,13,13,2060.963631989056,2062.965736448532,left,1,4,0.5164372399449348,G26N02,2022-09-02_14h41.38.487,t1_Paradigm,2021.1.4,59.96706534128246,
Q,right,Target,0,14,14,14,2064.4637224551407,2066.465831085021,right,1,4,0.8402785842190497,G26N02,2022-09-02_14h41.38.487,t1_Paradigm,2021.1.4,59.96706534128246,
R,left,Distractor,0,15,15,15,2067.963608891325,2069.965787776804,left,1,4,1.1809530378086492,G26N02,2022-09-02_14h41.38.487,t1_Paradigm,2021.1.4,59.96706534128246,
M,right,Target,0,16,16,16,2071.4635540342424,2073.4657261828543,left,0,4,1.3610174548230134,G26N02,2022-09-02_14h41.38.487,t1_Paradigm,2021.1.4,59.96706534128246,
S,left,Distractor,0,17,17,17,2074.9637205303297,2076.965643095202,left,1,4,1.0447168764076196,G26N02,2022-09-02_14h41.38.487,t1_Paradigm,2021.1.4,59.96706534128246,
Z,left,Distractor,0,18,18,18,2078.463586755999,2080.464897551952,left,1,4,0.5532986439648084,G26N02,2022-09-02_14h41.38.487,t1_Paradigm,2021.1.4,59.96706534128246,
L,left,Pretarget,0,19,19,19,2081.9635896432155,2083.9655548747396,left,1,4,0.6046403972723056,G26N02,2022-09-02_14h41.38.487,t1_Paradigm,2021.1.4,59.96706534128246,
M,right,Target,0,20,20,20,2085.4636797885178,2087.4658532203466,right,1,4,1.2162858215451706,G26N02,2022-09-02_14h41.38.487,t1_Paradigm,2021.1.4,59.96706534128246,
P,left,Distractor,0,21,21,21,2088.963695187005,2090.9656777417986,left,1,4,1.2844776866550092,G26N02,2022-09-02_14h41.38.487,t1_Paradigm,2021.1.4,59.96706534128246,
F,left,Distractor,0,22,22,22,2092.463535427727,2094.4656690801494,left,1,4,0.8885146558168344,G26N02,2022-09-02_14h41.38.487,t1_Paradigm,2021.1.4,59.96706534128246,
L,right,Target,0,23,23,23,2095.963568149513,2097.9652696819685,left,0,4,0.8768053920357488,G26N02,2022-09-02_14h41.38.487,t1_Paradigm,2021.1.4,59.96706534128246,
L,left,Lure,0,24,24,24,2099.4636021544866,2101.463580660784,left,1,4,0.594521989376517,G26N02,2022-09-02_14h41.38.487,t1_Paradigm,2021.1.4,59.96706534128246,
V,left,Pretarget,0,25,25,25,2102.963535427727,2104.965237922588,left,1,4,1.3329126552853268,G26N02,2022-09-02_14h41.38.487,t1_Paradigm,2021.1.4,59.96706534128246,
Z,left,Distractor,0,26,26,26,2106.4635639790795,2108.4657034059346,left,1,4,0.6324118837947026,G26N02,2022-09-02_14h41.38.487,t1_Paradigm,2021.1.4,59.96706534128246,
H,left,Distractor,0,27,27,27,2109.963564941485,2111.9657172004227,left,1,4,0.6045204174297396,G26N02,2022-09-02_14h41.38.487,t1_Paradigm,2021.1.4,59.96706534128246,
X,left,Distractor,0,28,28,28,2113.4636079289194,2115.465447406139,left,1,4,0.656834841647651,G26N02,2022-09-02_14h41.38.487,t1_Paradigm,2021.1.4,59.96706534128246,
V,right,Target,0,29,29,29,2116.9635363901325,2118.9652209201013,left,0,4,0.8369255643629003,G26N02,2022-09-02_14h41.38.487,t1_Paradigm,2021.1.4,59.96706534128246,
C,left,Distractor,0,30,30,30,2120.4635620542686,2122.4651933311543,left,1,4,0.5850981172116008,G26N02,2022-09-02_14h41.38.487,t1_Paradigm,2021.1.4,59.96706534128246,
S,left,Pretarget,0,31,31,31,2123.9634398288035,2125.965444839734,left,1,4,0.7326900188927539,G26N02,2022-09-02_14h41.38.487,t1_Paradigm,2021.1.4,59.96706534128246,
D,left,Distractor,0,32,32,32,2127.4636236482183,2129.465587275714,left,1,4,0.6246815240883734,G26N02,2022-09-02_14h41.38.487,t1_Paradigm,2021.1.4,59.96706534128246,
V,left,Distractor,0,33,33,33,2130.9634930818866,2132.976347928721,right,0,4,0.4578033421130385,G26N02,2022-09-02_14h41.38.487,t1_Paradigm,2021.1.4,59.96706534128246,
R,left,Distractor,0,34,34,34,2134.463524841267,2136.4640002694505,left,1,4,0.5701182796037756,G26N02,2022-09-02_14h41.38.487,t1_Paradigm,2021.1.4,59.96706534128246,
S,right,Target,0,35,35,35,2137.963499177131,2139.9654390653013,right,1,4,0.63670004074811,G26N02,2022-09-02_14h41.38.487,t1_Paradigm,2021.1.4,59.96706534128246,
Y,left,Distractor,0,36,36,36,2141.463614986569,2143.465336408728,left,1,4,0.609247110405704,G26N02,2022-09-02_14h41.38.487,t1_Paradigm,2021.1.4,59.96706534128246,
N,left,Pretarget,0,37,37,37,2144.963610174542,2146.9656854410423,left,1,4,0.5484250238223467,G26N02,2022-09-02_14h41.38.487,t1_Paradigm,2021.1.4,59.96706534128246,
Z,left,Pretarget,0,38,38,38,2148.463547297404,2150.4640474273183,left,1,4,0.9700348711630795,G26N02,2022-09-02_14h41.38.487,t1_Paradigm,2021.1.4,59.96706534128246,
P,left,Pretarget,0,39,39,39,2151.9632855231757,2153.9641828056483,left,1,4,0.685966527526034,G26N02,2022-09-02_14h41.38.487,t1_Paradigm,2021.1.4,59.96706534128246,
M,left,Distractor,0,40,40,40,2155.463640650705,2157.4653550152434,left,1,4,0.48103099266882055,G26N02,2022-09-02_14h41.38.487,t1_Paradigm,2021.1.4,59.96706534128246,
N,right,Target,0,41,41,41,2158.9636034377036,2160.9654810903303,right,1,4,0.5326220089336857,G26N02,2022-09-02_14h41.38.487,t1_Paradigm,2021.1.4,59.96706534128246,
Z,right,Target,0,42,42,42,2162.463478325022,2164.4653392959444,right,1,4,0.8887979237479158,G26N02,2022-09-02_14h41.38.487,t1_Paradigm,2021.1.4,59.96706534128246,
P,right,Target,0,43,43,43,2165.963495969103,2167.965500017628,left,0,4,0.7967903785174713,G26N02,2022-09-02_14h41.38.487,t1_Paradigm,2021.1.4,59.96706534128246,
X,left,Pretarget,0,44,44,44,2169.4634619641292,2171.4655147745216,left,1,4,0.7364071487390902,G26N02,2022-09-02_14h41.38.487,t1_Paradigm,2021.1.4,59.96706534128246,
Z,left,Lure,0,45,45,45,2172.963641292299,2174.965496168006,right,0,4,1.0765509962511715,G26N02,2022-09-02_14h41.38.487,t1_Paradigm,2021.1.4,59.96706534128246,
R,left,Pretarget,0,46,46,46,2176.4634667761566,2178.465599145362,left,1,4,1.0165036459220573,G26N02,2022-09-02_14h41.38.487,t1_Paradigm,2021.1.4,59.96706534128246,
K,left,Distractor,0,47,47,47,2179.9634629265347,2181.9647256022145,left,1,4,0.5734754698933102,G26N02,2022-09-02_14h41.38.487,t1_Paradigm,2021.1.4,59.96706534128246,
X,right,Target,0,48,48,48,2183.463441432803,2185.465543325874,right,1,4,0.6089555016078521,G26N02,2022-09-02_14h41.38.487,t1_Paradigm,2021.1.4,59.96706534128246,
B,left,Distractor,0,49,49,49,2186.963476400211,2188.965584067686,left,1,4,0.9484917506051715,G26N02,2022-09-02_14h41.38.487,t1_Paradigm,2021.1.4,59.96706534128246,
R,right,Target,0,50,50,50,2190.462798866909,2192.4655128497106,right,1,4,1.0005681398906745,G26N02,2022-09-02_14h41.38.487,t1_Paradigm,2021.1.4,59.96706534128246,
Y,left,Pretarget,0,51,51,51,2193.963553713431,2195.9656446992303,left,1,4,0.8125962806225289,G26N02,2022-09-02_14h41.38.487,t1_Paradigm,2021.1.4,59.96706534128246,
W,left,Pretarget,0,52,52,52,2197.4635437685647,2199.4653694513254,left,1,4,0.5926690384512767,G26N02,2022-09-02_14h41.38.487,t1_Paradigm,2021.1.4,59.96706534128246,
Z,left,Distractor,0,53,53,53,2200.9633490419073,2202.965284438862,left,1,4,0.7091928948939312,G26N02,2022-09-02_14h41.38.487,t1_Paradigm,2021.1.4,59.96706534128246,
Q,left,Distractor,0,54,54,54,2204.4634443200193,2206.4652177121025,left,1,4,0.5687997844361234,G26N02,2022-09-02_14h41.38.487,t1_Paradigm,2021.1.4,59.96706534128246,
Y,right,Target,0,55,55,55,2207.9631841498194,2209.9660357565444,left,0,4,1.3561268321645912,G26N02,2022-09-02_14h41.38.487,t1_Paradigm,2021.1.4,59.96706534128246,
W,right,Target,0,56,56,56,2211.4634542648855,2213.4656212806876,left,0,4,0.6725582976941951,G26N02,2022-09-02_14h41.38.487,t1_Paradigm,2021.1.4,59.96706534128246,
H,left,Pretarget,0,57,57,57,2214.9632989968522,2216.965775907127,left,1,4,0.7086571559484582,G26N02,2022-09-02_14h41.38.487,t1_Paradigm,2021.1.4,59.96706534128246,
M,left,Distractor,0,58,58,58,2218.4635922096495,2220.4659170598898,left,1,4,0.5682005267590284,G26N02,2022-09-02_14h41.38.487,t1_Paradigm,2021.1.4,59.96706534128246,
R,left,Pretarget,0,59,59,59,2221.963470304967,2223.9649995669024,left,1,4,0.7814672830281779,G26N02,2022-09-02_14h41.38.487,t1_Paradigm,2021.1.4,59.96706534128246,
J,left,Distractor,0,60,60,60,2225.4635206708335,2227.462518165383,left,1,4,0.6119819452869706,G26N02,2022-09-02_14h41.38.487,t1_Paradigm,2021.1.4,59.96706534128246,
H,right,Target,0,61,61,61,2228.963399407774,2230.9653986442718,left,0,4,0.5647843089536764,G26N02,2022-09-02_14h41.38.487,t1_Paradigm,2021.1.4,59.96706534128246,
Z,left,Distractor,0,62,62,62,2232.4634619641292,2234.4647256022145,left,1,4,0.5533329697500449,G26N02,2022-09-02_14h41.38.487,t1_Paradigm,2021.1.4,59.96706534128246,
R,right,Target,0,63,63,63,2235.9634423952084,2237.9650678976614,None,0,4,,G26N02,2022-09-02_14h41.38.487,t1_Paradigm,2021.1.4,59.96706534128246,
J,left,Pretarget,0,0,0,0,2243.808387682482,2245.7988909883425,None,0,4,,G26N02,2022-09-02_14h41.38.487,t1_Paradigm,2021.1.4,59.96706534128246,
G,left,Pretarget,0,1,1,1,2247.2967701680027,2249.2989817752386,left,1,4,0.3271584343747236,G26N02,2022-09-02_14h41.38.487,t1_Paradigm,2021.1.4,59.96706534128246,
Z,left,Distractor,0,2,2,2,2250.7967528447043,2252.7988457552856,left,1,4,0.8114009732962586,G26N02,2022-09-02_14h41.38.487,t1_Paradigm,2021.1.4,59.96706534128246,
F,left,Distractor,0,3,3,3,2254.296734238189,2256.2987787077436,left,1,4,0.591315896686865,G26N02,2022-09-02_14h41.38.487,t1_Paradigm,2021.1.4,59.96706534128246,
J,right,Target,0,4,4,4,2257.7968648044916,2259.7980809639266,right,1,4,0.6598949695180636,G26N02,2022-09-02_14h41.38.487,t1_Paradigm,2021.1.4,59.96706534128246,
G,right,Target,0,5,5,5,2261.296807060193,2263.2990571636474,right,1,4,0.43909161776537076,G26N02,2022-09-02_14h41.38.487,t1_Paradigm,2021.1.4,59.96706534128246,
H,left,Distractor,0,6,6,6,2264.796791982517,2266.7988155999337,left,1,4,0.58741558904876,G26N02,2022-09-02_14h41.38.487,t1_Paradigm,2021.1.4,59.96706534128246,
P,left,Distractor,0,7,7,7,2268.2967509198934,2270.2988929131534,left,1,4,0.5754618743085302,G26N02,2022-09-02_14h41.38.487,t1_Paradigm,2021.1.4,59.96706534128246,
G,left,Lure,0,8,8,8,2271.7967201229185,2273.7980992496305,right,0,4,1.2998880401719362,G26N02,2022-09-02_14h41.38.487,t1_Paradigm,2021.1.4,59.96706534128246,
S,left,Distractor,0,9,9,9,2275.2966874011327,2277.2988239407714,left,1,4,1.4474629393953364,G26N02,2022-09-02_14h41.38.487,t1_Paradigm,2021.1.4,59.96706534128246,
R,left,Pretarget,0,10,10,10,2278.796765035164,2280.797412413085,left,1,4,0.7326829612720758,G26N02,2022-09-02_14h41.38.487,t1_Paradigm,2021.1.4,59.96706534128246,
T,left,Pretarget,0,11,11,11,2282.296877636574,2284.2984640012146,left,1,4,0.6396308855328243,G26N02,2022-09-02_14h41.38.487,t1_Paradigm,2021.1.4,59.96706534128246,
X,left,Distractor,0,12,12,12,2285.7967121028632,2287.7985454848676,left,1,4,0.5956194521277212,G26N02,2022-09-02_14h41.38.487,t1_Paradigm,2021.1.4,59.96706534128246,
F,left,Pretarget,0,13,13,13,2289.2968901478453,2291.2990058353753,left,1,4,0.5190212980378419,G26N02,2022-09-02_14h41.38.487,t1_Paradigm,2021.1.4,59.96706534128246,
R,right,Target,0,14,14,14,2292.7967226893234,2294.7989666975627,right,1,4,0.5229716507601552,G26N02,2022-09-02_14h41.38.487,t1_Paradigm,2021.1.4,59.96706534128246,
T,right,Target,0,15,15,15,2296.2967653559754,2298.2989365421818,right,1,4,0.49520016423775814,G26N02,2022-09-02_14h41.38.487,t1_Paradigm,2021.1.4,59.96706534128246,
C,left,Distractor,0,16,16,16,2299.7967804336513,2301.7988909883425,left,1,4,0.46696030718158,G26N02,2022-09-02_14h41.38.487,t1_Paradigm,2021.1.4,59.96706534128246,
F,right,Target,0,17,17,17,2303.2964933160692,2305.299132552056,right,1,4,0.886716882843757,G26N02,2022-09-02_14h41.38.487,t1_Paradigm,2021.1.4,59.96706534128246,
M,left,Distractor,0,18,18,18,2306.7966379976715,2308.798523991136,left,1,4,0.6194611172250006,G26N02,2022-09-02_14h41.38.487,t1_Paradigm,2021.1.4,59.96706534128246,
N,left,Distractor,0,19,19,19,2310.296751240676,2312.2983530038036,left,1,4,0.9277791857311968,G26N02,2022-09-02_14h41.38.487,t1_Paradigm,2021.1.4,59.96706534128246,
R,left,Lure,0,20,20,20,2313.796730388567,2315.798876231478,left,1,4,1.395194710639771,G26N02,2022-09-02_14h41.38.487,t1_Paradigm,2021.1.4,59.96706534128246,
F,right,Target,0,21,21,21,2317.2965966142365,2319.2988319608266,left,0,4,0.8711445243970957,G26N02,2022-09-02_14h41.38.487,t1_Paradigm,2021.1.4,59.96706534128246,
P,left,Distractor,0,22,22,22,2320.7966302984278,2322.7990382363496,left,1,4,0.4587782586168032,G26N02,2022-09-02_14h41.38.487,t1_Paradigm,2021.1.4,59.96706534128246,
L,left,Pretarget,0,23,23,23,2324.2966498673486,2326.298821695178,left,1,4,0.5273011911194772,G26N02,2022-09-02_14h41.38.487,t1_Paradigm,2021.1.4,59.96706534128246,
T,left,Distractor,0,24,24,24,2327.7966354312666,2329.797821114509,left,1,4,0.43595385586377233,G26N02,2022-09-02_14h41.38.487,t1_Paradigm,2021.1.4,59.96706534128246,
F,left,Distractor,0,25,25,25,2331.295950519532,2333.298192282149,left,1,4,1.0157106239930727,G26N02,2022-09-02_14h41.38.487,t1_Paradigm,2021.1.4,59.96706534128246,
V,left,Distractor,0,26,26,26,2334.796704724431,2336.7989265973447,left,1,4,0.6190264308534097,G26N02,2022-09-02_14h41.38.487,t1_Paradigm,2021.1.4,59.96706534128246,
L,right,Target,0,27,27,27,2338.296501656936,2340.298834848043,left,0,4,1.0871810829557944,G26N02,2022-09-02_14h41.38.487,t1_Paradigm,2021.1.4,59.96706534128246,
S,left,Pretarget,0,28,28,28,2341.7967313509725,2343.798837414448,left,1,4,0.6272703941795044,G26N02,2022-09-02_14h41.38.487,t1_Paradigm,2021.1.4,59.96706534128246,
W,left,Distractor,0,29,29,29,2345.2966498673486,2347.298820411961,left,1,4,0.4392674171249382,G26N02,2022-09-02_14h41.38.487,t1_Paradigm,2021.1.4,59.96706534128246,
Q,left,Distractor,0,30,30,30,2348.7966662282124,2350.798820411961,left,1,4,0.6352609240857419,G26N02,2022-09-02_14h41.38.487,t1_Paradigm,2021.1.4,59.96706534128246,
L,right,Target,0,31,31,31,2352.2967124236748,2354.2982535552583,left,0,4,0.54367491233279,G26N02,2022-09-02_14h41.38.487,t1_Paradigm,2021.1.4,59.96706534128246,
S,right,Target,0,32,32,32,2355.796724293352,2357.798446677916,right,1,4,0.435304873943096,G26N02,2022-09-02_14h41.38.487,t1_Paradigm,2021.1.4,59.96706534128246,
Z,left,Pretarget,0,33,33,33,2359.296467651933,2361.2975452250103,left,1,4,0.4725255759258289,G26N02,2022-09-02_14h41.38.487,t1_Paradigm,2021.1.4,59.96706534128246,
F,left,Distractor,0,34,34,34,2362.7966816267,2364.7974929343327,left,1,4,0.6684469024767168,G26N02,2022-09-02_14h41.38.487,t1_Paradigm,2021.1.4,59.96706534128246,
V,left,Distractor,0,35,35,35,2366.2965972558595,2368.2991373640834,left,1,4,0.8630256737815216,G26N02,2022-09-02_14h41.38.487,t1_Paradigm,2021.1.4,59.96706534128246,
M,left,Distractor,0,36,36,36,2369.796376865037,2371.7987517603906,left,1,4,0.5151598074007779,G26N02,2022-09-02_14h41.38.487,t1_Paradigm,2021.1.4,59.96706534128246,
Z,right,Target,0,37,37,37,2373.2967088948644,2375.297346007137,left,0,4,0.6325899287476204,G26N02,2022-09-02_14h41.38.487,t1_Paradigm,2021.1.4,59.96706534128246,
H,left,Pretarget,0,38,38,38,2376.7966165039397,2378.798891950748,left,1,4,0.4748873183852993,G26N02,2022-09-02_14h41.38.487,t1_Paradigm,2021.1.4,59.96706534128246,
L,left,Distractor,0,39,39,39,2380.2964297973376,2382.298621835682,left,1,4,0.5755853829905391,G26N02,2022-09-02_14h41.38.487,t1_Paradigm,2021.1.4,59.96706534128246,
G,left,Distractor,0,40,40,40,2383.796860313276,2385.798300071532,left,1,4,0.8996153587067965,G26N02,2022-09-02_14h41.38.487,t1_Paradigm,2021.1.4,59.96706534128246,
K,left,Distractor,0,41,41,41,2387.296677135484,2389.299223659764,left,1,4,0.9185997645254247,G26N02,2022-09-02_14h41.38.487,t1_Paradigm,2021.1.4,59.96706534128246,
H,right,Target,0,42,42,42,2390.796612012724,2392.7989926825103,left,0,4,0.55504765509977,G26N02,2022-09-02_14h41.38.487,t1_Paradigm,2021.1.4,59.96706534128246,
B,left,Distractor,0,43,43,43,2394.2967445038375,2396.2972202528326,left,1,4,0.49680802260991186,G26N02,2022-09-02_14h41.38.487,t1_Paradigm,2021.1.4,59.96706534128246,
Z,left,Distractor,0,44,44,44,2397.796608163102,2399.7989147276676,left,1,4,0.5791786833724473,G26N02,2022-09-02_14h41.38.487,t1_Paradigm,2021.1.4,59.96706534128246,
T,left,Pretarget,0,45,45,45,2401.2963877723087,2403.298409144132,left,1,4,0.5515153070446104,G26N02,2022-09-02_14h41.38.487,t1_Paradigm,2021.1.4,59.96706534128246,
H,right,Target,0,46,46,46,2404.796592443832,2406.798846717691,left,0,4,0.9071756935154554,G26N02,2022-09-02_14h41.38.487,t1_Paradigm,2021.1.4,59.96706534128246,
F,left,Distractor,0,47,47,47,2408.296675852267,2410.2987485523627,left,1,4,0.6392799284076318,G26N02,2022-09-02_14h41.38.487,t1_Paradigm,2021.1.4,59.96706534128246,
R,left,Distractor,0,48,48,48,2411.7964092660113,2413.7989108780457,left,1,4,0.5472804032033309,G26N02,2022-09-02_14h41.38.487,t1_Paradigm,2021.1.4,59.96706534128246,
T,right,Target,0,49,49,49,2415.2967220477294,2417.297972212138,right,1,4,0.9038534706050996,G26N02,2022-09-02_14h41.38.487,t1_Paradigm,2021.1.4,59.96706534128246,
H,right,Target,0,50,50,50,2418.796463481529,2420.7988358104485,right,1,4,0.8911814807506744,G26N02,2022-09-02_14h41.38.487,t1_Paradigm,2021.1.4,59.96706534128246,
Y,left,Pretarget,0,51,51,51,2422.313368129602,2424.298758497229,left,1,4,0.7671207080711611,G26N02,2022-09-02_14h41.38.487,t1_Paradigm,2021.1.4,59.96706534128246,
H,left,Distractor,0,52,52,52,2425.796607521508,2427.799131910462,left,1,4,1.2348252753145061,G26N02,2022-09-02_14h41.38.487,t1_Paradigm,2021.1.4,59.96706534128246,
S,left,Distractor,0,53,53,53,2429.2965176970174,2431.2983350389113,left,1,4,0.999363850132795,G26N02,2022-09-02_14h41.38.487,t1_Paradigm,2021.1.4,59.96706534128246,
Q,left,Distractor,0,54,54,54,2432.796556193236,2434.798389896023,left,1,4,0.5555006271752063,G26N02,2022-09-02_14h41.38.487,t1_Paradigm,2021.1.4,59.96706534128246,
Y,right,Target,0,55,55,55,2436.2965632508567,2438.2985519008944,left,0,4,1.3432950830610935,G26N02,2022-09-02_14h41.38.487,t1_Paradigm,2021.1.4,59.96706534128246,
R,left,Distractor,0,56,56,56,2439.7967477118655,2441.7985692241928,left,1,4,1.3153336819377728,G26N02,2022-09-02_14h41.38.487,t1_Paradigm,2021.1.4,59.96706534128246,
H,left,Pretarget,0,57,57,57,2443.2965754413162,2445.298728983471,left,1,4,0.5831383393378928,G26N02,2022-09-02_14h41.38.487,t1_Paradigm,2021.1.4,59.96706534128246,
J,left,Distractor,0,58,58,58,2446.796568704478,2448.7986664271157,left,1,4,0.6513962895842269,G26N02,2022-09-02_14h41.38.487,t1_Paradigm,2021.1.4,59.96706534128246,
V,left,Distractor,0,59,59,59,2450.296586990182,2452.2985743570316,left,1,4,0.6395853316644207,G26N02,2022-09-02_14h41.38.487,t1_Paradigm,2021.1.4,59.96706534128246,
Y,left,Lure,0,60,60,60,2453.796596293454,2455.7983876504004,left,1,4,0.7396013717516325,G26N02,2022-09-02_14h41.38.487,t1_Paradigm,2021.1.4,59.96706534128246,
H,right,Target,0,61,61,61,2457.296450970258,2459.2983462669654,right,1,4,0.8719936866255011,G26N02,2022-09-02_14h41.38.487,t1_Paradigm,2021.1.4,59.96706534128246,
L,left,Distractor,0,62,62,62,2460.7967002332152,2462.7982503472595,left,1,4,0.5716542783775367,G26N02,2022-09-02_14h41.38.487,t1_Paradigm,2021.1.4,59.96706534128246,
P,left,Distractor,0,63,63,63,2464.2965132058016,2466.2972741475387,left,1,4,0.8005723103124183,G26N02,2022-09-02_14h41.38.487,t1_Paradigm,2021.1.4,59.96706534128246,
