Letter,CorrAnswer,Stimulus,nback_run.thisRepN,nback_run.thisTrialN,nback_run.thisN,nback_run.thisIndex,fixcross.started,nback_trial.started,trial_resp.keys,trial_resp.corr,currentlevel,trial_resp.rt,Participant,date,expName,psychopyVersion,frameRate,
H,left,Distractor,0,0,0,0,194.7897279280378,196.7410382427763,None,0,1,,G27R09,2022-08-31_12h04.48.162,t1_Paradigm,2021.1.4,60.0516293093241,
Q,left,Pretarget,0,1,1,1,198.22771245897752,200.22949675829818,left,1,1,0.4760790968789479,G27R09,2022-08-31_12h04.48.162,t1_Paradigm,2021.1.4,60.0516293093241,
Q,right,Target,0,2,2,2,201.72782987241703,203.7280653409,right,1,1,0.6732691943705049,G27R09,2022-08-31_12h04.48.162,t1_Paradigm,2021.1.4,60.0516293093241,
T,left,Distractor,0,3,3,3,205.2281124987569,207.2294489588378,left,1,1,0.48386174727875186,G27R09,2022-08-31_12h04.48.162,t1_Paradigm,2021.1.4,60.0516293093241,
Q,left,Lure,0,4,4,4,208.72817954632205,210.7302166374202,left,1,1,0.6475870896545075,G27R09,2022-08-31_12h04.48.162,t1_Paradigm,2021.1.4,60.0516293093241,
L,left,Distractor,0,5,5,5,212.22820296484974,214.2300600861672,left,1,1,0.4592116617850479,G27R09,2022-08-31_12h04.48.162,t1_Paradigm,2021.1.4,60.0516293093241,
V,left,Pretarget,0,6,6,6,215.72792515053607,217.73073344903582,left,1,1,0.4947173576201749,G27R09,2022-08-31_12h04.48.162,t1_Paradigm,2021.1.4,60.0516293093241,
V,right,Target,0,7,7,7,219.22813944610357,221.22783564684846,right,1,1,0.7575438134988417,G27R09,2022-08-31_12h04.48.162,t1_Paradigm,2021.1.4,60.0516293093241,
K,left,Distractor,0,8,8,8,222.72776122084315,224.72747217846836,left,1,1,0.5058530278874969,G27R09,2022-08-31_12h04.48.162,t1_Paradigm,2021.1.4,60.0516293093241,
G,left,Pretarget,0,9,9,9,226.22776282485188,228.22944158039763,left,1,1,0.6518768506250581,G27R09,2022-08-31_12h04.48.162,t1_Paradigm,2021.1.4,60.0516293093241,
G,right,Target,0,10,10,10,229.7279572307109,231.7282331202141,right,1,1,0.5295240264470067,G27R09,2022-08-31_12h04.48.162,t1_Paradigm,2021.1.4,60.0516293093241,
G,right,Target,0,11,11,11,233.22772946147006,235.22801850384485,right,1,1,0.4212380381047751,G27R09,2022-08-31_12h04.48.162,t1_Paradigm,2021.1.4,60.0516293093241,
P,left,Pretarget,0,12,12,12,236.72813944610357,238.73058235141252,left,1,1,0.4548198858587966,G27R09,2022-08-31_12h04.48.162,t1_Paradigm,2021.1.4,60.0516293093241,
P,right,Target,0,13,13,13,240.2280646992965,242.22807753136635,right,1,1,0.42929497399904903,G27R09,2022-08-31_12h04.48.162,t1_Paradigm,2021.1.4,60.0516293093241,
G,left,Lure,0,14,14,14,243.72806566170175,245.72977168539614,left,1,1,0.4154924788028893,G27R09,2022-08-31_12h04.48.162,t1_Paradigm,2021.1.4,60.0516293093241,
Y,left,Distractor,0,15,15,15,247.22812950124944,249.22736952190917,left,1,1,0.6940561852181872,G27R09,2022-08-31_12h04.48.162,t1_Paradigm,2021.1.4,60.0516293093241,
B,left,Distractor,0,16,16,16,250.72799444371367,252.74077005251524,left,1,1,0.5245557697799086,G27R09,2022-08-31_12h04.48.162,t1_Paradigm,2021.1.4,60.0516293093241,
T,left,Pretarget,0,17,17,17,254.22800214295557,256.22980248236377,left,1,1,0.6994713187198158,G27R09,2022-08-31_12h04.48.162,t1_Paradigm,2021.1.4,60.0516293093241,
T,right,Target,0,18,18,18,257.7279751956089,259.7281015914973,right,1,1,0.5611640612219162,G27R09,2022-08-31_12h04.48.162,t1_Paradigm,2021.1.4,60.0516293093241,
S,left,Distractor,0,19,19,19,261.22792579213956,263.23216711204645,left,1,1,0.4491612638305469,G27R09,2022-08-31_12h04.48.162,t1_Paradigm,2021.1.4,60.0516293093241,
T,left,Lure,0,20,20,20,264.72811217795515,266.73005399093404,left,1,1,0.6793634651721732,G27R09,2022-08-31_12h04.48.162,t1_Paradigm,2021.1.4,60.0516293093241,
J,left,Distractor,0,21,21,21,268.2280015013521,270.2304691083957,right,0,1,0.6827992518904011,G27R09,2022-08-31_12h04.48.162,t1_Paradigm,2021.1.4,60.0516293093241,
P,left,Distractor,0,22,22,22,271.728126293232,273.7297325475829,left,1,1,0.46374330727348934,G27R09,2022-08-31_12h04.48.162,t1_Paradigm,2021.1.4,60.0516293093241,
F,left,Distractor,0,23,23,23,275.227987706877,277.2303414293001,left,1,1,0.5630696236032691,G27R09,2022-08-31_12h04.48.162,t1_Paradigm,2021.1.4,60.0516293093241,
L,left,Distractor,0,24,24,24,278.7279774412211,280.7292587234015,left,1,1,0.3920020916273188,G27R09,2022-08-31_12h04.48.162,t1_Paradigm,2021.1.4,60.0516293093241,
W,left,Pretarget,0,25,25,25,282.22799444371367,284.2291320067111,left,1,1,0.44413430044369306,G27R09,2022-08-31_12h04.48.162,t1_Paradigm,2021.1.4,60.0516293093241,
W,right,Target,0,26,26,26,285.72798449885954,287.72801369181843,right,1,1,0.6253260147759647,G27R09,2022-08-31_12h04.48.162,t1_Paradigm,2021.1.4,60.0516293093241,
V,left,Distractor,0,27,27,27,289.2280874762205,291.22990834694065,left,1,1,0.5636692020696046,G27R09,2022-08-31_12h04.48.162,t1_Paradigm,2021.1.4,60.0516293093241,
W,left,Lure,0,28,28,28,292.72811346116214,294.7292320968563,left,1,1,1.0801904920776906,G27R09,2022-08-31_12h04.48.162,t1_Paradigm,2021.1.4,60.0516293093241,
R,left,Pretarget,0,29,29,29,296.22801786224136,298.22950253272984,left,1,1,0.5717678421913206,G27R09,2022-08-31_12h04.48.162,t1_Paradigm,2021.1.4,60.0516293093241,
R,right,Target,0,30,30,30,299.72777790253394,301.7281471453457,right,1,1,0.6571713626697147,G27R09,2022-08-31_12h04.48.162,t1_Paradigm,2021.1.4,60.0516293093241,
G,left,Distractor,0,31,31,31,303.2276810204062,305.2299490887626,left,1,1,0.49926279758369674,G27R09,2022-08-31_12h04.48.162,t1_Paradigm,2021.1.4,60.0516293093241,
R,left,Lure,0,32,32,32,306.72805667925263,308.729977640118,left,1,1,0.6151017422744189,G27R09,2022-08-31_12h04.48.162,t1_Paradigm,2021.1.4,60.0516293093241,
S,left,Distractor,0,33,33,33,310.2272646197375,312.22896037777605,left,1,1,0.4765660739319628,G27R09,2022-08-31_12h04.48.162,t1_Paradigm,2021.1.4,60.0516293093241,
R,left,Lure,0,34,34,34,313.7279735916002,315.72910120974325,left,1,1,0.6241384067059244,G27R09,2022-08-31_12h04.48.162,t1_Paradigm,2021.1.4,60.0516293093241,
P,left,Pretarget,0,35,35,35,317.22766080989595,319.2290264629362,left,1,1,0.724298165976279,G27R09,2022-08-31_12h04.48.162,t1_Paradigm,2021.1.4,60.0516293093241,
P,right,Target,0,36,36,36,320.7280861930135,322.7276826244149,right,1,1,0.6174615599304616,G27R09,2022-08-31_12h04.48.162,t1_Paradigm,2021.1.4,60.0516293093241,
Y,left,Pretarget,0,37,37,37,324.2281298220512,326.22948681344405,left,1,1,0.6837379178041374,G27R09,2022-08-31_12h04.48.162,t1_Paradigm,2021.1.4,60.0516293093241,
Y,right,Target,0,38,38,38,327.72793381218344,329.72783275963275,right,1,1,0.5775631257640725,G27R09,2022-08-31_12h04.48.162,t1_Paradigm,2021.1.4,60.0516293093241,
J,left,Distractor,0,39,39,39,331.227638032972,333.2290992849328,left,1,1,0.6122693836434792,G27R09,2022-08-31_12h04.48.162,t1_Paradigm,2021.1.4,60.0516293093241,
Y,left,Lure,0,40,40,40,334.72802620308676,336.72776474966236,left,1,1,0.713607447733466,G27R09,2022-08-31_12h04.48.162,t1_Paradigm,2021.1.4,60.0516293093241,
T,left,Distractor,0,41,41,41,338.2280188246466,340.22991540457906,left,1,1,0.47555169880570247,G27R09,2022-08-31_12h04.48.162,t1_Paradigm,2021.1.4,60.0516293093241,
V,left,Distractor,0,42,42,42,341.72792226332035,343.72791392247495,left,1,1,0.46538292500622447,G27R09,2022-08-31_12h04.48.162,t1_Paradigm,2021.1.4,60.0516293093241,
N,left,Pretarget,0,43,43,43,345.2279161680872,347.23055187524665,left,1,1,0.7387140341140821,G27R09,2022-08-31_12h04.48.162,t1_Paradigm,2021.1.4,60.0516293093241,
N,right,Target,0,44,44,44,348.72788601272305,350.7280201078536,right,1,1,0.6011494326619413,G27R09,2022-08-31_12h04.48.162,t1_Paradigm,2021.1.4,60.0516293093241,
N,right,Target,0,45,45,45,352.22783693005545,354.22783628845195,right,1,1,0.6692694381799811,G27R09,2022-08-31_12h04.48.162,t1_Paradigm,2021.1.4,60.0516293093241,
X,left,Distractor,0,46,46,46,355.7275703438031,357.73060320352624,left,1,1,0.6866331535775316,G27R09,2022-08-31_12h04.48.162,t1_Paradigm,2021.1.4,60.0516293093241,
Z,left,Distractor,0,47,47,47,359.22790686483654,361.2288926886074,left,1,1,0.6924383820044113,G27R09,2022-08-31_12h04.48.162,t1_Paradigm,2021.1.4,60.0516293093241,
H,left,Pretarget,0,48,48,48,362.72792964176074,364.7301078856276,left,1,1,0.5190636438587717,G27R09,2022-08-31_12h04.48.162,t1_Paradigm,2021.1.4,60.0516293093241,
H,right,Target,0,49,49,49,366.22771342138276,368.2279559475039,right,1,1,0.4933006971023133,G27R09,2022-08-31_12h04.48.162,t1_Paradigm,2021.1.4,60.0516293093241,
K,left,Distractor,0,50,50,50,369.7279434362358,371.7286610697454,left,1,1,0.6246263461644048,G27R09,2022-08-31_12h04.48.162,t1_Paradigm,2021.1.4,60.0516293093241,
V,left,Pretarget,0,51,51,51,373.22698455981185,375.22762808811785,left,1,1,0.48551195146910686,G27R09,2022-08-31_12h04.48.162,t1_Paradigm,2021.1.4,60.0516293093241,
V,right,Target,0,52,52,52,376.727832438831,378.74455134271557,right,1,1,0.5846018369109061,G27R09,2022-08-31_12h04.48.162,t1_Paradigm,2021.1.4,60.0516293093241,
R,left,Distractor,0,53,53,53,380.22793188737296,382.2279081480435,left,1,1,0.5572964753512224,G27R09,2022-08-31_12h04.48.162,t1_Paradigm,2021.1.4,60.0516293093241,
V,left,Lure,0,54,54,54,383.72764124098944,385.7288359066979,left,1,1,0.7522746447921236,G27R09,2022-08-31_12h04.48.162,t1_Paradigm,2021.1.4,60.0516293093241,
Y,left,Distractor,0,55,55,55,387.22806213288254,389.2278869751283,left,1,1,0.5497431982009857,G27R09,2022-08-31_12h04.48.162,t1_Paradigm,2021.1.4,60.0516293093241,
Q,left,Distractor,0,56,56,56,390.7275729102171,392.7278199275629,left,1,1,0.7452747506567903,G27R09,2022-08-31_12h04.48.162,t1_Paradigm,2021.1.4,60.0516293093241,
Z,left,Pretarget,0,57,57,57,394.22747474488233,396.22899502436485,left,1,1,0.46016733019155254,G27R09,2022-08-31_12h04.48.162,t1_Paradigm,2021.1.4,60.0516293093241,
Z,right,Target,0,58,58,58,397.7278449500993,399.727889862344,right,1,1,0.6573195730770749,G27R09,2022-08-31_12h04.48.162,t1_Paradigm,2021.1.4,60.0516293093241,
B,left,Distractor,0,59,59,59,401.2280624536843,403.2274696120544,left,1,1,0.9818105409037798,G27R09,2022-08-31_12h04.48.162,t1_Paradigm,2021.1.4,60.0516293093241,
S,left,Pretarget,0,60,60,60,404.7279758372124,406.72746319601947,left,1,1,0.9377788970193706,G27R09,2022-08-31_12h04.48.162,t1_Paradigm,2021.1.4,60.0516293093241,
S,right,Target,0,61,61,61,408.22787863428266,410.2279537018917,right,1,1,0.6691590823786555,G27R09,2022-08-31_12h04.48.162,t1_Paradigm,2021.1.4,60.0516293093241,
T,left,Distractor,0,62,62,62,411.72771117577054,413.7278221731751,left,1,1,0.673387891017228,G27R09,2022-08-31_12h04.48.162,t1_Paradigm,2021.1.4,60.0516293093241,
D,left,Distractor,0,63,63,63,415.22779330101775,417.2294877758493,left,1,1,0.6758272675069747,G27R09,2022-08-31_12h04.48.162,t1_Paradigm,2021.1.4,60.0516293093241,
R,left,Distractor,0,0,0,0,436.78741687224715,438.77965667796957,None,0,1,,G27R09,2022-08-31_12h04.48.162,t1_Paradigm,2021.1.4,60.0516293093241,
V,left,Distractor,0,1,1,1,440.2777928198152,442.2790134704653,left,1,1,0.8902306243762723,G27R09,2022-08-31_12h04.48.162,t1_Paradigm,2021.1.4,60.0516293093241,
N,left,Pretarget,0,2,2,2,443.777808218299,445.78034993054644,left,1,1,0.4448541795654819,G27R09,2022-08-31_12h04.48.162,t1_Paradigm,2021.1.4,60.0516293093241,
N,right,Target,0,3,3,3,447.27756344656564,449.277789290996,right,1,1,0.43530423233755755,G27R09,2022-08-31_12h04.48.162,t1_Paradigm,2021.1.4,60.0516293093241,
S,left,Distractor,0,4,4,4,450.7778765490714,452.7789146635271,left,1,1,0.4861163419618606,G27R09,2022-08-31_12h04.48.162,t1_Paradigm,2021.1.4,60.0516293093241,
N,left,Lure,0,5,5,5,454.277850243328,456.2799938406065,left,1,1,0.4892082292062696,G27R09,2022-08-31_12h04.48.162,t1_Paradigm,2021.1.4,60.0516293093241,
Z,left,Distractor,0,6,6,6,457.7779070252375,459.7805465820177,left,1,1,0.6685380101951068,G27R09,2022-08-31_12h04.48.162,t1_Paradigm,2021.1.4,60.0516293093241,
L,left,Pretarget,0,7,7,7,461.27781463433416,463.28025561483264,left,1,1,0.6729490342261215,G27R09,2022-08-31_12h04.48.162,t1_Paradigm,2021.1.4,60.0516293093241,
L,right,Target,0,8,8,8,464.77772705545704,466.77795610790486,left,0,1,0.487174346125812,G27R09,2022-08-31_12h04.48.162,t1_Paradigm,2021.1.4,60.0516293093241,
H,left,Distractor,0,9,9,9,468.27759007311056,470.27965860278005,left,1,1,0.9374856842221106,G27R09,2022-08-31_12h04.48.162,t1_Paradigm,2021.1.4,60.0516293093241,
L,left,Lure,0,10,10,10,471.777887135529,473.77819606761204,left,1,1,0.9430361960612572,G27R09,2022-08-31_12h04.48.162,t1_Paradigm,2021.1.4,60.0516293093241,
X,left,Pretarget,0,11,11,11,475.27778255415933,477.2780106442019,left,1,1,0.5471819170470553,G27R09,2022-08-31_12h04.48.162,t1_Paradigm,2021.1.4,60.0516293093241,
X,right,Target,0,12,12,12,478.7944867011636,480.77755318090976,right,1,1,0.4715025391458312,G27R09,2022-08-31_12h04.48.162,t1_Paradigm,2021.1.4,60.0516293093241,
X,right,Target,0,13,13,13,482.27775432360545,484.27796156153454,right,1,1,0.6993600005132521,G27R09,2022-08-31_12h04.48.162,t1_Paradigm,2021.1.4,60.0516293093241,
R,left,Distractor,0,14,14,14,485.7778864939255,487.77928422714035,left,1,1,0.605855594301147,G27R09,2022-08-31_12h04.48.162,t1_Paradigm,2021.1.4,60.0516293093241,
T,left,Distractor,0,15,15,15,489.2778204087656,491.2780757669568,left,1,1,0.7072209265395486,G27R09,2022-08-31_12h04.48.162,t1_Paradigm,2021.1.4,60.0516293093241,
V,left,Pretarget,0,16,16,16,492.77752398795064,494.7800384320494,left,1,1,0.4690400649303683,G27R09,2022-08-31_12h04.48.162,t1_Paradigm,2021.1.4,60.0516293093241,
V,right,Target,0,17,17,17,496.27789996759907,498.27780565188505,right,1,1,0.5072594227492573,G27R09,2022-08-31_12h04.48.162,t1_Paradigm,2021.1.4,60.0516293093241,
N,left,Distractor,0,18,18,18,499.77774469955307,501.77829294974003,left,1,1,0.7506876385461965,G27R09,2022-08-31_12h04.48.162,t1_Paradigm,2021.1.4,60.0516293093241,
B,left,Distractor,0,19,19,19,503.2772837074415,505.27936186116335,left,1,1,0.5781761779037424,G27R09,2022-08-31_12h04.48.162,t1_Paradigm,2021.1.4,60.0516293093241,
V,left,Lure,0,20,20,20,506.77777164689996,508.7772115270484,left,1,1,0.5358698058187201,G27R09,2022-08-31_12h04.48.162,t1_Paradigm,2021.1.4,60.0516293093241,
P,left,Distractor,0,21,21,21,510.27778897019425,512.2785213605844,left,1,1,0.6824495779853805,G27R09,2022-08-31_12h04.48.162,t1_Paradigm,2021.1.4,60.0516293093241,
K,left,Pretarget,0,22,22,22,513.7777167898009,515.7778162383429,left,1,1,0.49522294117468846,G27R09,2022-08-31_12h04.48.162,t1_Paradigm,2021.1.4,60.0516293093241,
K,right,Target,0,23,23,23,517.2777081281538,519.2778893811412,right,1,1,0.6432408675761963,G27R09,2022-08-31_12h04.48.162,t1_Paradigm,2021.1.4,60.0516293093241,
J,left,Pretarget,0,24,24,24,520.7775682585918,522.7777825541593,left,1,1,0.6153230954803348,G27R09,2022-08-31_12h04.48.162,t1_Paradigm,2021.1.4,60.0516293093241,
J,right,Target,0,25,25,25,524.2778640378033,526.2775461232711,right,1,1,0.9395718579876302,G27R09,2022-08-31_12h04.48.162,t1_Paradigm,2021.1.4,60.0516293093241,
H,left,Distractor,0,26,26,26,527.7777610604421,529.7798507630268,left,1,1,0.637206907503014,G27R09,2022-08-31_12h04.48.162,t1_Paradigm,2021.1.4,60.0516293093241,
J,left,Lure,0,27,27,27,531.2778791154853,533.277710373766,left,1,1,0.7234445125257025,G27R09,2022-08-31_12h04.48.162,t1_Paradigm,2021.1.4,60.0516293093241,
V,left,Distractor,0,28,28,28,534.7775595969447,536.7796059912935,left,1,1,0.8533987341163538,G27R09,2022-08-31_12h04.48.162,t1_Paradigm,2021.1.4,60.0516293093241,
Z,left,Pretarget,0,29,29,29,538.2775201383297,540.2777552860107,left,1,1,0.5073088262183774,G27R09,2022-08-31_12h04.48.162,t1_Paradigm,2021.1.4,60.0516293093241,
Z,right,Target,0,30,30,30,541.7767989760007,543.7775252711576,right,1,1,0.4476393803392966,G27R09,2022-08-31_12h04.48.162,t1_Paradigm,2021.1.4,60.0516293093241,
T,left,Distractor,0,31,31,31,545.2774168401668,547.2780305339102,left,1,1,0.5151915667634057,G27R09,2022-08-31_12h04.48.162,t1_Paradigm,2021.1.4,60.0516293093241,
Z,left,Lure,0,32,32,32,548.7777485491742,550.7772070358237,left,1,1,0.6319983703269827,G27R09,2022-08-31_12h04.48.162,t1_Paradigm,2021.1.4,60.0516293093241,
F,left,Distractor,0,33,33,33,552.2774659228344,554.2795431141508,left,1,1,0.5535174307633497,G27R09,2022-08-31_12h04.48.162,t1_Paradigm,2021.1.4,60.0516293093241,
Y,left,Pretarget,0,34,34,34,555.7776895216525,557.7784491801913,left,1,1,0.6865956197730156,G27R09,2022-08-31_12h04.48.162,t1_Paradigm,2021.1.4,60.0516293093241,
Y,right,Target,0,35,35,35,559.2774704140588,561.2775316871925,right,1,1,0.46749412130793644,G27R09,2022-08-31_12h04.48.162,t1_Paradigm,2021.1.4,60.0516293093241,
Y,right,Target,0,36,36,36,562.7777260930516,564.7778261831968,right,1,1,0.5191871525316856,G27R09,2022-08-31_12h04.48.162,t1_Paradigm,2021.1.4,60.0516293093241,
W,left,Distractor,0,37,37,37,566.2778714162432,568.279722121526,left,1,1,0.45728909691115405,G27R09,2022-08-31_12h04.48.162,t1_Paradigm,2021.1.4,60.0516293093241,
Q,left,Distractor,0,38,38,38,569.7777328298885,571.7802771085499,left,1,1,0.684717646342051,G27R09,2022-08-31_12h04.48.162,t1_Paradigm,2021.1.4,60.0516293093241,
P,left,Pretarget,0,39,39,39,573.2774938325865,575.2794645177228,left,1,1,0.49785768592892055,G27R09,2022-08-31_12h04.48.162,t1_Paradigm,2021.1.4,60.0516293093241,
P,right,Target,0,40,40,40,576.777687596842,578.7776680279353,right,1,1,0.5033138820540444,G27R09,2022-08-31_12h04.48.162,t1_Paradigm,2021.1.4,60.0516293093241,
J,left,Distractor,0,41,41,41,580.2773074467709,582.2794003573731,left,1,1,0.5376743156498378,G27R09,2022-08-31_12h04.48.162,t1_Paradigm,2021.1.4,60.0516293093241,
P,left,Lure,0,42,42,42,583.7774418627032,585.7796047080865,left,1,1,0.6054677449883457,G27R09,2022-08-31_12h04.48.162,t1_Paradigm,2021.1.4,60.0516293093241,
L,left,Distractor,0,43,43,43,587.2775842986794,589.2782743432385,left,1,1,0.6588090555915187,G27R09,2022-08-31_12h04.48.162,t1_Paradigm,2021.1.4,60.0516293093241,
Z,left,Distractor,0,44,44,44,590.777381231173,592.7773533214208,left,1,1,0.4876273181939723,G27R09,2022-08-31_12h04.48.162,t1_Paradigm,2021.1.4,60.0516293093241,
F,left,Pretarget,0,45,45,45,594.2778001982556,596.2790384930017,left,1,1,0.47403013611619826,G27R09,2022-08-31_12h04.48.162,t1_Paradigm,2021.1.4,60.0516293093241,
F,right,Target,0,46,46,46,597.7774171609685,599.7777119777747,right,1,1,0.4795761567311274,G27R09,2022-08-31_12h04.48.162,t1_Paradigm,2021.1.4,60.0516293093241,
G,left,Pretarget,0,47,47,47,601.277341451756,603.2785094909195,left,1,1,0.8504662853401896,G27R09,2022-08-31_12h04.48.162,t1_Paradigm,2021.1.4,60.0516293093241,
G,right,Target,0,48,48,48,604.7777655516666,606.7778342032407,right,1,1,0.47113137152337003,G27R09,2022-08-31_12h04.48.162,t1_Paradigm,2021.1.4,60.0516293093241,
V,left,Distractor,0,49,49,49,608.2777029953259,610.277102775256,left,1,1,0.8920184525163677,G27R09,2022-08-31_12h04.48.162,t1_Paradigm,2021.1.4,60.0516293093241,
G,left,Lure,0,50,50,50,611.7774806797147,613.7797173095,left,1,1,0.717260096433165,G27R09,2022-08-31_12h04.48.162,t1_Paradigm,2021.1.4,60.0516293093241,
Q,left,Pretarget,0,51,51,51,615.2777998774536,617.2787802475946,left,1,1,0.5623080402542655,G27R09,2022-08-31_12h04.48.162,t1_Paradigm,2021.1.4,60.0516293093241,
Q,right,Target,0,52,52,52,618.7774595067995,620.777772609305,right,1,1,0.631341047546357,G27R09,2022-08-31_12h04.48.162,t1_Paradigm,2021.1.4,60.0516293093241,
Y,left,Distractor,0,53,53,53,622.2773244492637,624.279644487503,left,1,1,0.7616930633034826,G27R09,2022-08-31_12h04.48.162,t1_Paradigm,2021.1.4,60.0516293093241,
V,left,Distractor,0,54,54,54,625.7773481885929,627.7792053099106,left,1,1,0.6697442247664185,G27R09,2022-08-31_12h04.48.162,t1_Paradigm,2021.1.4,60.0516293093241,
B,left,Distractor,0,55,55,55,629.2776227948889,631.2780651804992,left,1,1,0.5470183081561117,G27R09,2022-08-31_12h04.48.162,t1_Paradigm,2021.1.4,60.0516293093241,
J,left,Pretarget,0,56,56,56,632.7773558878348,634.7783211802939,left,1,1,0.45462965042224823,G27R09,2022-08-31_12h04.48.162,t1_Paradigm,2021.1.4,60.0516293093241,
J,right,Target,0,57,57,57,636.2775993763612,638.2776391557782,right,1,1,0.4913941723152675,G27R09,2022-08-31_12h04.48.162,t1_Paradigm,2021.1.4,60.0516293093241,
H,left,Distractor,0,58,58,58,639.7773369605316,641.7771672564072,left,1,1,0.6238679708326345,G27R09,2022-08-31_12h04.48.162,t1_Paradigm,2021.1.4,60.0516293093241,
J,left,Lure,0,59,59,59,643.2776670655303,645.2796733596606,left,1,1,0.5136674376603878,G27R09,2022-08-31_12h04.48.162,t1_Paradigm,2021.1.4,60.0516293093241,
D,left,Pretarget,0,60,60,60,646.7775579929357,648.7796525075469,left,1,1,0.6134569917135195,G27R09,2022-08-31_12h04.48.162,t1_Paradigm,2021.1.4,60.0516293093241,
D,right,Target,0,61,61,61,650.2772731209839,652.27781206792,right,1,1,0.5710941585207365,G27R09,2022-08-31_12h04.48.162,t1_Paradigm,2021.1.4,60.0516293093241,
R,left,Distractor,0,62,62,62,653.7776580830814,655.7797144222841,left,1,1,0.46136584552095883,G27R09,2022-08-31_12h04.48.162,t1_Paradigm,2021.1.4,60.0516293093241,
F,left,Distractor,0,63,63,63,657.2776195868714,659.2791892698233,left,1,1,0.689866193591115,G27R09,2022-08-31_12h04.48.162,t1_Paradigm,2021.1.4,60.0516293093241,
F,left,Distractor,0,0,0,0,751.9920492494844,753.9936288772901,None,0,2,,G27R09,2022-08-31_12h04.48.162,t1_Paradigm,2021.1.4,60.0516293093241,
N,left,Pretarget,0,1,1,1,755.4939188820699,757.4960573465205,None,0,2,,G27R09,2022-08-31_12h04.48.162,t1_Paradigm,2021.1.4,60.0516293093241,
V,left,Distractor,0,2,2,2,758.9942047164272,760.9963390104549,left,1,2,0.9085788803377,G27R09,2022-08-31_12h04.48.162,t1_Paradigm,2021.1.4,60.0516293093241,
N,right,Target,0,3,3,3,762.493871724213,764.4951196430115,left,0,2,1.105759353776648,G27R09,2022-08-31_12h04.48.162,t1_Paradigm,2021.1.4,60.0516293093241,
N,left,Lure,0,4,4,4,765.9942133780746,767.9943288667037,right,0,2,0.6945332174173018,G27R09,2022-08-31_12h04.48.162,t1_Paradigm,2021.1.4,60.0516293093241,
X,left,Distractor,0,5,5,5,769.4941485761215,771.4962729252948,left,1,2,1.240482293347668,G27R09,2022-08-31_12h04.48.162,t1_Paradigm,2021.1.4,60.0516293093241,
G,left,Pretarget,0,6,6,6,772.9943381699545,774.9960737074093,left,1,2,0.7646611210739138,G27R09,2022-08-31_12h04.48.162,t1_Paradigm,2021.1.4,60.0516293093241,
H,left,Pretarget,0,7,7,7,776.4939747015742,778.4943609468783,left,1,2,0.6586111209135197,G27R09,2022-08-31_12h04.48.162,t1_Paradigm,2021.1.4,60.0516293093241,
G,right,Target,0,8,8,8,779.9941338192411,781.994149217725,None,0,2,,G27R09,2022-08-31_12h04.48.162,t1_Paradigm,2021.1.4,60.0516293093241,
H,right,Target,0,9,9,9,783.4942002252028,785.493603533952,right,1,2,1.3232963021182513,G27R09,2022-08-31_12h04.48.162,t1_Paradigm,2021.1.4,60.0516293093241,
T,left,Pretarget,0,10,10,10,786.9941559545614,788.9968465188199,left,1,2,1.1962873613738338,G27R09,2022-08-31_12h04.48.162,t1_Paradigm,2021.1.4,60.0516293093241,
K,left,Distractor,0,11,11,11,790.4941841851155,792.4948982898059,left,1,2,0.8980723022978054,G27R09,2022-08-31_12h04.48.162,t1_Paradigm,2021.1.4,60.0516293093241,
T,right,Target,0,12,12,12,793.9942403254213,795.9963171959362,None,0,2,,G27R09,2022-08-31_12h04.48.162,t1_Paradigm,2021.1.4,60.0516293093241,
T,left,Lure,0,13,13,13,797.4938550425222,799.4941735986577,left,1,2,1.0185753835985452,G27R09,2022-08-31_12h04.48.162,t1_Paradigm,2021.1.4,60.0516293093241,
J,left,Distractor,0,14,14,14,800.9938219999422,803.0069135984654,left,1,2,0.850082606450087,G27R09,2022-08-31_12h04.48.162,t1_Paradigm,2021.1.4,60.0516293093241,
Q,left,Pretarget,0,15,15,15,804.4938835938779,806.4932195342599,left,1,2,0.5478081220589957,G27R09,2022-08-31_12h04.48.162,t1_Paradigm,2021.1.4,60.0516293093241,
M,left,Distractor,0,16,16,16,807.9941735986577,809.9972093455963,left,1,2,0.6437150125593689,G27R09,2022-08-31_12h04.48.162,t1_Paradigm,2021.1.4,60.0516293093241,
Q,right,Target,0,17,17,17,811.4940318042854,813.4961314517241,right,1,2,0.840809190328855,G27R09,2022-08-31_12h04.48.162,t1_Paradigm,2021.1.4,60.0516293093241,
R,left,Distractor,0,18,18,18,814.9943182802458,816.9961632110972,left,1,2,0.9566850272203737,G27R09,2022-08-31_12h04.48.162,t1_Paradigm,2021.1.4,60.0516293093241,
W,left,Distractor,0,19,19,19,818.4936311229021,820.4933908423932,left,1,2,0.5794414199967832,G27R09,2022-08-31_12h04.48.162,t1_Paradigm,2021.1.4,60.0516293093241,
C,left,Pretarget,0,20,20,20,821.9941598041823,823.9974294155954,left,1,2,0.6434827520943145,G27R09,2022-08-31_12h04.48.162,t1_Paradigm,2021.1.4,60.0516293093241,
T,left,Distractor,0,21,21,21,825.4937065113131,827.4948142397479,left,1,2,1.0499998395989678,G27R09,2022-08-31_12h04.48.162,t1_Paradigm,2021.1.4,60.0516293093241,
C,right,Target,0,22,22,22,828.9941229119818,830.9963399728599,right,1,2,0.6684440152830575,G27R09,2022-08-31_12h04.48.162,t1_Paradigm,2021.1.4,60.0516293093241,
F,left,Pretarget,0,23,23,23,832.4939044459916,834.4960384192173,left,1,2,0.5767017730713633,G27R09,2022-08-31_12h04.48.162,t1_Paradigm,2021.1.4,60.0516293093241,
C,right,Target,0,24,24,24,835.9940013281193,837.9940218594311,right,1,2,0.7427792338612562,G27R09,2022-08-31_12h04.48.162,t1_Paradigm,2021.1.4,60.0516293093241,
F,right,Target,0,25,25,25,839.4938181503212,841.496015963095,right,1,2,0.7289061622805093,G27R09,2022-08-31_12h04.48.162,t1_Paradigm,2021.1.4,60.0516293093241,
H,left,Distractor,0,26,26,26,842.9938986715597,844.9955289860418,left,1,2,0.6212819879442577,G27R09,2022-08-31_12h04.48.162,t1_Paradigm,2021.1.4,60.0516293093241,
H,left,Lure,0,27,27,27,846.494107192696,848.4941591625789,left,1,2,0.7867123916093988,G27R09,2022-08-31_12h04.48.162,t1_Paradigm,2021.1.4,60.0516293093241,
P,left,Distractor,0,28,28,28,849.9940860197808,851.9961003339545,None,0,2,,G27R09,2022-08-31_12h04.48.162,t1_Paradigm,2021.1.4,60.0516293093241,
G,left,Pretarget,0,29,29,29,853.4938550425222,855.4967377670273,left,1,2,1.1760191069524808,G27R09,2022-08-31_12h04.48.162,t1_Paradigm,2021.1.4,60.0516293093241,
K,left,Distractor,0,30,30,30,856.9942066412377,858.9964195316934,left,1,2,0.8604422572893782,G27R09,2022-08-31_12h04.48.162,t1_Paradigm,2021.1.4,60.0516293093241,
G,right,Target,0,31,31,31,860.4937090777271,862.4959142689409,left,0,2,0.4808962559227439,G27R09,2022-08-31_12h04.48.162,t1_Paradigm,2021.1.4,60.0516293093241,
M,left,Pretarget,0,32,32,32,863.9940186514136,865.995785948242,left,1,2,0.5169357658660374,G27R09,2022-08-31_12h04.48.162,t1_Paradigm,2021.1.4,60.0516293093241,
B,left,Distractor,0,33,33,33,867.493795373397,869.4958905296116,left,1,2,0.47299073845351813,G27R09,2022-08-31_12h04.48.162,t1_Paradigm,2021.1.4,60.0516293093241,
M,right,Target,0,34,34,34,870.9941213079728,872.9956566651376,left,0,2,1.2292551945820378,G27R09,2022-08-31_12h04.48.162,t1_Paradigm,2021.1.4,60.0516293093241,
M,left,Lure,0,35,35,35,874.4941309320252,876.493874290627,None,0,2,,G27R09,2022-08-31_12h04.48.162,t1_Paradigm,2021.1.4,60.0516293093241,
T,left,Distractor,0,36,36,36,877.9935239751185,879.9953156528795,left,1,2,0.9333181487172624,G27R09,2022-08-31_12h04.48.162,t1_Paradigm,2021.1.4,60.0516293093241,
F,left,Distractor,0,37,37,37,881.4940779997369,883.4940302002765,left,1,2,0.6507033578318442,G27R09,2022-08-31_12h04.48.162,t1_Paradigm,2021.1.4,60.0516293093241,
X,left,Distractor,0,38,38,38,884.9939240148979,886.9959280634162,left,1,2,0.6208861185873502,G27R09,2022-08-31_12h04.48.162,t1_Paradigm,2021.1.4,60.0516293093241,
C,left,Distractor,0,39,39,39,888.4937074737181,890.493991704067,left,1,2,0.7066967364839911,G27R09,2022-08-31_12h04.48.162,t1_Paradigm,2021.1.4,60.0516293093241,
R,left,Distractor,0,40,40,40,891.9940353331044,893.9961503790273,left,1,2,0.6125834485546875,G27R09,2022-08-31_12h04.48.162,t1_Paradigm,2021.1.4,60.0516293093241,
B,left,Pretarget,0,41,41,41,895.4937491779456,897.4955665198463,left,1,2,0.537193433829998,G27R09,2022-08-31_12h04.48.162,t1_Paradigm,2021.1.4,60.0516293093241,
H,left,Distractor,0,42,42,42,898.9940818493578,900.9940443155533,left,1,2,0.5266021641286898,G27R09,2022-08-31_12h04.48.162,t1_Paradigm,2021.1.4,60.0516293093241,
B,right,Target,0,43,43,43,902.4937774084992,904.4954170262317,right,1,2,0.8973213054064217,G27R09,2022-08-31_12h04.48.162,t1_Paradigm,2021.1.4,60.0516293093241,
W,left,Pretarget,0,44,44,44,905.9935352031798,907.9963399728599,None,0,2,,G27R09,2022-08-31_12h04.48.162,t1_Paradigm,2021.1.4,60.0516293093241,
L,left,Pretarget,0,45,45,45,909.4938710826095,911.4957615673088,None,0,2,,G27R09,2022-08-31_12h04.48.162,t1_Paradigm,2021.1.4,60.0516293093241,
W,right,Target,0,46,46,46,912.9940459195623,914.9948504903455,right,1,2,1.3420009688215941,G27R09,2022-08-31_12h04.48.162,t1_Paradigm,2021.1.4,60.0516293093241,
L,right,Target,0,47,47,47,916.4940048569383,918.4958780183433,None,0,2,,G27R09,2022-08-31_12h04.48.162,t1_Paradigm,2021.1.4,60.0516293093241,
W,right,Target,0,48,48,48,919.9937434035141,921.9958282940725,right,1,2,0.8528755064658071,G27R09,2022-08-31_12h04.48.162,t1_Paradigm,2021.1.4,60.0516293093241,
X,left,Distractor,0,49,49,49,923.4940289170695,925.4961154116368,None,0,2,,G27R09,2022-08-31_12h04.48.162,t1_Paradigm,2021.1.4,60.0516293093241,
R,left,Distractor,0,50,50,50,926.9934973485733,928.9935313535589,left,1,2,0.943311443960738,G27R09,2022-08-31_12h04.48.162,t1_Paradigm,2021.1.4,60.0516293093241,
V,left,Pretarget,0,51,51,51,930.49406388446,932.4937254386159,left,1,2,0.8671136504349306,G27R09,2022-08-31_12h04.48.162,t1_Paradigm,2021.1.4,60.0516293093241,
Z,left,Distractor,0,52,52,52,933.9937369874792,935.9941963755819,left,1,2,0.6466349500669821,G27R09,2022-08-31_12h04.48.162,t1_Paradigm,2021.1.4,60.0516293093241,
V,right,Target,0,53,53,53,937.4937725964733,939.5068564957542,right,1,2,0.5418822721749166,G27R09,2022-08-31_12h04.48.162,t1_Paradigm,2021.1.4,60.0516293093241,
V,left,Lure,0,54,54,54,940.9940468819673,942.9940398243289,left,1,2,1.0226829291764261,G27R09,2022-08-31_12h04.48.162,t1_Paradigm,2021.1.4,60.0516293093241,
N,left,Distractor,0,55,55,55,944.4938239247526,946.4941447265005,left,1,2,1.1226514906052216,G27R09,2022-08-31_12h04.48.162,t1_Paradigm,2021.1.4,60.0516293093241,
B,left,Distractor,0,56,56,56,947.9940119145767,949.994613097052,left,1,2,0.8380945659391728,G27R09,2022-08-31_12h04.48.162,t1_Paradigm,2021.1.4,60.0516293093241,
V,left,Lure,0,57,57,57,951.4940395035273,953.4959569355733,left,1,2,0.6327397431659847,G27R09,2022-08-31_12h04.48.162,t1_Paradigm,2021.1.4,60.0516293093241,
J,left,Distractor,0,58,58,58,954.993129388969,956.9935307119554,left,1,2,0.7835640432567743,G27R09,2022-08-31_12h04.48.162,t1_Paradigm,2021.1.4,60.0516293093241,
H,left,Distractor,0,59,59,59,958.4939464710205,960.4957878730524,left,1,2,0.4813088069704463,G27R09,2022-08-31_12h04.48.162,t1_Paradigm,2021.1.4,60.0516293093241,
X,left,Pretarget,0,60,60,60,961.9937989022164,963.9945976985682,left,1,2,0.5983915000369961,G27R09,2022-08-31_12h04.48.162,t1_Paradigm,2021.1.4,60.0516293093241,
P,left,Distractor,0,61,61,61,965.4936856591994,967.4939349221572,left,1,2,0.6827504900247732,G27R09,2022-08-31_12h04.48.162,t1_Paradigm,2021.1.4,60.0516293093241,
X,right,Target,0,62,62,62,968.993946791822,970.9938938595337,right,1,2,0.910910467440317,G27R09,2022-08-31_12h04.48.162,t1_Paradigm,2021.1.4,60.0516293093241,
Q,left,Distractor,0,63,63,63,972.4934947821594,974.4936920752343,left,1,2,1.0751077091867955,G27R09,2022-08-31_12h04.48.162,t1_Paradigm,2021.1.4,60.0516293093241,
B,left,Pretarget,0,0,0,0,987.7022966197119,989.6930126171328,None,0,2,,G27R09,2022-08-31_12h04.48.162,t1_Paradigm,2021.1.4,60.0516293093241,
F,left,Distractor,0,1,1,1,991.1939971576967,993.1963271407903,None,0,2,,G27R09,2022-08-31_12h04.48.162,t1_Paradigm,2021.1.4,60.0516293093241,
B,right,Target,0,2,2,2,994.6937709924641,996.6938646665744,right,1,2,1.2109755901951758,G27R09,2022-08-31_12h04.48.162,t1_Paradigm,2021.1.4,60.0516293093241,
V,left,Distractor,0,3,3,3,998.1937235138057,1000.1966129751472,left,1,2,0.7000551779005946,G27R09,2022-08-31_12h04.48.162,t1_Paradigm,2021.1.4,60.0516293093241,
G,left,Pretarget,0,4,4,4,1001.6940805661507,1003.6933950128159,None,0,2,,G27R09,2022-08-31_12h04.48.162,t1_Paradigm,2021.1.4,60.0516293093241,
B,left,Lure,0,5,5,5,1005.1939564158747,1007.1956377378342,left,1,2,0.5169184425717503,G27R09,2022-08-31_12h04.48.162,t1_Paradigm,2021.1.4,60.0516293093241,
G,right,Target,0,6,6,6,1008.6939278645191,1010.6960403440276,right,1,2,0.6485969735563231,G27R09,2022-08-31_12h04.48.162,t1_Paradigm,2021.1.4,60.0516293093241,
Y,left,Pretarget,0,7,7,7,1012.1928878252529,1014.1963954715625,left,1,2,0.6362589383388695,G27R09,2022-08-31_12h04.48.162,t1_Paradigm,2021.1.4,60.0516293093241,
P,left,Distractor,0,8,8,8,1015.6930687574386,1017.6959036824833,left,1,2,0.4970733256554922,G27R09,2022-08-31_12h04.48.162,t1_Paradigm,2021.1.4,60.0516293093241,
Y,right,Target,0,9,9,9,1019.1939596238922,1021.1958475421775,right,1,2,1.2368392687003507,G27R09,2022-08-31_12h04.48.162,t1_Paradigm,2021.1.4,60.0516293093241,
X,left,Distractor,0,10,10,10,1022.6935258999292,1024.69577279537,left,1,2,0.5848280021432402,G27R09,2022-08-31_12h04.48.162,t1_Paradigm,2021.1.4,60.0516293093241,
Y,right,Target,0,11,11,11,1026.1939493582358,1028.1951979186383,right,1,2,0.9895213317122398,G27R09,2022-08-31_12h04.48.162,t1_Paradigm,2021.1.4,60.0516293093241,
N,left,Distractor,0,12,12,12,1029.6940038945331,1031.6935631129318,left,1,2,0.4671062719953625,G27R09,2022-08-31_12h04.48.162,t1_Paradigm,2021.1.4,60.0516293093241,
Y,right,Target,0,13,13,13,1033.1934209977576,1035.1942637439488,right,1,2,0.6464674915546311,G27R09,2022-08-31_12h04.48.162,t1_Paradigm,2021.1.4,60.0516293093241,
Y,left,Lure,0,14,14,14,1036.6936285564884,1038.6939397341835,left,1,2,1.0026998675084542,G27R09,2022-08-31_12h04.48.162,t1_Paradigm,2021.1.4,60.0516293093241,
K,left,Distractor,0,15,15,15,1040.194048485976,1042.194318280246,left,1,2,1.1343305990330919,G27R09,2022-08-31_12h04.48.162,t1_Paradigm,2021.1.4,60.0516293093241,
T,left,Pretarget,0,16,16,16,1043.6940414283376,1045.6939471126238,left,1,2,0.594672445375636,G27R09,2022-08-31_12h04.48.162,t1_Paradigm,2021.1.4,60.0516293093241,
J,left,Distractor,0,17,17,17,1047.1938774986447,1049.1960239831387,left,1,2,0.7087543588936569,G27R09,2022-08-31_12h04.48.162,t1_Paradigm,2021.1.4,60.0516293093241,
T,right,Target,0,18,18,18,1050.693664807086,1052.6938797442567,right,1,2,0.9067888065856096,G27R09,2022-08-31_12h04.48.162,t1_Paradigm,2021.1.4,60.0516293093241,
S,left,Pretarget,0,19,19,19,1054.1940032529296,1056.1934951029612,left,1,2,0.6551342715715691,G27R09,2022-08-31_12h04.48.162,t1_Paradigm,2021.1.4,60.0516293093241,
R,left,Distractor,0,20,20,20,1057.693926581312,1059.6955142291613,left,1,2,0.6252130925608981,G27R09,2022-08-31_12h04.48.162,t1_Paradigm,2021.1.4,60.0516293093241,
S,right,Target,0,21,21,21,1061.193902200379,1063.1953656979522,right,1,2,0.6294120666370873,G27R09,2022-08-31_12h04.48.162,t1_Paradigm,2021.1.4,60.0516293093241,
Q,left,Distractor,0,22,22,22,1064.693855042522,1066.6960611961413,left,1,2,0.4725576560940681,G27R09,2022-08-31_12h04.48.162,t1_Paradigm,2021.1.4,60.0516293093241,
D,left,Distractor,0,23,23,23,1068.193969568746,1070.1935544512844,left,1,2,0.639045101517695,G27R09,2022-08-31_12h04.48.162,t1_Paradigm,2021.1.4,60.0516293093241,
F,left,Distractor,0,24,24,24,1071.6939079748104,1073.695261758186,left,1,2,0.46524048903029325,G27R09,2022-08-31_12h04.48.162,t1_Paradigm,2021.1.4,60.0516293093241,
Z,left,Distractor,0,25,25,25,1075.1939791927985,1077.1963861683116,left,1,2,1.1081618380658256,G27R09,2022-08-31_12h04.48.162,t1_Paradigm,2021.1.4,60.0516293093241,
P,left,Distractor,0,26,26,26,1078.6937020200885,1080.6936590326545,left,1,2,0.5230181670031016,G27R09,2022-08-31_12h04.48.162,t1_Paradigm,2021.1.4,60.0516293093241,
H,left,Distractor,0,27,27,27,1082.1936404261528,1084.1959758628764,left,1,2,0.5727135657434701,G27R09,2022-08-31_12h04.48.162,t1_Paradigm,2021.1.4,60.0516293093241,
Z,left,Pretarget,0,28,28,28,1085.6938287367789,1087.6938608169535,left,1,2,0.7706992515695674,G27R09,2022-08-31_12h04.48.162,t1_Paradigm,2021.1.4,60.0516293093241,
J,left,Pretarget,0,29,29,29,1089.193591022684,1091.196193687263,left,1,2,0.5003846412955681,G27R09,2022-08-31_12h04.48.162,t1_Paradigm,2021.1.4,60.0516293093241,
Z,right,Target,0,30,30,30,1092.693975022376,1094.6934604563726,right,1,2,0.555124968320797,G27R09,2022-08-31_12h04.48.162,t1_Paradigm,2021.1.4,60.0516293093241,
J,right,Target,0,31,31,31,1096.1940173682065,1098.195685216493,right,1,2,1.1169017608808645,G27R09,2022-08-31_12h04.48.162,t1_Paradigm,2021.1.4,60.0516293093241,
V,left,Pretarget,0,32,32,32,1099.6938755738342,1101.695215883536,left,1,2,0.5455070111224813,G27R09,2022-08-31_12h04.48.162,t1_Paradigm,2021.1.4,60.0516293093241,
Z,left,Lure,0,33,33,33,1103.1937665012397,1105.195929346623,left,1,2,0.8366275395464982,G27R09,2022-08-31_12h04.48.162,t1_Paradigm,2021.1.4,60.0516293093241,
V,right,Target,0,34,34,34,1106.6938149423036,1108.6937783709045,None,0,2,,G27R09,2022-08-31_12h04.48.162,t1_Paradigm,2021.1.4,60.0516293093241,
X,left,Distractor,0,35,35,35,1110.193664486284,1112.195105527735,None,0,2,,G27R09,2022-08-31_12h04.48.162,t1_Paradigm,2021.1.4,60.0516293093241,
S,left,Distractor,0,36,36,36,1113.6936673735,1115.6962379579045,left,1,2,1.216212037123114,G27R09,2022-08-31_12h04.48.162,t1_Paradigm,2021.1.4,60.0516293093241,
Q,left,Distractor,0,37,37,37,1117.1936311229024,1119.1963492761106,left,1,2,0.4841549600764665,G27R09,2022-08-31_12h04.48.162,t1_Paradigm,2021.1.4,60.0516293093241,
P,left,Distractor,0,38,38,38,1120.6938187919245,1122.6937632932222,left,1,2,0.7309544814397668,G27R09,2022-08-31_12h04.48.162,t1_Paradigm,2021.1.4,60.0516293093241,
S,left,Lure,0,39,39,39,1124.19349670697,1126.1949695077938,left,1,2,1.0055954240838219,G27R09,2022-08-31_12h04.48.162,t1_Paradigm,2021.1.4,60.0516293093241,
K,left,Pretarget,0,40,40,40,1127.6933523461835,1129.6956595523534,left,1,2,0.7849277714863092,G27R09,2022-08-31_12h04.48.162,t1_Paradigm,2021.1.4,60.0516293093241,
L,left,Distractor,0,41,41,41,1131.193576907407,1133.1933943712124,left,1,2,0.6797442568467886,G27R09,2022-08-31_12h04.48.162,t1_Paradigm,2021.1.4,60.0516293093241,
K,right,Target,0,42,42,42,1134.6936089875817,1136.692910602177,right,1,2,0.49175603668663825,G27R09,2022-08-31_12h04.48.162,t1_Paradigm,2021.1.4,60.0516293093241,
B,left,Distractor,0,43,43,43,1138.193541298413,1140.1953288057512,left,1,2,0.5412358566527473,G27R09,2022-08-31_12h04.48.162,t1_Paradigm,2021.1.4,60.0516293093241,
N,left,Distractor,0,44,44,44,1141.6936125164011,1143.693432225819,left,1,2,0.6111289334303365,G27R09,2022-08-31_12h04.48.162,t1_Paradigm,2021.1.4,60.0516293093241,
S,left,Pretarget,0,45,45,45,1145.1929359455148,1147.1945393126502,left,1,2,0.9659706338084106,G27R09,2022-08-31_12h04.48.162,t1_Paradigm,2021.1.4,60.0516293093241,
Z,left,Distractor,0,46,46,46,1148.6937940901903,1150.6949037434356,left,1,2,0.633533406690276,G27R09,2022-08-31_12h04.48.162,t1_Paradigm,2021.1.4,60.0516293093241,
S,right,Target,0,47,47,47,1152.1937915237763,1154.1964249853231,right,1,2,0.47683939702073985,G27R09,2022-08-31_12h04.48.162,t1_Paradigm,2021.1.4,60.0516293093241,
C,left,Distractor,0,48,48,48,1155.693812055088,1157.6964256269266,left,1,2,0.4964246645217827,G27R09,2022-08-31_12h04.48.162,t1_Paradigm,2021.1.4,60.0516293093241,
T,left,Pretarget,0,49,49,49,1159.193860496152,1161.196281907744,left,1,2,0.7403254212927095,G27R09,2022-08-31_12h04.48.162,t1_Paradigm,2021.1.4,60.0516293093241,
S,left,Lure,0,50,50,50,1162.7104472297165,1164.6955790311144,left,1,2,0.4570853878012713,G27R09,2022-08-31_12h04.48.162,t1_Paradigm,2021.1.4,60.0516293093241,
T,right,Target,0,51,51,51,1166.1937552731788,1168.1936766767503,right,1,2,0.7347393004597507,G27R09,2022-08-31_12h04.48.162,t1_Paradigm,2021.1.4,60.0516293093241,
N,left,Pretarget,0,52,52,52,1169.6933635742448,1171.693514351066,left,1,2,0.46694426711246706,G27R09,2022-08-31_12h04.48.162,t1_Paradigm,2021.1.4,60.0516293093241,
B,left,Distractor,0,53,53,53,1173.193823924753,1175.1955905799773,left,1,2,1.092947173576249,G27R09,2022-08-31_12h04.48.162,t1_Paradigm,2021.1.4,60.0516293093241,
N,right,Target,0,54,54,54,1176.6937568771873,1178.6946111722418,right,1,2,1.0499302256198462,G27R09,2022-08-31_12h04.48.162,t1_Paradigm,2021.1.4,60.0516293093241,
N,left,Lure,0,55,55,55,1180.1938165463125,1182.19338474716,left,1,2,1.1670517356978962,G27R09,2022-08-31_12h04.48.162,t1_Paradigm,2021.1.4,60.0516293093241,
X,left,Distractor,0,56,56,56,1183.6937151729603,1185.69592325139,left,1,2,0.6087886846803485,G27R09,2022-08-31_12h04.48.162,t1_Paradigm,2021.1.4,60.0516293093241,
W,left,Distractor,0,57,57,57,1187.193434471431,1189.1940680548828,left,1,2,0.5344460876622179,G27R09,2022-08-31_12h04.48.162,t1_Paradigm,2021.1.4,60.0516293093241,
S,left,Distractor,0,58,58,58,1190.6937812581205,1192.694909197065,left,1,2,0.6175010185452265,G27R09,2022-08-31_12h04.48.162,t1_Paradigm,2021.1.4,60.0516293093241,
L,left,Distractor,0,59,59,59,1194.1934328674224,1196.1946708413666,left,1,2,0.8622624864055979,G27R09,2022-08-31_12h04.48.162,t1_Paradigm,2021.1.4,60.0516293093241,
K,left,Pretarget,0,60,60,60,1197.693776125292,1199.6961984992895,left,1,2,0.7683529075866318,G27R09,2022-08-31_12h04.48.162,t1_Paradigm,2021.1.4,60.0516293093241,
V,left,Pretarget,0,61,61,61,1201.193771313266,1203.1951148309854,left,1,2,0.6615243215842384,G27R09,2022-08-31_12h04.48.162,t1_Paradigm,2021.1.4,60.0516293093241,
K,right,Target,0,62,62,62,1204.693787994957,1206.69603713601,right,1,2,0.9684366368428527,G27R09,2022-08-31_12h04.48.162,t1_Paradigm,2021.1.4,60.0516293093241,
V,right,Target,0,63,63,63,1208.1938075638636,1210.1932974890847,right,1,2,1.1512355679315078,G27R09,2022-08-31_12h04.48.162,t1_Paradigm,2021.1.4,60.0516293093241,
R,left,Distractor,0,0,0,0,1271.705802662013,1273.6934104112997,None,0,3,,G27R09,2022-08-31_12h04.48.162,t1_Paradigm,2021.1.4,60.0516293093241,
P,left,Lure,0,1,1,1,1275.1937203057882,1277.1956739884317,None,0,3,,G27R09,2022-08-31_12h04.48.162,t1_Paradigm,2021.1.4,60.0516293093241,
V,left,Distractor,0,2,2,2,1278.6934877245212,1280.6936385013423,None,0,3,,G27R09,2022-08-31_12h04.48.162,t1_Paradigm,2021.1.4,60.0516293093241,
P,left,Pretarget,0,3,3,3,1282.1936311229024,1284.1950936580702,left,1,3,0.6692954231211843,G27R09,2022-08-31_12h04.48.162,t1_Paradigm,2021.1.4,60.0516293093241,
Z,left,Distractor,0,4,4,4,1285.6938457392716,1287.6932878650323,left,1,3,1.4272501836589981,G27R09,2022-08-31_12h04.48.162,t1_Paradigm,2021.1.4,60.0516293093241,
L,left,Pretarget,0,5,5,5,1289.1936615990685,1291.1959123441302,left,1,3,1.0608884925209168,G27R09,2022-08-31_12h04.48.162,t1_Paradigm,2021.1.4,60.0516293093241,
P,right,Target,0,6,6,6,1292.6937138897533,1294.6956245849628,None,0,3,,G27R09,2022-08-31_12h04.48.162,t1_Paradigm,2021.1.4,60.0516293093241,
S,left,Distractor,0,7,7,7,1296.1937154937618,1298.1940722253053,None,0,3,,G27R09,2022-08-31_12h04.48.162,t1_Paradigm,2021.1.4,60.0516293093241,
L,right,Target,0,8,8,8,1299.6933318148717,1301.6945848664982,left,0,3,1.201840760428695,G27R09,2022-08-31_12h04.48.162,t1_Paradigm,2021.1.4,60.0516293093241,
D,left,Distractor,0,9,9,9,1303.1937209473917,1305.1956855372946,left,1,3,0.9486325825505446,G27R09,2022-08-31_12h04.48.162,t1_Paradigm,2021.1.4,60.0516293093241,
G,left,Distractor,0,10,10,10,1306.6935627921303,1308.693237178356,left,1,3,0.6991585370155917,G27R09,2022-08-31_12h04.48.162,t1_Paradigm,2021.1.4,60.0516293093241,
M,left,Pretarget,0,11,11,11,1310.1934376794484,1312.1957885146558,left,1,3,0.42888851818452167,G27R09,2022-08-31_12h04.48.162,t1_Paradigm,2021.1.4,60.0516293093241,
Y,left,Distractor,0,12,12,12,1313.6936798847678,1315.695380134031,left,1,3,1.0571482649438622,G27R09,2022-08-31_12h04.48.162,t1_Paradigm,2021.1.4,60.0516293093241,
V,left,Distractor,0,13,13,13,1317.1937469323334,1319.1950503498342,left,1,3,0.38917326181626777,G27R09,2022-08-31_12h04.48.162,t1_Paradigm,2021.1.4,60.0516293093241,
M,right,Target,0,14,14,14,1320.6935021605996,1322.6955126251528,right,1,3,0.4889865551990624,G27R09,2022-08-31_12h04.48.162,t1_Paradigm,2021.1.4,60.0516293093241,
S,left,Pretarget,0,15,15,15,1324.1934174689382,1326.1953204649058,left,1,3,0.4293572095384661,G27R09,2022-08-31_12h04.48.162,t1_Paradigm,2021.1.4,60.0516293093241,
Q,left,Distractor,0,16,16,16,1327.6937607268083,1329.6954394823542,left,1,3,0.5291185330374901,G27R09,2022-08-31_12h04.48.162,t1_Paradigm,2021.1.4,60.0516293093241,
R,left,Pretarget,0,17,17,17,1331.1934870829177,1333.1931643563594,left,1,3,0.4233113798004524,G27R09,2022-08-31_12h04.48.162,t1_Paradigm,2021.1.4,60.0516293093241,
S,right,Target,0,18,18,18,1334.6934668724075,1336.6933347020872,left,0,3,1.0192250071377202,G27R09,2022-08-31_12h04.48.162,t1_Paradigm,2021.1.4,60.0516293093241,
F,left,Distractor,0,19,19,19,1338.193655824637,1340.1935111430485,left,1,3,0.7188881653028147,G27R09,2022-08-31_12h04.48.162,t1_Paradigm,2021.1.4,60.0516293093241,
R,right,Target,0,20,20,20,1341.6937539899718,1343.69269085298,right,1,3,0.6277509551869116,G27R09,2022-08-31_12h04.48.162,t1_Paradigm,2021.1.4,60.0516293093241,
P,left,Distractor,0,21,21,21,1345.19342516818,1347.194677899005,left,1,3,0.5019264144948465,G27R09,2022-08-31_12h04.48.162,t1_Paradigm,2021.1.4,60.0516293093241,
L,left,Distractor,0,22,22,22,1348.6936359349284,1350.6937719548696,left,1,3,0.8743759604003571,G27R09,2022-08-31_12h04.48.162,t1_Paradigm,2021.1.4,60.0516293093241,
R,right,Target,0,23,23,23,1352.1932153638372,1354.2063194736284,right,1,3,1.2819725457866298,G27R09,2022-08-31_12h04.48.162,t1_Paradigm,2021.1.4,60.0516293093241,
H,left,Pretarget,0,24,24,24,1355.6933629326413,1357.6941546713547,left,1,3,0.5623227971345841,G27R09,2022-08-31_12h04.48.162,t1_Paradigm,2021.1.4,60.0516293093241,
G,left,Pretarget,0,25,25,25,1359.1934232433696,1361.1935586217073,left,1,3,0.7267959283840355,G27R09,2022-08-31_12h04.48.162,t1_Paradigm,2021.1.4,60.0516293093241,
T,left,Distractor,0,26,26,26,1362.6934797044773,1364.6957189006766,left,1,3,0.6486354697658498,G27R09,2022-08-31_12h04.48.162,t1_Paradigm,2021.1.4,60.0516293093241,
H,right,Target,0,27,27,27,1366.1933016595076,1368.1951276630552,left,0,3,0.3974361524324195,G27R09,2022-08-31_12h04.48.162,t1_Paradigm,2021.1.4,60.0516293093241,
G,right,Target,0,28,28,28,1369.6937533483683,1371.6943067313832,left,0,3,0.5781389649014272,G27R09,2022-08-31_12h04.48.162,t1_Paradigm,2021.1.4,60.0516293093241,
D,left,Distractor,0,29,29,29,1373.193625027669,1375.1961035419722,left,1,3,0.6283851802427307,G27R09,2022-08-31_12h04.48.162,t1_Paradigm,2021.1.4,60.0516293093241,
N,left,Pretarget,0,30,30,30,1376.6936179700306,1378.6941444056988,left,1,3,0.5702732268487125,G27R09,2022-08-31_12h04.48.162,t1_Paradigm,2021.1.4,60.0516293093241,
V,left,Distractor,0,31,31,31,1380.192684116143,1382.1953438834335,left,1,3,0.8131458140182986,G27R09,2022-08-31_12h04.48.162,t1_Paradigm,2021.1.4,60.0516293093241,
R,left,Distractor,0,32,32,32,1383.6927425020613,1385.693228516709,left,1,3,0.5472784783728457,G27R09,2022-08-31_12h04.48.162,t1_Paradigm,2021.1.4,60.0516293093241,
N,right,Target,0,33,33,33,1387.19314799547,1389.1955998832282,left,0,3,0.3885509064252801,G27R09,2022-08-31_12h04.48.162,t1_Paradigm,2021.1.4,60.0516293093241,
Z,left,Distractor,0,34,34,34,1390.693501518996,1392.6944382600996,left,1,3,0.5538590846244915,G27R09,2022-08-31_12h04.48.162,t1_Paradigm,2021.1.4,60.0516293093241,
N,left,Lure,0,35,35,35,1394.1932557848577,1396.1953288057512,left,1,3,0.41320516234145543,G27R09,2022-08-31_12h04.48.162,t1_Paradigm,2021.1.4,60.0516293093241,
Y,left,Pretarget,0,36,36,36,1397.693388596781,1399.6960185295088,left,1,3,0.48085743891124366,G27R09,2022-08-31_12h04.48.162,t1_Paradigm,2021.1.4,60.0516293093241,
Y,left,Lure,0,37,37,37,1401.193542260818,1403.1936747519399,left,1,3,1.3832121237396677,G27R09,2022-08-31_12h04.48.162,t1_Paradigm,2021.1.4,60.0516293093241,
B,left,Distractor,0,38,38,38,1404.6936628822755,1406.6951353622976,left,1,3,0.8412640872065822,G27R09,2022-08-31_12h04.48.162,t1_Paradigm,2021.1.4,60.0516293093241,
Y,right,Target,0,39,39,39,1408.1933154539824,1410.1934694388215,right,1,3,0.6870315893479528,G27R09,2022-08-31_12h04.48.162,t1_Paradigm,2021.1.4,60.0516293093241,
J,left,Distractor,0,40,40,40,1411.6932067021899,1413.6960127550774,left,1,3,0.40031887693749013,G27R09,2022-08-31_12h04.48.162,t1_Paradigm,2021.1.4,60.0516293093241,
X,left,Distractor,0,41,41,41,1415.1932852986183,1417.194645177227,left,1,3,0.5341179074744105,G27R09,2022-08-31_12h04.48.162,t1_Paradigm,2021.1.4,60.0516293093241,
W,left,Pretarget,0,42,42,42,1418.6935563760949,1420.6948363750685,left,1,3,0.5374462256068,G27R09,2022-08-31_12h04.48.162,t1_Paradigm,2021.1.4,60.0516293093241,
S,left,Pretarget,0,43,43,43,1422.1931325969863,1424.1954019485497,left,1,3,0.589031146641446,G27R09,2022-08-31_12h04.48.162,t1_Paradigm,2021.1.4,60.0516293093241,
R,left,Distractor,0,44,44,44,1425.693613799608,1427.6930905719573,left,1,3,0.6271805696796946,G27R09,2022-08-31_12h04.48.162,t1_Paradigm,2021.1.4,60.0516293093241,
W,right,Target,0,45,45,45,1429.1930017098734,1431.1938341904088,left,0,3,0.710460061786307,G27R09,2022-08-31_12h04.48.162,t1_Paradigm,2021.1.4,60.0516293093241,
S,right,Target,0,46,46,46,1432.693355875003,1434.6951417783325,right,1,3,0.6330740185871946,G27R09,2022-08-31_12h04.48.162,t1_Paradigm,2021.1.4,60.0516293093241,
D,left,Distractor,0,47,47,47,1436.1935653585442,1438.1942829920536,left,1,3,0.5261151870754475,G27R09,2022-08-31_12h04.48.162,t1_Paradigm,2021.1.4,60.0516293093241,
T,left,Distractor,0,48,48,48,1439.693655503835,1441.6933699902797,left,1,3,0.5310953134071497,G27R09,2022-08-31_12h04.48.162,t1_Paradigm,2021.1.4,60.0516293093241,
S,right,Target,0,49,49,49,1443.193540977611,1445.1949002146162,left,0,3,0.4382876885915721,G27R09,2022-08-31_12h04.48.162,t1_Paradigm,2021.1.4,60.0516293093241,
K,left,Distractor,0,50,50,50,1446.6932923562567,1448.694129007215,left,1,3,0.5382167914053753,G27R09,2022-08-31_12h04.48.162,t1_Paradigm,2021.1.4,60.0516293093241,
S,left,Lure,0,51,51,51,1450.1931441458491,1452.1944395433065,left,1,3,0.6378687215087666,G27R09,2022-08-31_12h04.48.162,t1_Paradigm,2021.1.4,60.0516293093241,
T,left,Pretarget,0,52,52,52,1453.693551564069,1455.6954988306775,left,1,3,0.7049214196117646,G27R09,2022-08-31_12h04.48.162,t1_Paradigm,2021.1.4,60.0516293093241,
V,left,Distractor,0,53,53,53,1457.1933144915774,1459.193273108152,None,0,3,,G27R09,2022-08-31_12h04.48.162,t1_Paradigm,2021.1.4,60.0516293093241,
B,left,Distractor,0,54,54,54,1460.6932775993764,1462.6934062408773,left,1,3,0.6834370057645174,G27R09,2022-08-31_12h04.48.162,t1_Paradigm,2021.1.4,60.0516293093241,
T,right,Target,0,55,55,55,1464.1933019803091,1466.19304148929,right,1,3,0.5432893086403965,G27R09,2022-08-31_12h04.48.162,t1_Paradigm,2021.1.4,60.0516293093241,
Y,left,Pretarget,0,56,56,56,1467.6935393736026,1469.693899954767,left,1,3,0.546531010300896,G27R09,2022-08-31_12h04.48.162,t1_Paradigm,2021.1.4,60.0516293093241,
T,left,Lure,0,57,57,57,1471.1935785114156,1473.1961298477154,left,1,3,0.340288208290076,G27R09,2022-08-31_12h04.48.162,t1_Paradigm,2021.1.4,60.0516293093241,
P,left,Pretarget,0,58,58,58,1474.6935980803223,1476.6946365155795,left,1,3,0.3937033032952968,G27R09,2022-08-31_12h04.48.162,t1_Paradigm,2021.1.4,60.0516293093241,
Y,right,Target,0,59,59,59,1478.1935076142295,1480.1942688767767,right,1,3,0.6539129793177381,G27R09,2022-08-31_12h04.48.162,t1_Paradigm,2021.1.4,60.0516293093241,
R,left,Distractor,0,60,60,60,1481.6932946018687,1483.6930947423803,left,1,3,0.5152977521420326,G27R09,2022-08-31_12h04.48.162,t1_Paradigm,2021.1.4,60.0516293093241,
P,right,Target,0,61,61,61,1485.193149278677,1487.1931935493185,right,1,3,0.5510206307603767,G27R09,2022-08-31_12h04.48.162,t1_Paradigm,2021.1.4,60.0516293093241,
L,left,Distractor,0,62,62,62,1488.6934764964599,1490.6954795825727,left,1,3,0.4568329168255332,G27R09,2022-08-31_12h04.48.162,t1_Paradigm,2021.1.4,60.0516293093241,
V,left,Distractor,0,63,63,63,1492.1932673337205,1494.1952232619765,left,1,3,0.6210664091695435,G27R09,2022-08-31_12h04.48.162,t1_Paradigm,2021.1.4,60.0516293093241,
H,left,Lure,0,0,0,0,1505.3178234243019,1507.3127900448803,None,0,3,,G27R09,2022-08-31_12h04.48.162,t1_Paradigm,2021.1.4,60.0516293093241,
B,left,Distractor,0,1,1,1,1508.8098383479992,1510.8095608544877,None,0,3,,G27R09,2022-08-31_12h04.48.162,t1_Paradigm,2021.1.4,60.0516293093241,
T,left,Distractor,0,2,2,2,1512.3101415056508,1514.310623349876,None,0,3,,G27R09,2022-08-31_12h04.48.162,t1_Paradigm,2021.1.4,60.0516293093241,
R,left,Distractor,0,3,3,3,1515.8098691449673,1517.8121394589357,left,1,3,0.6520821637432164,G27R09,2022-08-31_12h04.48.162,t1_Paradigm,2021.1.4,60.0516293093241,
H,left,Pretarget,0,4,4,4,1519.3100221674008,1521.3092041229438,left,1,3,0.5312185012780901,G27R09,2022-08-31_12h04.48.162,t1_Paradigm,2021.1.4,60.0516293093241,
K,left,Distractor,0,5,5,5,1522.8101466384787,1524.8111934145818,left,1,3,0.5650807297602114,G27R09,2022-08-31_12h04.48.162,t1_Paradigm,2021.1.4,60.0516293093241,
G,left,Distractor,0,6,6,6,1526.3102358213646,1528.3106108386078,left,1,3,0.47376804108807846,G27R09,2022-08-31_12h04.48.162,t1_Paradigm,2021.1.4,60.0516293093241,
H,right,Target,0,7,7,7,1529.8100702876627,1531.8102332549506,right,1,3,0.5100314706514837,G27R09,2022-08-31_12h04.48.162,t1_Paradigm,2021.1.4,60.0516293093241,
Y,left,Pretarget,0,8,8,8,1533.3102464078224,1535.3116765420136,left,1,3,0.576604570141626,G27R09,2022-08-31_12h04.48.162,t1_Paradigm,2021.1.4,60.0516293093241,
S,left,Distractor,0,9,9,9,1536.8101607537556,1538.8118103163424,left,1,3,0.660989545071061,G27R09,2022-08-31_12h04.48.162,t1_Paradigm,2021.1.4,60.0516293093241,
P,left,Distractor,0,10,10,10,1540.309738257854,1542.311575810265,left,1,3,0.5845928544622438,G27R09,2022-08-31_12h04.48.162,t1_Paradigm,2021.1.4,60.0516293093241,
Y,right,Target,0,11,11,11,1543.8101424680563,1545.80953743596,right,1,3,0.5748058347421647,G27R09,2022-08-31_12h04.48.162,t1_Paradigm,2021.1.4,60.0516293093241,
H,left,Lure,0,12,12,12,1547.3101610745575,1549.3116322713727,left,1,3,0.512803197751964,G27R09,2022-08-31_12h04.48.162,t1_Paradigm,2021.1.4,60.0516293093241,
Q,left,Distractor,0,13,13,13,1550.8095958218778,1552.81102788088,left,1,3,0.5812773683992418,G27R09,2022-08-31_12h04.48.162,t1_Paradigm,2021.1.4,60.0516293093241,
V,left,Pretarget,0,14,14,14,1554.309617315595,1556.3125972430298,left,1,3,0.5675733593393488,G27R09,2022-08-31_12h04.48.162,t1_Paradigm,2021.1.4,60.0516293093241,
G,left,Distractor,0,15,15,15,1557.810126107167,1559.809772583641,left,1,3,0.574517433971323,G27R09,2022-08-31_12h04.48.162,t1_Paradigm,2021.1.4,60.0516293093241,
Z,left,Pretarget,0,16,16,16,1561.3101877011027,1563.3106968134762,left,1,3,0.5136821945407064,G27R09,2022-08-31_12h04.48.162,t1_Paradigm,2021.1.4,60.0516293093241,
V,right,Target,0,17,17,17,1564.8098701073723,1566.8095720825486,right,1,3,0.8225799518154417,G27R09,2022-08-31_12h04.48.162,t1_Paradigm,2021.1.4,60.0516293093241,
N,left,Distractor,0,18,18,18,1568.3102104780264,1570.3115357100464,left,1,3,0.4727857461371059,G27R09,2022-08-31_12h04.48.162,t1_Paradigm,2021.1.4,60.0516293093241,
Z,right,Target,0,19,19,19,1571.8102621271082,1573.8101360520213,right,1,3,0.6540352047836677,G27R09,2022-08-31_12h04.48.162,t1_Paradigm,2021.1.4,60.0516293093241,
R,left,Distractor,0,20,20,20,1575.310009335331,1577.3120724113705,left,1,3,0.6562541904727368,G27R09,2022-08-31_12h04.48.162,t1_Paradigm,2021.1.4,60.0516293093241,
P,left,Distractor,0,21,21,21,1578.8100885733625,1580.8102460870205,left,1,3,0.6300742014441312,G27R09,2022-08-31_12h04.48.162,t1_Paradigm,2021.1.4,60.0516293093241,
Z,right,Target,0,22,22,22,1582.3097475611048,1584.30985502969,left,0,3,0.4424853794603223,G27R09,2022-08-31_12h04.48.162,t1_Paradigm,2021.1.4,60.0516293093241,
D,left,Pretarget,0,23,23,23,1585.8100741372837,1587.8092140677982,left,1,3,0.5110188984308479,G27R09,2022-08-31_12h04.48.162,t1_Paradigm,2021.1.4,60.0516293093241,
K,left,Distractor,0,24,24,24,1589.3095579672718,1591.3100083729255,left,1,3,0.706385879590016,G27R09,2022-08-31_12h04.48.162,t1_Paradigm,2021.1.4,60.0516293093241,
W,left,Distractor,0,25,25,25,1592.810081194922,1594.8091604939063,left,1,3,0.7271738328431638,G27R09,2022-08-31_12h04.48.162,t1_Paradigm,2021.1.4,60.0516293093241,
D,right,Target,0,26,26,26,1596.309976292751,1598.3119957397525,left,0,3,0.504190633230337,G27R09,2022-08-31_12h04.48.162,t1_Paradigm,2021.1.4,60.0516293093241,
G,left,Pretarget,0,27,27,27,1599.809703932067,1601.8103936558246,left,1,3,0.5579053570681936,G27R09,2022-08-31_12h04.48.162,t1_Paradigm,2021.1.4,60.0516293093241,
V,left,Distractor,0,28,28,28,1603.3096323932773,1605.3101187287266,left,1,3,0.6101254655632147,G27R09,2022-08-31_12h04.48.162,t1_Paradigm,2021.1.4,60.0516293093241,
D,right,Target,0,29,29,29,1606.8101001222253,1608.812617132738,right,1,3,0.8355111494643097,G27R09,2022-08-31_12h04.48.162,t1_Paradigm,2021.1.4,60.0516293093241,
G,right,Target,0,30,30,30,1610.3096391301137,1612.3120207622892,left,0,3,0.5201226104277339,G27R09,2022-08-31_12h04.48.162,t1_Paradigm,2021.1.4,60.0516293093241,
B,left,Pretarget,0,31,31,31,1613.8100478315405,1615.8120165918663,left,1,3,0.5562413584029855,G27R09,2022-08-31_12h04.48.162,t1_Paradigm,2021.1.4,60.0516293093241,
N,left,Distractor,0,32,32,32,1617.31009178138,1619.3119283713859,left,1,3,0.5283723481725247,G27R09,2022-08-31_12h04.48.162,t1_Paradigm,2021.1.4,60.0516293093241,
F,left,Distractor,0,33,33,33,1620.8090831806853,1622.8114269582538,left,1,3,0.8207103192298746,G27R09,2022-08-31_12h04.48.162,t1_Paradigm,2021.1.4,60.0516293093241,
B,right,Target,0,34,34,34,1624.3099406837568,1626.3095281327091,left,0,3,1.130786060522496,G27R09,2022-08-31_12h04.48.162,t1_Paradigm,2021.1.4,60.0516293093241,
Q,left,Pretarget,0,35,35,35,1627.8091730051747,1629.8115206323641,left,1,3,0.732517106753221,G27R09,2022-08-31_12h04.48.162,t1_Paradigm,2021.1.4,60.0516293093241,
S,left,Pretarget,0,36,36,36,1631.3100295458407,1633.311889875176,left,1,3,0.49652603787353655,G27R09,2022-08-31_12h04.48.162,t1_Paradigm,2021.1.4,60.0516293093241,
W,left,Distractor,0,37,37,37,1634.8099095659873,1636.8110994196695,left,1,3,0.6931018000186668,G27R09,2022-08-31_12h04.48.162,t1_Paradigm,2021.1.4,60.0516293093241,
Q,right,Target,0,38,38,38,1638.3098213455069,1640.3097716212355,left,0,3,0.6183752033080054,G27R09,2022-08-31_12h04.48.162,t1_Paradigm,2021.1.4,60.0516293093241,
S,right,Target,0,39,39,39,1641.8098027390051,1643.8119248425664,right,1,3,0.6842213660379457,G27R09,2022-08-31_12h04.48.162,t1_Paradigm,2021.1.4,60.0516293093241,
T,left,Distractor,0,40,40,40,1645.3097032904634,1647.3110118407926,left,1,3,0.5774989654141791,G27R09,2022-08-31_12h04.48.162,t1_Paradigm,2021.1.4,60.0516293093241,
G,left,Distractor,0,41,41,41,1648.8100661172402,1650.810366387676,left,1,3,0.8377599697159894,G27R09,2022-08-31_12h04.48.162,t1_Paradigm,2021.1.4,60.0516293093241,
D,left,Distractor,0,42,42,42,1652.3098235911189,1654.3114786073352,left,1,3,0.5366044418210549,G27R09,2022-08-31_12h04.48.162,t1_Paradigm,2021.1.4,60.0516293093241,
S,left,Lure,0,43,43,43,1655.8096971952305,1657.8100674004472,left,1,3,0.4941691074332084,G27R09,2022-08-31_12h04.48.162,t1_Paradigm,2021.1.4,60.0516293093241,
Z,left,Pretarget,0,44,44,44,1659.310015430564,1661.3104157911453,left,1,3,0.5298576602644971,G27R09,2022-08-31_12h04.48.162,t1_Paradigm,2021.1.4,60.0516293093241,
J,left,Distractor,0,45,45,45,1662.8096407341227,1664.8104520417428,left,1,3,0.5496039702425151,G27R09,2022-08-31_12h04.48.162,t1_Paradigm,2021.1.4,60.0516293093241,
M,left,Pretarget,0,46,46,46,1666.3099586486546,1668.309425155348,left,1,3,0.4908148043591609,G27R09,2022-08-31_12h04.48.162,t1_Paradigm,2021.1.4,60.0516293093241,
Z,right,Target,0,47,47,47,1669.8100147889604,1671.8095852354204,right,1,3,0.6384901144942887,G27R09,2022-08-31_12h04.48.162,t1_Paradigm,2021.1.4,60.0516293093241,
P,left,Distractor,0,48,48,48,1673.3096301476648,1675.3120862058454,left,1,3,0.496197216082237,G27R09,2022-08-31_12h04.48.162,t1_Paradigm,2021.1.4,60.0516293093241,
M,right,Target,0,49,49,49,1676.809654207796,1678.8103541972096,right,1,3,0.7259130819747952,G27R09,2022-08-31_12h04.48.162,t1_Paradigm,2021.1.4,60.0516293093241,
K,left,Distractor,0,50,50,50,1680.309650358175,1682.312590506193,left,1,3,0.39149490406407494,G27R09,2022-08-31_12h04.48.162,t1_Paradigm,2021.1.4,60.0516293093241,
Y,left,Distractor,0,51,51,51,1683.8097029696619,1685.8109518508654,left,1,3,0.44557822911019684,G27R09,2022-08-31_12h04.48.162,t1_Paradigm,2021.1.4,60.0516293093241,
X,left,Distractor,0,52,52,52,1687.3099714807245,1689.3121471581776,left,1,3,0.5922141415826445,G27R09,2022-08-31_12h04.48.162,t1_Paradigm,2021.1.4,60.0516293093241,
F,left,Pretarget,0,53,53,53,1690.8100317914532,1692.810549565474,left,1,3,0.8213548099411128,G27R09,2022-08-31_12h04.48.162,t1_Paradigm,2021.1.4,60.0516293093241,
M,left,Lure,0,54,54,54,1694.309652924589,1696.3098864682615,left,1,3,0.5062819398240208,G27R09,2022-08-31_12h04.48.162,t1_Paradigm,2021.1.4,60.0516293093241,
V,left,Distractor,0,55,55,55,1697.8094755212228,1699.8095047141815,left,1,3,0.5266554172185351,G27R09,2022-08-31_12h04.48.162,t1_Paradigm,2021.1.4,60.0516293093241,
F,right,Target,0,56,56,56,1701.309728954603,1703.3119357498258,right,1,3,0.7041832547902231,G27R09,2022-08-31_12h04.48.162,t1_Paradigm,2021.1.4,60.0516293093241,
S,left,Distractor,0,57,57,57,1704.8097462778978,1706.8107462169455,left,1,3,0.6294499212431219,G27R09,2022-08-31_12h04.48.162,t1_Paradigm,2021.1.4,60.0516293093241,
D,left,Distractor,0,58,58,58,1708.3099875208118,1710.3094931653186,left,1,3,0.7786291499714935,G27R09,2022-08-31_12h04.48.162,t1_Paradigm,2021.1.4,60.0516293093241,
F,right,Target,0,59,59,59,1711.8099451749813,1713.8111286126286,right,1,3,0.6689165562574999,G27R09,2022-08-31_12h04.48.162,t1_Paradigm,2021.1.4,60.0516293093241,
V,left,Pretarget,0,60,60,60,1715.309921435652,1717.3106551092492,left,1,3,0.513555477850332,G27R09,2022-08-31_12h04.48.162,t1_Paradigm,2021.1.4,60.0516293093241,
J,left,Distractor,0,61,61,61,1718.8096789095307,1720.8094354210043,left,1,3,0.838682595543105,G27R09,2022-08-31_12h04.48.162,t1_Paradigm,2021.1.4,60.0516293093241,
V,left,Lure,0,62,62,62,1722.3096586990205,1724.3118449629314,right,0,3,0.9682685367270096,G27R09,2022-08-31_12h04.48.162,t1_Paradigm,2021.1.4,60.0516293093241,
V,right,Target,0,63,63,63,1725.8091117320405,1727.8096612654344,right,1,3,0.4945191021397477,G27R09,2022-08-31_12h04.48.162,t1_Paradigm,2021.1.4,60.0516293093241,
R,left,Distractor,0,0,0,0,1788.3248483409739,1790.3278715766442,None,0,4,,G27R09,2022-08-31_12h04.48.162,t1_Paradigm,2021.1.4,60.0516293093241,
F,left,Distractor,0,1,1,1,1791.8265325501493,1793.8280290903026,None,0,4,,G27R09,2022-08-31_12h04.48.162,t1_Paradigm,2021.1.4,60.0516293093241,
P,left,Pretarget,0,2,2,2,1795.326547948633,1797.3277759777234,None,0,4,,G27R09,2022-08-31_12h04.48.162,t1_Paradigm,2021.1.4,60.0516293093241,
H,left,Distractor,0,3,3,3,1798.826470635412,1800.8286475960722,None,0,4,,G27R09,2022-08-31_12h04.48.162,t1_Paradigm,2021.1.4,60.0516293093241,
Z,left,Distractor,0,4,4,4,1802.326080219685,1804.3273063239649,left,1,4,0.7288962174266089,G27R09,2022-08-31_12h04.48.162,t1_Paradigm,2021.1.4,60.0516293093241,
T,left,Distractor,0,5,5,5,1805.8260712372362,1807.8265341541578,left,1,4,0.7013874675590159,G27R09,2022-08-31_12h04.48.162,t1_Paradigm,2021.1.4,60.0516293093241,
P,right,Target,0,6,6,6,1809.3265296629334,1811.3260138137234,right,1,4,0.754002483005479,G27R09,2022-08-31_12h04.48.162,t1_Paradigm,2021.1.4,60.0516293093241,
G,left,Distractor,0,7,7,7,1812.8263647708354,1814.8271574719538,left,1,4,0.8368290030443859,G27R09,2022-08-31_12h04.48.162,t1_Paradigm,2021.1.4,60.0516293093241,
L,left,Distractor,0,8,8,8,1816.326558214289,1818.3289478665079,left,1,4,0.6470664284179293,G27R09,2022-08-31_12h04.48.162,t1_Paradigm,2021.1.4,60.0516293093241,
P,left,Lure,0,9,9,9,1819.82660056012,1821.839479467084,left,1,4,0.5126318896182056,G27R09,2022-08-31_12h04.48.162,t1_Paradigm,2021.1.4,60.0516293093241,
Q,left,Pretarget,0,10,10,10,1823.326521322088,1825.3283495712485,left,1,4,0.6397636974324996,G27R09,2022-08-31_12h04.48.162,t1_Paradigm,2021.1.4,60.0516293093241,
D,left,Distractor,0,11,11,11,1826.8263009312873,1828.82830947103,left,1,4,0.499621774739353,G27R09,2022-08-31_12h04.48.162,t1_Paradigm,2021.1.4,60.0516293093241,
M,left,Pretarget,0,12,12,12,1830.3266021641284,1832.3263500139547,left,1,4,0.47374590576782794,G27R09,2022-08-31_12h04.48.162,t1_Paradigm,2021.1.4,60.0516293093241,
C,left,Distractor,0,13,13,13,1833.8265383245807,1835.8265883696536,left,1,4,1.117408948443881,G27R09,2022-08-31_12h04.48.162,t1_Paradigm,2021.1.4,60.0516293093241,
Q,right,Target,0,14,14,14,1837.3265784247992,1839.3273143440083,left,0,4,0.7047196353128129,G27R09,2022-08-31_12h04.48.162,t1_Paradigm,2021.1.4,60.0516293093241,
R,left,Distractor,0,15,15,15,1840.8264924499308,1842.825538385533,left,1,4,0.4544897808600581,G27R09,2022-08-31_12h04.48.162,t1_Paradigm,2021.1.4,60.0516293093241,
M,right,Target,0,16,16,16,1844.3262220140573,1846.3279492106672,right,1,4,0.6159454508710951,G27R09,2022-08-31_12h04.48.162,t1_Paradigm,2021.1.4,60.0516293093241,
S,left,Distractor,0,17,17,17,1847.826047177105,1849.8279886692821,left,1,4,0.8282228545581347,G27R09,2022-08-31_12h04.48.162,t1_Paradigm,2021.1.4,60.0516293093241,
Z,left,Distractor,0,18,18,18,1851.3256458541186,1853.3274519679585,left,1,4,0.6246776744437739,G27R09,2022-08-31_12h04.48.162,t1_Paradigm,2021.1.4,60.0516293093241,
L,left,Pretarget,0,19,19,19,1854.8265777831957,1856.827686474036,left,1,4,1.0442606963324579,G27R09,2022-08-31_12h04.48.162,t1_Paradigm,2021.1.4,60.0516293093241,
M,right,Target,0,20,20,20,1858.3264456128754,1860.3274051309031,left,0,4,0.984579059987027,G27R09,2022-08-31_12h04.48.162,t1_Paradigm,2021.1.4,60.0516293093241,
P,left,Distractor,0,21,21,21,1861.8264196279342,1863.829092548096,left,1,4,0.5070387111468335,G27R09,2022-08-31_12h04.48.162,t1_Paradigm,2021.1.4,60.0516293093241,
F,left,Distractor,0,22,22,22,1865.3264799386625,1867.3270339632809,left,1,4,0.5931951533275424,G27R09,2022-08-31_12h04.48.162,t1_Paradigm,2021.1.4,60.0516293093241,
L,right,Target,0,23,23,23,1868.8262803999755,1870.8263869061557,right,1,4,0.7733943070520581,G27R09,2022-08-31_12h04.48.162,t1_Paradigm,2021.1.4,60.0516293093241,
L,left,Lure,0,24,24,24,1872.3264815426714,1874.326486996301,left,1,4,0.7457097578267167,G27R09,2022-08-31_12h04.48.162,t1_Paradigm,2021.1.4,60.0516293093241,
V,left,Pretarget,0,25,25,25,1875.8260603299768,1877.8282032856514,left,1,4,0.6357103673503843,G27R09,2022-08-31_12h04.48.162,t1_Paradigm,2021.1.4,60.0516293093241,
Z,left,Distractor,0,26,26,26,1879.3258912674555,1881.3270204896075,right,0,4,0.800952781190972,G27R09,2022-08-31_12h04.48.162,t1_Paradigm,2021.1.4,60.0516293093241,
H,left,Distractor,0,27,27,27,1882.8264690314031,1884.8283652905338,left,1,4,0.8514899637170856,G27R09,2022-08-31_12h04.48.162,t1_Paradigm,2021.1.4,60.0516293093241,
X,left,Distractor,0,28,28,28,1886.3264892419134,1888.3272739229883,left,1,4,0.616691956538034,G27R09,2022-08-31_12h04.48.162,t1_Paradigm,2021.1.4,60.0516293093241,
V,right,Target,0,29,29,29,1889.8265489110386,1891.8271225045632,right,1,4,0.8766398583338741,G27R09,2022-08-31_12h04.48.162,t1_Paradigm,2021.1.4,60.0516293093241,
C,left,Distractor,0,30,30,30,1893.3264738434295,1895.3265732919713,left,1,4,0.817389379537417,G27R09,2022-08-31_12h04.48.162,t1_Paradigm,2021.1.4,60.0516293093241,
S,left,Pretarget,0,31,31,31,1896.8266143545948,1898.8279180928976,left,1,4,0.7717899775116166,G27R09,2022-08-31_12h04.48.162,t1_Paradigm,2021.1.4,60.0516293093241,
D,left,Distractor,0,32,32,32,1900.3260600091749,1902.3283547040764,left,1,4,0.7756909267641277,G27R09,2022-08-31_12h04.48.162,t1_Paradigm,2021.1.4,60.0516293093241,
V,left,Distractor,0,33,33,33,1903.8262107859964,1905.828750573433,right,0,4,0.651191297290552,G27R09,2022-08-31_12h04.48.162,t1_Paradigm,2021.1.4,60.0516293093241,
R,left,Distractor,0,34,34,34,1907.3260320994227,1909.3258165206485,left,1,4,0.546131932926528,G27R09,2022-08-31_12h04.48.162,t1_Paradigm,2021.1.4,60.0516293093241,
S,right,Target,0,35,35,35,1910.8263567507915,1912.8274051309031,right,1,4,0.5165437461305373,G27R09,2022-08-31_12h04.48.162,t1_Paradigm,2021.1.4,60.0516293093241,
Y,left,Distractor,0,36,36,36,1914.326323066608,1916.3271539431348,left,1,4,0.5687632130220663,G27R09,2022-08-31_12h04.48.162,t1_Paradigm,2021.1.4,60.0516293093241,
N,left,Pretarget,0,37,37,37,1917.826354505179,1919.827294775102,left,1,4,0.8127954985102406,G27R09,2022-08-31_12h04.48.162,t1_Paradigm,2021.1.4,60.0516293093241,
Z,left,Pretarget,0,38,38,38,1921.3265553270735,1923.3259130819742,left,1,4,0.9142403895816642,G27R09,2022-08-31_12h04.48.162,t1_Paradigm,2021.1.4,60.0516293093241,
P,left,Pretarget,0,39,39,39,1924.826442404858,1926.8282270249806,left,1,4,1.4597400222637589,G27R09,2022-08-31_12h04.48.162,t1_Paradigm,2021.1.4,60.0516293093241,
M,left,Distractor,0,40,40,40,1928.3265742543763,1930.3285622628073,left,1,4,0.5673414196762678,G27R09,2022-08-31_12h04.48.162,t1_Paradigm,2021.1.4,60.0516293093241,
N,right,Target,0,41,41,41,1931.826433743211,1933.8272492212536,right,1,4,0.9567822301496562,G27R09,2022-08-31_12h04.48.162,t1_Paradigm,2021.1.4,60.0516293093241,
Z,right,Target,0,42,42,42,1935.3264526705143,1937.3258793977907,right,1,4,0.6101803226624725,G27R09,2022-08-31_12h04.48.162,t1_Paradigm,2021.1.4,60.0516293093241,
P,right,Target,0,43,43,43,1938.8263631668265,1940.8278343636416,right,1,4,0.7718425889984246,G27R09,2022-08-31_12h04.48.162,t1_Paradigm,2021.1.4,60.0516293093241,
X,left,Pretarget,0,44,44,44,1942.3264985451642,1944.3259211020181,left,1,4,1.0504643605295314,G27R09,2022-08-31_12h04.48.162,t1_Paradigm,2021.1.4,60.0516293093241,
Z,left,Lure,0,45,45,45,1945.8263769613018,1947.8286254607515,None,0,4,,G27R09,2022-08-31_12h04.48.162,t1_Paradigm,2021.1.4,60.0516293093241,
R,left,Pretarget,0,46,46,46,1949.3258425055901,1951.3287277965092,left,1,4,1.35919145127491,G27R09,2022-08-31_12h04.48.162,t1_Paradigm,2021.1.4,60.0516293093241,
K,left,Distractor,0,47,47,47,1952.8264590865492,1954.8279366993993,left,1,4,0.5802216098472854,G27R09,2022-08-31_12h04.48.162,t1_Paradigm,2021.1.4,60.0516293093241,
X,right,Target,0,48,48,48,1956.3262178436348,1958.3262829663895,right,1,4,0.6335330858883026,G27R09,2022-08-31_12h04.48.162,t1_Paradigm,2021.1.4,60.0516293093241,
B,left,Distractor,0,49,49,49,1959.8263634876284,1961.8260195881548,left,1,4,0.5259182148024593,G27R09,2022-08-31_12h04.48.162,t1_Paradigm,2021.1.4,60.0516293093241,
R,right,Target,0,50,50,50,1963.3430124567317,1965.3283274359278,right,1,4,0.5595154610405189,G27R09,2022-08-31_12h04.48.162,t1_Paradigm,2021.1.4,60.0516293093241,
Y,left,Pretarget,0,51,51,51,1966.8263907557766,1968.8265299837353,left,1,4,0.5494448525755615,G27R09,2022-08-31_12h04.48.162,t1_Paradigm,2021.1.4,60.0516293093241,
W,left,Pretarget,0,52,52,52,1970.3263551467826,1972.3277772609304,left,1,4,0.5201049663319282,G27R09,2022-08-31_12h04.48.162,t1_Paradigm,2021.1.4,60.0516293093241,
Z,left,Distractor,0,53,53,53,1973.8263644500335,1975.8277487095747,left,1,4,0.5560918647884137,G27R09,2022-08-31_12h04.48.162,t1_Paradigm,2021.1.4,60.0516293093241,
Q,left,Distractor,0,54,54,54,1977.3258716985488,1979.3281028747042,left,1,4,0.6238461563139026,G27R09,2022-08-31_12h04.48.162,t1_Paradigm,2021.1.4,60.0516293093241,
Y,right,Target,0,55,55,55,1980.826049743519,1982.8286883378942,left,0,4,0.69142978130958,G27R09,2022-08-31_12h04.48.162,t1_Paradigm,2021.1.4,60.0516293093241,
W,right,Target,0,56,56,56,1984.32609401416,1986.3288423227327,right,1,4,0.5989952489262578,G27R09,2022-08-31_12h04.48.162,t1_Paradigm,2021.1.4,60.0516293093241,
H,left,Pretarget,0,57,57,57,1987.8263111969432,1989.8282491603013,left,1,4,0.5397466949398222,G27R09,2022-08-31_12h04.48.162,t1_Paradigm,2021.1.4,60.0516293093241,
M,left,Distractor,0,58,58,58,1991.3259907159972,1993.3263907557766,left,1,4,0.6415120669580574,G27R09,2022-08-31_12h04.48.162,t1_Paradigm,2021.1.4,60.0516293093241,
R,left,Pretarget,0,59,59,59,1994.826014455327,1996.827802283467,left,1,4,0.6121891832067377,G27R09,2022-08-31_12h04.48.162,t1_Paradigm,2021.1.4,60.0516293093241,
J,left,Distractor,0,60,60,60,1998.3260369114491,2000.3278484789184,left,1,4,0.8401541131597696,G27R09,2022-08-31_12h04.48.162,t1_Paradigm,2021.1.4,60.0516293093241,
H,right,Target,0,61,61,61,2001.8263901141731,2003.826703216679,left,0,4,0.7330541288788481,G27R09,2022-08-31_12h04.48.162,t1_Paradigm,2021.1.4,60.0516293093241,
Z,left,Distractor,0,62,62,62,2005.3259259140445,2007.3284782127494,left,1,4,0.5433913235960972,G27R09,2022-08-31_12h04.48.162,t1_Paradigm,2021.1.4,60.0516293093241,
R,right,Target,0,63,63,63,2008.8264218735462,2010.828666523375,right,1,4,0.7709250960001555,G27R09,2022-08-31_12h04.48.162,t1_Paradigm,2021.1.4,60.0516293093241,
J,left,Pretarget,0,0,0,0,2023.1216618172134,2025.1102069492076,None,0,4,,G27R09,2022-08-31_12h04.48.162,t1_Paradigm,2021.1.4,60.0516293093241,
G,left,Pretarget,0,1,1,1,2026.6096603030292,2028.611303449581,None,0,4,,G27R09,2022-08-31_12h04.48.162,t1_Paradigm,2021.1.4,60.0516293093241,
Z,left,Distractor,0,2,2,2,2030.1098004933929,2032.1112585373367,None,0,4,,G27R09,2022-08-31_12h04.48.162,t1_Paradigm,2021.1.4,60.0516293093241,
F,left,Distractor,0,3,3,3,2033.609317045159,2035.6115555997549,None,0,4,,G27R09,2022-08-31_12h04.48.162,t1_Paradigm,2021.1.4,60.0516293093241,
J,right,Target,0,4,4,4,2037.109740824268,2039.11103525932,right,1,4,0.520583602539773,G27R09,2022-08-31_12h04.48.162,t1_Paradigm,2021.1.4,60.0516293093241,
G,right,Target,0,5,5,5,2040.6096647942536,2042.6114680208775,right,1,4,0.4924858606627822,G27R09,2022-08-31_12h04.48.162,t1_Paradigm,2021.1.4,60.0516293093241,
H,left,Distractor,0,6,6,6,2044.1093796015002,2046.11127938945,left,1,4,1.1845331853369316,G27R09,2022-08-31_12h04.48.162,t1_Paradigm,2021.1.4,60.0516293093241,
P,left,Distractor,0,7,7,7,2047.6097122729125,2049.6110371841305,left,1,4,0.9486681915445843,G27R09,2022-08-31_12h04.48.162,t1_Paradigm,2021.1.4,60.0516293093241,
G,left,Lure,0,8,8,8,2051.1092233710488,2053.1090867095045,left,1,4,0.6989047828333241,G27R09,2022-08-31_12h04.48.162,t1_Paradigm,2021.1.4,60.0516293093241,
S,left,Distractor,0,9,9,9,2054.609776433262,2056.6104324728362,left,1,4,0.9413859918709022,G27R09,2022-08-31_12h04.48.162,t1_Paradigm,2021.1.4,60.0516293093241,
R,left,Pretarget,0,10,10,10,2058.1096753807115,2060.111940882654,left,1,4,1.0719792505428813,G27R09,2022-08-31_12h04.48.162,t1_Paradigm,2021.1.4,60.0516293093241,
T,left,Pretarget,0,11,11,11,2061.609625014837,2063.6121272684695,left,1,4,0.6596203632120705,G27R09,2022-08-31_12h04.48.162,t1_Paradigm,2021.1.4,60.0516293093241,
X,left,Distractor,0,12,12,12,2065.10960352112,2067.110826417382,left,1,4,0.6810377294937098,G27R09,2022-08-31_12h04.48.162,t1_Paradigm,2021.1.4,60.0516293093241,
F,left,Pretarget,0,13,13,13,2068.609395962389,2070.611790747436,left,1,4,0.5401650204189536,G27R09,2022-08-31_12h04.48.162,t1_Paradigm,2021.1.4,60.0516293093241,
R,right,Target,0,14,14,14,2072.1092098973754,2074.1110500162004,left,0,4,0.512878265360996,G27R09,2022-08-31_12h04.48.162,t1_Paradigm,2021.1.4,60.0516293093241,
T,right,Target,0,15,15,15,2075.609326027608,2077.6121121907872,right,1,4,0.5156811102310712,G27R09,2022-08-31_12h04.48.162,t1_Paradigm,2021.1.4,60.0516293093241,
C,left,Distractor,0,16,16,16,2079.109594538671,2081.1107227984176,left,1,4,0.6330560536894154,G27R09,2022-08-31_12h04.48.162,t1_Paradigm,2021.1.4,60.0516293093241,
F,right,Target,0,17,17,17,2082.60951177182,2084.6090966543584,right,1,4,1.4547169084976304,G27R09,2022-08-31_12h04.48.162,t1_Paradigm,2021.1.4,60.0516293093241,
M,left,Distractor,0,18,18,18,2086.109490598905,2088.1110580362442,left,1,4,0.48071885255603775,G27R09,2022-08-31_12h04.48.162,t1_Paradigm,2021.1.4,60.0516293093241,
N,left,Distractor,0,19,19,19,2089.609731841819,2091.609053025321,left,1,4,0.6148810306717678,G27R09,2022-08-31_12h04.48.162,t1_Paradigm,2021.1.4,60.0516293093241,
R,left,Lure,0,20,20,20,2093.1096843631603,2095.1101139167004,left,1,4,0.7458063191525071,G27R09,2022-08-31_12h04.48.162,t1_Paradigm,2021.1.4,60.0516293093241,
F,right,Target,0,21,21,21,2096.6093779974913,2098.611664993151,right,1,4,0.7320811371778291,G27R09,2022-08-31_12h04.48.162,t1_Paradigm,2021.1.4,60.0516293093241,
P,left,Distractor,0,22,22,22,2100.1095412855807,2102.110630728316,left,1,4,0.7851343678116791,G27R09,2022-08-31_12h04.48.162,t1_Paradigm,2021.1.4,60.0516293093241,
L,left,Pretarget,0,23,23,23,2103.6095820274027,2105.609493165319,left,1,4,0.8223290848486613,G27R09,2022-08-31_12h04.48.162,t1_Paradigm,2021.1.4,60.0516293093241,
T,left,Distractor,0,24,24,24,2107.1096070499393,2109.1090681030028,left,1,4,0.5712673914645165,G27R09,2022-08-31_12h04.48.162,t1_Paradigm,2021.1.4,60.0516293093241,
F,left,Distractor,0,25,25,25,2110.6092175966173,2112.6118738350888,right,0,4,0.7158947641946725,G27R09,2022-08-31_12h04.48.162,t1_Paradigm,2021.1.4,60.0516293093241,
V,left,Distractor,0,26,26,26,2114.1096570950117,2116.1114182966066,left,1,4,0.5922702818888865,G27R09,2022-08-31_12h04.48.162,t1_Paradigm,2021.1.4,60.0516293093241,
L,right,Target,0,27,27,27,2117.6095509096335,2119.61064067317,left,0,4,0.8530994260854641,G27R09,2022-08-31_12h04.48.162,t1_Paradigm,2021.1.4,60.0516293093241,
S,left,Pretarget,0,28,28,28,2121.109642979735,2123.1109239411135,left,1,4,0.697043170291181,G27R09,2022-08-31_12h04.48.162,t1_Paradigm,2021.1.4,60.0516293093241,
W,left,Distractor,0,29,29,29,2124.6093430301007,2126.610693605459,left,1,4,0.5732108084525862,G27R09,2022-08-31_12h04.48.162,t1_Paradigm,2021.1.4,60.0516293093241,
Q,left,Distractor,0,30,30,30,2128.109477766835,2130.1258595080826,left,1,4,0.4980200116128799,G27R09,2022-08-31_12h04.48.162,t1_Paradigm,2021.1.4,60.0516293093241,
L,right,Target,0,31,31,31,2131.609202839737,2133.6114657752655,left,0,4,0.9002739646925875,G27R09,2022-08-31_12h04.48.162,t1_Paradigm,2021.1.4,60.0516293093241,
S,right,Target,0,32,32,32,2135.1094979773447,2137.1107138159687,right,1,4,0.536956682140044,G27R09,2022-08-31_12h04.48.162,t1_Paradigm,2021.1.4,60.0516293093241,
Z,left,Pretarget,0,33,33,33,2138.609548343219,2140.609290739416,left,1,4,0.8466294964377994,G27R09,2022-08-31_12h04.48.162,t1_Paradigm,2021.1.4,60.0516293093241,
F,left,Distractor,0,34,34,34,2142.109538398365,2144.1117467975964,left,1,4,0.591833349908029,G27R09,2022-08-31_12h04.48.162,t1_Paradigm,2021.1.4,60.0516293093241,
V,left,Distractor,0,35,35,35,2145.6095464184086,2147.6108604223678,left,1,4,0.6450238836901008,G27R09,2022-08-31_12h04.48.162,t1_Paradigm,2021.1.4,60.0516293093241,
M,left,Distractor,0,36,36,36,2149.109551551237,2151.1120242911084,left,1,4,0.6478745280205658,G27R09,2022-08-31_12h04.48.162,t1_Paradigm,2021.1.4,60.0516293093241,
Z,right,Target,0,37,37,37,2152.6096032003184,2154.609673455901,right,1,4,0.686078487355644,G27R09,2022-08-31_12h04.48.162,t1_Paradigm,2021.1.4,60.0516293093241,
H,left,Pretarget,0,38,38,38,2156.1096054459304,2158.1106012145556,left,1,4,0.7691356638511024,G27R09,2022-08-31_12h04.48.162,t1_Paradigm,2021.1.4,60.0516293093241,
L,left,Distractor,0,39,39,39,2159.609533586339,2161.6107744474994,left,1,4,0.5650791257512537,G27R09,2022-08-31_12h04.48.162,t1_Paradigm,2021.1.4,60.0516293093241,
G,left,Distractor,0,40,40,40,2163.109360674197,2165.111280672657,left,1,4,0.5843410250899979,G27R09,2022-08-31_12h04.48.162,t1_Paradigm,2021.1.4,60.0516293093241,
K,left,Distractor,0,41,41,41,2166.6092230502472,2168.610907901026,left,1,4,0.6528588247751941,G27R09,2022-08-31_12h04.48.162,t1_Paradigm,2021.1.4,60.0516293093241,
H,right,Target,0,42,42,42,2170.108696935381,2172.1093404636867,right,1,4,0.386536913053078,G27R09,2022-08-31_12h04.48.162,t1_Paradigm,2021.1.4,60.0516293093241,
B,left,Distractor,0,43,43,43,2173.6092153510053,2175.6094274009606,left,1,4,0.5342093359722639,G27R09,2022-08-31_12h04.48.162,t1_Paradigm,2021.1.4,60.0516293093241,
Z,left,Distractor,0,44,44,44,2177.1093824887157,2179.111862927829,right,0,4,0.7280528296319062,G27R09,2022-08-31_12h04.48.162,t1_Paradigm,2021.1.4,60.0516293093241,
T,left,Pretarget,0,45,45,45,2180.6095736865573,2182.611986436502,left,1,4,0.49183976594304113,G27R09,2022-08-31_12h04.48.162,t1_Paradigm,2021.1.4,60.0516293093241,
H,right,Target,0,46,46,46,2184.1089872609627,2186.1090812558746,right,1,4,0.5787196160640633,G27R09,2022-08-31_12h04.48.162,t1_Paradigm,2021.1.4,60.0516293093241,
F,left,Distractor,0,47,47,47,2187.6094261177536,2189.6113422665926,left,1,4,0.6763835377373653,G27R09,2022-08-31_12h04.48.162,t1_Paradigm,2021.1.4,60.0516293093241,
R,left,Distractor,0,48,48,48,2191.1091300177404,2193.10939243357,left,1,4,0.5220740474592276,G27R09,2022-08-31_12h04.48.162,t1_Paradigm,2021.1.4,60.0516293093241,
T,right,Target,0,49,49,49,2194.609502468569,2196.6099031499525,left,0,4,0.7177653591857052,G27R09,2022-08-31_12h04.48.162,t1_Paradigm,2021.1.4,60.0516293093241,
H,right,Target,0,50,50,50,2198.109446969867,2200.1090571957434,left,0,4,0.4987463067700446,G27R09,2022-08-31_12h04.48.162,t1_Paradigm,2021.1.4,60.0516293093241,
Y,left,Pretarget,0,51,51,51,2201.6095759321697,2203.6113695347412,left,1,4,0.5483207632514677,G27R09,2022-08-31_12h04.48.162,t1_Paradigm,2021.1.4,60.0516293093241,
H,left,Distractor,0,52,52,52,2205.1095076013976,2207.11101504881,left,1,4,0.9206676525973307,G27R09,2022-08-31_12h04.48.162,t1_Paradigm,2021.1.4,60.0516293093241,
S,left,Distractor,0,53,53,53,2208.6095631001,2210.6102406333907,left,1,4,1.0853897260030863,G27R09,2022-08-31_12h04.48.162,t1_Paradigm,2021.1.4,60.0516293093241,
Q,left,Distractor,0,54,54,54,2212.1094719924035,2214.1115892839384,left,1,4,0.4799399459129745,G27R09,2022-08-31_12h04.48.162,t1_Paradigm,2021.1.4,60.0516293093241,
Y,right,Target,0,55,55,55,2215.6093914711646,2217.6105627183456,left,0,4,0.7251393081587594,G27R09,2022-08-31_12h04.48.162,t1_Paradigm,2021.1.4,60.0516293093241,
R,left,Distractor,0,56,56,56,2219.109231711894,2221.112048992843,left,1,4,0.5355313599752662,G27R09,2022-08-31_12h04.48.162,t1_Paradigm,2021.1.4,60.0516293093241,
H,left,Pretarget,0,57,57,57,2222.609462047549,2224.608945235934,left,1,4,0.6706883443098377,G27R09,2022-08-31_12h04.48.162,t1_Paradigm,2021.1.4,60.0516293093241,
J,left,Distractor,0,58,58,58,2226.10943830822,2228.109514338234,left,1,4,0.7541513350165587,G27R09,2022-08-31_12h04.48.162,t1_Paradigm,2021.1.4,60.0516293093241,
V,left,Distractor,0,59,59,59,2229.609251280801,2231.6090482132945,left,1,4,0.5345108896153761,G27R09,2022-08-31_12h04.48.162,t1_Paradigm,2021.1.4,60.0516293093241,
Y,left,Lure,0,60,60,60,2233.1091309801454,2235.111219720325,left,1,4,0.5523339931155533,G27R09,2022-08-31_12h04.48.162,t1_Paradigm,2021.1.4,60.0516293093241,
H,right,Target,0,61,61,61,2236.6094081528554,2238.6118260356284,right,1,4,0.7799697804753123,G27R09,2022-08-31_12h04.48.162,t1_Paradigm,2021.1.4,60.0516293093241,
L,left,Distractor,0,62,62,62,2240.109172684373,2242.1116402914163,left,1,4,0.49618919603881295,G27R09,2022-08-31_12h04.48.162,t1_Paradigm,2021.1.4,60.0516293093241,
P,left,Distractor,0,63,63,63,2243.6091483034397,2245.608567973078,left,1,4,0.6951456279534796,G27R09,2022-08-31_12h04.48.162,t1_Paradigm,2021.1.4,60.0516293093241,
