Letter,CorrAnswer,Stimulus,nback_run.thisRepN,nback_run.thisTrialN,nback_run.thisN,nback_run.thisIndex,fixcross.started,nback_trial.started,trial_resp.keys,trial_resp.corr,currentlevel,trial_resp.rt,Participant,date,expName,psychopyVersion,frameRate,
H,left,Distractor,0,0,0,0,32.90014022239484,34.839442305587,None,0,1,,H09R12,2022-11-23_09h23.56.424,t1_Paradigm,2021.1.4,60.0007891805334,
Q,left,Pretarget,0,1,1,1,36.34310120873852,38.34236368574784,left,1,1,0.5101304347335827,H09R12,2022-11-23_09h23.56.424,t1_Paradigm,2021.1.4,60.0007891805334,
Q,right,Target,0,2,2,2,39.839409904612694,41.839429152722005,right,1,1,0.6769604429136962,H09R12,2022-11-23_09h23.56.424,t1_Paradigm,2021.1.4,60.0007891805334,
T,left,Distractor,0,3,3,3,43.33925479699974,45.34161140589276,left,1,1,0.5347997604403645,H09R12,2022-11-23_09h23.56.424,t1_Paradigm,2021.1.4,60.0007891805334,
Q,left,Lure,0,4,4,4,46.839330666611204,48.84097766224295,left,1,1,0.5074812547536567,H09R12,2022-11-23_09h23.56.424,t1_Paradigm,2021.1.4,60.0007891805334,
L,left,Distractor,0,5,5,5,50.33943893716787,52.34207688909373,left,1,1,0.5104194770101458,H09R12,2022-11-23_09h23.56.424,t1_Paradigm,2021.1.4,60.0007891805334,
V,left,Pretarget,0,6,6,6,53.839413754234556,55.842163345136214,left,1,1,0.49808080415823497,H09R12,2022-11-23_09h23.56.424,t1_Paradigm,2021.1.4,60.0007891805334,
V,right,Target,0,7,7,7,57.33940396978869,59.33936354875914,right,1,1,0.3771950451482553,H09R12,2022-11-23_09h23.56.424,t1_Paradigm,2021.1.4,60.0007891805334,
K,left,Distractor,0,8,8,8,60.83937205001712,62.84105465465109,left,1,1,1.0033013697247952,H09R12,2022-11-23_09h23.56.424,t1_Paradigm,2021.1.4,60.0007891805334,
G,left,Pretarget,0,9,9,9,64.3393526415166,66.34113341144985,left,1,1,0.4953212684195023,H09R12,2022-11-23_09h23.56.424,t1_Paradigm,2021.1.4,60.0007891805334,
G,right,Target,0,10,10,10,67.8394320399093,69.83942145347828,right,1,1,0.5331800329149701,H09R12,2022-11-23_09h23.56.424,t1_Paradigm,2021.1.4,60.0007891805334,
G,right,Target,0,11,11,11,71.33910466183443,73.33929040600196,right,1,1,0.5209635854989756,H09R12,2022-11-23_09h23.56.424,t1_Paradigm,2021.1.4,60.0007891805334,
P,left,Pretarget,0,12,12,12,74.83951448593871,76.84205491415923,left,1,1,0.6183907242084388,H09R12,2022-11-23_09h23.56.424,t1_Paradigm,2021.1.4,60.0007891805334,
P,right,Target,0,13,13,13,78.33931286211009,80.33933243100182,right,1,1,0.5290817919012625,H09R12,2022-11-23_09h23.56.424,t1_Paradigm,2021.1.4,60.0007891805334,
G,left,Lure,0,14,14,14,81.8393261753663,83.8412782533851,left,1,1,0.5311785514350049,H09R12,2022-11-23_09h23.56.424,t1_Paradigm,2021.1.4,60.0007891805334,
Y,left,Distractor,0,15,15,15,85.33915534851258,87.34083859474049,left,1,1,0.5514589898521081,H09R12,2022-11-23_09h23.56.424,t1_Paradigm,2021.1.4,60.0007891805334,
B,left,Distractor,0,16,16,16,88.8390704964695,90.84114062949084,left,1,1,0.49122463140520267,H09R12,2022-11-23_09h23.56.424,t1_Paradigm,2021.1.4,60.0007891805334,
T,left,Pretarget,0,17,17,17,92.33937381443684,94.33982967355405,left,1,1,0.5126230635214597,H09R12,2022-11-23_09h23.56.424,t1_Paradigm,2021.1.4,60.0007891805334,
T,right,Target,0,18,18,18,95.83924276696052,97.83916224574205,right,1,1,0.437084862642223,H09R12,2022-11-23_09h23.56.424,t1_Paradigm,2021.1.4,60.0007891805334,
S,left,Distractor,0,19,19,19,99.33933916784008,101.34246987110237,left,1,1,0.4698569962347392,H09R12,2022-11-23_09h23.56.424,t1_Paradigm,2021.1.4,60.0007891805334,
T,left,Lure,0,20,20,20,102.83942947350442,104.84031520684948,left,1,1,0.4760526384052355,H09R12,2022-11-23_09h23.56.424,t1_Paradigm,2021.1.4,60.0007891805334,
J,left,Distractor,0,21,21,21,106.33930163405603,108.34068076033145,left,1,1,0.6237413748458494,H09R12,2022-11-23_09h23.56.424,t1_Paradigm,2021.1.4,60.0007891805334,
P,left,Distractor,0,22,22,22,109.83933579942095,111.84051346225897,left,1,1,0.6118688267888501,H09R12,2022-11-23_09h23.56.424,t1_Paradigm,2021.1.4,60.0007891805334,
F,left,Distractor,0,23,23,23,113.33901676218375,115.34067049468285,left,1,1,0.7119656768045388,H09R12,2022-11-23_09h23.56.424,t1_Paradigm,2021.1.4,60.0007891805334,
L,left,Distractor,0,24,24,24,116.83935183950234,118.84089232899714,left,1,1,0.5075056357018184,H09R12,2022-11-23_09h23.56.424,t1_Paradigm,2021.1.4,60.0007891805334,
W,left,Pretarget,0,25,25,25,120.3392381153244,122.34193637795397,left,1,1,0.49446472799172625,H09R12,2022-11-23_09h23.56.424,t1_Paradigm,2021.1.4,60.0007891805334,
W,right,Target,0,26,26,26,123.83906953406404,125.83917539860704,right,1,1,0.7412032178835943,H09R12,2022-11-23_09h23.56.424,t1_Paradigm,2021.1.4,60.0007891805334,
V,left,Distractor,0,27,27,27,127.33915374448407,129.33954159368295,left,1,1,0.6007148743665311,H09R12,2022-11-23_09h23.56.424,t1_Paradigm,2021.1.4,60.0007891805334,
W,left,Lure,0,28,28,28,130.8391879098781,132.8415826941491,left,1,1,0.522803062107414,H09R12,2022-11-23_09h23.56.424,t1_Paradigm,2021.1.4,60.0007891805334,
R,left,Pretarget,0,29,29,29,134.33927981954184,136.3421176309057,left,1,1,0.5266966316848993,H09R12,2022-11-23_09h23.56.424,t1_Paradigm,2021.1.4,60.0007891805334,
R,right,Target,0,30,30,30,137.8392658646626,139.83923442612286,right,1,1,0.42104574278346263,H09R12,2022-11-23_09h23.56.424,t1_Paradigm,2021.1.4,60.0007891805334,
G,left,Distractor,0,31,31,31,141.33927725313697,143.34152254383662,left,1,1,0.5186342447414063,H09R12,2022-11-23_09h23.56.424,t1_Paradigm,2021.1.4,60.0007891805334,
R,left,Lure,0,32,32,32,144.83891137884348,146.84111977738212,left,1,1,0.4751492609793786,H09R12,2022-11-23_09h23.56.424,t1_Paradigm,2021.1.4,60.0007891805334,
S,left,Distractor,0,33,33,33,148.33897858680575,150.34149848372908,left,1,1,0.7667063070693985,H09R12,2022-11-23_09h23.56.424,t1_Paradigm,2021.1.4,60.0007891805334,
R,left,Lure,0,34,34,34,151.83914877206553,153.84077940683346,left,1,1,0.5316228617157321,H09R12,2022-11-23_09h23.56.424,t1_Paradigm,2021.1.4,60.0007891805334,
P,left,Pretarget,0,35,35,35,155.33923619051347,157.34097589785233,left,1,1,0.519232539809309,H09R12,2022-11-23_09h23.56.424,t1_Paradigm,2021.1.4,60.0007891805334,
P,right,Target,0,36,36,36,158.8389704063593,160.8392764511227,right,1,1,0.6368993750947993,H09R12,2022-11-23_09h23.56.424,t1_Paradigm,2021.1.4,60.0007891805334,
Y,left,Pretarget,0,37,37,37,162.33888908312656,164.33994291652925,left,1,1,0.544337193336105,H09R12,2022-11-23_09h23.56.424,t1_Paradigm,2021.1.4,60.0007891805334,
Y,right,Target,0,38,38,38,165.83922801006702,167.83888892273535,right,1,1,0.5974500760494266,H09R12,2022-11-23_09h23.56.424,t1_Paradigm,2021.1.4,60.0007891805334,
J,left,Distractor,0,39,39,39,169.3393584159494,171.3413589349948,left,1,1,0.5828051601711195,H09R12,2022-11-23_09h23.56.424,t1_Paradigm,2021.1.4,60.0007891805334,
Y,left,Lure,0,40,40,40,172.83916930336272,174.84037230955437,left,1,1,0.5239053365658037,H09R12,2022-11-23_09h23.56.424,t1_Paradigm,2021.1.4,60.0007891805334,
T,left,Distractor,0,41,41,41,176.33914797008038,178.34051266027382,left,1,1,0.7516421034233645,H09R12,2022-11-23_09h23.56.424,t1_Paradigm,2021.1.4,60.0007891805334,
V,left,Distractor,0,42,42,42,179.83919143868843,181.84117174724815,left,1,1,0.9311604582471773,H09R12,2022-11-23_09h23.56.424,t1_Paradigm,2021.1.4,60.0007891805334,
N,left,Pretarget,0,43,43,43,183.33912070191582,185.34191392184584,left,1,1,0.5822642885905225,H09R12,2022-11-23_09h23.56.424,t1_Paradigm,2021.1.4,60.0007891805334,
N,right,Target,0,44,44,44,186.8392896039877,188.83923635090468,right,1,1,0.5729700233205222,H09R12,2022-11-23_09h23.56.424,t1_Paradigm,2021.1.4,60.0007891805334,
N,right,Target,0,45,45,45,190.3389939852641,192.3391643309442,right,1,1,0.4490616712428164,H09R12,2022-11-23_09h23.56.424,t1_Paradigm,2021.1.4,60.0007891805334,
X,left,Distractor,0,46,46,46,193.83910835106508,195.84198497940088,left,1,1,0.6421056649996899,H09R12,2022-11-23_09h23.56.424,t1_Paradigm,2021.1.4,60.0007891805334,
Z,left,Distractor,0,47,47,47,197.3391322507814,199.34162744597415,left,1,1,0.7905700998089742,H09R12,2022-11-23_09h23.56.424,t1_Paradigm,2021.1.4,60.0007891805334,
H,left,Pretarget,0,48,48,48,200.838885393925,202.85187593573937,left,1,1,0.576360575912986,H09R12,2022-11-23_09h23.56.424,t1_Paradigm,2021.1.4,60.0007891805334,
H,right,Target,0,49,49,49,204.33913032597047,206.3389147472626,right,1,1,0.5774625295598526,H09R12,2022-11-23_09h23.56.424,t1_Paradigm,2021.1.4,60.0007891805334,
K,left,Distractor,0,50,50,50,207.83926939350204,209.84076625396847,left,1,1,0.5317065909621306,H09R12,2022-11-23_09h23.56.424,t1_Paradigm,2021.1.4,60.0007891805334,
V,left,Pretarget,0,51,51,51,211.33916529334965,213.34111576736905,left,1,1,0.567012415966019,H09R12,2022-11-23_09h23.56.424,t1_Paradigm,2021.1.4,60.0007891805334,
V,right,Target,0,52,52,52,214.83918630584958,216.83919047628297,right,1,1,0.6689217952953186,H09R12,2022-11-23_09h23.56.424,t1_Paradigm,2021.1.4,60.0007891805334,
R,left,Distractor,0,53,53,53,218.3390924713749,220.34119789258693,left,1,1,0.6070949774875771,H09R12,2022-11-23_09h23.56.424,t1_Paradigm,2021.1.4,60.0007891805334,
V,left,Lure,0,54,54,54,221.83914620566065,223.84053784317803,left,1,1,0.9320538908359595,H09R12,2022-11-23_09h23.56.424,t1_Paradigm,2021.1.4,60.0007891805334,
Y,left,Distractor,0,55,55,55,225.33889902799274,227.34079239930725,left,1,1,0.5833299916412216,H09R12,2022-11-23_09h23.56.424,t1_Paradigm,2021.1.4,60.0007891805334,
Q,left,Distractor,0,56,56,56,228.83906568444218,230.83967103715986,left,1,1,0.6045003337785602,H09R12,2022-11-23_09h23.56.424,t1_Paradigm,2021.1.4,60.0007891805334,
Z,left,Pretarget,0,57,57,57,232.3388618149911,234.34150137094548,left,1,1,0.5586532875313424,H09R12,2022-11-23_09h23.56.424,t1_Paradigm,2021.1.4,60.0007891805334,
Z,right,Target,0,58,58,58,235.85571496901684,237.83898323841277,right,1,1,0.5170940760581288,H09R12,2022-11-23_09h23.56.424,t1_Paradigm,2021.1.4,60.0007891805334,
B,left,Distractor,0,59,59,59,239.3390555791848,241.33960928281886,left,1,1,0.5525025575770997,H09R12,2022-11-23_09h23.56.424,t1_Paradigm,2021.1.4,60.0007891805334,
S,left,Pretarget,0,60,60,60,242.83910835106508,244.84095841416274,left,1,1,0.6031856886402238,H09R12,2022-11-23_09h23.56.424,t1_Paradigm,2021.1.4,60.0007891805334,
S,right,Target,0,61,61,61,246.33909760421375,248.33891988010146,right,1,1,0.5933175092504825,H09R12,2022-11-23_09h23.56.424,t1_Paradigm,2021.1.4,60.0007891805334,
T,left,Distractor,0,62,62,62,249.8388821858971,251.83961618007743,left,1,1,0.6126522244012449,H09R12,2022-11-23_09h23.56.424,t1_Paradigm,2021.1.4,60.0007891805334,
D,left,Distractor,0,63,63,63,253.33867446682416,255.34054089081474,left,1,1,0.5195514166553039,H09R12,2022-11-23_09h23.56.424,t1_Paradigm,2021.1.4,60.0007891805334,
R,left,Distractor,0,0,0,0,265.2892501614406,267.29069890166284,None,0,1,,H09R12,2022-11-23_09h23.56.424,t1_Paradigm,2021.1.4,60.0007891805334,
V,left,Distractor,0,1,1,1,268.78897218679776,270.7905396236456,left,1,1,1.0216075947973877,H09R12,2022-11-23_09h23.56.424,t1_Paradigm,2021.1.4,60.0007891805334,
N,left,Pretarget,0,2,2,2,272.28914558008546,274.29075504193315,left,1,1,0.6414438512001652,H09R12,2022-11-23_09h23.56.424,t1_Paradigm,2021.1.4,60.0007891805334,
N,right,Target,0,3,3,3,275.7887877258472,277.78927149475203,right,1,1,0.5507683039177209,H09R12,2022-11-23_09h23.56.424,t1_Paradigm,2021.1.4,60.0007891805334,
S,left,Distractor,0,4,4,4,279.2891035550856,281.28895021189237,left,1,1,0.4592063816380687,H09R12,2022-11-23_09h23.56.424,t1_Paradigm,2021.1.4,60.0007891805334,
N,left,Lure,0,5,5,5,282.7890799761517,284.7900869725272,left,1,1,0.8940125901717693,H09R12,2022-11-23_09h23.56.424,t1_Paradigm,2021.1.4,60.0007891805334,
Z,left,Distractor,0,6,6,6,286.2890904022206,288.2885800068034,left,1,1,0.7076146440813318,H09R12,2022-11-23_09h23.56.424,t1_Paradigm,2021.1.4,60.0007891805334,
L,left,Pretarget,0,7,7,7,289.7890344223124,291.7893683768343,left,1,1,0.8067731492919847,H09R12,2022-11-23_09h23.56.424,t1_Paradigm,2021.1.4,60.0007891805334,
L,right,Target,0,8,8,8,293.28889246759354,295.2889402670553,right,1,1,0.42731452771113254,H09R12,2022-11-23_09h23.56.424,t1_Paradigm,2021.1.4,60.0007891805334,
H,left,Distractor,0,9,9,9,296.7894986222964,298.7891977103718,left,1,1,0.3667590468248818,H09R12,2022-11-23_09h23.56.424,t1_Paradigm,2021.1.4,60.0007891805334,
L,left,Lure,0,10,10,10,300.2889800464327,302.29143674543593,left,1,1,0.8967342713149264,H09R12,2022-11-23_09h23.56.424,t1_Paradigm,2021.1.4,60.0007891805334,
X,left,Pretarget,0,11,11,11,303.78893978585256,305.7897696996806,left,1,1,0.8223374826775398,H09R12,2022-11-23_09h23.56.424,t1_Paradigm,2021.1.4,60.0007891805334,
X,right,Target,0,12,12,12,307.2891048382735,309.28892615175573,right,1,1,0.7153520589636173,H09R12,2022-11-23_09h23.56.424,t1_Paradigm,2021.1.4,60.0007891805334,
X,right,Target,0,13,13,13,310.7888313548756,312.7888977608236,right,1,1,0.6871442911215127,H09R12,2022-11-23_09h23.56.424,t1_Paradigm,2021.1.4,60.0007891805334,
R,left,Distractor,0,14,14,14,314.2890182218398,316.29029918281594,left,1,1,0.38572868969640695,H09R12,2022-11-23_09h23.56.424,t1_Paradigm,2021.1.4,60.0007891805334,
T,left,Distractor,0,15,15,15,317.78902961028507,319.79087999419426,left,1,1,0.5331482735346071,H09R12,2022-11-23_09h23.56.424,t1_Paradigm,2021.1.4,60.0007891805334,
V,left,Pretarget,0,16,16,16,321.28904966040864,323.288642242318,left,1,1,0.39531135561992414,H09R12,2022-11-23_09h23.56.424,t1_Paradigm,2021.1.4,60.0007891805334,
V,right,Target,0,17,17,17,324.7890389135573,326.7895990332181,right,1,1,0.5585904104227666,H09R12,2022-11-23_09h23.56.424,t1_Paradigm,2021.1.4,60.0007891805334,
N,left,Distractor,0,18,18,18,328.2888610290247,330.28954112852807,left,1,1,0.7065585650561843,H09R12,2022-11-23_09h23.56.424,t1_Paradigm,2021.1.4,60.0007891805334,
B,left,Distractor,0,19,19,19,331.7888246180373,333.7904924658069,left,1,1,0.4056241661310196,H09R12,2022-11-23_09h23.56.424,t1_Paradigm,2021.1.4,60.0007891805334,
V,left,Lure,0,20,20,20,335.28869100415614,337.290151934867,left,1,1,0.9059287672571372,H09R12,2022-11-23_09h23.56.424,t1_Paradigm,2021.1.4,60.0007891805334,
P,left,Distractor,0,21,21,21,338.7908896182489,340.79095762819634,left,1,1,0.4292309967277106,H09R12,2022-11-23_09h23.56.424,t1_Paradigm,2021.1.4,60.0007891805334,
K,left,Pretarget,0,22,22,22,342.2889752344345,344.2889229437569,left,1,1,0.4670044280355796,H09R12,2022-11-23_09h23.56.424,t1_Paradigm,2021.1.4,60.0007891805334,
K,right,Target,0,23,23,23,345.7888842871471,347.7895162664063,right,1,1,0.390565736888675,H09R12,2022-11-23_09h23.56.424,t1_Paradigm,2021.1.4,60.0007891805334,
J,left,Pretarget,0,24,24,24,349.2889049788646,351.2909366156673,left,1,1,0.5048811574233696,H09R12,2022-11-23_09h23.56.424,t1_Paradigm,2021.1.4,60.0007891805334,
J,right,Target,0,25,25,25,352.7885067036259,354.79048861618503,left,0,1,0.429677552630892,H09R12,2022-11-23_09h23.56.424,t1_Paradigm,2021.1.4,60.0007891805334,
H,left,Distractor,0,26,26,26,356.2890390739485,358.29036366395303,left,1,1,1.009763918875251,H09R12,2022-11-23_09h23.56.424,t1_Paradigm,2021.1.4,60.0007891805334,
J,left,Lure,0,27,27,27,359.788978923636,361.7910557934956,left,1,1,1.0131480554118752,H09R12,2022-11-23_09h23.56.424,t1_Paradigm,2021.1.4,60.0007891805334,
V,left,Distractor,0,28,28,28,363.2889450790535,365.2894343015796,left,1,1,0.8106147489743307,H09R12,2022-11-23_09h23.56.424,t1_Paradigm,2021.1.4,60.0007891805334,
Z,left,Pretarget,0,29,29,29,366.78899111409555,368.7907908113266,left,1,1,0.6053084331506398,H09R12,2022-11-23_09h23.56.424,t1_Paradigm,2021.1.4,60.0007891805334,
Z,right,Target,0,30,30,30,370.2891494297073,372.28870447783265,right,1,1,0.4352238922729157,H09R12,2022-11-23_09h23.56.424,t1_Paradigm,2021.1.4,60.0007891805334,
T,left,Distractor,0,31,31,31,373.78889679841814,375.7896266221651,left,1,1,0.5984304458834231,H09R12,2022-11-23_09h23.56.424,t1_Paradigm,2021.1.4,60.0007891805334,
Z,left,Lure,0,32,32,32,377.2886890793452,379.2911865201604,left,1,1,0.6648347823356744,H09R12,2022-11-23_09h23.56.424,t1_Paradigm,2021.1.4,60.0007891805334,
F,left,Distractor,0,33,33,33,380.7904119445884,382.7900561755523,left,1,1,0.5261169431032613,H09R12,2022-11-23_09h23.56.424,t1_Paradigm,2021.1.4,60.0007891805334,
Y,left,Pretarget,0,34,34,34,384.2889784424333,386.2902680650586,left,1,1,0.6098384731740225,H09R12,2022-11-23_09h23.56.424,t1_Paradigm,2021.1.4,60.0007891805334,
Y,right,Target,0,35,35,35,387.7888788335258,389.78900266296114,right,1,1,0.6632708743272815,H09R12,2022-11-23_09h23.56.424,t1_Paradigm,2021.1.4,60.0007891805334,
Y,right,Target,0,36,36,36,391.28871763069765,393.288761259726,right,1,1,0.47531222822726704,H09R12,2022-11-23_09h23.56.424,t1_Paradigm,2021.1.4,60.0007891805334,
W,left,Distractor,0,37,37,37,394.79026854626136,396.7889814900409,left,1,1,0.5431088438199367,H09R12,2022-11-23_09h23.56.424,t1_Paradigm,2021.1.4,60.0007891805334,
Q,left,Distractor,0,38,38,38,398.28871602669824,400.28963608579943,left,1,1,0.7064212619443424,H09R12,2022-11-23_09h23.56.424,t1_Paradigm,2021.1.4,60.0007891805334,
P,left,Pretarget,0,39,39,39,401.788913800905,403.79070932770264,left,1,1,0.5172134142485447,H09R12,2022-11-23_09h23.56.424,t1_Paradigm,2021.1.4,60.0007891805334,
P,right,Target,0,40,40,40,405.28885172578157,407.28871763069765,right,1,1,0.7473346997285262,H09R12,2022-11-23_09h23.56.424,t1_Paradigm,2021.1.4,60.0007891805334,
J,left,Distractor,0,41,41,41,408.7886151345738,410.7902441653132,left,1,1,0.6217206452856772,H09R12,2022-11-23_09h23.56.424,t1_Paradigm,2021.1.4,60.0007891805334,
P,left,Lure,0,42,42,42,412.2889627231634,414.28939388057915,left,1,1,0.786504259769572,H09R12,2022-11-23_09h23.56.424,t1_Paradigm,2021.1.4,60.0007891805334,
L,left,Distractor,0,43,43,43,415.78888524955255,417.79020406512427,left,1,1,0.6459289790072944,H09R12,2022-11-23_09h23.56.424,t1_Paradigm,2021.1.4,60.0007891805334,
Z,left,Distractor,0,44,44,44,419.28868843775126,421.2909632422088,left,1,1,0.8089616580982693,H09R12,2022-11-23_09h23.56.424,t1_Paradigm,2021.1.4,60.0007891805334,
F,left,Pretarget,0,45,45,45,422.78847943549044,424.7907029116759,left,1,1,0.6532275372301228,H09R12,2022-11-23_09h23.56.424,t1_Paradigm,2021.1.4,60.0007891805334,
F,right,Target,0,46,46,46,426.28890016683727,428.28895726954215,right,1,1,0.6430173832632136,H09R12,2022-11-23_09h23.56.424,t1_Paradigm,2021.1.4,60.0007891805334,
G,left,Pretarget,0,47,47,47,429.78867480368353,431.78995383984875,left,1,1,0.710005578759592,H09R12,2022-11-23_09h23.56.424,t1_Paradigm,2021.1.4,60.0007891805334,
G,right,Target,0,48,48,48,433.28887931472855,435.2884888991248,right,1,1,0.6674640726414509,H09R12,2022-11-23_09h23.56.424,t1_Paradigm,2021.1.4,60.0007891805334,
V,left,Distractor,0,49,49,49,436.7889872644737,438.7898723562248,left,1,1,0.6220606950228103,H09R12,2022-11-23_09h23.56.424,t1_Paradigm,2021.1.4,60.0007891805334,
G,left,Lure,0,50,50,50,440.2888562169974,442.290230852057,left,1,1,0.8817374360514805,H09R12,2022-11-23_09h23.56.424,t1_Paradigm,2021.1.4,60.0007891805334,
Q,left,Pretarget,0,51,51,51,443.7887319063593,445.7903548418835,left,1,1,1.0137485961022321,H09R12,2022-11-23_09h23.56.424,t1_Paradigm,2021.1.4,60.0007891805334,
Q,right,Target,0,52,52,52,447.28858834764105,449.2888712946733,right,1,1,1.1152078906889074,H09R12,2022-11-23_09h23.56.424,t1_Paradigm,2021.1.4,60.0007891805334,
Y,left,Distractor,0,53,53,53,450.7888108235784,452.7909438337083,left,1,1,0.7809851882630028,H09R12,2022-11-23_09h23.56.424,t1_Paradigm,2021.1.4,60.0007891805334,
V,left,Distractor,0,54,54,54,454.2885331697471,456.28933806109126,left,1,1,0.7225341661833227,H09R12,2022-11-23_09h23.56.424,t1_Paradigm,2021.1.4,60.0007891805334,
B,left,Distractor,0,55,55,55,457.7888916655793,459.7904013581283,left,1,1,0.5494504507514648,H09R12,2022-11-23_09h23.56.424,t1_Paradigm,2021.1.4,60.0007891805334,
J,left,Pretarget,0,56,56,56,461.2886274854245,463.28946894814726,left,1,1,0.4744941840181127,H09R12,2022-11-23_09h23.56.424,t1_Paradigm,2021.1.4,60.0007891805334,
J,right,Target,0,57,57,57,464.78864400670864,466.7905056186719,right,1,1,0.4295777833031025,H09R12,2022-11-23_09h23.56.424,t1_Paradigm,2021.1.4,60.0007891805334,
H,left,Distractor,0,58,58,58,468.2884872951254,470.2903825912217,left,1,1,0.5297439265123103,H09R12,2022-11-23_09h23.56.424,t1_Paradigm,2021.1.4,60.0007891805334,
J,left,Lure,0,59,59,59,471.7887995955243,473.79048604978016,left,1,1,0.46938253063126467,H09R12,2022-11-23_09h23.56.424,t1_Paradigm,2021.1.4,60.0007891805334,
D,left,Pretarget,0,60,60,60,475.2886188238044,477.2903662303579,left,1,1,0.6334828375838697,H09R12,2022-11-23_09h23.56.424,t1_Paradigm,2021.1.4,60.0007891805334,
D,right,Target,0,61,61,61,478.79019668669207,480.78885701901163,right,1,1,0.5911296420381404,H09R12,2022-11-23_09h23.56.424,t1_Paradigm,2021.1.4,60.0007891805334,
R,left,Distractor,0,62,62,62,482.2886008589121,484.2908098990156,left,1,1,0.5293095610686578,H09R12,2022-11-23_09h23.56.424,t1_Paradigm,2021.1.4,60.0007891805334,
F,left,Distractor,0,63,63,63,485.78873254798236,487.7897895893839,left,1,1,0.7902108019625302,H09R12,2022-11-23_09h23.56.424,t1_Paradigm,2021.1.4,60.0007891805334,
F,left,Distractor,0,0,0,0,564.4141725675436,566.4051246779272,None,0,2,,H09R12,2022-11-23_09h23.56.424,t1_Paradigm,2021.1.4,60.0007891805334,
N,left,Pretarget,0,1,1,1,567.9053830836783,569.9062575889402,None,0,2,,H09R12,2022-11-23_09h23.56.424,t1_Paradigm,2021.1.4,60.0007891805334,
V,left,Distractor,0,2,2,2,571.4053662415827,573.405674211157,left,1,2,0.6625083288236056,H09R12,2022-11-23_09h23.56.424,t1_Paradigm,2021.1.4,60.0007891805334,
N,right,Target,0,3,3,3,574.9051370288071,576.9058639653376,right,1,2,0.6178488902223762,H09R12,2022-11-23_09h23.56.424,t1_Paradigm,2021.1.4,60.0007891805334,
N,left,Lure,0,4,4,4,578.405039023899,580.4054990534496,left,1,2,0.5743546032172162,H09R12,2022-11-23_09h23.56.424,t1_Paradigm,2021.1.4,60.0007891805334,
X,left,Distractor,0,5,5,5,581.9051726377802,583.9071413974743,left,1,2,0.720641115680337,H09R12,2022-11-23_09h23.56.424,t1_Paradigm,2021.1.4,60.0007891805334,
G,left,Pretarget,0,6,6,6,585.4052959860128,587.4072631417075,left,1,2,0.708654362213565,H09R12,2022-11-23_09h23.56.424,t1_Paradigm,2021.1.4,60.0007891805334,
H,left,Pretarget,0,7,7,7,588.9053683267848,590.9060262909625,left,1,2,0.9696155930287205,H09R12,2022-11-23_09h23.56.424,t1_Paradigm,2021.1.4,60.0007891805334,
G,right,Target,0,8,8,8,592.405173760606,594.4065955534752,right,1,2,0.749263359233737,H09R12,2022-11-23_09h23.56.424,t1_Paradigm,2021.1.4,60.0007891805334,
H,right,Target,0,9,9,9,595.9053490787046,597.9059820203402,right,1,2,1.233724529563915,H09R12,2022-11-23_09h23.56.424,t1_Paradigm,2021.1.4,60.0007891805334,
T,left,Pretarget,0,10,10,10,599.40534474788,601.4070125956205,left,1,2,0.7087223721609917,H09R12,2022-11-23_09h23.56.424,t1_Paradigm,2021.1.4,60.0007891805334,
K,left,Distractor,0,11,11,11,602.9054639256792,604.9064471827296,left,1,2,0.9050436755351257,H09R12,2022-11-23_09h23.56.424,t1_Paradigm,2021.1.4,60.0007891805334,
T,right,Target,0,12,12,12,606.405344106257,608.405820817512,right,1,2,0.5419988701469265,H09R12,2022-11-23_09h23.56.424,t1_Paradigm,2021.1.4,60.0007891805334,
T,left,Lure,0,13,13,13,609.9053850084892,611.9050680564542,left,1,2,1.0108094114111736,H09R12,2022-11-23_09h23.56.424,t1_Paradigm,2021.1.4,60.0007891805334,
J,left,Distractor,0,14,14,14,613.4050993346027,615.4059574790008,left,1,2,0.9017423058103304,H09R12,2022-11-23_09h23.56.424,t1_Paradigm,2021.1.4,60.0007891805334,
Q,left,Pretarget,0,15,15,15,616.9052826727566,618.9054693793005,left,1,2,0.8742361312033609,H09R12,2022-11-23_09h23.56.424,t1_Paradigm,2021.1.4,60.0007891805334,
M,left,Distractor,0,16,16,16,620.405290853203,622.40797628375,left,1,2,0.747642669302877,H09R12,2022-11-23_09h23.56.424,t1_Paradigm,2021.1.4,60.0007891805334,
Q,right,Target,0,17,17,17,623.9049881768296,625.9053975197312,right,1,2,0.6903253602504265,H09R12,2022-11-23_09h23.56.424,t1_Paradigm,2021.1.4,60.0007891805334,
R,left,Distractor,0,18,18,18,627.4050874649547,629.4055109231267,left,1,2,0.6622654819511808,H09R12,2022-11-23_09h23.56.424,t1_Paradigm,2021.1.4,60.0007891805334,
W,left,Distractor,0,19,19,19,630.9050616404274,632.9062091479136,left,1,2,0.6173721789964475,H09R12,2022-11-23_09h23.56.424,t1_Paradigm,2021.1.4,60.0007891805334,
C,left,Pretarget,0,20,20,20,634.4053344822314,636.4077279832854,left,1,2,0.6519395186332986,H09R12,2022-11-23_09h23.56.424,t1_Paradigm,2021.1.4,60.0007891805334,
T,left,Distractor,0,21,21,21,637.9050677356427,639.906873528118,left,1,2,0.6090695116436109,H09R12,2022-11-23_09h23.56.424,t1_Paradigm,2021.1.4,60.0007891805334,
C,right,Target,0,22,22,22,641.4052334296866,643.4059709526773,right,1,2,0.46966644006897695,H09R12,2022-11-23_09h23.56.424,t1_Paradigm,2021.1.4,60.0007891805334,
F,left,Pretarget,0,23,23,23,644.9052554046211,646.9055848678981,left,1,2,0.6500111799396109,H09R12,2022-11-23_09h23.56.424,t1_Paradigm,2021.1.4,60.0007891805334,
C,right,Target,0,24,24,24,648.4050861817377,650.4057585819974,right,1,2,0.9259403738833498,H09R12,2022-11-23_09h23.56.424,t1_Paradigm,2021.1.4,60.0007891805334,
F,right,Target,0,25,25,25,651.9052281364857,653.9067176185199,right,1,2,0.5929116951592732,H09R12,2022-11-23_09h23.56.424,t1_Paradigm,2021.1.4,60.0007891805334,
H,left,Distractor,0,26,26,26,655.4049918660603,657.4055644969922,left,1,2,0.5499932471138891,H09R12,2022-11-23_09h23.56.424,t1_Paradigm,2021.1.4,60.0007891805334,
H,left,Lure,0,27,27,27,658.9049676455325,660.9053850084892,left,1,2,0.7942737548146397,H09R12,2022-11-23_09h23.56.424,t1_Paradigm,2021.1.4,60.0007891805334,
P,left,Distractor,0,28,28,28,662.4052594146342,664.4058528976748,left,1,2,0.845985696738353,H09R12,2022-11-23_09h23.56.424,t1_Paradigm,2021.1.4,60.0007891805334,
G,left,Pretarget,0,29,29,29,665.9052817103511,667.9071519839345,left,1,2,0.8646775253873784,H09R12,2022-11-23_09h23.56.424,t1_Paradigm,2021.1.4,60.0007891805334,
K,left,Distractor,0,30,30,30,669.405197499902,671.4065599445021,left,1,2,0.7892086176434532,H09R12,2022-11-23_09h23.56.424,t1_Paradigm,2021.1.4,60.0007891805334,
G,right,Target,0,31,31,31,672.9050250690198,674.9054312039225,right,1,2,0.8741302666312549,H09R12,2022-11-23_09h23.56.424,t1_Paradigm,2021.1.4,60.0007891805334,
M,left,Pretarget,0,32,32,32,676.4049498410313,678.407065527892,left,1,2,0.5407063603051938,H09R12,2022-11-23_09h23.56.424,t1_Paradigm,2021.1.4,60.0007891805334,
B,left,Distractor,0,33,33,33,679.9052265324572,681.9064263306209,left,1,2,0.6894569501746446,H09R12,2022-11-23_09h23.56.424,t1_Paradigm,2021.1.4,60.0007891805334,
M,right,Target,0,34,34,34,683.4052189936338,685.4058840154321,right,1,2,0.9979520022752695,H09R12,2022-11-23_09h23.56.424,t1_Paradigm,2021.1.4,60.0007891805334,
M,left,Lure,0,35,35,35,686.9052111339988,688.9052220412414,left,1,2,0.6183570400171448,H09R12,2022-11-23_09h23.56.424,t1_Paradigm,2021.1.4,60.0007891805334,
T,left,Distractor,0,36,36,36,690.4051500212809,692.4058371784049,left,1,2,0.9101123415166512,H09R12,2022-11-23_09h23.56.424,t1_Paradigm,2021.1.4,60.0007891805334,
F,left,Distractor,0,37,37,37,693.9050228234264,695.9055559957633,left,1,2,1.1381262810027692,H09R12,2022-11-23_09h23.56.424,t1_Paradigm,2021.1.4,60.0007891805334,
X,left,Distractor,0,38,38,38,697.4050050189253,699.4069375280233,left,1,2,0.6766733254189603,H09R12,2022-11-23_09h23.56.424,t1_Paradigm,2021.1.4,60.0007891805334,
C,left,Distractor,0,39,39,39,700.9051870738622,702.9212557074497,left,1,2,0.9863630428735632,H09R12,2022-11-23_09h23.56.424,t1_Paradigm,2021.1.4,60.0007891805334,
R,left,Distractor,0,40,40,40,704.4052215600386,706.405739975482,left,1,2,1.181915705499705,H09R12,2022-11-23_09h23.56.424,t1_Paradigm,2021.1.4,60.0007891805334,
B,left,Pretarget,0,41,41,41,707.9051495400781,709.9048072447185,left,1,2,0.7549117137969006,H09R12,2022-11-23_09h23.56.424,t1_Paradigm,2021.1.4,60.0007891805334,
H,left,Distractor,0,42,42,42,711.4052087279852,713.4055016198836,left,1,2,0.7902040651533753,H09R12,2022-11-23_09h23.56.424,t1_Paradigm,2021.1.4,60.0007891805334,
B,right,Target,0,43,43,43,714.905269840674,716.9063689071336,right,1,2,1.0171770032611676,H09R12,2022-11-23_09h23.56.424,t1_Paradigm,2021.1.4,60.0007891805334,
W,left,Pretarget,0,44,44,44,718.4051634949283,720.4075451263634,left,1,2,0.5721792472759262,H09R12,2022-11-23_09h23.56.424,t1_Paradigm,2021.1.4,60.0007891805334,
L,left,Pretarget,0,45,45,45,721.9051501816721,723.9049698911549,left,1,2,0.5945564451976679,H09R12,2022-11-23_09h23.56.424,t1_Paradigm,2021.1.4,60.0007891805334,
W,right,Target,0,46,46,46,725.4051397556323,727.4064120549301,right,1,2,0.7573158013110515,H09R12,2022-11-23_09h23.56.424,t1_Paradigm,2021.1.4,60.0007891805334,
L,right,Target,0,47,47,47,728.905150823266,730.9062152431288,right,1,2,0.873217906744685,H09R12,2022-11-23_09h23.56.424,t1_Paradigm,2021.1.4,60.0007891805334,
W,right,Target,0,48,48,48,732.4050361366826,734.4064874433388,right,1,2,0.7169948841910809,H09R12,2022-11-23_09h23.56.424,t1_Paradigm,2021.1.4,60.0007891805334,
X,left,Distractor,0,49,49,49,735.9050860213465,737.9060019100434,left,1,2,0.849476981034968,H09R12,2022-11-23_09h23.56.424,t1_Paradigm,2021.1.4,60.0007891805334,
R,left,Distractor,0,50,50,50,739.4050213798182,741.4064319446334,left,1,2,0.853209508175496,H09R12,2022-11-23_09h23.56.424,t1_Paradigm,2021.1.4,60.0007891805334,
V,left,Pretarget,0,51,51,51,742.9052752943244,744.906315333239,left,1,2,0.8731745985278394,H09R12,2022-11-23_09h23.56.424,t1_Paradigm,2021.1.4,60.0007891805334,
Z,left,Distractor,0,52,52,52,746.4048920967616,748.405662983103,left,1,2,0.846070388390217,H09R12,2022-11-23_09h23.56.424,t1_Paradigm,2021.1.4,60.0007891805334,
V,right,Target,0,53,53,53,749.9050686980481,751.9179665281845,right,1,2,0.7255602881195955,H09R12,2022-11-23_09h23.56.424,t1_Paradigm,2021.1.4,60.0007891805334,
V,left,Lure,0,54,54,54,753.4051946127147,755.4051885174704,left,1,2,0.9023059543105774,H09R12,2022-11-23_09h23.56.424,t1_Paradigm,2021.1.4,60.0007891805334,
N,left,Distractor,0,55,55,55,756.904966683127,758.9058755142032,left,1,2,1.049736766202841,H09R12,2022-11-23_09h23.56.424,t1_Paradigm,2021.1.4,60.0007891805334,
B,left,Distractor,0,56,56,56,760.4052959860128,762.4058782409993,left,1,2,0.9577956564025953,H09R12,2022-11-23_09h23.56.424,t1_Paradigm,2021.1.4,60.0007891805334,
V,left,Lure,0,57,57,57,763.9050908333738,765.9068696784962,left,1,2,1.136672728753183,H09R12,2022-11-23_09h23.56.424,t1_Paradigm,2021.1.4,60.0007891805334,
J,left,Distractor,0,58,58,58,767.4051291691721,769.4058211383235,left,1,2,0.7738146298797801,H09R12,2022-11-23_09h23.56.424,t1_Paradigm,2021.1.4,60.0007891805334,
H,left,Distractor,0,59,59,59,770.9051357455901,772.9073653170199,left,1,2,0.5841406574181747,H09R12,2022-11-23_09h23.56.424,t1_Paradigm,2021.1.4,60.0007891805334,
X,left,Pretarget,0,60,60,60,774.404868036625,776.4061810777639,left,1,2,0.7174754450388718,H09R12,2022-11-23_09h23.56.424,t1_Paradigm,2021.1.4,60.0007891805334,
P,left,Distractor,0,61,61,61,777.9051591641328,779.9072498284513,left,1,2,0.7522898019524291,H09R12,2022-11-23_09h23.56.424,t1_Paradigm,2021.1.4,60.0007891805334,
X,right,Target,0,62,62,62,781.4049325177621,783.4064970673644,right,1,2,0.5329689454520121,H09R12,2022-11-23_09h23.56.424,t1_Paradigm,2021.1.4,60.0007891805334,
Q,left,Distractor,0,63,63,63,784.9048967483686,786.906423122593,left,1,2,0.521149008825887,H09R12,2022-11-23_09h23.56.424,t1_Paradigm,2021.1.4,60.0007891805334,
B,left,Pretarget,0,0,0,0,806.045893562492,808.0398143713246,None,0,2,,H09R12,2022-11-23_09h23.56.424,t1_Paradigm,2021.1.4,60.0007891805334,
F,left,Distractor,0,1,1,1,809.5383773403591,811.5402575588087,None,0,2,,H09R12,2022-11-23_09h23.56.424,t1_Paradigm,2021.1.4,60.0007891805334,
B,right,Target,0,2,2,2,813.0383819919662,815.0392475148255,right,1,2,0.6283387832227163,H09R12,2022-11-23_09h23.56.424,t1_Paradigm,2021.1.4,60.0007891805334,
V,left,Distractor,0,3,3,3,816.5383728491433,818.5402954133751,left,1,2,0.5352408626640681,H09R12,2022-11-23_09h23.56.424,t1_Paradigm,2021.1.4,60.0007891805334,
G,left,Pretarget,0,4,4,4,820.0383977112651,822.0388471543556,left,1,2,0.6045606445113663,H09R12,2022-11-23_09h23.56.424,t1_Paradigm,2021.1.4,60.0007891805334,
B,left,Lure,0,5,5,5,823.5383388441696,825.5403409672144,left,1,2,0.6232409242948052,H09R12,2022-11-23_09h23.56.424,t1_Paradigm,2021.1.4,60.0007891805334,
G,right,Target,0,6,6,6,827.0381388243404,829.0403600549325,right,1,2,0.8192475212272257,H09R12,2022-11-23_09h23.56.424,t1_Paradigm,2021.1.4,60.0007891805334,
Y,left,Pretarget,0,7,7,7,830.538407495711,832.5398251181759,left,1,2,0.5358837491658051,H09R12,2022-11-23_09h23.56.424,t1_Paradigm,2021.1.4,60.0007891805334,
P,left,Distractor,0,8,8,8,834.0383322677226,836.0385853802145,left,1,2,0.6048885037889704,H09R12,2022-11-23_09h23.56.424,t1_Paradigm,2021.1.4,60.0007891805334,
Y,right,Target,0,9,9,9,837.5380741828121,839.5399617796647,right,1,2,0.5118650092335884,H09R12,2022-11-23_09h23.56.424,t1_Paradigm,2021.1.4,60.0007891805334,
X,left,Distractor,0,10,10,10,841.038427866617,843.0395712036698,left,1,2,0.5158034910273273,H09R12,2022-11-23_09h23.56.424,t1_Paradigm,2021.1.4,60.0007891805334,
Y,right,Target,0,11,11,11,844.5382859118981,846.5386541921762,right,1,2,0.6649342308519408,H09R12,2022-11-23_09h23.56.424,t1_Paradigm,2021.1.4,60.0007891805334,
N,left,Distractor,0,12,12,12,848.0381981726387,850.0388455503562,left,1,2,0.7647904796467628,H09R12,2022-11-23_09h23.56.424,t1_Paradigm,2021.1.4,60.0007891805334,
Y,right,Target,0,13,13,13,851.5383940220345,853.5400843259122,right,1,2,0.5756015592196491,H09R12,2022-11-23_09h23.56.424,t1_Paradigm,2021.1.4,60.0007891805334,
Y,left,Lure,0,14,14,14,855.0383184732636,857.0382546337205,left,1,2,0.8530863203341141,H09R12,2022-11-23_09h23.56.424,t1_Paradigm,2021.1.4,60.0007891805334,
K,left,Distractor,0,15,15,15,858.538352317817,860.539492446871,left,1,2,0.9039532707538456,H09R12,2022-11-23_09h23.56.424,t1_Paradigm,2021.1.4,60.0007891805334,
T,left,Pretarget,0,16,16,16,862.0380820424471,864.038585701026,left,1,2,0.8929873081215192,H09R12,2022-11-23_09h23.56.424,t1_Paradigm,2021.1.4,60.0007891805334,
J,left,Distractor,0,17,17,17,865.5383539218456,867.5402315738611,left,1,2,0.71922477640328,H09R12,2022-11-23_09h23.56.424,t1_Paradigm,2021.1.4,60.0007891805334,
T,right,Target,0,18,18,18,869.0382158167195,871.0389106730872,right,1,2,1.0127367876993958,H09R12,2022-11-23_09h23.56.424,t1_Paradigm,2021.1.4,60.0007891805334,
S,left,Pretarget,0,19,19,19,872.5382948943297,874.5388954350201,left,1,2,0.7290858981432393,H09R12,2022-11-23_09h23.56.424,t1_Paradigm,2021.1.4,60.0007891805334,
R,left,Distractor,0,20,20,20,876.038255596126,878.0387759364094,left,1,2,0.5886392588727176,H09R12,2022-11-23_09h23.56.424,t1_Paradigm,2021.1.4,60.0007891805334,
S,right,Target,0,21,21,21,879.538764547935,881.5402530675638,right,1,2,0.4633565925178118,H09R12,2022-11-23_09h23.56.424,t1_Paradigm,2021.1.4,60.0007891805334,
Q,left,Distractor,0,22,22,22,883.0383056411811,885.0386229140277,left,1,2,1.013029679597821,H09R12,2022-11-23_09h23.56.424,t1_Paradigm,2021.1.4,60.0007891805334,
D,left,Distractor,0,23,23,23,886.5382695510052,888.5401978896989,left,1,2,0.7754378862155136,H09R12,2022-11-23_09h23.56.424,t1_Paradigm,2021.1.4,60.0007891805334,
F,left,Distractor,0,24,24,24,890.03829312991,892.0389244675462,left,1,2,1.1646456697781105,H09R12,2022-11-23_09h23.56.424,t1_Paradigm,2021.1.4,60.0007891805334,
Z,left,Distractor,0,25,25,25,893.5382069946791,895.540139503777,left,1,2,0.8634331357898191,H09R12,2022-11-23_09h23.56.424,t1_Paradigm,2021.1.4,60.0007891805334,
P,left,Distractor,0,26,26,26,897.0382385936391,899.0406150922354,left,1,2,0.8027454846305773,H09R12,2022-11-23_09h23.56.424,t1_Paradigm,2021.1.4,60.0007891805334,
H,left,Distractor,0,27,27,27,900.5381864633819,902.5390215100488,left,1,2,0.6487542791001033,H09R12,2022-11-23_09h23.56.424,t1_Paradigm,2021.1.4,60.0007891805334,
Z,left,Pretarget,0,28,28,28,904.0380117868772,906.0387268537597,left,1,2,0.5087359099998139,H09R12,2022-11-23_09h23.56.424,t1_Paradigm,2021.1.4,60.0007891805334,
J,left,Pretarget,0,29,29,29,907.5380857316486,909.5400172783702,left,1,2,0.5274242098093964,H09R12,2022-11-23_09h23.56.424,t1_Paradigm,2021.1.4,60.0007891805334,
Z,right,Target,0,30,30,30,911.0373304041859,913.0398753236223,right,1,2,0.739964281936409,H09R12,2022-11-23_09h23.56.424,t1_Paradigm,2021.1.4,60.0007891805334,
J,right,Target,0,31,31,31,914.5382304131927,916.5405709820043,right,1,2,0.598692540806951,H09R12,2022-11-23_09h23.56.424,t1_Paradigm,2021.1.4,60.0007891805334,
V,left,Pretarget,0,32,32,32,918.0378517068457,920.0393171287724,left,1,2,0.588035830995068,H09R12,2022-11-23_09h23.56.424,t1_Paradigm,2021.1.4,60.0007891805334,
Z,left,Lure,0,33,33,33,921.5381113957847,923.539808757283,left,1,2,0.9276332441659179,H09R12,2022-11-23_09h23.56.424,t1_Paradigm,2021.1.4,60.0007891805334,
V,right,Target,0,34,34,34,925.0382434056664,927.0397518149985,right,1,2,0.8995826691389084,H09R12,2022-11-23_09h23.56.424,t1_Paradigm,2021.1.4,60.0007891805334,
X,left,Distractor,0,35,35,35,928.5382833454642,930.540313057485,left,1,2,0.7275556743261404,H09R12,2022-11-23_09h23.56.424,t1_Paradigm,2021.1.4,60.0007891805334,
S,left,Distractor,0,36,36,36,932.0381532603933,934.0391015500645,left,1,2,1.0202907040365972,H09R12,2022-11-23_09h23.56.424,t1_Paradigm,2021.1.4,60.0007891805334,
Q,left,Distractor,0,37,37,37,935.5382179019507,937.5394209081132,left,1,2,0.8640987991821021,H09R12,2022-11-23_09h23.56.424,t1_Paradigm,2021.1.4,60.0007891805334,
P,left,Distractor,0,38,38,38,939.0381539020163,941.0394813792082,left,1,2,1.0598237323283684,H09R12,2022-11-23_09h23.56.424,t1_Paradigm,2021.1.4,60.0007891805334,
S,left,Lure,0,39,39,39,942.5380587843247,944.5394189833023,left,1,2,0.8719372666091658,H09R12,2022-11-23_09h23.56.424,t1_Paradigm,2021.1.4,60.0007891805334,
K,left,Pretarget,0,40,40,40,946.0381936814229,948.0388686480874,left,1,2,0.9725278303376399,H09R12,2022-11-23_09h23.56.424,t1_Paradigm,2021.1.4,60.0007891805334,
L,left,Distractor,0,41,41,41,949.5381932002201,951.5400259400194,left,1,2,1.327744754817104,H09R12,2022-11-23_09h23.56.424,t1_Paradigm,2021.1.4,60.0007891805334,
K,right,Target,0,42,42,42,953.0382873555063,955.0389498108998,right,1,2,0.6125357733981218,H09R12,2022-11-23_09h23.56.424,t1_Paradigm,2021.1.4,60.0007891805334,
B,left,Distractor,0,43,43,43,956.5383917764411,958.5395165070076,left,1,2,0.8559279813198373,H09R12,2022-11-23_09h23.56.424,t1_Paradigm,2021.1.4,60.0007891805334,
N,left,Distractor,0,44,44,44,960.0379473057401,962.0397742711066,left,1,2,0.6674708094506059,H09R12,2022-11-23_09h23.56.424,t1_Paradigm,2021.1.4,60.0007891805334,
S,left,Pretarget,0,45,45,45,963.5379349548894,965.5406296887086,left,1,2,0.846869826054899,H09R12,2022-11-23_09h23.56.424,t1_Paradigm,2021.1.4,60.0007891805334,
Z,left,Distractor,0,46,46,46,967.0381561476097,969.0401431930077,left,1,2,0.9473750565957744,H09R12,2022-11-23_09h23.56.424,t1_Paradigm,2021.1.4,60.0007891805334,
S,right,Target,0,47,47,47,970.5381614408398,972.5405838140578,right,1,2,0.6949487535457592,H09R12,2022-11-23_09h23.56.424,t1_Paradigm,2021.1.4,60.0007891805334,
C,left,Distractor,0,48,48,48,974.0381616012601,976.0390938508208,left,1,2,0.6521156387170777,H09R12,2022-11-23_09h23.56.424,t1_Paradigm,2021.1.4,60.0007891805334,
T,left,Pretarget,0,49,49,49,977.5382297715987,979.5388732996944,left,1,2,0.8003718732798006,H09R12,2022-11-23_09h23.56.424,t1_Paradigm,2021.1.4,60.0007891805334,
S,left,Lure,0,50,50,50,981.038229290396,983.0394752839929,left,1,2,0.7716036649653688,H09R12,2022-11-23_09h23.56.424,t1_Paradigm,2021.1.4,60.0007891805334,
T,right,Target,0,51,51,51,984.5379724886734,986.5400038046937,right,1,2,0.5193185146490578,H09R12,2022-11-23_09h23.56.424,t1_Paradigm,2021.1.4,60.0007891805334,
N,left,Pretarget,0,52,52,52,988.0379534009844,990.0381282378803,left,1,2,0.5732151157862972,H09R12,2022-11-23_09h23.56.424,t1_Paradigm,2021.1.4,60.0007891805334,
B,left,Distractor,0,53,53,53,991.5381046589464,993.5401141604525,left,1,2,0.7032135663321242,H09R12,2022-11-23_09h23.56.424,t1_Paradigm,2021.1.4,60.0007891805334,
N,right,Target,0,54,54,54,995.0378988647135,997.0389071442769,right,1,2,0.8363738378684502,H09R12,2022-11-23_09h23.56.424,t1_Paradigm,2021.1.4,60.0007891805334,
N,left,Lure,0,55,55,55,998.5380889396765,1000.5381049797579,left,1,2,1.1296192629961297,H09R12,2022-11-23_09h23.56.424,t1_Paradigm,2021.1.4,60.0007891805334,
X,left,Distractor,0,56,56,56,1002.0381109145819,1004.0402727968758,left,1,2,0.8273211362538859,H09R12,2022-11-23_09h23.56.424,t1_Paradigm,2021.1.4,60.0007891805334,
W,left,Distractor,0,57,57,57,1005.5381851801649,1007.539200517378,None,0,2,,H09R12,2022-11-23_09h23.56.424,t1_Paradigm,2021.1.4,60.0007891805334,
S,left,Distractor,0,58,58,58,1009.0378257219272,1011.0388384927064,left,1,2,1.0765878639067523,H09R12,2022-11-23_09h23.56.424,t1_Paradigm,2021.1.4,60.0007891805334,
L,left,Distractor,0,59,59,59,1012.5379234060238,1014.5405132377055,left,1,2,0.6147387182863895,H09R12,2022-11-23_09h23.56.424,t1_Paradigm,2021.1.4,60.0007891805334,
K,left,Pretarget,0,60,60,60,1016.0380990449339,1018.038506783807,left,1,2,0.86060238207574,H09R12,2022-11-23_09h23.56.424,t1_Paradigm,2021.1.4,60.0007891805334,
V,left,Pretarget,0,61,61,61,1019.5377828949131,1021.5402662204287,left,1,2,0.7189925160200801,H09R12,2022-11-23_09h23.56.424,t1_Paradigm,2021.1.4,60.0007891805334,
K,right,Target,0,62,62,62,1023.0377654112235,1025.0392552140693,right,1,2,0.5321464100270532,H09R12,2022-11-23_09h23.56.424,t1_Paradigm,2021.1.4,60.0007891805334,
V,right,Target,0,63,63,63,1026.5378008598054,1028.5510268700018,right,1,2,1.2283559140341822,H09R12,2022-11-23_09h23.56.424,t1_Paradigm,2021.1.4,60.0007891805334,
R,left,Distractor,0,0,0,0,1096.4119574321667,1098.4174909397552,None,0,3,,H09R12,2022-11-23_09h23.56.424,t1_Paradigm,2021.1.4,60.0007891805334,
P,left,Lure,0,1,1,1,1099.9047459716094,1101.9055784518714,None,0,3,,H09R12,2022-11-23_09h23.56.424,t1_Paradigm,2021.1.4,60.0007891805334,
V,left,Distractor,0,2,2,2,1103.4045668038889,1105.4061278246809,None,0,3,,H09R12,2022-11-23_09h23.56.424,t1_Paradigm,2021.1.4,60.0007891805334,
P,left,Pretarget,0,3,3,3,1106.9048005078803,1108.9050356554799,left,1,3,0.6661786204203963,H09R12,2022-11-23_09h23.56.424,t1_Paradigm,2021.1.4,60.0007891805334,
Z,left,Distractor,0,4,4,4,1110.4046736308374,1112.4060238849488,left,1,3,0.7170840670296457,H09R12,2022-11-23_09h23.56.424,t1_Paradigm,2021.1.4,60.0007891805334,
L,left,Pretarget,0,5,5,5,1113.9047828637995,1115.9046288790123,left,1,3,0.5944451270333957,H09R12,2022-11-23_09h23.56.424,t1_Paradigm,2021.1.4,60.0007891805334,
P,right,Target,0,6,6,6,1117.404511625995,1119.4064637040137,right,1,3,0.4846238167665433,H09R12,2022-11-23_09h23.56.424,t1_Paradigm,2021.1.4,60.0007891805334,
S,left,Distractor,0,7,7,7,1120.9046965681482,1122.9061283058836,left,1,3,0.6813826935831457,H09R12,2022-11-23_09h23.56.424,t1_Paradigm,2021.1.4,60.0007891805334,
L,right,Target,0,8,8,8,1124.4045716159162,1126.4063549522543,right,1,3,0.8290124025079422,H09R12,2022-11-23_09h23.56.424,t1_Paradigm,2021.1.4,60.0007891805334,
D,left,Distractor,0,9,9,9,1127.904397260223,1129.905961489043,left,1,3,0.609384859650163,H09R12,2022-11-23_09h23.56.424,t1_Paradigm,2021.1.4,60.0007891805334,
G,left,Distractor,0,10,10,10,1131.4047025029722,1133.406217328331,left,1,3,0.8529583204945084,H09R12,2022-11-23_09h23.56.424,t1_Paradigm,2021.1.4,60.0007891805334,
M,left,Pretarget,0,11,11,11,1134.90466352558,1136.9064962653792,left,1,3,0.9846002378326375,H09R12,2022-11-23_09h23.56.424,t1_Paradigm,2021.1.4,60.0007891805334,
Y,left,Distractor,0,12,12,12,1138.4043037465308,1140.4050050189253,left,1,3,0.6701559192442801,H09R12,2022-11-23_09h23.56.424,t1_Paradigm,2021.1.4,60.0007891805334,
V,left,Distractor,0,13,13,13,1141.9046397862548,1143.9048791042878,left,1,3,0.6903680268733297,H09R12,2022-11-23_09h23.56.424,t1_Paradigm,2021.1.4,60.0007891805334,
M,right,Target,0,14,14,14,1145.4046765180537,1147.4058362159994,right,1,3,0.9172434412757866,H09R12,2022-11-23_09h23.56.424,t1_Paradigm,2021.1.4,60.0007891805334,
S,left,Pretarget,0,15,15,15,1148.9045884579828,1150.9048473449075,None,0,3,,H09R12,2022-11-23_09h23.56.424,t1_Paradigm,2021.1.4,60.0007891805334,
Q,left,Distractor,0,16,16,16,1152.4046248689701,1154.4063421201718,left,1,3,1.1487518730864394,H09R12,2022-11-23_09h23.56.424,t1_Paradigm,2021.1.4,60.0007891805334,
R,left,Pretarget,0,17,17,17,1155.9044088090595,1157.904714853852,None,0,3,,H09R12,2022-11-23_09h23.56.424,t1_Paradigm,2021.1.4,60.0007891805334,
S,right,Target,0,18,18,18,1159.4048199163808,1161.4069798738637,left,0,3,1.2522335012617987,H09R12,2022-11-23_09h23.56.424,t1_Paradigm,2021.1.4,60.0007891805334,
F,left,Distractor,0,19,19,19,1162.9045987236314,1164.9061003961542,left,1,3,0.8251374394458253,H09R12,2022-11-23_09h23.56.424,t1_Paradigm,2021.1.4,60.0007891805334,
R,right,Target,0,20,20,20,1166.404467034561,1168.406154772034,right,1,3,0.6369009791233111,H09R12,2022-11-23_09h23.56.424,t1_Paradigm,2021.1.4,60.0007891805334,
P,left,Distractor,0,21,21,21,1169.9043292502756,1171.9050686980481,left,1,3,0.7060796082078014,H09R12,2022-11-23_09h23.56.424,t1_Paradigm,2021.1.4,60.0007891805334,
L,left,Distractor,0,22,22,22,1173.4046091497003,1175.4056164668582,left,1,3,0.8056115265353583,H09R12,2022-11-23_09h23.56.424,t1_Paradigm,2021.1.4,60.0007891805334,
R,right,Target,0,23,23,23,1176.9046667336079,1178.9065174382704,right,1,3,0.5046007767668925,H09R12,2022-11-23_09h23.56.424,t1_Paradigm,2021.1.4,60.0007891805334,
H,left,Pretarget,0,24,24,24,1180.4046165281325,1182.4055985019659,left,1,3,0.6535178627236746,H09R12,2022-11-23_09h23.56.424,t1_Paradigm,2021.1.4,60.0007891805334,
G,left,Pretarget,0,25,25,25,1183.904621500551,1185.9052265324572,left,1,3,0.8338237855932675,H09R12,2022-11-23_09h23.56.424,t1_Paradigm,2021.1.4,60.0007891805334,
T,left,Distractor,0,26,26,26,1187.4045799567539,1189.4058756745944,left,1,3,0.5973762916692067,H09R12,2022-11-23_09h23.56.424,t1_Paradigm,2021.1.4,60.0007891805334,
H,right,Target,0,27,27,27,1190.904530713684,1192.9064497491345,left,0,3,1.2727474832208827,H09R12,2022-11-23_09h23.56.424,t1_Paradigm,2021.1.4,60.0007891805334,
G,right,Target,0,28,28,28,1194.4045206084556,1196.405171194172,right,1,3,1.1498211049474776,H09R12,2022-11-23_09h23.56.424,t1_Paradigm,2021.1.4,60.0007891805334,
D,left,Distractor,0,29,29,29,1197.9045088991988,1199.9062412280764,left,1,3,1.216775616252562,H09R12,2022-11-23_09h23.56.424,t1_Paradigm,2021.1.4,60.0007891805334,
N,left,Pretarget,0,30,30,30,1201.4045113051834,1203.406097027735,left,1,3,0.6610162803845014,H09R12,2022-11-23_09h23.56.424,t1_Paradigm,2021.1.4,60.0007891805334,
V,left,Distractor,0,31,31,31,1204.904557661037,1206.9052733695135,left,1,3,0.7299065087572671,H09R12,2022-11-23_09h23.56.424,t1_Paradigm,2021.1.4,60.0007891805334,
R,left,Distractor,0,32,32,32,1208.4043172202073,1210.4049636355194,left,1,3,0.7662822073034476,H09R12,2022-11-23_09h23.56.424,t1_Paradigm,2021.1.4,60.0007891805334,
N,right,Target,0,33,33,33,1211.9045586234424,1213.9068510719808,right,1,3,0.5607846936618444,H09R12,2022-11-23_09h23.56.424,t1_Paradigm,2021.1.4,60.0007891805334,
Z,left,Distractor,0,34,34,34,1215.4044737713994,1217.4060453786515,left,1,3,0.6451513558276929,H09R12,2022-11-23_09h23.56.424,t1_Paradigm,2021.1.4,60.0007891805334,
N,left,Lure,0,35,35,35,1218.9044681573869,1220.906036556611,left,1,3,0.9368518002447672,H09R12,2022-11-23_09h23.56.424,t1_Paradigm,2021.1.4,60.0007891805334,
Y,left,Pretarget,0,36,36,36,1222.4045931096189,1224.405648547021,left,1,3,0.9894850844866596,H09R12,2022-11-23_09h23.56.424,t1_Paradigm,2021.1.4,60.0007891805334,
Y,left,Lure,0,37,37,37,1225.9046336910105,1227.9043042277335,left,1,3,1.2026972360617947,H09R12,2022-11-23_09h23.56.424,t1_Paradigm,2021.1.4,60.0007891805334,
B,left,Distractor,0,38,38,38,1229.404482112237,1231.4051452092535,left,1,3,0.9820610927999951,H09R12,2022-11-23_09h23.56.424,t1_Paradigm,2021.1.4,60.0007891805334,
Y,right,Target,0,39,39,39,1232.904448588466,1234.9040475864313,right,1,3,0.8591103336075321,H09R12,2022-11-23_09h23.56.424,t1_Paradigm,2021.1.4,60.0007891805334,
J,left,Distractor,0,40,40,40,1236.4044994355354,1238.4064226413902,left,1,3,0.8926017045450862,H09R12,2022-11-23_09h23.56.424,t1_Paradigm,2021.1.4,60.0007891805334,
X,left,Distractor,0,41,41,41,1239.9044286987628,1241.9052351941064,None,0,3,,H09R12,2022-11-23_09h23.56.424,t1_Paradigm,2021.1.4,60.0007891805334,
W,left,Pretarget,0,42,42,42,1243.404480187426,1245.4046794052701,None,0,3,,H09R12,2022-11-23_09h23.56.424,t1_Paradigm,2021.1.4,60.0007891805334,
S,left,Pretarget,0,43,43,43,1246.904237501003,1248.90475302923,left,1,3,0.8104598018107936,H09R12,2022-11-23_09h23.56.424,t1_Paradigm,2021.1.4,60.0007891805334,
R,left,Distractor,0,44,44,44,1250.4044785834267,1252.4064454183099,left,1,3,0.8447223798430059,H09R12,2022-11-23_09h23.56.424,t1_Paradigm,2021.1.4,60.0007891805334,
W,right,Target,0,45,45,45,1253.9045345633058,1255.9053891788935,right,1,3,0.7375521743670106,H09R12,2022-11-23_09h23.56.424,t1_Paradigm,2021.1.4,60.0007891805334,
S,right,Target,0,46,46,46,1257.4043172202073,1259.4060360754083,right,1,3,0.836972453747876,H09R12,2022-11-23_09h23.56.424,t1_Paradigm,2021.1.4,60.0007891805334,
D,left,Distractor,0,47,47,47,1260.9044463428727,1262.905005500128,left,1,3,0.953877705935156,H09R12,2022-11-23_09h23.56.424,t1_Paradigm,2021.1.4,60.0007891805334,
T,left,Distractor,0,48,48,48,1264.4045344029146,1266.4065926662588,left,1,3,1.0203869445249438,H09R12,2022-11-23_09h23.56.424,t1_Paradigm,2021.1.4,60.0007891805334,
S,right,Target,0,49,49,49,1267.9045021623606,1269.9065370071912,right,1,3,1.2484117912536021,H09R12,2022-11-23_09h23.56.424,t1_Paradigm,2021.1.4,60.0007891805334,
K,left,Distractor,0,50,50,50,1271.4044064030459,1273.4048330692458,left,1,3,0.5661077553522773,H09R12,2022-11-23_09h23.56.424,t1_Paradigm,2021.1.4,60.0007891805334,
S,left,Lure,0,51,51,51,1274.9041983631905,1276.9040267343225,None,0,3,,H09R12,2022-11-23_09h23.56.424,t1_Paradigm,2021.1.4,60.0007891805334,
T,left,Pretarget,0,52,52,52,1278.4045238164545,1280.406363293092,right,0,3,1.0525996000797022,H09R12,2022-11-23_09h23.56.424,t1_Paradigm,2021.1.4,60.0007891805334,
V,left,Distractor,0,53,53,53,1281.9041858519195,1283.905814241065,left,1,3,0.8972674436809029,H09R12,2022-11-23_09h23.56.424,t1_Paradigm,2021.1.4,60.0007891805334,
B,left,Distractor,0,54,54,54,1285.4042139220692,1287.417218579154,left,1,3,1.3376828689943068,H09R12,2022-11-23_09h23.56.424,t1_Paradigm,2021.1.4,60.0007891805334,
T,right,Target,0,55,55,55,1288.904399185034,1290.9048046783137,right,1,3,0.9701314420672134,H09R12,2022-11-23_09h23.56.424,t1_Paradigm,2021.1.4,60.0007891805334,
Y,left,Pretarget,0,56,56,56,1292.404480187426,1294.4038109951944,left,1,3,0.6711375722661614,H09R12,2022-11-23_09h23.56.424,t1_Paradigm,2021.1.4,60.0007891805334,
T,left,Lure,0,57,57,57,1295.9041714158666,1297.9046895104984,left,1,3,0.9624694155645557,H09R12,2022-11-23_09h23.56.424,t1_Paradigm,2021.1.4,60.0007891805334,
P,left,Pretarget,0,58,58,58,1299.404392608587,1301.406379653985,left,1,3,1.3966619305720087,H09R12,2022-11-23_09h23.56.424,t1_Paradigm,2021.1.4,60.0007891805334,
Y,right,Target,0,59,59,59,1302.903841631749,1304.9058973287174,left,0,3,1.2890073145972565,H09R12,2022-11-23_09h23.56.424,t1_Paradigm,2021.1.4,60.0007891805334,
R,left,Distractor,0,60,60,60,1306.4044416912366,1308.4065644357179,left,1,3,1.3884936790855136,H09R12,2022-11-23_09h23.56.424,t1_Paradigm,2021.1.4,60.0007891805334,
P,right,Target,0,61,61,61,1309.9043622928439,1311.90593454169,left,0,3,1.2329558888159227,H09R12,2022-11-23_09h23.56.424,t1_Paradigm,2021.1.4,60.0007891805334,
L,left,Distractor,0,62,62,62,1313.404551726213,1315.4065246563114,left,1,3,1.1724408289592247,H09R12,2022-11-23_09h23.56.424,t1_Paradigm,2021.1.4,60.0007891805334,
V,left,Distractor,0,63,63,63,1316.904356518411,1318.9054976098414,left,1,3,0.9533798217598815,H09R12,2022-11-23_09h23.56.424,t1_Paradigm,2021.1.4,60.0007891805334,
H,left,Lure,0,0,0,0,1335.8662940448557,1337.85610698862,None,0,3,,H09R12,2022-11-23_09h23.56.424,t1_Paradigm,2021.1.4,60.0007891805334,
B,left,Distractor,0,1,1,1,1339.3541371061292,1341.3548252256587,None,0,3,,H09R12,2022-11-23_09h23.56.424,t1_Paradigm,2021.1.4,60.0007891805334,
T,left,Distractor,0,2,2,2,1342.854599220882,1344.854334880336,None,0,3,,H09R12,2022-11-23_09h23.56.424,t1_Paradigm,2021.1.4,60.0007891805334,
R,left,Distractor,0,3,3,3,1346.3542965445376,1348.3559194800619,left,1,3,0.8791383011266589,H09R12,2022-11-23_09h23.56.424,t1_Paradigm,2021.1.4,60.0007891805334,
H,left,Pretarget,0,4,4,4,1349.8543602236605,1351.855181155057,left,1,3,0.8996189197059721,H09R12,2022-11-23_09h23.56.424,t1_Paradigm,2021.1.4,60.0007891805334,
K,left,Distractor,0,5,5,5,1353.3541390309401,1355.3551113807189,left,1,3,0.8718333268770948,H09R12,2022-11-23_09h23.56.424,t1_Paradigm,2021.1.4,60.0007891805334,
G,left,Distractor,0,6,6,6,1356.8540573868959,1358.8566857147962,left,1,3,0.8585312866489403,H09R12,2022-11-23_09h23.56.424,t1_Paradigm,2021.1.4,60.0007891805334,
H,right,Target,0,7,7,7,1360.3543404943484,1362.3562065975275,right,1,3,0.5267983257945161,H09R12,2022-11-23_09h23.56.424,t1_Paradigm,2021.1.4,60.0007891805334,
Y,left,Pretarget,0,8,8,8,1363.8541590810346,1365.8556915504741,left,1,3,1.267139870498795,H09R12,2022-11-23_09h23.56.424,t1_Paradigm,2021.1.4,60.0007891805334,
S,left,Distractor,0,9,9,9,1367.3543023189704,1369.3546160629776,left,1,3,0.8882936592563055,H09R12,2022-11-23_09h23.56.424,t1_Paradigm,2021.1.4,60.0007891805334,
P,left,Distractor,0,10,10,10,1370.854384925391,1372.8566517098225,left,1,3,0.9227500015404075,H09R12,2022-11-23_09h23.56.424,t1_Paradigm,2021.1.4,60.0007891805334,
Y,right,Target,0,11,11,11,1374.3541855471558,1376.355291029642,right,1,3,1.2156380536325742,H09R12,2022-11-23_09h23.56.424,t1_Paradigm,2021.1.4,60.0007891805334,
H,left,Lure,0,12,12,12,1377.8541517026024,1379.8559007131553,right,0,3,1.2668800211686175,H09R12,2022-11-23_09h23.56.424,t1_Paradigm,2021.1.4,60.0007891805334,
Q,left,Distractor,0,13,13,13,1381.3542394418328,1383.3557895553822,left,1,3,0.9670305733743589,H09R12,2022-11-23_09h23.56.424,t1_Paradigm,2021.1.4,60.0007891805334,
V,left,Pretarget,0,14,14,14,1384.854317877849,1386.8562927327584,left,1,3,0.794695288175717,H09R12,2022-11-23_09h23.56.424,t1_Paradigm,2021.1.4,60.0007891805334,
G,left,Distractor,0,15,15,15,1388.3543141886184,1390.356496281427,left,1,3,0.926358057622565,H09R12,2022-11-23_09h23.56.424,t1_Paradigm,2021.1.4,60.0007891805334,
Z,left,Pretarget,0,16,16,16,1391.854281627253,1393.8562407628924,left,1,3,0.7546926062495913,H09R12,2022-11-23_09h23.56.424,t1_Paradigm,2021.1.4,60.0007891805334,
V,right,Target,0,17,17,17,1395.3542554819142,1397.3551816362597,right,1,3,0.8397117789718322,H09R12,2022-11-23_09h23.56.424,t1_Paradigm,2021.1.4,60.0007891805334,
N,left,Distractor,0,18,18,18,1398.8541658178729,1400.8555593802012,left,1,3,0.8914262873295229,H09R12,2022-11-23_09h23.56.424,t1_Paradigm,2021.1.4,60.0007891805334,
Z,right,Target,0,19,19,19,1402.3542388002388,1404.3562236000143,right,1,3,0.7665632295247633,H09R12,2022-11-23_09h23.56.424,t1_Paradigm,2021.1.4,60.0007891805334,
R,left,Distractor,0,20,20,20,1405.8542864392803,1407.8554772549833,left,1,3,1.2672633791225962,H09R12,2022-11-23_09h23.56.424,t1_Paradigm,2021.1.4,60.0007891805334,
P,left,Distractor,0,21,21,21,1409.3542753716174,1411.3568029677845,left,1,3,1.1420044520928059,H09R12,2022-11-23_09h23.56.424,t1_Paradigm,2021.1.4,60.0007891805334,
Z,right,Target,0,22,22,22,1412.8541500985739,1414.8562946575694,right,1,3,0.6025883559777867,H09R12,2022-11-23_09h23.56.424,t1_Paradigm,2021.1.4,60.0007891805334,
D,left,Pretarget,0,23,23,23,1416.3539074121509,1418.3559207632497,left,1,3,0.75084683613386,H09R12,2022-11-23_09h23.56.424,t1_Paradigm,2021.1.4,60.0007891805334,
K,left,Distractor,0,24,24,24,1419.854003492219,1421.85608068289,left,1,3,0.8026777954946738,H09R12,2022-11-23_09h23.56.424,t1_Paradigm,2021.1.4,60.0007891805334,
W,left,Distractor,0,25,25,25,1423.3540838530462,1425.3566704767,left,1,3,0.9180893952434417,H09R12,2022-11-23_09h23.56.424,t1_Paradigm,2021.1.4,60.0007891805334,
D,right,Target,0,26,26,26,1426.8542742488207,1428.854239602253,left,0,3,0.7164992456382606,H09R12,2022-11-23_09h23.56.424,t1_Paradigm,2021.1.4,60.0007891805334,
G,left,Pretarget,0,27,27,27,1430.3542003040493,1432.354429677216,left,1,3,0.8003417179279495,H09R12,2022-11-23_09h23.56.424,t1_Paradigm,2021.1.4,60.0007891805334,
V,left,Distractor,0,28,28,28,1433.8542912513076,1435.8566860355786,left,1,3,1.0902415027085226,H09R12,2022-11-23_09h23.56.424,t1_Paradigm,2021.1.4,60.0007891805334,
D,right,Target,0,29,29,29,1437.3542978277546,1439.3547459876281,right,1,3,0.8081683156487998,H09R12,2022-11-23_09h23.56.424,t1_Paradigm,2021.1.4,60.0007891805334,
G,right,Target,0,30,30,30,1440.854198218818,1442.8552918316273,right,1,3,1.2275125265005045,H09R12,2022-11-23_09h23.56.424,t1_Paradigm,2021.1.4,60.0007891805334,
B,left,Pretarget,0,31,31,31,1444.3543039229698,1446.3548172056035,left,1,3,1.0080989583220799,H09R12,2022-11-23_09h23.56.424,t1_Paradigm,2021.1.4,60.0007891805334,
N,left,Distractor,0,32,32,32,1447.8541921236028,1449.8546296970453,None,0,3,,H09R12,2022-11-23_09h23.56.424,t1_Paradigm,2021.1.4,60.0007891805334,
F,left,Distractor,0,33,33,33,1451.3541906799946,1453.3557619664352,left,1,3,1.111189208488213,H09R12,2022-11-23_09h23.56.424,t1_Paradigm,2021.1.4,60.0007891805334,
B,right,Target,0,34,34,34,1454.8541885947925,1456.8564563416003,right,1,3,0.8263282551488373,H09R12,2022-11-23_09h23.56.424,t1_Paradigm,2021.1.4,60.0007891805334,
Q,left,Pretarget,0,35,35,35,1458.3540273919643,1460.3567121809174,left,1,3,0.7020394323044457,H09R12,2022-11-23_09h23.56.424,t1_Paradigm,2021.1.4,60.0007891805334,
S,left,Pretarget,0,36,36,36,1461.8538947404886,1463.8564932337904,left,1,3,0.8022748686489649,H09R12,2022-11-23_09h23.56.424,t1_Paradigm,2021.1.4,60.0007891805334,
W,left,Distractor,0,37,37,37,1465.3540200135321,1467.354416524351,left,1,3,0.9363154198799748,H09R12,2022-11-23_09h23.56.424,t1_Paradigm,2021.1.4,60.0007891805334,
Q,right,Target,0,38,38,38,1468.8542723240098,1470.8562914495706,right,1,3,0.7465695878199767,H09R12,2022-11-23_09h23.56.424,t1_Paradigm,2021.1.4,60.0007891805334,
S,right,Target,0,39,39,39,1472.354204795265,1474.3538631414995,right,1,3,0.8008091259107459,H09R12,2022-11-23_09h23.56.424,t1_Paradigm,2021.1.4,60.0007891805334,
T,left,Distractor,0,40,40,40,1475.8542569255223,1477.855986046401,None,0,3,,H09R12,2022-11-23_09h23.56.424,t1_Paradigm,2021.1.4,60.0007891805334,
G,left,Distractor,0,41,41,41,1479.3542583691305,1481.3561340963643,left,1,3,0.934670349030057,H09R12,2022-11-23_09h23.56.424,t1_Paradigm,2021.1.4,60.0007891805334,
D,left,Distractor,0,42,42,42,1482.8539553719747,1484.8566173840372,left,1,3,1.162302213779185,H09R12,2022-11-23_09h23.56.424,t1_Paradigm,2021.1.4,60.0007891805334,
S,left,Lure,0,43,43,43,1486.3539924245852,1488.3543648752966,left,1,3,0.6883492220949847,H09R12,2022-11-23_09h23.56.424,t1_Paradigm,2021.1.4,60.0007891805334,
Z,left,Pretarget,0,44,44,44,1489.8539794321114,1491.854822819645,left,1,3,0.7080451599031221,H09R12,2022-11-23_09h23.56.424,t1_Paradigm,2021.1.4,60.0007891805334,
J,left,Distractor,0,45,45,45,1493.3542436122661,1495.3562688330421,left,1,3,0.9184336153848562,H09R12,2022-11-23_09h23.56.424,t1_Paradigm,2021.1.4,60.0007891805334,
M,left,Pretarget,0,46,46,46,1496.8541478529805,1498.8541892363864,left,1,3,0.6365160171408206,H09R12,2022-11-23_09h23.56.424,t1_Paradigm,2021.1.4,60.0007891805334,
Z,right,Target,0,47,47,47,1500.3540405448293,1502.3543943890254,right,1,3,0.7202962539158762,H09R12,2022-11-23_09h23.56.424,t1_Paradigm,2021.1.4,60.0007891805334,
P,left,Distractor,0,48,48,48,1503.8542360734136,1505.854319161066,left,1,3,0.6607487317814957,H09R12,2022-11-23_09h23.56.424,t1_Paradigm,2021.1.4,60.0007891805334,
M,right,Target,0,49,49,49,1507.3540084646665,1509.3549304485787,right,1,3,0.8878512737865094,H09R12,2022-11-23_09h23.56.424,t1_Paradigm,2021.1.4,60.0007891805334,
K,left,Distractor,0,50,50,50,1510.854069898167,1512.8543955118512,left,1,3,0.6203245165233966,H09R12,2022-11-23_09h23.56.424,t1_Paradigm,2021.1.4,60.0007891805334,
Y,left,Distractor,0,51,51,51,1514.3541229908587,1516.355678237218,left,1,3,0.8152570695965551,H09R12,2022-11-23_09h23.56.424,t1_Paradigm,2021.1.4,60.0007891805334,
X,left,Distractor,0,52,52,52,1517.8541051863576,1519.85483597251,left,1,3,0.7879048797476571,H09R12,2022-11-23_09h23.56.424,t1_Paradigm,2021.1.4,60.0007891805334,
F,left,Pretarget,0,53,53,53,1521.3540697377757,1523.3563573743158,left,1,3,0.918348602950573,H09R12,2022-11-23_09h23.56.424,t1_Paradigm,2021.1.4,60.0007891805334,
M,left,Lure,0,54,54,54,1524.8539682040573,1526.8565025370335,left,1,3,0.826206029712921,H09R12,2022-11-23_09h23.56.424,t1_Paradigm,2021.1.4,60.0007891805334,
V,left,Distractor,0,55,55,55,1528.353994349396,1530.3549830600678,left,1,3,0.6876347968354821,H09R12,2022-11-23_09h23.56.424,t1_Paradigm,2021.1.4,60.0007891805334,
F,right,Target,0,56,56,56,1531.8539313118672,1533.855709836178,right,1,3,1.3791169678152073,H09R12,2022-11-23_09h23.56.424,t1_Paradigm,2021.1.4,60.0007891805334,
S,left,Distractor,0,57,57,57,1535.353983121342,1537.3555595406215,left,1,3,0.9990815448982175,H09R12,2022-11-23_09h23.56.424,t1_Paradigm,2021.1.4,60.0007891805334,
D,left,Distractor,0,58,58,58,1538.8540885046823,1540.8541026199528,left,1,3,0.8767008502327371,H09R12,2022-11-23_09h23.56.424,t1_Paradigm,2021.1.4,60.0007891805334,
F,right,Target,0,59,59,59,1542.3541736775078,1544.355041125149,right,1,3,0.847808812482981,H09R12,2022-11-23_09h23.56.424,t1_Paradigm,2021.1.4,60.0007891805334,
V,left,Pretarget,0,60,60,60,1545.8540775974107,1547.8560559811594,left,1,3,0.7067157578712795,H09R12,2022-11-23_09h23.56.424,t1_Paradigm,2021.1.4,60.0007891805334,
J,left,Distractor,0,61,61,61,1549.3539866501524,1551.35420736167,left,1,3,0.7764628474833444,H09R12,2022-11-23_09h23.56.424,t1_Paradigm,2021.1.4,60.0007891805334,
V,left,Lure,0,62,62,62,1552.8537487757276,1554.854612373747,left,1,3,1.0038659806305077,H09R12,2022-11-23_09h23.56.424,t1_Paradigm,2021.1.4,60.0007891805334,
V,right,Target,0,63,63,63,1556.353956815583,1558.354045677639,right,1,3,0.7685634277877398,H09R12,2022-11-23_09h23.56.424,t1_Paradigm,2021.1.4,60.0007891805334,
R,left,Distractor,0,0,0,0,1630.1972047910967,1632.1884385653539,None,0,4,,H09R12,2022-11-23_09h23.56.424,t1_Paradigm,2021.1.4,60.0007891805334,
F,left,Distractor,0,1,1,1,1633.6873021255306,1635.689496087958,None,0,4,,H09R12,2022-11-23_09h23.56.424,t1_Paradigm,2021.1.4,60.0007891805334,
P,left,Pretarget,0,2,2,2,1637.1873019651102,1639.1884895728144,None,0,4,,H09R12,2022-11-23_09h23.56.424,t1_Paradigm,2021.1.4,60.0007891805334,
H,left,Distractor,0,3,3,3,1640.6872896142595,1642.689471707039,None,0,4,,H09R12,2022-11-23_09h23.56.424,t1_Paradigm,2021.1.4,60.0007891805334,
Z,left,Distractor,0,4,4,4,1644.1871434891073,1646.188885121228,left,1,4,0.6618301541311666,H09R12,2022-11-23_09h23.56.424,t1_Paradigm,2021.1.4,60.0007891805334,
T,left,Distractor,0,5,5,5,1647.6870467674162,1649.6893016821705,left,1,4,0.8733446234255098,H09R12,2022-11-23_09h23.56.424,t1_Paradigm,2021.1.4,60.0007891805334,
P,right,Target,0,6,6,6,1651.1872554488946,1653.188763537415,right,1,4,0.5097846105636563,H09R12,2022-11-23_09h23.56.424,t1_Paradigm,2021.1.4,60.0007891805334,
G,left,Distractor,0,7,7,7,1654.6868709681148,1656.6883957383398,left,1,4,0.5623453936423175,H09R12,2022-11-23_09h23.56.424,t1_Paradigm,2021.1.4,60.0007891805334,
L,left,Distractor,0,8,8,8,1658.1872310679464,1660.1880516785604,left,1,4,0.5664080256829038,H09R12,2022-11-23_09h23.56.424,t1_Paradigm,2021.1.4,60.0007891805334,
P,left,Lure,0,9,9,9,1661.6873608322348,1663.6890530608944,left,1,4,0.8416013006644789,H09R12,2022-11-23_09h23.56.424,t1_Paradigm,2021.1.4,60.0007891805334,
Q,left,Pretarget,0,10,10,10,1665.1872666769486,1667.1884690415172,left,1,4,0.9580314456252381,H09R12,2022-11-23_09h23.56.424,t1_Paradigm,2021.1.4,60.0007891805334,
D,left,Distractor,0,11,11,11,1668.6870201408747,1670.6884640690696,left,1,4,0.9941912446229253,H09R12,2022-11-23_09h23.56.424,t1_Paradigm,2021.1.4,60.0007891805334,
M,left,Pretarget,0,12,12,12,1672.1872567320825,1674.189467055432,left,1,4,1.0292211802152451,H09R12,2022-11-23_09h23.56.424,t1_Paradigm,2021.1.4,60.0007891805334,
C,left,Distractor,0,13,13,13,1675.6873621154227,1677.6888406902144,left,1,4,0.6980515470495448,H09R12,2022-11-23_09h23.56.424,t1_Paradigm,2021.1.4,60.0007891805334,
Q,right,Target,0,14,14,14,1679.1872249727312,1681.1890025346365,left,0,4,1.1978704545181245,H09R12,2022-11-23_09h23.56.424,t1_Paradigm,2021.1.4,60.0007891805334,
R,left,Distractor,0,15,15,15,1682.6872337947716,1684.6886754773732,left,1,4,0.865819900034694,H09R12,2022-11-23_09h23.56.424,t1_Paradigm,2021.1.4,60.0007891805334,
M,right,Target,0,16,16,16,1686.187254486489,1688.1881084604538,right,1,4,0.7264023924071807,H09R12,2022-11-23_09h23.56.424,t1_Paradigm,2021.1.4,60.0007891805334,
S,left,Distractor,0,17,17,17,1689.6869351284404,1691.6876142655092,left,1,4,0.8590272460132837,H09R12,2022-11-23_09h23.56.424,t1_Paradigm,2021.1.4,60.0007891805334,
Z,left,Distractor,0,18,18,18,1693.187216311082,1695.1890487300698,left,1,4,0.8616058496409096,H09R12,2022-11-23_09h23.56.424,t1_Paradigm,2021.1.4,60.0007891805334,
L,left,Pretarget,0,19,19,19,1696.687317523989,1698.6885426654771,left,1,4,0.8338837754854467,H09R12,2022-11-23_09h23.56.424,t1_Paradigm,2021.1.4,60.0007891805334,
M,right,Target,0,20,20,20,1700.1872618649213,1702.1893300731317,left,0,4,1.0931133189878892,H09R12,2022-11-23_09h23.56.424,t1_Paradigm,2021.1.4,60.0007891805334,
P,left,Distractor,0,21,21,21,1703.6872408524214,1705.6890604393266,left,1,4,0.9374927619064692,H09R12,2022-11-23_09h23.56.424,t1_Paradigm,2021.1.4,60.0007891805334,
F,left,Distractor,0,22,22,22,1707.1870129228337,1709.199833118968,left,1,4,0.8985824096307624,H09R12,2022-11-23_09h23.56.424,t1_Paradigm,2021.1.4,60.0007891805334,
L,right,Target,0,23,23,23,1710.6872158298793,1712.6896112557733,right,1,4,0.7688662645232398,H09R12,2022-11-23_09h23.56.424,t1_Paradigm,2021.1.4,60.0007891805334,
L,left,Lure,0,24,24,24,1714.187147980323,1716.1872041206225,left,1,4,0.903228259034222,H09R12,2022-11-23_09h23.56.424,t1_Paradigm,2021.1.4,60.0007891805334,
V,left,Pretarget,0,25,25,25,1717.686932882818,1719.6891085595707,left,1,4,0.9534032402734738,H09R12,2022-11-23_09h23.56.424,t1_Paradigm,2021.1.4,60.0007891805334,
Z,left,Distractor,0,26,26,26,1721.1872641105147,1723.187862726394,left,1,4,0.8945637274009641,H09R12,2022-11-23_09h23.56.424,t1_Paradigm,2021.1.4,60.0007891805334,
H,left,Distractor,0,27,27,27,1724.687013724848,1726.6876299848082,left,1,4,0.7868324398295954,H09R12,2022-11-23_09h23.56.424,t1_Paradigm,2021.1.4,60.0007891805334,
X,left,Distractor,0,28,28,28,1728.187174927676,1730.1874437594379,left,1,4,0.9830145153100602,H09R12,2022-11-23_09h23.56.424,t1_Paradigm,2021.1.4,60.0007891805334,
V,right,Target,0,29,29,29,1731.6870021759823,1733.6877974432718,left,0,4,1.2907588915841188,H09R12,2022-11-23_09h23.56.424,t1_Paradigm,2021.1.4,60.0007891805334,
C,left,Distractor,0,30,30,30,1735.1872124614601,1737.1884661543008,left,1,4,0.9263484335970134,H09R12,2022-11-23_09h23.56.424,t1_Paradigm,2021.1.4,60.0007891805334,
S,left,Pretarget,0,31,31,31,1738.6872395692044,1740.687568711699,left,1,4,0.994812316581374,H09R12,2022-11-23_09h23.56.424,t1_Paradigm,2021.1.4,60.0007891805334,
D,left,Distractor,0,32,32,32,1742.1869635193725,1744.1892562887515,left,1,4,0.8691443674615584,H09R12,2022-11-23_09h23.56.424,t1_Paradigm,2021.1.4,60.0007891805334,
V,left,Distractor,0,33,33,33,1745.6871680304466,1747.6895820627979,right,0,4,0.9847827739722561,H09R12,2022-11-23_09h23.56.424,t1_Paradigm,2021.1.4,60.0007891805334,
R,left,Distractor,0,34,34,34,1749.1872111782432,1751.1870796495932,left,1,4,0.7995442050450947,H09R12,2022-11-23_09h23.56.424,t1_Paradigm,2021.1.4,60.0007891805334,
S,right,Target,0,35,35,35,1752.6872055642307,1754.6890841786517,right,1,4,1.0256978157558478,H09R12,2022-11-23_09h23.56.424,t1_Paradigm,2021.1.4,60.0007891805334,
Y,left,Distractor,0,36,36,36,1756.1871470179176,1758.189121231262,left,1,4,1.2692898831155617,H09R12,2022-11-23_09h23.56.424,t1_Paradigm,2021.1.4,60.0007891805334,
N,left,Pretarget,0,37,37,37,1759.6867532338947,1761.6879273679224,None,0,4,,H09R12,2022-11-23_09h23.56.424,t1_Paradigm,2021.1.4,60.0007891805334,
Z,left,Pretarget,0,38,38,38,1763.1871300154307,1765.1891385545314,left,1,4,0.8134939437441062,H09R12,2022-11-23_09h23.56.424,t1_Paradigm,2021.1.4,60.0007891805334,
P,left,Pretarget,0,39,39,39,1766.687132742256,1768.68779359365,left,1,4,0.9307844787253998,H09R12,2022-11-23_09h23.56.424,t1_Paradigm,2021.1.4,60.0007891805334,
M,left,Distractor,0,40,40,40,1770.1868525220198,1772.188808128849,left,1,4,0.7735836527135689,H09R12,2022-11-23_09h23.56.424,t1_Paradigm,2021.1.4,60.0007891805334,
N,right,Target,0,41,41,41,1773.6870031383878,1775.7000049082562,right,1,4,1.1345894428668544,H09R12,2022-11-23_09h23.56.424,t1_Paradigm,2021.1.4,60.0007891805334,
Z,right,Target,0,42,42,42,1777.1868701661006,1779.1890509756922,right,1,4,0.8774617917370051,H09R12,2022-11-23_09h23.56.424,t1_Paradigm,2021.1.4,60.0007891805334,
P,right,Target,0,43,43,43,1780.6869607925764,1782.688693763048,right,1,4,0.6897716565872543,H09R12,2022-11-23_09h23.56.424,t1_Paradigm,2021.1.4,60.0007891805334,
X,left,Pretarget,0,44,44,44,1784.1867248429626,1786.1886448408186,right,0,4,1.1417025777336676,H09R12,2022-11-23_09h23.56.424,t1_Paradigm,2021.1.4,60.0007891805334,
Z,left,Lure,0,45,45,45,1787.6868828377628,1789.6894316068501,left,1,4,0.7130233597999904,H09R12,2022-11-23_09h23.56.424,t1_Paradigm,2021.1.4,60.0007891805334,
R,left,Pretarget,0,46,46,46,1791.186806647369,1793.1886499736283,left,1,4,0.8299603713676333,H09R12,2022-11-23_09h23.56.424,t1_Paradigm,2021.1.4,60.0007891805334,
K,left,Distractor,0,47,47,47,1794.6871205517964,1796.689246183494,left,1,4,0.8011161330796313,H09R12,2022-11-23_09h23.56.424,t1_Paradigm,2021.1.4,60.0007891805334,
X,right,Target,0,48,48,48,1798.1871537547559,1800.188583246898,right,1,4,0.7418230066541582,H09R12,2022-11-23_09h23.56.424,t1_Paradigm,2021.1.4,60.0007891805334,
B,left,Distractor,0,49,49,49,1801.6871535943646,1803.6885279086127,left,1,4,0.5539060647715814,H09R12,2022-11-23_09h23.56.424,t1_Paradigm,2021.1.4,60.0007891805334,
R,right,Target,0,50,50,50,1805.1869705770223,1807.188834434579,right,1,4,0.7335164896794595,H09R12,2022-11-23_09h23.56.424,t1_Paradigm,2021.1.4,60.0007891805334,
Y,left,Pretarget,0,51,51,51,1808.6871436494985,1810.6885779536678,left,1,4,0.6098233954980969,H09R12,2022-11-23_09h23.56.424,t1_Paradigm,2021.1.4,60.0007891805334,
W,left,Pretarget,0,52,52,52,1812.1870119604282,1814.18896275523,left,1,4,0.7414569719985593,H09R12,2022-11-23_09h23.56.424,t1_Paradigm,2021.1.4,60.0007891805334,
Z,left,Distractor,0,53,53,53,1815.686894065817,1817.6885282293952,left,1,4,1.4497809085005429,H09R12,2022-11-23_09h23.56.424,t1_Paradigm,2021.1.4,60.0007891805334,
Q,left,Distractor,0,54,54,54,1819.1868214042624,1821.1889964394213,left,1,4,0.9894180369446985,H09R12,2022-11-23_09h23.56.424,t1_Paradigm,2021.1.4,60.0007891805334,
Y,right,Target,0,55,55,55,1822.6867400810297,1824.6877380949445,right,1,4,1.1546613601676654,H09R12,2022-11-23_09h23.56.424,t1_Paradigm,2021.1.4,60.0007891805334,
W,right,Target,0,56,56,56,1826.187163699622,1828.189440108079,right,1,4,1.1409910396905616,H09R12,2022-11-23_09h23.56.424,t1_Paradigm,2021.1.4,60.0007891805334,
H,left,Pretarget,0,57,57,57,1829.6869607925764,1831.6891181836254,left,1,4,0.8092410763492808,H09R12,2022-11-23_09h23.56.424,t1_Paradigm,2021.1.4,60.0007891805334,
M,left,Distractor,0,58,58,58,1833.1871447723242,1835.1883253223787,left,1,4,0.9263663984602317,H09R12,2022-11-23_09h23.56.424,t1_Paradigm,2021.1.4,60.0007891805334,
R,left,Pretarget,0,59,59,59,1836.686984852684,1838.6892038376827,left,1,4,0.8170959046401549,H09R12,2022-11-23_09h23.56.424,t1_Paradigm,2021.1.4,60.0007891805334,
J,left,Distractor,0,60,60,60,1840.1870607222954,1842.1890753566113,left,1,4,0.7892849684285466,H09R12,2022-11-23_09h23.56.424,t1_Paradigm,2021.1.4,60.0007891805334,
H,right,Target,0,61,61,61,1843.6867227577604,1845.688839086215,right,1,4,0.7777582445123699,H09R12,2022-11-23_09h23.56.424,t1_Paradigm,2021.1.4,60.0007891805334,
Z,left,Distractor,0,62,62,62,1847.1867319006124,1849.188950885582,left,1,4,0.5735144237114582,H09R12,2022-11-23_09h23.56.424,t1_Paradigm,2021.1.4,60.0007891805334,
R,right,Target,0,63,63,63,1850.6867266073823,1852.6885423446947,right,1,4,0.609802222577855,H09R12,2022-11-23_09h23.56.424,t1_Paradigm,2021.1.4,60.0007891805334,
J,left,Pretarget,0,0,0,0,1871.280941078032,1873.271012267127,None,0,4,,H09R12,2022-11-23_09h23.56.424,t1_Paradigm,2021.1.4,60.0007891805334,
G,left,Pretarget,0,1,1,1,1874.7701427342545,1876.7712642568222,None,0,4,,H09R12,2022-11-23_09h23.56.424,t1_Paradigm,2021.1.4,60.0007891805334,
Z,left,Distractor,0,2,2,2,1878.2703956863552,1880.2715884268691,None,0,4,,H09R12,2022-11-23_09h23.56.424,t1_Paradigm,2021.1.4,60.0007891805334,
F,left,Distractor,0,3,3,3,1881.7699877870618,1883.7717634241853,None,0,4,,H09R12,2022-11-23_09h23.56.424,t1_Paradigm,2021.1.4,60.0007891805334,
J,right,Target,0,4,4,4,1885.2703183731646,1887.2720266419346,right,1,4,0.53806102994713,H09R12,2022-11-23_09h23.56.424,t1_Paradigm,2021.1.4,60.0007891805334,
G,right,Target,0,5,5,5,1888.769454614725,1890.7708199465415,right,1,4,1.1194241867342498,H09R12,2022-11-23_09h23.56.424,t1_Paradigm,2021.1.4,60.0007891805334,
H,left,Distractor,0,6,6,6,1892.2702862930018,1894.2726441850828,left,1,4,0.7376686253701337,H09R12,2022-11-23_09h23.56.424,t1_Paradigm,2021.1.4,60.0007891805334,
P,left,Distractor,0,7,7,7,1895.770290303015,1897.7723758345237,left,1,4,0.6460826429829467,H09R12,2022-11-23_09h23.56.424,t1_Paradigm,2021.1.4,60.0007891805334,
G,left,Lure,0,8,8,8,1899.2700524285901,1901.272731763951,left,1,4,0.9376445011002943,H09R12,2022-11-23_09h23.56.424,t1_Paradigm,2021.1.4,60.0007891805334,
S,left,Distractor,0,9,9,9,1902.7702700925292,1904.771679694939,left,1,4,0.638665708975168,H09R12,2022-11-23_09h23.56.424,t1_Paradigm,2021.1.4,60.0007891805334,
R,left,Pretarget,0,10,10,10,1906.2700553158065,1908.270388949517,left,1,4,0.8039282803074457,H09R12,2022-11-23_09h23.56.424,t1_Paradigm,2021.1.4,60.0007891805334,
T,left,Pretarget,0,11,11,11,1909.7704721975606,1911.7709777809505,left,1,4,0.6634325583581813,H09R12,2022-11-23_09h23.56.424,t1_Paradigm,2021.1.4,60.0007891805334,
X,left,Distractor,0,12,12,12,1913.2702840473794,1915.272734330356,left,1,4,0.8576400996826123,H09R12,2022-11-23_09h23.56.424,t1_Paradigm,2021.1.4,60.0007891805334,
F,left,Pretarget,0,13,13,13,1916.7703952051525,1918.770976176922,left,1,4,0.6393172570969909,H09R12,2022-11-23_09h23.56.424,t1_Paradigm,2021.1.4,60.0007891805334,
R,right,Target,0,14,14,14,1920.2702112254046,1922.2709522772057,right,1,4,0.5794200611999258,H09R12,2022-11-23_09h23.56.424,t1_Paradigm,2021.1.4,60.0007891805334,
T,right,Target,0,15,15,15,1923.770258864446,1925.7706361271848,right,1,4,1.4159071420435794,H09R12,2022-11-23_09h23.56.424,t1_Paradigm,2021.1.4,60.0007891805334,
C,left,Distractor,0,16,16,16,1927.2703478869225,1929.2717979103618,left,1,4,0.6343291123339441,H09R12,2022-11-23_09h23.56.424,t1_Paradigm,2021.1.4,60.0007891805334,
F,right,Target,0,17,17,17,1930.7701821928786,1932.7720771681925,left,0,4,1.4382638086681254,H09R12,2022-11-23_09h23.56.424,t1_Paradigm,2021.1.4,60.0007891805334,
M,left,Distractor,0,18,18,18,1934.2702054509718,1936.2724395136465,left,1,4,0.5619267474976368,H09R12,2022-11-23_09h23.56.424,t1_Paradigm,2021.1.4,60.0007891805334,
N,left,Distractor,0,19,19,19,1937.7700355865236,1939.7722420602222,left,1,4,0.581967547070235,H09R12,2022-11-23_09h23.56.424,t1_Paradigm,2021.1.4,60.0007891805334,
R,left,Lure,0,20,20,20,1941.2702718569199,1943.2714617102174,left,1,4,0.7309314700542018,H09R12,2022-11-23_09h23.56.424,t1_Paradigm,2021.1.4,60.0007891805334,
F,right,Target,0,21,21,21,1944.7702149146353,1946.77081962573,right,1,4,0.7996000245038886,H09R12,2022-11-23_09h23.56.424,t1_Paradigm,2021.1.4,60.0007891805334,
P,left,Distractor,0,22,22,22,1948.2702465135953,1950.2717154643324,left,1,4,0.6263215824728832,H09R12,2022-11-23_09h23.56.424,t1_Paradigm,2021.1.4,60.0007891805334,
L,left,Pretarget,0,23,23,23,1951.7704301725316,1953.7723033333314,left,1,4,0.7259895206952933,H09R12,2022-11-23_09h23.56.424,t1_Paradigm,2021.1.4,60.0007891805334,
T,left,Distractor,0,24,24,24,1955.270215395838,1957.2725934984337,left,1,4,1.0015610208211,H09R12,2022-11-23_09h23.56.424,t1_Paradigm,2021.1.4,60.0007891805334,
F,left,Distractor,0,25,25,25,1958.7701629447693,1960.7721586517873,right,0,4,0.6860615855839569,H09R12,2022-11-23_09h23.56.424,t1_Paradigm,2021.1.4,60.0007891805334,
V,left,Distractor,0,26,26,26,1962.2702080174058,1964.270613831468,left,1,4,0.5798303665069398,H09R12,2022-11-23_09h23.56.424,t1_Paradigm,2021.1.4,60.0007891805334,
L,right,Target,0,27,27,27,1965.7702585436637,1967.771279976092,right,1,4,0.5029075857019052,H09R12,2022-11-23_09h23.56.424,t1_Paradigm,2021.1.4,60.0007891805334,
S,left,Pretarget,0,28,28,28,1969.2700764887268,1971.2718136296317,left,1,4,0.7786141433170997,H09R12,2022-11-23_09h23.56.424,t1_Paradigm,2021.1.4,60.0007891805334,
W,left,Distractor,0,29,29,29,1972.7701667943911,1974.7720062710287,left,1,4,1.0062909202533774,H09R12,2022-11-23_09h23.56.424,t1_Paradigm,2021.1.4,60.0007891805334,
Q,left,Distractor,0,30,30,30,1976.2701531603234,1978.271673118521,left,1,4,0.898502209194703,H09R12,2022-11-23_09h23.56.424,t1_Paradigm,2021.1.4,60.0007891805334,
L,right,Target,0,31,31,31,1979.77004713536,1981.7714166375808,right,1,4,0.4707895666360855,H09R12,2022-11-23_09h23.56.424,t1_Paradigm,2021.1.4,60.0007891805334,
S,right,Target,0,32,32,32,1983.2701881277026,1985.2710125879094,right,1,4,0.6829709825105965,H09R12,2022-11-23_09h23.56.424,t1_Paradigm,2021.1.4,60.0007891805334,
Z,left,Pretarget,0,33,33,33,1986.7700638170645,1988.7722876140615,left,1,4,0.7978497307340149,H09R12,2022-11-23_09h23.56.424,t1_Paradigm,2021.1.4,60.0007891805334,
F,left,Distractor,0,34,34,34,1990.2699395064265,1992.2723766365089,left,1,4,0.9619041630649008,H09R12,2022-11-23_09h23.56.424,t1_Paradigm,2021.1.4,60.0007891805334,
V,left,Distractor,0,35,35,35,1993.770185721689,1995.7720415591903,left,1,4,0.8701346821617335,H09R12,2022-11-23_09h23.56.424,t1_Paradigm,2021.1.4,60.0007891805334,
M,left,Distractor,0,36,36,36,1997.2700649398612,1999.2710408184794,left,1,4,0.8752668668748811,H09R12,2022-11-23_09h23.56.424,t1_Paradigm,2021.1.4,60.0007891805334,
Z,right,Target,0,37,37,37,2000.7702030449582,2002.7707772799185,right,1,4,0.8635569652542472,H09R12,2022-11-23_09h23.56.424,t1_Paradigm,2021.1.4,60.0007891805334,
H,left,Pretarget,0,38,38,38,2004.270148348296,2006.272203724424,left,1,4,0.6101413099095225,H09R12,2022-11-23_09h23.56.424,t1_Paradigm,2021.1.4,60.0007891805334,
L,left,Distractor,0,39,39,39,2007.7701388846326,2009.771760536969,left,1,4,0.8703954938682728,H09R12,2022-11-23_09h23.56.424,t1_Paradigm,2021.1.4,60.0007891805334,
G,left,Distractor,0,40,40,40,2011.2701971101342,2013.2725184308365,left,1,4,0.777476580668008,H09R12,2022-11-23_09h23.56.424,t1_Paradigm,2021.1.4,60.0007891805334,
K,left,Distractor,0,41,41,41,2014.7701629447693,2016.7715151236916,left,1,4,0.6546650493983179,H09R12,2022-11-23_09h23.56.424,t1_Paradigm,2021.1.4,60.0007891805334,
H,right,Target,0,42,42,42,2018.270320618787,2020.2706070946297,right,1,4,0.5160075208696071,H09R12,2022-11-23_09h23.56.424,t1_Paradigm,2021.1.4,60.0007891805334,
B,left,Distractor,0,43,43,43,2021.7700015815499,2023.7708494602994,left,1,4,0.9832596077467315,H09R12,2022-11-23_09h23.56.424,t1_Paradigm,2021.1.4,60.0007891805334,
Z,left,Distractor,0,44,44,44,2025.2701958269463,2027.2721543209627,left,1,4,0.8900965644861571,H09R12,2022-11-23_09h23.56.424,t1_Paradigm,2021.1.4,60.0007891805334,
T,left,Pretarget,0,45,45,45,2028.7701504334982,2030.7725702403113,left,1,4,0.7655308898538351,H09R12,2022-11-23_09h23.56.424,t1_Paradigm,2021.1.4,60.0007891805334,
H,right,Target,0,46,46,46,2032.2702137918386,2034.2702737817308,left,0,4,0.771864797512535,H09R12,2022-11-23_09h23.56.424,t1_Paradigm,2021.1.4,60.0007891805334,
F,left,Distractor,0,47,47,47,2035.7699922782776,2037.7705937813735,left,1,4,0.6956821061030496,H09R12,2022-11-23_09h23.56.424,t1_Paradigm,2021.1.4,60.0007891805334,
R,left,Distractor,0,48,48,48,2039.2698448699375,2041.2701464234851,left,1,4,0.8118867275188677,H09R12,2022-11-23_09h23.56.424,t1_Paradigm,2021.1.4,60.0007891805334,
T,right,Target,0,49,49,49,2042.769968859764,2044.7721198347863,right,1,4,0.765953064779751,H09R12,2022-11-23_09h23.56.424,t1_Paradigm,2021.1.4,60.0007891805334,
H,right,Target,0,50,50,50,2046.270093170402,2048.2704755659797,right,1,4,1.011557200079551,H09R12,2022-11-23_09h23.56.424,t1_Paradigm,2021.1.4,60.0007891805334,
Y,left,Pretarget,0,51,51,51,2049.7699191355205,2051.7707102323766,left,1,4,0.7593945959815755,H09R12,2022-11-23_09h23.56.424,t1_Paradigm,2021.1.4,60.0007891805334,
H,left,Distractor,0,52,52,52,2053.2699994963186,2055.2709798661526,left,1,4,1.083086663595168,H09R12,2022-11-23_09h23.56.424,t1_Paradigm,2021.1.4,60.0007891805334,
S,left,Distractor,0,53,53,53,2056.7701552455255,2058.771608797775,left,1,4,0.8466965931875166,H09R12,2022-11-23_09h23.56.424,t1_Paradigm,2021.1.4,60.0007891805334,
Q,left,Distractor,0,54,54,54,2060.2701717668097,2062.2725598142424,left,1,4,0.8015274007921107,H09R12,2022-11-23_09h23.56.424,t1_Paradigm,2021.1.4,60.0007891805334,
Y,right,Target,0,55,55,55,2063.770152358309,2065.769998373522,right,1,4,1.0002268067619298,H09R12,2022-11-23_09h23.56.424,t1_Paradigm,2021.1.4,60.0007891805334,
R,left,Distractor,0,56,56,56,2067.2700623734563,2069.2706590644957,left,1,4,0.891576101683313,H09R12,2022-11-23_09h23.56.424,t1_Paradigm,2021.1.4,60.0007891805334,
H,left,Pretarget,0,57,57,57,2070.7702729797165,2072.77040354599,left,1,4,0.9596787620685063,H09R12,2022-11-23_09h23.56.424,t1_Paradigm,2021.1.4,60.0007891805334,
J,left,Distractor,0,58,58,58,2074.2698560979916,2076.272127373639,left,1,4,0.9301008504116908,H09R12,2022-11-23_09h23.56.424,t1_Paradigm,2021.1.4,60.0007891805334,
V,left,Distractor,0,59,59,59,2077.770088518795,2079.7709732897347,left,1,4,1.2392047840403393,H09R12,2022-11-23_09h23.56.424,t1_Paradigm,2021.1.4,60.0007891805334,
Y,left,Lure,0,60,60,60,2081.270028047671,2083.271922381391,right,0,4,1.0501230114023201,H09R12,2022-11-23_09h23.56.424,t1_Paradigm,2021.1.4,60.0007891805334,
H,right,Target,0,61,61,61,2084.7702145938238,2086.7716700708843,right,1,4,1.4225316960073542,H09R12,2022-11-23_09h23.56.424,t1_Paradigm,2021.1.4,60.0007891805334,
L,left,Distractor,0,62,62,62,2088.2701406490523,2090.2716266022762,left,1,4,0.8024535551376175,H09R12,2022-11-23_09h23.56.424,t1_Paradigm,2021.1.4,60.0007891805334,
P,left,Distractor,0,63,63,63,2091.7701440174715,2093.772050541651,left,1,4,0.8700320256466512,H09R12,2022-11-23_09h23.56.424,t1_Paradigm,2021.1.4,60.0007891805334,
