Letter,CorrAnswer,Stimulus,nback_run.thisRepN,nback_run.thisTrialN,nback_run.thisN,nback_run.thisIndex,fixcross.started,nback_trial.started,trial_resp.keys,trial_resp.corr,currentlevel,trial_resp.rt,Participant,date,expName,psychopyVersion,frameRate,
H,left,Distractor,0,0,0,0,217.39967355152476,219.33534850686556,None,0,1,,H10K03,2022-09-21_10h40.24.246,t1_Paradigm,2021.1.4,60.037056303033175,
Q,left,Pretarget,0,1,1,1,220.83743660946493,222.83628557057818,left,1,1,0.859988053329289,H10K03,2022-09-21_10h40.24.246,t1_Paradigm,2021.1.4,60.037056303033175,
Q,right,Target,0,2,2,2,224.33402359308093,226.33404989889823,right,1,1,0.9142976481234655,H10K03,2022-09-21_10h40.24.246,t1_Paradigm,2021.1.4,60.037056303033175,
T,left,Distractor,0,3,3,3,227.8333030709764,229.8355964871007,left,1,1,0.7886878028220963,H10K03,2022-09-21_10h40.24.246,t1_Paradigm,2021.1.4,60.037056303033175,
Q,left,Lure,0,4,4,4,231.33413330750773,233.3348794938065,left,1,1,1.0493968273804057,H10K03,2022-09-21_10h40.24.246,t1_Paradigm,2021.1.4,60.037056303033175,
L,left,Distractor,0,5,5,5,234.83414710199577,236.83559103345033,left,1,1,0.6047137416317128,H10K03,2022-09-21_10h40.24.246,t1_Paradigm,2021.1.4,60.037056303033175,
V,left,Pretarget,0,6,6,6,238.33386190870078,240.3357193543925,left,1,1,0.5925912618404254,H10K03,2022-09-21_10h40.24.246,t1_Paradigm,2021.1.4,60.037056303033175,
V,right,Target,0,7,7,7,241.83404316203087,243.8338651167287,right,1,1,0.5183364215772599,H10K03,2022-09-21_10h40.24.246,t1_Paradigm,2021.1.4,60.037056303033175,
K,left,Distractor,0,8,8,8,245.33402487629792,247.33559841191163,left,1,1,0.760630748787662,H10K03,2022-09-21_10h40.24.246,t1_Paradigm,2021.1.4,60.037056303033175,
G,left,Pretarget,0,9,9,9,248.8340964152303,250.8355393842794,left,1,1,0.6046944934932981,H10K03,2022-09-21_10h40.24.246,t1_Paradigm,2021.1.4,60.037056303033175,
G,right,Target,0,10,10,10,252.33367744734278,254.33397194391,right,1,1,0.6903397425485309,H10K03,2022-09-21_10h40.24.246,t1_Paradigm,2021.1.4,60.037056303033175,
G,right,Target,0,11,11,11,255.83415319724008,257.8341390819405,right,1,1,0.6622053751198109,H10K03,2022-09-21_10h40.24.246,t1_Paradigm,2021.1.4,60.037056303033175,
P,left,Pretarget,0,12,12,12,259.3341021896631,261.33605555526447,left,1,1,0.40832462889375165,H10K03,2022-09-21_10h40.24.246,t1_Paradigm,2021.1.4,60.037056303033175,
P,right,Target,0,13,13,13,262.8342895382666,264.8340614477638,left,0,1,0.6222064530011266,H10K03,2022-09-21_10h40.24.246,t1_Paradigm,2021.1.4,60.037056303033175,
G,left,Lure,0,14,14,14,266.3342385306896,268.3349612984166,left,1,1,0.8172260604333133,H10K03,2022-09-21_10h40.24.246,t1_Paradigm,2021.1.4,60.037056303033175,
Y,left,Distractor,0,15,15,15,269.8341955431679,271.8355756349338,left,1,1,0.6129147332976572,H10K03,2022-09-21_10h40.24.246,t1_Paradigm,2021.1.4,60.037056303033175,
B,left,Distractor,0,16,16,16,273.33375026949216,275.3347091477481,left,1,1,0.6174739765119739,H10K03,2022-09-21_10h40.24.246,t1_Paradigm,2021.1.4,60.037056303033175,
T,left,Pretarget,0,17,17,17,276.83413042029133,278.83547586540226,left,1,1,0.5088358595385216,H10K03,2022-09-21_10h40.24.246,t1_Paradigm,2021.1.4,60.037056303033175,
T,right,Target,0,18,18,18,280.3341548012686,282.33410026485217,left,0,1,1.0902230988140218,H10K03,2022-09-21_10h40.24.246,t1_Paradigm,2021.1.4,60.037056303033175,
S,left,Distractor,0,19,19,19,283.83379710663576,285.836021229421,left,1,1,0.6608259249478579,H10K03,2022-09-21_10h40.24.246,t1_Paradigm,2021.1.4,60.037056303033175,
T,left,Lure,0,20,20,20,287.33417918224586,289.33571999601554,left,1,1,0.7606281823536847,H10K03,2022-09-21_10h40.24.246,t1_Paradigm,2021.1.4,60.037056303033175,
J,left,Distractor,0,21,21,21,290.83412496664096,292.8338750615949,left,1,1,0.6384303910308518,H10K03,2022-09-21_10h40.24.246,t1_Paradigm,2021.1.4,60.037056303033175,
P,left,Distractor,0,22,22,22,294.33410154806916,296.33584190090187,left,1,1,0.8006348037160933,H10K03,2022-09-21_10h40.24.246,t1_Paradigm,2021.1.4,60.037056303033175,
F,left,Distractor,0,23,23,23,297.83416763335117,299.8358364472515,left,1,1,0.5484674629406072,H10K03,2022-09-21_10h40.24.246,t1_Paradigm,2021.1.4,60.037056303033175,
L,left,Distractor,0,24,24,24,301.33415544286254,303.33551372008515,left,1,1,0.6007518324186094,H10K03,2022-09-21_10h40.24.246,t1_Paradigm,2021.1.4,60.037056303033175,
W,left,Pretarget,0,25,25,25,304.8338959137618,306.83560033672256,left,1,1,0.700698450935306,H10K03,2022-09-21_10h40.24.246,t1_Paradigm,2021.1.4,60.037056303033175,
W,right,Target,0,26,26,26,308.3341942599509,310.3341692373797,right,1,1,0.5780252304393798,H10K03,2022-09-21_10h40.24.246,t1_Paradigm,2021.1.4,60.037056303033175,
V,left,Distractor,0,27,27,27,311.834157688485,313.8354630333197,left,1,1,0.5168369913299102,H10K03,2022-09-21_10h40.24.246,t1_Paradigm,2021.1.4,60.037056303033175,
W,left,Lure,0,28,28,28,315.33433412978775,317.3341111721529,left,1,1,0.714294696750585,H10K03,2022-09-21_10h40.24.246,t1_Paradigm,2021.1.4,60.037056303033175,
R,left,Pretarget,0,29,29,29,318.83421254568384,320.8357504722371,left,1,1,0.7485464444907848,H10K03,2022-09-21_10h40.24.246,t1_Paradigm,2021.1.4,60.037056303033175,
R,right,Target,0,30,30,30,322.3342269817949,324.33418335267925,right,1,1,0.5620829569234047,H10K03,2022-09-21_10h40.24.246,t1_Paradigm,2021.1.4,60.037056303033175,
G,left,Distractor,0,31,31,31,325.83423018982285,327.8347678545688,left,1,1,0.8695858184946701,H10K03,2022-09-21_10h40.24.246,t1_Paradigm,2021.1.4,60.037056303033175,
R,left,Lure,0,32,32,32,329.3342077336565,331.33578736448544,left,1,1,0.9683223704341799,H10K03,2022-09-21_10h40.24.246,t1_Paradigm,2021.1.4,60.037056303033175,
S,left,Distractor,0,33,33,33,332.83417180378456,334.8354585420748,left,1,1,0.6529922519694082,H10K03,2022-09-21_10h40.24.246,t1_Paradigm,2021.1.4,60.037056303033175,
R,left,Lure,0,34,34,34,336.3341493476182,338.335333108349,left,1,1,0.673126129200682,H10K03,2022-09-21_10h40.24.246,t1_Paradigm,2021.1.4,60.037056303033175,
P,left,Pretarget,0,35,35,35,339.83426098685595,341.8349484663049,left,1,1,0.6773135625116993,H10K03,2022-09-21_10h40.24.246,t1_Paradigm,2021.1.4,60.037056303033175,
P,right,Target,0,36,36,36,343.33414421477937,345.33416699175723,right,1,1,0.7143479499500245,H10K03,2022-09-21_10h40.24.246,t1_Paradigm,2021.1.4,60.037056303033175,
Y,left,Pretarget,0,37,37,37,346.8342443051224,348.83577292840346,left,1,1,0.5886322398728225,H10K03,2022-09-21_10h40.24.246,t1_Paradigm,2021.1.4,60.037056303033175,
Y,right,Target,0,38,38,38,350.33416699175723,352.33420420481707,right,1,1,0.6742296893789899,H10K03,2022-09-21_10h40.24.246,t1_Paradigm,2021.1.4,60.037056303033175,
J,left,Distractor,0,39,39,39,353.8343216184876,355.8349612984166,left,1,1,1.045809294533683,H10K03,2022-09-21_10h40.24.246,t1_Paradigm,2021.1.4,60.037056303033175,
Y,left,Lure,0,40,40,40,357.33391676589963,359.3361963875068,left,1,1,1.0805983862373978,H10K03,2022-09-21_10h40.24.246,t1_Paradigm,2021.1.4,60.037056303033175,
T,left,Distractor,0,41,41,41,360.83433284657076,362.83411309696385,left,1,1,0.6062606506457087,H10K03,2022-09-21_10h40.24.246,t1_Paradigm,2021.1.4,60.037056303033175,
V,left,Distractor,0,42,42,42,364.3340463700588,366.3348326566629,left,1,1,0.5295969053986482,H10K03,2022-09-21_10h40.24.246,t1_Paradigm,2021.1.4,60.037056303033175,
N,left,Pretarget,0,43,43,43,367.8341737285955,369.83576105869724,left,1,1,0.6447258166444954,H10K03,2022-09-21_10h40.24.246,t1_Paradigm,2021.1.4,60.037056303033175,
N,right,Target,0,44,44,44,371.3339469213388,373.3342895382666,right,1,1,0.7142295738740359,H10K03,2022-09-21_10h40.24.246,t1_Paradigm,2021.1.4,60.037056303033175,
N,right,Target,0,45,45,45,374.83418078624527,376.83376598879113,right,1,1,0.6866065654030535,H10K03,2022-09-21_10h40.24.246,t1_Paradigm,2021.1.4,60.037056303033175,
X,left,Distractor,0,46,46,46,378.33441304715234,380.3360209086095,left,1,1,0.5125084050232545,H10K03,2022-09-21_10h40.24.246,t1_Paradigm,2021.1.4,60.037056303033175,
Z,left,Distractor,0,47,47,47,381.8339174075227,383.83653547562426,left,1,1,0.65982534235809,H10K03,2022-09-21_10h40.24.246,t1_Paradigm,2021.1.4,60.037056303033175,
H,left,Pretarget,0,48,48,48,385.3338962345442,387.3357369985315,left,1,1,0.6005628798156977,H10K03,2022-09-21_10h40.24.246,t1_Paradigm,2021.1.4,60.037056303033175,
H,right,Target,0,49,49,49,388.8342160745233,390.8342853678332,right,1,1,0.6380678843415808,H10K03,2022-09-21_10h40.24.246,t1_Paradigm,2021.1.4,60.037056303033175,
K,left,Distractor,0,50,50,50,392.33428280139924,394.3340248762979,left,1,1,0.5145474248565733,H10K03,2022-09-21_10h40.24.246,t1_Paradigm,2021.1.4,60.037056303033175,
V,left,Pretarget,0,51,51,51,395.8340608061699,397.8364495005808,left,1,1,0.6921115340082906,H10K03,2022-09-21_10h40.24.246,t1_Paradigm,2021.1.4,60.037056303033175,
V,right,Target,0,52,52,52,399.33429338788847,401.3342587412335,right,1,1,0.538159120536875,H10K03,2022-09-21_10h40.24.246,t1_Paradigm,2021.1.4,60.037056303033175,
R,left,Distractor,0,53,53,53,402.83432226011064,404.8353754542477,left,1,1,0.7971467195893638,H10K03,2022-09-21_10h40.24.246,t1_Paradigm,2021.1.4,60.037056303033175,
V,left,Lure,0,54,54,54,406.3338449061848,408.3357443769928,left,1,1,1.0407184817886446,H10K03,2022-09-21_10h40.24.246,t1_Paradigm,2021.1.4,60.037056303033175,
Y,left,Distractor,0,55,55,55,409.83435626514256,411.8341926559515,left,1,1,0.6781992978358176,H10K03,2022-09-21_10h40.24.246,t1_Paradigm,2021.1.4,60.037056303033175,
Q,left,Distractor,0,56,56,56,413.33388949770597,415.3354954343522,left,1,1,0.6490758966829162,H10K03,2022-09-21_10h40.24.246,t1_Paradigm,2021.1.4,60.037056303033175,
Z,left,Pretarget,0,57,57,57,416.83425360839465,418.8350392533757,left,1,1,0.5254729910229798,H10K03,2022-09-21_10h40.24.246,t1_Paradigm,2021.1.4,60.037056303033175,
Z,right,Target,0,58,58,58,420.3343010871322,422.3342892174551,left,0,1,1.3303366115142126,H10K03,2022-09-21_10h40.24.246,t1_Paradigm,2021.1.4,60.037056303033175,
B,left,Distractor,0,59,59,59,423.8343293177604,425.8359298007563,left,1,1,0.7246161920484155,H10K03,2022-09-21_10h40.24.246,t1_Paradigm,2021.1.4,60.037056303033175,
S,left,Pretarget,0,60,60,60,427.3340274427319,429.33623071337934,left,1,1,0.5683337909867987,H10K03,2022-09-21_10h40.24.246,t1_Paradigm,2021.1.4,60.037056303033175,
S,right,Target,0,61,61,61,430.8338346405071,432.8343293177604,right,1,1,0.6060838885314297,H10K03,2022-09-21_10h40.24.246,t1_Paradigm,2021.1.4,60.037056303033175,
T,left,Distractor,0,62,62,62,434.3340389915975,436.3350739000307,left,1,1,0.5773165780410636,H10K03,2022-09-21_10h40.24.246,t1_Paradigm,2021.1.4,60.037056303033175,
D,left,Distractor,0,63,63,63,437.83437679649796,439.8357094095263,left,1,1,0.5488344608456828,H10K03,2022-09-21_10h40.24.246,t1_Paradigm,2021.1.4,60.037056303033175,
R,left,Distractor,0,0,0,0,465.14071771188173,467.135869746533,left,1,1,0.944942614849424,H10K03,2022-09-21_10h40.24.246,t1_Paradigm,2021.1.4,60.037056303033175,
V,left,Distractor,0,1,1,1,468.6338766014378,470.63559834775515,left,1,1,0.9652336853032466,H10K03,2022-09-21_10h40.24.246,t1_Paradigm,2021.1.4,60.037056303033175,
N,left,Pretarget,0,2,2,2,472.13432508317055,474.1350119210256,left,1,1,0.6495022430317476,H10K03,2022-09-21_10h40.24.246,t1_Paradigm,2021.1.4,60.037056303033175,
N,right,Target,0,3,3,3,475.63430711822,477.63430775984307,right,1,1,0.7340102477173787,H10K03,2022-09-21_10h40.24.246,t1_Paradigm,2021.1.4,60.037056303033175,
S,left,Distractor,0,4,4,4,479.13429460691987,481.1350738358742,left,1,1,0.8815995462646242,H10K03,2022-09-21_10h40.24.246,t1_Paradigm,2021.1.4,60.037056303033175,
N,left,Lure,0,5,5,5,482.63437480753055,484.63574912486365,left,1,1,0.9652914296893869,H10K03,2022-09-21_10h40.24.246,t1_Paradigm,2021.1.4,60.037056303033175,
Z,left,Distractor,0,6,6,6,486.1338782054663,488.1356166334881,left,1,1,0.697046757559292,H10K03,2022-09-21_10h40.24.246,t1_Paradigm,2021.1.4,60.037056303033175,
L,left,Pretarget,0,7,7,7,489.6345230182051,491.63600512515404,left,1,1,0.5245513258269057,H10K03,2022-09-21_10h40.24.246,t1_Paradigm,2021.1.4,60.037056303033175,
L,right,Target,0,8,8,8,493.1341688524117,495.1344793890894,right,1,1,0.6101170158653986,H10K03,2022-09-21_10h40.24.246,t1_Paradigm,2021.1.4,60.037056303033175,
H,left,Distractor,0,9,9,9,496.6343010229757,498.6342160103668,left,1,1,0.5342905648285523,H10K03,2022-09-21_10h40.24.246,t1_Paradigm,2021.1.4,60.037056303033175,
L,left,Lure,0,10,10,10,500.13434112328105,502.135886107455,left,1,1,0.6648523154435679,H10K03,2022-09-21_10h40.24.246,t1_Paradigm,2021.1.4,60.037056303033175,
X,left,Pretarget,0,11,11,11,503.6345114693395,505.6505461339548,left,1,1,1.0059803976910189,H10K03,2022-09-21_10h40.24.246,t1_Paradigm,2021.1.4,60.037056303033175,
X,right,Target,0,12,12,12,507.13430006057024,509.13440849178005,right,1,1,0.8821981634828262,H10K03,2022-09-21_10h40.24.246,t1_Paradigm,2021.1.4,60.037056303033175,
X,right,Target,0,13,13,13,510.6342641306983,512.6344768226845,right,1,1,0.710106301063206,H10K03,2022-09-21_10h40.24.246,t1_Paradigm,2021.1.4,60.037056303033175,
R,left,Distractor,0,14,14,14,514.1344902963901,516.1358440823678,left,1,1,0.728738502424676,H10K03,2022-09-21_10h40.24.246,t1_Paradigm,2021.1.4,60.037056303033175,
T,left,Distractor,0,15,15,15,517.6343857148022,519.6360651151917,left,1,1,0.9085790251847357,H10K03,2022-09-21_10h40.24.246,t1_Paradigm,2021.1.4,60.037056303033175,
V,left,Pretarget,0,16,16,16,521.1344007925072,523.1356474305212,left,1,1,0.5930391019501258,H10K03,2022-09-21_10h40.24.246,t1_Paradigm,2021.1.4,60.037056303033175,
V,right,Target,0,17,17,17,524.6344258151075,526.6344851635513,right,1,1,0.6464636030723341,H10K03,2022-09-21_10h40.24.246,t1_Paradigm,2021.1.4,60.037056303033175,
N,left,Distractor,0,18,18,18,528.1341871381446,530.1356900972314,left,1,1,1.1451893760531675,H10K03,2022-09-21_10h40.24.246,t1_Paradigm,2021.1.4,60.037056303033175,
B,left,Distractor,0,19,19,19,531.6343963012914,533.6363127746154,left,1,1,0.7806270018045325,H10K03,2022-09-21_10h40.24.246,t1_Paradigm,2021.1.4,60.037056303033175,
V,left,Lure,0,20,20,20,535.1343379152531,537.1341746268445,left,1,1,0.4825002309808042,H10K03,2022-09-21_10h40.24.246,t1_Paradigm,2021.1.4,60.037056303033175,
P,left,Distractor,0,21,21,21,538.63432668717,540.6359342278156,left,1,1,1.044749363529263,H10K03,2022-09-21_10h40.24.246,t1_Paradigm,2021.1.4,60.037056303033175,
K,left,Pretarget,0,22,22,22,542.1342885116755,544.1361607142899,left,1,1,0.7605861572374124,H10K03,2022-09-21_10h40.24.246,t1_Paradigm,2021.1.4,60.037056303033175,
K,right,Target,0,23,23,23,545.6343379152531,547.6344408928126,right,1,1,0.6060832469374873,H10K03,2022-09-21_10h40.24.246,t1_Paradigm,2021.1.4,60.037056303033175,
J,left,Pretarget,0,24,24,24,549.1341739852505,551.1368042438407,left,1,1,1.0717917197034694,H10K03,2022-09-21_10h40.24.246,t1_Paradigm,2021.1.4,60.037056303033175,
J,right,Target,0,25,25,25,552.6343600506079,554.6343789779639,right,1,1,0.7262532465392724,H10K03,2022-09-21_10h40.24.246,t1_Paradigm,2021.1.4,60.037056303033175,
H,left,Distractor,0,26,26,26,556.1344081709685,558.1353747484973,left,1,1,0.7932521788752638,H10K03,2022-09-21_10h40.24.246,t1_Paradigm,2021.1.4,60.037056303033175,
J,left,Lure,0,27,27,27,559.6341470378393,561.6357693354075,left,1,1,1.372908689401811,H10K03,2022-09-21_10h40.24.246,t1_Paradigm,2021.1.4,60.037056303033175,
V,left,Distractor,0,28,28,28,563.1345082613116,565.1364064489026,left,1,1,0.8161914728116244,H10K03,2022-09-21_10h40.24.246,t1_Paradigm,2021.1.4,60.037056303033175,
Z,left,Pretarget,0,29,29,29,566.6345172437723,568.635803019657,left,1,1,0.5970199384901207,H10K03,2022-09-21_10h40.24.246,t1_Paradigm,2021.1.4,60.037056303033175,
Z,right,Target,0,30,30,30,570.1340700452856,572.1344630281674,right,1,1,1.1622531746688765,H10K03,2022-09-21_10h40.24.246,t1_Paradigm,2021.1.4,60.037056303033175,
T,left,Distractor,0,31,31,31,573.6344540457067,575.6342795292148,left,1,1,0.6223408691876102,H10K03,2022-09-21_10h40.24.246,t1_Paradigm,2021.1.4,60.037056303033175,
Z,left,Lure,0,32,32,32,577.134054005146,579.134155378706,left,1,1,0.626568402745761,H10K03,2022-09-21_10h40.24.246,t1_Paradigm,2021.1.4,60.037056303033175,
F,left,Distractor,0,33,33,33,580.6345644017274,582.6353234201088,left,1,1,0.6771839583525434,H10K03,2022-09-21_10h40.24.246,t1_Paradigm,2021.1.4,60.037056303033175,
Y,left,Pretarget,0,34,34,34,584.1342015742557,586.1359326238162,left,1,1,0.6487547735450789,H10K03,2022-09-21_10h40.24.246,t1_Paradigm,2021.1.4,60.037056303033175,
Y,right,Target,0,35,35,35,587.6344197198632,589.634611880465,right,1,1,0.8619885768566746,H10K03,2022-09-21_10h40.24.246,t1_Paradigm,2021.1.4,60.037056303033175,
Y,right,Target,0,36,36,36,591.1344482712739,593.1344630281674,right,1,1,0.6422431271348614,H10K03,2022-09-21_10h40.24.246,t1_Paradigm,2021.1.4,60.037056303033175,
W,left,Distractor,0,37,37,37,594.6342490529933,596.6357430296193,left,1,1,0.580919830215862,H10K03,2022-09-21_10h40.24.246,t1_Paradigm,2021.1.4,60.037056303033175,
Q,left,Distractor,0,38,38,38,598.1344806723064,600.1353218161094,left,1,1,0.63327220978681,H10K03,2022-09-21_10h40.24.246,t1_Paradigm,2021.1.4,60.037056303033175,
P,left,Pretarget,0,39,39,39,601.6344033589412,603.6345724217827,left,1,1,0.622079094464425,H10K03,2022-09-21_10h40.24.246,t1_Paradigm,2021.1.4,60.037056303033175,
P,right,Target,0,40,40,40,605.1343032685982,607.1344899755786,right,1,1,0.770112704281928,H10K03,2022-09-21_10h40.24.246,t1_Paradigm,2021.1.4,60.037056303033175,
J,left,Distractor,0,41,41,41,608.6344809931179,610.6358142477402,left,1,1,0.661010065494338,H10K03,2022-09-21_10h40.24.246,t1_Paradigm,2021.1.4,60.037056303033175,
P,left,Lure,0,42,42,42,612.1340873686131,614.1357452752418,left,1,1,0.9689723160408903,H10K03,2022-09-21_10h40.24.246,t1_Paradigm,2021.1.4,60.037056303033175,
L,left,Distractor,0,43,43,43,615.6344732938451,617.6361369749065,left,1,1,0.6524593992508017,H10K03,2022-09-21_10h40.24.246,t1_Paradigm,2021.1.4,60.037056303033175,
Z,left,Distractor,0,44,44,44,619.1341864965507,621.1352230089833,left,1,1,0.44943866002722643,H10K03,2022-09-21_10h40.24.246,t1_Paradigm,2021.1.4,60.037056303033175,
F,left,Pretarget,0,45,45,45,622.6345669681323,624.6345563816722,left,1,1,0.6939904734608717,H10K03,2022-09-21_10h40.24.246,t1_Paradigm,2021.1.4,60.037056303033175,
F,right,Target,0,46,46,46,626.1344181158347,628.1345801210264,right,1,1,0.6180090748530347,H10K03,2022-09-21_10h40.24.246,t1_Paradigm,2021.1.4,60.037056303033175,
G,left,Pretarget,0,47,47,47,629.6342936445144,631.6364680429688,left,1,1,0.5402882858470548,H10K03,2022-09-21_10h40.24.246,t1_Paradigm,2021.1.4,60.037056303033175,
G,right,Target,0,48,48,48,633.1346208629257,635.1344681610062,right,1,1,0.6902287449338473,H10K03,2022-09-21_10h40.24.246,t1_Paradigm,2021.1.4,60.037056303033175,
V,left,Distractor,0,49,49,49,636.6343510681472,638.6363198322651,left,1,1,0.9163363471452612,H10K03,2022-09-21_10h40.24.246,t1_Paradigm,2021.1.4,60.037056303033175,
G,left,Lure,0,50,50,50,640.1346182965208,642.134679248964,right,0,1,0.6499763889587484,H10K03,2022-09-21_10h40.24.246,t1_Paradigm,2021.1.4,60.037056303033175,
Q,left,Pretarget,0,51,51,51,643.6344434592174,645.6357847339241,left,1,1,0.8611958742258139,H10K03,2022-09-21_10h40.24.246,t1_Paradigm,2021.1.4,60.037056303033175,
Q,right,Target,0,52,52,52,647.1345114693395,649.1344938252005,right,1,1,0.8341070016904268,H10K03,2022-09-21_10h40.24.246,t1_Paradigm,2021.1.4,60.037056303033175,
Y,left,Distractor,0,53,53,53,650.6343100054364,652.635230708227,left,1,1,0.7733592242293525,H10K03,2022-09-21_10h40.24.246,t1_Paradigm,2021.1.4,60.037056303033175,
V,left,Distractor,0,54,54,54,654.1341861757392,656.1354308889131,left,1,1,0.8893331288709305,H10K03,2022-09-21_10h40.24.246,t1_Paradigm,2021.1.4,60.037056303033175,
B,left,Distractor,0,55,55,55,657.6342683011317,659.6360125035862,left,1,1,0.4448396373190917,H10K03,2022-09-21_10h40.24.246,t1_Paradigm,2021.1.4,60.037056303033175,
J,left,Pretarget,0,56,56,56,661.1345101861225,663.1351126529626,left,1,1,0.5297765547293238,H10K03,2022-09-21_10h40.24.246,t1_Paradigm,2021.1.4,60.037056303033175,
J,right,Target,0,57,57,57,664.6345348879113,666.6346731537196,right,1,1,0.6302117552259006,H10K03,2022-09-21_10h40.24.246,t1_Paradigm,2021.1.4,60.037056303033175,
H,left,Distractor,0,58,58,58,668.1344434592174,670.136054849514,left,1,1,0.5206461986235809,H10K03,2022-09-21_10h40.24.246,t1_Paradigm,2021.1.4,60.037056303033175,
J,left,Lure,0,59,59,59,671.6342378249101,673.6356900972314,left,1,1,1.0210446351557039,H10K03,2022-09-21_10h40.24.246,t1_Paradigm,2021.1.4,60.037056303033175,
D,left,Pretarget,0,60,60,60,675.134494787606,677.135803019657,left,1,1,0.7529058278305456,H10K03,2022-09-21_10h40.24.246,t1_Paradigm,2021.1.4,60.037056303033175,
D,right,Target,0,61,61,61,678.6343488225248,680.634663529665,right,1,1,0.646486700832611,H10K03,2022-09-21_10h40.24.246,t1_Paradigm,2021.1.4,60.037056303033175,
R,left,Distractor,0,62,62,62,682.1346311286034,684.1359124132723,left,1,1,0.5688368091359735,H10K03,2022-09-21_10h40.24.246,t1_Paradigm,2021.1.4,60.037056303033175,
F,left,Distractor,0,63,63,63,685.6342891532986,687.6356220871094,left,1,1,0.5571506205596961,H10K03,2022-09-21_10h40.24.246,t1_Paradigm,2021.1.4,60.037056303033175,
F,left,Distractor,0,0,0,0,810.5257989262172,812.5179681404843,None,0,2,,H10K03,2022-09-21_10h40.24.246,t1_Paradigm,2021.1.4,60.037056303033175,
N,left,Pretarget,0,1,1,1,814.0181038398878,816.0305878639338,None,0,2,,H10K03,2022-09-21_10h40.24.246,t1_Paradigm,2021.1.4,60.037056303033175,
V,left,Distractor,0,2,2,2,817.5180278097105,819.5190906279604,left,1,2,0.9459428766567726,H10K03,2022-09-21_10h40.24.246,t1_Paradigm,2021.1.4,60.037056303033175,
N,right,Target,0,3,3,3,821.0177551277156,823.018886918464,right,1,2,1.0623950976296328,H10K03,2022-09-21_10h40.24.246,t1_Paradigm,2021.1.4,60.037056303033175,
N,left,Lure,0,4,4,4,824.5180396794167,826.5179139248794,left,1,2,1.21102251263801,H10K03,2022-09-21_10h40.24.246,t1_Paradigm,2021.1.4,60.037056303033175,
X,left,Distractor,0,5,5,5,828.0179931630555,830.0183036997623,left,1,2,1.1025964460277464,H10K03,2022-09-21_10h40.24.246,t1_Paradigm,2021.1.4,60.037056303033175,
G,left,Pretarget,0,6,6,6,831.5181089727266,833.5188243619923,left,1,2,0.834044445247855,H10K03,2022-09-21_10h40.24.246,t1_Paradigm,2021.1.4,60.037056303033175,
H,left,Pretarget,0,7,7,7,835.0177631477709,837.0185484719696,left,1,2,0.9664597919327207,H10K03,2022-09-21_10h40.24.246,t1_Paradigm,2021.1.4,60.037056303033175,
G,right,Target,0,8,8,8,838.5182789979735,840.5190229386499,left,0,2,1.193844829191221,H10K03,2022-09-21_10h40.24.246,t1_Paradigm,2021.1.4,60.037056303033175,
H,right,Target,0,9,9,9,842.0177676390158,844.0190774750663,right,1,2,1.3419544691569172,H10K03,2022-09-21_10h40.24.246,t1_Paradigm,2021.1.4,60.037056303033175,
T,left,Pretarget,0,10,10,10,845.5178314786754,847.5204193913669,None,0,2,,H10K03,2022-09-21_10h40.24.246,t1_Paradigm,2021.1.4,60.037056303033175,
K,left,Distractor,0,11,11,11,849.017709573789,851.0196392000071,left,1,2,1.0616081694315653,H10K03,2022-09-21_10h40.24.246,t1_Paradigm,2021.1.4,60.037056303033175,
T,right,Target,0,12,12,12,852.518062777177,854.5184490232205,right,1,2,1.0024692158040125,H10K03,2022-09-21_10h40.24.246,t1_Paradigm,2021.1.4,60.037056303033175,
T,left,Lure,0,13,13,13,856.034712740744,858.0180602107721,left,1,2,1.32690980064217,H10K03,2022-09-21_10h40.24.246,t1_Paradigm,2021.1.4,60.037056303033175,
J,left,Distractor,0,14,14,14,859.5178532932478,861.5187098355382,left,1,2,1.4423261508054566,H10K03,2022-09-21_10h40.24.246,t1_Paradigm,2021.1.4,60.037056303033175,
Q,left,Pretarget,0,15,15,15,863.0181157095649,865.0196138566243,left,1,2,0.8213284810772166,H10K03,2022-09-21_10h40.24.246,t1_Paradigm,2021.1.4,60.037056303033175,
M,left,Distractor,0,16,16,16,866.5179832181893,868.5196359919792,left,1,2,1.033222292928258,H10K03,2022-09-21_10h40.24.246,t1_Paradigm,2021.1.4,60.037056303033175,
Q,right,Target,0,17,17,17,870.0178051728872,872.0177609021484,right,1,2,1.2153488533222117,H10K03,2022-09-21_10h40.24.246,t1_Paradigm,2021.1.4,60.037056303033175,
R,left,Distractor,0,18,18,18,873.5181397697597,875.5190758710378,left,1,2,0.6419380440784153,H10K03,2022-09-21_10h40.24.246,t1_Paradigm,2021.1.4,60.037056303033175,
W,left,Distractor,0,19,19,19,877.0180156192218,879.0199808545294,left,1,2,0.6929632642713841,H10K03,2022-09-21_10h40.24.246,t1_Paradigm,2021.1.4,60.037056303033175,
C,left,Pretarget,0,20,20,20,880.5181516394368,882.5198265485815,left,1,2,0.7931309155828785,H10K03,2022-09-21_10h40.24.246,t1_Paradigm,2021.1.4,60.037056303033175,
T,left,Distractor,0,21,21,21,884.0180807420984,886.0200507894333,left,1,2,0.9569104679103475,H10K03,2022-09-21_10h40.24.246,t1_Paradigm,2021.1.4,60.037056303033175,
C,right,Target,0,22,22,22,887.5180653436109,889.5193418162235,right,1,2,0.833438449568348,H10K03,2022-09-21_10h40.24.246,t1_Paradigm,2021.1.4,60.037056303033175,
F,left,Pretarget,0,23,23,23,891.0180910077761,893.0189241315238,left,1,2,0.8220955195429269,H10K03,2022-09-21_10h40.24.246,t1_Paradigm,2021.1.4,60.037056303033175,
C,right,Target,0,24,24,24,894.5179639700509,896.5172408815124,left,0,2,1.2117783229914494,H10K03,2022-09-21_10h40.24.246,t1_Paradigm,2021.1.4,60.037056303033175,
F,right,Target,0,25,25,25,898.0181513186253,900.0181728123862,right,1,2,0.5748858585429844,H10K03,2022-09-21_10h40.24.246,t1_Paradigm,2021.1.4,60.037056303033175,
H,left,Distractor,0,26,26,26,901.5179463259119,903.5182655242679,left,1,2,0.7706923941732384,H10K03,2022-09-21_10h40.24.246,t1_Paradigm,2021.1.4,60.037056303033175,
H,left,Lure,0,27,27,27,905.0180425666331,907.018177945225,left,1,2,1.302776480326429,H10K03,2022-09-21_10h40.24.246,t1_Paradigm,2021.1.4,60.037056303033175,
P,left,Distractor,0,28,28,28,908.5181680003589,910.5200681127608,left,1,2,0.8568676087015774,H10K03,2022-09-21_10h40.24.246,t1_Paradigm,2021.1.4,60.037056303033175,
G,left,Pretarget,0,29,29,29,912.0177345963602,914.0195772851584,left,1,2,0.7173962140223011,H10K03,2022-09-21_10h40.24.246,t1_Paradigm,2021.1.4,60.037056303033175,
K,left,Distractor,0,30,30,30,915.5176794183499,917.5190229386499,left,1,2,0.5461714804114308,H10K03,2022-09-21_10h40.24.246,t1_Paradigm,2021.1.4,60.037056303033175,
G,right,Target,0,31,31,31,919.0181349577033,921.0172524304071,right,1,2,0.6159437492315192,H10K03,2022-09-21_10h40.24.246,t1_Paradigm,2021.1.4,60.037056303033175,
M,left,Pretarget,0,32,32,32,922.5176110874454,924.5180605315545,left,1,2,0.8109582238248549,H10K03,2022-09-21_10h40.24.246,t1_Paradigm,2021.1.4,60.037056303033175,
B,left,Distractor,0,33,33,33,926.0177711678261,928.0195564329915,left,1,2,0.7819843166216742,H10K03,2022-09-21_10h40.24.246,t1_Paradigm,2021.1.4,60.037056303033175,
M,right,Target,0,34,34,34,929.5182068174472,931.5185042012308,right,1,2,1.1704458254389465,H10K03,2022-09-21_10h40.24.246,t1_Paradigm,2021.1.4,60.037056303033175,
M,left,Lure,0,35,35,35,933.0179148872849,935.0182311984245,left,1,2,0.9347417412791401,H10K03,2022-09-21_10h40.24.246,t1_Paradigm,2021.1.4,60.037056303033175,
T,left,Distractor,0,36,36,36,936.5181471481919,938.5198374558531,left,1,2,0.745310511032585,H10K03,2022-09-21_10h40.24.246,t1_Paradigm,2021.1.4,60.037056303033175,
F,left,Distractor,0,37,37,37,940.0178388571367,942.0178513684077,left,1,2,0.7835918572673108,H10K03,2022-09-21_10h40.24.246,t1_Paradigm,2021.1.4,60.037056303033175,
X,left,Distractor,0,38,38,38,943.5181400905421,945.5194977261708,left,1,2,0.56181476614438,H10K03,2022-09-21_10h40.24.246,t1_Paradigm,2021.1.4,60.037056303033175,
C,left,Distractor,0,39,39,39,947.0180842709378,949.0183476496895,left,1,2,0.6468286761373747,H10K03,2022-09-21_10h40.24.246,t1_Paradigm,2021.1.4,60.037056303033175,
R,left,Distractor,0,40,40,40,950.5179206617177,952.5183723514492,left,1,2,0.4906925609684549,H10K03,2022-09-21_10h40.24.246,t1_Paradigm,2021.1.4,60.037056303033175,
B,left,Pretarget,0,41,41,41,954.0175135635363,956.0342527101457,left,1,2,0.5588749332819134,H10K03,2022-09-21_10h40.24.246,t1_Paradigm,2021.1.4,60.037056303033175,
H,left,Distractor,0,42,42,42,957.5181461857865,959.5182559002133,left,1,2,0.6748010383744258,H10K03,2022-09-21_10h40.24.246,t1_Paradigm,2021.1.4,60.037056303033175,
B,right,Target,0,43,43,43,961.0177163106273,963.0310937692411,right,1,2,0.6660691188008059,H10K03,2022-09-21_10h40.24.246,t1_Paradigm,2021.1.4,60.037056303033175,
W,left,Pretarget,0,44,44,44,964.5181506770314,966.519572473102,left,1,2,0.8412557616247796,H10K03,2022-09-21_10h40.24.246,t1_Paradigm,2021.1.4,60.037056303033175,
L,left,Pretarget,0,45,45,45,968.0179803309729,970.019659410551,left,1,2,0.9735001205990557,H10K03,2022-09-21_10h40.24.246,t1_Paradigm,2021.1.4,60.037056303033175,
W,right,Target,0,46,46,46,971.5181670379534,973.5193158312177,right,1,2,0.7217703542555682,H10K03,2022-09-21_10h40.24.246,t1_Paradigm,2021.1.4,60.037056303033175,
L,right,Target,0,47,47,47,975.0179527419677,977.0194967637653,right,1,2,1.1416496427555103,H10K03,2022-09-21_10h40.24.246,t1_Paradigm,2021.1.4,60.037056303033175,
W,right,Target,0,48,48,48,978.5179508171568,980.5185542464023,right,1,2,0.874547347862972,H10K03,2022-09-21_10h40.24.246,t1_Paradigm,2021.1.4,60.037056303033175,
X,left,Distractor,0,49,49,49,982.0181920605246,984.0197399319441,left,1,2,0.7332021465699654,H10K03,2022-09-21_10h40.24.246,t1_Paradigm,2021.1.4,60.037056303033175,
R,left,Distractor,0,50,50,50,985.5178988471744,987.519522748742,left,1,2,0.6095344387867954,H10K03,2022-09-21_10h40.24.246,t1_Paradigm,2021.1.4,60.037056303033175,
V,left,Pretarget,0,51,51,51,989.0179155289079,991.0193918613659,left,1,2,0.7418028579559177,H10K03,2022-09-21_10h40.24.246,t1_Paradigm,2021.1.4,60.037056303033175,
Z,left,Distractor,0,52,52,52,992.5182729027292,994.5180746468541,left,1,2,0.4750367639353499,H10K03,2022-09-21_10h40.24.246,t1_Paradigm,2021.1.4,60.037056303033175,
V,right,Target,0,53,53,53,996.0181910981191,998.0189757807238,right,1,2,0.9263351152767427,H10K03,2022-09-21_10h40.24.246,t1_Paradigm,2021.1.4,60.037056303033175,
V,left,Lure,0,54,54,54,999.5179819349723,1001.5180278097105,left,1,2,1.0111924737284426,H10K03,2022-09-21_10h40.24.246,t1_Paradigm,2021.1.4,60.037056303033175,
N,left,Distractor,0,55,55,55,1003.0182174039073,1005.0193148688122,left,1,2,0.6140866243222263,H10K03,2022-09-21_10h40.24.246,t1_Paradigm,2021.1.4,60.037056303033175,
B,left,Distractor,0,56,56,56,1006.5173140244733,1008.5191390691034,left,1,2,0.5858925876673311,H10K03,2022-09-21_10h40.24.246,t1_Paradigm,2021.1.4,60.037056303033175,
V,left,Lure,0,57,57,57,1010.0179597996175,1012.019692132395,left,1,2,0.5734990298806224,H10K03,2022-09-21_10h40.24.246,t1_Paradigm,2021.1.4,60.037056303033175,
J,left,Distractor,0,58,58,58,1013.5182218951522,1015.5190604725212,left,1,2,0.6262431091454346,H10K03,2022-09-21_10h40.24.246,t1_Paradigm,2021.1.4,60.037056303033175,
H,left,Distractor,0,59,59,59,1017.0182809227845,1019.0198483631539,left,1,2,0.5492630528169684,H10K03,2022-09-21_10h40.24.246,t1_Paradigm,2021.1.4,60.037056303033175,
X,left,Pretarget,0,60,60,60,1020.5183797299105,1022.518228952802,left,1,2,0.6833792936231475,H10K03,2022-09-21_10h40.24.246,t1_Paradigm,2021.1.4,60.037056303033175,
P,left,Distractor,0,61,61,61,1024.0182032886078,1026.01885419662,left,1,2,0.6063081294123549,H10K03,2022-09-21_10h40.24.246,t1_Paradigm,2021.1.4,60.037056303033175,
X,right,Target,0,62,62,62,1027.5180460954434,1029.518144581787,right,1,2,0.8513652065594215,H10K03,2022-09-21_10h40.24.246,t1_Paradigm,2021.1.4,60.037056303033175,
Q,left,Distractor,0,63,63,63,1031.017997975112,1033.0195795307518,left,1,2,0.6296712032344658,H10K03,2022-09-21_10h40.24.246,t1_Paradigm,2021.1.4,60.037056303033175,
B,left,Pretarget,0,0,0,0,1061.6275080328924,1063.6198671621678,None,0,2,,H10K03,2022-09-21_10h40.24.246,t1_Paradigm,2021.1.4,60.037056303033175,
F,left,Distractor,0,1,1,1,1065.1181996314554,1067.1191816075006,None,0,2,,H10K03,2022-09-21_10h40.24.246,t1_Paradigm,2021.1.4,60.037056303033175,
B,right,Target,0,2,2,2,1068.617895831616,1070.6196714727266,right,1,2,0.6137424033950083,H10K03,2022-09-21_10h40.24.246,t1_Paradigm,2021.1.4,60.037056303033175,
V,left,Distractor,0,3,3,3,1072.117757244996,1074.1184065489797,left,1,2,1.2267774375795852,H10K03,2022-09-21_10h40.24.246,t1_Paradigm,2021.1.4,60.037056303033175,
G,left,Pretarget,0,4,4,4,1075.6182474310335,1077.619274640194,left,1,2,0.862041509244591,H10K03,2022-09-21_10h40.24.246,t1_Paradigm,2021.1.4,60.037056303033175,
B,left,Lure,0,5,5,5,1079.1179301574884,1081.1195271116449,left,1,2,0.9619294209114742,H10K03,2022-09-21_10h40.24.246,t1_Paradigm,2021.1.4,60.037056303033175,
G,right,Target,0,6,6,6,1082.6179381775437,1084.6182977969875,None,0,2,,H10K03,2022-09-21_10h40.24.246,t1_Paradigm,2021.1.4,60.037056303033175,
Y,left,Pretarget,0,7,7,7,1086.1182695663883,1088.1188819780946,left,1,2,0.9063680552644655,H10K03,2022-09-21_10h40.24.246,t1_Paradigm,2021.1.4,60.037056303033175,
P,left,Distractor,0,8,8,8,1089.6183430301317,1091.6183443133486,left,1,2,0.6548086349794175,H10K03,2022-09-21_10h40.24.246,t1_Paradigm,2021.1.4,60.037056303033175,
Y,right,Target,0,9,9,9,1093.11830004261,1095.1197006657312,right,1,2,0.8656165308202617,H10K03,2022-09-21_10h40.24.246,t1_Paradigm,2021.1.4,60.037056303033175,
X,left,Distractor,0,10,10,10,1096.6180722729187,1098.6201023102913,left,1,2,0.7730387426854577,H10K03,2022-09-21_10h40.24.246,t1_Paradigm,2021.1.4,60.037056303033175,
Y,right,Target,0,11,11,11,1100.1181989898614,1102.1194651967962,right,1,2,1.017705724138068,H10K03,2022-09-21_10h40.24.246,t1_Paradigm,2021.1.4,60.037056303033175,
N,left,Distractor,0,12,12,12,1103.6179478015983,1105.6177463377244,left,1,2,0.7999633643776178,H10K03,2022-09-21_10h40.24.246,t1_Paradigm,2021.1.4,60.037056303033175,
Y,right,Target,0,13,13,13,1107.1177559618081,1109.117758528213,right,1,2,0.8514370663033333,H10K03,2022-09-21_10h40.24.246,t1_Paradigm,2021.1.4,60.037056303033175,
Y,left,Lure,0,14,14,14,1110.618260263116,1112.6181714008562,left,1,2,1.2070657362637576,H10K03,2022-09-21_10h40.24.246,t1_Paradigm,2021.1.4,60.037056303033175,
K,left,Distractor,0,15,15,15,1114.1182063683227,1116.1199547412107,left,1,2,0.6011515521677211,H10K03,2022-09-21_10h40.24.246,t1_Paradigm,2021.1.4,60.037056303033175,
T,left,Pretarget,0,16,16,16,1117.618317686749,1119.6198081345356,left,1,2,0.6694035385735333,H10K03,2022-09-21_10h40.24.246,t1_Paradigm,2021.1.4,60.037056303033175,
J,left,Distractor,0,17,17,17,1121.1180661776743,1123.1189772564103,left,1,2,1.2181456083490048,H10K03,2022-09-21_10h40.24.246,t1_Paradigm,2021.1.4,60.037056303033175,
T,right,Target,0,18,18,18,1124.617924703838,1126.6177126534749,right,1,2,0.823455079953419,H10K03,2022-09-21_10h40.24.246,t1_Paradigm,2021.1.4,60.037056303033175,
S,left,Pretarget,0,19,19,19,1128.118313837098,1130.1192287654558,left,1,2,0.858020893210778,H10K03,2022-09-21_10h40.24.246,t1_Paradigm,2021.1.4,60.037056303033175,
R,left,Distractor,0,20,20,20,1131.617979561037,1133.619457176741,left,1,2,0.5258768812054768,H10K03,2022-09-21_10h40.24.246,t1_Paradigm,2021.1.4,60.037056303033175,
S,right,Target,0,21,21,21,1135.1179000020493,1137.1184893159952,right,1,2,0.7227529719239101,H10K03,2022-09-21_10h40.24.246,t1_Paradigm,2021.1.4,60.037056303033175,
Q,left,Distractor,0,22,22,22,1138.6177697562962,1140.619858821301,left,1,2,0.7411099248565733,H10K03,2022-09-21_10h40.24.246,t1_Paradigm,2021.1.4,60.037056303033175,
D,left,Distractor,0,23,23,23,1142.1181187892798,1144.1193195525266,left,1,2,0.6499138324870728,H10K03,2022-09-21_10h40.24.246,t1_Paradigm,2021.1.4,60.037056303033175,
F,left,Distractor,0,24,24,24,1145.6178525233117,1147.619154339307,left,1,2,0.5742060783086345,H10K03,2022-09-21_10h40.24.246,t1_Paradigm,2021.1.4,60.037056303033175,
Z,left,Distractor,0,25,25,25,1149.1182740576041,1151.1202027214458,left,1,2,0.5291997520835139,H10K03,2022-09-21_10h40.24.246,t1_Paradigm,2021.1.4,60.037056303033175,
P,left,Distractor,0,26,26,26,1152.6183568246197,1154.6191280335188,left,1,2,0.6302573091525119,H10K03,2022-09-21_10h40.24.246,t1_Paradigm,2021.1.4,60.037056303033175,
H,left,Distractor,0,27,27,27,1156.1182904185262,1158.1184055865742,left,1,2,0.6992298176919576,H10K03,2022-09-21_10h40.24.246,t1_Paradigm,2021.1.4,60.037056303033175,
Z,left,Pretarget,0,28,28,28,1159.6183933960856,1161.619942550722,left,1,2,0.589332551433472,H10K03,2022-09-21_10h40.24.246,t1_Paradigm,2021.1.4,60.037056303033175,
J,left,Pretarget,0,29,29,29,1163.1184809751285,1165.1194023195421,left,1,2,0.7538146609149408,H10K03,2022-09-21_10h40.24.246,t1_Paradigm,2021.1.4,60.037056303033175,
Z,right,Target,0,30,30,30,1166.618079009786,1168.6199107912835,right,1,2,0.8853548587358091,H10K03,2022-09-21_10h40.24.246,t1_Paradigm,2021.1.4,60.037056303033175,
J,right,Target,0,31,31,31,1170.1183266692096,1172.1179218166217,right,1,2,0.6193298182042781,H10K03,2022-09-21_10h40.24.246,t1_Paradigm,2021.1.4,60.037056303033175,
V,left,Pretarget,0,32,32,32,1173.6183398221037,1175.6183898672753,left,1,2,0.5909330344293267,H10K03,2022-09-21_10h40.24.246,t1_Paradigm,2021.1.4,60.037056303033175,
Z,left,Lure,0,33,33,33,1177.1182929849601,1179.119040454476,left,1,2,0.8663283912464976,H10K03,2022-09-21_10h40.24.246,t1_Paradigm,2021.1.4,60.037056303033175,
V,right,Target,0,34,34,34,1180.6184848247794,1182.6204333783244,right,1,2,0.8688232712447643,H10K03,2022-09-21_10h40.24.246,t1_Paradigm,2021.1.4,60.037056303033175,
X,left,Distractor,0,35,35,35,1184.1183696567314,1186.1198645957338,left,1,2,0.6014101188629866,H10K03,2022-09-21_10h40.24.246,t1_Paradigm,2021.1.4,60.037056303033175,
S,left,Distractor,0,36,36,36,1187.618029285426,1189.6343664666638,left,1,2,1.0229588628862984,H10K03,2022-09-21_10h40.24.246,t1_Paradigm,2021.1.4,60.037056303033175,
Q,left,Distractor,0,37,37,37,1191.118026077398,1193.119318590121,left,1,2,0.8824637878278736,H10K03,2022-09-21_10h40.24.246,t1_Paradigm,2021.1.4,60.037056303033175,
P,left,Distractor,0,38,38,38,1194.6184572357743,1196.6201401649741,left,1,2,0.8052219567180146,H10K03,2022-09-21_10h40.24.246,t1_Paradigm,2021.1.4,60.037056303033175,
S,left,Lure,0,39,39,39,1198.118265395955,1200.118899943045,left,1,2,1.0825376365100965,H10K03,2022-09-21_10h40.24.246,t1_Paradigm,2021.1.4,60.037056303033175,
K,left,Pretarget,0,40,40,40,1201.6180578368367,1203.6194998434512,left,1,2,1.1336879696464166,H10K03,2022-09-21_10h40.24.246,t1_Paradigm,2021.1.4,60.037056303033175,
L,left,Distractor,0,41,41,41,1205.1184658974234,1207.1198719741951,left,1,2,0.49761130558908917,H10K03,2022-09-21_10h40.24.246,t1_Paradigm,2021.1.4,60.037056303033175,
K,right,Target,0,42,42,42,1208.6183783183806,1210.6184774463181,right,1,2,0.6309441470366437,H10K03,2022-09-21_10h40.24.246,t1_Paradigm,2021.1.4,60.037056303033175,
B,left,Distractor,0,43,43,43,1212.1185515516554,1214.1196557533985,left,1,2,0.9856325452856254,H10K03,2022-09-21_10h40.24.246,t1_Paradigm,2021.1.4,60.037056303033175,
N,left,Distractor,0,44,44,44,1215.6180225485587,1217.62031532306,left,1,2,0.764876888890285,H10K03,2022-09-21_10h40.24.246,t1_Paradigm,2021.1.4,60.037056303033175,
S,left,Pretarget,0,45,45,45,1219.117859901773,1221.1197962648293,left,1,2,0.785481703991536,H10K03,2022-09-21_10h40.24.246,t1_Paradigm,2021.1.4,60.037056303033175,
Z,left,Distractor,0,46,46,46,1222.6178640722064,1224.6206290677655,left,1,2,1.0288260173401795,H10K03,2022-09-21_10h40.24.246,t1_Paradigm,2021.1.4,60.037056303033175,
S,right,Target,0,47,47,47,1226.1183545789972,1228.1190423792868,right,1,2,0.890396267932374,H10K03,2022-09-21_10h40.24.246,t1_Paradigm,2021.1.4,60.037056303033175,
C,left,Distractor,0,48,48,48,1229.6185406443838,1231.6199877838662,left,1,2,0.8294649914896581,H10K03,2022-09-21_10h40.24.246,t1_Paradigm,2021.1.4,60.037056303033175,
T,left,Pretarget,0,49,49,49,1233.118262829521,1235.1185740078217,left,1,2,1.2027628141222522,H10K03,2022-09-21_10h40.24.246,t1_Paradigm,2021.1.4,60.037056303033175,
S,left,Lure,0,50,50,50,1236.6184267595527,1238.6190109406598,left,1,2,0.9502252674428746,H10K03,2022-09-21_10h40.24.246,t1_Paradigm,2021.1.4,60.037056303033175,
T,right,Target,0,51,51,51,1240.1183860176534,1242.1195274324564,right,1,2,0.777916221821215,H10K03,2022-09-21_10h40.24.246,t1_Paradigm,2021.1.4,60.037056303033175,
N,left,Pretarget,0,52,52,52,1243.6185627797386,1245.6195399437565,left,1,2,0.6218869338626973,H10K03,2022-09-21_10h40.24.246,t1_Paradigm,2021.1.4,60.037056303033175,
B,left,Distractor,0,53,53,53,1247.1183616366761,1249.1199011671997,left,1,2,0.5776614405913278,H10K03,2022-09-21_10h40.24.246,t1_Paradigm,2021.1.4,60.037056303033175,
N,right,Target,0,54,54,54,1250.618162097584,1252.6196262395824,right,1,2,0.8537282367469743,H10K03,2022-09-21_10h40.24.246,t1_Paradigm,2021.1.4,60.037056303033175,
N,left,Lure,0,55,55,55,1254.1184556317457,1256.118242618977,left,1,2,0.907185780495638,H10K03,2022-09-21_10h40.24.246,t1_Paradigm,2021.1.4,60.037056303033175,
X,left,Distractor,0,56,56,56,1257.6180427591025,1259.6194283045188,left,1,2,0.7983853375189938,H10K03,2022-09-21_10h40.24.246,t1_Paradigm,2021.1.4,60.037056303033175,
W,left,Distractor,0,57,57,57,1261.1181576063682,1263.1199245857715,left,1,2,1.1214567378629,H10K03,2022-09-21_10h40.24.246,t1_Paradigm,2021.1.4,60.037056303033175,
S,left,Distractor,0,58,58,58,1264.6180578368367,1266.6197629013914,left,1,2,1.237710382178193,H10K03,2022-09-21_10h40.24.246,t1_Paradigm,2021.1.4,60.037056303033175,
L,left,Distractor,0,59,59,59,1268.118535511545,1270.118888073339,left,1,2,0.8585239113308489,H10K03,2022-09-21_10h40.24.246,t1_Paradigm,2021.1.4,60.037056303033175,
K,left,Pretarget,0,60,60,60,1271.6185268498666,1273.6202331976674,left,1,2,0.5092881908640265,H10K03,2022-09-21_10h40.24.246,t1_Paradigm,2021.1.4,60.037056303033175,
V,left,Pretarget,0,61,61,61,1275.1181598519615,1277.1191841739346,left,1,2,0.770229797140928,H10K03,2022-09-21_10h40.24.246,t1_Paradigm,2021.1.4,60.037056303033175,
K,right,Target,0,62,62,62,1278.6184816167515,1280.6184620478016,right,1,2,0.6310891496832483,H10K03,2022-09-21_10h40.24.246,t1_Paradigm,2021.1.4,60.037056303033175,
V,right,Target,0,63,63,63,1282.1183937168971,1284.1185085641337,right,1,2,0.7948667771997862,H10K03,2022-09-21_10h40.24.246,t1_Paradigm,2021.1.4,60.037056303033175,
R,left,Distractor,0,0,0,0,1418.2158509090368,1420.2190980705782,None,0,3,,H10K03,2022-09-21_10h40.24.246,t1_Paradigm,2021.1.4,60.037056303033175,
P,left,Lure,0,1,1,1,1421.718684556312,1423.718699634046,None,0,3,,H10K03,2022-09-21_10h40.24.246,t1_Paradigm,2021.1.4,60.037056303033175,
V,left,Distractor,0,2,2,2,1425.2182662300474,1427.219427534612,None,0,3,,H10K03,2022-09-21_10h40.24.246,t1_Paradigm,2021.1.4,60.037056303033175,
P,left,Pretarget,0,3,3,3,1428.7181622900825,1430.7184930373041,left,1,3,1.075104966526851,H10K03,2022-09-21_10h40.24.246,t1_Paradigm,2021.1.4,60.037056303033175,
Z,left,Distractor,0,4,4,4,1432.2181549116212,1434.2205513052759,left,1,3,1.109043290372938,H10K03,2022-09-21_10h40.24.246,t1_Paradigm,2021.1.4,60.037056303033175,
L,left,Pretarget,0,5,5,5,1435.7183769068506,1437.7181202649663,left,1,3,0.7797897076234221,H10K03,2022-09-21_10h40.24.246,t1_Paradigm,2021.1.4,60.037056303033175,
P,right,Target,0,6,6,6,1439.2180384603562,1441.2199087381596,right,1,3,0.9097146655549295,H10K03,2022-09-21_10h40.24.246,t1_Paradigm,2021.1.4,60.037056303033175,
S,left,Distractor,0,7,7,7,1442.7184991325485,1444.7183756236336,left,1,3,0.6749640059715603,H10K03,2022-09-21_10h40.24.246,t1_Paradigm,2021.1.4,60.037056303033175,
L,right,Target,0,8,8,8,1446.2176788409124,1448.2207126688736,right,1,3,0.9327809972164687,H10K03,2022-09-21_10h40.24.246,t1_Paradigm,2021.1.4,60.037056303033175,
D,left,Distractor,0,9,9,9,1449.7177651367383,1451.7204816911835,left,1,3,0.5853722462488804,H10K03,2022-09-21_10h40.24.246,t1_Paradigm,2021.1.4,60.037056303033175,
G,left,Distractor,0,10,10,10,1453.2184359344828,1455.2192459604703,left,1,3,0.7988514633616433,H10K03,2022-09-21_10h40.24.246,t1_Paradigm,2021.1.4,60.037056303033175,
M,left,Pretarget,0,11,11,11,1456.718647984846,1458.7202211996482,left,1,3,0.6255091133643873,H10K03,2022-09-21_10h40.24.246,t1_Paradigm,2021.1.4,60.037056303033175,
Y,left,Distractor,0,12,12,12,1460.2181427211326,1462.2200624024845,left,1,3,0.8056085236021318,H10K03,2022-09-21_10h40.24.246,t1_Paradigm,2021.1.4,60.037056303033175,
V,left,Distractor,0,13,13,13,1463.7183220496518,1465.7181112825056,left,1,3,0.6674059022334404,H10K03,2022-09-21_10h40.24.246,t1_Paradigm,2021.1.4,60.037056303033175,
M,right,Target,0,14,14,14,1467.2185722755094,1469.218802932388,right,1,3,0.7347885142371524,H10K03,2022-09-21_10h40.24.246,t1_Paradigm,2021.1.4,60.037056303033175,
S,left,Pretarget,0,15,15,15,1470.7187528872164,1472.7188837745925,left,1,3,0.594741600099951,H10K03,2022-09-21_10h40.24.246,t1_Paradigm,2021.1.4,60.037056303033175,
Q,left,Distractor,0,16,16,16,1474.2183547714958,1476.2185613682086,left,1,3,0.5350447711825836,H10K03,2022-09-21_10h40.24.246,t1_Paradigm,2021.1.4,60.037056303033175,
R,left,Pretarget,0,17,17,17,1477.7186069221643,1479.7193640157348,left,1,3,0.6823966759548057,H10K03,2022-09-21_10h40.24.246,t1_Paradigm,2021.1.4,60.037056303033175,
S,right,Target,0,18,18,18,1481.2183945509896,1483.2187564160558,right,1,3,0.9107348170655314,H10K03,2022-09-21_10h40.24.246,t1_Paradigm,2021.1.4,60.037056303033175,
F,left,Distractor,0,19,19,19,1484.718144966755,1486.7199992044189,left,1,3,0.6416717781103216,H10K03,2022-09-21_10h40.24.246,t1_Paradigm,2021.1.4,60.037056303033175,
R,right,Target,0,20,20,20,1488.21876956895,1490.2188196141215,right,1,3,0.98304270778317,H10K03,2022-09-21_10h40.24.246,t1_Paradigm,2021.1.4,60.037056303033175,
P,left,Distractor,0,21,21,21,1491.718617829436,1493.7184885460883,left,1,3,0.6350504173024092,H10K03,2022-09-21_10h40.24.246,t1_Paradigm,2021.1.4,60.037056303033175,
L,left,Distractor,0,22,22,22,1495.218721127807,1497.2182328665804,left,1,3,0.9435387837293092,H10K03,2022-09-21_10h40.24.246,t1_Paradigm,2021.1.4,60.037056303033175,
R,right,Target,0,23,23,23,1498.7181901998702,1500.7200761969725,left,0,3,1.0094832387112547,H10K03,2022-09-21_10h40.24.246,t1_Paradigm,2021.1.4,60.037056303033175,
H,left,Pretarget,0,24,24,24,1502.2183291073015,1504.2202070843487,left,1,3,0.7413925517466851,H10K03,2022-09-21_10h40.24.246,t1_Paradigm,2021.1.4,60.037056303033175,
G,left,Pretarget,0,25,25,25,1505.7181347010774,1507.719808968628,left,1,3,0.826053258322645,H10K03,2022-09-21_10h40.24.246,t1_Paradigm,2021.1.4,60.037056303033175,
T,left,Distractor,0,26,26,26,1509.2185940900526,1511.218849448749,left,1,3,1.182994330796646,H10K03,2022-09-21_10h40.24.246,t1_Paradigm,2021.1.4,60.037056303033175,
H,right,Target,0,27,27,27,1512.7182793829415,1514.7206764182192,right,1,3,0.7047848314396106,H10K03,2022-09-21_10h40.24.246,t1_Paradigm,2021.1.4,60.037056303033175,
G,right,Target,0,28,28,28,1516.2183605459286,1518.2189434438187,right,1,3,0.822923189640278,H10K03,2022-09-21_10h40.24.246,t1_Paradigm,2021.1.4,60.037056303033175,
D,left,Distractor,0,29,29,29,1519.7183002350794,1521.7195119056269,left,1,3,1.1941717267909553,H10K03,2022-09-21_10h40.24.246,t1_Paradigm,2021.1.4,60.037056303033175,
N,left,Pretarget,0,30,30,30,1523.2184060998843,1525.21886901767,left,1,3,0.8309345871384721,H10K03,2022-09-21_10h40.24.246,t1_Paradigm,2021.1.4,60.037056303033175,
V,left,Distractor,0,31,31,31,1526.718633548735,1528.719202652137,left,1,3,0.7544639649277087,H10K03,2022-09-21_10h40.24.246,t1_Paradigm,2021.1.4,60.037056303033175,
R,left,Distractor,0,32,32,32,1530.21866819539,1532.2198859611817,left,1,3,0.9017699949909002,H10K03,2022-09-21_10h40.24.246,t1_Paradigm,2021.1.4,60.037056303033175,
N,right,Target,0,33,33,33,1533.718703483668,1535.731538786291,right,1,3,0.7821415097860154,H10K03,2022-09-21_10h40.24.246,t1_Paradigm,2021.1.4,60.037056303033175,
Z,left,Distractor,0,34,34,34,1537.2184349720774,1539.218835654232,left,1,3,0.8150070704868995,H10K03,2022-09-21_10h40.24.246,t1_Paradigm,2021.1.4,60.037056303033175,
N,left,Lure,0,35,35,35,1540.7183204456524,1542.7195712540706,right,0,3,1.2340792202448938,H10K03,2022-09-21_10h40.24.246,t1_Paradigm,2021.1.4,60.037056303033175,
Y,left,Pretarget,0,36,36,36,1544.218688405963,1546.2203713351628,left,1,3,0.9332724664418492,H10K03,2022-09-21_10h40.24.246,t1_Paradigm,2021.1.4,60.037056303033175,
Y,left,Lure,0,37,37,37,1547.718413799128,1549.7186697994184,left,1,3,1.0991436501499265,H10K03,2022-09-21_10h40.24.246,t1_Paradigm,2021.1.4,60.037056303033175,
B,left,Distractor,0,38,38,38,1551.2183958342066,1553.2202911345812,None,0,3,,H10K03,2022-09-21_10h40.24.246,t1_Paradigm,2021.1.4,60.037056303033175,
Y,right,Target,0,39,39,39,1554.7185318543925,1556.7195786325028,right,1,3,1.3302711678261403,H10K03,2022-09-21_10h40.24.246,t1_Paradigm,2021.1.4,60.037056303033175,
J,left,Distractor,0,40,40,40,1558.2183278240846,1560.2186588921468,None,0,3,,H10K03,2022-09-21_10h40.24.246,t1_Paradigm,2021.1.4,60.037056303033175,
X,left,Distractor,0,41,41,41,1561.7185244759312,1563.7186467016581,left,1,3,1.0510226537880953,H10K03,2022-09-21_10h40.24.246,t1_Paradigm,2021.1.4,60.037056303033175,
W,left,Pretarget,0,42,42,42,1565.218485017249,1567.2190878049005,left,1,3,0.7825142821238842,H10K03,2022-09-21_10h40.24.246,t1_Paradigm,2021.1.4,60.037056303033175,
S,left,Pretarget,0,43,43,43,1568.7183435434126,1570.720393149706,left,1,3,0.6890789892640896,H10K03,2022-09-21_10h40.24.246,t1_Paradigm,2021.1.4,60.037056303033175,
R,left,Distractor,0,44,44,44,1572.2184683355154,1574.220045720751,left,1,3,0.9655897759075742,H10K03,2022-09-21_10h40.24.246,t1_Paradigm,2021.1.4,60.037056303033175,
W,right,Target,0,45,45,45,1575.7185225511203,1577.7198362368217,right,1,3,0.9059965661435854,H10K03,2022-09-21_10h40.24.246,t1_Paradigm,2021.1.4,60.037056303033175,
S,right,Target,0,46,46,46,1579.2187041252619,1581.2191102610668,right,1,3,1.086651606077794,H10K03,2022-09-21_10h40.24.246,t1_Paradigm,2021.1.4,60.037056303033175,
D,left,Distractor,0,47,47,47,1582.71859890208,1584.7205926887982,left,1,3,1.0253228554793168,H10K03,2022-09-21_10h40.24.246,t1_Paradigm,2021.1.4,60.037056303033175,
T,left,Distractor,0,48,48,48,1586.2186961052066,1588.219890773209,left,1,3,0.7258291458128951,H10K03,2022-09-21_10h40.24.246,t1_Paradigm,2021.1.4,60.037056303033175,
S,right,Target,0,49,49,49,1589.7184205359663,1591.719065990328,right,1,3,0.7946858446521219,H10K03,2022-09-21_10h40.24.246,t1_Paradigm,2021.1.4,60.037056303033175,
K,left,Distractor,0,50,50,50,1593.2186386815738,1595.2192318451707,left,1,3,0.6065853026229888,H10K03,2022-09-21_10h40.24.246,t1_Paradigm,2021.1.4,60.037056303033175,
S,left,Lure,0,51,51,51,1596.7187586616783,1598.720414643467,left,1,3,1.1533496258198284,H10K03,2022-09-21_10h40.24.246,t1_Paradigm,2021.1.4,60.037056303033175,
T,left,Pretarget,0,52,52,52,1600.2184433129441,1602.2202709240082,left,1,3,0.9174527394061442,H10K03,2022-09-21_10h40.24.246,t1_Paradigm,2021.1.4,60.037056303033175,
V,left,Distractor,0,53,53,53,1603.7184763555997,1605.7186778194737,left,1,3,0.5710843504930381,H10K03,2022-09-21_10h40.24.246,t1_Paradigm,2021.1.4,60.037056303033175,
B,left,Distractor,0,54,54,54,1607.218885378592,1609.2190252484288,left,1,3,1.0707151069946121,H10K03,2022-09-21_10h40.24.246,t1_Paradigm,2021.1.4,60.037056303033175,
T,right,Target,0,55,55,55,1610.7182232425257,1612.7182424906641,right,1,3,1.0276932641572785,H10K03,2022-09-21_10h40.24.246,t1_Paradigm,2021.1.4,60.037056303033175,
Y,left,Pretarget,0,56,56,56,1614.2183403353847,1616.2183355233574,left,1,3,0.7915551343758125,H10K03,2022-09-21_10h40.24.246,t1_Paradigm,2021.1.4,60.037056303033175,
T,left,Lure,0,57,57,57,1617.7187618697062,1619.7189084763813,left,1,3,1.0829546796157956,H10K03,2022-09-21_10h40.24.246,t1_Paradigm,2021.1.4,60.037056303033175,
P,left,Pretarget,0,58,58,58,1621.2184879044653,1623.2347840230213,left,1,3,1.1509137734537944,H10K03,2022-09-21_10h40.24.246,t1_Paradigm,2021.1.4,60.037056303033175,
Y,right,Target,0,59,59,59,1624.7185408368532,1626.7194968279218,right,1,3,0.8985539512650575,H10K03,2022-09-21_10h40.24.246,t1_Paradigm,2021.1.4,60.037056303033175,
R,left,Distractor,0,60,60,60,1628.2184737891657,1630.220414001873,left,1,3,1.0461333049461246,H10K03,2022-09-21_10h40.24.246,t1_Paradigm,2021.1.4,60.037056303033175,
P,right,Target,0,61,61,61,1631.718465448299,1633.719557780365,left,0,3,1.1783343556162436,H10K03,2022-09-21_10h40.24.246,t1_Paradigm,2021.1.4,60.037056303033175,
L,left,Distractor,0,62,62,62,1635.218832446204,1637.2194984319212,None,0,3,,H10K03,2022-09-21_10h40.24.246,t1_Paradigm,2021.1.4,60.037056303033175,
V,left,Distractor,0,63,63,63,1638.718736847106,1640.7200389839127,left,1,3,0.9459441598446574,H10K03,2022-09-21_10h40.24.246,t1_Paradigm,2021.1.4,60.037056303033175,
H,left,Lure,0,0,0,0,1710.044758987613,1712.0371011143434,None,0,3,,H10K03,2022-09-21_10h40.24.246,t1_Paradigm,2021.1.4,60.037056303033175,
B,left,Distractor,0,1,1,1,1713.5354451325256,1715.5357938446978,None,0,3,,H10K03,2022-09-21_10h40.24.246,t1_Paradigm,2021.1.4,60.037056303033175,
T,left,Distractor,0,2,2,2,1717.0354977441311,1719.0350681897544,None,0,3,,H10K03,2022-09-21_10h40.24.246,t1_Paradigm,2021.1.4,60.037056303033175,
R,left,Distractor,0,3,3,3,1720.5350319391,1722.5363090533065,left,1,3,0.6656119754188694,H10K03,2022-09-21_10h40.24.246,t1_Paradigm,2021.1.4,60.037056303033175,
H,left,Pretarget,0,4,4,4,1724.0353453629941,1726.0352600295737,left,1,3,0.8627184022625443,H10K03,2022-09-21_10h40.24.246,t1_Paradigm,2021.1.4,60.037056303033175,
K,left,Distractor,0,5,5,5,1727.5355824359576,1729.5372798012686,left,1,3,0.640742092859,H10K03,2022-09-21_10h40.24.246,t1_Paradigm,2021.1.4,60.037056303033175,
G,left,Distractor,0,6,6,6,1731.0355801903352,1733.035064019321,left,1,3,0.7909164168813732,H10K03,2022-09-21_10h40.24.246,t1_Paradigm,2021.1.4,60.037056303033175,
H,right,Target,0,7,7,7,1734.5354961401026,1736.5367642718484,right,1,3,1.033172247785842,H10K03,2022-09-21_10h40.24.246,t1_Paradigm,2021.1.4,60.037056303033175,
Y,left,Pretarget,0,8,8,8,1738.03558275674,1740.0369330139074,left,1,3,0.7328813441854436,H10K03,2022-09-21_10h40.24.246,t1_Paradigm,2021.1.4,60.037056303033175,
S,left,Distractor,0,9,9,9,1741.535517954675,1743.5354268467927,left,1,3,0.7704033512272872,H10K03,2022-09-21_10h40.24.246,t1_Paradigm,2021.1.4,60.037056303033175,
P,left,Distractor,0,10,10,10,1745.0356260650733,1747.03523276138,left,1,3,0.918584209313849,H10K03,2022-09-21_10h40.24.246,t1_Paradigm,2021.1.4,60.037056303033175,
Y,right,Target,0,11,11,11,1748.5355943056347,1750.5362529128906,right,1,3,0.921604563598521,H10K03,2022-09-21_10h40.24.246,t1_Paradigm,2021.1.4,60.037056303033175,
H,left,Lure,0,12,12,12,1752.0356071377173,1754.0361627674138,left,1,3,0.9257794855802786,H10K03,2022-09-21_10h40.24.246,t1_Paradigm,2021.1.4,60.037056303033175,
Q,left,Distractor,0,13,13,13,1755.5354579646373,1757.5371829189535,left,1,3,0.8326993209193461,H10K03,2022-09-21_10h40.24.246,t1_Paradigm,2021.1.4,60.037056303033175,
V,left,Pretarget,0,14,14,14,1759.0350746058102,1761.0359667571902,left,1,3,0.7100851281138603,H10K03,2022-09-21_10h40.24.246,t1_Paradigm,2021.1.4,60.037056303033175,
G,left,Distractor,0,15,15,15,1762.5357434787438,1764.5364020859997,left,1,3,0.7456406166602392,H10K03,2022-09-21_10h40.24.246,t1_Paradigm,2021.1.4,60.037056303033175,
Z,left,Pretarget,0,16,16,16,1766.035603608907,1768.0371707284648,left,1,3,0.8129022861539852,H10K03,2022-09-21_10h40.24.246,t1_Paradigm,2021.1.4,60.037056303033175,
V,right,Target,0,17,17,17,1769.5352423854347,1771.5354441701202,right,1,3,0.9467185767716728,H10K03,2022-09-21_10h40.24.246,t1_Paradigm,2021.1.4,60.037056303033175,
N,left,Distractor,0,18,18,18,1773.0351390870928,1775.03674502371,left,1,3,0.8212851727730595,H10K03,2022-09-21_10h40.24.246,t1_Paradigm,2021.1.4,60.037056303033175,
Z,right,Target,0,19,19,19,1776.5355679998465,1778.5363090533065,right,1,3,0.9696399057866074,H10K03,2022-09-21_10h40.24.246,t1_Paradigm,2021.1.4,60.037056303033175,
R,left,Distractor,0,20,20,20,1780.035017502989,1782.0360318800667,left,1,3,1.1499350054364186,H10K03,2022-09-21_10h40.24.246,t1_Paradigm,2021.1.4,60.037056303033175,
P,left,Distractor,0,21,21,21,1783.5355314283806,1785.5482236531388,left,1,3,1.0937621904886328,H10K03,2022-09-21_10h40.24.246,t1_Paradigm,2021.1.4,60.037056303033175,
Z,right,Target,0,22,22,22,1787.0356488420512,1789.0370770541776,right,1,3,0.8049277809623163,H10K03,2022-09-21_10h40.24.246,t1_Paradigm,2021.1.4,60.037056303033175,
D,left,Pretarget,0,23,23,23,1790.5356433884008,1792.5372743476182,left,1,3,0.9846172058023512,H10K03,2022-09-21_10h40.24.246,t1_Paradigm,2021.1.4,60.037056303033175,
K,left,Distractor,0,24,24,24,1794.035570887063,1796.0373648138775,left,1,3,1.2765399796480779,H10K03,2022-09-21_10h40.24.246,t1_Paradigm,2021.1.4,60.037056303033175,
W,left,Distractor,0,25,25,25,1797.5353444005887,1799.5356177242065,left,1,3,0.7863472288008779,H10K03,2022-09-21_10h40.24.246,t1_Paradigm,2021.1.4,60.037056303033175,
D,right,Target,0,26,26,26,1801.0356430675893,1803.0366179859848,right,1,3,0.8692849058425054,H10K03,2022-09-21_10h40.24.246,t1_Paradigm,2021.1.4,60.037056303033175,
G,left,Pretarget,0,27,27,27,1804.535752782016,1806.535570245469,left,1,3,0.85832373064477,H10K03,2022-09-21_10h40.24.246,t1_Paradigm,2021.1.4,60.037056303033175,
V,left,Distractor,0,28,28,28,1808.0353084707167,1810.0356292731012,left,1,3,0.734310197934974,H10K03,2022-09-21_10h40.24.246,t1_Paradigm,2021.1.4,60.037056303033175,
D,right,Target,0,29,29,29,1811.5353777640266,1813.5355785863067,right,1,3,0.9624985243135598,H10K03,2022-09-21_10h40.24.246,t1_Paradigm,2021.1.4,60.037056303033175,
G,right,Target,0,30,30,30,1815.0356299146952,1817.037045936333,left,0,3,1.061102905718144,H10K03,2022-09-21_10h40.24.246,t1_Paradigm,2021.1.4,60.037056303033175,
B,left,Pretarget,0,31,31,31,1818.5354515485815,1820.5364964018809,left,1,3,1.1136496915132739,H10K03,2022-09-21_10h40.24.246,t1_Paradigm,2021.1.4,60.037056303033175,
N,left,Distractor,0,32,32,32,1822.0353678191605,1824.0366911289166,left,1,3,1.037311560678063,H10K03,2022-09-21_10h40.24.246,t1_Paradigm,2021.1.4,60.037056303033175,
F,left,Distractor,0,33,33,33,1825.5357203809544,1827.536627930851,left,1,3,1.0573876935231965,H10K03,2022-09-21_10h40.24.246,t1_Paradigm,2021.1.4,60.037056303033175,
B,right,Target,0,34,34,34,1829.0351236885763,1831.0367113394605,right,1,3,0.789399663277436,H10K03,2022-09-21_10h40.24.246,t1_Paradigm,2021.1.4,60.037056303033175,
Q,left,Pretarget,0,35,35,35,1832.5357572732319,1834.535052149644,left,1,3,0.8907828347582836,H10K03,2022-09-21_10h40.24.246,t1_Paradigm,2021.1.4,60.037056303033175,
S,left,Pretarget,0,36,36,36,1836.035772350937,1838.0369708685903,left,1,3,1.1652395238925237,H10K03,2022-09-21_10h40.24.246,t1_Paradigm,2021.1.4,60.037056303033175,
W,left,Distractor,0,37,37,37,1839.535497102508,1841.536341454339,left,1,3,0.8658305059943814,H10K03,2022-09-21_10h40.24.246,t1_Paradigm,2021.1.4,60.037056303033175,
Q,right,Target,0,38,38,38,1843.0356809222721,1845.0373032198404,right,1,3,0.9006507155136205,H10K03,2022-09-21_10h40.24.246,t1_Paradigm,2021.1.4,60.037056303033175,
S,right,Target,0,39,39,39,1846.535752782016,1848.5374231999158,right,1,3,1.336637169966707,H10K03,2022-09-21_10h40.24.246,t1_Paradigm,2021.1.4,60.037056303033175,
T,left,Distractor,0,40,40,40,1850.0352548967348,1852.0370023072173,left,1,3,0.9731238194508478,H10K03,2022-09-21_10h40.24.246,t1_Paradigm,2021.1.4,60.037056303033175,
G,left,Distractor,0,41,41,41,1853.535386425705,1855.5372416257742,left,1,3,1.2488326001912355,H10K03,2022-09-21_10h40.24.246,t1_Paradigm,2021.1.4,60.037056303033175,
D,left,Distractor,0,42,42,42,1857.0351551272033,1859.036340171122,None,0,3,,H10K03,2022-09-21_10h40.24.246,t1_Paradigm,2021.1.4,60.037056303033175,
S,left,Lure,0,43,43,43,1860.5354111274937,1862.5357072280603,left,1,3,1.3063181384350173,H10K03,2022-09-21_10h40.24.246,t1_Paradigm,2021.1.4,60.037056303033175,
Z,left,Pretarget,0,44,44,44,1864.035228911729,1866.037246117019,left,1,3,0.7810437240696047,H10K03,2022-09-21_10h40.24.246,t1_Paradigm,2021.1.4,60.037056303033175,
J,left,Distractor,0,45,45,45,1867.5356475588342,1869.5368303571595,left,1,3,0.8813108241301961,H10K03,2022-09-21_10h40.24.246,t1_Paradigm,2021.1.4,60.037056303033175,
M,left,Pretarget,0,46,46,46,1871.0356700150005,1873.035701774439,left,1,3,0.6145017426169943,H10K03,2022-09-21_10h40.24.246,t1_Paradigm,2021.1.4,60.037056303033175,
Z,right,Target,0,47,47,47,1874.535718776955,1876.535097382759,left,0,3,1.0029343792411964,H10K03,2022-09-21_10h40.24.246,t1_Paradigm,2021.1.4,60.037056303033175,
P,left,Distractor,0,48,48,48,1878.0354409620923,1880.0380850151996,left,1,3,0.9560965923010372,H10K03,2022-09-21_10h40.24.246,t1_Paradigm,2021.1.4,60.037056303033175,
M,right,Target,0,49,49,49,1881.5357149273332,1883.5363732137776,right,1,3,0.6897433709236793,H10K03,2022-09-21_10h40.24.246,t1_Paradigm,2021.1.4,60.037056303033175,
K,left,Distractor,0,50,50,50,1885.0353023754724,1887.0361505769251,left,1,3,0.8219505168672185,H10K03,2022-09-21_10h40.24.246,t1_Paradigm,2021.1.4,60.037056303033175,
Y,left,Distractor,0,51,51,51,1888.535720701766,1890.5371604627871,None,0,3,,H10K03,2022-09-21_10h40.24.246,t1_Paradigm,2021.1.4,60.037056303033175,
X,left,Distractor,0,52,52,52,1892.0352853729564,1894.0371620667865,left,1,3,1.0368685326247942,H10K03,2022-09-21_10h40.24.246,t1_Paradigm,2021.1.4,60.037056303033175,
F,left,Pretarget,0,53,53,53,1895.5357075488719,1897.5372685731854,left,1,3,1.0888526311027817,H10K03,2022-09-21_10h40.24.246,t1_Paradigm,2021.1.4,60.037056303033175,
M,left,Lure,0,54,54,54,1899.0353148867725,1901.037451430515,left,1,3,0.6288887662813067,H10K03,2022-09-21_10h40.24.246,t1_Paradigm,2021.1.4,60.037056303033175,
V,left,Distractor,0,55,55,55,1902.5357274386042,1904.537045936333,left,1,3,1.0813962217071094,H10K03,2022-09-21_10h40.24.246,t1_Paradigm,2021.1.4,60.037056303033175,
F,right,Target,0,56,56,56,1906.035432300443,1908.0368367731862,right,1,3,0.7815813888446428,H10K03,2022-09-21_10h40.24.246,t1_Paradigm,2021.1.4,60.037056303033175,
S,left,Distractor,0,57,57,57,1909.5355734534678,1911.536358456884,left,1,3,0.817700206360314,H10K03,2022-09-21_10h40.24.246,t1_Paradigm,2021.1.4,60.037056303033175,
D,left,Distractor,0,58,58,58,1913.0355253331363,1915.0371232496982,left,1,3,1.0770018709008582,H10K03,2022-09-21_10h40.24.246,t1_Paradigm,2021.1.4,60.037056303033175,
F,right,Target,0,59,59,59,1916.535850947519,1918.5352436686517,right,1,3,1.2429638417379465,H10K03,2022-09-21_10h40.24.246,t1_Paradigm,2021.1.4,60.037056303033175,
V,left,Pretarget,0,60,60,60,1920.0355352780025,1922.0360803212097,None,0,3,,H10K03,2022-09-21_10h40.24.246,t1_Paradigm,2021.1.4,60.037056303033175,
J,left,Distractor,0,61,61,61,1923.5358727620915,1925.548391111981,None,0,3,,H10K03,2022-09-21_10h40.24.246,t1_Paradigm,2021.1.4,60.037056303033175,
V,left,Lure,0,62,62,62,1927.0355384860304,1929.0365980962233,None,0,3,,H10K03,2022-09-21_10h40.24.246,t1_Paradigm,2021.1.4,60.037056303033175,
V,right,Target,0,63,63,63,1930.5357319298491,1932.535432942037,right,1,3,0.8904732604860328,H10K03,2022-09-21_10h40.24.246,t1_Paradigm,2021.1.4,60.037056303033175,
R,left,Distractor,0,0,0,0,2030.883128490328,2032.8869389808387,None,0,4,,H10K03,2022-09-21_10h40.24.246,t1_Paradigm,2021.1.4,60.037056303033175,
F,left,Distractor,0,1,1,1,2034.3855778163997,2036.3870903995412,None,0,4,,H10K03,2022-09-21_10h40.24.246,t1_Paradigm,2021.1.4,60.037056303033175,
P,left,Pretarget,0,2,2,2,2037.885867821722,2039.8872344398114,None,0,4,,H10K03,2022-09-21_10h40.24.246,t1_Paradigm,2021.1.4,60.037056303033175,
H,left,Distractor,0,3,3,3,2041.3855396409053,2043.3862713911221,None,0,4,,H10K03,2022-09-21_10h40.24.246,t1_Paradigm,2021.1.4,60.037056303033175,
Z,left,Distractor,0,4,4,4,2044.8853779565252,2046.8877210970095,left,1,4,0.6665038060164079,H10K03,2022-09-21_10h40.24.246,t1_Paradigm,2021.1.4,60.037056303033175,
T,left,Distractor,0,5,5,5,2048.3858639721,2050.3854559114843,left,1,4,0.8330258977366611,H10K03,2022-09-21_10h40.24.246,t1_Paradigm,2021.1.4,60.037056303033175,
P,right,Target,0,6,6,6,2051.8859996715037,2053.8874031818414,right,1,4,0.8988808488647919,H10K03,2022-09-21_10h40.24.246,t1_Paradigm,2021.1.4,60.037056303033175,
G,left,Distractor,0,7,7,7,2055.3854116407747,2057.3865960430994,left,1,4,1.0477831914904527,H10K03,2022-09-21_10h40.24.246,t1_Paradigm,2021.1.4,60.037056303033175,
L,left,Distractor,0,8,8,8,2058.885897335538,2060.8855592098553,left,1,4,0.7169352210476063,H10K03,2022-09-21_10h40.24.246,t1_Paradigm,2021.1.4,60.037056303033175,
P,left,Lure,0,9,9,9,2062.3858796914283,2064.387142048741,left,1,4,0.9271217226923909,H10K03,2022-09-21_10h40.24.246,t1_Paradigm,2021.1.4,60.037056303033175,
Q,left,Pretarget,0,10,10,10,2065.88568977642,2067.8873913121643,left,1,4,1.315016694541555,H10K03,2022-09-21_10h40.24.246,t1_Paradigm,2021.1.4,60.037056303033175,
D,left,Distractor,0,11,11,11,2069.3859637416317,2071.386709607148,left,1,4,1.111727764538955,H10K03,2022-09-21_10h40.24.246,t1_Paradigm,2021.1.4,60.037056303033175,
M,left,Pretarget,0,12,12,12,2072.8856615458208,2074.887977097271,left,1,4,0.5862316757848021,H10K03,2022-09-21_10h40.24.246,t1_Paradigm,2021.1.4,60.037056303033175,
C,left,Distractor,0,13,13,13,2076.385803661251,2078.3851290138846,left,1,4,0.993063611240359,H10K03,2022-09-21_10h40.24.246,t1_Paradigm,2021.1.4,60.037056303033175,
Q,right,Target,0,14,14,14,2079.88536993647,2081.885997105099,right,1,4,1.1084286330151372,H10K03,2022-09-21_10h40.24.246,t1_Paradigm,2021.1.4,60.037056303033175,
R,left,Distractor,0,15,15,15,2083.385748162458,2085.387704415276,left,1,4,0.9025832289480604,H10K03,2022-09-21_10h40.24.246,t1_Paradigm,2021.1.4,60.037056303033175,
M,right,Target,0,16,16,16,2086.8858812954277,2088.8854539866734,right,1,4,0.9089803489332553,H10K03,2022-09-21_10h40.24.246,t1_Paradigm,2021.1.4,60.037056303033175,
S,left,Distractor,0,17,17,17,2090.38587102975,2092.3863685942197,left,1,4,1.055672042479273,H10K03,2022-09-21_10h40.24.246,t1_Paradigm,2021.1.4,60.037056303033175,
Z,left,Distractor,0,18,18,18,2093.8856240119203,2095.887773708586,left,1,4,1.330661905114539,H10K03,2022-09-21_10h40.24.246,t1_Paradigm,2021.1.4,60.037056303033175,
L,left,Pretarget,0,19,19,19,2097.3858838618617,2099.386433717096,None,0,4,,H10K03,2022-09-21_10h40.24.246,t1_Paradigm,2021.1.4,60.037056303033175,
M,right,Target,0,20,20,20,2100.8857757514634,2102.8869328855944,right,1,4,0.9394774257671088,H10K03,2022-09-21_10h40.24.246,t1_Paradigm,2021.1.4,60.037056303033175,
P,left,Distractor,0,21,21,21,2104.3854854253004,2106.3850529837364,left,1,4,0.9773808668542188,H10K03,2022-09-21_10h40.24.246,t1_Paradigm,2021.1.4,60.037056303033175,
F,left,Distractor,0,22,22,22,2107.8859323030047,2109.8859550799825,left,1,4,1.268360160960583,H10K03,2022-09-21_10h40.24.246,t1_Paradigm,2021.1.4,60.037056303033175,
L,right,Target,0,23,23,23,2111.3859355110326,2113.385944814305,left,0,4,1.176470814680215,H10K03,2022-09-21_10h40.24.246,t1_Paradigm,2021.1.4,60.037056303033175,
L,left,Lure,0,24,24,24,2114.8857115909923,2116.885920112516,right,0,4,1.0523071464558598,H10K03,2022-09-21_10h40.24.246,t1_Paradigm,2021.1.4,60.037056303033175,
V,left,Pretarget,0,25,25,25,2118.38546232754,2120.387402219436,left,1,4,0.9268949154065922,H10K03,2022-09-21_10h40.24.246,t1_Paradigm,2021.1.4,60.037056303033175,
Z,left,Distractor,0,26,26,26,2121.8859053556225,2123.8869890260103,None,0,4,,H10K03,2022-09-21_10h40.24.246,t1_Paradigm,2021.1.4,60.037056303033175,
H,left,Distractor,0,27,27,27,2125.3855691547215,2127.3865613964444,left,1,4,0.9995884105446748,H10K03,2022-09-21_10h40.24.246,t1_Paradigm,2021.1.4,60.037056303033175,
X,left,Distractor,0,28,28,28,2128.8856711698754,2130.88687514115,left,1,4,0.9394912202842534,H10K03,2022-09-21_10h40.24.246,t1_Paradigm,2021.1.4,60.037056303033175,
V,right,Target,0,29,29,29,2132.385835741501,2134.387438149308,left,0,4,0.9109484714572318,H10K03,2022-09-21_10h40.24.246,t1_Paradigm,2021.1.4,60.037056303033175,
C,left,Distractor,0,30,30,30,2135.886021486076,2137.887908445584,left,1,4,0.8824676374497358,H10K03,2022-09-21_10h40.24.246,t1_Paradigm,2021.1.4,60.037056303033175,
S,left,Pretarget,0,31,31,31,2139.3858845034556,2141.3849666878814,left,1,4,0.7616095168050379,H10K03,2022-09-21_10h40.24.246,t1_Paradigm,2021.1.4,60.037056303033175,
D,left,Distractor,0,32,32,32,2142.885986839421,2144.886680734926,left,1,4,0.6995766050240491,H10K03,2022-09-21_10h40.24.246,t1_Paradigm,2021.1.4,60.037056303033175,
V,left,Distractor,0,33,33,33,2146.385485746112,2148.388261007378,right,0,4,1.0218912326090503,H10K03,2022-09-21_10h40.24.246,t1_Paradigm,2021.1.4,60.037056303033175,
R,left,Distractor,0,34,34,34,2149.885916262894,2151.886502368812,None,0,4,,H10K03,2022-09-21_10h40.24.246,t1_Paradigm,2021.1.4,60.037056303033175,
S,right,Target,0,35,35,35,2153.3857536160795,2155.3859531551716,right,1,4,1.0806680003588554,H10K03,2022-09-21_10h40.24.246,t1_Paradigm,2021.1.4,60.037056303033175,
Y,left,Distractor,0,36,36,36,2156.8854770844628,2158.8854796508676,left,1,4,0.6209347924159374,H10K03,2022-09-21_10h40.24.246,t1_Paradigm,2021.1.4,60.037056303033175,
N,left,Pretarget,0,37,37,37,2160.385897335538,2162.387952395511,left,1,4,1.0702329410123639,H10K03,2022-09-21_10h40.24.246,t1_Paradigm,2021.1.4,60.037056303033175,
Z,left,Pretarget,0,38,38,38,2163.8851736054057,2165.887386500137,left,1,4,0.9152501103526447,H10K03,2022-09-21_10h40.24.246,t1_Paradigm,2021.1.4,60.037056303033175,
P,left,Pretarget,0,39,39,39,2167.3861010450637,2169.3861664887227,left,1,4,0.952210713236127,H10K03,2022-09-21_10h40.24.246,t1_Paradigm,2021.1.4,60.037056303033175,
M,left,Distractor,0,40,40,40,2170.885924603761,2172.885589686077,left,1,4,1.164953368192073,H10K03,2022-09-21_10h40.24.246,t1_Paradigm,2021.1.4,60.037056303033175,
N,right,Target,0,41,41,41,2174.3854703475954,2176.387484024046,left,0,4,1.2950563713966403,H10K03,2022-09-21_10h40.24.246,t1_Paradigm,2021.1.4,60.037056303033175,
Z,right,Target,0,42,42,42,2177.8856294655707,2179.886749386642,left,0,4,1.2675260748073924,H10K03,2022-09-21_10h40.24.246,t1_Paradigm,2021.1.4,60.037056303033175,
P,right,Target,0,43,43,43,2181.385667641065,2183.386981005926,right,1,4,0.5833152614650317,H10K03,2022-09-21_10h40.24.246,t1_Paradigm,2021.1.4,60.037056303033175,
X,left,Pretarget,0,44,44,44,2184.8857751098403,2186.8866608451935,left,1,4,0.7958923823316582,H10K03,2022-09-21_10h40.24.246,t1_Paradigm,2021.1.4,60.037056303033175,
Z,left,Lure,0,45,45,45,2188.3859614960093,2190.4019855741644,left,1,4,1.3124274986621458,H10K03,2022-09-21_10h40.24.246,t1_Paradigm,2021.1.4,60.037056303033175,
R,left,Pretarget,0,46,46,46,2191.885931340599,2193.8868231711676,left,1,4,1.331888011744013,H10K03,2022-09-21_10h40.24.246,t1_Paradigm,2021.1.4,60.037056303033175,
K,left,Distractor,0,47,47,47,2195.3857385383744,2197.38768741276,left,1,4,1.1747426523652393,H10K03,2022-09-21_10h40.24.246,t1_Paradigm,2021.1.4,60.037056303033175,
X,right,Target,0,48,48,48,2198.8852682420984,2200.886833757657,left,0,4,0.9556372033257503,H10K03,2022-09-21_10h40.24.246,t1_Paradigm,2021.1.4,60.037056303033175,
B,left,Distractor,0,49,49,49,2202.3860307893483,2204.3850565125467,left,1,4,1.0571759639424272,H10K03,2022-09-21_10h40.24.246,t1_Paradigm,2021.1.4,60.037056303033175,
R,right,Target,0,50,50,50,2205.8859400022775,2207.885385655769,right,1,4,0.8530089978594333,H10K03,2022-09-21_10h40.24.246,t1_Paradigm,2021.1.4,60.037056303033175,
Y,left,Pretarget,0,51,51,51,2209.385708062153,2211.385483821301,left,1,4,0.9369049116212409,H10K03,2022-09-21_10h40.24.246,t1_Paradigm,2021.1.4,60.037056303033175,
W,left,Pretarget,0,52,52,52,2212.885197344789,2214.886850118579,left,1,4,0.8275924680638127,H10K03,2022-09-21_10h40.24.246,t1_Paradigm,2021.1.4,60.037056303033175,
Z,left,Distractor,0,53,53,53,2216.386125426041,2218.385580062022,left,1,4,0.7687377453548834,H10K03,2022-09-21_10h40.24.246,t1_Paradigm,2021.1.4,60.037056303033175,
Q,left,Distractor,0,54,54,54,2219.885738859186,2221.887791352725,left,1,4,0.611019432923058,H10K03,2022-09-21_10h40.24.246,t1_Paradigm,2021.1.4,60.037056303033175,
Y,right,Target,0,55,55,55,2223.3858283630398,2225.3857799218968,right,1,4,0.8087212689570151,H10K03,2022-09-21_10h40.24.246,t1_Paradigm,2021.1.4,60.037056303033175,
W,right,Target,0,56,56,56,2226.886033997347,2228.8859335862217,right,1,4,0.8128378048713785,H10K03,2022-09-21_10h40.24.246,t1_Paradigm,2021.1.4,60.037056303033175,
H,left,Pretarget,0,57,57,57,2230.3859550799825,2232.3862319324107,left,1,4,0.7681121807254385,H10K03,2022-09-21_10h40.24.246,t1_Paradigm,2021.1.4,60.037056303033175,
M,left,Distractor,0,58,58,58,2233.8860211652645,2235.8871914522897,left,1,4,0.9474657254759222,H10K03,2022-09-21_10h40.24.246,t1_Paradigm,2021.1.4,60.037056303033175,
R,left,Pretarget,0,59,59,59,2237.3860349597526,2239.3874419989297,left,1,4,0.7270170769479591,H10K03,2022-09-21_10h40.24.246,t1_Paradigm,2021.1.4,60.037056303033175,
J,left,Distractor,0,60,60,60,2240.886175791995,2242.8873842545145,left,1,4,0.8113483195193112,H10K03,2022-09-21_10h40.24.246,t1_Paradigm,2021.1.4,60.037056303033175,
H,right,Target,0,61,61,61,2244.3857051749364,2246.385063891008,right,1,4,0.8013700827141292,H10K03,2022-09-21_10h40.24.246,t1_Paradigm,2021.1.4,60.037056303033175,
Z,left,Distractor,0,62,62,62,2247.885855310451,2249.887941167428,left,1,4,0.7065684925764799,H10K03,2022-09-21_10h40.24.246,t1_Paradigm,2021.1.4,60.037056303033175,
R,right,Target,0,63,63,63,2251.3860773056804,2253.3871664297185,right,1,4,0.6316354761365801,H10K03,2022-09-21_10h40.24.246,t1_Paradigm,2021.1.4,60.037056303033175,
J,left,Pretarget,0,0,0,0,2304.3104914563883,2306.302871758613,None,0,4,,H10K03,2022-09-21_10h40.24.246,t1_Paradigm,2021.1.4,60.037056303033175,
G,left,Pretarget,0,1,1,1,2307.8024842293526,2309.8035759198247,None,0,4,,H10K03,2022-09-21_10h40.24.246,t1_Paradigm,2021.1.4,60.037056303033175,
Z,left,Distractor,0,2,2,2,2311.3027607609984,2313.30247139727,None,0,4,,H10K03,2022-09-21_10h40.24.246,t1_Paradigm,2021.1.4,60.037056303033175,
F,left,Distractor,0,3,3,3,2314.8026994877437,2316.8040077197948,None,0,4,,H10K03,2022-09-21_10h40.24.246,t1_Paradigm,2021.1.4,60.037056303033175,
J,right,Target,0,4,4,4,2318.302801823709,2320.303540952358,right,1,4,0.5471175265847705,H10K03,2022-09-21_10h40.24.246,t1_Paradigm,2021.1.4,60.037056303033175,
G,right,Target,0,5,5,5,2321.8024049911764,2323.8026385353005,None,0,4,,H10K03,2022-09-21_10h40.24.246,t1_Paradigm,2021.1.4,60.037056303033175,
H,left,Distractor,0,6,6,6,2325.3024880790035,2327.3041260958707,left,1,4,0.9225358528783545,H10K03,2022-09-21_10h40.24.246,t1_Paradigm,2021.1.4,60.037056303033175,
P,left,Distractor,0,7,7,7,2328.8025108559523,2330.804652853345,left,1,4,0.5898006020870525,H10K03,2022-09-21_10h40.24.246,t1_Paradigm,2021.1.4,60.037056303033175,
G,left,Lure,0,8,8,8,2332.302611267107,2334.302854114503,left,1,4,0.9320819688437041,H10K03,2022-09-21_10h40.24.246,t1_Paradigm,2021.1.4,60.037056303033175,
S,left,Distractor,0,9,9,9,2335.8026436681394,2337.8042104668857,left,1,4,0.7104357650969177,H10K03,2022-09-21_10h40.24.246,t1_Paradigm,2021.1.4,60.037056303033175,
R,left,Pretarget,0,10,10,10,2339.30274151286,2341.3039740355453,left,1,4,1.0826537669927347,H10K03,2022-09-21_10h40.24.246,t1_Paradigm,2021.1.4,60.037056303033175,
T,left,Pretarget,0,11,11,11,2342.8027674978366,2344.8033908168436,left,1,4,1.1992657475639135,H10K03,2022-09-21_10h40.24.246,t1_Paradigm,2021.1.4,60.037056303033175,
X,left,Distractor,0,12,12,12,2346.302729643183,2348.3036679900833,left,1,4,0.7869160113623366,H10K03,2022-09-21_10h40.24.246,t1_Paradigm,2021.1.4,60.037056303033175,
F,left,Pretarget,0,13,13,13,2349.802767177054,2351.8044687127986,left,1,4,1.0783017620851751,H10K03,2022-09-21_10h40.24.246,t1_Paradigm,2021.1.4,60.037056303033175,
R,right,Target,0,14,14,14,2353.3025743748294,2355.304427008494,right,1,4,0.6501496222335845,H10K03,2022-09-21_10h40.24.246,t1_Paradigm,2021.1.4,60.037056303033175,
T,right,Target,0,15,15,15,2356.802232078713,2358.8025987558067,None,0,4,,H10K03,2022-09-21_10h40.24.246,t1_Paradigm,2021.1.4,60.037056303033175,
C,left,Distractor,0,16,16,16,2360.3026600290614,2362.3030048916116,left,1,4,1.4596382504096255,H10K03,2022-09-21_10h40.24.246,t1_Paradigm,2021.1.4,60.037056303033175,
F,right,Target,0,17,17,17,2363.8022028856794,2365.803593243152,right,1,4,1.2710433519387152,H10K03,2022-09-21_10h40.24.246,t1_Paradigm,2021.1.4,60.037056303033175,
M,left,Distractor,0,18,18,18,2367.3024887205975,2369.3034123106045,left,1,4,0.9712721481919289,H10K03,2022-09-21_10h40.24.246,t1_Paradigm,2021.1.4,60.037056303033175,
N,left,Distractor,0,19,19,19,2370.802617362351,2372.8023292818107,left,1,4,0.8964116330607794,H10K03,2022-09-21_10h40.24.246,t1_Paradigm,2021.1.4,60.037056303033175,
R,left,Lure,0,20,20,20,2374.302939127112,2376.3047583973384,left,1,4,0.5780374209571164,H10K03,2022-09-21_10h40.24.246,t1_Paradigm,2021.1.4,60.037056303033175,
F,right,Target,0,21,21,21,2377.8025496730406,2379.8035027768638,right,1,4,0.615056089067366,H10K03,2022-09-21_10h40.24.246,t1_Paradigm,2021.1.4,60.037056303033175,
P,left,Distractor,0,22,22,22,2381.3027347760217,2383.303002004366,None,0,4,,H10K03,2022-09-21_10h40.24.246,t1_Paradigm,2021.1.4,60.037056303033175,
L,left,Pretarget,0,23,23,23,2384.8029262950295,2386.80322496203,None,0,4,,H10K03,2022-09-21_10h40.24.246,t1_Paradigm,2021.1.4,60.037056303033175,
T,left,Distractor,0,24,24,24,2388.3028740042355,2390.3043580359663,None,0,4,,H10K03,2022-09-21_10h40.24.246,t1_Paradigm,2021.1.4,60.037056303033175,
F,left,Distractor,0,25,25,25,2391.8024540739425,2393.8023770813597,left,1,4,1.0167779636976775,H10K03,2022-09-21_10h40.24.246,t1_Paradigm,2021.1.4,60.037056303033175,
V,left,Distractor,0,26,26,26,2395.3025522394746,2397.30302413975,left,1,4,0.7798221086559352,H10K03,2022-09-21_10h40.24.246,t1_Paradigm,2021.1.4,60.037056303033175,
L,right,Target,0,27,27,27,2398.8026648410887,2400.8026824852277,right,1,4,1.3279379722080193,H10K03,2022-09-21_10h40.24.246,t1_Paradigm,2021.1.4,60.037056303033175,
S,left,Pretarget,0,28,28,28,2402.302649442572,2404.3050868989376,left,1,4,0.9456724402552936,H10K03,2022-09-21_10h40.24.246,t1_Paradigm,2021.1.4,60.037056303033175,
W,left,Distractor,0,29,29,29,2405.8026606706553,2407.8041180758155,left,1,4,0.6786846717877779,H10K03,2022-09-21_10h40.24.246,t1_Paradigm,2021.1.4,60.037056303033175,
Q,left,Distractor,0,30,30,30,2409.3026555378165,2411.303017723694,left,1,4,0.9876282567856833,H10K03,2022-09-21_10h40.24.246,t1_Paradigm,2021.1.4,60.037056303033175,
L,right,Target,0,31,31,31,2412.8027739138925,2414.8024470162927,right,1,4,0.8324199020571541,H10K03,2022-09-21_10h40.24.246,t1_Paradigm,2021.1.4,60.037056303033175,
S,right,Target,0,32,32,32,2416.302482625353,2418.3036442507,left,0,4,1.1550970363023225,H10K03,2022-09-21_10h40.24.246,t1_Paradigm,2021.1.4,60.037056303033175,
Z,left,Pretarget,0,33,33,33,2419.802965112118,2421.8155803443224,left,1,4,1.1791985972085968,H10K03,2022-09-21_10h40.24.246,t1_Paradigm,2021.1.4,60.037056303033175,
F,left,Distractor,0,34,34,34,2423.302715527854,2425.3031983354304,left,1,4,1.1476197747688275,H10K03,2022-09-21_10h40.24.246,t1_Paradigm,2021.1.4,60.037056303033175,
V,left,Distractor,0,35,35,35,2426.802365532494,2428.8035855438793,left,1,4,1.2632751226774417,H10K03,2022-09-21_10h40.24.246,t1_Paradigm,2021.1.4,60.037056303033175,
M,left,Distractor,0,36,36,36,2430.302882986696,2432.304483469692,None,0,4,,H10K03,2022-09-21_10h40.24.246,t1_Paradigm,2021.1.4,60.037056303033175,
Z,right,Target,0,37,37,37,2433.802862455341,2435.803005212394,right,1,4,1.0478957931336481,H10K03,2022-09-21_10h40.24.246,t1_Paradigm,2021.1.4,60.037056303033175,
H,left,Pretarget,0,38,38,38,2437.30292276619,2439.303701674333,left,1,4,1.4349910047021694,H10K03,2022-09-21_10h40.24.246,t1_Paradigm,2021.1.4,60.037056303033175,
L,left,Distractor,0,39,39,39,2440.8027472872927,2442.8038152383815,left,1,4,1.4389166632317938,H10K03,2022-09-21_10h40.24.246,t1_Paradigm,2021.1.4,60.037056303033175,
G,left,Distractor,0,40,40,40,2444.302398895932,2446.3033914584375,left,1,4,1.4594095183128957,H10K03,2022-09-21_10h40.24.246,t1_Paradigm,2021.1.4,60.037056303033175,
K,left,Distractor,0,41,41,41,2447.8028890819405,2449.804636492423,left,1,4,0.5819534554320853,H10K03,2022-09-21_10h40.24.246,t1_Paradigm,2021.1.4,60.037056303033175,
H,right,Target,0,42,42,42,2451.3026417433284,2453.304321143718,left,0,4,0.714705965394387,H10K03,2022-09-21_10h40.24.246,t1_Paradigm,2021.1.4,60.037056303033175,
B,left,Distractor,0,43,43,43,2454.8030036083946,2456.804786948749,left,1,4,0.9900201592245139,H10K03,2022-09-21_10h40.24.246,t1_Paradigm,2021.1.4,60.037056303033175,
Z,left,Distractor,0,44,44,44,2458.303012911667,2460.3028027861146,left,1,4,0.6599940844171215,H10K03,2022-09-21_10h40.24.246,t1_Paradigm,2021.1.4,60.037056303033175,
T,left,Pretarget,0,45,45,45,2461.802977623389,2463.8037728924537,left,1,4,1.334866340883309,H10K03,2022-09-21_10h40.24.246,t1_Paradigm,2021.1.4,60.037056303033175,
H,right,Target,0,46,46,46,2465.3027171318827,2467.303624040156,right,1,4,0.9552089321659878,H10K03,2022-09-21_10h40.24.246,t1_Paradigm,2021.1.4,60.037056303033175,
F,left,Distractor,0,47,47,47,2468.802878816263,2470.8036250025616,None,0,4,,H10K03,2022-09-21_10h40.24.246,t1_Paradigm,2021.1.4,60.037056303033175,
R,left,Distractor,0,48,48,48,2472.3022237378464,2474.303591959935,None,0,4,,H10K03,2022-09-21_10h40.24.246,t1_Paradigm,2021.1.4,60.037056303033175,
T,right,Target,0,49,49,49,2475.8027998988982,2477.8035030976753,left,0,4,1.2712531567085534,H10K03,2022-09-21_10h40.24.246,t1_Paradigm,2021.1.4,60.037056303033175,
H,right,Target,0,50,50,50,2479.3030722601106,2481.3036044712353,right,1,4,1.2592336544767022,H10K03,2022-09-21_10h40.24.246,t1_Paradigm,2021.1.4,60.037056303033175,
Y,left,Pretarget,0,51,51,51,2482.803035367833,2484.8049704477016,left,1,4,0.7497051826212555,H10K03,2022-09-21_10h40.24.246,t1_Paradigm,2021.1.4,60.037056303033175,
H,left,Distractor,0,52,52,52,2486.3027152070717,2488.303204751486,left,1,4,1.0438479088770691,H10K03,2022-09-21_10h40.24.246,t1_Paradigm,2021.1.4,60.037056303033175,
S,left,Distractor,0,53,53,53,2489.8027562697534,2491.8042672488955,left,1,4,0.8225654950074386,H10K03,2022-09-21_10h40.24.246,t1_Paradigm,2021.1.4,60.037056303033175,
Q,left,Distractor,0,54,54,54,2493.3027745555155,2495.302828450309,left,1,4,0.8920188862539362,H10K03,2022-09-21_10h40.24.246,t1_Paradigm,2021.1.4,60.037056303033175,
Y,right,Target,0,55,55,55,2496.8025201592245,2498.80359452634,right,1,4,0.7831154657760635,H10K03,2022-09-21_10h40.24.246,t1_Paradigm,2021.1.4,60.037056303033175,
R,left,Distractor,0,56,56,56,2500.302754665754,2502.304208542075,left,1,4,0.8824410108791199,H10K03,2022-09-21_10h40.24.246,t1_Paradigm,2021.1.4,60.037056303033175,
H,left,Pretarget,0,57,57,57,2503.8025272168743,2505.8030340846162,left,1,4,1.1597589362645522,H10K03,2022-09-21_10h40.24.246,t1_Paradigm,2021.1.4,60.037056303033175,
J,left,Distractor,0,58,58,58,2507.3029551672225,2509.30333692205,left,1,4,0.9874377001833636,H10K03,2022-09-21_10h40.24.246,t1_Paradigm,2021.1.4,60.037056303033175,
V,left,Distractor,0,59,59,59,2510.802574695641,2512.8042319606466,left,1,4,1.0705970517010428,H10K03,2022-09-21_10h40.24.246,t1_Paradigm,2021.1.4,60.037056303033175,
Y,left,Lure,0,60,60,60,2514.302739588049,2516.304835389892,left,1,4,1.3779988605238032,H10K03,2022-09-21_10h40.24.246,t1_Paradigm,2021.1.4,60.037056303033175,
H,right,Target,0,61,61,61,2517.8023440387333,2519.803818767192,left,0,4,1.0953299516695552,H10K03,2022-09-21_10h40.24.246,t1_Paradigm,2021.1.4,60.037056303033175,
L,left,Distractor,0,62,62,62,2521.3027431168593,2523.3023389058944,left,1,4,0.6523532136634458,H10K03,2022-09-21_10h40.24.246,t1_Paradigm,2021.1.4,60.037056303033175,
P,left,Distractor,0,63,63,63,2524.802548710635,2526.802081622387,left,1,4,0.7046077485138085,H10K03,2022-09-21_10h40.24.246,t1_Paradigm,2021.1.4,60.037056303033175,
