Letter,CorrAnswer,Stimulus,finaln_nback_run.thisRepN,finaln_nback_run.thisTrialN,finaln_nback_run.thisN,finaln_nback_run.thisIndex,finaln_fixcross.started,finaln_nback_trial.started,finaln_trial_resp.keys,finaln_trial_resp.corr,finaln_trial_resp.rt,finaln_level,finaln_money,Participant,date,expName,psychopyVersion,frameRate,
F,left,Distractor,0,0,0,0,2897.4401101248804,2899.431651218969,left,1,0.5293909125612117,1,1.41,H10R02,2022-10-19_10h08.45.135,t1_Paradigm,2021.1.4,60.01332265386145,
T,left,Pretarget,0,1,1,1,2900.9299490437843,2902.931446547329,left,1,0.6136819466482848,1,1.41,H10R02,2022-10-19_10h08.45.135,t1_Paradigm,2021.1.4,60.01332265386145,
B,left,Distractor,0,2,2,2,2904.4301197104505,2906.429014547728,left,1,0.8440427718451247,1,1.41,H10R02,2022-10-19_10h08.45.135,t1_Paradigm,2021.1.4,60.01332265386145,
T,right,Target,0,3,3,3,2907.9297511089826,2909.932237003348,right,1,0.7486738047446124,1,1.41,H10R02,2022-10-19_10h08.45.135,t1_Paradigm,2021.1.4,60.01332265386145,
Z,left,Distractor,0,4,4,4,2911.430076722987,2913.431838246528,left,1,0.6572025812929496,1,1.41,H10R02,2022-10-19_10h08.45.135,t1_Paradigm,2021.1.4,60.01332265386145,
T,right,Target,0,5,5,5,2914.9299541766522,2916.932169634907,right,1,0.6129524430143647,1,1.41,H10R02,2022-10-19_10h08.45.135,t1_Paradigm,2021.1.4,60.01332265386145,
L,left,Distractor,0,6,6,6,2918.4298957907013,2920.4315979658277,left,1,0.5852361166616902,1,1.41,H10R02,2022-10-19_10h08.45.135,t1_Paradigm,2021.1.4,60.01332265386145,
T,right,Target,0,7,7,7,2921.9300606828765,2923.9313458155375,right,1,0.685530676972121,1,1.41,H10R02,2022-10-19_10h08.45.135,t1_Paradigm,2021.1.4,60.01332265386145,
Z,left,Lure,0,8,8,8,2925.430000692897,2927.431106818083,left,1,0.753835828974843,1,1.41,H10R02,2022-10-19_10h08.45.135,t1_Paradigm,2021.1.4,60.01332265386145,
J,left,Distractor,0,9,9,9,2928.9299397405703,2930.9313031488564,left,1,0.9016267225961201,1,1.41,H10R02,2022-10-19_10h08.45.135,t1_Paradigm,2021.1.4,60.01332265386145,
D,left,Pretarget,0,10,10,10,2932.4299464774085,2934.4426813525497,left,1,0.63823484495515,1,1.41,H10R02,2022-10-19_10h08.45.135,t1_Paradigm,2021.1.4,60.01332265386145,
H,left,Distractor,0,11,11,11,2935.930003900954,2937.932109965768,left,1,0.636839035723824,1,1.41,H10R02,2022-10-19_10h08.45.135,t1_Paradigm,2021.1.4,60.01332265386145,
D,right,Target,0,12,12,12,2939.4299852944096,2941.4319277502364,right,1,0.5292282659793273,1,1.41,H10R02,2022-10-19_10h08.45.135,t1_Paradigm,2021.1.4,60.01332265386145,
S,left,Distractor,0,13,13,13,2942.92994487338,2944.9319306374528,left,1,0.6131891948753037,1,1.41,H10R02,2022-10-19_10h08.45.135,t1_Paradigm,2021.1.4,60.01332265386145,
R,left,Pretarget,0,14,14,14,2946.4300882718526,2948.431586416962,left,1,0.7455366824287921,1,1.41,H10R02,2022-10-19_10h08.45.135,t1_Paradigm,2021.1.4,60.01332265386145,
Z,left,Distractor,0,15,15,15,2949.929984973627,2951.932050938194,left,1,0.7970440024510026,1,1.41,H10R02,2022-10-19_10h08.45.135,t1_Paradigm,2021.1.4,60.01332265386145,
R,right,Target,0,16,16,16,2953.4298560112366,2955.431541183905,right,1,0.5615872382186353,1,1.41,H10R02,2022-10-19_10h08.45.135,t1_Paradigm,2021.1.4,60.01332265386145,
T,left,Distractor,0,17,17,17,2956.9299936352763,2958.931229364418,left,1,0.6936764802085236,1,1.41,H10R02,2022-10-19_10h08.45.135,t1_Paradigm,2021.1.4,60.01332265386145,
M,left,Distractor,0,18,18,18,2960.4300167330075,2962.4320124419755,left,1,0.6168572444003075,1,1.41,H10R02,2022-10-19_10h08.45.135,t1_Paradigm,2021.1.4,60.01332265386145,
R,left,Lure,0,19,19,19,2963.929909264378,2965.9319325622637,left,1,0.5571110885939561,1,1.41,H10R02,2022-10-19_10h08.45.135,t1_Paradigm,2021.1.4,60.01332265386145,
J,left,Distractor,0,20,20,20,2967.4291204123874,2969.4320207828423,left,1,0.6890059245633893,1,1.41,H10R02,2022-10-19_10h08.45.135,t1_Paradigm,2021.1.4,60.01332265386145,
K,left,Distractor,0,21,21,21,2970.929850557586,2972.9316319708596,left,1,0.6614961946033873,1,1.41,H10R02,2022-10-19_10h08.45.135,t1_Paradigm,2021.1.4,60.01332265386145,
Z,left,Distractor,0,22,22,22,2974.42988327943,2976.431567168853,left,1,0.5693695728550665,1,1.41,H10R02,2022-10-19_10h08.45.135,t1_Paradigm,2021.1.4,60.01332265386145,
W,left,Pretarget,0,23,23,23,2977.929953214247,2979.931543108716,left,1,0.7013702734839171,1,1.41,H10R02,2022-10-19_10h08.45.135,t1_Paradigm,2021.1.4,60.01332265386145,
Q,left,Distractor,0,24,24,24,2981.4299695751397,2983.431609193911,left,1,0.5135596569743939,1,1.41,H10R02,2022-10-19_10h08.45.135,t1_Paradigm,2021.1.4,60.01332265386145,
W,right,Target,0,25,25,25,2984.9299044523505,2986.9319598304573,right,1,0.48513820790685713,1,1.41,H10R02,2022-10-19_10h08.45.135,t1_Paradigm,2021.1.4,60.01332265386145,
D,left,Pretarget,0,26,26,26,2988.429648131598,2990.4321680309367,left,1,0.5046304553980008,1,1.41,H10R02,2022-10-19_10h08.45.135,t1_Paradigm,2021.1.4,60.01332265386145,
W,right,Target,0,27,27,27,2991.9299670087057,2993.9319303166703,right,1,0.573129371739924,1,1.41,H10R02,2022-10-19_10h08.45.135,t1_Paradigm,2021.1.4,60.01332265386145,
D,right,Target,0,28,28,28,2995.4299689335166,2997.4320470885723,right,1,0.7528185659903102,1,1.41,H10R02,2022-10-19_10h08.45.135,t1_Paradigm,2021.1.4,60.01332265386145,
L,left,Pretarget,0,29,29,29,2998.9300411139848,3000.931396181404,left,1,0.5976623803144321,1,1.41,H10R02,2022-10-19_10h08.45.135,t1_Paradigm,2021.1.4,60.01332265386145,
P,left,Distractor,0,30,30,30,3002.429689515033,3004.4318587778253,left,1,0.5850016104523093,1,1.41,H10R02,2022-10-19_10h08.45.135,t1_Paradigm,2021.1.4,60.01332265386145,
L,right,Target,0,31,31,31,3005.9298807129962,3007.9317294946522,right,1,0.5253622816526331,1,1.41,H10R02,2022-10-19_10h08.45.135,t1_Paradigm,2021.1.4,60.01332265386145,
R,left,Distractor,0,32,32,32,3009.4297209536307,3011.4320932840346,left,1,0.6728923632763326,1,1.41,H10R02,2022-10-19_10h08.45.135,t1_Paradigm,2021.1.4,60.01332265386145,
V,left,Distractor,0,33,33,33,3012.9299176051863,3014.931985173782,left,1,0.6770053650834598,1,1.41,H10R02,2022-10-19_10h08.45.135,t1_Paradigm,2021.1.4,60.01332265386145,
L,left,Lure,0,34,34,34,3016.429931078921,3018.431037845614,left,1,0.60185012902366,1,1.41,H10R02,2022-10-19_10h08.45.135,t1_Paradigm,2021.1.4,60.01332265386145,
H,left,Distractor,0,35,35,35,3019.929910868348,3021.9317952590645,left,1,0.44536550249904394,1,1.41,H10R02,2022-10-19_10h08.45.135,t1_Paradigm,2021.1.4,60.01332265386145,
K,left,Pretarget,0,36,36,36,3023.4299063771614,3025.4308453644626,left,1,0.5783934110077098,1,1.41,H10R02,2022-10-19_10h08.45.135,t1_Paradigm,2021.1.4,60.01332265386145,
F,left,Distractor,0,37,37,37,3026.93001192098,3028.9317330234917,left,1,0.5974532174295746,1,1.41,H10R02,2022-10-19_10h08.45.135,t1_Paradigm,2021.1.4,60.01332265386145,
K,right,Target,0,38,38,38,3030.429624713026,3032.430066136527,right,1,0.6347547853947617,1,1.41,H10R02,2022-10-19_10h08.45.135,t1_Paradigm,2021.1.4,60.01332265386145,
S,left,Pretarget,0,39,39,39,3033.930020261847,3035.93136730924,left,1,0.5896471434971318,1,1.41,H10R02,2022-10-19_10h08.45.135,t1_Paradigm,2021.1.4,60.01332265386145,
W,left,Distractor,0,40,40,40,3037.4297568834154,3039.4321215146338,left,1,0.6728833807865158,1,1.41,H10R02,2022-10-19_10h08.45.135,t1_Paradigm,2021.1.4,60.01332265386145,
S,right,Target,0,41,41,41,3040.9299503270304,3042.929067159246,right,1,0.6640366252977401,1,1.41,H10R02,2022-10-19_10h08.45.135,t1_Paradigm,2021.1.4,60.01332265386145,
F,left,Pretarget,0,42,42,42,3044.4300770437694,3046.4290950690047,left,1,0.6841954992851242,1,1.41,H10R02,2022-10-19_10h08.45.135,t1_Paradigm,2021.1.4,60.01332265386145,
Y,left,Distractor,0,43,43,43,3047.929948081379,3049.930143770587,left,1,0.6067911207210273,1,1.41,H10R02,2022-10-19_10h08.45.135,t1_Paradigm,2021.1.4,60.01332265386145,
F,right,Target,0,44,44,44,3051.4301155400462,3053.4323428680073,right,1,0.5287695192382671,1,1.41,H10R02,2022-10-19_10h08.45.135,t1_Paradigm,2021.1.4,60.01332265386145,
F,left,Lure,0,45,45,45,3054.930055870849,3056.9298528032377,left,1,0.5672461847425438,1,1.41,H10R02,2022-10-19_10h08.45.135,t1_Paradigm,2021.1.4,60.01332265386145,
B,left,Pretarget,0,46,46,46,3058.42992915411,3060.4307908281335,left,1,0.6500948931789026,1,1.41,H10R02,2022-10-19_10h08.45.135,t1_Paradigm,2021.1.4,60.01332265386145,
W,left,Distractor,0,47,47,47,3061.929919850838,3063.931578396936,left,1,0.6533099703956395,1,1.41,H10R02,2022-10-19_10h08.45.135,t1_Paradigm,2021.1.4,60.01332265386145,
B,right,Target,0,48,48,48,3065.4299394197296,3067.4291794399032,right,1,0.5639515486545861,1,1.41,H10R02,2022-10-19_10h08.45.135,t1_Paradigm,2021.1.4,60.01332265386145,
R,left,Pretarget,0,49,49,49,3068.9300379059277,3070.930407469801,left,1,0.662693748367019,1,1.41,H10R02,2022-10-19_10h08.45.135,t1_Paradigm,2021.1.4,60.01332265386145,
N,left,Distractor,0,50,50,50,3072.4296808533836,3074.432158406882,left,1,0.6006872219732031,1,1.41,H10R02,2022-10-19_10h08.45.135,t1_Paradigm,2021.1.4,60.01332265386145,
R,right,Target,0,51,51,51,3075.9299358909484,3077.9307128732326,right,1,0.5263301411177963,1,1.41,H10R02,2022-10-19_10h08.45.135,t1_Paradigm,2021.1.4,60.01332265386145,
V,left,Distractor,0,52,52,52,3079.430034056306,3081.4321940158843,left,1,0.5449145191232674,1,1.41,H10R02,2022-10-19_10h08.45.135,t1_Paradigm,2021.1.4,60.01332265386145,
G,left,Distractor,0,53,53,53,3082.929915359593,3084.9319107477786,left,1,0.6451863024849445,1,1.41,H10R02,2022-10-19_10h08.45.135,t1_Paradigm,2021.1.4,60.01332265386145,
H,left,Distractor,0,54,54,54,3086.4298925826442,3088.4316521813744,left,1,0.6655498481122777,1,1.41,H10R02,2022-10-19_10h08.45.135,t1_Paradigm,2021.1.4,60.01332265386145,
V,left,Lure,0,55,55,55,3089.9291662870673,3091.9318202816066,left,1,0.5891967375646345,1,1.41,H10R02,2022-10-19_10h08.45.135,t1_Paradigm,2021.1.4,60.01332265386145,
L,left,Distractor,0,56,56,56,3093.429788642854,3095.4320211036247,left,1,0.5131044389563613,1,1.41,H10R02,2022-10-19_10h08.45.135,t1_Paradigm,2021.1.4,60.01332265386145,
K,left,Distractor,0,57,57,57,3096.9289439712884,3098.931281975936,left,1,0.5979334579315037,1,1.41,H10R02,2022-10-19_10h08.45.135,t1_Paradigm,2021.1.4,60.01332265386145,
D,left,Pretarget,0,58,58,58,3100.4300279610907,3102.429600332107,left,1,0.5552061666385271,1,1.41,H10R02,2022-10-19_10h08.45.135,t1_Paradigm,2021.1.4,60.01332265386145,
T,left,Pretarget,0,59,59,59,3103.9298659560736,3105.9291605125763,left,1,0.48030019365251064,1,1.41,H10R02,2022-10-19_10h08.45.135,t1_Paradigm,2021.1.4,60.01332265386145,
D,right,Target,0,60,60,60,3107.4300218658755,3109.430991329369,right,1,0.4978871983475983,1,1.41,H10R02,2022-10-19_10h08.45.135,t1_Paradigm,2021.1.4,60.01332265386145,
T,right,Target,0,61,61,61,3110.9300539460382,3112.9314494345454,right,1,0.6777906882343814,1,1.41,H10R02,2022-10-19_10h08.45.135,t1_Paradigm,2021.1.4,60.01332265386145,
T,left,Lure,0,62,62,62,3114.430001976143,3116.429929795675,left,1,0.6029193619615398,1,1.41,H10R02,2022-10-19_10h08.45.135,t1_Paradigm,2021.1.4,60.01332265386145,
F,left,Distractor,0,63,63,63,3117.92994487338,3119.931859098666,left,1,0.5250418005161919,1,1.41,H10R02,2022-10-19_10h08.45.135,t1_Paradigm,2021.1.4,60.01332265386145,
