Letter,CorrAnswer,Stimulus,nback_run.thisRepN,nback_run.thisTrialN,nback_run.thisN,nback_run.thisIndex,fixcross.started,nback_trial.started,trial_resp.keys,trial_resp.corr,currentlevel,trial_resp.rt,Participant,date,expName,psychopyVersion,frameRate,
H,left,Distractor,0,0,0,0,245.3401309128385,247.2821770775481,None,0,1,,H10R02,2022-10-19_10h08.45.135,t1_Paradigm,2021.1.4,60.01332265386145,
Q,left,Pretarget,0,1,1,1,248.7844656786765,250.7841663704603,left,1,1,0.5373054175288416,H10R02,2022-10-19_10h08.45.135,t1_Paradigm,2021.1.4,60.01332265386145,
Q,right,Target,0,2,2,2,252.28076298249653,254.28075047122547,right,1,1,0.6567165663582273,H10R02,2022-10-19_10h08.45.135,t1_Paradigm,2021.1.4,60.01332265386145,
T,left,Distractor,0,3,3,3,255.78083323815372,257.7829431525897,left,1,1,0.5465714611927979,H10R02,2022-10-19_10h08.45.135,t1_Paradigm,2021.1.4,60.01332265386145,
Q,left,Lure,0,4,4,4,259.2808463910478,261.282803603739,left,1,1,1.0787591252592392,H10R02,2022-10-19_10h08.45.135,t1_Paradigm,2021.1.4,60.01332265386145,
L,left,Distractor,0,5,5,5,262.7808165564202,264.78025868185796,left,1,1,0.8772451324621215,H10R02,2022-10-19_10h08.45.135,t1_Paradigm,2021.1.4,60.01332265386145,
V,left,Pretarget,0,6,6,6,266.2809240251081,268.2832248167251,left,1,1,0.5901552938157693,H10R02,2022-10-19_10h08.45.135,t1_Paradigm,2021.1.4,60.01332265386145,
V,right,Target,0,7,7,7,269.7809374987846,271.78076330333715,right,1,1,0.7886101191397756,H10R02,2022-10-19_10h08.45.135,t1_Paradigm,2021.1.4,60.01332265386145,
K,left,Distractor,0,8,8,8,273.2808428622084,275.2827465009759,left,1,1,0.5825776308774948,H10R02,2022-10-19_10h08.45.135,t1_Paradigm,2021.1.4,60.01332265386145,
G,left,Pretarget,0,9,9,9,276.78093332838034,278.7828003957402,left,1,1,0.7469485318288207,H10R02,2022-10-19_10h08.45.135,t1_Paradigm,2021.1.4,60.01332265386145,
G,right,Target,0,10,10,10,280.28077645623125,282.28064171940787,right,1,1,0.5287926169694401,H10R02,2022-10-19_10h08.45.135,t1_Paradigm,2021.1.4,60.01332265386145,
G,right,Target,0,11,11,11,283.7807976291515,285.7975226389826,right,1,1,0.6279678992577828,H10R02,2022-10-19_10h08.45.135,t1_Paradigm,2021.1.4,60.01332265386145,
P,left,Pretarget,0,12,12,12,287.27990323328413,289.28274970903294,left,1,1,0.5186324982787482,H10R02,2022-10-19_10h08.45.135,t1_Paradigm,2021.1.4,60.01332265386145,
P,right,Target,0,13,13,13,290.78076169930864,292.7809198547038,right,1,1,0.5405054170987569,H10R02,2022-10-19_10h08.45.135,t1_Paradigm,2021.1.4,60.01332265386145,
G,left,Lure,0,14,14,14,294.2809047769988,296.28209431061987,left,1,1,0.687261724320706,H10R02,2022-10-19_10h08.45.135,t1_Paradigm,2021.1.4,60.01332265386145,
Y,left,Distractor,0,15,15,15,297.7808492782642,299.7827436137595,left,1,1,0.6107247942709364,H10R02,2022-10-19_10h08.45.135,t1_Paradigm,2021.1.4,60.01332265386145,
B,left,Distractor,0,16,16,16,301.2808418998029,303.28283953358186,left,1,1,0.4546058819978498,H10R02,2022-10-19_10h08.45.135,t1_Paradigm,2021.1.4,60.01332265386145,
T,left,Pretarget,0,17,17,17,304.7807992331218,306.78275002981536,left,1,1,0.5546136453631334,H10R02,2022-10-19_10h08.45.135,t1_Paradigm,2021.1.4,60.01332265386145,
T,right,Target,0,18,18,18,308.280767152959,310.2808560151025,right,1,1,0.7206103706848808,H10R02,2022-10-19_10h08.45.135,t1_Paradigm,2021.1.4,60.01332265386145,
S,left,Distractor,0,19,19,19,311.7807787018246,313.7834429620416,left,1,1,0.5940523958997801,H10R02,2022-10-19_10h08.45.135,t1_Paradigm,2021.1.4,60.01332265386145,
T,left,Lure,0,20,20,20,315.28092145867413,317.2827606162755,left,1,1,0.7747017504298128,H10R02,2022-10-19_10h08.45.135,t1_Paradigm,2021.1.4,60.01332265386145,
J,left,Distractor,0,21,21,21,318.7807010677643,320.78280135814566,left,1,1,0.9066572180017829,H10R02,2022-10-19_10h08.45.135,t1_Paradigm,2021.1.4,60.01332265386145,
P,left,Distractor,0,22,22,22,322.2807347519556,324.2825787215843,left,1,1,0.6388523887726478,H10R02,2022-10-19_10h08.45.135,t1_Paradigm,2021.1.4,60.01332265386145,
F,left,Distractor,0,23,23,23,325.7808489574236,327.7827179496526,left,1,1,0.6588194231735542,H10R02,2022-10-19_10h08.45.135,t1_Paradigm,2021.1.4,60.01332265386145,
L,left,Distractor,0,24,24,24,329.28090445615817,331.2821636038716,left,1,1,0.6150947584537789,H10R02,2022-10-19_10h08.45.135,t1_Paradigm,2021.1.4,60.01332265386145,
W,left,Pretarget,0,25,25,25,332.78082906774944,334.7827978293062,left,1,1,0.5706303244805895,H10R02,2022-10-19_10h08.45.135,t1_Paradigm,2021.1.4,60.01332265386145,
W,right,Target,0,26,26,26,336.2808313133428,338.28082778450334,right,1,1,0.6565179899334908,H10R02,2022-10-19_10h08.45.135,t1_Paradigm,2021.1.4,60.01332265386145,
V,left,Distractor,0,27,27,27,339.7807697193348,341.7825790423667,left,1,1,0.6427616813452914,H10R02,2022-10-19_10h08.45.135,t1_Paradigm,2021.1.4,60.01332265386145,
W,left,Lure,0,28,28,28,343.2809063809691,345.2826419195626,left,1,1,0.8068217252148315,H10R02,2022-10-19_10h08.45.135,t1_Paradigm,2021.1.4,60.01332265386145,
R,left,Pretarget,0,29,29,29,346.7807979499339,348.78339131292887,left,1,1,0.6019646553322673,H10R02,2022-10-19_10h08.45.135,t1_Paradigm,2021.1.4,60.01332265386145,
R,right,Target,0,30,30,30,350.28094519802835,352.28069272689754,right,1,1,0.5286161758122034,H10R02,2022-10-19_10h08.45.135,t1_Paradigm,2021.1.4,60.01332265386145,
G,left,Distractor,0,31,31,31,353.7806596842711,355.7823191927746,left,1,1,0.6110808844096027,H10R02,2022-10-19_10h08.45.135,t1_Paradigm,2021.1.4,60.01332265386145,
R,left,Lure,0,32,32,32,357.2807864010683,359.2827076839749,left,1,1,0.7907803443376906,H10R02,2022-10-19_10h08.45.135,t1_Paradigm,2021.1.4,60.01332265386145,
S,left,Distractor,0,33,33,33,360.78079987474484,362.7831818292616,left,1,1,1.2584640387212858,H10R02,2022-10-19_10h08.45.135,t1_Paradigm,2021.1.4,60.01332265386145,
R,left,Lure,0,34,34,34,364.2809971679235,366.282776656386,left,1,1,0.9589139313902706,H10R02,2022-10-19_10h08.45.135,t1_Paradigm,2021.1.4,60.01332265386145,
P,left,Pretarget,0,35,35,35,367.78080436598975,369.78232753364136,left,1,1,0.7231414980487898,H10R02,2022-10-19_10h08.45.135,t1_Paradigm,2021.1.4,60.01332265386145,
P,right,Target,0,36,36,36,371.28075560409343,373.2808165564202,right,1,1,0.6966933017829433,H10R02,2022-10-19_10h08.45.135,t1_Paradigm,2021.1.4,60.01332265386145,
Y,left,Pretarget,0,37,37,37,374.7809355739737,376.78276446589734,left,1,1,0.5066877583158202,H10R02,2022-10-19_10h08.45.135,t1_Paradigm,2021.1.4,60.01332265386145,
Y,right,Target,0,38,38,38,378.28075752890436,380.2808390125865,right,1,1,0.6884830173803493,H10R02,2022-10-19_10h08.45.135,t1_Paradigm,2021.1.4,60.01332265386145,
J,left,Distractor,0,39,39,39,381.7809089474031,383.7826374283177,left,1,1,0.7707847585552372,H10R02,2022-10-19_10h08.45.135,t1_Paradigm,2021.1.4,60.01332265386145,
Y,left,Lure,0,40,40,40,385.28077806020156,387.282612726558,left,1,1,0.66289617435541,H10R02,2022-10-19_10h08.45.135,t1_Paradigm,2021.1.4,60.01332265386145,
T,left,Distractor,0,41,41,41,388.78076651133597,390.7824792729807,left,1,1,0.6188799007213674,H10R02,2022-10-19_10h08.45.135,t1_Paradigm,2021.1.4,60.01332265386145,
V,left,Distractor,0,42,42,42,392.2808066115831,394.2825495285797,left,1,1,0.6228251231368631,H10R02,2022-10-19_10h08.45.135,t1_Paradigm,2021.1.4,60.01332265386145,
N,left,Pretarget,0,43,43,43,395.78009411046514,397.7827487466275,left,1,1,0.6266048117540777,H10R02,2022-10-19_10h08.45.135,t1_Paradigm,2021.1.4,60.01332265386145,
N,right,Target,0,44,44,44,399.2807536792825,401.2808252181276,right,1,1,0.5526554702664725,H10R02,2022-10-19_10h08.45.135,t1_Paradigm,2021.1.4,60.01332265386145,
N,right,Target,0,45,45,45,402.7807864010683,404.78093493235065,right,1,1,0.7166118950699456,H10R02,2022-10-19_10h08.45.135,t1_Paradigm,2021.1.4,60.01332265386145,
X,left,Distractor,0,46,46,46,406.28087462158874,408.28272629046114,left,1,1,0.6066724240081385,H10R02,2022-10-19_10h08.45.135,t1_Paradigm,2021.1.4,60.01332265386145,
Z,left,Distractor,0,47,47,47,409.7807873634738,411.7827243656502,left,1,1,0.6588146111462265,H10R02,2022-10-19_10h08.45.135,t1_Paradigm,2021.1.4,60.01332265386145,
H,left,Pretarget,0,48,48,48,413.28090990980854,415.2827590123052,left,1,1,0.6627781192655675,H10R02,2022-10-19_10h08.45.135,t1_Paradigm,2021.1.4,60.01332265386145,
H,right,Target,0,49,49,49,416.7808707719669,418.7807158246287,right,1,1,0.7327431005542167,H10R02,2022-10-19_10h08.45.135,t1_Paradigm,2021.1.4,60.01332265386145,
K,left,Distractor,0,50,50,50,420.28063145373017,422.2823442153749,left,1,1,0.7190365162095986,H10R02,2022-10-19_10h08.45.135,t1_Paradigm,2021.1.4,60.01332265386145,
V,left,Pretarget,0,51,51,51,423.7807892882847,425.78261368896347,left,1,1,0.6426785936928354,H10R02,2022-10-19_10h08.45.135,t1_Paradigm,2021.1.4,60.01332265386145,
V,right,Target,0,52,52,52,427.2809150426765,429.28080725320615,right,1,1,0.7444815647904761,H10R02,2022-10-19_10h08.45.135,t1_Paradigm,2021.1.4,60.01332265386145,
R,left,Distractor,0,53,53,53,430.7807652281481,432.79358062456595,left,1,1,0.8959751545335166,H10R02,2022-10-19_10h08.45.135,t1_Paradigm,2021.1.4,60.01332265386145,
V,left,Lure,0,54,54,54,434.2807158246287,436.2825145612005,left,1,1,0.7828064909554087,H10R02,2022-10-19_10h08.45.135,t1_Paradigm,2021.1.4,60.01332265386145,
Y,left,Distractor,0,55,55,55,437.78075720806373,439.78258289198857,left,1,1,1.0427317825960927,H10R02,2022-10-19_10h08.45.135,t1_Paradigm,2021.1.4,60.01332265386145,
Q,left,Distractor,0,56,56,56,441.28089804016054,443.28248119779164,left,1,1,0.566660400305409,H10R02,2022-10-19_10h08.45.135,t1_Paradigm,2021.1.4,60.01332265386145,
Z,left,Pretarget,0,57,57,57,444.78064011537936,446.7821992128738,left,1,1,0.49124403152382,H10R02,2022-10-19_10h08.45.135,t1_Paradigm,2021.1.4,60.01332265386145,
Z,right,Target,0,58,58,58,448.28079281712417,450.28072544868337,right,1,1,0.5603928925120272,H10R02,2022-10-19_10h08.45.135,t1_Paradigm,2021.1.4,60.01332265386145,
B,left,Distractor,0,59,59,59,451.7799394839094,453.779836827307,left,1,1,0.5340467113419436,H10R02,2022-10-19_10h08.45.135,t1_Paradigm,2021.1.4,60.01332265386145,
S,left,Pretarget,0,60,60,60,455.280796666746,457.2823512729956,left,1,1,0.5828894503647462,H10R02,2022-10-19_10h08.45.135,t1_Paradigm,2021.1.4,60.01332265386145,
S,right,Target,0,61,61,61,458.7809888271149,460.7808005163679,right,1,1,0.796778378484305,H10R02,2022-10-19_10h08.45.135,t1_Paradigm,2021.1.4,60.01332265386145,
T,left,Distractor,0,62,62,62,462.28079410031205,464.2825498494203,left,1,1,0.6549040352692828,H10R02,2022-10-19_10h08.45.135,t1_Paradigm,2021.1.4,60.01332265386145,
D,left,Distractor,0,63,63,63,465.78073378955014,467.78246259124717,left,1,1,0.5470978972152807,H10R02,2022-10-19_10h08.45.135,t1_Paradigm,2021.1.4,60.01332265386145,
R,left,Distractor,0,0,0,0,499.1214966822299,501.11554773082025,left,1,1,0.6858161907293834,H10R02,2022-10-19_10h08.45.135,t1_Paradigm,2021.1.4,60.01332265386145,
V,left,Distractor,0,1,1,1,502.6141695656115,504.6134387787897,left,1,1,0.7079938714159653,H10R02,2022-10-19_10h08.45.135,t1_Paradigm,2021.1.4,60.01332265386145,
N,left,Pretarget,0,2,2,2,506.1141076508793,508.115893234557,left,1,1,0.5975889167166315,H10R02,2022-10-19_10h08.45.135,t1_Paradigm,2021.1.4,60.01332265386145,
N,right,Target,0,3,3,3,509.6141512799077,511.6142324428074,right,1,1,0.5072328008245677,H10R02,2022-10-19_10h08.45.135,t1_Paradigm,2021.1.4,60.01332265386145,
S,left,Distractor,0,4,4,4,513.1141018764465,515.1152801819844,left,1,1,0.6540558349806815,H10R02,2022-10-19_10h08.45.135,t1_Paradigm,2021.1.4,60.01332265386145,
N,left,Lure,0,5,5,5,516.6140867987415,518.6153741769958,left,1,1,0.8659375052084215,H10R02,2022-10-19_10h08.45.135,t1_Paradigm,2021.1.4,60.01332265386145,
Z,left,Distractor,0,6,6,6,520.1142625982175,522.1159471292631,left,1,1,0.6615532974246889,H10R02,2022-10-19_10h08.45.135,t1_Paradigm,2021.1.4,60.01332265386145,
L,left,Pretarget,0,7,7,7,523.6140941772028,525.6153360015596,left,1,1,0.6019755625748076,H10R02,2022-10-19_10h08.45.135,t1_Paradigm,2021.1.4,60.01332265386145,
L,right,Target,0,8,8,8,527.1139241521596,529.1138234203099,right,1,1,0.5595366721972823,H10R02,2022-10-19_10h08.45.135,t1_Paradigm,2021.1.4,60.01332265386145,
H,left,Distractor,0,9,9,9,530.6140928939567,532.6158114300342,left,1,1,0.5456568548106588,H10R02,2022-10-19_10h08.45.135,t1_Paradigm,2021.1.4,60.01332265386145,
L,left,Lure,0,10,10,10,534.1140768538462,536.1157864074921,left,1,1,0.5979401948279701,H10R02,2022-10-19_10h08.45.135,t1_Paradigm,2021.1.4,60.01332265386145,
X,left,Pretarget,0,11,11,11,537.6141625079908,539.6160895653302,left,1,1,0.5372787910164334,H10R02,2022-10-19_10h08.45.135,t1_Paradigm,2021.1.4,60.01332265386145,
X,right,Target,0,12,12,12,541.1141637911787,543.1142199315364,right,1,1,0.6071690254029818,H10R02,2022-10-19_10h08.45.135,t1_Paradigm,2021.1.4,60.01332265386145,
X,right,Target,0,13,13,13,544.6140961020137,546.6140701170079,right,1,1,0.627340089820791,H10R02,2022-10-19_10h08.45.135,t1_Paradigm,2021.1.4,60.01332265386145,
R,left,Distractor,0,14,14,14,548.1141772648552,550.1150097459322,left,1,1,0.5662818540004082,H10R02,2022-10-19_10h08.45.135,t1_Paradigm,2021.1.4,60.01332265386145,
T,left,Distractor,0,15,15,15,551.6140171847073,553.6155053849798,left,1,1,0.6177936653257348,H10R02,2022-10-19_10h08.45.135,t1_Paradigm,2021.1.4,60.01332265386145,
V,left,Pretarget,0,16,16,16,555.1141679616412,557.11568535486,left,1,1,0.5897164367488585,H10R02,2022-10-19_10h08.45.135,t1_Paradigm,2021.1.4,60.01332265386145,
V,right,Target,0,17,17,17,558.6139863877324,560.6132350695552,right,1,1,0.5322720349067822,H10R02,2022-10-19_10h08.45.135,t1_Paradigm,2021.1.4,60.01332265386145,
N,left,Distractor,0,18,18,18,562.114085836336,564.1150267484481,left,1,1,0.6146177260088734,H10R02,2022-10-19_10h08.45.135,t1_Paradigm,2021.1.4,60.01332265386145,
B,left,Distractor,0,19,19,19,565.6140762122814,567.6163109187037,left,1,1,0.5850590339978226,H10R02,2022-10-19_10h08.45.135,t1_Paradigm,2021.1.4,60.01332265386145,
V,left,Lure,0,20,20,20,569.1139873501379,571.1157697257586,left,1,1,0.5416493968223222,H10R02,2022-10-19_10h08.45.135,t1_Paradigm,2021.1.4,60.01332265386145,
P,left,Distractor,0,21,21,21,572.6140768538462,574.6152635003091,left,1,1,1.0263561261235736,H10R02,2022-10-19_10h08.45.135,t1_Paradigm,2021.1.4,60.01332265386145,
K,left,Pretarget,0,22,22,22,576.1141089340672,578.1158345277654,left,1,1,0.6456254804506898,H10R02,2022-10-19_10h08.45.135,t1_Paradigm,2021.1.4,60.01332265386145,
K,right,Target,0,23,23,23,579.6141814353177,581.614173094451,right,1,1,0.6671561035327613,H10R02,2022-10-19_10h08.45.135,t1_Paradigm,2021.1.4,60.01332265386145,
J,left,Pretarget,0,24,24,24,583.1141163125285,585.1133643527282,left,1,1,0.6879732630914077,H10R02,2022-10-19_10h08.45.135,t1_Paradigm,2021.1.4,60.01332265386145,
J,right,Target,0,25,25,25,586.6141734152334,588.6139825381106,right,1,1,0.6593651072471403,H10R02,2022-10-19_10h08.45.135,t1_Paradigm,2021.1.4,60.01332265386145,
H,left,Distractor,0,26,26,26,590.1140518313041,592.1157257758896,left,1,1,0.5015786663861945,H10R02,2022-10-19_10h08.45.135,t1_Paradigm,2021.1.4,60.01332265386145,
J,left,Lure,0,27,27,27,593.6140726834419,595.615846718254,left,1,1,0.7138173892744817,H10R02,2022-10-19_10h08.45.135,t1_Paradigm,2021.1.4,60.01332265386145,
V,left,Distractor,0,28,28,28,597.114173094451,599.1155422771699,left,1,1,0.6697331056348048,H10R02,2022-10-19_10h08.45.135,t1_Paradigm,2021.1.4,60.01332265386145,
Z,left,Pretarget,0,29,29,29,600.6140867987415,602.6154348085402,left,1,1,0.5300238548079506,H10R02,2022-10-19_10h08.45.135,t1_Paradigm,2021.1.4,60.01332265386145,
Z,right,Target,0,30,30,30,604.1140486233053,606.1141368438257,right,1,1,0.5351294178981334,H10R02,2022-10-19_10h08.45.135,t1_Paradigm,2021.1.4,60.01332265386145,
T,left,Distractor,0,31,31,31,607.6140518313041,609.6156369137461,left,1,1,0.5057526206364855,H10R02,2022-10-19_10h08.45.135,t1_Paradigm,2021.1.4,60.01332265386145,
Z,left,Lure,0,32,32,32,611.1140110894921,613.1155432395753,left,1,1,0.5738784442655742,H10R02,2022-10-19_10h08.45.135,t1_Paradigm,2021.1.4,60.01332265386145,
F,left,Distractor,0,33,33,33,614.6141307486105,616.6158200916834,left,1,1,0.6574871325865388,H10R02,2022-10-19_10h08.45.135,t1_Paradigm,2021.1.4,60.01332265386145,
Y,left,Pretarget,0,34,34,34,618.1139992197859,620.1158444726607,left,1,1,0.7094525578431785,H10R02,2022-10-19_10h08.45.135,t1_Paradigm,2021.1.4,60.01332265386145,
Y,right,Target,0,35,35,35,621.6140357911936,623.6140624177642,right,1,1,0.6833229179610498,H10R02,2022-10-19_10h08.45.135,t1_Paradigm,2021.1.4,60.01332265386145,
Y,right,Target,0,36,36,36,625.1141397310421,627.1140450944658,right,1,1,0.6073425792856142,H10R02,2022-10-19_10h08.45.135,t1_Paradigm,2021.1.4,60.01332265386145,
W,left,Distractor,0,37,37,37,628.6141387686366,630.615626327286,left,1,1,0.6258749873377383,H10R02,2022-10-19_10h08.45.135,t1_Paradigm,2021.1.4,60.01332265386145,
Q,left,Distractor,0,38,38,38,632.114156091935,634.1155381067656,left,1,1,0.7415545677649789,H10R02,2022-10-19_10h08.45.135,t1_Paradigm,2021.1.4,60.01332265386145,
P,left,Pretarget,0,39,39,39,635.6141823977232,637.6161546881194,left,1,1,0.6170587080414407,H10R02,2022-10-19_10h08.45.135,t1_Paradigm,2021.1.4,60.01332265386145,
P,right,Target,0,40,40,40,639.1140925731743,641.1140601721709,right,1,1,0.5112078578094952,H10R02,2022-10-19_10h08.45.135,t1_Paradigm,2021.1.4,60.01332265386145,
J,left,Distractor,0,41,41,41,642.6141769440728,644.6145718512707,left,1,1,0.5309288371354342,H10R02,2022-10-19_10h08.45.135,t1_Paradigm,2021.1.4,60.01332265386145,
P,left,Lure,0,42,42,42,646.1140653049806,648.115701715753,left,1,1,0.5175632653408684,H10R02,2022-10-19_10h08.45.135,t1_Paradigm,2021.1.4,60.01332265386145,
L,left,Distractor,0,43,43,43,649.6140762122814,651.6154126732145,left,1,1,0.6338629560195841,H10R02,2022-10-19_10h08.45.135,t1_Paradigm,2021.1.4,60.01332265386145,
Z,left,Distractor,0,44,44,44,653.1140659466037,655.1160677507869,left,1,1,0.6053321133949794,H10R02,2022-10-19_10h08.45.135,t1_Paradigm,2021.1.4,60.01332265386145,
F,left,Pretarget,0,45,45,45,656.6140797410626,658.6132061973913,left,1,1,0.7082184327882715,H10R02,2022-10-19_10h08.45.135,t1_Paradigm,2021.1.4,60.01332265386145,
F,right,Target,0,46,46,46,660.1140001821914,662.1139908789191,right,1,1,0.631472981418483,H10R02,2022-10-19_10h08.45.135,t1_Paradigm,2021.1.4,60.01332265386145,
G,left,Pretarget,0,47,47,47,663.6140078814351,665.6154502070276,left,1,1,0.633825101365801,H10R02,2022-10-19_10h08.45.135,t1_Paradigm,2021.1.4,60.01332265386145,
G,right,Target,0,48,48,48,667.1140678714146,669.1138635205571,right,1,1,0.5915408374276012,H10R02,2022-10-19_10h08.45.135,t1_Paradigm,2021.1.4,60.01332265386145,
V,left,Distractor,0,49,49,49,670.6132793402066,672.6159827382653,left,1,1,0.6256562003982253,H10R02,2022-10-19_10h08.45.135,t1_Paradigm,2021.1.4,60.01332265386145,
G,left,Lure,0,50,50,50,674.1139812548645,676.1152397609549,None,0,1,,H10R02,2022-10-19_10h08.45.135,t1_Paradigm,2021.1.4,60.01332265386145,
Q,left,Pretarget,0,51,51,51,677.6141285029589,679.6162775552948,left,1,1,0.648994542483706,H10R02,2022-10-19_10h08.45.135,t1_Paradigm,2021.1.4,60.01332265386145,
Q,right,Target,0,52,52,52,681.1140454153065,683.1140373952221,right,1,1,0.6393146643531509,H10R02,2022-10-19_10h08.45.135,t1_Paradigm,2021.1.4,60.01332265386145,
Y,left,Distractor,0,53,53,53,684.6136283727246,686.616110417468,left,1,1,0.5613649224396795,H10R02,2022-10-19_10h08.45.135,t1_Paradigm,2021.1.4,60.01332265386145,
V,left,Distractor,0,54,54,54,688.1139636107837,690.1156420466141,left,1,1,0.5176434658351354,H10R02,2022-10-19_10h08.45.135,t1_Paradigm,2021.1.4,60.01332265386145,
B,left,Distractor,0,55,55,55,691.6140672297915,693.6158771944465,left,1,1,0.6494099810952321,H10R02,2022-10-19_10h08.45.135,t1_Paradigm,2021.1.4,60.01332265386145,
J,left,Pretarget,0,56,56,56,695.1141833601287,697.1160401618108,left,1,1,0.5412977979285643,H10R02,2022-10-19_10h08.45.135,t1_Paradigm,2021.1.4,60.01332265386145,
J,right,Target,0,57,57,57,698.6140508688986,700.6140383576276,right,1,1,0.7073198665166274,H10R02,2022-10-19_10h08.45.135,t1_Paradigm,2021.1.4,60.01332265386145,
H,left,Distractor,0,58,58,58,702.1139209441026,704.1157825578703,left,1,1,0.4375328019959852,H10R02,2022-10-19_10h08.45.135,t1_Paradigm,2021.1.4,60.01332265386145,
J,left,Lure,0,59,59,59,705.6140309791663,707.6157495152438,left,1,1,0.6817731237388216,H10R02,2022-10-19_10h08.45.135,t1_Paradigm,2021.1.4,60.01332265386145,
D,left,Pretarget,0,60,60,60,709.1140335456003,711.1156933748862,left,1,1,0.7655264937784523,H10R02,2022-10-19_10h08.45.135,t1_Paradigm,2021.1.4,60.01332265386145,
D,right,Target,0,61,61,61,712.6141220869613,714.6141038012574,right,1,1,0.691287468012888,H10R02,2022-10-19_10h08.45.135,t1_Paradigm,2021.1.4,60.01332265386145,
R,left,Distractor,0,62,62,62,716.1141256157425,718.1148509489722,left,1,1,0.6147081921808422,H10R02,2022-10-19_10h08.45.135,t1_Paradigm,2021.1.4,60.01332265386145,
F,left,Distractor,0,63,63,63,719.6141224077437,721.6152689539012,left,1,1,0.6500079558463767,H10R02,2022-10-19_10h08.45.135,t1_Paradigm,2021.1.4,60.01332265386145,
F,left,Distractor,0,0,0,0,836.5052650016733,838.4974233186804,None,0,2,,H10R02,2022-10-19_10h08.45.135,t1_Paradigm,2021.1.4,60.01332265386145,
N,left,Pretarget,0,1,1,1,839.9972969227238,841.9988335641101,left,1,2,0.6185212441487238,H10R02,2022-10-19_10h08.45.135,t1_Paradigm,2021.1.4,60.01332265386145,
V,left,Distractor,0,2,2,2,843.4973392685642,845.4964679704863,left,1,2,0.7368121524923481,H10R02,2022-10-19_10h08.45.135,t1_Paradigm,2021.1.4,60.01332265386145,
N,right,Target,0,3,3,3,846.9973399101873,848.9996448722086,right,1,2,0.8177251419983804,H10R02,2022-10-19_10h08.45.135,t1_Paradigm,2021.1.4,60.01332265386145,
N,left,Lure,0,4,4,4,850.4972994891577,852.4972308375291,left,1,2,0.7921203341102228,H10R02,2022-10-19_10h08.45.135,t1_Paradigm,2021.1.4,60.01332265386145,
X,left,Distractor,0,5,5,5,853.9962934541982,855.9994215940824,left,1,2,0.7460939154261723,H10R02,2022-10-19_10h08.45.135,t1_Paradigm,2021.1.4,60.01332265386145,
G,left,Pretarget,0,6,6,6,857.4972744666156,859.4990404813434,left,1,2,1.0382501793210395,H10R02,2022-10-19_10h08.45.135,t1_Paradigm,2021.1.4,60.01332265386145,
H,left,Pretarget,0,7,7,7,860.9973267572932,862.9994235188933,left,1,2,0.6257912580040284,H10R02,2022-10-19_10h08.45.135,t1_Paradigm,2021.1.4,60.01332265386145,
G,right,Target,0,8,8,8,864.4973803312168,866.4989878698252,right,1,2,0.5822731897933409,H10R02,2022-10-19_10h08.45.135,t1_Paradigm,2021.1.4,60.01332265386145,
H,right,Target,0,9,9,9,867.9973120004288,869.9989009324927,right,1,2,0.6503428731230088,H10R02,2022-10-19_10h08.45.135,t1_Paradigm,2021.1.4,60.01332265386145,
T,left,Pretarget,0,10,10,10,871.4973367021885,873.4985461255419,left,1,2,0.6227943261619657,H10R02,2022-10-19_10h08.45.135,t1_Paradigm,2021.1.4,60.01332265386145,
K,left,Distractor,0,11,11,11,874.997435509169,876.9986917696078,left,1,2,0.594671543687582,H10R02,2022-10-19_10h08.45.135,t1_Paradigm,2021.1.4,60.01332265386145,
T,right,Target,0,12,12,12,878.4974050329765,880.4990972632659,right,1,2,0.8701682413811795,H10R02,2022-10-19_10h08.45.135,t1_Paradigm,2021.1.4,60.01332265386145,
T,left,Lure,0,13,13,13,881.9974108074093,883.9974239603034,left,1,2,1.1321675176150165,H10R02,2022-10-19_10h08.45.135,t1_Paradigm,2021.1.4,60.01332265386145,
J,left,Distractor,0,14,14,14,885.4972010029596,887.4988207319984,left,1,2,0.7664138319669291,H10R02,2022-10-19_10h08.45.135,t1_Paradigm,2021.1.4,60.01332265386145,
Q,left,Pretarget,0,15,15,15,888.9972212134744,891.0102303742897,left,1,2,0.6313530014595017,H10R02,2022-10-19_10h08.45.135,t1_Paradigm,2021.1.4,60.01332265386145,
M,left,Distractor,0,16,16,16,892.4973081508069,894.4999605413759,left,1,2,0.613703761191573,H10R02,2022-10-19_10h08.45.135,t1_Paradigm,2021.1.4,60.01332265386145,
Q,right,Target,0,17,17,17,895.9973097547772,897.9992624762817,right,1,2,0.6659460384980775,H10R02,2022-10-19_10h08.45.135,t1_Paradigm,2021.1.4,60.01332265386145,
R,left,Distractor,0,18,18,18,899.4973107171827,901.4992984061246,left,1,2,0.6220625768764876,H10R02,2022-10-19_10h08.45.135,t1_Paradigm,2021.1.4,60.01332265386145,
W,left,Distractor,0,19,19,19,902.9972253838787,904.996412150911,left,1,2,0.564991909370292,H10R02,2022-10-19_10h08.45.135,t1_Paradigm,2021.1.4,60.01332265386145,
C,left,Pretarget,0,20,20,20,906.4972173638525,908.4994963409263,left,1,2,0.6300280894502066,H10R02,2022-10-19_10h08.45.135,t1_Paradigm,2021.1.4,60.01332265386145,
T,left,Distractor,0,21,21,21,909.9972709377762,911.999210827169,left,1,2,0.4901574752293527,H10R02,2022-10-19_10h08.45.135,t1_Paradigm,2021.1.4,60.01332265386145,
C,right,Target,0,22,22,22,913.4972609928809,915.4992063359823,right,1,2,0.990137264772784,H10R02,2022-10-19_10h08.45.135,t1_Paradigm,2021.1.4,60.01332265386145,
F,left,Pretarget,0,23,23,23,916.9973148876452,918.998881363601,left,1,2,0.6905143353505991,H10R02,2022-10-19_10h08.45.135,t1_Paradigm,2021.1.4,60.01332265386145,
C,right,Target,0,24,24,24,920.4973931633285,922.5101655722829,right,1,2,0.7150832737679593,H10R02,2022-10-19_10h08.45.135,t1_Paradigm,2021.1.4,60.01332265386145,
F,right,Target,0,25,25,25,923.9972860154812,925.9965670983074,right,1,2,1.0526743975933641,H10R02,2022-10-19_10h08.45.135,t1_Paradigm,2021.1.4,60.01332265386145,
H,left,Distractor,0,26,26,26,927.4972969227238,929.4964160005911,left,1,2,0.6408788947155699,H10R02,2022-10-19_10h08.45.135,t1_Paradigm,2021.1.4,60.01332265386145,
H,left,Lure,0,27,27,27,930.9972494440153,932.9973065467784,left,1,2,0.8516996729304083,H10R02,2022-10-19_10h08.45.135,t1_Paradigm,2021.1.4,60.01332265386145,
P,left,Distractor,0,28,28,28,934.4972196094459,936.498497684428,left,1,2,0.6468923272914253,H10R02,2022-10-19_10h08.45.135,t1_Paradigm,2021.1.4,60.01332265386145,
G,left,Pretarget,0,29,29,29,937.9963245720137,939.9964836897561,left,1,2,0.7968415764044039,H10R02,2022-10-19_10h08.45.135,t1_Paradigm,2021.1.4,60.01332265386145,
K,left,Distractor,0,30,30,30,941.4973094339948,943.4991267770529,left,1,2,0.6861434087622911,H10R02,2022-10-19_10h08.45.135,t1_Paradigm,2021.1.4,60.01332265386145,
G,right,Target,0,31,31,31,944.9973049427499,946.9992082607932,right,1,2,0.6581681951647624,H10R02,2022-10-19_10h08.45.135,t1_Paradigm,2021.1.4,60.01332265386145,
M,left,Pretarget,0,32,32,32,948.4973004515632,950.4982904463541,left,1,2,0.5829224929329939,H10R02,2022-10-19_10h08.45.135,t1_Paradigm,2021.1.4,60.01332265386145,
B,left,Distractor,0,33,33,33,951.9971961909323,953.9987610628596,left,1,2,0.5704930212814361,H10R02,2022-10-19_10h08.45.135,t1_Paradigm,2021.1.4,60.01332265386145,
M,right,Target,0,34,34,34,955.4970730029745,957.499301934964,right,1,2,0.9580743926926516,H10R02,2022-10-19_10h08.45.135,t1_Paradigm,2021.1.4,60.01332265386145,
M,left,Lure,0,35,35,35,958.9972520104493,960.9973091132124,left,1,2,0.8516804248210974,H10R02,2022-10-19_10h08.45.135,t1_Paradigm,2021.1.4,60.01332265386145,
T,left,Distractor,0,36,36,36,962.4973184164846,964.4993750777794,left,1,2,0.5818545432412066,H10R02,2022-10-19_10h08.45.135,t1_Paradigm,2021.1.4,60.01332265386145,
F,left,Distractor,0,37,37,37,965.9976103462395,967.9990517094266,left,1,2,0.666142690111883,H10R02,2022-10-19_10h08.45.135,t1_Paradigm,2021.1.4,60.01332265386145,
X,left,Distractor,0,38,38,38,969.4972407823661,971.4990388773149,left,1,2,0.5743208301719278,H10R02,2022-10-19_10h08.45.135,t1_Paradigm,2021.1.4,60.01332265386145,
C,left,Distractor,0,39,39,39,972.9972356495564,974.9991036793217,left,1,2,0.6260703557054512,H10R02,2022-10-19_10h08.45.135,t1_Paradigm,2021.1.4,60.01332265386145,
R,left,Distractor,0,40,40,40,976.4973565918626,978.499286857259,left,1,2,0.6145076908869669,H10R02,2022-10-19_10h08.45.135,t1_Paradigm,2021.1.4,60.01332265386145,
B,left,Pretarget,0,41,41,41,979.9972779953969,981.9986847119872,left,1,2,0.6986935019376688,H10R02,2022-10-19_10h08.45.135,t1_Paradigm,2021.1.4,60.01332265386145,
H,left,Distractor,0,42,42,42,983.4970646621077,985.4990363109391,left,1,2,0.5583156999200583,H10R02,2022-10-19_10h08.45.135,t1_Paradigm,2021.1.4,60.01332265386145,
B,right,Target,0,43,43,43,986.9973046219675,988.9993863058626,right,1,2,0.5460017169243656,H10R02,2022-10-19_10h08.45.135,t1_Paradigm,2021.1.4,60.01332265386145,
W,left,Pretarget,0,44,44,44,990.4973193788901,992.5102258830448,left,1,2,0.5871346226194873,H10R02,2022-10-19_10h08.45.135,t1_Paradigm,2021.1.4,60.01332265386145,
L,left,Pretarget,0,45,45,45,993.9972933938843,995.9993574336986,left,1,2,0.8736207120236941,H10R02,2022-10-19_10h08.45.135,t1_Paradigm,2021.1.4,60.01332265386145,
W,right,Target,0,46,46,46,997.497276712209,999.4988082207274,None,0,2,,H10R02,2022-10-19_10h08.45.135,t1_Paradigm,2021.1.4,60.01332265386145,
L,right,Target,0,47,47,47,1000.9973094339948,1002.9989381455234,right,1,2,1.218487944919616,H10R02,2022-10-19_10h08.45.135,t1_Paradigm,2021.1.4,60.01332265386145,
W,right,Target,0,48,48,48,1004.4972029277706,1006.4988034087,right,1,2,0.9985769225168042,H10R02,2022-10-19_10h08.45.135,t1_Paradigm,2021.1.4,60.01332265386145,
X,left,Distractor,0,49,49,49,1007.9972491232329,1009.9986664262833,left,1,2,0.9066052481066436,H10R02,2022-10-19_10h08.45.135,t1_Paradigm,2021.1.4,60.01332265386145,
R,left,Distractor,0,50,50,50,1011.4973681407864,1013.4990298948833,left,1,2,0.6542649978073314,H10R02,2022-10-19_10h08.45.135,t1_Paradigm,2021.1.4,60.01332265386145,
V,left,Pretarget,0,51,51,51,1014.9973017347511,1016.9990379149094,left,1,2,0.674191611178685,H10R02,2022-10-19_10h08.45.135,t1_Paradigm,2021.1.4,60.01332265386145,
Z,left,Distractor,0,52,52,52,1018.497291148291,1020.4988136743777,left,1,2,0.6307498937821947,H10R02,2022-10-19_10h08.45.135,t1_Paradigm,2021.1.4,60.01332265386145,
V,right,Target,0,53,53,53,1021.9972029277706,1023.9991389675415,right,1,2,0.49022548529319465,H10R02,2022-10-19_10h08.45.135,t1_Paradigm,2021.1.4,60.01332265386145,
V,left,Lure,0,54,54,54,1025.4973562710802,1027.497389634489,left,1,2,0.6559318847721443,H10R02,2022-10-19_10h08.45.135,t1_Paradigm,2021.1.4,60.01332265386145,
N,left,Distractor,0,55,55,55,1028.9973485718365,1030.9964949178393,left,1,2,0.6928667760803364,H10R02,2022-10-19_10h08.45.135,t1_Paradigm,2021.1.4,60.01332265386145,
B,left,Distractor,0,56,56,56,1032.497260992881,1034.498382837337,left,1,2,0.695011657953728,H10R02,2022-10-19_10h08.45.135,t1_Paradigm,2021.1.4,60.01332265386145,
V,left,Lure,0,57,57,57,1035.997024882643,1037.9988820051658,left,1,2,0.7306687951204367,H10R02,2022-10-19_10h08.45.135,t1_Paradigm,2021.1.4,60.01332265386145,
J,left,Distractor,0,58,58,58,1039.4972818450187,1041.4990045515005,left,1,2,0.686196341062896,H10R02,2022-10-19_10h08.45.135,t1_Paradigm,2021.1.4,60.01332265386145,
H,left,Distractor,0,59,59,59,1042.9972808826133,1044.9974833086599,left,1,2,0.6276981048285961,H10R02,2022-10-19_10h08.45.135,t1_Paradigm,2021.1.4,60.01332265386145,
X,left,Pretarget,0,60,60,60,1046.497245915234,1048.4988682107069,left,1,2,0.48616092454176396,H10R02,2022-10-19_10h08.45.135,t1_Paradigm,2021.1.4,60.01332265386145,
P,left,Distractor,0,61,61,61,1049.9972584265051,1051.9989400703344,left,1,2,0.6023181790951639,H10R02,2022-10-19_10h08.45.135,t1_Paradigm,2021.1.4,60.01332265386145,
X,right,Target,0,62,62,62,1053.4972568224766,1055.4964445519145,right,1,2,0.5928821103880182,H10R02,2022-10-19_10h08.45.135,t1_Paradigm,2021.1.4,60.01332265386145,
Q,left,Distractor,0,63,63,63,1056.9972462360165,1058.9986183059518,left,1,2,0.7226888464647345,H10R02,2022-10-19_10h08.45.135,t1_Paradigm,2021.1.4,60.01332265386145,
B,left,Pretarget,0,0,0,0,1072.694506074069,1074.698947577097,left,1,2,1.1502665222506039,H10R02,2022-10-19_10h08.45.135,t1_Paradigm,2021.1.4,60.01332265386145,
F,left,Distractor,0,1,1,1,1076.197176750342,1078.1993107249145,left,1,2,0.8338560266420245,H10R02,2022-10-19_10h08.45.135,t1_Paradigm,2021.1.4,60.01332265386145,
B,right,Target,0,2,2,2,1079.6970853217645,1081.6990386848338,right,1,2,0.6145737761398777,H10R02,2022-10-19_10h08.45.135,t1_Paradigm,2021.1.4,60.01332265386145,
V,left,Distractor,0,3,3,3,1083.1972636876162,1085.1989956973703,left,1,2,0.8903473258833401,H10R02,2022-10-19_10h08.45.135,t1_Paradigm,2021.1.4,60.01332265386145,
G,left,Pretarget,0,4,4,4,1086.6973195071914,1088.6994281384395,left,1,2,0.47798047470860183,H10R02,2022-10-19_10h08.45.135,t1_Paradigm,2021.1.4,60.01332265386145,
B,left,Lure,0,5,5,5,1090.197216208966,1092.1991740632802,left,1,2,0.9303561414708383,H10R02,2022-10-19_10h08.45.135,t1_Paradigm,2021.1.4,60.01332265386145,
G,right,Target,0,6,6,6,1093.6973195071914,1095.6991788753076,right,1,2,0.5500101373763755,H10R02,2022-10-19_10h08.45.135,t1_Paradigm,2021.1.4,60.01332265386145,
Y,left,Pretarget,0,7,7,7,1097.1972511763452,1099.1988494116813,left,1,2,0.4744519739761017,H10R02,2022-10-19_10h08.45.135,t1_Paradigm,2021.1.4,60.01332265386145,
P,left,Distractor,0,8,8,8,1100.6969643794,1102.6988449204946,left,1,2,0.542531923041679,H10R02,2022-10-19_10h08.45.135,t1_Paradigm,2021.1.4,60.01332265386145,
Y,right,Target,0,9,9,9,1104.1970327102463,1106.1983101436053,right,1,2,0.4828643636428751,H10R02,2022-10-19_10h08.45.135,t1_Paradigm,2021.1.4,60.01332265386145,
X,left,Distractor,0,10,10,10,1107.697306033515,1109.698529572168,left,1,2,0.5826312048011459,H10R02,2022-10-19_10h08.45.135,t1_Paradigm,2021.1.4,60.01332265386145,
Y,right,Target,0,11,11,11,1111.1971988856676,1113.196295828151,right,1,2,0.6210517299477942,H10R02,2022-10-19_10h08.45.135,t1_Paradigm,2021.1.4,60.01332265386145,
N,left,Distractor,0,12,12,12,1114.69719920645,1116.6991593064158,left,1,2,0.6221459854277782,H10R02,2022-10-19_10h08.45.135,t1_Paradigm,2021.1.4,60.01332265386145,
Y,right,Target,0,13,13,13,1118.1964016928105,1120.1993383138906,right,1,2,0.6736343781813048,H10R02,2022-10-19_10h08.45.135,t1_Paradigm,2021.1.4,60.01332265386145,
Y,left,Lure,0,14,14,14,1121.6972158881254,1123.6970442591119,left,1,2,1.0001623257994652,H10R02,2022-10-19_10h08.45.135,t1_Paradigm,2021.1.4,60.01332265386145,
K,left,Distractor,0,15,15,15,1125.1972072264762,1127.1989568803692,left,1,2,0.8425523260375485,H10R02,2022-10-19_10h08.45.135,t1_Paradigm,2021.1.4,60.01332265386145,
T,left,Pretarget,0,16,16,16,1128.6972819733783,1130.698857110925,left,1,2,0.830645440670196,H10R02,2022-10-19_10h08.45.135,t1_Paradigm,2021.1.4,60.01332265386145,
J,left,Distractor,0,17,17,17,1132.196268239175,1134.1964790060883,left,1,2,0.6127865884336643,H10R02,2022-10-19_10h08.45.135,t1_Paradigm,2021.1.4,60.01332265386145,
T,right,Target,0,18,18,18,1135.6971870159614,1137.6983306749607,right,1,2,0.9029022310860455,H10R02,2022-10-19_10h08.45.135,t1_Paradigm,2021.1.4,60.01332265386145,
S,left,Pretarget,0,19,19,19,1139.1971645598533,1141.198801933031,left,1,2,0.6183929233811796,H10R02,2022-10-19_10h08.45.135,t1_Paradigm,2021.1.4,60.01332265386145,
R,left,Distractor,0,20,20,20,1142.697176750342,1144.6963429860189,left,1,2,0.9288586379843764,H10R02,2022-10-19_10h08.45.135,t1_Paradigm,2021.1.4,60.01332265386145,
S,right,Target,0,21,21,21,1146.1962820336921,1148.198967146047,right,1,2,0.6580148518551141,H10R02,2022-10-19_10h08.45.135,t1_Paradigm,2021.1.4,60.01332265386145,
Q,left,Distractor,0,22,22,22,1149.697282614943,1151.699316178565,left,1,2,0.5658693027216941,H10R02,2022-10-19_10h08.45.135,t1_Paradigm,2021.1.4,60.01332265386145,
D,left,Distractor,0,23,23,23,1153.1972200585878,1155.1994024742744,left,1,2,0.6341978732380085,H10R02,2022-10-19_10h08.45.135,t1_Paradigm,2021.1.4,60.01332265386145,
F,left,Distractor,0,24,24,24,1156.697170334286,1158.6988968903897,left,1,2,0.6862909776391461,H10R02,2022-10-19_10h08.45.135,t1_Paradigm,2021.1.4,60.01332265386145,
Z,left,Distractor,0,25,25,25,1160.1972264746437,1162.198767286376,left,1,2,0.7544485607068054,H10R02,2022-10-19_10h08.45.135,t1_Paradigm,2021.1.4,60.01332265386145,
P,left,Distractor,0,26,26,26,1163.6971504445537,1165.6990544041619,left,1,2,0.7582718783523887,H10R02,2022-10-19_10h08.45.135,t1_Paradigm,2021.1.4,60.01332265386145,
H,left,Distractor,0,27,27,27,1167.1973785347654,1169.199103807623,left,1,2,0.6980143642285839,H10R02,2022-10-19_10h08.45.135,t1_Paradigm,2021.1.4,60.01332265386145,
Z,left,Pretarget,0,28,28,28,1170.697314695164,1172.6988259931677,left,1,2,0.9744981695548631,H10R02,2022-10-19_10h08.45.135,t1_Paradigm,2021.1.4,60.01332265386145,
J,left,Pretarget,0,29,29,29,1174.1963195675053,1176.1988988152007,left,1,2,0.6740713103790767,H10R02,2022-10-19_10h08.45.135,t1_Paradigm,2021.1.4,60.01332265386145,
Z,right,Target,0,30,30,30,1177.6963939935667,1179.6992359780706,right,1,2,0.8860161786433309,H10R02,2022-10-19_10h08.45.135,t1_Paradigm,2021.1.4,60.01332265386145,
J,right,Target,0,31,31,31,1181.1972197378054,1183.199101882812,right,1,2,0.6820121211931109,H10R02,2022-10-19_10h08.45.135,t1_Paradigm,2021.1.4,60.01332265386145,
V,left,Pretarget,0,32,32,32,1184.6971789959352,1186.6983893816941,left,1,2,0.5430660582496785,H10R02,2022-10-19_10h08.45.135,t1_Paradigm,2021.1.4,60.01332265386145,
Z,left,Lure,0,33,33,33,1188.197213642532,1190.1990316272131,left,1,2,0.8980651792371646,H10R02,2022-10-19_10h08.45.135,t1_Paradigm,2021.1.4,60.01332265386145,
V,right,Target,0,34,34,34,1191.6971793167177,1193.6986960683716,right,1,2,0.5505596710718237,H10R02,2022-10-19_10h08.45.135,t1_Paradigm,2021.1.4,60.01332265386145,
X,left,Distractor,0,35,35,35,1195.1972197378054,1197.1991480783327,left,1,2,0.7141959355794825,H10R02,2022-10-19_10h08.45.135,t1_Paradigm,2021.1.4,60.01332265386145,
S,left,Distractor,0,36,36,36,1198.6973108455422,1200.6989706748282,left,1,2,0.8303069946705364,H10R02,2022-10-19_10h08.45.135,t1_Paradigm,2021.1.4,60.01332265386145,
Q,left,Distractor,0,37,37,37,1202.1971629558248,1204.1964491714607,left,1,2,0.7087487184326164,H10R02,2022-10-19_10h08.45.135,t1_Paradigm,2021.1.4,60.01332265386145,
P,left,Distractor,0,38,38,38,1205.6971424245276,1207.6987188453204,left,1,2,0.6786485126940534,H10R02,2022-10-19_10h08.45.135,t1_Paradigm,2021.1.4,60.01332265386145,
S,left,Lure,0,39,39,39,1209.197330414434,1211.1990746146766,left,1,2,0.6021577781066298,H10R02,2022-10-19_10h08.45.135,t1_Paradigm,2021.1.4,60.01332265386145,
K,left,Pretarget,0,40,40,40,1212.697214284155,1214.698291537119,left,1,2,0.670940604119096,H10R02,2022-10-19_10h08.45.135,t1_Paradigm,2021.1.4,60.01332265386145,
L,left,Distractor,0,41,41,41,1216.1973236775957,1218.1987637575949,left,1,2,0.7704132698709145,H10R02,2022-10-19_10h08.45.135,t1_Paradigm,2021.1.4,60.01332265386145,
K,right,Target,0,42,42,42,1219.6971231764182,1221.6989742036676,right,1,2,0.5342016586801037,H10R02,2022-10-19_10h08.45.135,t1_Paradigm,2021.1.4,60.01332265386145,
B,left,Distractor,0,43,43,43,1223.1972255122382,1225.1979059331352,left,1,2,0.5233052995172329,H10R02,2022-10-19_10h08.45.135,t1_Paradigm,2021.1.4,60.01332265386145,
N,left,Distractor,0,44,44,44,1226.6975286700763,1228.6990082086413,left,1,2,0.7341652155737393,H10R02,2022-10-19_10h08.45.135,t1_Paradigm,2021.1.4,60.01332265386145,
S,left,Pretarget,0,45,45,45,1230.1972681788611,1232.1988782839035,left,1,2,0.6422650798922405,H10R02,2022-10-19_10h08.45.135,t1_Paradigm,2021.1.4,60.01332265386145,
Z,left,Distractor,0,46,46,46,1233.6971687302575,1235.6962868457194,left,1,2,1.0010076389298774,H10R02,2022-10-19_10h08.45.135,t1_Paradigm,2021.1.4,60.01332265386145,
S,right,Target,0,47,47,47,1237.197349983384,1239.1985773716588,right,1,2,0.570579637773335,H10R02,2022-10-19_10h08.45.135,t1_Paradigm,2021.1.4,60.01332265386145,
C,left,Distractor,0,48,48,48,1240.6971097026835,1242.6989318578271,left,1,2,0.6382746244198643,H10R02,2022-10-19_10h08.45.135,t1_Paradigm,2021.1.4,60.01332265386145,
T,left,Pretarget,0,49,49,49,1244.197198564827,1246.1990152663202,left,1,2,0.7061964180902578,H10R02,2022-10-19_10h08.45.135,t1_Paradigm,2021.1.4,60.01332265386145,
S,left,Lure,0,50,50,50,1247.6972008104785,1249.6987188453204,left,1,2,0.6945968610234559,H10R02,2022-10-19_10h08.45.135,t1_Paradigm,2021.1.4,60.01332265386145,
T,right,Target,0,51,51,51,1251.1972874269704,1253.2138087276253,right,1,2,0.5553797204047441,H10R02,2022-10-19_10h08.45.135,t1_Paradigm,2021.1.4,60.01332265386145,
N,left,Pretarget,0,52,52,52,1254.6972101136926,1256.6985035872203,left,1,2,0.6547445967444219,H10R02,2022-10-19_10h08.45.135,t1_Paradigm,2021.1.4,60.01332265386145,
B,left,Distractor,0,53,53,53,1258.1971918279887,1260.1991426246823,left,1,2,0.6420437265769579,H10R02,2022-10-19_10h08.45.135,t1_Paradigm,2021.1.4,60.01332265386145,
N,right,Target,0,54,54,54,1261.6971613517962,1263.6988510157098,right,1,2,0.8543238329002634,H10R02,2022-10-19_10h08.45.135,t1_Paradigm,2021.1.4,60.01332265386145,
N,left,Lure,0,55,55,55,1265.1971908655833,1267.1973227151902,left,1,2,0.715790321235545,H10R02,2022-10-19_10h08.45.135,t1_Paradigm,2021.1.4,60.01332265386145,
X,left,Distractor,0,56,56,56,1268.6971562189865,1270.6989472563146,left,1,2,0.6223583563114516,H10R02,2022-10-19_10h08.45.135,t1_Paradigm,2021.1.4,60.01332265386145,
W,left,Distractor,0,57,57,57,1272.1971982440446,1274.1988689806312,left,1,2,0.690216631104704,H10R02,2022-10-19_10h08.45.135,t1_Paradigm,2021.1.4,60.01332265386145,
S,left,Distractor,0,58,58,58,1275.6973567202222,1277.699194915418,left,1,2,0.6781721218139865,H10R02,2022-10-19_10h08.45.135,t1_Paradigm,2021.1.4,60.01332265386145,
L,left,Distractor,0,59,59,59,1279.19718861999,1281.1989738828852,left,1,2,0.6659434721223079,H10R02,2022-10-19_10h08.45.135,t1_Paradigm,2021.1.4,60.01332265386145,
K,left,Pretarget,0,60,60,60,1282.697130234039,1284.6988154067076,left,1,2,0.6703878623666242,H10R02,2022-10-19_10h08.45.135,t1_Paradigm,2021.1.4,60.01332265386145,
V,left,Pretarget,0,61,61,61,1286.1971103443066,1288.1990977124078,left,1,2,0.5462160126771778,H10R02,2022-10-19_10h08.45.135,t1_Paradigm,2021.1.4,60.01332265386145,
K,right,Target,0,62,62,62,1289.6971177227679,1291.6990742938942,right,1,2,0.5340951524558477,H10R02,2022-10-19_10h08.45.135,t1_Paradigm,2021.1.4,60.01332265386145,
V,right,Target,0,63,63,63,1293.1971494821482,1295.198958163557,right,1,2,0.6821433291770518,H10R02,2022-10-19_10h08.45.135,t1_Paradigm,2021.1.4,60.01332265386145,
R,left,Distractor,0,0,0,0,1427.6272756086546,1429.632741432346,left,1,3,0.5364228914259002,H10R02,2022-10-19_10h08.45.135,t1_Paradigm,2021.1.4,60.01332265386145,
P,left,Lure,0,1,1,1,1431.1303726307233,1433.1324658634258,left,1,3,0.4767325551365502,H10R02,2022-10-19_10h08.45.135,t1_Paradigm,2021.1.4,60.01332265386145,
V,left,Distractor,0,2,2,2,1434.630466304894,1436.6321376830456,left,1,3,0.5613456743885763,H10R02,2022-10-19_10h08.45.135,t1_Paradigm,2021.1.4,60.01332265386145,
P,left,Pretarget,0,3,3,3,1438.1305917384452,1440.132256700599,right,0,3,1.0131920179119334,H10R02,2022-10-19_10h08.45.135,t1_Paradigm,2021.1.4,60.01332265386145,
Z,left,Distractor,0,4,4,4,1441.6304502647836,1443.6316548761097,left,1,3,1.1136713601881638,H10R02,2022-10-19_10h08.45.135,t1_Paradigm,2021.1.4,60.01332265386145,
L,left,Pretarget,0,5,5,5,1445.1305163499783,1447.1317912169616,left,1,3,1.0854780013323762,H10R02,2022-10-19_10h08.45.135,t1_Paradigm,2021.1.4,60.01332265386145,
P,right,Target,0,6,6,6,1448.6305452221422,1450.6326461541466,right,1,3,1.2645214212243445,H10R02,2022-10-19_10h08.45.135,t1_Paradigm,2021.1.4,60.01332265386145,
S,left,Distractor,0,7,7,7,1452.1304451319738,1454.1321370414225,left,1,3,1.0131740529905073,H10R02,2022-10-19_10h08.45.135,t1_Paradigm,2021.1.4,60.01332265386145,
L,right,Target,0,8,8,8,1455.6305343148997,1457.6320144950878,None,0,3,,H10R02,2022-10-19_10h08.45.135,t1_Paradigm,2021.1.4,60.01332265386145,
D,left,Distractor,0,9,9,9,1459.1305907760398,1461.1295731922146,left,1,3,0.6236303360783495,H10R02,2022-10-19_10h08.45.135,t1_Paradigm,2021.1.4,60.01332265386145,
G,left,Distractor,0,10,10,10,1462.630465021648,1464.6297772222897,left,1,3,0.707496949180495,H10R02,2022-10-19_10h08.45.135,t1_Paradigm,2021.1.4,60.01332265386145,
M,left,Pretarget,0,11,11,11,1466.1303655730444,1468.131933332188,left,1,3,1.013403426448349,H10R02,2022-10-19_10h08.45.135,t1_Paradigm,2021.1.4,60.01332265386145,
Y,left,Distractor,0,12,12,12,1469.6302176833851,1471.6320350264432,None,0,3,,H10R02,2022-10-19_10h08.45.135,t1_Paradigm,2021.1.4,60.01332265386145,
V,left,Distractor,0,13,13,13,1473.1303559489897,1475.1295934027876,left,1,3,1.311771699343808,H10R02,2022-10-19_10h08.45.135,t1_Paradigm,2021.1.4,60.01332265386145,
M,right,Target,0,14,14,14,1476.6305346356821,1478.6316667457577,None,0,3,,H10R02,2022-10-19_10h08.45.135,t1_Paradigm,2021.1.4,60.01332265386145,
S,left,Pretarget,0,15,15,15,1480.1304858737858,1482.1325444599497,left,1,3,1.4447575827944092,H10R02,2022-10-19_10h08.45.135,t1_Paradigm,2021.1.4,60.01332265386145,
Q,left,Distractor,0,16,16,16,1483.6305667159031,1485.6322618334088,left,1,3,1.1609918939648196,H10R02,2022-10-19_10h08.45.135,t1_Paradigm,2021.1.4,60.01332265386145,
R,left,Pretarget,0,17,17,17,1487.130455076811,1489.1321088108816,left,1,3,1.0370686657261103,H10R02,2022-10-19_10h08.45.135,t1_Paradigm,2021.1.4,60.01332265386145,
S,right,Target,0,18,18,18,1490.6305256532505,1492.6323802093393,right,1,3,1.1688502586330287,H10R02,2022-10-19_10h08.45.135,t1_Paradigm,2021.1.4,60.01332265386145,
F,left,Distractor,0,19,19,19,1494.130424279836,1496.1322275075945,left,1,3,1.0451009050011635,H10R02,2022-10-19_10h08.45.135,t1_Paradigm,2021.1.4,60.01332265386145,
R,right,Target,0,20,20,20,1497.630436791107,1499.6315855829162,right,1,3,0.953561992442701,H10R02,2022-10-19_10h08.45.135,t1_Paradigm,2021.1.4,60.01332265386145,
P,left,Distractor,0,21,21,21,1501.1304647008656,1503.1318778334535,left,1,3,1.149286472296808,H10R02,2022-10-19_10h08.45.135,t1_Paradigm,2021.1.4,60.01332265386145,
L,left,Distractor,0,22,22,22,1504.6303970116423,1506.631252269668,left,1,3,0.7379202024894767,H10R02,2022-10-19_10h08.45.135,t1_Paradigm,2021.1.4,60.01332265386145,
R,right,Target,0,23,23,23,1508.1304598888382,1510.1321020740434,right,1,3,0.7729488885379396,H10R02,2022-10-19_10h08.45.135,t1_Paradigm,2021.1.4,60.01332265386145,
H,left,Pretarget,0,24,24,24,1511.6304037484806,1513.6322951968177,left,1,3,0.761273943062406,H10R02,2022-10-19_10h08.45.135,t1_Paradigm,2021.1.4,60.01332265386145,
G,left,Pretarget,0,25,25,25,1515.130536560493,1517.1318095026654,left,1,3,0.9575283877784386,H10R02,2022-10-19_10h08.45.135,t1_Paradigm,2021.1.4,60.01332265386145,
T,left,Distractor,0,26,26,26,1518.6302141545457,1520.6319182545412,left,1,3,0.5932433333946392,H10R02,2022-10-19_10h08.45.135,t1_Paradigm,2021.1.4,60.01332265386145,
H,right,Target,0,27,27,27,1522.130425563024,1524.1322220539441,None,0,3,,H10R02,2022-10-19_10h08.45.135,t1_Paradigm,2021.1.4,60.01332265386145,
G,right,Target,0,28,28,28,1525.630596871255,1527.6323067456833,left,0,3,1.0648359996266663,H10R02,2022-10-19_10h08.45.135,t1_Paradigm,2021.1.4,60.01332265386145,
D,left,Distractor,0,29,29,29,1529.130421713402,1531.132548630354,left,1,3,0.8765172327985056,H10R02,2022-10-19_10h08.45.135,t1_Paradigm,2021.1.4,60.01332265386145,
N,left,Pretarget,0,30,30,30,1532.6304313374567,1534.632223978755,left,1,3,0.8649170342250727,H10R02,2022-10-19_10h08.45.135,t1_Paradigm,2021.1.4,60.01332265386145,
V,left,Distractor,0,31,31,31,1536.1303909164271,1538.132520399813,left,1,3,0.836635454732459,H10R02,2022-10-19_10h08.45.135,t1_Paradigm,2021.1.4,60.01332265386145,
R,left,Distractor,0,32,32,32,1539.6304541144054,1541.6322345652152,left,1,3,0.9850474209524691,H10R02,2022-10-19_10h08.45.135,t1_Paradigm,2021.1.4,60.01332265386145,
N,right,Target,0,33,33,33,1543.1305609414703,1545.131764590391,right,1,3,0.8933907739701681,H10R02,2022-10-19_10h08.45.135,t1_Paradigm,2021.1.4,60.01332265386145,
Z,left,Distractor,0,34,34,34,1546.6305176331662,1548.6323394674691,left,1,3,1.1049712112289853,H10R02,2022-10-19_10h08.45.135,t1_Paradigm,2021.1.4,60.01332265386145,
N,left,Lure,0,35,35,35,1550.130394124426,1552.1319689412485,right,0,3,1.061534305976238,H10R02,2022-10-19_10h08.45.135,t1_Paradigm,2021.1.4,60.01332265386145,
Y,left,Pretarget,0,36,36,36,1553.630381613155,1555.6323660940398,left,1,3,1.2728921066154726,H10R02,2022-10-19_10h08.45.135,t1_Paradigm,2021.1.4,60.01332265386145,
Y,left,Lure,0,37,37,37,1557.1305545254145,1559.130497743492,left,1,3,1.0067307457793504,H10R02,2022-10-19_10h08.45.135,t1_Paradigm,2021.1.4,60.01332265386145,
B,left,Distractor,0,38,38,38,1560.6305201996001,1562.6321793873212,left,1,3,0.9769468508311547,H10R02,2022-10-19_10h08.45.135,t1_Paradigm,2021.1.4,60.01332265386145,
Y,right,Target,0,39,39,39,1564.129549773701,1566.1322692118702,right,1,3,0.708796838647686,H10R02,2022-10-19_10h08.45.135,t1_Paradigm,2021.1.4,60.01332265386145,
J,left,Distractor,0,40,40,40,1567.630434224673,1569.6316064349958,left,1,3,0.9535443483036943,H10R02,2022-10-19_10h08.45.135,t1_Paradigm,2021.1.4,60.01332265386145,
X,left,Distractor,0,41,41,41,1571.1304425655399,1573.132096620393,left,1,3,0.8292983933351934,H10R02,2022-10-19_10h08.45.135,t1_Paradigm,2021.1.4,60.01332265386145,
W,left,Pretarget,0,42,42,42,1574.6303938036435,1576.6319047808065,left,1,3,0.833387014165055,H10R02,2022-10-19_10h08.45.135,t1_Paradigm,2021.1.4,60.01332265386145,
S,left,Pretarget,0,43,43,43,1578.1304300542688,1580.1317851216882,left,1,3,1.0455779375624843,H10R02,2022-10-19_10h08.45.135,t1_Paradigm,2021.1.4,60.01332265386145,
R,left,Distractor,0,44,44,44,1581.6304852321628,1583.6322496429202,None,0,3,,H10R02,2022-10-19_10h08.45.135,t1_Paradigm,2021.1.4,60.01332265386145,
W,right,Target,0,45,45,45,1585.130419788591,1587.1324879988097,right,1,3,1.2447876099031419,H10R02,2022-10-19_10h08.45.135,t1_Paradigm,2021.1.4,60.01332265386145,
S,right,Target,0,46,46,46,1588.6304281294579,1590.6310014025075,right,1,3,1.282435323111713,H10R02,2022-10-19_10h08.45.135,t1_Paradigm,2021.1.4,60.01332265386145,
D,left,Distractor,0,47,47,47,1592.130436149484,1594.1316709162202,left,1,3,1.2055406988947652,H10R02,2022-10-19_10h08.45.135,t1_Paradigm,2021.1.4,60.01332265386145,
T,left,Distractor,0,48,48,48,1595.6304303750512,1597.6322640790022,left,1,3,0.8409614691045135,H10R02,2022-10-19_10h08.45.135,t1_Paradigm,2021.1.4,60.01332265386145,
S,right,Target,0,49,49,49,1599.1303931620205,1601.1323224649532,left,0,3,1.3248466245713644,H10R02,2022-10-19_10h08.45.135,t1_Paradigm,2021.1.4,60.01332265386145,
K,left,Distractor,0,50,50,50,1602.630475608108,1604.6322589461925,left,1,3,1.4250260170083493,H10R02,2022-10-19_10h08.45.135,t1_Paradigm,2021.1.4,60.01332265386145,
S,left,Lure,0,51,51,51,1606.130481382541,1608.1321617431822,right,0,3,1.1091698671807535,H10R02,2022-10-19_10h08.45.135,t1_Paradigm,2021.1.4,60.01332265386145,
T,left,Pretarget,0,52,52,52,1609.6304743249202,1611.6320622945786,left,1,3,1.2731971892644651,H10R02,2022-10-19_10h08.45.135,t1_Paradigm,2021.1.4,60.01332265386145,
V,left,Distractor,0,53,53,53,1613.1303411921253,1615.1323179737665,left,1,3,0.8608903280692175,H10R02,2022-10-19_10h08.45.135,t1_Paradigm,2021.1.4,60.01332265386145,
B,left,Distractor,0,54,54,54,1616.6303684602608,1618.631940389867,left,1,3,1.3293994459090754,H10R02,2022-10-19_10h08.45.135,t1_Paradigm,2021.1.4,60.01332265386145,
T,right,Target,0,55,55,55,1620.1303617234225,1622.1314447508194,right,1,3,1.141811145178508,H10R02,2022-10-19_10h08.45.135,t1_Paradigm,2021.1.4,60.01332265386145,
Y,left,Pretarget,0,56,56,56,1623.6304181845626,1625.6324087607209,left,1,3,1.2408545779180713,H10R02,2022-10-19_10h08.45.135,t1_Paradigm,2021.1.4,60.01332265386145,
T,left,Lure,0,57,57,57,1627.1303610818577,1629.1322971216287,right,0,3,0.8289997266838327,H10R02,2022-10-19_10h08.45.135,t1_Paradigm,2021.1.4,60.01332265386145,
P,left,Pretarget,0,58,58,58,1630.630365252262,1632.632183236943,left,1,3,0.929092823411338,H10R02,2022-10-19_10h08.45.135,t1_Paradigm,2021.1.4,60.01332265386145,
Y,right,Target,0,59,59,59,1634.1304069565376,1636.1319394274615,right,1,3,0.9331945971935056,H10R02,2022-10-19_10h08.45.135,t1_Paradigm,2021.1.4,60.01332265386145,
R,left,Distractor,0,60,60,60,1637.630482665787,1639.632033743197,left,1,3,0.5371331468923017,H10R02,2022-10-19_10h08.45.135,t1_Paradigm,2021.1.4,60.01332265386145,
P,right,Target,0,61,61,61,1641.130499668303,1643.1318823246984,left,0,3,1.2294526348705404,H10R02,2022-10-19_10h08.45.135,t1_Paradigm,2021.1.4,60.01332265386145,
L,left,Distractor,0,62,62,62,1644.6305131419795,1646.6319156881073,left,1,3,0.9931226477492601,H10R02,2022-10-19_10h08.45.135,t1_Paradigm,2021.1.4,60.01332265386145,
V,left,Distractor,0,63,63,63,1648.130389633181,1650.1323032168439,left,1,3,1.0768038373207673,H10R02,2022-10-19_10h08.45.135,t1_Paradigm,2021.1.4,60.01332265386145,
H,left,Lure,0,0,0,0,1669.641050523729,1671.6321623848053,left,1,3,0.4091293178498745,H10R02,2022-10-19_10h08.45.135,t1_Paradigm,2021.1.4,60.01332265386145,
B,left,Distractor,0,1,1,1,1673.1295719090267,1675.1320792970946,left,1,3,0.6370610306621529,H10R02,2022-10-19_10h08.45.135,t1_Paradigm,2021.1.4,60.01332265386145,
T,left,Distractor,0,2,2,2,1676.6304643800831,1678.63241742237,left,1,3,0.46476535906549543,H10R02,2022-10-19_10h08.45.135,t1_Paradigm,2021.1.4,60.01332265386145,
R,left,Distractor,0,3,3,3,1680.1303614026401,1682.132167517615,left,1,3,1.0291377998073585,H10R02,2022-10-19_10h08.45.135,t1_Paradigm,2021.1.4,60.01332265386145,
H,left,Pretarget,0,4,4,4,1683.6304618136492,1685.63240683591,left,1,3,1.1611356132198125,H10R02,2022-10-19_10h08.45.135,t1_Paradigm,2021.1.4,60.01332265386145,
K,left,Distractor,0,5,5,5,1687.1304002196994,1689.132372189255,left,1,3,1.1487391841365024,H10R02,2022-10-19_10h08.45.135,t1_Paradigm,2021.1.4,60.01332265386145,
G,left,Distractor,0,6,6,6,1690.6303328512586,1692.632053312147,left,1,3,1.1211470081470907,H10R02,2022-10-19_10h08.45.135,t1_Paradigm,2021.1.4,60.01332265386145,
H,right,Target,0,7,7,7,1694.130392841238,1696.1321960689966,right,1,3,0.9013665521633811,H10R02,2022-10-19_10h08.45.135,t1_Paradigm,2021.1.4,60.01332265386145,
Y,left,Pretarget,0,8,8,8,1697.6303581946413,1699.6320260439534,left,1,3,0.6490458708140068,H10R02,2022-10-19_10h08.45.135,t1_Paradigm,2021.1.4,60.01332265386145,
S,left,Distractor,0,9,9,9,1701.1305064051412,1703.1316407608101,left,1,3,0.8455614483100362,H10R02,2022-10-19_10h08.45.135,t1_Paradigm,2021.1.4,60.01332265386145,
P,left,Distractor,0,10,10,10,1704.629708570661,1706.63205395377,left,1,3,0.817032209772151,H10R02,2022-10-19_10h08.45.135,t1_Paradigm,2021.1.4,60.01332265386145,
Y,right,Target,0,11,11,11,1708.1303694226663,1710.1323186153313,right,1,3,0.772574512695428,H10R02,2022-10-19_10h08.45.135,t1_Paradigm,2021.1.4,60.01332265386145,
H,left,Lure,0,12,12,12,1711.630363327451,1713.632052670524,left,1,3,0.6490474748425186,H10R02,2022-10-19_10h08.45.135,t1_Paradigm,2021.1.4,60.01332265386145,
Q,left,Distractor,0,13,13,13,1715.1295363000245,1717.1321344750468,left,1,3,0.8929891299339943,H10R02,2022-10-19_10h08.45.135,t1_Paradigm,2021.1.4,60.01332265386145,
V,left,Pretarget,0,14,14,14,1718.6304861945682,1720.63227434468,left,1,3,1.0889320759451948,H10R02,2022-10-19_10h08.45.135,t1_Paradigm,2021.1.4,60.01332265386145,
G,left,Distractor,0,15,15,15,1722.1302744653076,1724.1317235277384,left,1,3,0.6933880792348646,H10R02,2022-10-19_10h08.45.135,t1_Paradigm,2021.1.4,60.01332265386145,
Z,left,Pretarget,0,16,16,16,1725.6304294126458,1727.6320398384705,left,1,3,0.8891840979340486,H10R02,2022-10-19_10h08.45.135,t1_Paradigm,2021.1.4,60.01332265386145,
V,right,Target,0,17,17,17,1729.1303469665581,1731.131790896121,right,1,3,1.0693804800976068,H10R02,2022-10-19_10h08.45.135,t1_Paradigm,2021.1.4,60.01332265386145,
N,left,Distractor,0,18,18,18,1732.6303293224191,1734.631702996383,left,1,3,0.913608354749158,H10R02,2022-10-19_10h08.45.135,t1_Paradigm,2021.1.4,60.01332265386145,
Z,right,Target,0,19,19,19,1736.1303071870934,1738.1321376830456,right,1,3,0.7727397256530821,H10R02,2022-10-19_10h08.45.135,t1_Paradigm,2021.1.4,60.01332265386145,
R,left,Distractor,0,20,20,20,1739.6303703850717,1741.632153081533,left,1,3,0.6009467507246882,H10R02,2022-10-19_10h08.45.135,t1_Paradigm,2021.1.4,60.01332265386145,
P,left,Distractor,0,21,21,21,1743.1304399991059,1745.1321662344271,left,1,3,0.652960296254605,H10R02,2022-10-19_10h08.45.135,t1_Paradigm,2021.1.4,60.01332265386145,
Z,right,Target,0,22,22,22,1746.6304419239168,1748.6320202695206,right,1,3,0.5770617621019483,H10R02,2022-10-19_10h08.45.135,t1_Paradigm,2021.1.4,60.01332265386145,
D,left,Pretarget,0,23,23,23,1750.1304476983496,1752.1321113773156,left,1,3,0.6773357911151834,H10R02,2022-10-19_10h08.45.135,t1_Paradigm,2021.1.4,60.01332265386145,
K,left,Distractor,0,24,24,24,1753.6304714377038,1755.6319589963532,left,1,3,0.5531806230428629,H10R02,2022-10-19_10h08.45.135,t1_Paradigm,2021.1.4,60.01332265386145,
W,left,Distractor,0,25,25,25,1757.1302096633008,1759.131950334704,left,1,3,0.701158223382663,H10R02,2022-10-19_10h08.45.135,t1_Paradigm,2021.1.4,60.01332265386145,
D,right,Target,0,26,26,26,1760.6304329414852,1762.632372830878,right,1,3,1.0089077078155242,H10R02,2022-10-19_10h08.45.135,t1_Paradigm,2021.1.4,60.01332265386145,
G,left,Pretarget,0,27,27,27,1764.1303655730444,1766.1305776231457,left,1,3,0.8543985797441565,H10R02,2022-10-19_10h08.45.135,t1_Paradigm,2021.1.4,60.01332265386145,
V,left,Distractor,0,28,28,28,1767.6303710266948,1769.6316090014298,left,1,3,0.5375072020106018,H10R02,2022-10-19_10h08.45.135,t1_Paradigm,2021.1.4,60.01332265386145,
D,right,Target,0,29,29,29,1771.1304011821048,1773.1315371418023,right,1,3,0.6375470456550829,H10R02,2022-10-19_10h08.45.135,t1_Paradigm,2021.1.4,60.01332265386145,
G,right,Target,0,30,30,30,1774.6303825755604,1776.6304983850569,right,1,3,0.5786141227581538,H10R02,2022-10-19_10h08.45.135,t1_Paradigm,2021.1.4,60.01332265386145,
B,left,Pretarget,0,31,31,31,1778.1296177837066,1780.1321566103725,left,1,3,0.8049591490998864,H10R02,2022-10-19_10h08.45.135,t1_Paradigm,2021.1.4,60.01332265386145,
N,left,Distractor,0,32,32,32,1781.6303498537745,1783.6320914875832,left,1,3,0.905128596641589,H10R02,2022-10-19_10h08.45.135,t1_Paradigm,2021.1.4,60.01332265386145,
F,left,Distractor,0,33,33,33,1785.130423638213,1787.1321245301515,left,1,3,0.5731098027899861,H10R02,2022-10-19_10h08.45.135,t1_Paradigm,2021.1.4,60.01332265386145,
B,right,Target,0,34,34,34,1788.630304299877,1790.6323641692288,right,1,3,0.7207537690992467,H10R02,2022-10-19_10h08.45.135,t1_Paradigm,2021.1.4,60.01332265386145,
Q,left,Pretarget,0,35,35,35,1792.1303585154237,1794.1316430064617,left,1,3,0.8052597405039705,H10R02,2022-10-19_10h08.45.135,t1_Paradigm,2021.1.4,60.01332265386145,
S,left,Pretarget,0,36,36,36,1795.6303017335013,1797.6315326505573,left,1,3,1.0820823126705363,H10R02,2022-10-19_10h08.45.135,t1_Paradigm,2021.1.4,60.01332265386145,
W,left,Distractor,0,37,37,37,1799.130481382541,1801.1318168811267,left,1,3,0.5574989381129853,H10R02,2022-10-19_10h08.45.135,t1_Paradigm,2021.1.4,60.01332265386145,
Q,right,Target,0,38,38,38,1802.6303617234225,1804.631920820917,right,1,3,0.5133456820622087,H10R02,2022-10-19_10h08.45.135,t1_Paradigm,2021.1.4,60.01332265386145,
S,right,Target,0,39,39,39,1806.1303302848246,1808.1315900741029,right,1,3,0.9494926196639426,H10R02,2022-10-19_10h08.45.135,t1_Paradigm,2021.1.4,60.01332265386145,
T,left,Distractor,0,40,40,40,1809.6303469665581,1811.6317536830902,left,1,3,1.2254891267511994,H10R02,2022-10-19_10h08.45.135,t1_Paradigm,2021.1.4,60.01332265386145,
G,left,Distractor,0,41,41,41,1813.130438715918,1815.1316789362463,left,1,3,0.9096166160306893,H10R02,2022-10-19_10h08.45.135,t1_Paradigm,2021.1.4,60.01332265386145,
D,left,Distractor,0,42,42,42,1816.6304881194374,1818.6318909863476,left,1,3,0.6732779672020115,H10R02,2022-10-19_10h08.45.135,t1_Paradigm,2021.1.4,60.01332265386145,
S,left,Lure,0,43,43,43,1820.1302651620354,1822.1325396479224,left,1,3,0.6286932324874215,H10R02,2022-10-19_10h08.45.135,t1_Paradigm,2021.1.4,60.01332265386145,
Z,left,Pretarget,0,44,44,44,1823.6303177735535,1825.6315865453216,left,1,3,0.5855216304189526,H10R02,2022-10-19_10h08.45.135,t1_Paradigm,2021.1.4,60.01332265386145,
J,left,Distractor,0,45,45,45,1827.1303277184488,1829.1430410998291,left,1,3,0.7064203377813101,H10R02,2022-10-19_10h08.45.135,t1_Paradigm,2021.1.4,60.01332265386145,
M,left,Pretarget,0,46,46,46,1830.6303129615262,1832.6318139939103,left,1,3,1.4573942925781012,H10R02,2022-10-19_10h08.45.135,t1_Paradigm,2021.1.4,60.01332265386145,
Z,right,Target,0,47,47,47,1834.1301127811312,1836.1317164700595,None,0,3,,H10R02,2022-10-19_10h08.45.135,t1_Paradigm,2021.1.4,60.01332265386145,
P,left,Distractor,0,48,48,48,1837.6303809715318,1839.6295250719413,left,1,3,1.3076721711549908,H10R02,2022-10-19_10h08.45.135,t1_Paradigm,2021.1.4,60.01332265386145,
M,right,Target,0,49,49,49,1841.1303296432598,1843.1320160991163,right,1,3,0.7649358973721974,H10R02,2022-10-19_10h08.45.135,t1_Paradigm,2021.1.4,60.01332265386145,
K,left,Distractor,0,50,50,50,1844.6303164903657,1846.6319452018943,left,1,3,1.249131909920834,H10R02,2022-10-19_10h08.45.135,t1_Paradigm,2021.1.4,60.01332265386145,
Y,left,Distractor,0,51,51,51,1848.129492670938,1850.131545482669,left,1,3,0.9335218151682056,H10R02,2022-10-19_10h08.45.135,t1_Paradigm,2021.1.4,60.01332265386145,
X,left,Distractor,0,52,52,52,1851.630311357556,1853.6322688910295,left,1,3,1.3049212944461033,H10R02,2022-10-19_10h08.45.135,t1_Paradigm,2021.1.4,60.01332265386145,
F,left,Pretarget,0,53,53,53,1855.1294747060165,1857.131677332276,left,1,3,1.117389775638003,H10R02,2022-10-19_10h08.45.135,t1_Paradigm,2021.1.4,60.01332265386145,
M,left,Lure,0,54,54,54,1858.6302844101447,1860.6320003798464,left,1,3,0.641218944801949,H10R02,2022-10-19_10h08.45.135,t1_Paradigm,2021.1.4,60.01332265386145,
V,left,Distractor,0,55,55,55,1862.1302301946562,1864.1324799787253,left,1,3,0.6765995505847968,H10R02,2022-10-19_10h08.45.135,t1_Paradigm,2021.1.4,60.01332265386145,
F,right,Target,0,56,56,56,1865.6305997584714,1867.630856720847,right,1,3,0.5702889912645333,H10R02,2022-10-19_10h08.45.135,t1_Paradigm,2021.1.4,60.01332265386145,
S,left,Distractor,0,57,57,57,1869.1300656232634,1871.1430266637472,left,1,3,0.5941800751024857,H10R02,2022-10-19_10h08.45.135,t1_Paradigm,2021.1.4,60.01332265386145,
D,left,Distractor,0,58,58,58,1872.6303427960956,1874.6319198585115,left,1,3,0.6732888744445518,H10R02,2022-10-19_10h08.45.135,t1_Paradigm,2021.1.4,60.01332265386145,
F,right,Target,0,59,59,59,1876.1304553975933,1878.1293524804641,right,1,3,0.5357617185800336,H10R02,2022-10-19_10h08.45.135,t1_Paradigm,2021.1.4,60.01332265386145,
V,left,Pretarget,0,60,60,60,1879.6304326206446,1881.632051387336,left,1,3,0.6814375648391433,H10R02,2022-10-19_10h08.45.135,t1_Paradigm,2021.1.4,60.01332265386145,
J,left,Distractor,0,61,61,61,1883.1303386256914,1885.1316757282475,left,1,3,0.8135832679690793,H10R02,2022-10-19_10h08.45.135,t1_Paradigm,2021.1.4,60.01332265386145,
V,left,Lure,0,62,62,62,1886.629334515601,1888.6310822446248,left,1,3,0.7380241422215477,H10R02,2022-10-19_10h08.45.135,t1_Paradigm,2021.1.4,60.01332265386145,
V,right,Target,0,63,63,63,1890.1302555379807,1892.1302789565525,None,0,3,,H10R02,2022-10-19_10h08.45.135,t1_Paradigm,2021.1.4,60.01332265386145,
R,left,Distractor,0,0,0,0,1984.043801015534,1986.0309682957595,left,1,4,0.5861728583695367,H10R02,2022-10-19_10h08.45.135,t1_Paradigm,2021.1.4,60.01332265386145,
F,left,Distractor,0,1,1,1,1987.530361017678,1989.5323583306163,left,1,4,0.4925737555604428,H10R02,2022-10-19_10h08.45.135,t1_Paradigm,2021.1.4,60.01332265386145,
P,left,Pretarget,0,2,2,2,1991.0300722959219,1993.031680476095,left,1,4,0.4333931735600345,H10R02,2022-10-19_10h08.45.135,t1_Paradigm,2021.1.4,60.01332265386145,
H,left,Distractor,0,3,3,3,1994.5302663811017,1996.5320718545117,left,1,4,0.5489453956251964,H10R02,2022-10-19_10h08.45.135,t1_Paradigm,2021.1.4,60.01332265386145,
Z,left,Distractor,0,4,4,4,1998.0302827419946,2000.0317472029128,left,1,4,0.889069250843022,H10R02,2022-10-19_10h08.45.135,t1_Paradigm,2021.1.4,60.01332265386145,
T,left,Distractor,0,5,5,5,2001.5303943810868,2003.5314324962092,left,1,4,1.3417230529012159,H10R02,2022-10-19_10h08.45.135,t1_Paradigm,2021.1.4,60.01332265386145,
P,right,Target,0,6,6,6,2005.030210240744,2007.031948024931,None,0,4,,H10R02,2022-10-19_10h08.45.135,t1_Paradigm,2021.1.4,60.01332265386145,
G,left,Distractor,0,7,7,7,2008.5304088171688,2010.5318665412487,left,1,4,1.3173167611239478,H10R02,2022-10-19_10h08.45.135,t1_Paradigm,2021.1.4,60.01332265386145,
L,left,Distractor,0,8,8,8,2012.0303087269422,2014.0318447267055,left,1,4,1.3372504321159795,H10R02,2022-10-19_10h08.45.135,t1_Paradigm,2021.1.4,60.01332265386145,
P,left,Lure,0,9,9,9,2015.5303940603044,2017.5324487967882,left,1,4,1.3887198975426145,H10R02,2022-10-19_10h08.45.135,t1_Paradigm,2021.1.4,60.01332265386145,
Q,left,Pretarget,0,10,10,10,2019.030301990104,2021.0324731777655,left,1,4,0.960818532621488,H10R02,2022-10-19_10h08.45.135,t1_Paradigm,2021.1.4,60.01332265386145,
D,left,Distractor,0,11,11,11,2022.5303950227099,2024.532003202883,left,1,4,0.693005041743163,H10R02,2022-10-19_10h08.45.135,t1_Paradigm,2021.1.4,60.01332265386145,
M,left,Pretarget,0,12,12,12,2026.0302744011278,2028.0319938996108,left,1,4,0.6813102064770646,H10R02,2022-10-19_10h08.45.135,t1_Paradigm,2021.1.4,60.01332265386145,
C,left,Distractor,0,13,13,13,2029.5303430527565,2031.5316695688525,left,1,4,0.7333256768761203,H10R02,2022-10-19_10h08.45.135,t1_Paradigm,2021.1.4,60.01332265386145,
Q,right,Target,0,14,14,14,2033.0302464913693,2035.0322694684728,right,1,4,0.7209093580604531,H10R02,2022-10-19_10h08.45.135,t1_Paradigm,2021.1.4,60.01332265386145,
R,left,Distractor,0,15,15,15,2036.5299972282373,2038.5321937592234,left,1,4,1.3008718113414943,H10R02,2022-10-19_10h08.45.135,t1_Paradigm,2021.1.4,60.01332265386145,
M,right,Target,0,16,16,16,2040.0302083159331,2042.0302506617736,right,1,4,1.466938471479807,H10R02,2022-10-19_10h08.45.135,t1_Paradigm,2021.1.4,60.01332265386145,
S,left,Distractor,0,17,17,17,2043.5303732081666,2045.5317664510221,left,1,4,1.2294776574708521,H10R02,2022-10-19_10h08.45.135,t1_Paradigm,2021.1.4,60.01332265386145,
Z,left,Distractor,0,18,18,18,2047.0302262808545,2049.0315746114356,left,1,4,0.8493135479511693,H10R02,2022-10-19_10h08.45.135,t1_Paradigm,2021.1.4,60.01332265386145,
L,left,Pretarget,0,19,19,19,2050.530246170587,2052.5320153933717,left,1,4,0.5815196260227822,H10R02,2022-10-19_10h08.45.135,t1_Paradigm,2021.1.4,60.01332265386145,
M,right,Target,0,20,20,20,2054.0303786617587,2056.032223593793,right,1,4,0.7929364542942494,H10R02,2022-10-19_10h08.45.135,t1_Paradigm,2021.1.4,60.01332265386145,
P,left,Distractor,0,21,21,21,2057.5302641355083,2059.5319384008762,left,1,4,1.0051758186891675,H10R02,2022-10-19_10h08.45.135,t1_Paradigm,2021.1.4,60.01332265386145,
F,left,Distractor,0,22,22,22,2061.030231734505,2063.03193551366,left,1,4,0.945266053895466,H10R02,2022-10-19_10h08.45.135,t1_Paradigm,2021.1.4,60.01332265386145,
L,right,Target,0,23,23,23,2064.5301345314947,2066.5322685060673,right,1,4,1.108879220613744,H10R02,2022-10-19_10h08.45.135,t1_Paradigm,2021.1.4,60.01332265386145,
L,left,Lure,0,24,24,24,2068.0302500202088,2070.030173990119,left,1,4,0.9708795234910212,H10R02,2022-10-19_10h08.45.135,t1_Paradigm,2021.1.4,60.01332265386145,
V,left,Pretarget,0,25,25,25,2071.530174631742,2073.531993257988,left,1,4,1.2452816448640078,H10R02,2022-10-19_10h08.45.135,t1_Paradigm,2021.1.4,60.01332265386145,
Z,left,Distractor,0,26,26,26,2075.030253549048,2077.031914019957,left,1,4,1.0251569683896378,H10R02,2022-10-19_10h08.45.135,t1_Paradigm,2021.1.4,60.01332265386145,
H,left,Distractor,0,27,27,27,2078.5302695891005,2080.5321004058933,left,1,4,1.06135369441472,H10R02,2022-10-19_10h08.45.135,t1_Paradigm,2021.1.4,60.01332265386145,
X,left,Distractor,0,28,28,28,2082.0302487369627,2084.0324693280854,left,1,4,1.0005549874040298,H10R02,2022-10-19_10h08.45.135,t1_Paradigm,2021.1.4,60.01332265386145,
V,right,Target,0,29,29,29,2085.529805388709,2087.5314767668606,right,1,4,0.5257472440134734,H10R02,2022-10-19_10h08.45.135,t1_Paradigm,2021.1.4,60.01332265386145,
C,left,Distractor,0,30,30,30,2089.0301980502554,2091.032501087524,left,1,4,0.7686065132729709,H10R02,2022-10-19_10h08.45.135,t1_Paradigm,2021.1.4,60.01332265386145,
S,left,Pretarget,0,31,31,31,2092.530321559054,2094.531833819463,left,1,4,1.045411762141157,H10R02,2022-10-19_10h08.45.135,t1_Paradigm,2021.1.4,60.01332265386145,
D,left,Distractor,0,32,32,32,2096.0303273334866,2098.0316820801236,left,1,4,0.9213573259185068,H10R02,2022-10-19_10h08.45.135,t1_Paradigm,2021.1.4,60.01332265386145,
V,left,Distractor,0,33,33,33,2099.5304197244113,2101.5322383507155,left,1,4,0.9569214304792695,H10R02,2022-10-19_10h08.45.135,t1_Paradigm,2021.1.4,60.01332265386145,
R,left,Distractor,0,34,34,34,2103.0302872332395,2105.031917869579,left,1,4,1.1052063590614125,H10R02,2022-10-19_10h08.45.135,t1_Paradigm,2021.1.4,60.01332265386145,
S,right,Target,0,35,35,35,2106.529956807208,2108.531941608875,right,1,4,1.1572311326744966,H10R02,2022-10-19_10h08.45.135,t1_Paradigm,2021.1.4,60.01332265386145,
Y,left,Distractor,0,36,36,36,2110.030006210727,2112.030307122972,left,1,4,0.9867313104332425,H10R02,2022-10-19_10h08.45.135,t1_Paradigm,2021.1.4,60.01332265386145,
N,left,Pretarget,0,37,37,37,2113.5302570778294,2115.532430831867,None,0,4,,H10R02,2022-10-19_10h08.45.135,t1_Paradigm,2021.1.4,60.01332265386145,
Z,left,Pretarget,0,38,38,38,2117.030453408661,2119.031830611406,left,1,4,1.1372429253533483,H10R02,2022-10-19_10h08.45.135,t1_Paradigm,2021.1.4,60.01332265386145,
P,left,Pretarget,0,39,39,39,2120.529336376232,2122.5320147517486,left,1,4,0.8530534571618773,H10R02,2022-10-19_10h08.45.135,t1_Paradigm,2021.1.4,60.01332265386145,
M,left,Distractor,0,40,40,40,2124.030154421227,2126.032325288048,left,1,4,0.4408332124585286,H10R02,2022-10-19_10h08.45.135,t1_Paradigm,2021.1.4,60.01332265386145,
N,right,Target,0,41,41,41,2127.5301755941473,2129.531933588849,left,0,4,0.7011171607300639,H10R02,2022-10-19_10h08.45.135,t1_Paradigm,2021.1.4,60.01332265386145,
Z,right,Target,0,42,42,42,2131.030184576579,2133.031481578888,left,0,4,0.7215843253652565,H10R02,2022-10-19_10h08.45.135,t1_Paradigm,2021.1.4,60.01332265386145,
P,right,Target,0,43,43,43,2134.530185218202,2136.532162641466,right,1,4,0.6611943200114183,H10R02,2022-10-19_10h08.45.135,t1_Paradigm,2021.1.4,60.01332265386145,
X,left,Pretarget,0,44,44,44,2138.0303520352463,2140.032138260489,left,1,4,0.4730147812515497,H10R02,2022-10-19_10h08.45.135,t1_Paradigm,2021.1.4,60.01332265386145,
Z,left,Lure,0,45,45,45,2141.530224035261,2143.5320054484764,None,0,4,,H10R02,2022-10-19_10h08.45.135,t1_Paradigm,2021.1.4,60.01332265386145,
R,left,Pretarget,0,46,46,46,2145.0302079951507,2147.0320850073476,None,0,4,,H10R02,2022-10-19_10h08.45.135,t1_Paradigm,2021.1.4,60.01332265386145,
K,left,Distractor,0,47,47,47,2148.5299606568296,2150.531832536217,left,1,4,0.8052982367225923,H10R02,2022-10-19_10h08.45.135,t1_Paradigm,2021.1.4,60.01332265386145,
X,right,Target,0,48,48,48,2152.030035724514,2154.0293668524246,left,0,4,0.8118650527321734,H10R02,2022-10-19_10h08.45.135,t1_Paradigm,2021.1.4,60.01332265386145,
B,left,Distractor,0,49,49,49,2155.5300267420243,2157.532006410882,left,1,4,1.1330375325051136,H10R02,2022-10-19_10h08.45.135,t1_Paradigm,2021.1.4,60.01332265386145,
R,right,Target,0,50,50,50,2159.030185218202,2161.032170019869,right,1,4,1.0250742014613934,H10R02,2022-10-19_10h08.45.135,t1_Paradigm,2021.1.4,60.01332265386145,
Y,left,Pretarget,0,51,51,51,2162.5302176192054,2164.53190535825,left,1,4,0.7732241366175003,H10R02,2022-10-19_10h08.45.135,t1_Paradigm,2021.1.4,60.01332265386145,
W,left,Pretarget,0,52,52,52,2166.030328295892,2168.032438210328,left,1,4,1.0006075989222154,H10R02,2022-10-19_10h08.45.135,t1_Paradigm,2021.1.4,60.01332265386145,
Z,left,Distractor,0,53,53,53,2169.5293957245885,2171.5318408770836,left,1,4,0.9892913099611178,H10R02,2022-10-19_10h08.45.135,t1_Paradigm,2021.1.4,60.01332265386145,
Q,left,Distractor,0,54,54,54,2173.0301390227396,2175.0293254689896,None,0,4,,H10R02,2022-10-19_10h08.45.135,t1_Paradigm,2021.1.4,60.01332265386145,
Y,right,Target,0,55,55,55,2176.5304322356824,2178.532368596294,None,0,4,,H10R02,2022-10-19_10h08.45.135,t1_Paradigm,2021.1.4,60.01332265386145,
W,right,Target,0,56,56,56,2180.0302362256916,2182.0307203158736,left,0,4,0.8900916466955096,H10R02,2022-10-19_10h08.45.135,t1_Paradigm,2021.1.4,60.01332265386145,
H,left,Pretarget,0,57,57,57,2183.5301541003864,2185.52934664191,left,1,4,0.8158770019654185,H10R02,2022-10-19_10h08.45.135,t1_Paradigm,2021.1.4,60.01332265386145,
M,left,Distractor,0,58,58,58,2187.029817258357,2189.03229384945,left,1,4,0.8649083725758828,H10R02,2022-10-19_10h08.45.135,t1_Paradigm,2021.1.4,60.01332265386145,
R,left,Pretarget,0,59,59,59,2190.5301213786006,2192.532308927155,right,0,4,0.7568151167361066,H10R02,2022-10-19_10h08.45.135,t1_Paradigm,2021.1.4,60.01332265386145,
J,left,Distractor,0,60,60,60,2194.0302375089377,2196.0324154333794,left,1,4,0.6326227356330492,H10R02,2022-10-19_10h08.45.135,t1_Paradigm,2021.1.4,60.01332265386145,
H,right,Target,0,61,61,61,2197.5302859499934,2199.5310273233335,left,0,4,0.606104283768218,H10R02,2022-10-19_10h08.45.135,t1_Paradigm,2021.1.4,60.01332265386145,
Z,left,Distractor,0,62,62,62,2201.029343433853,2203.031379243068,left,1,4,0.8654129940550774,H10R02,2022-10-19_10h08.45.135,t1_Paradigm,2021.1.4,60.01332265386145,
R,right,Target,0,63,63,63,2204.530319634243,2206.532276205311,right,1,4,1.4449978634365834,H10R02,2022-10-19_10h08.45.135,t1_Paradigm,2021.1.4,60.01332265386145,
J,left,Pretarget,0,0,0,0,2224.743906687654,2226.7486102859257,left,1,4,0.42858948512002826,H10R02,2022-10-19_10h08.45.135,t1_Paradigm,2021.1.4,60.01332265386145,
G,left,Pretarget,0,1,1,1,2228.246883729822,2230.248945844767,left,1,4,0.3680663469713181,H10R02,2022-10-19_10h08.45.135,t1_Paradigm,2021.1.4,60.01332265386145,
Z,left,Distractor,0,2,2,2,2231.7469405117445,2233.7486561606056,left,1,4,0.4685318947886117,H10R02,2022-10-19_10h08.45.135,t1_Paradigm,2021.1.4,60.01332265386145,
F,left,Distractor,0,3,3,3,2235.2468769929837,2237.248047599278,left,1,4,0.5850070640444756,H10R02,2022-10-19_10h08.45.135,t1_Paradigm,2021.1.4,60.01332265386145,
J,right,Target,0,4,4,4,2238.7467829979723,2240.7459963916335,right,1,4,1.0390528258285485,H10R02,2022-10-19_10h08.45.135,t1_Paradigm,2021.1.4,60.01332265386145,
G,right,Target,0,5,5,5,2242.246746105782,2244.249149874784,right,1,4,1.1519183315103874,H10R02,2022-10-19_10h08.45.135,t1_Paradigm,2021.1.4,60.01332265386145,
H,left,Distractor,0,6,6,6,2245.746840421576,2247.749077052751,None,0,4,,H10R02,2022-10-19_10h08.45.135,t1_Paradigm,2021.1.4,60.01332265386145,
P,left,Distractor,0,7,7,7,2249.2470021057525,2251.249065183103,left,1,4,1.4159691362874582,H10R02,2022-10-19_10h08.45.135,t1_Paradigm,2021.1.4,60.01332265386145,
G,left,Lure,0,8,8,8,2252.7467627874576,2254.7488226568094,right,0,4,1.0202294504269958,H10R02,2022-10-19_10h08.45.135,t1_Paradigm,2021.1.4,60.01332265386145,
S,left,Distractor,0,9,9,9,2256.2468741057673,2258.2487498347764,left,1,4,0.6720512204919942,H10R02,2022-10-19_10h08.45.135,t1_Paradigm,2021.1.4,60.01332265386145,
R,left,Pretarget,0,10,10,10,2259.746925113257,2261.7489006117103,left,1,4,0.6924298438243568,H10R02,2022-10-19_10h08.45.135,t1_Paradigm,2021.1.4,60.01332265386145,
T,left,Pretarget,0,11,11,11,2263.246820211003,2265.2488714187057,left,1,4,1.144460327748675,H10R02,2022-10-19_10h08.45.135,t1_Paradigm,2021.1.4,60.01332265386145,
X,left,Distractor,0,12,12,12,2266.7465581158176,2268.748872381111,left,1,4,0.7001515468582511,H10R02,2022-10-19_10h08.45.135,t1_Paradigm,2021.1.4,60.01332265386145,
F,left,Pretarget,0,13,13,13,2270.246637033124,2272.2489907570416,left,1,4,0.7520274683483876,H10R02,2022-10-19_10h08.45.135,t1_Paradigm,2021.1.4,60.01332265386145,
R,right,Target,0,14,14,14,2273.7469504566398,2275.7485884713824,left,0,4,0.7243563750525936,H10R02,2022-10-19_10h08.45.135,t1_Paradigm,2021.1.4,60.01332265386145,
T,right,Target,0,15,15,15,2277.2468728225213,2279.246987990453,right,1,4,1.4339895444572903,H10R02,2022-10-19_10h08.45.135,t1_Paradigm,2021.1.4,60.01332265386145,
C,left,Distractor,0,16,16,16,2280.746794546896,2282.749193183088,left,1,4,0.9399506862973794,H10R02,2022-10-19_10h08.45.135,t1_Paradigm,2021.1.4,60.01332265386145,
F,right,Target,0,17,17,17,2284.2468708977103,2286.2481101556914,right,1,4,1.0089150862768292,H10R02,2022-10-19_10h08.45.135,t1_Paradigm,2021.1.4,60.01332265386145,
M,left,Distractor,0,18,18,18,2287.7467987173004,2289.7482272483758,left,1,4,0.7568180038942955,H10R02,2022-10-19_10h08.45.135,t1_Paradigm,2021.1.4,60.01332265386145,
N,left,Distractor,0,19,19,19,2291.2468583864393,2293.2461173339398,left,1,4,0.9709808969055302,H10R02,2022-10-19_10h08.45.135,t1_Paradigm,2021.1.4,60.01332265386145,
R,left,Lure,0,20,20,20,2294.746837213519,2296.7490738447523,left,1,4,0.5081130813923664,H10R02,2022-10-19_10h08.45.135,t1_Paradigm,2021.1.4,60.01332265386145,
F,right,Target,0,21,21,21,2298.2460040908772,2300.247392200923,right,1,4,0.5618717895704322,H10R02,2022-10-19_10h08.45.135,t1_Paradigm,2021.1.4,60.01332265386145,
P,left,Distractor,0,22,22,22,2301.7468744265498,2303.7484315992333,left,1,4,0.6766001922660507,H10R02,2022-10-19_10h08.45.135,t1_Paradigm,2021.1.4,60.01332265386145,
L,left,Pretarget,0,23,23,23,2305.2467910180567,2307.249069032725,left,1,4,0.6318091818829998,H10R02,2022-10-19_10h08.45.135,t1_Paradigm,2021.1.4,60.01332265386145,
T,left,Distractor,0,24,24,24,2308.7460332838236,2310.748684711987,left,1,4,0.6363360182731412,H10R02,2022-10-19_10h08.45.135,t1_Paradigm,2021.1.4,60.01332265386145,
F,left,Distractor,0,25,25,25,2312.246940832585,2314.2487944262684,right,0,4,0.5923107621492818,H10R02,2022-10-19_10h08.45.135,t1_Paradigm,2021.1.4,60.01332265386145,
V,left,Distractor,0,26,26,26,2315.746857424034,2317.7487584964256,left,1,4,0.7402748887543567,H10R02,2022-10-19_10h08.45.135,t1_Paradigm,2021.1.4,60.01332265386145,
L,right,Target,0,27,27,27,2319.246825343871,2321.2489958898514,right,1,4,0.5200209291069768,H10R02,2022-10-19_10h08.45.135,t1_Paradigm,2021.1.4,60.01332265386145,
S,left,Pretarget,0,28,28,28,2322.746786847594,2324.74906454148,left,1,4,0.7481204213690944,H10R02,2022-10-19_10h08.45.135,t1_Paradigm,2021.1.4,60.01332265386145,
W,left,Distractor,0,29,29,29,2326.246740010509,2328.248770045291,left,1,4,0.976258730632253,H10R02,2022-10-19_10h08.45.135,t1_Paradigm,2021.1.4,60.01332265386145,
Q,left,Distractor,0,30,30,30,2329.7469129227684,2331.7487427771557,left,1,4,1.0924368373234756,H10R02,2022-10-19_10h08.45.135,t1_Paradigm,2021.1.4,60.01332265386145,
L,right,Target,0,31,31,31,2333.246776261134,2335.2485708273016,None,0,4,,H10R02,2022-10-19_10h08.45.135,t1_Paradigm,2021.1.4,60.01332265386145,
S,right,Target,0,32,32,32,2336.74684972479,2338.7491501956247,right,1,4,1.1318884199718013,H10R02,2022-10-19_10h08.45.135,t1_Paradigm,2021.1.4,60.01332265386145,
Z,left,Pretarget,0,33,33,33,2340.246740010509,2342.248865644273,left,1,4,0.9283408636110835,H10R02,2022-10-19_10h08.45.135,t1_Paradigm,2021.1.4,60.01332265386145,
F,left,Distractor,0,34,34,34,2343.746927038068,2345.7482788974885,left,1,4,1.045006268483121,H10R02,2022-10-19_10h08.45.135,t1_Paradigm,2021.1.4,60.01332265386145,
V,left,Distractor,0,35,35,35,2347.246938266151,2349.246125995589,left,1,4,0.9229193106293678,H10R02,2022-10-19_10h08.45.135,t1_Paradigm,2021.1.4,60.01332265386145,
M,left,Distractor,0,36,36,36,2350.7468000004883,2352.7488123911317,left,1,4,0.7644431455410086,H10R02,2022-10-19_10h08.45.135,t1_Paradigm,2021.1.4,60.01332265386145,
Z,right,Target,0,37,37,37,2354.2469167723903,2356.2483135441435,left,0,4,0.8006658565136604,H10R02,2022-10-19_10h08.45.135,t1_Paradigm,2021.1.4,60.01332265386145,
H,left,Pretarget,0,38,38,38,2357.7468028877047,2359.749021874857,left,1,4,0.9480098729836755,H10R02,2022-10-19_10h08.45.135,t1_Paradigm,2021.1.4,60.01332265386145,
L,left,Distractor,0,39,39,39,2361.2468153989757,2363.2486173435464,left,1,4,0.6964456426794641,H10R02,2022-10-19_10h08.45.135,t1_Paradigm,2021.1.4,60.01332265386145,
G,left,Distractor,0,40,40,40,2364.746740010509,2366.748890666815,left,1,4,1.1644876728532836,H10R02,2022-10-19_10h08.45.135,t1_Paradigm,2021.1.4,60.01332265386145,
K,left,Distractor,0,41,41,41,2368.2468439503573,2370.2489073485485,left,1,4,0.8962940316996537,H10R02,2022-10-19_10h08.45.135,t1_Paradigm,2021.1.4,60.01332265386145,
H,right,Target,0,42,42,42,2371.746393865207,2373.748610606708,right,1,4,0.9323755897930823,H10R02,2022-10-19_10h08.45.135,t1_Paradigm,2021.1.4,60.01332265386145,
B,left,Distractor,0,43,43,43,2375.24683400552,2377.2489913986647,left,1,4,0.6479605978238396,H10R02,2022-10-19_10h08.45.135,t1_Paradigm,2021.1.4,60.01332265386145,
Z,left,Distractor,0,44,44,44,2378.7468301558984,2380.7476010429673,left,1,4,0.6215088727767579,H10R02,2022-10-19_10h08.45.135,t1_Paradigm,2021.1.4,60.01332265386145,
T,left,Pretarget,0,45,45,45,2382.2468263062765,2384.2488422257593,left,1,4,0.6079752006917261,H10R02,2022-10-19_10h08.45.135,t1_Paradigm,2021.1.4,60.01332265386145,
H,right,Target,0,46,46,46,2385.7466254842584,2387.748115288501,right,1,4,0.8848154169972986,H10R02,2022-10-19_10h08.45.135,t1_Paradigm,2021.1.4,60.01332265386145,
F,left,Distractor,0,47,47,47,2389.246825985436,2391.2490738447523,left,1,4,0.8560629003331997,H10R02,2022-10-19_10h08.45.135,t1_Paradigm,2021.1.4,60.01332265386145,
R,left,Distractor,0,48,48,48,2392.746858065657,2394.748855378595,left,1,4,0.8602618770673871,H10R02,2022-10-19_10h08.45.135,t1_Paradigm,2021.1.4,60.01332265386145,
T,right,Target,0,49,49,49,2396.246929604502,2398.248674767092,right,1,4,1.264803406142164,H10R02,2022-10-19_10h08.45.135,t1_Paradigm,2021.1.4,60.01332265386145,
H,right,Target,0,50,50,50,2399.7468128326,2401.748382195714,right,1,4,1.268873741326388,H10R02,2022-10-19_10h08.45.135,t1_Paradigm,2021.1.4,60.01332265386145,
Y,left,Pretarget,0,51,51,51,2403.246907469176,2405.249164952489,left,1,4,0.8399602461722679,H10R02,2022-10-19_10h08.45.135,t1_Paradigm,2021.1.4,60.01332265386145,
H,left,Distractor,0,52,52,52,2406.746040662285,2408.748787047807,left,1,4,1.052197365090251,H10R02,2022-10-19_10h08.45.135,t1_Paradigm,2021.1.4,60.01332265386145,
S,left,Distractor,0,53,53,53,2410.246835930331,2412.248487097968,left,1,4,0.9927367229247466,H10R02,2022-10-19_10h08.45.135,t1_Paradigm,2021.1.4,60.01332265386145,
Q,left,Distractor,0,54,54,54,2413.7468891834724,2415.7460534943384,left,1,4,0.9349577247048728,H10R02,2022-10-19_10h08.45.135,t1_Paradigm,2021.1.4,60.01332265386145,
Y,right,Target,0,55,55,55,2417.246799038083,2419.2479991582222,right,1,4,0.6328357481397688,H10R02,2022-10-19_10h08.45.135,t1_Paradigm,2021.1.4,60.01332265386145,
R,left,Distractor,0,56,56,56,2420.7469693839084,2422.749034386128,left,1,4,0.8759830975905061,H10R02,2022-10-19_10h08.45.135,t1_Paradigm,2021.1.4,60.01332265386145,
H,left,Pretarget,0,57,57,57,2424.2468426671694,2426.2485826969496,right,0,4,0.9925198608543724,H10R02,2022-10-19_10h08.45.135,t1_Paradigm,2021.1.4,60.01332265386145,
J,left,Distractor,0,58,58,58,2427.745967840252,2429.7486535941716,left,1,4,0.7724599863868207,H10R02,2022-10-19_10h08.45.135,t1_Paradigm,2021.1.4,60.01332265386145,
V,left,Distractor,0,59,59,59,2431.2467666370794,2433.248667388689,left,1,4,0.6161777858505957,H10R02,2022-10-19_10h08.45.135,t1_Paradigm,2021.1.4,60.01332265386145,
Y,left,Lure,0,60,60,60,2434.746723008051,2436.7483837997424,left,1,4,0.9567125884350389,H10R02,2022-10-19_10h08.45.135,t1_Paradigm,2021.1.4,60.01332265386145,
H,right,Target,0,61,61,61,2438.246955268667,2440.2458600507816,left,0,4,0.9791879732511006,H10R02,2022-10-19_10h08.45.135,t1_Paradigm,2021.1.4,60.01332265386145,
L,left,Distractor,0,62,62,62,2441.7467621458927,2443.7490228372626,left,1,4,0.7720724576502107,H10R02,2022-10-19_10h08.45.135,t1_Paradigm,2021.1.4,60.01332265386145,
P,left,Distractor,0,63,63,63,2445.2468157198164,2447.2485220654053,left,1,4,0.6806352391722612,H10R02,2022-10-19_10h08.45.135,t1_Paradigm,2021.1.4,60.01332265386145,
