Letter,CorrAnswer,Stimulus,nback_run.thisRepN,nback_run.thisTrialN,nback_run.thisN,nback_run.thisIndex,fixcross.started,nback_trial.started,trial_resp.keys,trial_resp.corr,currentlevel,trial_resp.rt,Participant,date,expName,psychopyVersion,frameRate,
H,left,Distractor,0,0,0,0,279.8977999417111,281.8504309975542,None,0,1,,H12S02,2023-01-09_09h21.46.005,t1_Paradigm,2021.1.4,59.9865678786285,
Q,left,Pretarget,0,1,1,1,283.35023691225797,285.3612721716054,left,1,1,0.7320205057039857,H12S02,2023-01-09_09h21.46.005,t1_Paradigm,2021.1.4,59.9865678786285,
Q,right,Target,0,2,2,2,286.8482469790615,288.83194896718487,right,1,1,0.9414828740991652,H12S02,2023-01-09_09h21.46.005,t1_Paradigm,2021.1.4,59.9865678786285,
T,left,Distractor,0,3,3,3,290.33193260617554,292.333516725339,left,1,1,0.9281041580252349,H12S02,2023-01-09_09h21.46.005,t1_Paradigm,2021.1.4,59.9865678786285,
Q,left,Lure,0,4,4,4,293.83200382394716,295.834415611811,None,0,1,,H12S02,2023-01-09_09h21.46.005,t1_Paradigm,2021.1.4,59.9865678786285,
L,left,Distractor,0,5,5,5,297.33207087172195,299.33369380794466,left,1,1,1.1917239567264915,H12S02,2023-01-09_09h21.46.005,t1_Paradigm,2021.1.4,59.9865678786285,
V,left,Pretarget,0,6,6,6,300.8484170041047,302.8334548105486,left,1,1,0.9239077502861619,H12S02,2023-01-09_09h21.46.005,t1_Paradigm,2021.1.4,59.9865678786285,
V,right,Target,0,7,7,7,304.3483624677174,306.3319521751255,right,1,1,0.7212678724899888,H12S02,2023-01-09_09h21.46.005,t1_Paradigm,2021.1.4,59.9865678786285,
K,left,Distractor,0,8,8,8,307.8315739496611,309.833625797648,left,1,1,0.8357517505064607,H12S02,2023-01-09_09h21.46.005,t1_Paradigm,2021.1.4,59.9865678786285,
G,left,Pretarget,0,9,9,9,311.3319993331097,313.333930880297,left,1,1,0.9513478488661349,H12S02,2023-01-09_09h21.46.005,t1_Paradigm,2021.1.4,59.9865678786285,
G,right,Target,0,10,10,10,314.8318068520166,316.831580366008,right,1,1,0.7819157638587058,H12S02,2023-01-09_09h21.46.005,t1_Paradigm,2021.1.4,59.9865678786285,
G,right,Target,0,11,11,11,318.33191688684747,320.3316663405858,right,1,1,0.49770466377958655,H12S02,2023-01-09_09h21.46.005,t1_Paradigm,2021.1.4,59.9865678786285,
P,left,Pretarget,0,12,12,12,321.8316336190328,323.8327182494104,left,1,1,0.5967015163041651,H12S02,2023-01-09_09h21.46.005,t1_Paradigm,2021.1.4,59.9865678786285,
P,right,Target,0,13,13,13,325.3483486729674,327.34847057797015,right,1,1,0.6489370237104595,H12S02,2023-01-09_09h21.46.005,t1_Paradigm,2021.1.4,59.9865678786285,
G,left,Lure,0,14,14,14,328.83161501260474,330.83381025865674,left,1,1,0.8434882056899369,H12S02,2023-01-09_09h21.46.005,t1_Paradigm,2021.1.4,59.9865678786285,
Y,left,Distractor,0,15,15,15,332.34792874380946,334.3335263491608,left,1,1,0.7037492101080716,H12S02,2023-01-09_09h21.46.005,t1_Paradigm,2021.1.4,59.9865678786285,
B,left,Distractor,0,16,16,16,335.848447480239,337.84939192049205,left,1,1,0.7719057872891426,H12S02,2023-01-09_09h21.46.005,t1_Paradigm,2021.1.4,59.9865678786285,
T,left,Pretarget,0,17,17,17,339.33184213982895,341.33295083092526,left,1,1,0.8244502260349691,H12S02,2023-01-09_09h21.46.005,t1_Paradigm,2021.1.4,59.9865678786285,
T,right,Target,0,18,18,18,342.8318511224352,344.83191047096625,right,1,1,0.7012870563194156,H12S02,2023-01-09_09h21.46.005,t1_Paradigm,2021.1.4,59.9865678786285,
S,left,Distractor,0,19,19,19,346.3317449372262,348.3326945104636,left,1,1,0.5604515606537461,H12S02,2023-01-09_09h21.46.005,t1_Paradigm,2021.1.4,59.9865678786285,
T,left,Lure,0,20,20,20,349.8482126533054,351.8338269405067,right,0,1,0.9153282283805311,H12S02,2023-01-09_09h21.46.005,t1_Paradigm,2021.1.4,59.9865678786285,
J,left,Distractor,0,21,21,21,353.34812731994316,355.33359147189185,left,1,1,0.6640224047005177,H12S02,2023-01-09_09h21.46.005,t1_Paradigm,2021.1.4,59.9865678786285,
P,left,Distractor,0,22,22,22,356.83202820504084,358.83379678521305,left,1,1,1.0034457314759493,H12S02,2023-01-09_09h21.46.005,t1_Paradigm,2021.1.4,59.9865678786285,
F,left,Distractor,0,23,23,23,360.3319258694537,362.33383175265044,left,1,1,0.7354040015488863,H12S02,2023-01-09_09h21.46.005,t1_Paradigm,2021.1.4,59.9865678786285,
L,left,Distractor,0,24,24,24,363.83188705239445,365.8332594423555,left,1,1,0.6762263448908925,H12S02,2023-01-09_09h21.46.005,t1_Paradigm,2021.1.4,59.9865678786285,
W,left,Pretarget,0,25,25,25,367.3318896186538,369.3335378980264,left,1,1,0.7281349548138678,H12S02,2023-01-09_09h21.46.005,t1_Paradigm,2021.1.4,59.9865678786285,
W,right,Target,0,26,26,26,370.8319447967224,372.8317205561325,right,1,1,0.8778178421780467,H12S02,2023-01-09_09h21.46.005,t1_Paradigm,2021.1.4,59.9865678786285,
V,left,Distractor,0,27,27,27,374.33193388953805,376.33225757814944,left,1,1,0.7208771361038089,H12S02,2023-01-09_09h21.46.005,t1_Paradigm,2021.1.4,59.9865678786285,
W,left,Lure,0,28,28,28,377.83148027583957,379.83296430436894,right,0,1,1.332392635755241,H12S02,2023-01-09_09h21.46.005,t1_Paradigm,2021.1.4,59.9865678786285,
R,left,Pretarget,0,29,29,29,381.34851292381063,383.3501743557863,left,1,1,0.9990542763844132,H12S02,2023-01-09_09h21.46.005,t1_Paradigm,2021.1.4,59.9865678786285,
R,right,Target,0,30,30,30,384.8317879247479,386.83180492697284,right,1,1,0.9254678091965616,H12S02,2023-01-09_09h21.46.005,t1_Paradigm,2021.1.4,59.9865678786285,
G,left,Distractor,0,31,31,31,388.33143440121785,390.3338445844129,left,1,1,1.0234961616806686,H12S02,2023-01-09_09h21.46.005,t1_Paradigm,2021.1.4,59.9865678786285,
R,left,Lure,0,32,32,32,391.84834289876744,393.8337631011382,left,1,1,0.7074012174271047,H12S02,2023-01-09_09h21.46.005,t1_Paradigm,2021.1.4,59.9865678786285,
S,left,Distractor,0,33,33,33,395.3484741067514,397.33302076580003,left,1,1,0.7283434760756791,H12S02,2023-01-09_09h21.46.005,t1_Paradigm,2021.1.4,59.9865678786285,
R,left,Lure,0,34,34,34,398.8319775182754,400.83361585298553,left,1,1,0.8116957899183035,H12S02,2023-01-09_09h21.46.005,t1_Paradigm,2021.1.4,59.9865678786285,
P,left,Pretarget,0,35,35,35,402.34834418212995,404.35049612028524,left,1,1,0.8147430862300098,H12S02,2023-01-09_09h21.46.005,t1_Paradigm,2021.1.4,59.9865678786285,
P,right,Target,0,36,36,36,405.84847795637324,407.83190597966313,right,1,1,0.8372652931138873,H12S02,2023-01-09_09h21.46.005,t1_Paradigm,2021.1.4,59.9865678786285,
Y,left,Pretarget,0,37,37,37,409.33158004516736,411.3319383803755,left,1,1,0.8253670772537589,H12S02,2023-01-09_09h21.46.005,t1_Paradigm,2021.1.4,59.9865678786285,
Y,right,Target,0,38,38,38,412.8318601050414,414.8315880652517,right,1,1,0.8456494468264282,H12S02,2023-01-09_09h21.46.005,t1_Paradigm,2021.1.4,59.9865678786285,
J,left,Distractor,0,39,39,39,416.3315409072675,418.332021468319,left,1,1,0.593277920037508,H12S02,2023-01-09_09h21.46.005,t1_Paradigm,2021.1.4,59.9865678786285,
Y,left,Lure,0,40,40,40,419.8318058894947,421.8317558444105,left,1,1,1.2853788188658655,H12S02,2023-01-09_09h21.46.005,t1_Paradigm,2021.1.4,59.9865678786285,
T,left,Distractor,0,41,41,41,423.3316846261732,425.3333701188676,left,1,1,1.0959360837005079,H12S02,2023-01-09_09h21.46.005,t1_Paradigm,2021.1.4,59.9865678786285,
V,left,Distractor,0,42,42,42,426.83179594483227,428.8330791518092,left,1,1,0.8285173503682017,H12S02,2023-01-09_09h21.46.005,t1_Paradigm,2021.1.4,59.9865678786285,
N,left,Pretarget,0,43,43,43,430.3485408332199,432.3515214025974,left,1,1,0.8301951438188553,H12S02,2023-01-09_09h21.46.005,t1_Paradigm,2021.1.4,59.9865678786285,
N,right,Target,0,44,44,44,433.8484198912047,435.83190822508186,right,1,1,0.6776038673706353,H12S02,2023-01-09_09h21.46.005,t1_Paradigm,2021.1.4,59.9865678786285,
N,right,Target,0,45,45,45,437.33164484705776,439.33141739852726,right,1,1,0.6177429030649364,H12S02,2023-01-09_09h21.46.005,t1_Paradigm,2021.1.4,59.9865678786285,
X,left,Distractor,0,46,46,46,440.8314546113834,442.8329396029003,left,1,1,0.6362117803655565,H12S02,2023-01-09_09h21.46.005,t1_Paradigm,2021.1.4,59.9865678786285,
Z,left,Distractor,0,47,47,47,444.34846319956705,446.350372611545,left,1,1,0.7508175633847713,H12S02,2023-01-09_09h21.46.005,t1_Paradigm,2021.1.4,59.9865678786285,
H,left,Pretarget,0,48,48,48,447.8319585910067,449.8328780089505,left,1,1,0.6123951380141079,H12S02,2023-01-09_09h21.46.005,t1_Paradigm,2021.1.4,59.9865678786285,
H,right,Target,0,49,49,49,451.3317693178542,453.3317378796637,right,1,1,0.857486710883677,H12S02,2023-01-09_09h21.46.005,t1_Paradigm,2021.1.4,59.9865678786285,
K,left,Distractor,0,50,50,50,454.83163746865466,456.83289533201605,left,1,1,0.7001417940482497,H12S02,2023-01-09_09h21.46.005,t1_Paradigm,2021.1.4,59.9865678786285,
V,left,Pretarget,0,51,51,51,458.33170227054507,460.3332039434463,left,1,1,0.6719798925332725,H12S02,2023-01-09_09h21.46.005,t1_Paradigm,2021.1.4,59.9865678786285,
V,right,Target,0,52,52,52,461.84845325443894,463.83182321256027,right,1,1,0.6935720955953002,H12S02,2023-01-09_09h21.46.005,t1_Paradigm,2021.1.4,59.9865678786285,
R,left,Distractor,0,53,53,53,465.33177958382294,467.3338048052974,left,1,1,0.5513401497155428,H12S02,2023-01-09_09h21.46.005,t1_Paradigm,2021.1.4,59.9865678786285,
V,left,Lure,0,54,54,54,468.83175648609176,470.83407748676836,left,1,1,0.5871345666237175,H12S02,2023-01-09_09h21.46.005,t1_Paradigm,2021.1.4,59.9865678786285,
Y,left,Distractor,0,55,55,55,472.3484221366234,474.35042618541047,left,1,1,0.7507652724161744,H12S02,2023-01-09_09h21.46.005,t1_Paradigm,2021.1.4,59.9865678786285,
Q,left,Distractor,0,56,56,56,475.8482396006584,477.8337024692446,left,1,1,0.8514482597820461,H12S02,2023-01-09_09h21.46.005,t1_Paradigm,2021.1.4,59.9865678786285,
Z,left,Pretarget,0,57,57,57,479.348474427592,481.33271472062916,left,1,1,0.6487644319422543,H12S02,2023-01-09_09h21.46.005,t1_Paradigm,2021.1.4,59.9865678786285,
Z,right,Target,0,58,58,58,482.84828900406137,484.8480503275059,right,1,1,0.7812205865047872,H12S02,2023-01-09_09h21.46.005,t1_Paradigm,2021.1.4,59.9865678786285,
B,left,Distractor,0,59,59,59,486.3479832801968,488.34877950977534,left,1,1,0.7683695890009403,H12S02,2023-01-09_09h21.46.005,t1_Paradigm,2021.1.4,59.9865678786285,
S,left,Pretarget,0,60,60,60,489.84836535481736,491.83313978323713,left,1,1,0.7077723848633468,H12S02,2023-01-09_09h21.46.005,t1_Paradigm,2021.1.4,59.9865678786285,
S,right,Target,0,61,61,61,493.34831113927066,495.34851324465126,right,1,1,0.9845995912328362,H12S02,2023-01-09_09h21.46.005,t1_Paradigm,2021.1.4,59.9865678786285,
T,left,Distractor,0,62,62,62,496.8485421165824,498.85033443616703,left,1,1,0.7950275726616383,H12S02,2023-01-09_09h21.46.005,t1_Paradigm,2021.1.4,59.9865678786285,
D,left,Distractor,0,63,63,63,500.3484911089763,502.34994017053396,left,1,1,0.9271728708408773,H12S02,2023-01-09_09h21.46.005,t1_Paradigm,2021.1.4,59.9865678786285,
R,left,Distractor,0,0,0,0,512.3576564150862,514.3504804009572,None,0,1,,H12S02,2023-01-09_09h21.46.005,t1_Paradigm,2021.1.4,59.9865678786285,
V,left,Distractor,0,1,1,1,515.8483791495673,517.8496950780973,left,1,1,0.691158062312752,H12S02,2023-01-09_09h21.46.005,t1_Paradigm,2021.1.4,59.9865678786285,
N,left,Pretarget,0,2,2,2,519.3485161317512,521.3504768721759,left,1,1,0.8547380813397467,H12S02,2023-01-09_09h21.46.005,t1_Paradigm,2021.1.4,59.9865678786285,
N,right,Target,0,3,3,3,522.8484516507015,524.8480394203216,left,0,1,0.781193959992379,H12S02,2023-01-09_09h21.46.005,t1_Paradigm,2021.1.4,59.9865678786285,
S,left,Distractor,0,4,4,4,526.3480131146498,528.349874085281,None,0,1,,H12S02,2023-01-09_09h21.46.005,t1_Paradigm,2021.1.4,59.9865678786285,
N,left,Lure,0,5,5,5,529.8483679210767,531.8503379649483,left,1,1,1.0589790805242956,H12S02,2023-01-09_09h21.46.005,t1_Paradigm,2021.1.4,59.9865678786285,
Z,left,Distractor,0,6,6,6,533.3480192096904,535.3485985775478,left,1,1,0.6646813317202032,H12S02,2023-01-09_09h21.46.005,t1_Paradigm,2021.1.4,59.9865678786285,
L,left,Pretarget,0,7,7,7,536.8483377657831,538.8484000014141,left,1,1,0.8928227024152875,H12S02,2023-01-09_09h21.46.005,t1_Paradigm,2021.1.4,59.9865678786285,
L,right,Target,0,8,8,8,540.3483846029267,542.3482004627585,right,1,1,1.1370432986877859,H12S02,2023-01-09_09h21.46.005,t1_Paradigm,2021.1.4,59.9865678786285,
H,left,Distractor,0,9,9,9,543.8483104975894,545.8497290830128,left,1,1,0.7713937875814736,H12S02,2023-01-09_09h21.46.005,t1_Paradigm,2021.1.4,59.9865678786285,
L,left,Lure,0,10,10,10,547.3484407435171,549.3476858967915,left,1,1,0.8255319693125784,H12S02,2023-01-09_09h21.46.005,t1_Paradigm,2021.1.4,59.9865678786285,
X,left,Pretarget,0,11,11,11,550.8483916604891,552.8482941370457,left,1,1,0.6526798172853887,H12S02,2023-01-09_09h21.46.005,t1_Paradigm,2021.1.4,59.9865678786285,
X,right,Target,0,12,12,12,554.3479579365812,556.3483778662048,right,1,1,0.7686685766093433,H12S02,2023-01-09_09h21.46.005,t1_Paradigm,2021.1.4,59.9865678786285,
X,right,Target,0,13,13,13,557.8481160919182,559.8484484427609,right,1,1,1.0285731703042984,H12S02,2023-01-09_09h21.46.005,t1_Paradigm,2021.1.4,59.9865678786285,
R,left,Distractor,0,14,14,14,561.3484275904484,563.3481876305304,left,1,1,0.600893753580749,H12S02,2023-01-09_09h21.46.005,t1_Paradigm,2021.1.4,59.9865678786285,
T,left,Distractor,0,15,15,15,564.848215861246,566.8496135943569,left,1,1,0.6194316032342613,H12S02,2023-01-09_09h21.46.005,t1_Paradigm,2021.1.4,59.9865678786285,
V,left,Pretarget,0,16,16,16,568.3479098165408,570.3482825881802,left,1,1,0.8970370749011636,H12S02,2023-01-09_09h21.46.005,t1_Paradigm,2021.1.4,59.9865678786285,
V,right,Target,0,17,17,17,571.8484205328859,573.8477247138508,right,1,1,0.6451977584511042,H12S02,2023-01-09_09h21.46.005,t1_Paradigm,2021.1.4,59.9865678786285,
N,left,Distractor,0,18,18,18,575.34776064381,577.3483435404487,left,1,1,0.5528402184136212,H12S02,2023-01-09_09h21.46.005,t1_Paradigm,2021.1.4,59.9865678786285,
B,left,Distractor,0,19,19,19,578.8480897862464,580.8491105772555,left,1,1,0.5560058900155127,H12S02,2023-01-09_09h21.46.005,t1_Paradigm,2021.1.4,59.9865678786285,
V,left,Lure,0,20,20,20,582.347940292675,584.3498047920875,left,1,1,0.847493736539036,H12S02,2023-01-09_09h21.46.005,t1_Paradigm,2021.1.4,59.9865678786285,
P,left,Distractor,0,21,21,21,585.8479746184312,587.8493011337705,left,1,1,0.6436165263876319,H12S02,2023-01-09_09h21.46.005,t1_Paradigm,2021.1.4,59.9865678786285,
K,left,Pretarget,0,22,22,22,589.3484105877578,591.3502786164172,left,1,1,0.582778078969568,H12S02,2023-01-09_09h21.46.005,t1_Paradigm,2021.1.4,59.9865678786285,
K,right,Target,0,23,23,23,592.8483650339767,594.8483313499019,right,1,1,0.7328715925104916,H12S02,2023-01-09_09h21.46.005,t1_Paradigm,2021.1.4,59.9865678786285,
J,left,Pretarget,0,24,24,24,596.3478366737254,598.3496793587692,left,1,1,0.6234794799238443,H12S02,2023-01-09_09h21.46.005,t1_Paradigm,2021.1.4,59.9865678786285,
J,right,Target,0,25,25,25,599.8483445029706,601.8483242923394,right,1,1,0.8047186732292175,H12S02,2023-01-09_09h21.46.005,t1_Paradigm,2021.1.4,59.9865678786285,
H,left,Distractor,0,26,26,26,603.3479351596907,605.3497319701128,left,1,1,0.8073999336920679,H12S02,2023-01-09_09h21.46.005,t1_Paradigm,2021.1.4,59.9865678786285,
J,left,Lure,0,27,27,27,606.8483724123798,608.848183460068,left,1,1,1.228785220067948,H12S02,2023-01-09_09h21.46.005,t1_Paradigm,2021.1.4,59.9865678786285,
V,left,Distractor,0,28,28,28,610.3483175556175,612.3504088618793,left,1,1,0.6547005479224026,H12S02,2023-01-09_09h21.46.005,t1_Paradigm,2021.1.4,59.9865678786285,
Z,left,Pretarget,0,29,29,29,613.8484253450297,615.8492716196924,left,1,1,0.5798863717354834,H12S02,2023-01-09_09h21.46.005,t1_Paradigm,2021.1.4,59.9865678786285,
Z,right,Target,0,30,30,30,617.348000924103,619.3479406135157,None,0,1,,H12S02,2023-01-09_09h21.46.005,t1_Paradigm,2021.1.4,59.9865678786285,
T,left,Distractor,0,31,31,31,620.848245695699,622.8488629185595,left,1,1,0.8763010916300118,H12S02,2023-01-09_09h21.46.005,t1_Paradigm,2021.1.4,59.9865678786285,
Z,left,Lure,0,32,32,32,624.3484628787264,626.3482748889364,left,1,1,0.7527738125063479,H12S02,2023-01-09_09h21.46.005,t1_Paradigm,2021.1.4,59.9865678786285,
F,left,Distractor,0,33,33,33,627.8482700767927,629.849719459191,left,1,1,0.5954924146644771,H12S02,2023-01-09_09h21.46.005,t1_Paradigm,2021.1.4,59.9865678786285,
Y,left,Pretarget,0,34,34,34,631.3484144373797,633.3501778845675,left,1,1,0.7749376841820776,H12S02,2023-01-09_09h21.46.005,t1_Paradigm,2021.1.4,59.9865678786285,
Y,right,Target,0,35,35,35,634.8483531642705,636.8482161820866,right,1,1,0.5888146054930985,H12S02,2023-01-09_09h21.46.005,t1_Paradigm,2021.1.4,59.9865678786285,
Y,right,Target,0,36,36,36,638.3482469790615,640.3482546783052,right,1,1,0.5768663445487618,H12S02,2023-01-09_09h21.46.005,t1_Paradigm,2021.1.4,59.9865678786285,
W,left,Distractor,0,37,37,37,641.8480663676746,643.8502080403268,left,1,1,0.7387695326469839,H12S02,2023-01-09_09h21.46.005,t1_Paradigm,2021.1.4,59.9865678786285,
Q,left,Distractor,0,38,38,38,645.3482620567083,647.3502837494016,left,1,1,0.759053185582161,H12S02,2023-01-09_09h21.46.005,t1_Paradigm,2021.1.4,59.9865678786285,
P,left,Pretarget,0,39,39,39,648.848259490449,650.8501971326768,left,1,1,0.8267612820491195,H12S02,2023-01-09_09h21.46.005,t1_Paradigm,2021.1.4,59.9865678786285,
P,right,Target,0,40,40,40,652.3480403828435,654.3482787385583,left,0,1,0.5928300810046494,H12S02,2023-01-09_09h21.46.005,t1_Paradigm,2021.1.4,59.9865678786285,
J,left,Distractor,0,41,41,41,655.8483393699862,657.8491436201148,left,1,1,0.851852148771286,H12S02,2023-01-09_09h21.46.005,t1_Paradigm,2021.1.4,59.9865678786285,
P,left,Lure,0,42,42,42,659.348196292296,661.3503386066295,left,1,1,0.8067477438598871,H12S02,2023-01-09_09h21.46.005,t1_Paradigm,2021.1.4,59.9865678786285,
L,left,Distractor,0,43,43,43,662.8481545881368,664.8490419257432,left,1,1,0.5879885409958661,H12S02,2023-01-09_09h21.46.005,t1_Paradigm,2021.1.4,59.9865678786285,
Z,left,Distractor,0,44,44,44,666.347733696457,668.3503803107888,left,1,1,0.6706514521501958,H12S02,2023-01-09_09h21.46.005,t1_Paradigm,2021.1.4,59.9865678786285,
F,left,Pretarget,0,45,45,45,669.848368562758,671.8501400300302,left,1,1,0.563029202632606,H12S02,2023-01-09_09h21.46.005,t1_Paradigm,2021.1.4,59.9865678786285,
F,right,Target,0,46,46,46,673.3482258059084,675.3482556408271,right,1,1,0.7768705151975155,H12S02,2023-01-09_09h21.46.005,t1_Paradigm,2021.1.4,59.9865678786285,
G,left,Pretarget,0,47,47,47,676.8480294756591,678.8482607733458,left,1,1,0.6527619427070022,H12S02,2023-01-09_09h21.46.005,t1_Paradigm,2021.1.4,59.9865678786285,
G,right,Target,0,48,48,48,680.3479027589783,682.348207520321,right,1,1,0.7367558600381017,H12S02,2023-01-09_09h21.46.005,t1_Paradigm,2021.1.4,59.9865678786285,
V,left,Distractor,0,49,49,49,683.8482453748584,685.8498044717126,left,1,1,0.7871894235722721,H12S02,2023-01-09_09h21.46.005,t1_Paradigm,2021.1.4,59.9865678786285,
G,left,Lure,0,50,50,50,687.3479726933874,689.3501730728894,left,1,1,1.4469307293184102,H12S02,2023-01-09_09h21.46.005,t1_Paradigm,2021.1.4,59.9865678786285,
Q,left,Pretarget,0,51,51,51,690.848289324902,692.8497066269629,left,1,1,1.115301280748099,H12S02,2023-01-09_09h21.46.005,t1_Paradigm,2021.1.4,59.9865678786285,
Q,right,Target,0,52,52,52,694.3481728737243,696.3477924028412,right,1,1,0.6412814105860889,H12S02,2023-01-09_09h21.46.005,t1_Paradigm,2021.1.4,59.9865678786285,
Y,left,Distractor,0,53,53,53,697.8482107282616,699.8493341761641,left,1,1,0.5798032847233117,H12S02,2023-01-09_09h21.46.005,t1_Paradigm,2021.1.4,59.9865678786285,
V,left,Distractor,0,54,54,54,701.3481972548179,703.3498910879716,left,1,1,0.7912254305556417,H12S02,2023-01-09_09h21.46.005,t1_Paradigm,2021.1.4,59.9865678786285,
B,left,Distractor,0,55,55,55,704.848188913893,706.849770787172,left,1,1,0.9232327835634351,H12S02,2023-01-09_09h21.46.005,t1_Paradigm,2021.1.4,59.9865678786285,
J,left,Pretarget,0,56,56,56,708.347807480488,710.3485196605325,left,1,1,0.7364430781453848,H12S02,2023-01-09_09h21.46.005,t1_Paradigm,2021.1.4,59.9865678786285,
J,right,Target,0,57,57,57,711.8482662271708,713.8484478010796,right,1,1,0.7724373554810882,H12S02,2023-01-09_09h21.46.005,t1_Paradigm,2021.1.4,59.9865678786285,
H,left,Distractor,0,58,58,58,715.348068933934,717.3489456851967,left,1,1,0.7921358658932149,H12S02,2023-01-09_09h21.46.005,t1_Paradigm,2021.1.4,59.9865678786285,
J,left,Lure,0,59,59,59,718.848259490449,720.8499084115028,left,1,1,0.619056907016784,H12S02,2023-01-09_09h21.46.005,t1_Paradigm,2021.1.4,59.9865678786285,
D,left,Pretarget,0,60,60,60,722.3481571543962,724.350351438392,left,1,1,0.5265338332392275,H12S02,2023-01-09_09h21.46.005,t1_Paradigm,2021.1.4,59.9865678786285,
D,right,Target,0,61,61,61,725.8480814453214,727.8481192998588,right,1,1,0.8687891978770494,H12S02,2023-01-09_09h21.46.005,t1_Paradigm,2021.1.4,59.9865678786285,
R,left,Distractor,0,62,62,62,729.3480439116247,731.3485934450291,left,1,1,1.0003467868082225,H12S02,2023-01-09_09h21.46.005,t1_Paradigm,2021.1.4,59.9865678786285,
F,left,Distractor,0,63,63,63,732.8478957009502,734.8475883728825,left,1,1,0.7177881360985339,H12S02,2023-01-09_09h21.46.005,t1_Paradigm,2021.1.4,59.9865678786285,
F,left,Distractor,0,0,0,0,875.572016463615,877.5643130512908,None,0,2,,H12S02,2023-01-09_09h21.46.005,t1_Paradigm,2021.1.4,59.9865678786285,
N,left,Pretarget,0,1,1,1,879.0644580535591,881.0664637060836,None,0,2,,H12S02,2023-01-09_09h21.46.005,t1_Paradigm,2021.1.4,59.9865678786285,
V,left,Distractor,0,2,2,2,882.5645360085182,884.564068921376,left,1,2,0.8567527164705098,H12S02,2023-01-09_09h21.46.005,t1_Paradigm,2021.1.4,59.9865678786285,
N,right,Target,0,3,3,3,886.0645151566714,888.0644131414592,right,1,2,0.732707342132926,H12S02,2023-01-09_09h21.46.005,t1_Paradigm,2021.1.4,59.9865678786285,
N,left,Lure,0,4,4,4,889.5646838983521,891.5647573620081,None,0,2,,H12S02,2023-01-09_09h21.46.005,t1_Paradigm,2021.1.4,59.9865678786285,
X,left,Distractor,0,5,5,5,893.0643281289376,895.0666972501203,left,1,2,1.1701465100049973,H12S02,2023-01-09_09h21.46.005,t1_Paradigm,2021.1.4,59.9865678786285,
G,left,Pretarget,0,6,6,6,896.56456231419,898.5645645600744,left,1,2,0.7281359173357487,H12S02,2023-01-09_09h21.46.005,t1_Paradigm,2021.1.4,59.9865678786285,
H,left,Pretarget,0,7,7,7,900.0642691017129,902.0660723280162,left,1,2,0.9228446134366095,H12S02,2023-01-09_09h21.46.005,t1_Paradigm,2021.1.4,59.9865678786285,
G,right,Target,0,8,8,8,903.5647438880987,905.5647968202829,None,0,2,,H12S02,2023-01-09_09h21.46.005,t1_Paradigm,2021.1.4,59.9865678786285,
H,right,Target,0,9,9,9,907.0641799187288,909.0666491296142,left,0,2,0.8660527588799596,H12S02,2023-01-09_09h21.46.005,t1_Paradigm,2021.1.4,59.9865678786285,
T,left,Pretarget,0,10,10,10,910.5642630062066,912.5665131099522,left,1,2,0.6143834674730897,H12S02,2023-01-09_09h21.46.005,t1_Paradigm,2021.1.4,59.9865678786285,
K,left,Distractor,0,11,11,11,914.0812841053121,916.064603056293,left,1,2,0.9562381505966187,H12S02,2023-01-09_09h21.46.005,t1_Paradigm,2021.1.4,59.9865678786285,
T,right,Target,0,12,12,12,917.5647804592736,919.5643672668375,right,1,2,0.9762042094953358,H12S02,2023-01-09_09h21.46.005,t1_Paradigm,2021.1.4,59.9865678786285,
T,left,Lure,0,13,13,13,921.0647512665018,923.0646861437708,left,1,2,1.2841254463419318,H12S02,2023-01-09_09h21.46.005,t1_Paradigm,2021.1.4,59.9865678786285,
J,left,Distractor,0,14,14,14,924.5646444396116,926.5650425544009,left,1,2,0.775824059266597,H12S02,2023-01-09_09h21.46.005,t1_Paradigm,2021.1.4,59.9865678786285,
Q,left,Pretarget,0,15,15,15,928.0643579633906,930.0659966189414,left,1,2,0.682793477550149,H12S02,2023-01-09_09h21.46.005,t1_Paradigm,2021.1.4,59.9865678786285,
M,left,Distractor,0,16,16,16,931.5647352263331,933.5671996255405,left,1,2,0.6536293905228376,H12S02,2023-01-09_09h21.46.005,t1_Paradigm,2021.1.4,59.9865678786285,
Q,right,Target,0,17,17,17,935.0646130009554,937.0667360671796,left,0,2,1.154102252330631,H12S02,2023-01-09_09h21.46.005,t1_Paradigm,2021.1.4,59.9865678786285,
R,left,Distractor,0,18,18,18,938.5643579633906,940.5645103445277,left,1,2,0.7603604532778263,H12S02,2023-01-09_09h21.46.005,t1_Paradigm,2021.1.4,59.9865678786285,
W,left,Distractor,0,19,19,19,942.0642196978442,944.0652334317565,left,1,2,0.7476862170733511,H12S02,2023-01-09_09h21.46.005,t1_Paradigm,2021.1.4,59.9865678786285,
C,left,Pretarget,0,20,20,20,945.5646752365865,947.5675778505392,left,1,2,0.6213025189936161,H12S02,2023-01-09_09h21.46.005,t1_Paradigm,2021.1.4,59.9865678786285,
T,left,Distractor,0,21,21,21,949.0645517278463,951.0652950257063,left,1,2,0.7235381864011288,H12S02,2023-01-09_09h21.46.005,t1_Paradigm,2021.1.4,59.9865678786285,
C,right,Target,0,22,22,22,952.564240229316,954.5640387660824,right,1,2,0.7449600440450013,H12S02,2023-01-09_09h21.46.005,t1_Paradigm,2021.1.4,59.9865678786285,
F,left,Pretarget,0,23,23,23,956.0646479683928,958.0653893412091,left,1,2,0.6513295629993081,H12S02,2023-01-09_09h21.46.005,t1_Paradigm,2021.1.4,59.9865678786285,
C,right,Target,0,24,24,24,959.5642136028036,961.566149641294,right,1,2,1.0865901662036777,H12S02,2023-01-09_09h21.46.005,t1_Paradigm,2021.1.4,59.9865678786285,
F,right,Target,0,25,25,25,963.0643884399906,965.0665577012114,right,1,2,0.8821178688667715,H12S02,2023-01-09_09h21.46.005,t1_Paradigm,2021.1.4,59.9865678786285,
H,left,Distractor,0,26,26,26,966.5647041085176,968.5641125501134,left,1,2,0.680741950403899,H12S02,2023-01-09_09h21.46.005,t1_Paradigm,2021.1.4,59.9865678786285,
H,left,Lure,0,27,27,27,970.0643669459969,972.0644355975091,right,0,2,1.196399641688913,H12S02,2023-01-09_09h21.46.005,t1_Paradigm,2021.1.4,59.9865678786285,
P,left,Distractor,0,28,28,28,973.5636098538525,975.5665336409584,left,1,2,0.7181907421909273,H12S02,2023-01-09_09h21.46.005,t1_Paradigm,2021.1.4,59.9865678786285,
G,left,Pretarget,0,29,29,29,977.0644349558279,979.066874653101,left,1,2,0.9140507956035435,H12S02,2023-01-09_09h21.46.005,t1_Paradigm,2021.1.4,59.9865678786285,
K,left,Distractor,0,30,30,30,980.5646752365865,982.5665920269676,left,1,2,1.0782781927846372,H12S02,2023-01-09_09h21.46.005,t1_Paradigm,2021.1.4,59.9865678786285,
G,right,Target,0,31,31,31,984.0642992570065,986.0646473267116,right,1,2,0.6361075197346509,H12S02,2023-01-09_09h21.46.005,t1_Paradigm,2021.1.4,59.9865678786285,
M,left,Pretarget,0,32,32,32,987.5645116274245,989.5647140536457,left,1,2,0.6400928399525583,H12S02,2023-01-09_09h21.46.005,t1_Paradigm,2021.1.4,59.9865678786285,
B,left,Distractor,0,33,33,33,991.0645838081837,993.065834293142,left,1,2,0.7229838413186371,H12S02,2023-01-09_09h21.46.005,t1_Paradigm,2021.1.4,59.9865678786285,
M,right,Target,0,34,34,34,994.5646668956615,996.5663934508339,right,1,2,0.5823222193866968,H12S02,2023-01-09_09h21.46.005,t1_Paradigm,2021.1.4,59.9865678786285,
M,left,Lure,0,35,35,35,998.0643223547377,1000.0643043895252,left,1,2,1.292554191313684,H12S02,2023-01-09_09h21.46.005,t1_Paradigm,2021.1.4,59.9865678786285,
T,left,Distractor,0,36,36,36,1001.5646540634334,1003.5664871246554,left,1,2,0.7022395171225071,H12S02,2023-01-09_09h21.46.005,t1_Paradigm,2021.1.4,59.9865678786285,
F,left,Distractor,0,37,37,37,1005.0641911467537,1007.0658897920512,left,1,2,0.9789592549204826,H12S02,2023-01-09_09h21.46.005,t1_Paradigm,2021.1.4,59.9865678786285,
X,left,Distractor,0,38,38,38,1008.5645616725087,1010.5666026133113,left,1,2,0.8382055633701384,H12S02,2023-01-09_09h21.46.005,t1_Paradigm,2021.1.4,59.9865678786285,
C,left,Distractor,0,39,39,39,1012.0644295024686,1014.0808061109856,left,1,2,1.0517697031609714,H12S02,2023-01-09_09h21.46.005,t1_Paradigm,2021.1.4,59.9865678786285,
R,left,Distractor,0,40,40,40,1015.5642107157037,1017.5650836173445,left,1,2,1.0556809175759554,H12S02,2023-01-09_09h21.46.005,t1_Paradigm,2021.1.4,59.9865678786285,
B,left,Pretarget,0,41,41,41,1019.0644779433496,1021.065032930579,left,1,2,0.6438776589930058,H12S02,2023-01-09_09h21.46.005,t1_Paradigm,2021.1.4,59.9865678786285,
H,left,Distractor,0,42,42,42,1022.5643451316282,1024.5652228449471,left,1,2,0.679675925988704,H12S02,2023-01-09_09h21.46.005,t1_Paradigm,2021.1.4,59.9865678786285,
B,right,Target,0,43,43,43,1026.0643364698626,1028.0657589049079,right,1,2,0.8589816470630467,H12S02,2023-01-09_09h21.46.005,t1_Paradigm,2021.1.4,59.9865678786285,
W,left,Pretarget,0,44,44,44,1029.5641478383914,1031.5664258515462,left,1,2,0.5903772311285138,H12S02,2023-01-09_09h21.46.005,t1_Paradigm,2021.1.4,59.9865678786285,
L,left,Pretarget,0,45,45,45,1033.064572259318,1035.066005280707,left,1,2,0.6429614489898086,H12S02,2023-01-09_09h21.46.005,t1_Paradigm,2021.1.4,59.9865678786285,
W,right,Target,0,46,46,46,1036.5646024146117,1038.566081631463,right,1,2,0.7109348480589688,H12S02,2023-01-09_09h21.46.005,t1_Paradigm,2021.1.4,59.9865678786285,
L,right,Target,0,47,47,47,1040.0642928406596,1042.064942785073,right,1,2,0.7958051962777972,H12S02,2023-01-09_09h21.46.005,t1_Paradigm,2021.1.4,59.9865678786285,
W,right,Target,0,48,48,48,1043.5644432967529,1045.5653376919217,right,1,2,0.8474876410327852,H12S02,2023-01-09_09h21.46.005,t1_Paradigm,2021.1.4,59.9865678786285,
X,left,Distractor,0,49,49,49,1047.0644500334747,1049.064681331627,left,1,2,0.7080136276781559,H12S02,2023-01-09_09h21.46.005,t1_Paradigm,2021.1.4,59.9865678786285,
R,left,Distractor,0,50,50,50,1050.5638761194423,1052.5644201990217,left,1,2,0.7128035183995962,H12S02,2023-01-09_09h21.46.005,t1_Paradigm,2021.1.4,59.9865678786285,
V,left,Pretarget,0,51,51,51,1054.0644586952403,1056.0646062642336,left,1,2,0.6361530739814043,H12S02,2023-01-09_09h21.46.005,t1_Paradigm,2021.1.4,59.9865678786285,
Z,left,Distractor,0,52,52,52,1057.5644048005342,1059.5643727206625,left,1,2,0.8644756977446377,H12S02,2023-01-09_09h21.46.005,t1_Paradigm,2021.1.4,59.9865678786285,
V,right,Target,0,53,53,53,1061.0641869762912,1063.0666160872206,right,1,2,0.5305255693383515,H12S02,2023-01-09_09h21.46.005,t1_Paradigm,2021.1.4,59.9865678786285,
V,left,Lure,0,54,54,54,1064.5646213418804,1066.5645501236431,left,1,2,0.7602379065938294,H12S02,2023-01-09_09h21.46.005,t1_Paradigm,2021.1.4,59.9865678786285,
N,left,Distractor,0,55,55,55,1068.0642325300723,1070.0665782326832,left,1,2,0.7462666700594127,H12S02,2023-01-09_09h21.46.005,t1_Paradigm,2021.1.4,59.9865678786285,
B,left,Distractor,0,56,56,56,1071.56454274524,1073.5648061237298,left,1,2,0.655917348805815,H12S02,2023-01-09_09h21.46.005,t1_Paradigm,2021.1.4,59.9865678786285,
V,left,Lure,0,57,57,57,1075.0646110763773,1077.0664374004118,left,1,2,1.0102143278345466,H12S02,2023-01-09_09h21.46.005,t1_Paradigm,2021.1.4,59.9865678786285,
J,left,Distractor,0,58,58,58,1078.5645132316276,1080.564513873309,left,1,2,0.8082744395360351,H12S02,2023-01-09_09h21.46.005,t1_Paradigm,2021.1.4,59.9865678786285,
H,left,Distractor,0,59,59,59,1082.0641051717103,1084.0651169805788,left,1,2,0.6034951349720359,H12S02,2023-01-09_09h21.46.005,t1_Paradigm,2021.1.4,59.9865678786285,
X,left,Pretarget,0,60,60,60,1085.5642014122568,1087.566327365581,left,1,2,0.9900997369550169,H12S02,2023-01-09_09h21.46.005,t1_Paradigm,2021.1.4,59.9865678786285,
P,left,Distractor,0,61,61,61,1089.0645148358308,1091.066059175413,left,1,2,0.7866135844960809,H12S02,2023-01-09_09h21.46.005,t1_Paradigm,2021.1.4,59.9865678786285,
X,right,Target,0,62,62,62,1092.564467357006,1094.5650159278885,right,1,2,0.8077127155847847,H12S02,2023-01-09_09h21.46.005,t1_Paradigm,2021.1.4,59.9865678786285,
Q,left,Distractor,0,63,63,63,1096.0642636478879,1098.0668768989854,left,1,2,0.7459721737541258,H12S02,2023-01-09_09h21.46.005,t1_Paradigm,2021.1.4,59.9865678786285,
B,left,Pretarget,0,0,0,0,1109.2067410075106,1111.1971968347207,None,0,2,,H12S02,2023-01-09_09h21.46.005,t1_Paradigm,2021.1.4,59.9865678786285,
F,left,Distractor,0,1,1,1,1112.6978076412342,1114.6990542765707,None,0,2,,H12S02,2023-01-09_09h21.46.005,t1_Paradigm,2021.1.4,59.9865678786285,
B,right,Target,0,2,2,2,1116.197896502912,1118.20003304258,right,1,2,0.8847574256360531,H12S02,2023-01-09_09h21.46.005,t1_Paradigm,2021.1.4,59.9865678786285,
V,left,Distractor,0,3,3,3,1119.6978955408558,1121.6990982266143,left,1,2,0.6014827457256615,H12S02,2023-01-09_09h21.46.005,t1_Paradigm,2021.1.4,59.9865678786285,
G,left,Pretarget,0,4,4,4,1123.1979077314027,1125.1969421179965,left,1,2,0.7517186957411468,H12S02,2023-01-09_09h21.46.005,t1_Paradigm,2021.1.4,59.9865678786285,
B,left,Lure,0,5,5,5,1126.6977864680812,1128.6977893551812,left,1,2,0.7228795806877315,H12S02,2023-01-09_09h21.46.005,t1_Paradigm,2021.1.4,59.9865678786285,
G,right,Target,0,6,6,6,1130.1976661672816,1132.1995168728754,right,1,2,0.5170425926335156,H12S02,2023-01-09_09h21.46.005,t1_Paradigm,2021.1.4,59.9865678786285,
Y,left,Pretarget,0,7,7,7,1133.6975144282915,1135.6979449442588,left,1,2,0.6988046928308904,H12S02,2023-01-09_09h21.46.005,t1_Paradigm,2021.1.4,59.9865678786285,
P,left,Distractor,0,8,8,8,1137.197291471064,1139.1982468185015,left,1,2,0.6704531968571246,H12S02,2023-01-09_09h21.46.005,t1_Paradigm,2021.1.4,59.9865678786285,
Y,right,Target,0,9,9,9,1140.6977389892563,1142.6994475796819,None,0,2,,H12S02,2023-01-09_09h21.46.005,t1_Paradigm,2021.1.4,59.9865678786285,
X,left,Distractor,0,10,10,10,1144.1977383480407,1146.199535800144,left,1,2,0.9649652410298586,H12S02,2023-01-09_09h21.46.005,t1_Paradigm,2021.1.4,59.9865678786285,
Y,right,Target,0,11,11,11,1147.6979189594276,1149.6992692137137,right,1,2,1.177303597331047,H12S02,2023-01-09_09h21.46.005,t1_Paradigm,2021.1.4,59.9865678786285,
N,left,Distractor,0,12,12,12,1151.1978105283342,1153.1996628376655,left,1,2,0.8291172501631081,H12S02,2023-01-09_09h21.46.005,t1_Paradigm,2021.1.4,59.9865678786285,
Y,right,Target,0,13,13,13,1154.6976976059377,1156.6973164933734,right,1,2,0.5474898866377771,H12S02,2023-01-09_09h21.46.005,t1_Paradigm,2021.1.4,59.9865678786285,
Y,left,Lure,0,14,14,14,1158.1979247336276,1160.1977948090062,left,1,2,1.0788010996766388,H12S02,2023-01-09_09h21.46.005,t1_Paradigm,2021.1.4,59.9865678786285,
K,left,Distractor,0,15,15,15,1161.6977739566937,1163.699370266404,left,1,2,0.8570459289476275,H12S02,2023-01-09_09h21.46.005,t1_Paradigm,2021.1.4,59.9865678786285,
T,left,Pretarget,0,16,16,16,1165.1978798215277,1167.1988200913183,left,1,2,0.7177913440391421,H12S02,2023-01-09_09h21.46.005,t1_Paradigm,2021.1.4,59.9865678786285,
J,left,Distractor,0,17,17,17,1168.6973880324513,1170.6990597303957,left,1,2,0.705594461876899,H12S02,2023-01-09_09h21.46.005,t1_Paradigm,2021.1.4,59.9865678786285,
T,right,Target,0,18,18,18,1172.1975349597633,1174.1986728431657,right,1,2,1.2538985428400338,H12S02,2023-01-09_09h21.46.005,t1_Paradigm,2021.1.4,59.9865678786285,
S,left,Pretarget,0,19,19,19,1175.6973665384576,1177.6992650432512,left,1,2,0.6974015054292977,H12S02,2023-01-09_09h21.46.005,t1_Paradigm,2021.1.4,59.9865678786285,
R,left,Distractor,0,20,20,20,1179.197432944551,1181.1994671486318,left,1,2,0.6690734284929931,H12S02,2023-01-09_09h21.46.005,t1_Paradigm,2021.1.4,59.9865678786285,
S,right,Target,0,21,21,21,1182.6972933956422,1184.6995646720752,right,1,2,0.9611521917395294,H12S02,2023-01-09_09h21.46.005,t1_Paradigm,2021.1.4,59.9865678786285,
Q,left,Distractor,0,22,22,22,1186.197403110098,1188.1988239409402,left,1,2,0.6298753041774035,H12S02,2023-01-09_09h21.46.005,t1_Paradigm,2021.1.4,59.9865678786285,
D,left,Distractor,0,23,23,23,1189.697439681273,1191.699411328882,left,1,2,0.6491307877004147,H12S02,2023-01-09_09h21.46.005,t1_Paradigm,2021.1.4,59.9865678786285,
F,left,Distractor,0,24,24,24,1193.1978567237966,1195.1991646322422,left,1,2,0.781775894574821,H12S02,2023-01-09_09h21.46.005,t1_Paradigm,2021.1.4,59.9865678786285,
Z,left,Distractor,0,25,25,25,1196.6977377063595,1198.6980726234615,left,1,2,0.6585710207000375,H12S02,2023-01-09_09h21.46.005,t1_Paradigm,2021.1.4,59.9865678786285,
P,left,Distractor,0,26,26,26,1200.1974951801822,1202.1993660959415,left,1,2,0.9011943452060223,H12S02,2023-01-09_09h21.46.005,t1_Paradigm,2021.1.4,59.9865678786285,
H,left,Distractor,0,27,27,27,1203.6976610347629,1205.6993741160259,left,1,2,0.6973190596327186,H12S02,2023-01-09_09h21.46.005,t1_Paradigm,2021.1.4,59.9865678786285,
Z,left,Pretarget,0,28,28,28,1207.1976636010222,1209.197692793794,right,0,2,0.9270076574757695,H12S02,2023-01-09_09h21.46.005,t1_Paradigm,2021.1.4,59.9865678786285,
J,left,Pretarget,0,29,29,29,1210.6976411449723,1212.6983892545104,left,1,2,0.9302695696242154,H12S02,2023-01-09_09h21.46.005,t1_Paradigm,2021.1.4,59.9865678786285,
Z,right,Target,0,30,30,30,1214.1977489343844,1216.1985878311098,right,1,2,0.7261248109862208,H12S02,2023-01-09_09h21.46.005,t1_Paradigm,2021.1.4,59.9865678786285,
J,right,Target,0,31,31,31,1217.6974133756012,1219.699621454347,right,1,2,0.761091560125351,H12S02,2023-01-09_09h21.46.005,t1_Paradigm,2021.1.4,59.9865678786285,
V,left,Pretarget,0,32,32,32,1221.1970527945086,1223.1976087437943,left,1,2,0.6708217980340123,H12S02,2023-01-09_09h21.46.005,t1_Paradigm,2021.1.4,59.9865678786285,
Z,left,Lure,0,33,33,33,1224.697459250223,1226.6977649745531,left,1,2,1.2830414571799338,H12S02,2023-01-09_09h21.46.005,t1_Paradigm,2021.1.4,59.9865678786285,
V,right,Target,0,34,34,34,1228.1977104381658,1230.1992310383357,right,1,2,1.061413965653628,H12S02,2023-01-09_09h21.46.005,t1_Paradigm,2021.1.4,59.9865678786285,
X,left,Distractor,0,35,35,35,1231.697749255225,1233.6980010843836,None,0,2,,H12S02,2023-01-09_09h21.46.005,t1_Paradigm,2021.1.4,59.9865678786285,
S,left,Distractor,0,36,36,36,1235.1975635108538,1237.1988852140494,left,1,2,1.0857727634720504,H12S02,2023-01-09_09h21.46.005,t1_Paradigm,2021.1.4,59.9865678786285,
Q,left,Distractor,0,37,37,37,1238.6977880722843,1240.6984777958132,left,1,2,0.7540413001552224,H12S02,2023-01-09_09h21.46.005,t1_Paradigm,2021.1.4,59.9865678786285,
P,left,Distractor,0,38,38,38,1242.1971252956428,1244.1974165835418,left,1,2,0.9510857532732189,H12S02,2023-01-09_09h21.46.005,t1_Paradigm,2021.1.4,59.9865678786285,
S,left,Lure,0,39,39,39,1245.697371671442,1247.7167169791646,right,0,2,0.7756848316639662,H12S02,2023-01-09_09h21.46.005,t1_Paradigm,2021.1.4,59.9865678786285,
K,left,Pretarget,0,40,40,40,1249.1976834908128,1251.1983751393855,left,1,2,0.5902264537289739,H12S02,2023-01-09_09h21.46.005,t1_Paradigm,2021.1.4,59.9865678786285,
L,left,Distractor,0,41,41,41,1252.6975898165256,1254.6990626174957,left,1,2,0.7055607778020203,H12S02,2023-01-09_09h21.46.005,t1_Paradigm,2021.1.4,59.9865678786285,
K,right,Target,0,42,42,42,1256.1977053051814,1258.1981499362737,left,0,2,1.0145730609074235,H12S02,2023-01-09_09h21.46.005,t1_Paradigm,2021.1.4,59.9865678786285,
B,left,Distractor,0,43,43,43,1259.6977030597627,1261.6973726339638,left,1,2,1.0511900139972568,H12S02,2023-01-09_09h21.46.005,t1_Paradigm,2021.1.4,59.9865678786285,
N,left,Distractor,0,44,44,44,1263.1976222177036,1265.199223339092,left,1,2,0.7013005306944251,H12S02,2023-01-09_09h21.46.005,t1_Paradigm,2021.1.4,59.9865678786285,
S,left,Pretarget,0,45,45,45,1266.6976722627878,1268.6991335148923,left,1,2,0.8491651131771505,H12S02,2023-01-09_09h21.46.005,t1_Paradigm,2021.1.4,59.9865678786285,
Z,left,Distractor,0,46,46,46,1270.1976680923253,1272.1989038204774,left,1,2,0.62974858796224,H12S02,2023-01-09_09h21.46.005,t1_Paradigm,2021.1.4,59.9865678786285,
S,right,Target,0,47,47,47,1273.6975115411915,1275.6979375658557,None,0,2,,H12S02,2023-01-09_09h21.46.005,t1_Paradigm,2021.1.4,59.9865678786285,
C,left,Distractor,0,48,48,48,1277.1977114006877,1279.197969966568,left,1,2,0.9906688393093646,H12S02,2023-01-09_09h21.46.005,t1_Paradigm,2021.1.4,59.9865678786285,
T,left,Pretarget,0,49,49,49,1280.697638578713,1282.6985429185443,left,1,2,0.7220002631656826,H12S02,2023-01-09_09h21.46.005,t1_Paradigm,2021.1.4,59.9865678786285,
S,left,Lure,0,50,50,50,1284.1973569146357,1286.199808481615,left,1,2,0.9486396401189268,H12S02,2023-01-09_09h21.46.005,t1_Paradigm,2021.1.4,59.9865678786285,
T,right,Target,0,51,51,51,1287.6973402327858,1289.6984142772853,left,0,2,0.7142516179010272,H12S02,2023-01-09_09h21.46.005,t1_Paradigm,2021.1.4,59.9865678786285,
N,left,Pretarget,0,52,52,52,1291.197619009763,1293.1992140361108,left,1,2,0.7492684116587043,H12S02,2023-01-09_09h21.46.005,t1_Paradigm,2021.1.4,59.9865678786285,
B,left,Distractor,0,53,53,53,1294.6974473805167,1296.697660072241,left,1,2,0.6428966470994055,H12S02,2023-01-09_09h21.46.005,t1_Paradigm,2021.1.4,59.9865678786285,
N,right,Target,0,54,54,54,1298.197809886653,1300.1977993003093,right,1,2,0.8546928483992815,H12S02,2023-01-09_09h21.46.005,t1_Paradigm,2021.1.4,59.9865678786285,
N,left,Lure,0,55,55,55,1301.697344724089,1303.6976542975754,left,1,2,0.8745517595671117,H12S02,2023-01-09_09h21.46.005,t1_Paradigm,2021.1.4,59.9865678786285,
X,left,Distractor,0,56,56,56,1305.1976969642565,1307.1991886924952,left,1,2,0.7012893022038043,H12S02,2023-01-09_09h21.46.005,t1_Paradigm,2021.1.4,59.9865678786285,
W,left,Distractor,0,57,57,57,1308.6977162123658,1310.6981624476612,left,1,2,0.7383146360516548,H12S02,2023-01-09_09h21.46.005,t1_Paradigm,2021.1.4,59.9865678786285,
S,left,Distractor,0,58,58,58,1312.1975962328725,1314.197975420393,left,1,2,0.6625845716334879,H12S02,2023-01-09_09h21.46.005,t1_Paradigm,2021.1.4,59.9865678786285,
L,left,Distractor,0,59,59,59,1315.697556774132,1317.698045996949,left,1,2,1.274550155736506,H12S02,2023-01-09_09h21.46.005,t1_Paradigm,2021.1.4,59.9865678786285,
K,left,Pretarget,0,60,60,60,1319.197569926735,1321.197787430603,left,1,2,0.6866597798652947,H12S02,2023-01-09_09h21.46.005,t1_Paradigm,2021.1.4,59.9865678786285,
V,left,Pretarget,0,61,61,61,1322.6975997616537,1324.697662959341,None,0,2,,H12S02,2023-01-09_09h21.46.005,t1_Paradigm,2021.1.4,59.9865678786285,
K,right,Target,0,62,62,62,1326.1972013255581,1328.198032202199,right,1,2,0.7905418020673096,H12S02,2023-01-09_09h21.46.005,t1_Paradigm,2021.1.4,59.9865678786285,
V,right,Target,0,63,63,63,1329.6975580574945,1331.710376332514,right,1,2,0.829934973269701,H12S02,2023-01-09_09h21.46.005,t1_Paradigm,2021.1.4,59.9865678786285,
R,left,Distractor,0,0,0,0,1434.495876735542,1436.4988717404194,None,0,3,,H12S02,2023-01-09_09h21.46.005,t1_Paradigm,2021.1.4,59.9865678786285,
P,left,Lure,0,1,1,1,1437.9972699773498,1439.9976924732327,None,0,3,,H12S02,2023-01-09_09h21.46.005,t1_Paradigm,2021.1.4,59.9865678786285,
V,left,Distractor,0,2,2,2,1441.4975185985677,1443.4991399305873,None,0,3,,H12S02,2023-01-09_09h21.46.005,t1_Paradigm,2021.1.4,59.9865678786285,
P,left,Pretarget,0,3,3,3,1444.9974663080648,1446.9992364919744,left,1,3,0.8851933954283595,H12S02,2023-01-09_09h21.46.005,t1_Paradigm,2021.1.4,59.9865678786285,
Z,left,Distractor,0,4,4,4,1448.4975195610896,1450.4977049846202,left,1,3,0.7787433550693095,H12S02,2023-01-09_09h21.46.005,t1_Paradigm,2021.1.4,59.9865678786285,
L,left,Pretarget,0,5,5,5,1451.9975089747459,1453.9987607430667,left,1,3,0.7496312381699681,H12S02,2023-01-09_09h21.46.005,t1_Paradigm,2021.1.4,59.9865678786285,
P,right,Target,0,6,6,6,1455.4974971050397,1457.4990709582344,right,1,3,0.9293995555490255,H12S02,2023-01-09_09h21.46.005,t1_Paradigm,2021.1.4,59.9865678786285,
S,left,Distractor,0,7,7,7,1458.997491330374,1460.99943025643,left,1,3,0.7410453003831208,H12S02,2023-01-09_09h21.46.005,t1_Paradigm,2021.1.4,59.9865678786285,
L,right,Target,0,8,8,8,1462.4975410546176,1464.513694064226,right,1,3,0.7469628094695508,H12S02,2023-01-09_09h21.46.005,t1_Paradigm,2021.1.4,59.9865678786285,
D,left,Distractor,0,9,9,9,1465.9975526034832,1467.9969392307103,left,1,3,0.6873658648692071,H12S02,2023-01-09_09h21.46.005,t1_Paradigm,2021.1.4,59.9865678786285,
G,left,Distractor,0,10,10,10,1469.4973049447872,1471.4982423274778,left,1,3,0.7861176254227757,H12S02,2023-01-09_09h21.46.005,t1_Paradigm,2021.1.4,59.9865678786285,
M,left,Pretarget,0,11,11,11,1472.997450267896,1474.9977832599543,left,1,3,0.5827068607322872,H12S02,2023-01-09_09h21.46.005,t1_Paradigm,2021.1.4,59.9865678786285,
Y,left,Distractor,0,12,12,12,1476.4974971050397,1478.4981662975624,left,1,3,0.6021631662733853,H12S02,2023-01-09_09h21.46.005,t1_Paradigm,2021.1.4,59.9865678786285,
V,left,Distractor,0,13,13,13,1479.9973575561307,1481.99887494836,left,1,3,0.9255746360868216,H12S02,2023-01-09_09h21.46.005,t1_Paradigm,2021.1.4,59.9865678786285,
M,right,Target,0,14,14,14,1483.4972334057093,1485.4978143777698,None,0,3,,H12S02,2023-01-09_09h21.46.005,t1_Paradigm,2021.1.4,59.9865678786285,
S,left,Pretarget,0,15,15,15,1486.9975718515925,1488.9993741158396,left,1,3,0.9010076378472149,H12S02,2023-01-09_09h21.46.005,t1_Paradigm,2021.1.4,59.9865678786285,
Q,left,Distractor,0,16,16,16,1490.4974329443648,1492.4977983376011,left,1,3,0.682923402171582,H12S02,2023-01-09_09h21.46.005,t1_Paradigm,2021.1.4,59.9865678786285,
R,left,Pretarget,0,17,17,17,1493.9975866088644,1495.9986693146639,left,1,3,1.0857355501502752,H12S02,2023-01-09_09h21.46.005,t1_Paradigm,2021.1.4,59.9865678786285,
S,right,Target,0,18,18,18,1497.4972982080653,1499.4985749986954,right,1,3,0.8981640515848994,H12S02,2023-01-09_09h21.46.005,t1_Paradigm,2021.1.4,59.9865678786285,
F,left,Distractor,0,19,19,19,1500.9971724534407,1502.9982622172683,left,1,3,0.6781485890969634,H12S02,2023-01-09_09h21.46.005,t1_Paradigm,2021.1.4,59.9865678786285,
R,right,Target,0,20,20,20,1504.4964439128526,1506.4981464077719,right,1,3,0.890303767286241,H12S02,2023-01-09_09h21.46.005,t1_Paradigm,2021.1.4,59.9865678786285,
P,left,Distractor,0,21,21,21,1507.9974416061305,1509.998121384997,left,1,3,0.7660286989994347,H12S02,2023-01-09_09h21.46.005,t1_Paradigm,2021.1.4,59.9865678786285,
L,left,Distractor,0,22,22,22,1511.4974412852898,1513.4974332652055,left,1,3,1.3150500929914415,H12S02,2023-01-09_09h21.46.005,t1_Paradigm,2021.1.4,59.9865678786285,
R,right,Target,0,23,23,23,1514.997216724325,1516.998919540085,None,0,3,,H12S02,2023-01-09_09h21.46.005,t1_Paradigm,2021.1.4,59.9865678786285,
H,left,Pretarget,0,24,24,24,1518.4974265284836,1520.4985749986954,left,1,3,0.6978326630778611,H12S02,2023-01-09_09h21.46.005,t1_Paradigm,2021.1.4,59.9865678786285,
G,left,Pretarget,0,25,25,25,1521.997407601215,1523.9982378361747,left,1,3,0.8302865717560053,H12S02,2023-01-09_09h21.46.005,t1_Paradigm,2021.1.4,59.9865678786285,
T,left,Distractor,0,26,26,26,1525.497380653862,1527.4985660165548,left,1,3,0.7058110027574003,H12S02,2023-01-09_09h21.46.005,t1_Paradigm,2021.1.4,59.9865678786285,
H,right,Target,0,27,27,27,1528.9974916512147,1530.9978734054603,right,1,3,0.4864358608610928,H12S02,2023-01-09_09h21.46.005,t1_Paradigm,2021.1.4,59.9865678786285,
G,right,Target,0,28,28,28,1532.4972725436091,1534.4995098151267,right,1,3,1.2249362408183515,H12S02,2023-01-09_09h21.46.005,t1_Paradigm,2021.1.4,59.9865678786285,
D,left,Distractor,0,29,29,29,1535.997388032265,1537.999033103697,left,1,3,0.5891148755326867,H12S02,2023-01-09_09h21.46.005,t1_Paradigm,2021.1.4,59.9865678786285,
N,left,Pretarget,0,30,30,30,1539.4973957315087,1541.4982843524776,left,1,3,0.7380307265557349,H12S02,2023-01-09_09h21.46.005,t1_Paradigm,2021.1.4,59.9865678786285,
V,left,Distractor,0,31,31,31,1542.997341515962,1544.9986436502077,left,1,3,0.597763370256871,H12S02,2023-01-09_09h21.46.005,t1_Paradigm,2021.1.4,59.9865678786285,
R,left,Distractor,0,32,32,32,1546.4971031602472,1548.4989394294098,left,1,3,0.7295208186842501,H12S02,2023-01-09_09h21.46.005,t1_Paradigm,2021.1.4,59.9865678786285,
N,right,Target,0,33,33,33,1549.9974111299962,1551.9975262978114,left,0,3,0.846971791703254,H12S02,2023-01-09_09h21.46.005,t1_Paradigm,2021.1.4,59.9865678786285,
Z,left,Distractor,0,34,34,34,1553.4974791398272,1555.4979754202068,left,1,3,0.6104388888925314,H12S02,2023-01-09_09h21.46.005,t1_Paradigm,2021.1.4,59.9865678786285,
N,left,Lure,0,35,35,35,1556.9974592505023,1558.9985146881081,right,0,3,0.9177512442693114,H12S02,2023-01-09_09h21.46.005,t1_Paradigm,2021.1.4,59.9865678786285,
Y,left,Pretarget,0,36,36,36,1560.497137806844,1562.4972077417187,left,1,3,1.0671986625529826,H12S02,2023-01-09_09h21.46.005,t1_Paradigm,2021.1.4,59.9865678786285,
Y,left,Lure,0,37,37,37,1563.9972263481468,1565.9972946788184,left,1,3,0.5588080934248865,H12S02,2023-01-09_09h21.46.005,t1_Paradigm,2021.1.4,59.9865678786285,
B,left,Distractor,0,38,38,38,1567.4973752005026,1569.4998800205067,left,1,3,0.6884617237374187,H12S02,2023-01-09_09h21.46.005,t1_Paradigm,2021.1.4,59.9865678786285,
Y,right,Target,0,39,39,39,1570.9973347792402,1572.9979876107536,right,1,3,1.2223088745959103,H12S02,2023-01-09_09h21.46.005,t1_Paradigm,2021.1.4,59.9865678786285,
J,left,Distractor,0,40,40,40,1574.4973161728121,1576.4990940559655,left,1,3,0.6331757130101323,H12S02,2023-01-09_09h21.46.005,t1_Paradigm,2021.1.4,59.9865678786285,
X,left,Distractor,0,41,41,41,1577.9973870697431,1579.9979590596631,left,1,3,0.5580641538836062,H12S02,2023-01-09_09h21.46.005,t1_Paradigm,2021.1.4,59.9865678786285,
W,left,Pretarget,0,42,42,42,1581.4973691049963,1583.4990318203345,left,1,3,0.6413609692826867,H12S02,2023-01-09_09h21.46.005,t1_Paradigm,2021.1.4,59.9865678786285,
S,left,Pretarget,0,43,43,43,1584.9973556315526,1586.9991761813872,left,1,3,0.6612067278474569,H12S02,2023-01-09_09h21.46.005,t1_Paradigm,2021.1.4,59.9865678786285,
R,left,Distractor,0,44,44,44,1588.496865125373,1590.498905745335,left,1,3,0.6975198816508055,H12S02,2023-01-09_09h21.46.005,t1_Paradigm,2021.1.4,59.9865678786285,
W,right,Target,0,45,45,45,1591.9973036614247,1593.998692412395,right,1,3,0.9735162118449807,H12S02,2023-01-09_09h21.46.005,t1_Paradigm,2021.1.4,59.9865678786285,
S,right,Target,0,46,46,46,1595.496671361383,1597.497321947012,right,1,3,1.1549504520371556,H12S02,2023-01-09_09h21.46.005,t1_Paradigm,2021.1.4,59.9865678786285,
D,left,Distractor,0,47,47,47,1598.9972542580217,1600.997813415248,left,1,3,0.7585071809589863,H12S02,2023-01-09_09h21.46.005,t1_Paradigm,2021.1.4,59.9865678786285,
T,left,Distractor,0,48,48,48,1602.496979331132,1604.4990013442002,left,1,3,0.6815895084291697,H12S02,2023-01-09_09h21.46.005,t1_Paradigm,2021.1.4,59.9865678786285,
S,right,Target,0,49,49,49,1605.9973277216777,1607.997426207643,right,1,3,1.0708266096189618,H12S02,2023-01-09_09h21.46.005,t1_Paradigm,2021.1.4,59.9865678786285,
K,left,Distractor,0,50,50,50,1609.4973411951214,1611.4973931652494,left,1,3,0.6749665564857423,H12S02,2023-01-09_09h21.46.005,t1_Paradigm,2021.1.4,59.9865678786285,
S,left,Lure,0,51,51,51,1612.9970948193222,1614.99814255815,right,0,3,1.0462701981887221,H12S02,2023-01-09_09h21.46.005,t1_Paradigm,2021.1.4,59.9865678786285,
T,left,Pretarget,0,52,52,52,1616.497395410668,1618.4963271408342,left,1,3,0.8600627486594021,H12S02,2023-01-09_09h21.46.005,t1_Paradigm,2021.1.4,59.9865678786285,
V,left,Distractor,0,53,53,53,1619.9971737368032,1621.9979375656694,left,1,3,1.0063570071943104,H12S02,2023-01-09_09h21.46.005,t1_Paradigm,2021.1.4,59.9865678786285,
B,left,Distractor,0,54,54,54,1623.4970280928537,1625.4973405539058,left,1,3,0.7869372735731304,H12S02,2023-01-09_09h21.46.005,t1_Paradigm,2021.1.4,59.9865678786285,
T,right,Target,0,55,55,55,1626.9973184182309,1628.9986372343265,right,1,3,0.7415938717313111,H12S02,2023-01-09_09h21.46.005,t1_Paradigm,2021.1.4,59.9865678786285,
Y,left,Pretarget,0,56,56,56,1630.4968205341138,1632.4967570151202,left,1,3,0.6514938133768737,H12S02,2023-01-09_09h21.46.005,t1_Paradigm,2021.1.4,59.9865678786285,
T,left,Lure,0,57,57,57,1633.9972972455435,1635.997557415627,None,0,3,,H12S02,2023-01-09_09h21.46.005,t1_Paradigm,2021.1.4,59.9865678786285,
P,left,Pretarget,0,58,58,58,1637.4967181985267,1639.4980055755004,left,1,3,0.8023829157464206,H12S02,2023-01-09_09h21.46.005,t1_Paradigm,2021.1.4,59.9865678786285,
Y,right,Target,0,59,59,59,1640.9969430803321,1642.9990167426877,right,1,3,1.2532113855704665,H12S02,2023-01-09_09h21.46.005,t1_Paradigm,2021.1.4,59.9865678786285,
R,left,Distractor,0,60,60,60,1644.4972856966779,1646.4977668994106,left,1,3,0.7786872149445117,H12S02,2023-01-09_09h21.46.005,t1_Paradigm,2021.1.4,59.9865678786285,
P,right,Target,0,61,61,61,1647.9963945094496,1649.9986872794107,None,0,3,,H12S02,2023-01-09_09h21.46.005,t1_Paradigm,2021.1.4,59.9865678786285,
L,left,Distractor,0,62,62,62,1651.4970710803755,1653.4978769342415,left,1,3,0.8182658101432025,H12S02,2023-01-09_09h21.46.005,t1_Paradigm,2021.1.4,59.9865678786285,
V,left,Distractor,0,63,63,63,1654.9971249750815,1656.9988970835693,left,1,3,1.0614890330471098,H12S02,2023-01-09_09h21.46.005,t1_Paradigm,2021.1.4,59.9865678786285,
H,left,Lure,0,0,0,0,1665.525705844164,1667.5156634664163,None,0,3,,H12S02,2023-01-09_09h21.46.005,t1_Paradigm,2021.1.4,59.9865678786285,
B,left,Distractor,0,1,1,1,1669.0140334726311,1671.0144732920453,None,0,3,,H12S02,2023-01-09_09h21.46.005,t1_Paradigm,2021.1.4,59.9865678786285,
T,left,Distractor,0,2,2,2,1672.513936911244,1674.5152342333458,None,0,3,,H12S02,2023-01-09_09h21.46.005,t1_Paradigm,2021.1.4,59.9865678786285,
R,left,Distractor,0,3,3,3,1676.0139215127565,1678.0150302038528,left,1,3,0.5729602621868253,H12S02,2023-01-09_09h21.46.005,t1_Paradigm,2021.1.4,59.9865678786285,
H,left,Pretarget,0,4,4,4,1679.5138740343973,1681.5153291909955,left,1,3,0.9290367285721004,H12S02,2023-01-09_09h21.46.005,t1_Paradigm,2021.1.4,59.9865678786285,
K,left,Distractor,0,5,5,5,1683.0137399388477,1685.0151671860367,left,1,3,0.7090908801183105,H12S02,2023-01-09_09h21.46.005,t1_Paradigm,2021.1.4,59.9865678786285,
G,left,Distractor,0,6,6,6,1686.5139600089751,1688.5155357872136,left,1,3,0.9206204945221543,H12S02,2023-01-09_09h21.46.005,t1_Paradigm,2021.1.4,59.9865678786285,
H,right,Target,0,7,7,7,1690.0138101945631,1692.0151931708679,left,0,3,0.9251046613790095,H12S02,2023-01-09_09h21.46.005,t1_Paradigm,2021.1.4,59.9865678786285,
Y,left,Pretarget,0,8,8,8,1693.5137094627135,1695.5156676368788,left,1,3,0.7205560132861137,H12S02,2023-01-09_09h21.46.005,t1_Paradigm,2021.1.4,59.9865678786285,
S,left,Distractor,0,9,9,9,1697.0139096430503,1699.015873270575,left,1,3,0.900190556421876,H12S02,2023-01-09_09h21.46.005,t1_Paradigm,2021.1.4,59.9865678786285,
P,left,Distractor,0,10,10,10,1700.513511528261,1702.51477612881,left,1,3,0.6815648069605231,H12S02,2023-01-09_09h21.46.005,t1_Paradigm,2021.1.4,59.9865678786285,
Y,right,Target,0,11,11,11,1704.0139276082627,1706.0156070049852,right,1,3,1.0525412312708795,H12S02,2023-01-09_09h21.46.005,t1_Paradigm,2021.1.4,59.9865678786285,
H,left,Lure,0,12,12,12,1707.513620280195,1709.5149095822126,left,1,3,0.75325693981722,H12S02,2023-01-09_09h21.46.005,t1_Paradigm,2021.1.4,59.9865678786285,
Q,left,Distractor,0,13,13,13,1711.0139818233438,1713.013495808933,left,1,3,0.7269884091801941,H12S02,2023-01-09_09h21.46.005,t1_Paradigm,2021.1.4,59.9865678786285,
V,left,Pretarget,0,14,14,14,1714.5139237586409,1716.514462705236,left,1,3,0.6335536171682179,H12S02,2023-01-09_09h21.46.005,t1_Paradigm,2021.1.4,59.9865678786285,
G,left,Distractor,0,15,15,15,1718.013459558133,1720.0134913176298,left,1,3,1.0066685061901808,H12S02,2023-01-09_09h21.46.005,t1_Paradigm,2021.1.4,59.9865678786285,
Z,left,Pretarget,0,16,16,16,1721.513986314647,1723.5148280984722,left,1,3,0.6574296080507338,H12S02,2023-01-09_09h21.46.005,t1_Paradigm,2021.1.4,59.9865678786285,
V,right,Target,0,17,17,17,1725.0138826956972,1727.0150250708684,right,1,3,1.0454896879382432,H12S02,2023-01-09_09h21.46.005,t1_Paradigm,2021.1.4,59.9865678786285,
N,left,Distractor,0,18,18,18,1728.513866014313,1730.5145605499856,left,1,3,0.6495292233303189,H12S02,2023-01-09_09h21.46.005,t1_Paradigm,2021.1.4,59.9865678786285,
Z,right,Target,0,19,19,19,1732.0139221544378,1734.0154004087672,left,0,3,1.1489870683290064,H12S02,2023-01-09_09h21.46.005,t1_Paradigm,2021.1.4,59.9865678786285,
R,left,Distractor,0,20,20,20,1735.5138656934723,1737.5149288303219,left,1,3,1.089328529778868,H12S02,2023-01-09_09h21.46.005,t1_Paradigm,2021.1.4,59.9865678786285,
P,left,Distractor,0,21,21,21,1739.0137880593538,1741.0154360178858,left,1,3,0.7888046610169113,H12S02,2023-01-09_09h21.46.005,t1_Paradigm,2021.1.4,59.9865678786285,
Z,right,Target,0,22,22,22,1742.5139782945625,1744.5145740234293,right,1,3,0.4737917804159224,H12S02,2023-01-09_09h21.46.005,t1_Paradigm,2021.1.4,59.9865678786285,
D,left,Pretarget,0,23,23,23,1746.013854786288,1748.0154347345233,left,1,3,0.6526904040947556,H12S02,2023-01-09_09h21.46.005,t1_Paradigm,2021.1.4,59.9865678786285,
K,left,Distractor,0,24,24,24,1749.5135185858235,1751.5154296020046,left,1,3,1.2807859000749886,H12S02,2023-01-09_09h21.46.005,t1_Paradigm,2021.1.4,59.9865678786285,
W,left,Distractor,0,25,25,25,1753.0138676180504,1755.0155704338104,left,1,3,0.6286270651035011,H12S02,2023-01-09_09h21.46.005,t1_Paradigm,2021.1.4,59.9865678786285,
D,right,Target,0,26,26,26,1756.5138393878005,1758.5154969701543,right,1,3,0.9366413336247206,H12S02,2023-01-09_09h21.46.005,t1_Paradigm,2021.1.4,59.9865678786285,
G,left,Pretarget,0,27,27,27,1760.0132831172086,1762.014963156078,left,1,3,1.0052306726574898,H12S02,2023-01-09_09h21.46.005,t1_Paradigm,2021.1.4,59.9865678786285,
V,left,Distractor,0,28,28,28,1763.5136270169169,1765.515610534232,left,1,3,1.200509112328291,H12S02,2023-01-09_09h21.46.005,t1_Paradigm,2021.1.4,59.9865678786285,
D,right,Target,0,29,29,29,1767.0138849415816,1769.014100520406,left,0,3,0.6940982099622488,H12S02,2023-01-09_09h21.46.005,t1_Paradigm,2021.1.4,59.9865678786285,
G,right,Target,0,30,30,30,1770.514047587756,1772.5153240580112,right,1,3,1.032736855559051,H12S02,2023-01-09_09h21.46.005,t1_Paradigm,2021.1.4,59.9865678786285,
B,left,Pretarget,0,31,31,31,1774.013615788892,1776.0139901642688,left,1,3,0.606118009891361,H12S02,2023-01-09_09h21.46.005,t1_Paradigm,2021.1.4,59.9865678786285,
N,left,Distractor,0,32,32,32,1777.5137800392695,1779.5155133311637,left,1,3,0.7046160162426531,H12S02,2023-01-09_09h21.46.005,t1_Paradigm,2021.1.4,59.9865678786285,
F,left,Distractor,0,33,33,33,1781.0137848514132,1783.015504669398,left,1,3,0.6448147208429873,H12S02,2023-01-09_09h21.46.005,t1_Paradigm,2021.1.4,59.9865678786285,
B,right,Target,0,34,34,34,1784.5137960794382,1786.5151963788085,right,1,3,0.5368979750201106,H12S02,2023-01-09_09h21.46.005,t1_Paradigm,2021.1.4,59.9865678786285,
Q,left,Pretarget,0,35,35,35,1788.013955517672,1790.0151601284742,left,1,3,0.6529515367001295,H12S02,2023-01-09_09h21.46.005,t1_Paradigm,2021.1.4,59.9865678786285,
S,left,Pretarget,0,36,36,36,1791.513946856372,1793.5138692222536,left,1,3,0.6423256201669574,H12S02,2023-01-09_09h21.46.005,t1_Paradigm,2021.1.4,59.9865678786285,
W,left,Distractor,0,37,37,37,1795.0138737135567,1797.0154469250701,left,1,3,0.5164667540229857,H12S02,2023-01-09_09h21.46.005,t1_Paradigm,2021.1.4,59.9865678786285,
Q,right,Target,0,38,38,38,1798.5139083601534,1800.5142391063273,right,1,3,0.48993388283997774,H12S02,2023-01-09_09h21.46.005,t1_Paradigm,2021.1.4,59.9865678786285,
S,right,Target,0,39,39,39,1802.0137232574634,1804.0151216322556,right,1,3,0.7650666148401797,H12S02,2023-01-09_09h21.46.005,t1_Paradigm,2021.1.4,59.9865678786285,
T,left,Distractor,0,40,40,40,1805.5137890218757,1807.5153927095234,left,1,3,0.5765776224434376,H12S02,2023-01-09_09h21.46.005,t1_Paradigm,2021.1.4,59.9865678786285,
G,left,Distractor,0,41,41,41,1809.0138150067069,1811.014712930657,left,1,3,1.1254187263548374,H12S02,2023-01-09_09h21.46.005,t1_Paradigm,2021.1.4,59.9865678786285,
D,left,Distractor,0,42,42,42,1812.5134640494362,1814.5150982136838,right,0,3,0.9050510236993432,H12S02,2023-01-09_09h21.46.005,t1_Paradigm,2021.1.4,59.9865678786285,
S,left,Lure,0,43,43,43,1816.0135801797733,1818.0152643891051,left,1,3,1.212981563527137,H12S02,2023-01-09_09h21.46.005,t1_Paradigm,2021.1.4,59.9865678786285,
Z,left,Pretarget,0,44,44,44,1819.5137059339322,1821.5149833667092,left,1,3,1.073180973995477,H12S02,2023-01-09_09h21.46.005,t1_Paradigm,2021.1.4,59.9865678786285,
J,left,Distractor,0,45,45,45,1823.013470465783,1825.0154459625483,left,1,3,0.7407527291215956,H12S02,2023-01-09_09h21.46.005,t1_Paradigm,2021.1.4,59.9865678786285,
M,left,Pretarget,0,46,46,46,1826.5138249513693,1828.514361973852,left,1,3,1.049601724371314,H12S02,2023-01-09_09h21.46.005,t1_Paradigm,2021.1.4,59.9865678786285,
Z,right,Target,0,47,47,47,1830.0134210619144,1832.0151716773398,right,1,3,0.8130040192045271,H12S02,2023-01-09_09h21.46.005,t1_Paradigm,2021.1.4,59.9865678786285,
P,left,Distractor,0,48,48,48,1833.5135557986796,1835.5131204710342,left,1,3,0.6910143429413438,H12S02,2023-01-09_09h21.46.005,t1_Paradigm,2021.1.4,59.9865678786285,
M,right,Target,0,49,49,49,1837.0138782043941,1839.0153028853238,right,1,3,0.7888434776104987,H12S02,2023-01-09_09h21.46.005,t1_Paradigm,2021.1.4,59.9865678786285,
K,left,Distractor,0,50,50,50,1840.5137537335977,1842.514064269606,left,1,3,0.7620032783597708,H12S02,2023-01-09_09h21.46.005,t1_Paradigm,2021.1.4,59.9865678786285,
Y,left,Distractor,0,51,51,51,1844.0138015327975,1846.0145396976732,left,1,3,0.6535844779573381,H12S02,2023-01-09_09h21.46.005,t1_Paradigm,2021.1.4,59.9865678786285,
X,left,Distractor,0,52,52,52,1847.5135731222108,1849.5158886690624,left,1,3,0.6402943036518991,H12S02,2023-01-09_09h21.46.005,t1_Paradigm,2021.1.4,59.9865678786285,
F,left,Pretarget,0,53,53,53,1851.0137139540166,1853.0144915776327,left,1,3,0.6296616503968835,H12S02,2023-01-09_09h21.46.005,t1_Paradigm,2021.1.4,59.9865678786285,
M,left,Lure,0,54,54,54,1854.5138320089318,1856.514987216331,left,1,3,0.8252069973386824,H12S02,2023-01-09_09h21.46.005,t1_Paradigm,2021.1.4,59.9865678786285,
V,left,Distractor,0,55,55,55,1858.0138040995225,1860.0141868158244,left,1,3,0.6538545936346054,H12S02,2023-01-09_09h21.46.005,t1_Paradigm,2021.1.4,59.9865678786285,
F,right,Target,0,56,56,56,1861.5137627157383,1863.514745331835,right,1,3,0.5454861591570079,H12S02,2023-01-09_09h21.46.005,t1_Paradigm,2021.1.4,59.9865678786285,
S,left,Distractor,0,57,57,57,1865.0137672070414,1867.0139847109094,left,1,3,0.742185109294951,H12S02,2023-01-09_09h21.46.005,t1_Paradigm,2021.1.4,59.9865678786285,
D,left,Distractor,0,58,58,58,1868.513691177126,1870.5151886795647,left,1,3,0.6168016707524657,H12S02,2023-01-09_09h21.46.005,t1_Paradigm,2021.1.4,59.9865678786285,
F,right,Target,0,59,59,59,1872.0137242195196,1874.0144421742298,right,1,3,0.7977810143493116,H12S02,2023-01-09_09h21.46.005,t1_Paradigm,2021.1.4,59.9865678786285,
V,left,Pretarget,0,60,60,60,1875.5136440191418,1877.5149961984716,left,1,3,1.0733144273981452,H12S02,2023-01-09_09h21.46.005,t1_Paradigm,2021.1.4,59.9865678786285,
J,left,Distractor,0,61,61,61,1879.013813081663,1881.0137867759913,left,1,3,0.7102800919674337,H12S02,2023-01-09_09h21.46.005,t1_Paradigm,2021.1.4,59.9865678786285,
V,left,Lure,0,62,62,62,1882.5128256538883,1884.5153134716675,right,0,3,1.0167272449471056,H12S02,2023-01-09_09h21.46.005,t1_Paradigm,2021.1.4,59.9865678786285,
V,right,Target,0,63,63,63,1886.0136690419167,1888.0130758793093,left,0,3,1.0389094026759267,H12S02,2023-01-09_09h21.46.005,t1_Paradigm,2021.1.4,59.9865678786285,
R,left,Distractor,0,0,0,0,1962.504310933873,1964.4973841826431,None,0,4,,H12S02,2023-01-09_09h21.46.005,t1_Paradigm,2021.1.4,59.9865678786285,
F,left,Distractor,0,1,1,1,1965.9966979878955,1967.9980800016783,None,0,4,,H12S02,2023-01-09_09h21.46.005,t1_Paradigm,2021.1.4,59.9865678786285,
P,left,Pretarget,0,2,2,2,1969.4969164538197,1971.4968247045763,None,0,4,,H12S02,2023-01-09_09h21.46.005,t1_Paradigm,2021.1.4,59.9865678786285,
H,left,Distractor,0,3,3,3,1972.9970396417193,1974.9974544383585,None,0,4,,H12S02,2023-01-09_09h21.46.005,t1_Paradigm,2021.1.4,59.9865678786285,
Z,left,Distractor,0,4,4,4,1976.4969042632729,1978.4985544676892,left,1,4,0.601405753288418,H12S02,2023-01-09_09h21.46.005,t1_Paradigm,2021.1.4,59.9865678786285,
T,left,Distractor,0,5,5,5,1979.9969020178542,1981.9975654357113,left,1,4,0.7503745360299945,H12S02,2023-01-09_09h21.46.005,t1_Paradigm,2021.1.4,59.9865678786285,
P,right,Target,0,6,6,6,1983.4964981283993,1985.4984511691146,left,0,4,1.3136071269400418,H12S02,2023-01-09_09h21.46.005,t1_Paradigm,2021.1.4,59.9865678786285,
G,left,Distractor,0,7,7,7,1986.9965741583146,1988.9985737157986,left,1,4,0.8853932544589043,H12S02,2023-01-09_09h21.46.005,t1_Paradigm,2021.1.4,59.9865678786285,
L,left,Distractor,0,8,8,8,1990.4970280928537,1992.4973652553745,left,1,4,0.7945290468633175,H12S02,2023-01-09_09h21.46.005,t1_Paradigm,2021.1.4,59.9865678786285,
P,left,Lure,0,9,9,9,1993.9970672307536,1995.9984813248739,left,1,4,1.0856457259505987,H12S02,2023-01-09_09h21.46.005,t1_Paradigm,2021.1.4,59.9865678786285,
Q,left,Pretarget,0,10,10,10,1997.4968686541542,1999.4987533646636,left,1,4,0.6892970912158489,H12S02,2023-01-09_09h21.46.005,t1_Paradigm,2021.1.4,59.9865678786285,
D,left,Distractor,0,11,11,11,2000.9966720030643,2002.9970595315099,left,1,4,0.6789977513253689,H12S02,2023-01-09_09h21.46.005,t1_Paradigm,2021.1.4,59.9865678786285,
M,left,Pretarget,0,12,12,12,2004.4966732859612,2006.4980809642002,left,1,4,0.7299891891889274,H12S02,2023-01-09_09h21.46.005,t1_Paradigm,2021.1.4,59.9865678786285,
C,left,Distractor,0,13,13,13,2007.9961080332287,2009.9965417571366,left,1,4,0.7836711914278567,H12S02,2023-01-09_09h21.46.005,t1_Paradigm,2021.1.4,59.9865678786285,
Q,right,Target,0,14,14,14,2011.4970303382725,2013.4988694950007,left,0,4,1.2169915856793523,H12S02,2023-01-09_09h21.46.005,t1_Paradigm,2021.1.4,59.9865678786285,
R,left,Distractor,0,15,15,15,2014.9969411552884,2016.9985031392425,left,1,4,0.8693996840156615,H12S02,2023-01-09_09h21.46.005,t1_Paradigm,2021.1.4,59.9865678786285,
M,right,Target,0,16,16,16,2018.4966376768425,2020.49829141004,right,1,4,1.2577532972209156,H12S02,2023-01-09_09h21.46.005,t1_Paradigm,2021.1.4,59.9865678786285,
S,left,Distractor,0,17,17,17,2021.996876353398,2023.9968227795325,left,1,4,0.7832416375167668,H12S02,2023-01-09_09h21.46.005,t1_Paradigm,2021.1.4,59.9865678786285,
Z,left,Distractor,0,18,18,18,2025.49668355193,2027.49851565063,left,1,4,0.8975391299463809,H12S02,2023-01-09_09h21.46.005,t1_Paradigm,2021.1.4,59.9865678786285,
L,left,Pretarget,0,19,19,19,2028.9969138875604,2030.9981980565935,left,1,4,0.9979061270132661,H12S02,2023-01-09_09h21.46.005,t1_Paradigm,2021.1.4,59.9865678786285,
M,right,Target,0,20,20,20,2032.496916132979,2034.4985300865956,left,0,4,1.0493036997504532,H12S02,2023-01-09_09h21.46.005,t1_Paradigm,2021.1.4,59.9865678786285,
P,left,Distractor,0,21,21,21,2035.9968173261732,2037.9980107084848,left,1,4,0.877937501296401,H12S02,2023-01-09_09h21.46.005,t1_Paradigm,2021.1.4,59.9865678786285,
F,left,Distractor,0,22,22,22,2039.4969645738602,2041.4981525028124,left,1,4,0.7861997503787279,H12S02,2023-01-09_09h21.46.005,t1_Paradigm,2021.1.4,59.9865678786285,
L,right,Target,0,23,23,23,2042.9970191102475,2044.9970126943663,right,1,4,1.0948671721853316,H12S02,2023-01-09_09h21.46.005,t1_Paradigm,2021.1.4,59.9865678786285,
L,left,Lure,0,24,24,24,2046.496990559157,2048.4970178273506,left,1,4,0.7150141634047031,H12S02,2023-01-09_09h21.46.005,t1_Paradigm,2021.1.4,59.9865678786285,
V,left,Pretarget,0,25,25,25,2049.9966152207926,2051.9974483428523,left,1,4,0.654373009223491,H12S02,2023-01-09_09h21.46.005,t1_Paradigm,2021.1.4,59.9865678786285,
Z,left,Distractor,0,26,26,26,2053.496693817433,2055.4986279308796,left,1,4,0.7372726718895137,H12S02,2023-01-09_09h21.46.005,t1_Paradigm,2021.1.4,59.9865678786285,
H,left,Distractor,0,27,27,27,2056.996635110583,2058.9981335755438,left,1,4,0.7095929346978664,H12S02,2023-01-09_09h21.46.005,t1_Paradigm,2021.1.4,59.9865678786285,
X,left,Distractor,0,28,28,28,2060.496737446636,2062.4985442017205,left,1,4,0.7932031736709177,H12S02,2023-01-09_09h21.46.005,t1_Paradigm,2021.1.4,59.9865678786285,
V,right,Target,0,29,29,29,2063.9965638928115,2065.9983173948713,right,1,4,0.4456532965414226,H12S02,2023-01-09_09h21.46.005,t1_Paradigm,2021.1.4,59.9865678786285,
C,left,Distractor,0,30,30,30,2067.496583782602,2069.4975195610896,left,1,4,0.5943182804621756,H12S02,2023-01-09_09h21.46.005,t1_Paradigm,2021.1.4,59.9865678786285,
S,left,Pretarget,0,31,31,31,2070.9970133360475,2072.997656222433,left,1,4,0.9502070774324238,H12S02,2023-01-09_09h21.46.005,t1_Paradigm,2021.1.4,59.9865678786285,
D,left,Distractor,0,32,32,32,2074.496836895123,2076.498754006345,left,1,4,0.6973325335420668,H12S02,2023-01-09_09h21.46.005,t1_Paradigm,2021.1.4,59.9865678786285,
V,left,Distractor,0,33,33,33,2077.9966671909206,2079.996006339323,right,0,4,1.1198646859265864,H12S02,2023-01-09_09h21.46.005,t1_Paradigm,2021.1.4,59.9865678786285,
R,left,Distractor,0,34,34,34,2081.496889185626,2083.4971968345344,left,1,4,0.7067070021294057,H12S02,2023-01-09_09h21.46.005,t1_Paradigm,2021.1.4,59.9865678786285,
S,right,Target,0,35,35,35,2084.9965173765086,2086.998138708528,right,1,4,0.8857862371951342,H12S02,2023-01-09_09h21.46.005,t1_Paradigm,2021.1.4,59.9865678786285,
Y,left,Distractor,0,36,36,36,2088.4966055969708,2090.498566978611,left,1,4,0.7934149028733373,H12S02,2023-01-09_09h21.46.005,t1_Paradigm,2021.1.4,59.9865678786285,
N,left,Pretarget,0,37,37,37,2091.9966412060894,2093.9981970945373,left,1,4,0.7818900994025171,H12S02,2023-01-09_09h21.46.005,t1_Paradigm,2021.1.4,59.9865678786285,
Z,left,Pretarget,0,38,38,38,2095.496858709492,2097.49891408626,left,1,4,0.8649671659804881,H12S02,2023-01-09_09h21.46.005,t1_Paradigm,2021.1.4,59.9865678786285,
P,left,Pretarget,0,39,39,39,2098.9969427594915,2100.998415881302,left,1,4,0.9493912789039314,H12S02,2023-01-09_09h21.46.005,t1_Paradigm,2021.1.4,59.9865678786285,
M,left,Distractor,0,40,40,40,2102.4966376768425,2104.4987097354606,left,1,4,0.8732422469183803,H12S02,2023-01-09_09h21.46.005,t1_Paradigm,2021.1.4,59.9865678786285,
N,right,Target,0,41,41,41,2105.9968134765513,2107.998384442646,right,1,4,1.0375642809085548,H12S02,2023-01-09_09h21.46.005,t1_Paradigm,2021.1.4,59.9865678786285,
Z,right,Target,0,42,42,42,2109.4968766742386,2111.496922869701,None,0,4,,H12S02,2023-01-09_09h21.46.005,t1_Paradigm,2021.1.4,59.9865678786285,
P,right,Target,0,43,43,43,2112.9963576169685,2115.013012681622,right,1,4,0.8868448827415705,H12S02,2023-01-09_09h21.46.005,t1_Paradigm,2021.1.4,59.9865678786285,
X,left,Pretarget,0,44,44,44,2116.4967993609607,2118.498403049074,left,1,4,1.033446148969233,H12S02,2023-01-09_09h21.46.005,t1_Paradigm,2021.1.4,59.9865678786285,
Z,left,Lure,0,45,45,45,2119.996819571592,2121.995845938567,left,1,4,0.9601179263554513,H12S02,2023-01-09_09h21.46.005,t1_Paradigm,2021.1.4,59.9865678786285,
R,left,Pretarget,0,46,46,46,2123.496674248483,2125.497844212223,left,1,4,0.6741026374511421,H12S02,2023-01-09_09h21.46.005,t1_Paradigm,2021.1.4,59.9865678786285,
K,left,Distractor,0,47,47,47,2126.996941476129,2128.9969908799976,left,1,4,0.8227990590967238,H12S02,2023-01-09_09h21.46.005,t1_Paradigm,2021.1.4,59.9865678786285,
X,right,Target,0,48,48,48,2130.4968141182326,2132.4986584074795,left,0,4,0.8732842719182372,H12S02,2023-01-09_09h21.46.005,t1_Paradigm,2021.1.4,59.9865678786285,
B,left,Distractor,0,49,49,49,2133.9968545390293,2135.9976581474766,left,1,4,0.7020573015324771,H12S02,2023-01-09_09h21.46.005,t1_Paradigm,2021.1.4,59.9865678786285,
R,right,Target,0,50,50,50,2137.496747070458,2139.509715160355,left,0,4,0.9981528236530721,H12S02,2023-01-09_09h21.46.005,t1_Paradigm,2021.1.4,59.9865678786285,
Y,left,Pretarget,0,51,51,51,2140.996538549196,2142.99872898357,left,1,4,0.693087684456259,H12S02,2023-01-09_09h21.46.005,t1_Paradigm,2021.1.4,59.9865678786285,
W,left,Pretarget,0,52,52,52,2144.4968888647854,2146.4989862665534,left,1,4,0.6327580288052559,H12S02,2023-01-09_09h21.46.005,t1_Paradigm,2021.1.4,59.9865678786285,
Z,left,Distractor,0,53,53,53,2147.996438779868,2149.998470417224,left,1,4,0.829516006167978,H12S02,2023-01-09_09h21.46.005,t1_Paradigm,2021.1.4,59.9865678786285,
Q,left,Distractor,0,54,54,54,2151.496700554155,2153.4987880112603,left,1,4,0.6091508697718382,H12S02,2023-01-09_09h21.46.005,t1_Paradigm,2021.1.4,59.9865678786285,
Y,right,Target,0,55,55,55,2154.996761827264,2156.9984232597053,None,0,4,,H12S02,2023-01-09_09h21.46.005,t1_Paradigm,2021.1.4,59.9865678786285,
W,right,Target,0,56,56,56,2158.4967977572232,2160.4984511691146,right,1,4,0.569467693567276,H12S02,2023-01-09_09h21.46.005,t1_Paradigm,2021.1.4,59.9865678786285,
H,left,Pretarget,0,57,57,57,2161.9967977572232,2163.997195551172,left,1,4,0.7827459988184273,H12S02,2023-01-09_09h21.46.005,t1_Paradigm,2021.1.4,59.9865678786285,
M,left,Distractor,0,58,58,58,2165.4969174163416,2167.496376544237,left,1,4,0.7554223518818617,H12S02,2023-01-09_09h21.46.005,t1_Paradigm,2021.1.4,59.9865678786285,
R,left,Pretarget,0,59,59,59,2168.9967451458797,2170.997218007222,left,1,4,0.9665849688462913,H12S02,2023-01-09_09h21.46.005,t1_Paradigm,2021.1.4,59.9865678786285,
J,left,Distractor,0,60,60,60,2172.4967643935233,2174.4973197015934,left,1,4,0.6344557115808129,H12S02,2023-01-09_09h21.46.005,t1_Paradigm,2021.1.4,59.9865678786285,
H,right,Target,0,61,61,61,2175.9966755318455,2177.9970508697443,right,1,4,1.2308720354922116,H12S02,2023-01-09_09h21.46.005,t1_Paradigm,2021.1.4,59.9865678786285,
Z,left,Distractor,0,62,62,62,2179.4964904291555,2181.498576282058,left,1,4,0.5614810134284198,H12S02,2023-01-09_09h21.46.005,t1_Paradigm,2021.1.4,59.9865678786285,
R,right,Target,0,63,63,63,2182.996519942768,2184.9973010951653,right,1,4,0.5184714435599744,H12S02,2023-01-09_09h21.46.005,t1_Paradigm,2021.1.4,59.9865678786285,
J,left,Pretarget,0,0,0,0,2197.0882323505357,2199.0808045067824,None,0,4,,H12S02,2023-01-09_09h21.46.005,t1_Paradigm,2021.1.4,59.9865678786285,
G,left,Pretarget,0,1,1,1,2200.580165790394,2202.581344416365,None,0,4,,H12S02,2023-01-09_09h21.46.005,t1_Paradigm,2021.1.4,59.9865678786285,
Z,left,Distractor,0,2,2,2,2204.0801811888814,2206.081829468254,None,0,4,,H12S02,2023-01-09_09h21.46.005,t1_Paradigm,2021.1.4,59.9865678786285,
F,left,Distractor,0,3,3,3,2207.5800945726223,2209.5801911340095,None,0,4,,H12S02,2023-01-09_09h21.46.005,t1_Paradigm,2021.1.4,59.9865678786285,
J,right,Target,0,4,4,4,2211.0799040161073,2213.080084948335,right,1,4,0.48351014871150255,H12S02,2023-01-09_09h21.46.005,t1_Paradigm,2021.1.4,59.9865678786285,
G,right,Target,0,5,5,5,2214.579880918376,2216.5822477936745,right,1,4,0.5175424022600055,H12S02,2023-01-09_09h21.46.005,t1_Paradigm,2021.1.4,59.9865678786285,
H,left,Distractor,0,6,6,6,2218.0799858206883,2220.0819982099347,left,1,4,0.6817098092287779,H12S02,2023-01-09_09h21.46.005,t1_Paradigm,2021.1.4,59.9865678786285,
P,left,Distractor,0,7,7,7,2221.5798023222014,2223.581992114894,left,1,4,0.5738575449213386,H12S02,2023-01-09_09h21.46.005,t1_Paradigm,2021.1.4,59.9865678786285,
G,left,Lure,0,8,8,8,2225.080115424469,2227.0805623014458,right,0,4,0.7712503890506923,H12S02,2023-01-09_09h21.46.005,t1_Paradigm,2021.1.4,59.9865678786285,
S,left,Distractor,0,9,9,9,2228.5797631843016,2230.5929083568044,left,1,4,0.6830568555742502,H12S02,2023-01-09_09h21.46.005,t1_Paradigm,2021.1.4,59.9865678786285,
R,left,Pretarget,0,10,10,10,2232.079748748336,2234.0796393547207,left,1,4,0.73213503183797,H12S02,2023-01-09_09h21.46.005,t1_Paradigm,2021.1.4,59.9865678786285,
T,left,Pretarget,0,11,11,11,2235.5799232642166,2237.5804667025805,left,1,4,0.7351951599121094,H12S02,2023-01-09_09h21.46.005,t1_Paradigm,2021.1.4,59.9865678786285,
X,left,Distractor,0,12,12,12,2239.0796974198893,2241.08187470166,left,1,4,0.625830315053463,H12S02,2023-01-09_09h21.46.005,t1_Paradigm,2021.1.4,59.9865678786285,
F,left,Pretarget,0,13,13,13,2242.5797696001828,2244.582072956953,left,1,4,0.5816039443016052,H12S02,2023-01-09_09h21.46.005,t1_Paradigm,2021.1.4,59.9865678786285,
R,right,Target,0,14,14,14,2246.0800422816537,2248.0819228217006,right,1,4,0.5376053433865309,H12S02,2023-01-09_09h21.46.005,t1_Paradigm,2021.1.4,59.9865678786285,
T,right,Target,0,15,15,15,2249.579973309301,2251.5803075847216,right,1,4,0.5113069782964885,H12S02,2023-01-09_09h21.46.005,t1_Paradigm,2021.1.4,59.9865678786285,
C,left,Distractor,0,16,16,16,2253.0800859108567,2255.0817864807323,left,1,4,0.5621659252792597,H12S02,2023-01-09_09h21.46.005,t1_Paradigm,2021.1.4,59.9865678786285,
F,right,Target,0,17,17,17,2256.5797503520735,2258.582039593719,left,0,4,1.2856723521836102,H12S02,2023-01-09_09h21.46.005,t1_Paradigm,2021.1.4,59.9865678786285,
M,left,Distractor,0,18,18,18,2260.0798257407732,2262.0816854285076,left,1,4,0.77821627818048,H12S02,2023-01-09_09h21.46.005,t1_Paradigm,2021.1.4,59.9865678786285,
N,left,Distractor,0,19,19,19,2263.5800236752257,2265.5820687864907,left,1,4,0.7016155575402081,H12S02,2023-01-09_09h21.46.005,t1_Paradigm,2021.1.4,59.9865678786285,
R,left,Lure,0,20,20,20,2267.0800227131695,2269.0812061508186,left,1,4,0.6265052817761898,H12S02,2023-01-09_09h21.46.005,t1_Paradigm,2021.1.4,59.9865678786285,
F,right,Target,0,21,21,21,2270.57963614678,2272.581971904263,right,1,4,0.4857230391353369,H12S02,2023-01-09_09h21.46.005,t1_Paradigm,2021.1.4,59.9865678786285,
P,left,Distractor,0,22,22,22,2274.08002880821,2276.081871493254,left,1,4,0.553640297614038,H12S02,2023-01-09_09h21.46.005,t1_Paradigm,2021.1.4,59.9865678786285,
L,left,Pretarget,0,23,23,23,2277.579790452495,2279.5802681264468,left,1,4,0.735400793608278,H12S02,2023-01-09_09h21.46.005,t1_Paradigm,2021.1.4,59.9865678786285,
T,left,Distractor,0,24,24,24,2281.080013730563,2283.0796178611927,left,1,4,1.1560857696458697,H12S02,2023-01-09_09h21.46.005,t1_Paradigm,2021.1.4,59.9865678786285,
F,left,Distractor,0,25,25,25,2284.5797808282077,2286.5800843066536,None,0,4,,H12S02,2023-01-09_09h21.46.005,t1_Paradigm,2021.1.4,59.9865678786285,
V,left,Distractor,0,26,26,26,2288.079676247202,2290.081705318298,left,1,4,0.63401332590729,H12S02,2023-01-09_09h21.46.005,t1_Paradigm,2021.1.4,59.9865678786285,
L,right,Target,0,27,27,27,2291.5799996154383,2293.580000256654,right,1,4,1.0716392006725073,H12S02,2023-01-09_09h21.46.005,t1_Paradigm,2021.1.4,59.9865678786285,
S,left,Pretarget,0,28,28,28,2295.0795662119053,2297.080024958588,left,1,4,0.7397223138250411,H12S02,2023-01-09_09h21.46.005,t1_Paradigm,2021.1.4,59.9865678786285,
W,left,Distractor,0,29,29,29,2298.5800650585443,2300.580071474891,left,1,4,0.5835441537201405,H12S02,2023-01-09_09h21.46.005,t1_Paradigm,2021.1.4,59.9865678786285,
Q,left,Distractor,0,30,30,30,2302.0795164876617,2304.08207135275,left,1,4,0.5213775867596269,H12S02,2023-01-09_09h21.46.005,t1_Paradigm,2021.1.4,59.9865678786285,
L,right,Target,0,31,31,31,2305.5800788532943,2307.581290521659,right,1,4,0.7025522985495627,H12S02,2023-01-09_09h21.46.005,t1_Paradigm,2021.1.4,59.9865678786285,
S,right,Target,0,32,32,32,2309.079652186949,2311.080537599977,right,1,4,0.6432347726076841,H12S02,2023-01-09_09h21.46.005,t1_Paradigm,2021.1.4,59.9865678786285,
Z,left,Pretarget,0,33,33,33,2312.579733029008,2314.581765308045,left,1,4,0.5019883289933205,H12S02,2023-01-09_09h21.46.005,t1_Paradigm,2021.1.4,59.9865678786285,
F,left,Distractor,0,34,34,34,2316.0800981014036,2318.081894590985,left,1,4,0.5375742255710065,H12S02,2023-01-09_09h21.46.005,t1_Paradigm,2021.1.4,59.9865678786285,
V,left,Distractor,0,35,35,35,2319.579500127118,2321.5817993129604,left,1,4,0.8620119402185082,H12S02,2023-01-09_09h21.46.005,t1_Paradigm,2021.1.4,59.9865678786285,
M,left,Distractor,0,36,36,36,2323.0799633646384,2325.0814698496833,left,1,4,0.5944405058398843,H12S02,2023-01-09_09h21.46.005,t1_Paradigm,2021.1.4,59.9865678786285,
Z,right,Target,0,37,37,37,2326.5799752343446,2328.581654310692,left,0,4,0.8060875339433551,H12S02,2023-01-09_09h21.46.005,t1_Paradigm,2021.1.4,59.9865678786285,
H,left,Pretarget,0,38,38,38,2330.080269088503,2332.0818734182976,left,1,4,0.6496418248862028,H12S02,2023-01-09_09h21.46.005,t1_Paradigm,2021.1.4,59.9865678786285,
L,left,Distractor,0,39,39,39,2333.579679134302,2335.580303093884,left,1,4,1.0713463085703552,H12S02,2023-01-09_09h21.46.005,t1_Paradigm,2021.1.4,59.9865678786285,
G,left,Distractor,0,40,40,40,2337.0799046577886,2339.0815712232143,left,1,4,0.7221641931682825,H12S02,2023-01-09_09h21.46.005,t1_Paradigm,2021.1.4,59.9865678786285,
K,left,Distractor,0,41,41,41,2340.5796656603925,2342.580697038211,left,1,4,0.4869282911531627,H12S02,2023-01-09_09h21.46.005,t1_Paradigm,2021.1.4,59.9865678786285,
H,right,Target,0,42,42,42,2344.0797157054767,2346.0802405374125,left,0,4,0.6034255214035511,H12S02,2023-01-09_09h21.46.005,t1_Paradigm,2021.1.4,59.9865678786285,
B,left,Distractor,0,43,43,43,2347.579871615395,2349.57999255741,left,1,4,0.5757204405963421,H12S02,2023-01-09_09h21.46.005,t1_Paradigm,2021.1.4,59.9865678786285,
Z,left,Distractor,0,44,44,44,2351.0794561770745,2353.0822038440965,left,1,4,0.9456144794821739,H12S02,2023-01-09_09h21.46.005,t1_Paradigm,2021.1.4,59.9865678786285,
T,left,Pretarget,0,45,45,45,2354.5794786331244,2356.5815237443894,left,1,4,0.6622454836033285,H12S02,2023-01-09_09h21.46.005,t1_Paradigm,2021.1.4,59.9865678786285,
H,right,Target,0,46,46,46,2358.0800422816537,2360.0810714140534,right,1,4,1.0345631805248559,H12S02,2023-01-09_09h21.46.005,t1_Paradigm,2021.1.4,59.9865678786285,
F,left,Distractor,0,47,47,47,2361.5797647885047,2363.5823305607773,left,1,4,0.5893760086037219,H12S02,2023-01-09_09h21.46.005,t1_Paradigm,2021.1.4,59.9865678786285,
R,left,Distractor,0,48,48,48,2365.079864236992,2367.0798542918637,left,1,4,0.563926484901458,H12S02,2023-01-09_09h21.46.005,t1_Paradigm,2021.1.4,59.9865678786285,
T,right,Target,0,49,49,49,2368.579935133923,2370.5927110635675,left,0,4,0.6190447164699435,H12S02,2023-01-09_09h21.46.005,t1_Paradigm,2021.1.4,59.9865678786285,
H,right,Target,0,50,50,50,2372.0796451293863,2374.0802722969092,right,1,4,0.47516513289883733,H12S02,2023-01-09_09h21.46.005,t1_Paradigm,2021.1.4,59.9865678786285,
Y,left,Pretarget,0,51,51,51,2375.5795206581242,2377.5815462004393,left,1,4,1.0058918450959027,H12S02,2023-01-09_09h21.46.005,t1_Paradigm,2021.1.4,59.9865678786285,
H,left,Distractor,0,52,52,52,2379.079946041107,2381.0818028417416,left,1,4,0.9459487553685904,H12S02,2023-01-09_09h21.46.005,t1_Paradigm,2021.1.4,59.9865678786285,
S,left,Distractor,0,53,53,53,2382.579682021402,2384.5799168483354,left,1,4,0.85576560953632,H12S02,2023-01-09_09h21.46.005,t1_Paradigm,2021.1.4,59.9865678786285,
Q,left,Distractor,0,54,54,54,2386.07989952527,2388.080503594596,left,1,4,0.9871348878368735,H12S02,2023-01-09_09h21.46.005,t1_Paradigm,2021.1.4,59.9865678786285,
Y,right,Target,0,55,55,55,2389.5799447582103,2391.580386823043,right,1,4,1.3753447816707194,H12S02,2023-01-09_09h21.46.005,t1_Paradigm,2021.1.4,59.9865678786285,
R,left,Distractor,0,56,56,56,2393.0796252395958,2395.0806007976644,left,1,4,0.7230804027058184,H12S02,2023-01-09_09h21.46.005,t1_Paradigm,2021.1.4,59.9865678786285,
H,left,Pretarget,0,57,57,57,2396.579524507746,2398.5962042738684,left,1,4,1.2553873839788139,H12S02,2023-01-09_09h21.46.005,t1_Paradigm,2021.1.4,59.9865678786285,
J,left,Distractor,0,58,58,58,2400.0796011793427,2402.080159053672,left,1,4,0.7316788518801332,H12S02,2023-01-09_09h21.46.005,t1_Paradigm,2021.1.4,59.9865678786285,
V,left,Distractor,0,59,59,59,2403.579887334723,2405.579994482454,left,1,4,0.8318078140728176,H12S02,2023-01-09_09h21.46.005,t1_Paradigm,2021.1.4,59.9865678786285,
Y,left,Lure,0,60,60,60,2407.0799344922416,2409.079666943755,left,1,4,0.8042057109996676,H12S02,2023-01-09_09h21.46.005,t1_Paradigm,2021.1.4,59.9865678786285,
H,right,Target,0,61,61,61,2410.5800191839226,2412.58150160918,right,1,4,0.8381478190422058,H12S02,2023-01-09_09h21.46.005,t1_Paradigm,2021.1.4,59.9865678786285,
L,left,Distractor,0,62,62,62,2414.0798934297636,2416.081634741742,left,1,4,0.8741035996936262,H12S02,2023-01-09_09h21.46.005,t1_Paradigm,2021.1.4,59.9865678786285,
P,left,Distractor,0,63,63,63,2417.5798440263607,2419.581888816785,left,1,4,0.5418505128473043,H12S02,2023-01-09_09h21.46.005,t1_Paradigm,2021.1.4,59.9865678786285,
