Letter,CorrAnswer,Stimulus,nback_run.thisRepN,nback_run.thisTrialN,nback_run.thisN,nback_run.thisIndex,fixcross.started,nback_trial.started,trial_resp.keys,trial_resp.corr,currentlevel,trial_resp.rt,Participant,date,expName,psychopyVersion,frameRate,
H,left,Distractor,0,0,0,0,182.2362140084042,184.18497131707954,None,0,1,,H12S10,2023-01-13_13h35.09.603,t1_Paradigm,2021.1.4,59.972872408365404,
Q,left,Pretarget,0,1,1,1,185.6835597875779,187.68697536816762,left,1,1,0.4763058733096841,H12S10,2023-01-13_13h35.09.603,t1_Paradigm,2021.1.4,59.972872408365404,
Q,right,Target,0,2,2,2,189.18364897057836,191.18362458961383,left,0,1,0.5475839426962921,H12S10,2023-01-13_13h35.09.603,t1_Paradigm,2021.1.4,59.972872408365404,
T,left,Distractor,0,3,3,3,192.68360694549483,194.68557314192913,left,1,1,0.5655366731407412,H12S10,2023-01-13_13h35.09.603,t1_Paradigm,2021.1.4,59.972872408365404,
Q,left,Lure,0,4,4,4,196.18367399314593,198.1857017835955,left,1,1,1.2575492768155527,H12S10,2023-01-13_13h35.09.603,t1_Paradigm,2021.1.4,59.972872408365404,
L,left,Distractor,0,5,5,5,199.68266410794786,201.685321312234,left,1,1,0.925922610969792,H12S10,2023-01-13_13h35.09.603,t1_Paradigm,2021.1.4,59.972872408365404,
V,left,Pretarget,0,6,6,6,203.18369163726493,205.18607776372664,left,1,1,0.529178239603425,H12S10,2023-01-13_13h35.09.603,t1_Paradigm,2021.1.4,59.972872408365404,
V,right,Target,0,7,7,7,206.68341863462774,208.68355497554512,right,1,1,0.423549637396718,H12S10,2023-01-13_13h35.09.603,t1_Paradigm,2021.1.4,59.972872408365404,
K,left,Distractor,0,8,8,8,210.18354118105162,212.18562864070373,left,1,1,0.4095985930889583,H12S10,2023-01-13_13h35.09.603,t1_Paradigm,2021.1.4,59.972872408365404,
G,left,Pretarget,0,9,9,9,213.68352514094477,215.68542332732068,left,1,1,0.47788806955941254,H12S10,2023-01-13_13h35.09.603,t1_Paradigm,2021.1.4,59.972872408365404,
G,right,Target,0,10,10,10,217.18366757710282,219.18361817357072,right,1,1,0.3714982038291055,H12S10,2023-01-13_13h35.09.603,t1_Paradigm,2021.1.4,59.972872408365404,
G,right,Target,0,11,11,11,220.68365442421418,222.68346322612706,right,1,1,0.3917344040419266,H12S10,2023-01-13_13h35.09.603,t1_Paradigm,2021.1.4,59.972872408365404,
P,left,Pretarget,0,12,12,12,224.18360309586933,226.1861922900971,left,1,1,0.3930577129503945,H12S10,2023-01-13_13h35.09.603,t1_Paradigm,2021.1.4,59.972872408365404,
P,right,Target,0,13,13,13,227.68364159212797,229.68346932136774,right,1,1,0.36758345507769263,H12S10,2023-01-13_13h35.09.603,t1_Paradigm,2021.1.4,59.972872408365404,
G,left,Lure,0,14,14,14,231.1837673465743,233.1845170612214,left,1,1,0.4025531360657624,H12S10,2023-01-13_13h35.09.603,t1_Paradigm,2021.1.4,59.972872408365404,
Y,left,Distractor,0,15,15,15,234.68379012352852,236.68508263542753,left,1,1,0.3741643905759702,H12S10,2023-01-13_13h35.09.603,t1_Paradigm,2021.1.4,59.972872408365404,
B,left,Distractor,0,16,16,16,238.1835091008361,240.1854335929911,left,1,1,0.409612387582456,H12S10,2023-01-13_13h35.09.603,t1_Paradigm,2021.1.4,59.972872408365404,
T,left,Pretarget,0,17,17,17,241.68371377261428,243.6850101341406,left,1,1,0.44626756311663485,H12S10,2023-01-13_13h35.09.603,t1_Paradigm,2021.1.4,59.972872408365404,
T,right,Target,0,18,18,18,245.2003008482643,247.18367559715625,right,1,1,0.37145714115285955,H12S10,2023-01-13_13h35.09.603,t1_Paradigm,2021.1.4,59.972872408365404,
S,left,Distractor,0,19,19,19,248.68358737656308,250.68669081665394,left,1,1,0.5163647597546515,H12S10,2023-01-13_13h35.09.603,t1_Paradigm,2021.1.4,59.972872408365404,
T,left,Lure,0,20,20,20,252.18357679009205,254.18530110169922,left,1,1,0.5857815350118472,H12S10,2023-01-13_13h35.09.603,t1_Paradigm,2021.1.4,59.972872408365404,
J,left,Distractor,0,21,21,21,255.68350236399056,257.6859872975183,left,1,1,0.4132852515067498,H12S10,2023-01-13_13h35.09.603,t1_Paradigm,2021.1.4,59.972872408365404,
P,left,Distractor,0,22,22,22,259.1837140934167,261.1854489914949,left,1,1,0.4176642009806528,H12S10,2023-01-13_13h35.09.603,t1_Paradigm,2021.1.4,59.972872408365404,
F,left,Distractor,0,23,23,23,262.68378787791335,264.6854573323508,left,1,1,0.38974510985281086,H12S10,2023-01-13_13h35.09.603,t1_Paradigm,2021.1.4,59.972872408365404,
L,left,Distractor,0,24,24,24,266.1836775219708,268.18592762831577,left,1,1,0.39322003884262813,H12S10,2023-01-13_13h35.09.603,t1_Paradigm,2021.1.4,59.972872408365404,
W,left,Pretarget,0,25,25,25,269.68340997296946,271.68565045525065,left,1,1,0.41353611879458185,H12S10,2023-01-13_13h35.09.603,t1_Paradigm,2021.1.4,59.972872408365404,
W,right,Target,0,26,26,26,273.1836217023938,275.1836024542645,right,1,1,0.3875482566636492,H12S10,2023-01-13_13h35.09.603,t1_Paradigm,2021.1.4,59.972872408365404,
V,left,Distractor,0,27,27,27,276.6836229856035,278.6857672272363,left,1,1,0.43737492725813354,H12S10,2023-01-13_13h35.09.603,t1_Paradigm,2021.1.4,59.972872408365404,
W,left,Lure,0,28,28,28,280.1835790357072,282.1854980742246,left,1,1,0.48977571437717415,H12S10,2023-01-13_13h35.09.603,t1_Paradigm,2021.1.4,59.972872408365404,
R,left,Pretarget,0,29,29,29,283.68354631388684,285.6865352276054,left,1,1,0.3646118646756804,H12S10,2023-01-13_13h35.09.603,t1_Paradigm,2021.1.4,59.972872408365404,
R,right,Target,0,30,30,30,287.1832980130148,289.1834885694989,left,0,1,0.41986458299106744,H12S10,2023-01-13_13h35.09.603,t1_Paradigm,2021.1.4,59.972872408365404,
G,left,Distractor,0,31,31,31,290.6835610707858,292.6849578433885,left,1,1,0.39036137080074695,H12S10,2023-01-13_13h35.09.603,t1_Paradigm,2021.1.4,59.972872408365404,
R,left,Lure,0,32,32,32,294.1836104743179,296.185232450036,left,1,1,0.42600505712653103,H12S10,2023-01-13_13h35.09.603,t1_Paradigm,2021.1.4,59.972872408365404,
S,left,Distractor,0,33,33,33,297.68358224372787,299.68576305680836,left,1,1,0.39779146961336664,H12S10,2023-01-13_13h35.09.603,t1_Paradigm,2021.1.4,59.972872408365404,
R,left,Lure,0,34,34,34,301.1836986949129,303.18561260059505,left,1,1,0.5935196038990398,H12S10,2023-01-13_13h35.09.603,t1_Paradigm,2021.1.4,59.972872408365404,
P,left,Pretarget,0,35,35,35,304.6836473665662,306.685121131688,left,1,1,0.48600757221356616,H12S10,2023-01-13_13h35.09.603,t1_Paradigm,2021.1.4,59.972872408365404,
P,right,Target,0,36,36,36,308.1836887500449,310.18357069485137,right,1,1,0.4118538322709355,H12S10,2023-01-13_13h35.09.603,t1_Paradigm,2021.1.4,59.972872408365404,
Y,left,Pretarget,0,37,37,37,311.68356684522587,313.6859821646831,left,1,1,0.41321210861315194,H12S10,2023-01-13_13h35.09.603,t1_Paradigm,2021.1.4,59.972872408365404,
Y,right,Target,0,38,38,38,315.1836531410063,317.18364768736865,right,1,1,0.3554860056465259,H12S10,2023-01-13_13h35.09.603,t1_Paradigm,2021.1.4,59.972872408365404,
J,left,Distractor,0,39,39,39,318.6836922788698,320.68379044433095,left,1,1,0.45535268027015263,H12S10,2023-01-13_13h35.09.603,t1_Paradigm,2021.1.4,59.972872408365404,
Y,left,Lure,0,40,40,40,322.1836999781208,324.18548010930317,left,1,1,0.3618969160015695,H12S10,2023-01-13_13h35.09.603,t1_Paradigm,2021.1.4,59.972872408365404,
T,left,Distractor,0,41,41,41,325.6836053414845,327.68480738717517,left,1,1,0.4785107465504552,H12S10,2023-01-13_13h35.09.603,t1_Paradigm,2021.1.4,59.972872408365404,
V,left,Distractor,0,42,42,42,329.18364640416075,331.18465308133636,left,1,1,0.4025079029615881,H12S10,2023-01-13_13h35.09.603,t1_Paradigm,2021.1.4,59.972872408365404,
N,left,Pretarget,0,43,43,43,332.68369067485764,334.68586058066467,left,1,1,0.4692556042537035,H12S10,2023-01-13_13h35.09.603,t1_Paradigm,2021.1.4,59.972872408365404,
N,right,Target,0,44,44,44,336.18368457961697,338.1835796773121,right,1,1,0.39553687203806476,H12S10,2023-01-13_13h35.09.603,t1_Paradigm,2021.1.4,59.972872408365404,
N,right,Target,0,45,45,45,339.6836977325056,341.6837035069457,right,1,1,0.3834381393990043,H12S10,2023-01-13_13h35.09.603,t1_Paradigm,2021.1.4,59.972872408365404,
X,left,Distractor,0,46,46,46,343.18369035405703,345.18555710182227,left,1,1,0.4177091132823989,H12S10,2023-01-13_13h35.09.603,t1_Paradigm,2021.1.4,59.972872408365404,
Z,left,Distractor,0,47,47,47,346.68353508581095,348.68565655049133,right,0,1,0.5654616054362123,H12S10,2023-01-13_13h35.09.603,t1_Paradigm,2021.1.4,59.972872408365404,
H,left,Pretarget,0,48,48,48,350.183563316401,352.1851679688025,left,1,1,0.4100701722654776,H12S10,2023-01-13_13h35.09.603,t1_Paradigm,2021.1.4,59.972872408365404,
H,right,Target,0,49,49,49,353.6836977325056,355.6835671660265,right,1,1,0.415685493262572,H12S10,2023-01-13_13h35.09.603,t1_Paradigm,2021.1.4,59.972872408365404,
K,left,Distractor,0,50,50,50,357.1836024542645,359.1853299738923,left,1,1,0.7219315754664422,H12S10,2023-01-13_13h35.09.603,t1_Paradigm,2021.1.4,59.972872408365404,
V,left,Pretarget,0,51,51,51,360.6835597875779,362.68549743261974,left,1,1,0.6140814183054317,H12S10,2023-01-13_13h35.09.603,t1_Paradigm,2021.1.4,59.972872408365404,
V,right,Target,0,52,52,52,364.1834664341495,366.1836178527683,right,1,1,0.3797562930158165,H12S10,2023-01-13_13h35.09.603,t1_Paradigm,2021.1.4,59.972872408365404,
R,left,Distractor,0,53,53,53,367.6836900332546,369.6854390466269,left,1,1,0.41391274053057714,H12S10,2023-01-13_13h35.09.603,t1_Paradigm,2021.1.4,59.972872408365404,
V,left,Lure,0,54,54,54,371.18364640416075,373.1852950064567,left,1,1,0.46584964772591775,H12S10,2023-01-13_13h35.09.603,t1_Paradigm,2021.1.4,59.972872408365404,
Y,left,Distractor,0,55,55,55,374.68367174753075,376.68600397923,left,1,1,0.5171439881996776,H12S10,2023-01-13_13h35.09.603,t1_Paradigm,2021.1.4,59.972872408365404,
Q,left,Distractor,0,56,56,56,378.1829592459344,380.1859632373562,left,1,1,0.3935337833554513,H12S10,2023-01-13_13h35.09.603,t1_Paradigm,2021.1.4,59.972872408365404,
Z,left,Pretarget,0,57,57,57,381.68346675495195,383.6860848213746,left,1,1,0.4452557531058119,H12S10,2023-01-13_13h35.09.603,t1_Paradigm,2021.1.4,59.972872408365404,
Z,right,Target,0,58,58,58,385.18370190293354,387.18367655956354,right,1,1,0.49978410014773544,H12S10,2023-01-13_13h35.09.603,t1_Paradigm,2021.1.4,59.972872408365404,
B,left,Distractor,0,59,59,59,388.6836053414845,390.6850354775106,left,1,1,0.4221435615327209,H12S10,2023-01-13_13h35.09.603,t1_Paradigm,2021.1.4,59.972872408365404,
S,left,Pretarget,0,60,60,60,392.1836242688114,394.1857280893728,left,1,1,0.4414969142035261,H12S10,2023-01-13_13h35.09.603,t1_Paradigm,2021.1.4,59.972872408365404,
S,right,Target,0,61,61,61,395.6836403089201,397.6837378327764,right,1,1,0.38341407923689985,H12S10,2023-01-13_13h35.09.603,t1_Paradigm,2021.1.4,59.972872408365404,
T,left,Distractor,0,62,62,62,399.1835610707858,401.1856546256786,left,1,1,0.38553297749967896,H12S10,2023-01-13_13h35.09.603,t1_Paradigm,2021.1.4,59.972872408365404,
D,left,Distractor,0,63,63,63,402.68342890029635,404.6853803398317,left,1,1,0.4219013559031737,H12S10,2023-01-13_13h35.09.603,t1_Paradigm,2021.1.4,59.972872408365404,
R,left,Distractor,0,0,0,0,418.82743891445716,420.81601354555096,None,0,1,,H12S10,2023-01-13_13h35.09.603,t1_Paradigm,2021.1.4,59.972872408365404,
V,left,Distractor,0,1,1,1,422.31706032299553,424.31874196791614,left,1,1,0.420497846454964,H12S10,2023-01-13_13h35.09.603,t1_Paradigm,2021.1.4,59.972872408365404,
N,left,Pretarget,0,2,2,2,425.81707187187385,427.8187464591465,left,1,1,0.5363959673886711,H12S10,2023-01-13_13h35.09.603,t1_Paradigm,2021.1.4,59.972872408365404,
N,right,Target,0,3,3,3,429.3167815459201,431.31688997704987,right,1,1,0.3985216153287183,H12S10,2023-01-13_13h35.09.603,t1_Paradigm,2021.1.4,59.972872408365404,
S,left,Distractor,0,4,4,4,432.81673438800317,434.8177070601505,left,1,1,0.40132414299296215,H12S10,2023-01-13_13h35.09.603,t1_Paradigm,2021.1.4,59.972872408365404,
N,left,Lure,0,5,5,5,436.3171203130005,438.31778469427263,left,1,1,0.5173592464489047,H12S10,2023-01-13_13h35.09.603,t1_Paradigm,2021.1.4,59.972872408365404,
Z,left,Distractor,0,6,6,6,439.81706417262285,441.81843239383124,left,1,1,0.42472313169673725,H12S10,2023-01-13_13h35.09.603,t1_Paradigm,2021.1.4,59.972872408365404,
L,left,Pretarget,0,7,7,7,443.3170677014459,445.3331078094143,left,1,1,0.4619653751815349,H12S10,2023-01-13_13h35.09.603,t1_Paradigm,2021.1.4,59.972872408365404,
L,right,Target,0,8,8,8,446.8169133956071,448.81677737549217,right,1,1,0.38634781498512893,H12S10,2023-01-13_13h35.09.603,t1_Paradigm,2021.1.4,59.972872408365404,
H,left,Distractor,0,9,9,9,450.3169589495137,452.3187342686633,left,1,1,0.40453922223423433,H12S10,2023-01-13_13h35.09.603,t1_Paradigm,2021.1.4,59.972872408365404,
L,left,Lure,0,10,10,10,453.8170093154531,455.816092462881,left,1,1,0.6993333089521911,H12S10,2023-01-13_13h35.09.603,t1_Paradigm,2021.1.4,59.972872408365404,
X,left,Pretarget,0,11,11,11,457.31688708982983,459.3190528252089,left,1,1,0.46029014630403253,H12S10,2023-01-13_13h35.09.603,t1_Paradigm,2021.1.4,59.972872408365404,
X,right,Target,0,12,12,12,460.8170715510714,462.8170128442762,right,1,1,0.417986927954189,H12S10,2023-01-13_13h35.09.603,t1_Paradigm,2021.1.4,59.972872408365404,
X,right,Target,0,13,13,13,464.31708823278495,466.31675459853795,right,1,1,0.4064977194175299,H12S10,2023-01-13_13h35.09.603,t1_Paradigm,2021.1.4,59.972872408365404,
R,left,Distractor,0,14,14,14,467.817106518507,469.8184179577347,left,1,1,0.4247606655480922,H12S10,2023-01-13_13h35.09.603,t1_Paradigm,2021.1.4,59.972872408365404,
T,left,Distractor,0,15,15,15,471.3169611951289,473.31765091977104,left,1,1,0.44570038489837316,H12S10,2023-01-13_13h35.09.603,t1_Paradigm,2021.1.4,59.972872408365404,
V,left,Pretarget,0,16,16,16,474.8170179771114,476.8184673612668,left,1,1,0.44859851160617836,H12S10,2023-01-13_13h35.09.603,t1_Paradigm,2021.1.4,59.972872408365404,
V,right,Target,0,17,17,17,478.3167943780063,480.3166628491217,right,1,1,0.35865488937815826,H12S10,2023-01-13_13h35.09.603,t1_Paradigm,2021.1.4,59.972872408365404,
N,left,Distractor,0,18,18,18,481.81701348588103,483.8190611660648,left,1,1,0.4238938581147522,H12S10,2023-01-13_13h35.09.603,t1_Paradigm,2021.1.4,59.972872408365404,
B,left,Distractor,0,19,19,19,485.317109405727,487.3180801530616,left,1,1,0.46145145012269495,H12S10,2023-01-13_13h35.09.603,t1_Paradigm,2021.1.4,59.972872408365404,
V,left,Lure,0,20,20,20,488.8166952501397,490.81939447950754,left,1,1,0.5758828635825921,H12S10,2023-01-13_13h35.09.603,t1_Paradigm,2021.1.4,59.972872408365404,
P,left,Distractor,0,21,21,21,492.3171052352991,494.3186566345412,left,1,1,0.38862839753528533,H12S10,2023-01-13_13h35.09.603,t1_Paradigm,2021.1.4,59.972872408365404,
K,left,Pretarget,0,22,22,22,495.81674208725417,497.81877148171407,left,1,1,0.39248796831634536,H12S10,2023-01-13_13h35.09.603,t1_Paradigm,2021.1.4,59.972872408365404,
K,right,Target,0,23,23,23,499.3168915810602,501.31683062864977,right,1,1,0.39860085346299456,H12S10,2023-01-13_13h35.09.603,t1_Paradigm,2021.1.4,59.972872408365404,
J,left,Pretarget,0,24,24,24,502.81703658363585,504.81886098551695,left,1,1,0.40014070382676437,H12S10,2023-01-13_13h35.09.603,t1_Paradigm,2021.1.4,59.972872408365404,
J,right,Target,0,25,25,25,506.31669107971175,508.3171219170108,right,1,1,0.3902025737315853,H12S10,2023-01-13_13h35.09.603,t1_Paradigm,2021.1.4,59.972872408365404,
H,left,Distractor,0,26,26,26,509.81706032299553,511.8189107098515,left,1,1,0.4403356103866827,H12S10,2023-01-13_13h35.09.603,t1_Paradigm,2021.1.4,59.972872408365404,
J,left,Lure,0,27,27,27,513.3169990497845,515.3185815668367,left,1,1,0.39679987013914797,H12S10,2023-01-13_13h35.09.603,t1_Paradigm,2021.1.4,59.972872408365404,
V,left,Distractor,0,28,28,28,516.8169878217086,518.8184064088564,left,1,1,0.43269378214972676,H12S10,2023-01-13_13h35.09.603,t1_Paradigm,2021.1.4,59.972872408365404,
Z,left,Pretarget,0,29,29,29,520.3169425886044,522.318643802455,left,1,1,0.40454660068280646,H12S10,2023-01-13_13h35.09.603,t1_Paradigm,2021.1.4,59.972872408365404,
Z,right,Target,0,30,30,30,523.8168633504702,525.8169573455034,right,1,1,0.3622267006212496,H12S10,2023-01-13_13h35.09.603,t1_Paradigm,2021.1.4,59.972872408365404,
T,left,Distractor,0,31,31,31,527.317149505996,529.3185000830872,left,1,1,0.3809435818075144,H12S10,2023-01-13_13h35.09.603,t1_Paradigm,2021.1.4,59.972872408365404,
Z,left,Lure,0,32,32,32,530.8170786087194,532.8176736967253,right,0,1,0.48208608661843755,H12S10,2023-01-13_13h35.09.603,t1_Paradigm,2021.1.4,59.972872408365404,
F,left,Distractor,0,33,33,33,534.3170946488281,536.3169772352376,left,1,1,0.5664888139490358,H12S10,2023-01-13_13h35.09.603,t1_Paradigm,2021.1.4,59.972872408365404,
Y,left,Pretarget,0,34,34,34,537.8170869495752,539.8180477520436,left,1,1,0.45716296685532143,H12S10,2023-01-13_13h35.09.603,t1_Paradigm,2021.1.4,59.972872408365404,
Y,right,Target,0,35,35,35,541.3169249444854,543.316992954542,right,1,1,0.7021903729837504,H12S10,2023-01-13_13h35.09.603,t1_Paradigm,2021.1.4,59.972872408365404,
Y,right,Target,0,36,36,36,544.8169502878554,546.8170721926763,right,1,1,0.4500392341033148,H12S10,2023-01-13_13h35.09.603,t1_Paradigm,2021.1.4,59.972872408365404,
W,left,Distractor,0,37,37,37,548.3170779671145,550.3167209143121,left,1,1,0.4065836943973409,H12S10,2023-01-13_13h35.09.603,t1_Paradigm,2021.1.4,59.972872408365404,
Q,left,Distractor,0,38,38,38,551.8166670195496,553.8190181785758,left,1,1,0.48827468107447203,H12S10,2023-01-13_13h35.09.603,t1_Paradigm,2021.1.4,59.972872408365404,
P,left,Pretarget,0,39,39,39,555.3167991900391,557.3173028494293,left,1,1,0.41410169300070265,H12S10,2023-01-13_13h35.09.603,t1_Paradigm,2021.1.4,59.972872408365404,
P,right,Target,0,40,40,40,558.8167254055425,560.8168793905788,right,1,1,0.4181454042209225,H12S10,2023-01-13_13h35.09.603,t1_Paradigm,2021.1.4,59.972872408365404,
J,left,Distractor,0,41,41,41,562.3171286538563,564.3171222378132,left,1,1,0.4062025814309891,H12S10,2023-01-13_13h35.09.603,t1_Paradigm,2021.1.4,59.972872408365404,
P,left,Lure,0,42,42,42,565.8169432302075,567.8192420984815,left,1,1,0.3918986547469103,H12S10,2023-01-13_13h35.09.603,t1_Paradigm,2021.1.4,59.972872408365404,
L,left,Distractor,0,43,43,43,569.3170583981828,571.3186890355591,left,1,1,0.42865584536775714,H12S10,2023-01-13_13h35.09.603,t1_Paradigm,2021.1.4,59.972872408365404,
Z,left,Distractor,0,44,44,44,572.8167629393938,574.819208735058,left,1,1,0.4319540123688057,H12S10,2023-01-13_13h35.09.603,t1_Paradigm,2021.1.4,59.972872408365404,
F,left,Pretarget,0,45,45,45,576.3170064282331,578.3184246945802,left,1,1,0.43692580423521576,H12S10,2023-01-13_13h35.09.603,t1_Paradigm,2021.1.4,59.972872408365404,
F,right,Target,0,46,46,46,579.8167122526538,581.8171549596336,right,1,1,0.37813399649712665,H12S10,2023-01-13_13h35.09.603,t1_Paradigm,2021.1.4,59.972872408365404,
G,left,Pretarget,0,47,47,47,583.3170593605901,585.3171610548743,left,1,1,0.43034454793451005,H12S10,2023-01-13_13h35.09.603,t1_Paradigm,2021.1.4,59.972872408365404,
G,right,Target,0,48,48,48,586.8160985581217,588.8169708191945,right,1,1,0.35431860659082304,H12S10,2023-01-13_13h35.09.603,t1_Paradigm,2021.1.4,59.972872408365404,
V,left,Distractor,0,49,49,49,590.3168508391864,592.318494308649,left,1,1,0.3888330693134776,H12S10,2023-01-13_13h35.09.603,t1_Paradigm,2021.1.4,59.972872408365404,
G,left,Lure,0,50,50,50,593.8170792503242,595.8297929607015,left,1,1,0.3654247773483803,H12S10,2023-01-13_13h35.09.603,t1_Paradigm,2021.1.4,59.972872408365404,
Q,left,Pretarget,0,51,51,51,597.3170080322452,599.3174895562861,left,1,1,0.5099390925024636,H12S10,2023-01-13_13h35.09.603,t1_Paradigm,2021.1.4,59.972872408365404,
Q,right,Target,0,52,52,52,600.8171132553525,602.8171366739098,right,1,1,0.4661069310586754,H12S10,2023-01-13_13h35.09.603,t1_Paradigm,2021.1.4,59.972872408365404,
Y,left,Distractor,0,53,53,53,604.3170285635824,606.3179524738007,left,1,1,0.4693720554369065,H12S10,2023-01-13_13h35.09.603,t1_Paradigm,2021.1.4,59.972872408365404,
V,left,Distractor,0,54,54,54,607.8168142677405,609.8185084239431,left,1,1,0.47278924003876455,H12S10,2023-01-13_13h35.09.603,t1_Paradigm,2021.1.4,59.972872408365404,
B,left,Distractor,0,55,55,55,611.3167507489125,613.3187499879696,left,1,1,0.49249707909621065,H12S10,2023-01-13_13h35.09.603,t1_Paradigm,2021.1.4,59.972872408365404,
J,left,Pretarget,0,56,56,56,614.816970498392,616.8188295469045,left,1,1,0.40032965629870887,H12S10,2023-01-13_13h35.09.603,t1_Paradigm,2021.1.4,59.972872408365404,
J,right,Target,0,57,57,57,618.3171190297908,620.3169008843233,right,1,1,0.4064402958319988,H12S10,2023-01-13_13h35.09.603,t1_Paradigm,2021.1.4,59.972872408365404,
H,left,Distractor,0,58,58,58,621.816967611172,623.8191673515794,left,1,1,0.4880536483851756,H12S10,2023-01-13_13h35.09.603,t1_Paradigm,2021.1.4,59.972872408365404,
J,left,Lure,0,59,59,59,625.3166811348437,627.3194400334141,left,1,1,0.8604266797028686,H12S10,2023-01-13_13h35.09.603,t1_Paradigm,2021.1.4,59.972872408365404,
D,left,Pretarget,0,60,60,60,628.8168133053332,630.8188606647145,left,1,1,0.41631266148397117,H12S10,2023-01-13_13h35.09.603,t1_Paradigm,2021.1.4,59.972872408365404,
D,right,Target,0,61,61,61,632.317038187648,634.3169996913875,right,1,1,0.37440435059033916,H12S10,2023-01-13_13h35.09.603,t1_Paradigm,2021.1.4,59.972872408365404,
R,left,Distractor,0,62,62,62,635.8170972152438,637.8185081031424,left,1,1,0.44083862817205954,H12S10,2023-01-13_13h35.09.603,t1_Paradigm,2021.1.4,59.972872408365404,
F,left,Distractor,0,63,63,63,639.3170818167418,641.3175229197095,left,1,1,0.6217463442990265,H12S10,2023-01-13_13h35.09.603,t1_Paradigm,2021.1.4,59.972872408365404,
F,left,Distractor,0,0,0,0,713.0137072346661,715.0167580632024,None,0,2,,H12S10,2023-01-13_13h35.09.603,t1_Paradigm,2021.1.4,59.972872408365404,
N,left,Pretarget,0,1,1,1,716.5171160784121,718.5171045295338,None,0,2,,H12S10,2023-01-13_13h35.09.603,t1_Paradigm,2021.1.4,59.972872408365404,
V,left,Distractor,0,2,2,2,720.0171718979873,722.0185834274889,left,1,2,0.5767772600047465,H12S10,2023-01-13_13h35.09.603,t1_Paradigm,2021.1.4,59.972872408365404,
N,right,Target,0,3,3,3,723.5171022839186,725.5172328503977,right,1,2,0.4540742836652498,H12S10,2023-01-13_13h35.09.603,t1_Paradigm,2021.1.4,59.972872408365404,
N,left,Lure,0,4,4,4,727.0170573716168,729.0171446298045,left,1,2,0.8583004029915173,H12S10,2023-01-13_13h35.09.603,t1_Paradigm,2021.1.4,59.972872408365404,
X,left,Distractor,0,5,5,5,730.5171074167538,732.5185131718154,left,1,2,0.8608924844393187,H12S10,2023-01-13_13h35.09.603,t1_Paradigm,2021.1.4,59.972872408365404,
G,left,Pretarget,0,6,6,6,734.017160349109,736.0185147758257,left,1,2,0.5767965081340662,H12S10,2023-01-13_13h35.09.603,t1_Paradigm,2021.1.4,59.972872408365404,
H,left,Pretarget,0,7,7,7,737.5168873464718,739.5184175727718,left,1,2,0.4688979098445998,H12S10,2023-01-13_13h35.09.603,t1_Paradigm,2021.1.4,59.972872408365404,
G,right,Target,0,8,8,8,741.0168876672742,743.0176816526182,right,1,2,0.3776463772137504,H12S10,2023-01-13_13h35.09.603,t1_Paradigm,2021.1.4,59.972872408365404,
H,right,Target,0,9,9,9,744.5170483891561,746.5185458936357,right,1,2,0.7813056391241844,H12S10,2023-01-13_13h35.09.603,t1_Paradigm,2021.1.4,59.972872408365404,
T,left,Pretarget,0,10,10,10,748.0168170907982,750.0170599380344,left,1,2,0.49849030503719405,H12S10,2023-01-13_13h35.09.603,t1_Paradigm,2021.1.4,59.972872408365404,
K,left,Distractor,0,11,11,11,751.5172248303443,753.5180146452603,left,1,2,0.5172764794915565,H12S10,2023-01-13_13h35.09.603,t1_Paradigm,2021.1.4,59.972872408365404,
T,right,Target,0,12,12,12,755.0171786348328,757.0176887102662,right,1,2,0.5856262667675765,H12S10,2023-01-13_13h35.09.603,t1_Paradigm,2021.1.4,59.972872408365404,
T,left,Lure,0,13,13,13,758.5170147049284,760.517082073382,left,1,2,0.8144127427749481,H12S10,2023-01-13_13h35.09.603,t1_Paradigm,2021.1.4,59.972872408365404,
J,left,Distractor,0,14,14,14,762.0171558578786,764.0186260941755,left,1,2,0.512876998678621,H12S10,2023-01-13_13h35.09.603,t1_Paradigm,2021.1.4,59.972872408365404,
Q,left,Pretarget,0,15,15,15,765.5171641987363,767.5185603297323,left,1,2,0.5007545266780653,H12S10,2023-01-13_13h35.09.603,t1_Paradigm,2021.1.4,59.972872408365404,
M,left,Distractor,0,16,16,16,769.0170913766451,771.0187585854674,left,1,2,0.5685984089486738,H12S10,2023-01-13_13h35.09.603,t1_Paradigm,2021.1.4,59.972872408365404,
Q,right,Target,0,17,17,17,772.5168305644893,774.5184012118625,right,1,2,0.3971341459891846,H12S10,2023-01-13_13h35.09.603,t1_Paradigm,2021.1.4,59.972872408365404,
R,left,Distractor,0,18,18,18,776.0170692412958,778.0190758588033,left,1,2,0.49649587801286543,H12S10,2023-01-13_13h35.09.603,t1_Paradigm,2021.1.4,59.972872408365404,
W,left,Distractor,0,19,19,19,779.5171638779339,781.5177336225679,left,1,2,0.501595669940798,H12S10,2023-01-13_13h35.09.603,t1_Paradigm,2021.1.4,59.972872408365404,
C,left,Pretarget,0,20,20,20,783.0170916974475,785.0199715384315,left,1,2,0.43950794081501954,H12S10,2023-01-13_13h35.09.603,t1_Paradigm,2021.1.4,59.972872408365404,
T,left,Distractor,0,21,21,21,786.5172370208256,788.5188237083057,left,1,2,0.4608772142582893,H12S10,2023-01-13_13h35.09.603,t1_Paradigm,2021.1.4,59.972872408365404,
C,right,Target,0,22,22,22,790.0171404593766,792.0178009910214,right,1,2,0.3536426764403586,H12S10,2023-01-13_13h35.09.603,t1_Paradigm,2021.1.4,59.972872408365404,
F,left,Pretarget,0,23,23,23,793.5170875270196,795.5189565204,left,1,2,0.5004170428073849,H12S10,2023-01-13_13h35.09.603,t1_Paradigm,2021.1.4,59.972872408365404,
C,right,Target,0,24,24,24,797.0170018728422,799.0181384748939,right,1,2,0.4733644383104547,H12S10,2023-01-13_13h35.09.603,t1_Paradigm,2021.1.4,59.972872408365404,
F,right,Target,0,25,25,25,800.5169717174394,802.5181397581018,right,1,2,0.4134231964344508,H12S10,2023-01-13_13h35.09.603,t1_Paradigm,2021.1.4,59.972872408365404,
H,left,Distractor,0,26,26,26,804.0170483891561,806.0188426356326,left,1,2,0.44867229610281356,H12S10,2023-01-13_13h35.09.603,t1_Paradigm,2021.1.4,59.972872408365404,
H,left,Lure,0,27,27,27,807.5170936222603,809.5171494418355,left,1,2,0.6941837926915468,H12S10,2023-01-13_13h35.09.603,t1_Paradigm,2021.1.4,59.972872408365404,
P,left,Distractor,0,28,28,28,811.0171240984655,813.0188942847817,left,1,2,0.5045948493279866,H12S10,2023-01-13_13h35.09.603,t1_Paradigm,2021.1.4,59.972872408365404,
G,left,Pretarget,0,29,29,29,814.5171269856855,816.5187402997453,left,1,2,0.4925901117221656,H12S10,2023-01-13_13h35.09.603,t1_Paradigm,2021.1.4,59.972872408365404,
K,left,Distractor,0,30,30,30,818.0169970608113,820.0182651917457,left,1,2,0.48129595089994837,H12S10,2023-01-13_13h35.09.603,t1_Paradigm,2021.1.4,59.972872408365404,
G,right,Target,0,31,31,31,821.5169967400088,823.5183078584341,right,1,2,0.38915194665787567,H12S10,2023-01-13_13h35.09.603,t1_Paradigm,2021.1.4,59.972872408365404,
M,left,Pretarget,0,32,32,32,825.017209111038,827.0182764198216,left,1,2,0.4571680996887153,H12S10,2023-01-13_13h35.09.603,t1_Paradigm,2021.1.4,59.972872408365404,
B,left,Distractor,0,33,33,33,828.5165748851687,830.51926256566,left,1,2,0.5081496580569365,H12S10,2023-01-13_13h35.09.603,t1_Paradigm,2021.1.4,59.972872408365404,
M,right,Target,0,34,34,34,832.0168004090865,834.0184602394602,right,1,2,0.4168945966011961,H12S10,2023-01-13_13h35.09.603,t1_Paradigm,2021.1.4,59.972872408365404,
M,left,Lure,0,35,35,35,835.5171677275594,837.5171436673972,left,1,2,0.7100676700065378,H12S10,2023-01-13_13h35.09.603,t1_Paradigm,2021.1.4,59.972872408365404,
T,left,Distractor,0,36,36,36,839.0171317977165,841.0186854425756,left,1,2,0.5207465964485891,H12S10,2023-01-13_13h35.09.603,t1_Paradigm,2021.1.4,59.972872408365404,
F,left,Distractor,0,37,37,37,842.5171568202859,844.5184839788199,left,1,2,0.44501547228719573,H12S10,2023-01-13_13h35.09.603,t1_Paradigm,2021.1.4,59.972872408365404,
X,left,Distractor,0,38,38,38,846.0167263037874,848.0193940945446,left,1,2,0.4643255166683957,H12S10,2023-01-13_13h35.09.603,t1_Paradigm,2021.1.4,59.972872408365404,
C,left,Distractor,0,39,39,39,849.5170971510834,851.5298977988477,left,1,2,0.4575909169361694,H12S10,2023-01-13_13h35.09.603,t1_Paradigm,2021.1.4,59.972872408365404,
R,left,Distractor,0,40,40,40,853.0168299228862,855.0191942347992,left,1,2,0.4403285527405387,H12S10,2023-01-13_13h35.09.603,t1_Paradigm,2021.1.4,59.972872408365404,
B,left,Pretarget,0,41,41,41,856.5170836773941,858.5185936931575,left,1,2,0.44496286073444935,H12S10,2023-01-13_13h35.09.603,t1_Paradigm,2021.1.4,59.972872408365404,
H,left,Distractor,0,42,42,42,860.0171638779339,862.0169970608113,left,1,2,0.45030582069739467,H12S10,2023-01-13_13h35.09.603,t1_Paradigm,2021.1.4,59.972872408365404,
B,right,Target,0,43,43,43,863.516864248717,865.5182401691782,right,1,2,0.5331372590535466,H12S10,2023-01-13_13h35.09.603,t1_Paradigm,2021.1.4,59.972872408365404,
W,left,Pretarget,0,44,44,44,867.0172248303443,869.0163278675063,left,1,2,0.49118628147334675,H12S10,2023-01-13_13h35.09.603,t1_Paradigm,2021.1.4,59.972872408365404,
L,left,Pretarget,0,45,45,45,870.5171545746707,872.5190261344687,left,1,2,0.540525653586883,H12S10,2023-01-13_13h35.09.603,t1_Paradigm,2021.1.4,59.972872408365404,
W,right,Target,0,46,46,46,874.0169008201628,876.018935989061,right,1,2,0.41642815025988966,H12S10,2023-01-13_13h35.09.603,t1_Paradigm,2021.1.4,59.972872408365404,
L,right,Target,0,47,47,47,877.5171757476128,879.5184031366753,right,1,2,0.6615091303501686,H12S10,2023-01-13_13h35.09.603,t1_Paradigm,2021.1.4,59.972872408365404,
W,right,Target,0,48,48,48,881.0171208904449,883.0185779738513,right,1,2,0.6810729292374162,H12S10,2023-01-13_13h35.09.603,t1_Paradigm,2021.1.4,59.972872408365404,
X,left,Distractor,0,49,49,49,884.5169723590443,886.518948821149,left,1,2,0.5245176258340507,H12S10,2023-01-13_13h35.09.603,t1_Paradigm,2021.1.4,59.972872408365404,
R,left,Distractor,0,50,50,50,888.0168238276437,890.017504569827,left,1,2,0.530048575863475,H12S10,2023-01-13_13h35.09.603,t1_Paradigm,2021.1.4,59.972872408365404,
V,left,Pretarget,0,51,51,51,891.5168963289325,893.5189930918459,left,1,2,0.4204628790193965,H12S10,2023-01-13_13h35.09.603,t1_Paradigm,2021.1.4,59.972872408365404,
Z,left,Distractor,0,52,52,52,895.0169803790977,897.0180804097035,left,1,2,0.47342057868809206,H12S10,2023-01-13_13h35.09.603,t1_Paradigm,2021.1.4,59.972872408365404,
V,right,Target,0,53,53,53,898.5167968802634,900.5300139292303,right,1,2,0.3535156387843017,H12S10,2023-01-13_13h35.09.603,t1_Paradigm,2021.1.4,59.972872408365404,
V,left,Lure,0,54,54,54,902.0171510458476,904.0171475170227,right,0,2,1.0584062035431998,H12S10,2023-01-13_13h35.09.603,t1_Paradigm,2021.1.4,59.972872408365404,
N,left,Distractor,0,55,55,55,905.5168376221372,907.5171629155266,left,1,2,0.8543112281386129,H12S10,2023-01-13_13h35.09.603,t1_Paradigm,2021.1.4,59.972872408365404,
B,left,Distractor,0,56,56,56,909.0170900934372,911.0188156882523,left,1,2,0.7127819770776114,H12S10,2023-01-13_13h35.09.603,t1_Paradigm,2021.1.4,59.972872408365404,
V,left,Lure,0,57,57,57,912.5172928404008,914.5188426356326,left,1,2,0.5086857184651308,H12S10,2023-01-13_13h35.09.603,t1_Paradigm,2021.1.4,59.972872408365404,
J,left,Distractor,0,58,58,58,916.0170740533285,918.0188538637085,left,1,2,0.6247233883386798,H12S10,2023-01-13_13h35.09.603,t1_Paradigm,2021.1.4,59.972872408365404,
H,left,Distractor,0,59,59,59,919.517216168686,921.5177570411252,left,1,2,0.597864869148907,H12S10,2023-01-13_13h35.09.603,t1_Paradigm,2021.1.4,59.972872408365404,
X,left,Pretarget,0,60,60,60,923.0172367000232,925.0188221042954,left,1,2,0.6967992926947773,H12S10,2023-01-13_13h35.09.603,t1_Paradigm,2021.1.4,59.972872408365404,
P,left,Distractor,0,61,61,61,926.5170541635944,928.517671707752,left,1,2,0.5099435837328201,H12S10,2023-01-13_13h35.09.603,t1_Paradigm,2021.1.4,59.972872408365404,
X,right,Target,0,62,62,62,930.0172354168153,932.018073672858,right,1,2,0.44932384528874536,H12S10,2023-01-13_13h35.09.603,t1_Paradigm,2021.1.4,59.972872408365404,
Q,left,Distractor,0,63,63,63,933.5171010007107,935.5187659639178,left,1,2,0.5327510132538009,H12S10,2023-01-13_13h35.09.603,t1_Paradigm,2021.1.4,59.972872408365404,
B,left,Pretarget,0,0,0,0,951.7989372466054,953.8026197345935,None,0,2,,H12S10,2023-01-13_13h35.09.603,t1_Paradigm,2021.1.4,59.972872408365404,
F,left,Distractor,0,1,1,1,955.3005890569257,957.3009913428323,None,0,2,,H12S10,2023-01-13_13h35.09.603,t1_Paradigm,2021.1.4,59.972872408365404,
B,right,Target,0,2,2,2,958.8000895679634,960.8026319250766,right,1,2,0.6889572839099856,H12S10,2023-01-13_13h35.09.603,t1_Paradigm,2021.1.4,59.972872408365404,
V,left,Distractor,0,3,3,3,962.3005556935004,964.3016781802562,left,1,2,0.6619861631606909,H12S10,2023-01-13_13h35.09.603,t1_Paradigm,2021.1.4,59.972872408365404,
G,left,Pretarget,0,4,4,4,965.8005117436041,967.8017221301525,left,1,2,0.5217988275326206,H12S10,2023-01-13_13h35.09.603,t1_Paradigm,2021.1.4,59.972872408365404,
B,left,Lure,0,5,5,5,969.300249327438,971.3131474990587,left,1,2,0.6263206622897997,H12S10,2023-01-13_13h35.09.603,t1_Paradigm,2021.1.4,59.972872408365404,
G,right,Target,0,6,6,6,972.8004110117272,974.8017080148566,right,1,2,0.5620890123336721,H12S10,2023-01-13_13h35.09.603,t1_Paradigm,2021.1.4,59.972872408365404,
Y,left,Pretarget,0,7,7,7,976.3005848864977,978.3010510120348,left,1,2,0.470406321599512,H12S10,2023-01-13_13h35.09.603,t1_Paradigm,2021.1.4,59.972872408365404,
P,left,Distractor,0,8,8,8,979.800477096971,981.8014423906698,left,1,2,0.5540221212340839,H12S10,2023-01-13_13h35.09.603,t1_Paradigm,2021.1.4,59.972872408365404,
Y,right,Target,0,9,9,9,983.3002233424631,985.3020762957367,right,1,2,0.5734826218267699,H12S10,2023-01-13_13h35.09.603,t1_Paradigm,2021.1.4,59.972872408365404,
X,left,Distractor,0,10,10,10,986.8005637135539,988.8132761407251,left,1,2,0.5343466831945989,H12S10,2023-01-13_13h35.09.603,t1_Paradigm,2021.1.4,59.972872408365404,
Y,right,Target,0,11,11,11,990.3005621095435,992.3003612873908,right,1,2,0.6152651782740577,H12S10,2023-01-13_13h35.09.603,t1_Paradigm,2021.1.4,59.972872408365404,
N,left,Distractor,0,12,12,12,993.8002194928376,995.8010635233186,left,1,2,0.5064186096060439,H12S10,2023-01-13_13h35.09.603,t1_Paradigm,2021.1.4,59.972872408365404,
Y,right,Target,0,13,13,13,997.3002849364784,999.3018982505382,right,1,2,0.5896706195908337,H12S10,2023-01-13_13h35.09.603,t1_Paradigm,2021.1.4,59.972872408365404,
Y,left,Lure,0,14,14,14,1000.8004260894286,1002.8004475831731,left,1,2,0.8189405444518343,H12S10,2023-01-13_13h35.09.603,t1_Paradigm,2021.1.4,59.972872408365404,
K,left,Distractor,0,15,15,15,1004.3005354829638,1006.3005021195404,left,1,2,0.5348480969696539,H12S10,2023-01-13_13h35.09.603,t1_Paradigm,2021.1.4,59.972872408365404,
T,left,Pretarget,0,16,16,16,1007.8005188012521,1009.802163874725,left,1,2,0.505231320812527,H12S10,2023-01-13_13h35.09.603,t1_Paradigm,2021.1.4,59.972872408365404,
J,left,Distractor,0,17,17,17,1011.3004847962238,1013.3012088466967,left,1,2,0.5583558376038127,H12S10,2023-01-13_13h35.09.603,t1_Paradigm,2021.1.4,59.972872408365404,
T,right,Target,0,18,18,18,1014.8000825103154,1016.8015094383209,right,1,2,0.4337161786315846,H12S10,2023-01-13_13h35.09.603,t1_Paradigm,2021.1.4,59.972872408365404,
S,left,Pretarget,0,19,19,19,1018.3005572975107,1020.3005890569257,left,1,2,0.4069535792859824,H12S10,2023-01-13_13h35.09.603,t1_Paradigm,2021.1.4,59.972872408365404,
R,left,Distractor,0,20,20,20,1021.8004735681479,1023.8010346511237,left,1,2,0.7146195318473474,H12S10,2023-01-13_13h35.09.603,t1_Paradigm,2021.1.4,59.972872408365404,
S,right,Target,0,21,21,21,1025.3005146308242,1027.3021192832257,right,1,2,0.5255862178255484,H12S10,2023-01-13_13h35.09.603,t1_Paradigm,2021.1.4,59.972872408365404,
Q,left,Distractor,0,22,22,22,1028.8001129865206,1030.8025238147475,left,1,2,0.4650020884237165,H12S10,2023-01-13_13h35.09.603,t1_Paradigm,2021.1.4,59.972872408365404,
D,left,Distractor,0,23,23,23,1032.300594831364,1034.3022508121103,left,1,2,0.6772480050913146,H12S10,2023-01-13_13h35.09.603,t1_Paradigm,2021.1.4,59.972872408365404,
F,left,Distractor,0,24,24,24,1035.8004979491125,1037.801264666272,left,1,2,0.6022104551993834,H12S10,2023-01-13_13h35.09.603,t1_Paradigm,2021.1.4,59.972872408365404,
Z,left,Distractor,0,25,25,25,1039.300462981677,1041.3022318847834,left,1,2,0.7332157914224808,H12S10,2023-01-13_13h35.09.603,t1_Paradigm,2021.1.4,59.972872408365404,
P,left,Distractor,0,26,26,26,1042.800441808733,1044.8015819396078,left,1,2,0.5939427419471031,H12S10,2023-01-13_13h35.09.603,t1_Paradigm,2021.1.4,59.972872408365404,
H,left,Distractor,0,27,27,27,1046.300566600774,1048.3017920650218,left,1,2,0.501672662458077,H12S10,2023-01-13_13h35.09.603,t1_Paradigm,2021.1.4,59.972872408365404,
Z,left,Pretarget,0,28,28,28,1049.800046259672,1051.801957919739,left,1,2,0.5055976768780965,H12S10,2023-01-13_13h35.09.603,t1_Paradigm,2021.1.4,59.972872408365404,
J,left,Pretarget,0,29,29,29,1053.300487683442,1055.3023114437183,left,1,2,0.7814483960864891,H12S10,2023-01-13_13h35.09.603,t1_Paradigm,2021.1.4,59.972872408365404,
Z,right,Target,0,30,30,30,1056.8002567058884,1058.8021625915171,right,1,2,0.4331493212157511,H12S10,2023-01-13_13h35.09.603,t1_Paradigm,2021.1.4,59.972872408365404,
J,right,Target,0,31,31,31,1060.3006246659643,1062.3020695588912,right,1,2,0.46950711314639193,H12S10,2023-01-13_13h35.09.603,t1_Paradigm,2021.1.4,59.972872408365404,
V,left,Pretarget,0,32,32,32,1063.8004690769176,1065.8011693880308,left,1,2,0.5063602236114093,H12S10,2023-01-13_13h35.09.603,t1_Paradigm,2021.1.4,59.972872408365404,
Z,left,Lure,0,33,33,33,1067.3004710017303,1069.313458035549,left,1,2,0.6900303671336587,H12S10,2023-01-13_13h35.09.603,t1_Paradigm,2021.1.4,59.972872408365404,
V,right,Target,0,34,34,34,1070.80055120227,1072.8020705212966,right,1,2,0.9296294799223688,H12S10,2023-01-13_13h35.09.603,t1_Paradigm,2021.1.4,59.972872408365404,
X,left,Distractor,0,35,35,35,1074.3004482247761,1076.3023897194453,left,1,2,0.565016973643651,H12S10,2023-01-13_13h35.09.603,t1_Paradigm,2021.1.4,59.972872408365404,
S,left,Distractor,0,36,36,36,1077.8004889666518,1079.8022331679913,left,1,2,0.4892123857862316,H12S10,2023-01-13_13h35.09.603,t1_Paradigm,2021.1.4,59.972872408365404,
Q,left,Distractor,0,37,37,37,1081.3005611471362,1083.301771854487,left,1,2,0.46193682378907397,H12S10,2023-01-13_13h35.09.603,t1_Paradigm,2021.1.4,59.972872408365404,
P,left,Distractor,0,38,38,38,1084.8005682047842,1086.8022508121103,left,1,2,0.705384600083562,H12S10,2023-01-13_13h35.09.603,t1_Paradigm,2021.1.4,59.972872408365404,
S,left,Lure,0,39,39,39,1088.3003901595857,1090.301890230483,left,1,2,0.4696331883951643,H12S10,2023-01-13_13h35.09.603,t1_Paradigm,2021.1.4,59.972872408365404,
K,left,Pretarget,0,40,40,40,1091.8002073023545,1093.8020053984583,left,1,2,0.5375036972454836,H12S10,2023-01-13_13h35.09.603,t1_Paradigm,2021.1.4,59.972872408365404,
L,left,Distractor,0,41,41,41,1095.3001177985534,1097.3134102360273,left,1,2,0.4662176078054472,H12S10,2023-01-13_13h35.09.603,t1_Paradigm,2021.1.4,59.972872408365404,
K,right,Target,0,42,42,42,1098.800565959169,1100.8011559143397,right,1,2,0.41825511855859077,H12S10,2023-01-13_13h35.09.603,t1_Paradigm,2021.1.4,59.972872408365404,
B,left,Distractor,0,43,43,43,1102.3006073426477,1104.3020727669118,left,1,2,0.5654022570361121,H12S10,2023-01-13_13h35.09.603,t1_Paradigm,2021.1.4,59.972872408365404,
N,left,Distractor,0,44,44,44,1105.800291673324,1107.802447463835,left,1,2,0.5050048344892275,H12S10,2023-01-13_13h35.09.603,t1_Paradigm,2021.1.4,59.972872408365404,
S,left,Pretarget,0,45,45,45,1109.300621778746,1111.301900175351,left,1,2,0.4618068989148014,H12S10,2023-01-13_13h35.09.603,t1_Paradigm,2021.1.4,59.972872408365404,
Z,left,Distractor,0,46,46,46,1112.8006317236122,1114.801419934518,left,1,2,0.5141297311092785,H12S10,2023-01-13_13h35.09.603,t1_Paradigm,2021.1.4,59.972872408365404,
S,right,Target,0,47,47,47,1116.300269858777,1118.3022078246213,right,1,2,0.5975097411574097,H12S10,2023-01-13_13h35.09.603,t1_Paradigm,2021.1.4,59.972872408365404,
C,left,Distractor,0,48,48,48,1119.800284615676,1121.8000600541636,left,1,2,0.44324111554306,H12S10,2023-01-13_13h35.09.603,t1_Paradigm,2021.1.4,59.972872408365404,
T,left,Pretarget,0,49,49,49,1123.3003718738637,1125.3025379300434,left,1,2,0.42916752481323783,H12S10,2023-01-13_13h35.09.603,t1_Paradigm,2021.1.4,59.972872408365404,
S,left,Lure,0,50,50,50,1126.8001761845462,1128.8016072829796,left,1,2,0.4819882419596979,H12S10,2023-01-13_13h35.09.603,t1_Paradigm,2021.1.4,59.972872408365404,
T,right,Target,0,51,51,51,1130.3006031722198,1132.3013532076693,right,1,2,0.4541788651695242,H12S10,2023-01-13_13h35.09.603,t1_Paradigm,2021.1.4,59.972872408365404,
N,left,Pretarget,0,52,52,52,1133.8005662799715,1135.8023929274677,left,1,2,0.5210885715514451,H12S10,2023-01-13_13h35.09.603,t1_Paradigm,2021.1.4,59.972872408365404,
B,left,Distractor,0,53,53,53,1137.300632365217,1139.3134836997215,left,1,2,0.46612297116735135,H12S10,2023-01-13_13h35.09.603,t1_Paradigm,2021.1.4,59.972872408365404,
N,right,Target,0,54,54,54,1140.8003179790994,1142.8022469624848,right,1,2,0.4172859752361546,H12S10,2023-01-13_13h35.09.603,t1_Paradigm,2021.1.4,59.972872408365404,
N,left,Lure,0,55,55,55,1144.3006551421695,1146.300613117086,left,1,2,0.5831916991792241,H12S10,2023-01-13_13h35.09.603,t1_Paradigm,2021.1.4,59.972872408365404,
X,left,Distractor,0,56,56,56,1147.8002217384528,1149.8022819299204,left,1,2,0.8092747753908043,H12S10,2023-01-13_13h35.09.603,t1_Paradigm,2021.1.4,59.972872408365404,
W,left,Distractor,0,57,57,57,1151.3005637135539,1153.30216740355,left,1,2,0.5414986465366383,H12S10,2023-01-13_13h35.09.603,t1_Paradigm,2021.1.4,59.972872408365404,
S,left,Distractor,0,58,58,58,1154.800386951565,1156.8012101299046,left,1,2,0.6103626796739263,H12S10,2023-01-13_13h35.09.603,t1_Paradigm,2021.1.4,59.972872408365404,
L,left,Distractor,0,59,59,59,1158.3004507911937,1160.3016785010586,left,1,2,0.4698811684647808,H12S10,2023-01-13_13h35.09.603,t1_Paradigm,2021.1.4,59.972872408365404,
K,left,Pretarget,0,60,60,60,1161.8004485455785,1163.8024612583267,left,1,2,0.4728854806871823,H12S10,2023-01-13_13h35.09.603,t1_Paradigm,2021.1.4,59.972872408365404,
V,left,Pretarget,0,61,61,61,1165.300593548156,1167.3010676937465,left,1,2,0.6225480288940162,H12S10,2023-01-13_13h35.09.603,t1_Paradigm,2021.1.4,59.972872408365404,
K,right,Target,0,62,62,62,1168.8002868612912,1170.8026675341152,right,1,2,0.4327406192642229,H12S10,2023-01-13_13h35.09.603,t1_Paradigm,2021.1.4,59.972872408365404,
V,right,Target,0,63,63,63,1172.3005980393846,1174.3020079648759,right,1,2,0.5654696254896407,H12S10,2023-01-13_13h35.09.603,t1_Paradigm,2021.1.4,59.972872408365404,
R,left,Distractor,0,0,0,0,1241.4742443986343,1243.485259782381,None,0,3,,H12S10,2023-01-13_13h35.09.603,t1_Paradigm,2021.1.4,59.972872408365404,
P,left,Lure,0,1,1,1,1244.9837840924465,1246.9859129355773,None,0,3,,H12S10,2023-01-13_13h35.09.603,t1_Paradigm,2021.1.4,59.972872408365404,
V,left,Distractor,0,2,2,2,1248.4838928443787,1250.4853550606222,None,0,3,,H12S10,2023-01-13_13h35.09.603,t1_Paradigm,2021.1.4,59.972872408365404,
P,left,Pretarget,0,3,3,3,1251.9839698368978,1253.9859517526384,left,1,3,0.9457924551188626,H12S10,2023-01-13_13h35.09.603,t1_Paradigm,2021.1.4,59.972872408365404,
Z,left,Distractor,0,4,4,4,1255.4839005436315,1257.4862189808373,left,1,3,0.7732095550290978,H12S10,2023-01-13_13h35.09.603,t1_Paradigm,2021.1.4,59.972872408365404,
L,left,Pretarget,0,5,5,5,1258.983647109926,1260.9858747601193,left,1,3,0.6818810298773315,H12S10,2023-01-13_13h35.09.603,t1_Paradigm,2021.1.4,59.972872408365404,
P,right,Target,0,6,6,6,1262.4839210749687,1264.484341646601,right,1,3,0.5913894775603694,H12S10,2023-01-13_13h35.09.603,t1_Paradigm,2021.1.4,59.972872408365404,
S,left,Distractor,0,7,7,7,1265.983620162544,1267.9860034017856,left,1,3,0.8495870955393912,H12S10,2023-01-13_13h35.09.603,t1_Paradigm,2021.1.4,59.972872408365404,
L,right,Target,0,8,8,8,1269.4839521927788,1271.48524342147,right,1,3,0.518296309557627,H12S10,2023-01-13_13h35.09.603,t1_Paradigm,2021.1.4,59.972872408365404,
D,left,Distractor,0,9,9,9,1272.9830022975857,1274.9858327350375,left,1,3,0.713940072873811,H12S10,2023-01-13_13h35.09.603,t1_Paradigm,2021.1.4,59.972872408365404,
G,left,Distractor,0,10,10,10,1276.4839448143284,1278.485175090611,left,1,3,0.5263721831161092,H12S10,2023-01-13_13h35.09.603,t1_Paradigm,2021.1.4,59.972872408365404,
M,left,Pretarget,0,11,11,11,1279.9837892252817,1281.985732965566,left,1,3,0.8178748396785522,H12S10,2023-01-13_13h35.09.603,t1_Paradigm,2021.1.4,59.972872408365404,
Y,left,Distractor,0,12,12,12,1283.483637806663,1285.4857964843923,left,1,3,0.8056602974593261,H12S10,2023-01-13_13h35.09.603,t1_Paradigm,2021.1.4,59.972872408365404,
V,left,Distractor,0,13,13,13,1286.9839631000523,1288.9840410549768,left,1,3,0.8596695866071968,H12S10,2023-01-13_13h35.09.603,t1_Paradigm,2021.1.4,59.972872408365404,
M,right,Target,0,14,14,14,1290.4837260272561,1292.4855266897775,right,1,3,0.6540973172595841,H12S10,2023-01-13_13h35.09.603,t1_Paradigm,2021.1.4,59.972872408365404,
S,left,Pretarget,0,15,15,15,1293.983975611336,1295.9861782389635,left,1,3,0.689565204002065,H12S10,2023-01-13_13h35.09.603,t1_Paradigm,2021.1.4,59.972872408365404,
Q,left,Distractor,0,16,16,16,1297.483809115016,1299.485773065835,left,1,3,0.5337769385605498,H12S10,2023-01-13_13h35.09.603,t1_Paradigm,2021.1.4,59.972872408365404,
R,left,Pretarget,0,17,17,17,1300.983694267843,1302.9845844938354,left,1,3,0.923060734905448,H12S10,2023-01-13_13h35.09.603,t1_Paradigm,2021.1.4,59.972872408365404,
S,right,Target,0,18,18,18,1304.4837058167213,1306.4859305796963,right,1,3,0.9096884176942694,H12S10,2023-01-13_13h35.09.603,t1_Paradigm,2021.1.4,59.972872408365404,
F,left,Distractor,0,19,19,19,1307.984008012354,1309.9853820080025,left,1,3,1.1702689541143627,H12S10,2023-01-13_13h35.09.603,t1_Paradigm,2021.1.4,59.972872408365404,
R,right,Target,0,20,20,20,1311.483709024742,1313.4858186197416,left,0,3,1.2378853876525682,H12S10,2023-01-13_13h35.09.603,t1_Paradigm,2021.1.4,59.972872408365404,
P,left,Distractor,0,21,21,21,1314.983620162544,1316.9851195918363,left,1,3,0.6986641156472615,H12S10,2023-01-13_13h35.09.603,t1_Paradigm,2021.1.4,59.972872408365404,
L,left,Distractor,0,22,22,22,1318.4840105787716,1320.484620744479,left,1,3,1.2472021239664173,H12S10,2023-01-13_13h35.09.603,t1_Paradigm,2021.1.4,59.972872408365404,
R,right,Target,0,23,23,23,1321.9840333557258,1323.985870268889,left,0,3,1.0419339750660583,H12S10,2023-01-13_13h35.09.603,t1_Paradigm,2021.1.4,59.972872408365404,
H,left,Pretarget,0,24,24,24,1325.4838565937353,1327.4844895363967,left,1,3,0.9032399734896899,H12S10,2023-01-13_13h35.09.603,t1_Paradigm,2021.1.4,59.972872408365404,
G,left,Pretarget,0,25,25,25,1328.9838434408466,1330.9840449046023,left,1,3,0.779897317645009,H12S10,2023-01-13_13h35.09.603,t1_Paradigm,2021.1.4,59.972872408365404,
T,left,Distractor,0,26,26,26,1332.4838963732036,1334.4853630806756,left,1,3,0.6223375826775737,H12S10,2023-01-13_13h35.09.603,t1_Paradigm,2021.1.4,59.972872408365404,
H,right,Target,0,27,27,27,1335.9839076012795,1337.9856784291987,left,0,3,0.9781331624108134,H12S10,2023-01-13_13h35.09.603,t1_Paradigm,2021.1.4,59.972872408365404,
G,right,Target,0,28,28,28,1339.483669566076,1341.4834725935507,left,0,3,1.0162499125817703,H12S10,2023-01-13_13h35.09.603,t1_Paradigm,2021.1.4,59.972872408365404,
D,left,Distractor,0,29,29,29,1342.9839092052898,1344.9859610559015,left,1,3,0.7618595746280334,H12S10,2023-01-13_13h35.09.603,t1_Paradigm,2021.1.4,59.972872408365404,
N,left,Pretarget,0,30,30,30,1346.4840718519845,1348.4858308102248,left,1,3,0.5898910106752737,H12S10,2023-01-13_13h35.09.603,t1_Paradigm,2021.1.4,59.972872408365404,
V,left,Distractor,0,31,31,31,1349.9838899571605,1351.9846454462458,left,1,3,0.9951873260033608,H12S10,2023-01-13_13h35.09.603,t1_Paradigm,2021.1.4,59.972872408365404,
R,left,Distractor,0,32,32,32,1353.4837571450662,1355.486007893016,left,1,3,0.8376866186354164,H12S10,2023-01-13_13h35.09.603,t1_Paradigm,2021.1.4,59.972872408365404,
N,right,Target,0,33,33,33,1356.9839242829912,1358.9858882338103,left,0,3,0.7299096043661848,H12S10,2023-01-13_13h35.09.603,t1_Paradigm,2021.1.4,59.972872408365404,
Z,left,Distractor,0,34,34,34,1360.4836811149544,1362.4848850854578,left,1,3,0.5107805565658055,H12S10,2023-01-13_13h35.09.603,t1_Paradigm,2021.1.4,59.972872408365404,
N,left,Lure,0,35,35,35,1363.9838581977456,1365.9844398120604,left,1,3,1.123312500441898,H12S10,2023-01-13_13h35.09.603,t1_Paradigm,2021.1.4,59.972872408365404,
Y,left,Pretarget,0,36,36,36,1367.4837779972058,1369.4830629291937,left,1,3,0.9207179167369759,H12S10,2023-01-13_13h35.09.603,t1_Paradigm,2021.1.4,59.972872408365404,
Y,left,Lure,0,37,37,37,1370.9839878018192,1372.9837622778996,left,1,3,1.0678477318979276,H12S10,2023-01-13_13h35.09.603,t1_Paradigm,2021.1.4,59.972872408365404,
B,left,Distractor,0,38,38,38,1374.4839217165736,1376.4859738879877,left,1,3,0.6377203670235758,H12S10,2023-01-13_13h35.09.603,t1_Paradigm,2021.1.4,59.972872408365404,
Y,right,Target,0,39,39,39,1377.9838809746998,1379.9862218680573,right,1,3,0.48157633198570693,H12S10,2023-01-13_13h35.09.603,t1_Paradigm,2021.1.4,59.972872408365404,
J,left,Distractor,0,40,40,40,1381.4839740073257,1383.4859658679325,left,1,3,0.8216487562822294,H12S10,2023-01-13_13h35.09.603,t1_Paradigm,2021.1.4,59.972872408365404,
X,left,Distractor,0,41,41,41,1384.9840195612323,1386.985562940421,left,1,3,0.9861083040923404,H12S10,2023-01-13_13h35.09.603,t1_Paradigm,2021.1.4,59.972872408365404,
W,left,Pretarget,0,42,42,42,1388.4840218068475,1390.4839088844874,left,1,3,1.1517182484458317,H12S10,2023-01-13_13h35.09.603,t1_Paradigm,2021.1.4,59.972872408365404,
S,left,Pretarget,0,43,43,43,1391.9840343181313,1393.9851712409836,left,1,3,0.7544830497754447,H12S10,2023-01-13_13h35.09.603,t1_Paradigm,2021.1.4,59.972872408365404,
R,left,Distractor,0,44,44,44,1395.4836987590734,1397.4858628904403,left,1,3,0.8056391245190753,H12S10,2023-01-13_13h35.09.603,t1_Paradigm,2021.1.4,59.972872408365404,
W,right,Target,0,45,45,45,1398.9837318016962,1400.9855315018103,left,0,3,1.0181551566056442,H12S10,2023-01-13_13h35.09.603,t1_Paradigm,2021.1.4,59.972872408365404,
S,right,Target,0,46,46,46,1402.484015070002,1404.485239251042,left,0,3,1.198627544201372,H12S10,2023-01-13_13h35.09.603,t1_Paradigm,2021.1.4,59.972872408365404,
D,left,Distractor,0,47,47,47,1405.984039130164,1407.9856684843307,left,1,3,1.1380337907321518,H12S10,2023-01-13_13h35.09.603,t1_Paradigm,2021.1.4,59.972872408365404,
T,left,Distractor,0,48,48,48,1409.4839627792499,1411.4862741588076,left,1,3,0.869443145194964,H12S10,2023-01-13_13h35.09.603,t1_Paradigm,2021.1.4,59.972872408365404,
S,right,Target,0,49,49,49,1412.9840394509665,1414.985744193642,right,1,3,0.6498620871516323,H12S10,2023-01-13_13h35.09.603,t1_Paradigm,2021.1.4,59.972872408365404,
K,left,Distractor,0,50,50,50,1416.4836746989113,1418.4843618571358,left,1,3,1.087305345270579,H12S10,2023-01-13_13h35.09.603,t1_Paradigm,2021.1.4,59.972872408365404,
S,left,Lure,0,51,51,51,1419.9840169948147,1421.985885346592,left,1,3,1.105913474524641,H12S10,2023-01-13_13h35.09.603,t1_Paradigm,2021.1.4,59.972872408365404,
T,left,Pretarget,0,52,52,52,1423.4841209347142,1425.4857839731085,left,1,3,1.317901145457654,H12S10,2023-01-13_13h35.09.603,t1_Paradigm,2021.1.4,59.972872408365404,
V,left,Distractor,0,53,53,53,1426.983953155186,1428.986102529654,left,1,3,1.0175597477973497,H12S10,2023-01-13_13h35.09.603,t1_Paradigm,2021.1.4,59.972872408365404,
B,left,Distractor,0,54,54,54,1430.4840667191493,1432.4853419077335,left,1,3,1.0863653949418222,H12S10,2023-01-13_13h35.09.603,t1_Paradigm,2021.1.4,59.972872408365404,
T,right,Target,0,55,55,55,1433.9831790595745,1435.9846698272086,left,0,3,1.1710048742679646,H12S10,2023-01-13_13h35.09.603,t1_Paradigm,2021.1.4,59.972872408365404,
Y,left,Pretarget,0,56,56,56,1437.4840506790424,1439.4858481335414,left,1,3,0.965808905853919,H12S10,2023-01-13_13h35.09.603,t1_Paradigm,2021.1.4,59.972872408365404,
T,left,Lure,0,57,57,57,1440.9838447240563,1442.9838662178008,left,1,3,1.0357825936589506,H12S10,2023-01-13_13h35.09.603,t1_Paradigm,2021.1.4,59.972872408365404,
P,left,Pretarget,0,58,58,58,1444.4837664483293,1446.4850329752535,left,1,3,1.2947870290718129,H12S10,2023-01-13_13h35.09.603,t1_Paradigm,2021.1.4,59.972872408365404,
Y,right,Target,0,59,59,59,1447.9840551702728,1449.9851760530164,right,1,3,0.49875464601609565,H12S10,2023-01-13_13h35.09.603,t1_Paradigm,2021.1.4,59.972872408365404,
R,left,Distractor,0,60,60,60,1451.484025656473,1453.4858343390479,left,1,3,0.9338018328071485,H12S10,2023-01-13_13h35.09.603,t1_Paradigm,2021.1.4,59.972872408365404,
P,right,Target,0,61,61,61,1454.9837157615875,1456.985862569638,left,0,3,1.065842718400745,H12S10,2023-01-13_13h35.09.603,t1_Paradigm,2021.1.4,59.972872408365404,
L,left,Distractor,0,62,62,62,1458.484100403377,1460.4856604642773,left,1,3,1.1500295458790788,H12S10,2023-01-13_13h35.09.603,t1_Paradigm,2021.1.4,59.972872408365404,
V,left,Distractor,0,63,63,63,1461.9840429797896,1463.9839836313913,left,1,3,0.9478702907053957,H12S10,2023-01-13_13h35.09.603,t1_Paradigm,2021.1.4,59.972872408365404,
H,left,Lure,0,0,0,0,1502.9655137678656,1504.9689152331612,None,0,3,,H12S10,2023-01-13_13h35.09.603,t1_Paradigm,2021.1.4,59.972872408365404,
B,left,Distractor,0,1,1,1,1506.467100134545,1508.4689380101154,None,0,3,,H12S10,2023-01-13_13h35.09.603,t1_Paradigm,2021.1.4,59.972872408365404,
T,left,Distractor,0,2,2,2,1509.9670905104795,1511.9681164357844,None,0,3,,H12S10,2023-01-13_13h35.09.603,t1_Paradigm,2021.1.4,59.972872408365404,
R,left,Distractor,0,3,3,3,1513.46723615466,1515.4693701306242,left,1,3,0.518310745652343,H12S10,2023-01-13_13h35.09.603,t1_Paradigm,2021.1.4,59.972872408365404,
H,left,Pretarget,0,4,4,4,1516.9674100294305,1518.9681228518275,left,1,3,0.8917257423854608,H12S10,2023-01-13_13h35.09.603,t1_Paradigm,2021.1.4,59.972872408365404,
K,left,Distractor,0,5,5,5,1520.4674122750457,1522.469204917512,left,1,3,0.6865227163216332,H12S10,2023-01-13_13h35.09.603,t1_Paradigm,2021.1.4,59.972872408365404,
G,left,Distractor,0,6,6,6,1523.967214340113,1525.9691914438208,left,1,3,0.5627347870795347,H12S10,2023-01-13_13h35.09.603,t1_Paradigm,2021.1.4,59.972872408365404,
H,right,Target,0,7,7,7,1527.4672550819869,1529.4678809670004,right,1,3,0.4719282070418558,H12S10,2023-01-13_13h35.09.603,t1_Paradigm,2021.1.4,59.972872408365404,
Y,left,Pretarget,0,8,8,8,1530.9672274930017,1532.9801051332834,left,1,3,1.0077579586213687,H12S10,2023-01-13_13h35.09.603,t1_Paradigm,2021.1.4,59.972872408365404,
S,left,Distractor,0,9,9,9,1534.4674944003982,1536.4691837445698,left,1,3,0.9586793986636621,H12S10,2023-01-13_13h35.09.603,t1_Paradigm,2021.1.4,59.972872408365404,
P,left,Distractor,0,10,10,10,1537.9670792824036,1539.9680468217175,left,1,3,0.8357120813452639,H12S10,2023-01-13_13h35.09.603,t1_Paradigm,2021.1.4,59.972872408365404,
Y,right,Target,0,11,11,11,1541.4674065006056,1543.4688895689887,right,1,3,0.45489104596344987,H12S10,2023-01-13_13h35.09.603,t1_Paradigm,2021.1.4,59.972872408365404,
H,left,Lure,0,12,12,12,1544.9670427109577,1546.969363714581,left,1,3,0.6503609345090808,H12S10,2023-01-13_13h35.09.603,t1_Paradigm,2021.1.4,59.972872408365404,
Q,left,Distractor,0,13,13,13,1548.467354530656,1550.4692052383143,left,1,3,1.054580958596489,H12S10,2023-01-13_13h35.09.603,t1_Paradigm,2021.1.4,59.972872408365404,
V,left,Pretarget,0,14,14,14,1551.967047843793,1553.980200090722,left,1,3,0.6315545495199331,H12S10,2023-01-13_13h35.09.603,t1_Paradigm,2021.1.4,59.972872408365404,
G,left,Distractor,0,15,15,15,1555.4673086559487,1557.4693633937786,left,1,3,0.934352650114306,H12S10,2023-01-13_13h35.09.603,t1_Paradigm,2021.1.4,59.972872408365404,
Z,left,Pretarget,0,16,16,16,1558.9669939490286,1560.9691458899142,left,1,3,0.9865689759917586,H12S10,2023-01-13_13h35.09.603,t1_Paradigm,2021.1.4,59.972872408365404,
V,right,Target,0,17,17,17,1562.4669458287062,1564.469158401198,right,1,3,0.8628330167011882,H12S10,2023-01-13_13h35.09.603,t1_Paradigm,2021.1.4,59.972872408365404,
N,left,Distractor,0,18,18,18,1565.9673477938122,1567.9692398849475,left,1,3,0.89856941484868,H12S10,2023-01-13_13h35.09.603,t1_Paradigm,2021.1.4,59.972872408365404,
Z,right,Target,0,19,19,19,1569.467349718625,1571.4675713929173,right,1,3,1.1762981098981982,H12S10,2023-01-13_13h35.09.603,t1_Paradigm,2021.1.4,59.972872408365404,
R,left,Distractor,0,20,20,20,1572.9673105807615,1574.9688529975429,left,1,3,0.7630606579150481,H12S10,2023-01-13_13h35.09.603,t1_Paradigm,2021.1.4,59.972872408365404,
P,left,Distractor,0,21,21,21,1576.4673433025819,1578.4689947920979,left,1,3,0.8147463770219474,H12S10,2023-01-13_13h35.09.603,t1_Paradigm,2021.1.4,59.972872408365404,
Z,right,Target,0,22,22,22,1579.9673683251494,1581.9678931574817,right,1,3,0.532040115669588,H12S10,2023-01-13_13h35.09.603,t1_Paradigm,2021.1.4,59.972872408365404,
D,left,Pretarget,0,23,23,23,1583.4673683251494,1585.4692450177827,left,1,3,0.7265206503543595,H12S10,2023-01-13_13h35.09.603,t1_Paradigm,2021.1.4,59.972872408365404,
K,left,Distractor,0,24,24,24,1586.96731795921,1588.9689489173888,left,1,3,0.5229033493669704,H12S10,2023-01-13_13h35.09.603,t1_Paradigm,2021.1.4,59.972872408365404,
W,left,Distractor,0,25,25,25,1590.4674016885747,1592.468808085241,left,1,3,0.686989804265977,H12S10,2023-01-13_13h35.09.603,t1_Paradigm,2021.1.4,59.972872408365404,
D,right,Target,0,26,26,26,1593.9670885856667,1595.967404575793,right,1,3,0.676473267876645,H12S10,2023-01-13_13h35.09.603,t1_Paradigm,2021.1.4,59.972872408365404,
G,left,Pretarget,0,27,27,27,1597.4671312523533,1599.4690021705464,left,1,3,0.50282434221117,H12S10,2023-01-13_13h35.09.603,t1_Paradigm,2021.1.4,59.972872408365404,
V,left,Distractor,0,28,28,28,1600.9673936685194,1602.968880586528,left,1,3,0.5070242840829451,H12S10,2023-01-13_13h35.09.603,t1_Paradigm,2021.1.4,59.972872408365404,
D,right,Target,0,29,29,29,1604.4675017788486,1606.4692979501378,right,1,3,0.43084981133688416,H12S10,2023-01-13_13h35.09.603,t1_Paradigm,2021.1.4,59.972872408365404,
G,right,Target,0,30,30,30,1607.9673641547215,1609.9683904008289,right,1,3,0.9635395513778349,H12S10,2023-01-13_13h35.09.603,t1_Paradigm,2021.1.4,59.972872408365404,
B,left,Pretarget,0,31,31,31,1611.4674199742967,1613.4683656990637,left,1,3,0.5833790476408467,H12S10,2023-01-13_13h35.09.603,t1_Paradigm,2021.1.4,59.972872408365404,
N,left,Distractor,0,32,32,32,1614.967332716109,1616.9691160553139,left,1,3,0.6346676136745373,H12S10,2023-01-13_13h35.09.603,t1_Paradigm,2021.1.4,59.972872408365404,
F,left,Distractor,0,33,33,33,1618.467495042003,1620.4696152234737,left,1,3,0.5420424061958329,H12S10,2023-01-13_13h35.09.603,t1_Paradigm,2021.1.4,59.972872408365404,
B,right,Target,0,34,34,34,1621.9671581997354,1623.9692421305626,right,1,3,0.4184575447216048,H12S10,2023-01-13_13h35.09.603,t1_Paradigm,2021.1.4,59.972872408365404,
Q,left,Pretarget,0,35,35,35,1625.4671030217633,1627.4695199452326,left,1,3,0.5342969588600681,H12S10,2023-01-13_13h35.09.603,t1_Paradigm,2021.1.4,59.972872408365404,
S,left,Pretarget,0,36,36,36,1628.9672653476555,1630.969147814727,left,1,3,0.7788203847958357,H12S10,2023-01-13_13h35.09.603,t1_Paradigm,2021.1.4,59.972872408365404,
W,left,Distractor,0,37,37,37,1632.467399122157,1634.4692164663902,left,1,3,0.5424620154208242,H12S10,2023-01-13_13h35.09.603,t1_Paradigm,2021.1.4,59.972872408365404,
Q,right,Target,0,38,38,38,1635.967484455532,1637.9692504714185,right,1,3,0.5307456789560092,H12S10,2023-01-13_13h35.09.603,t1_Paradigm,2021.1.4,59.972872408365404,
S,right,Target,0,39,39,39,1639.467416766276,1641.4692193536084,right,1,3,0.8865242561714695,H12S10,2023-01-13_13h35.09.603,t1_Paradigm,2021.1.4,59.972872408365404,
T,left,Distractor,0,40,40,40,1642.9672823501714,1644.9689267820395,left,1,3,1.1790355147240916,H12S10,2023-01-13_13h35.09.603,t1_Paradigm,2021.1.4,59.972872408365404,
G,left,Distractor,0,41,41,41,1646.467446280074,1648.469556837481,left,1,3,1.0862422069130844,H12S10,2023-01-13_13h35.09.603,t1_Paradigm,2021.1.4,59.972872408365404,
D,left,Distractor,0,42,42,42,1649.9674087462208,1651.9673394529545,left,1,3,0.8523835279647756,H12S10,2023-01-13_13h35.09.603,t1_Paradigm,2021.1.4,59.972872408365404,
S,left,Lure,0,43,43,43,1653.4673628715136,1655.4682033731697,None,0,3,,H12S10,2023-01-13_13h35.09.603,t1_Paradigm,2021.1.4,59.972872408365404,
Z,left,Pretarget,0,44,44,44,1656.9674485256892,1658.9679066311728,left,1,3,1.0359166889629705,H12S10,2023-01-13_13h35.09.603,t1_Paradigm,2021.1.4,59.972872408365404,
J,left,Distractor,0,45,45,45,1660.4673465106025,1662.4686489673695,left,1,3,0.7829773391767958,H12S10,2023-01-13_13h35.09.603,t1_Paradigm,2021.1.4,59.972872408365404,
M,left,Pretarget,0,46,46,46,1663.9674289567574,1665.9693184814769,left,1,3,0.5466706189490651,H12S10,2023-01-13_13h35.09.603,t1_Paradigm,2021.1.4,59.972872408365404,
Z,right,Target,0,47,47,47,1667.4672983902783,1669.4691503811446,right,1,3,0.39071329076978145,H12S10,2023-01-13_13h35.09.603,t1_Paradigm,2021.1.4,59.972872408365404,
P,left,Distractor,0,48,48,48,1670.967242570703,1672.969388416348,left,1,3,0.5385010711579525,H12S10,2023-01-13_13h35.09.603,t1_Paradigm,2021.1.4,59.972872408365404,
M,right,Target,0,49,49,49,1674.467485097135,1676.4689226116116,right,1,3,0.4149187761013309,H12S10,2023-01-13_13h35.09.603,t1_Paradigm,2021.1.4,59.972872408365404,
K,left,Distractor,0,50,50,50,1677.9673744203901,1679.9695042259264,left,1,3,0.5624428571154567,H12S10,2023-01-13_13h35.09.603,t1_Paradigm,2021.1.4,59.972872408365404,
Y,left,Distractor,0,51,51,51,1681.4673551722608,1683.469289609282,left,1,3,0.5504442147503141,H12S10,2023-01-13_13h35.09.603,t1_Paradigm,2021.1.4,59.972872408365404,
X,left,Distractor,0,52,52,52,1684.9674514129092,1686.9692540002416,left,1,3,0.5065992212203128,H12S10,2023-01-13_13h35.09.603,t1_Paradigm,2021.1.4,59.972872408365404,
F,left,Pretarget,0,53,53,53,1688.466865948967,1690.468577428488,left,1,3,0.49536280478605477,H12S10,2023-01-13_13h35.09.603,t1_Paradigm,2021.1.4,59.972872408365404,
M,left,Lure,0,54,54,54,1691.967371533172,1693.9683374684737,left,1,3,0.7076228367513977,H12S10,2023-01-13_13h35.09.603,t1_Paradigm,2021.1.4,59.972872408365404,
V,left,Distractor,0,55,55,55,1695.4673580594808,1697.4690810878783,left,1,3,0.8064764181526698,H12S10,2023-01-13_13h35.09.603,t1_Paradigm,2021.1.4,59.972872408365404,
F,right,Target,0,56,56,56,1698.967114891444,1700.9695818600485,right,1,3,0.8585150196358882,H12S10,2023-01-13_13h35.09.603,t1_Paradigm,2021.1.4,59.972872408365404,
S,left,Distractor,0,57,57,57,1702.4671752022496,1704.469183102965,left,1,3,0.7664958074365131,H12S10,2023-01-13_13h35.09.603,t1_Paradigm,2021.1.4,59.972872408365404,
D,left,Distractor,0,58,58,58,1705.967179051875,1707.9683984208841,left,1,3,0.4994158192694158,H12S10,2023-01-13_13h35.09.603,t1_Paradigm,2021.1.4,59.972872408365404,
F,right,Target,0,59,59,59,1709.4674796434992,1711.4680368768495,right,1,3,0.8396056571527879,H12S10,2023-01-13_13h35.09.603,t1_Paradigm,2021.1.4,59.972872408365404,
V,left,Pretarget,0,60,60,60,1712.9674494880965,1714.9680532377606,left,1,3,0.8437738396096393,H12S10,2023-01-13_13h35.09.603,t1_Paradigm,2021.1.4,59.972872408365404,
J,left,Distractor,0,61,61,61,1716.467382761246,1718.4692479050009,left,1,3,0.6386401068139094,H12S10,2023-01-13_13h35.09.603,t1_Paradigm,2021.1.4,59.972872408365404,
V,left,Lure,0,62,62,62,1719.967428635955,1721.9690493284652,left,1,3,1.3469587634481286,H12S10,2023-01-13_13h35.09.603,t1_Paradigm,2021.1.4,59.972872408365404,
V,right,Target,0,63,63,63,1723.4673551722608,1725.4675672224876,left,0,3,1.336709776060161,H12S10,2023-01-13_13h35.09.603,t1_Paradigm,2021.1.4,59.972872408365404,
R,left,Distractor,0,0,0,0,1784.514462402949,1786.5189276482051,None,0,4,,H12S10,2023-01-13_13h35.09.603,t1_Paradigm,2021.1.4,59.972872408365404,
F,left,Distractor,0,1,1,1,1788.017515797903,1790.0188057433843,None,0,4,,H12S10,2023-01-13_13h35.09.603,t1_Paradigm,2021.1.4,59.972872408365404,
P,left,Pretarget,0,2,2,2,1791.516501742277,1793.5192247110044,None,0,4,,H12S10,2023-01-13_13h35.09.603,t1_Paradigm,2021.1.4,59.972872408365404,
H,left,Distractor,0,3,3,3,1795.0175565397767,1797.0183104248517,None,0,4,,H12S10,2023-01-13_13h35.09.603,t1_Paradigm,2021.1.4,59.972872408365404,
Z,left,Distractor,0,4,4,4,1798.517383948214,1800.5192263150166,left,1,4,0.6046992383508041,H12S10,2023-01-13_13h35.09.603,t1_Paradigm,2021.1.4,59.972872408365404,
T,left,Distractor,0,5,5,5,1802.0171664443515,1804.0185879187193,left,1,4,0.8332576240227354,H12S10,2023-01-13_13h35.09.603,t1_Paradigm,2021.1.4,59.972872408365404,
P,right,Target,0,6,6,6,1805.51714270499,1807.5188942847817,right,1,4,0.8368361721113615,H12S10,2023-01-13_13h35.09.603,t1_Paradigm,2021.1.4,59.972872408365404,
G,left,Distractor,0,7,7,7,1809.0173220333982,1811.0196475282519,None,0,4,,H12S10,2023-01-13_13h35.09.603,t1_Paradigm,2021.1.4,59.972872408365404,
L,left,Distractor,0,8,8,8,1812.517408649981,1814.5192417135204,left,1,4,0.812809694385578,H12S10,2023-01-13_13h35.09.603,t1_Paradigm,2021.1.4,59.972872408365404,
P,left,Lure,0,9,9,9,1816.017465111161,1818.0188974928024,right,0,4,0.8490109348622354,H12S10,2023-01-13_13h35.09.603,t1_Paradigm,2021.1.4,59.972872408365404,
Q,left,Pretarget,0,10,10,10,1819.5174779432473,1821.5178943444498,left,1,4,0.805760387735063,H12S10,2023-01-13_13h35.09.603,t1_Paradigm,2021.1.4,59.972872408365404,
D,left,Distractor,0,11,11,11,1823.0173290910461,1825.0184701843264,left,1,4,0.5694790108773304,H12S10,2023-01-13_13h35.09.603,t1_Paradigm,2021.1.4,59.972872408365404,
M,left,Pretarget,0,12,12,12,1826.517419878057,1828.5301746511122,left,1,4,0.9618364127127279,H12S10,2023-01-13_13h35.09.603,t1_Paradigm,2021.1.4,59.972872408365404,
C,left,Distractor,0,13,13,13,1830.017554614964,1832.0189154577238,left,1,4,0.561202315164337,H12S10,2023-01-13_13h35.09.603,t1_Paradigm,2021.1.4,59.972872408365404,
Q,right,Target,0,14,14,14,1833.5172042990052,1835.5187845704422,right,1,4,0.8211351520239987,H12S10,2023-01-13_13h35.09.603,t1_Paradigm,2021.1.4,59.972872408365404,
R,left,Distractor,0,15,15,15,1837.0175084194525,1839.019842896767,left,1,4,0.7920422457937093,H12S10,2023-01-13_13h35.09.603,t1_Paradigm,2021.1.4,59.972872408365404,
M,right,Target,0,16,16,16,1840.517528629989,1842.5178827955733,right,1,4,0.41421654017540277,H12S10,2023-01-13_13h35.09.603,t1_Paradigm,2021.1.4,59.972872408365404,
S,left,Distractor,0,17,17,17,1844.0174166700344,1846.0189472171369,left,1,4,0.7529274801054271,H12S10,2023-01-13_13h35.09.603,t1_Paradigm,2021.1.4,59.972872408365404,
Z,left,Distractor,0,18,18,18,1847.5171641987363,1849.5187797584094,left,1,4,0.5651411240778543,H12S10,2023-01-13_13h35.09.603,t1_Paradigm,2021.1.4,59.972872408365404,
L,left,Pretarget,0,19,19,19,1851.0174782640497,1853.0187874576623,left,1,4,0.5211119901086931,H12S10,2023-01-13_13h35.09.603,t1_Paradigm,2021.1.4,59.972872408365404,
M,right,Target,0,20,20,20,1854.5172899531826,1856.5174570911076,right,1,4,0.7342558320233366,H12S10,2023-01-13_13h35.09.603,t1_Paradigm,2021.1.4,59.972872408365404,
P,left,Distractor,0,21,21,21,1858.0173361486923,1860.0190133023825,left,1,4,0.800880024484286,H12S10,2023-01-13_13h35.09.603,t1_Paradigm,2021.1.4,59.972872408365404,
F,left,Distractor,0,22,22,22,1861.5175388956577,1863.518861242159,left,1,4,0.9009683733984275,H12S10,2023-01-13_13h35.09.603,t1_Paradigm,2021.1.4,59.972872408365404,
L,right,Target,0,23,23,23,1865.0173082389047,1867.0192240694014,left,0,4,1.1288495457120007,H12S10,2023-01-13_13h35.09.603,t1_Paradigm,2021.1.4,59.972872408365404,
L,left,Lure,0,24,24,24,1868.5174426550093,1870.5175218931436,left,1,4,0.9106469745456707,H12S10,2023-01-13_13h35.09.603,t1_Paradigm,2021.1.4,59.972872408365404,
V,left,Pretarget,0,25,25,25,1872.0172347752105,1874.0185683497875,left,1,4,0.5773364181677607,H12S10,2023-01-13_13h35.09.603,t1_Paradigm,2021.1.4,59.972872408365404,
Z,left,Distractor,0,26,26,26,1875.5172742338764,1877.5183354474193,left,1,4,0.8053648386721761,H12S10,2023-01-13_13h35.09.603,t1_Paradigm,2021.1.4,59.972872408365404,
H,left,Distractor,0,27,27,27,1879.0174166700344,1881.019422645937,left,1,4,0.6484746178120986,H12S10,2023-01-13_13h35.09.603,t1_Paradigm,2021.1.4,59.972872408365404,
X,left,Distractor,0,28,28,28,1882.5173464143627,1884.5176309658782,left,1,4,1.1022479890525574,H12S10,2023-01-13_13h35.09.603,t1_Paradigm,2021.1.4,59.972872408365404,
V,right,Target,0,29,29,29,1886.0174968705742,1888.0194685206461,right,1,4,1.2966223382245516,H12S10,2023-01-13_13h35.09.603,t1_Paradigm,2021.1.4,59.972872408365404,
C,left,Distractor,0,30,30,30,1889.517519326726,1891.5192093125024,left,1,4,0.740472977871832,H12S10,2023-01-13_13h35.09.603,t1_Paradigm,2021.1.4,59.972872408365404,
S,left,Pretarget,0,31,31,31,1893.017494624959,1895.0193132524018,left,1,4,0.8887150141181337,H12S10,2023-01-13_13h35.09.603,t1_Paradigm,2021.1.4,59.972872408365404,
D,left,Distractor,0,32,32,32,1896.5175591061943,1898.518893001572,left,1,4,0.5731355138905201,H12S10,2023-01-13_13h35.09.603,t1_Paradigm,2021.1.4,59.972872408365404,
V,left,Distractor,0,33,33,33,1900.017501041002,1902.019308440369,left,1,4,1.0247264680383523,H12S10,2023-01-13_13h35.09.603,t1_Paradigm,2021.1.4,59.972872408365404,
R,left,Distractor,0,34,34,34,1903.5172508153191,1905.5185272871113,left,1,4,0.7571405748640245,H12S10,2023-01-13_13h35.09.603,t1_Paradigm,2021.1.4,59.972872408365404,
S,right,Target,0,35,35,35,1907.0174349557583,1909.0187133523632,right,1,4,0.4413137361716508,H12S10,2023-01-13_13h35.09.603,t1_Paradigm,2021.1.4,59.972872408365404,
Y,left,Distractor,0,36,36,36,1910.5175283091867,1912.5179899434934,left,1,4,0.7176979493688123,H12S10,2023-01-13_13h35.09.603,t1_Paradigm,2021.1.4,59.972872408365404,
N,left,Pretarget,0,37,37,37,1914.0175674470502,1916.0197764907189,left,1,4,0.5283181690156198,H12S10,2023-01-13_13h35.09.603,t1_Paradigm,2021.1.4,59.972872408365404,
Z,left,Pretarget,0,38,38,38,1917.51745163747,1919.5181006202383,left,1,4,0.6937744491351623,H12S10,2023-01-13_13h35.09.603,t1_Paradigm,2021.1.4,59.972872408365404,
P,left,Pretarget,0,39,39,39,1921.017518685121,1923.0188067057916,left,1,4,0.8892424128680432,H12S10,2023-01-13_13h35.09.603,t1_Paradigm,2021.1.4,59.972872408365404,
M,left,Distractor,0,40,40,40,1924.5174253316927,1926.518712389956,left,1,4,0.7973066092308727,H12S10,2023-01-13_13h35.09.603,t1_Paradigm,2021.1.4,59.972872408365404,
N,right,Target,0,41,41,41,1928.0175860535746,1930.0302628717054,left,0,4,1.1097079224655317,H12S10,2023-01-13_13h35.09.603,t1_Paradigm,2021.1.4,59.972872408365404,
Z,right,Target,0,42,42,42,1931.5175267051764,1933.5189067960655,right,1,4,1.0291721443627466,H12S10,2023-01-13_13h35.09.603,t1_Paradigm,2021.1.4,59.972872408365404,
P,right,Target,0,43,43,43,1935.0172148854763,1937.0189096832855,left,0,4,0.7615820807623095,H12S10,2023-01-13_13h35.09.603,t1_Paradigm,2021.1.4,59.972872408365404,
X,left,Pretarget,0,44,44,44,1938.5175674470502,1940.517455807898,left,1,4,0.6703982373837789,H12S10,2023-01-13_13h35.09.603,t1_Paradigm,2021.1.4,59.972872408365404,
Z,left,Lure,0,45,45,45,1942.0175712966757,1944.019352069463,left,1,4,0.832486736435385,H12S10,2023-01-13_13h35.09.603,t1_Paradigm,2021.1.4,59.972872408365404,
R,left,Pretarget,0,46,46,46,1945.5175020034094,1947.5191592673655,left,1,4,0.9649696874039364,H12S10,2023-01-13_13h35.09.603,t1_Paradigm,2021.1.4,59.972872408365404,
K,left,Distractor,0,47,47,47,1949.0174978329815,1951.0190027159115,left,1,4,0.5689679730367061,H12S10,2023-01-13_13h35.09.603,t1_Paradigm,2021.1.4,59.972872408365404,
X,right,Target,0,48,48,48,1952.5174644695562,1954.518188520031,right,1,4,1.1979599549067643,H12S10,2023-01-13_13h35.09.603,t1_Paradigm,2021.1.4,59.972872408365404,
B,left,Distractor,0,49,49,49,1956.0173890810493,1958.0179103845585,left,1,4,0.7220563675055018,H12S10,2023-01-13_13h35.09.603,t1_Paradigm,2021.1.4,59.972872408365404,
R,right,Target,0,50,50,50,1959.5175789959285,1961.5191891019658,right,1,4,0.4207410144917958,H12S10,2023-01-13_13h35.09.603,t1_Paradigm,2021.1.4,59.972872408365404,
Y,left,Pretarget,0,51,51,51,1963.0175100234628,1965.0164783237196,left,1,4,0.49160300347830344,H12S10,2023-01-13_13h35.09.603,t1_Paradigm,2021.1.4,59.972872408365404,
W,left,Pretarget,0,52,52,52,1966.5172755170843,1968.5183011215886,left,1,4,0.7015766784516018,H12S10,2023-01-13_13h35.09.603,t1_Paradigm,2021.1.4,59.972872408365404,
Z,left,Distractor,0,53,53,53,1970.0175408204705,1972.018829482744,left,1,4,0.913321502150211,H12S10,2023-01-13_13h35.09.603,t1_Paradigm,2021.1.4,59.972872408365404,
Q,left,Distractor,0,54,54,54,1973.5173906850596,1975.5185747658306,left,1,4,0.6295857866680308,H12S10,2023-01-13_13h35.09.603,t1_Paradigm,2021.1.4,59.972872408365404,
Y,right,Target,0,55,55,55,1977.0173688705127,1979.018529853529,right,1,4,1.1296169044780981,H12S10,2023-01-13_13h35.09.603,t1_Paradigm,2021.1.4,59.972872408365404,
W,right,Target,0,56,56,56,1980.5176255122406,1982.5193729216026,left,0,4,1.148996562926186,H12S10,2023-01-13_13h35.09.603,t1_Paradigm,2021.1.4,59.972872408365404,
H,left,Pretarget,0,57,57,57,1984.0166303839414,1986.0199291925474,left,1,4,0.6721296066389186,H12S10,2023-01-13_13h35.09.603,t1_Paradigm,2021.1.4,59.972872408365404,
M,left,Distractor,0,58,58,58,1987.5172325295953,1989.518145532542,left,1,4,0.933772319007403,H12S10,2023-01-13_13h35.09.603,t1_Paradigm,2021.1.4,59.972872408365404,
R,left,Pretarget,0,59,59,59,1991.0174850008952,1993.0193392373767,left,1,4,0.7447669147750275,H12S10,2023-01-13_13h35.09.603,t1_Paradigm,2021.1.4,59.972872408365404,
J,left,Distractor,0,60,60,60,1994.5175841287619,1996.5191935931962,left,1,4,0.8290259227378556,H12S10,2023-01-13_13h35.09.603,t1_Paradigm,2021.1.4,59.972872408365404,
H,right,Target,0,61,61,61,1998.0174583743155,2000.0186995578697,left,0,4,0.913385983383705,H12S10,2023-01-13_13h35.09.603,t1_Paradigm,2021.1.4,59.972872408365404,
Z,left,Distractor,0,62,62,62,2001.517161953121,2003.5183030464013,left,1,4,0.5656435002601938,H12S10,2023-01-13_13h35.09.603,t1_Paradigm,2021.1.4,59.972872408365404,
R,right,Target,0,63,63,63,2005.0176203794053,2007.0188984552096,left,0,4,0.8412019686984422,H12S10,2023-01-13_13h35.09.603,t1_Paradigm,2021.1.4,59.972872408365404,
J,left,Pretarget,0,0,0,0,2025.1958086556278,2027.1854316681784,None,0,4,,H12S10,2023-01-13_13h35.09.603,t1_Paradigm,2021.1.4,59.972872408365404,
G,left,Pretarget,0,1,1,1,2028.6838446598958,2030.6860845005722,None,0,4,,H12S10,2023-01-13_13h35.09.603,t1_Paradigm,2021.1.4,59.972872408365404,
Z,left,Distractor,0,2,2,2,2032.1842366801338,2034.1852478485398,None,0,4,,H12S10,2023-01-13_13h35.09.603,t1_Paradigm,2021.1.4,59.972872408365404,
F,left,Distractor,0,3,3,3,2035.6842729307773,2037.6855805203795,None,0,4,,H12S10,2023-01-13_13h35.09.603,t1_Paradigm,2021.1.4,59.972872408365404,
J,right,Target,0,4,4,4,2039.184214865587,2041.1848096327903,right,1,4,0.6435528710826475,H12S10,2023-01-13_13h35.09.603,t1_Paradigm,2021.1.4,59.972872408365404,
G,right,Target,0,5,5,5,2042.684339016023,2044.6860652524429,right,1,4,0.7740590391458682,H12S10,2023-01-13_13h35.09.603,t1_Paradigm,2021.1.4,59.972872408365404,
H,left,Distractor,0,6,6,6,2046.1840310459502,2048.186092841428,left,1,4,0.921991501309094,H12S10,2023-01-13_13h35.09.603,t1_Paradigm,2021.1.4,59.972872408365404,
P,left,Distractor,0,7,7,7,2049.683901121076,2051.684623246736,left,1,4,0.7514242011857277,H12S10,2023-01-13_13h35.09.603,t1_Paradigm,2021.1.4,59.972872408365404,
G,left,Lure,0,8,8,8,2053.1842716475694,2055.184608489837,left,1,4,1.1394135608206852,H12S10,2023-01-13_13h35.09.603,t1_Paradigm,2021.1.4,59.972872408365404,
S,left,Distractor,0,9,9,9,2056.684268439547,2058.6863979242808,left,1,4,0.5978940621444053,H12S10,2023-01-13_13h35.09.603,t1_Paradigm,2021.1.4,59.972872408365404,
R,left,Pretarget,0,10,10,10,2060.184149421946,2062.185954575698,left,1,4,0.5700667204328056,H12S10,2023-01-13_13h35.09.603,t1_Paradigm,2021.1.4,59.972872408365404,
T,left,Pretarget,0,11,11,11,2063.6842386049466,2065.686406585939,left,1,4,0.70150193155132,H12S10,2023-01-13_13h35.09.603,t1_Paradigm,2021.1.4,59.972872408365404,
X,left,Distractor,0,12,12,12,2067.184269401954,2069.184901703011,left,1,4,0.6109946599281102,H12S10,2023-01-13_13h35.09.603,t1_Paradigm,2021.1.4,59.972872408365404,
F,left,Pretarget,0,13,13,13,2070.6839226148204,2072.6864922401164,left,1,4,0.9334961083495728,H12S10,2023-01-13_13h35.09.603,t1_Paradigm,2021.1.4,59.972872408365404,
R,right,Target,0,14,14,14,2074.184279026018,2076.1839784343956,right,1,4,1.0360158168296039,H12S10,2023-01-13_13h35.09.603,t1_Paradigm,2021.1.4,59.972872408365404,
T,right,Target,0,15,15,15,2077.6841946550503,2079.685804440287,right,1,4,1.0382255021049787,H12S10,2023-01-13_13h35.09.603,t1_Paradigm,2021.1.4,59.972872408365404,
C,left,Distractor,0,16,16,16,2081.1840214218846,2083.185678044236,left,1,4,0.5465631502247561,H12S10,2023-01-13_13h35.09.603,t1_Paradigm,2021.1.4,59.972872408365404,
F,right,Target,0,17,17,17,2084.684211978367,2086.685762094401,right,1,4,0.48619331666486687,H12S10,2023-01-13_13h35.09.603,t1_Paradigm,2021.1.4,59.972872408365404,
M,left,Distractor,0,18,18,18,2088.1841622540323,2090.18555678102,left,1,4,0.5864529739319551,H12S10,2023-01-13_13h35.09.603,t1_Paradigm,2021.1.4,59.972872408365404,
N,left,Distractor,0,19,19,19,2091.684312389443,2093.6859099841968,left,1,4,0.7820604866064969,H12S10,2023-01-13_13h35.09.603,t1_Paradigm,2021.1.4,59.972872408365404,
R,left,Lure,0,20,20,20,2095.1841532715716,2097.1862532425075,left,1,4,0.7058869762659015,H12S10,2023-01-13_13h35.09.603,t1_Paradigm,2021.1.4,59.972872408365404,
F,right,Target,0,21,21,21,2098.684082374295,2100.6848391465883,right,1,4,0.45520639448659495,H12S10,2023-01-13_13h35.09.603,t1_Paradigm,2021.1.4,59.972872408365404,
P,left,Distractor,0,22,22,22,2102.1842045999183,2104.197009418109,left,1,4,0.8149943570915639,H12S10,2023-01-13_13h35.09.603,t1_Paradigm,2021.1.4,59.972872408365404,
L,left,Pretarget,0,23,23,23,2105.6842815924356,2107.6845186652317,left,1,4,0.5913660590031213,H12S10,2023-01-13_13h35.09.603,t1_Paradigm,2021.1.4,59.972872408365404,
T,left,Distractor,0,24,24,24,2109.1841548755838,2111.186459518296,left,1,4,0.6095411053429416,H12S10,2023-01-13_13h35.09.603,t1_Paradigm,2021.1.4,59.972872408365404,
F,left,Distractor,0,25,25,25,2112.684075958252,2114.685975107035,right,0,4,1.1100373862846027,H12S10,2023-01-13_13h35.09.603,t1_Paradigm,2021.1.4,59.972872408365404,
V,left,Distractor,0,26,26,26,2116.184032970763,2118.185689593114,left,1,4,1.4182891235868738,H12S10,2023-01-13_13h35.09.603,t1_Paradigm,2021.1.4,59.972872408365404,
L,right,Target,0,27,27,27,2119.6842039583134,2121.68585993906,left,0,4,1.3582885333107697,H12S10,2023-01-13_13h35.09.603,t1_Paradigm,2021.1.4,59.972872408365404,
S,left,Pretarget,0,28,28,28,2123.1841651412524,2125.184209411951,left,1,4,0.7238445187413163,H12S10,2023-01-13_13h35.09.603,t1_Paradigm,2021.1.4,59.972872408365404,
W,left,Distractor,0,29,29,29,2126.6842963493345,2128.6845388757683,left,1,4,0.5832359698779328,H12S10,2023-01-13_13h35.09.603,t1_Paradigm,2021.1.4,59.972872408365404,
Q,left,Distractor,0,30,30,30,2130.1841292114095,2132.1859625957513,left,1,4,0.682062924703132,H12S10,2023-01-13_13h35.09.603,t1_Paradigm,2021.1.4,59.972872408365404,
L,right,Target,0,31,31,31,2133.684282554843,2135.6862185958744,right,1,4,0.4299178810615558,H12S10,2023-01-13_13h35.09.603,t1_Paradigm,2021.1.4,59.972872408365404,
S,right,Target,0,32,32,32,2137.184258815483,2139.1855503649767,right,1,4,0.45042098867270397,H12S10,2023-01-13_13h35.09.603,t1_Paradigm,2021.1.4,59.972872408365404,
Z,left,Pretarget,0,33,33,33,2140.684248870615,2142.6864739543926,left,1,4,0.6938232110624085,H12S10,2023-01-13_13h35.09.603,t1_Paradigm,2021.1.4,59.972872408365404,
F,left,Distractor,0,34,34,34,2144.183912990755,2146.1968711523787,left,1,4,0.7991598833050375,H12S10,2023-01-13_13h35.09.603,t1_Paradigm,2021.1.4,59.972872408365404,
V,left,Distractor,0,35,35,35,2147.6842873668757,2149.6863927914474,left,1,4,1.261767504409363,H12S10,2023-01-13_13h35.09.603,t1_Paradigm,2021.1.4,59.972872408365404,
M,left,Distractor,0,36,36,36,2151.1839425045528,2153.1858602598622,left,1,4,1.3623444350123464,H12S10,2023-01-13_13h35.09.603,t1_Paradigm,2021.1.4,59.972872408365404,
Z,right,Target,0,37,37,37,2154.684286725271,2156.6860790469345,right,1,4,0.9179686422303348,H12S10,2023-01-13_13h35.09.603,t1_Paradigm,2021.1.4,59.972872408365404,
H,left,Pretarget,0,38,38,38,2158.184107076062,2160.184245983397,left,1,4,0.5558901522072119,H12S10,2023-01-13_13h35.09.603,t1_Paradigm,2021.1.4,59.972872408365404,
L,left,Distractor,0,39,39,39,2161.684345432066,2163.6865612125803,left,1,4,0.9576114482733828,H12S10,2023-01-13_13h35.09.603,t1_Paradigm,2021.1.4,59.972872408365404,
G,left,Distractor,0,40,40,40,2165.18402815873,2167.1863026460396,left,1,4,0.5460585284290573,H12S10,2023-01-13_13h35.09.603,t1_Paradigm,2021.1.4,59.972872408365404,
K,left,Distractor,0,41,41,41,2168.684236680134,2170.6863238189835,left,1,4,0.5177230360968679,H12S10,2023-01-13_13h35.09.603,t1_Paradigm,2021.1.4,59.972872408365404,
H,right,Target,0,42,42,42,2172.184001211348,2174.1861101647446,right,1,4,0.39420618468102475,H12S10,2023-01-13_13h35.09.603,t1_Paradigm,2021.1.4,59.972872408365404,
B,left,Distractor,0,43,43,43,2175.6839524494208,2177.6858564102367,left,1,4,0.6380674749598256,H12S10,2023-01-13_13h35.09.603,t1_Paradigm,2021.1.4,59.972872408365404,
Z,left,Distractor,0,44,44,44,2179.1840996976116,2181.18525073576,left,1,4,0.6909180267066404,H12S10,2023-01-13_13h35.09.603,t1_Paradigm,2021.1.4,59.972872408365404,
T,left,Pretarget,0,45,45,45,2182.6842405297593,2184.6862439392444,left,1,4,1.06202421029775,H12S10,2023-01-13_13h35.09.603,t1_Paradigm,2021.1.4,59.972872408365404,
H,right,Target,0,46,46,46,2186.1843069358074,2188.186016490514,right,1,4,0.6020154074867605,H12S10,2023-01-13_13h35.09.603,t1_Paradigm,2021.1.4,59.972872408365404,
F,left,Distractor,0,47,47,47,2189.684126003389,2191.6859584253234,left,1,4,0.6539491066632763,H12S10,2023-01-13_13h35.09.603,t1_Paradigm,2021.1.4,59.972872408365404,
R,left,Distractor,0,48,48,48,2193.184234755321,2195.1860825757594,left,1,4,0.7540005633291003,H12S10,2023-01-13_13h35.09.603,t1_Paradigm,2021.1.4,59.972872408365404,
T,right,Target,0,49,49,49,2196.6841927302376,2198.6860283601945,left,0,4,1.4302123774450592,H12S10,2023-01-13_13h35.09.603,t1_Paradigm,2021.1.4,59.972872408365404,
H,right,Target,0,50,50,50,2200.1843085398177,2202.19697220506,left,0,4,0.9750938827510254,H12S10,2023-01-13_13h35.09.603,t1_Paradigm,2021.1.4,59.972872408365404,
Y,left,Pretarget,0,51,51,51,2203.684147176331,2205.685592710861,left,1,4,0.5426724616372667,H12S10,2023-01-13_13h35.09.603,t1_Paradigm,2021.1.4,59.972872408365404,
H,left,Distractor,0,52,52,52,2207.184086544723,2209.1849042694266,left,1,4,1.3153462770587794,H12S10,2023-01-13_13h35.09.603,t1_Paradigm,2021.1.4,59.972872408365404,
S,left,Distractor,0,53,53,53,2210.6842876876763,2212.68650603461,left,1,4,0.8216545307222987,H12S10,2023-01-13_13h35.09.603,t1_Paradigm,2021.1.4,59.972872408365404,
Q,left,Distractor,0,54,54,54,2214.1843098230256,2216.1842780636125,left,1,4,0.747889282192773,H12S10,2023-01-13_13h35.09.603,t1_Paradigm,2021.1.4,59.972872408365404,
Y,right,Target,0,55,55,55,2217.6832617623713,2219.684599186574,right,1,4,0.959569303853641,H12S10,2023-01-13_13h35.09.603,t1_Paradigm,2021.1.4,59.972872408365404,
R,left,Distractor,0,56,56,56,2221.1842857628635,2223.185977031848,left,1,4,1.1221993169492634,H12S10,2023-01-13_13h35.09.603,t1_Paradigm,2021.1.4,59.972872408365404,
H,left,Pretarget,0,57,57,57,2224.684297311742,2226.6857335430086,left,1,4,0.7903445607680624,H12S10,2023-01-13_13h35.09.603,t1_Paradigm,2021.1.4,59.972872408365404,
J,left,Distractor,0,58,58,58,2228.1842055623238,2230.2029307843677,left,1,4,0.6010430561400426,H12S10,2023-01-13_13h35.09.603,t1_Paradigm,2021.1.4,59.972872408365404,
V,left,Distractor,0,59,59,59,2231.6842350761235,2233.685773322477,left,1,4,0.8146299258369254,H12S10,2023-01-13_13h35.09.603,t1_Paradigm,2021.1.4,59.972872408365404,
Y,left,Lure,0,60,60,60,2235.183927747654,2237.18533542753,left,1,4,0.722842974400919,H12S10,2023-01-13_13h35.09.603,t1_Paradigm,2021.1.4,59.972872408365404,
H,right,Target,0,61,61,61,2238.684195296655,2240.685536249681,left,0,4,0.9824883725250402,H12S10,2023-01-13_13h35.09.603,t1_Paradigm,2021.1.4,59.972872408365404,
L,left,Distractor,0,62,62,62,2242.18403104595,2244.1857046708155,left,1,4,1.210281324245443,H12S10,2023-01-13_13h35.09.603,t1_Paradigm,2021.1.4,59.972872408365404,
P,left,Distractor,0,63,63,63,2245.683879948132,2247.686102786294,left,1,4,1.2621316148597543,H12S10,2023-01-13_13h35.09.603,t1_Paradigm,2021.1.4,59.972872408365404,
