Letter,CorrAnswer,Stimulus,finaln_nback_run.thisRepN,finaln_nback_run.thisTrialN,finaln_nback_run.thisN,finaln_nback_run.thisIndex,finaln_fixcross.started,finaln_nback_trial.started,finaln_trial_resp.keys,finaln_trial_resp.corr,finaln_level,finaln_money,finaln_trial_resp.rt,Participant,date,expName,psychopyVersion,frameRate,
F,left,Distractor,0,0,0,0,2727.026594144292,2729.0296468934976,None,0,1,2.71,,H12S02,2023-01-09_09h21.46.005,t1_Paradigm,2021.1.4,59.9865678786285,
T,left,Pretarget,0,1,1,1,2730.529690843541,2732.531283944845,None,0,1,2.71,,H12S02,2023-01-09_09h21.46.005,t1_Paradigm,2021.1.4,59.9865678786285,
B,left,Distractor,0,2,2,2,2734.0295009287074,2736.0308935292996,left,1,1,2.71,0.5882875281386077,H12S02,2023-01-09_09h21.46.005,t1_Paradigm,2021.1.4,59.9865678786285,
T,right,Target,0,3,3,3,2737.5298701715656,2739.5299426726997,right,1,1,2.71,0.7695039445534348,H12S02,2023-01-09_09h21.46.005,t1_Paradigm,2021.1.4,59.9865678786285,
Z,left,Distractor,0,4,4,4,2741.0294261821546,2743.0300244772807,left,1,1,2.71,0.5815368969924748,H12S02,2023-01-09_09h21.46.005,t1_Paradigm,2021.1.4,59.9865678786285,
T,right,Target,0,5,5,5,2744.5295201768167,2746.5311103914864,right,1,1,2.71,0.6162437964230776,H12S02,2023-01-09_09h21.46.005,t1_Paradigm,2021.1.4,59.9865678786285,
L,left,Distractor,0,6,6,6,2748.0295230643824,2750.0311739100143,left,1,1,2.71,0.7005350971594453,H12S02,2023-01-09_09h21.46.005,t1_Paradigm,2021.1.4,59.9865678786285,
T,right,Target,0,7,7,7,2751.5296943723224,2753.531466481276,right,1,1,2.71,0.5597746684215963,H12S02,2023-01-09_09h21.46.005,t1_Paradigm,2021.1.4,59.9865678786285,
Z,left,Lure,0,8,8,8,2755.0292661022395,2757.03114632098,left,1,1,2.71,0.8202056977897882,H12S02,2023-01-09_09h21.46.005,t1_Paradigm,2021.1.4,59.9865678786285,
J,left,Distractor,0,9,9,9,2758.5298563772812,2760.5316284862347,left,1,1,2.71,0.7119684712961316,H12S02,2023-01-09_09h21.46.005,t1_Paradigm,2021.1.4,59.9865678786285,
D,left,Pretarget,0,10,10,10,2762.0295686181635,2764.0302163166925,left,1,1,2.71,0.8610517806373537,H12S02,2023-01-09_09h21.46.005,t1_Paradigm,2021.1.4,59.9865678786285,
H,left,Distractor,0,11,11,11,2765.5300690690055,2767.530114301946,left,1,1,2.71,0.8331384998746216,H12S02,2023-01-09_09h21.46.005,t1_Paradigm,2021.1.4,59.9865678786285,
D,right,Target,0,12,12,12,2769.029347585514,2771.031523263082,right,1,1,2.71,0.7878643907606602,H12S02,2023-01-09_09h21.46.005,t1_Paradigm,2021.1.4,59.9865678786285,
S,left,Distractor,0,13,13,13,2772.5296225128695,2774.531546360813,left,1,1,2.71,0.5677799554541707,H12S02,2023-01-09_09h21.46.005,t1_Paradigm,2021.1.4,59.9865678786285,
R,left,Pretarget,0,14,14,14,2776.02954423707,2778.030177820474,left,1,1,2.71,0.6531414510682225,H12S02,2023-01-09_09h21.46.005,t1_Paradigm,2021.1.4,59.9865678786285,
Z,left,Distractor,0,15,15,15,2779.5298005575314,2781.5300424420275,left,1,1,2.71,0.6413612901233137,H12S02,2023-01-09_09h21.46.005,t1_Paradigm,2021.1.4,59.9865678786285,
R,right,Target,0,16,16,16,2783.029605510179,2785.030873639509,right,1,1,2.71,0.9805908529087901,H12S02,2023-01-09_09h21.46.005,t1_Paradigm,2021.1.4,59.9865678786285,
T,left,Distractor,0,17,17,17,2786.5297883674502,2788.5303654894233,left,1,1,2.71,0.8250251030549407,H12S02,2023-01-09_09h21.46.005,t1_Paradigm,2021.1.4,59.9865678786285,
M,left,Distractor,0,18,18,18,2790.029233380221,2792.0311915539205,left,1,1,2.71,0.6040145130828023,H12S02,2023-01-09_09h21.46.005,t1_Paradigm,2021.1.4,59.9865678786285,
R,left,Lure,0,19,19,19,2793.5297947833315,2795.530211504549,left,1,1,2.71,0.8811734286136925,H12S02,2023-01-09_09h21.46.005,t1_Paradigm,2021.1.4,59.9865678786285,
J,left,Distractor,0,20,20,20,2797.0291089089587,2799.0309586520307,left,1,1,2.71,0.8523022336885333,H12S02,2023-01-09_09h21.46.005,t1_Paradigm,2021.1.4,59.9865678786285,
K,left,Distractor,0,21,21,21,2800.5297655905597,2802.5291182124056,left,1,1,2.71,0.5381981846876442,H12S02,2023-01-09_09h21.46.005,t1_Paradigm,2021.1.4,59.9865678786285,
Z,left,Distractor,0,22,22,22,2804.0296276453882,2806.0298971189186,left,1,1,2.71,0.8613417851738632,H12S02,2023-01-09_09h21.46.005,t1_Paradigm,2021.1.4,59.9865678786285,
W,left,Pretarget,0,23,23,23,2807.529759174213,2809.5316939298064,left,1,1,2.71,0.5917897210456431,H12S02,2023-01-09_09h21.46.005,t1_Paradigm,2021.1.4,59.9865678786285,
Q,left,Distractor,0,24,24,24,2811.029432277195,2813.0309086069465,left,1,1,2.71,0.6125914687290788,H12S02,2023-01-09_09h21.46.005,t1_Paradigm,2021.1.4,59.9865678786285,
W,right,Target,0,25,25,25,2814.5296802571975,2816.5319794430397,right,1,1,2.71,0.6152043985202909,H12S02,2023-01-09_09h21.46.005,t1_Paradigm,2021.1.4,59.9865678786285,
D,left,Pretarget,0,26,26,26,2818.0291166082025,2820.030880376231,left,1,1,2.71,0.6842948296107352,H12S02,2023-01-09_09h21.46.005,t1_Paradigm,2021.1.4,59.9865678786285,
W,right,Target,0,27,27,27,2821.529755966272,2823.53102281224,right,1,1,2.71,0.8162511750124395,H12S02,2023-01-09_09h21.46.005,t1_Paradigm,2021.1.4,59.9865678786285,
D,right,Target,0,28,28,28,2825.0294358059764,2827.030995544046,right,1,1,2.71,0.9162476458586752,H12S02,2023-01-09_09h21.46.005,t1_Paradigm,2021.1.4,59.9865678786285,
L,left,Pretarget,0,29,29,29,2828.5296077560633,2830.531078311149,left,1,1,2.71,0.6001658546738327,H12S02,2023-01-09_09h21.46.005,t1_Paradigm,2021.1.4,59.9865678786285,
P,left,Distractor,0,30,30,30,2832.0294887386262,2834.0306834043004,left,1,1,2.71,0.6685065715573728,H12S02,2023-01-09_09h21.46.005,t1_Paradigm,2021.1.4,59.9865678786285,
L,right,Target,0,31,31,31,2835.5296356654726,2837.530970521737,right,1,1,2.71,0.8804490580223501,H12S02,2023-01-09_09h21.46.005,t1_Paradigm,2021.1.4,59.9865678786285,
R,left,Distractor,0,32,32,32,2839.0291955256835,2841.0307607175782,left,1,1,2.71,0.7245548074133694,H12S02,2023-01-09_09h21.46.005,t1_Paradigm,2021.1.4,59.9865678786285,
V,left,Distractor,0,33,33,33,2842.52964817686,2844.531442421023,left,1,1,2.71,0.5838347999379039,H12S02,2023-01-09_09h21.46.005,t1_Paradigm,2021.1.4,59.9865678786285,
L,left,Lure,0,34,34,34,2846.0295070242137,2848.0306365671568,left,1,1,2.71,0.684649957343936,H12S02,2023-01-09_09h21.46.005,t1_Paradigm,2021.1.4,59.9865678786285,
H,left,Distractor,0,35,35,35,2849.5298688886687,2851.531267905142,left,1,1,2.71,0.6560145514085889,H12S02,2023-01-09_09h21.46.005,t1_Paradigm,2021.1.4,59.9865678786285,
K,left,Pretarget,0,36,36,36,2853.0287752752192,2855.029392177239,left,1,1,2.71,0.6938483058474958,H12S02,2023-01-09_09h21.46.005,t1_Paradigm,2021.1.4,59.9865678786285,
F,left,Distractor,0,37,37,37,2856.529750512447,2858.531632015016,left,1,1,2.71,0.5676644667983055,H12S02,2023-01-09_09h21.46.005,t1_Paradigm,2021.1.4,59.9865678786285,
K,right,Target,0,38,38,38,2860.0291759567335,2862.030463334173,right,1,1,2.71,0.7488975650630891,H12S02,2023-01-09_09h21.46.005,t1_Paradigm,2021.1.4,59.9865678786285,
S,left,Pretarget,0,39,39,39,2863.5296934098005,2865.5299269538373,left,1,1,2.71,0.7053445572964847,H12S02,2023-01-09_09h21.46.005,t1_Paradigm,2021.1.4,59.9865678786285,
W,left,Distractor,0,40,40,40,2867.0294104628265,2869.0292978612706,left,1,1,2.71,0.6141470363363624,H12S02,2023-01-09_09h21.46.005,t1_Paradigm,2021.1.4,59.9865678786285,
S,right,Target,0,41,41,41,2870.5296998261474,2872.531199574005,right,1,1,2.71,0.856145438272506,H12S02,2023-01-09_09h21.46.005,t1_Paradigm,2021.1.4,59.9865678786285,
F,left,Pretarget,0,42,42,42,2874.0293549639173,2876.0305027929135,left,1,1,2.71,0.620591301470995,H12S02,2023-01-09_09h21.46.005,t1_Paradigm,2021.1.4,59.9865678786285,
Y,left,Distractor,0,43,43,43,2877.5295054200105,2879.530541289132,left,1,1,2.71,0.5288015808910131,H12S02,2023-01-09_09h21.46.005,t1_Paradigm,2021.1.4,59.9865678786285,
F,right,Target,0,44,44,44,2881.029096398037,2883.0305002261885,right,1,1,2.71,0.6449844250455499,H12S02,2023-01-09_09h21.46.005,t1_Paradigm,2021.1.4,59.9865678786285,
F,left,Lure,0,45,45,45,2884.5293937809765,2886.5292792548425,left,1,1,2.71,0.8420558259822428,H12S02,2023-01-09_09h21.46.005,t1_Paradigm,2021.1.4,59.9865678786285,
B,left,Pretarget,0,46,46,46,2888.0295920367353,2890.0311655690894,left,1,1,2.71,0.6999249323271215,H12S02,2023-01-09_09h21.46.005,t1_Paradigm,2021.1.4,59.9865678786285,
W,left,Distractor,0,47,47,47,2891.529502853751,2893.5297084874474,left,1,1,2.71,0.6096497168764472,H12S02,2023-01-09_09h21.46.005,t1_Paradigm,2021.1.4,59.9865678786285,
B,right,Target,0,48,48,48,2895.0294335605577,2897.03075365955,right,1,1,2.71,0.7405589651316404,H12S02,2023-01-09_09h21.46.005,t1_Paradigm,2021.1.4,59.9865678786285,
R,left,Pretarget,0,49,49,49,2898.529361701105,2900.5312563562766,left,1,1,2.71,0.6961372261866927,H12S02,2023-01-09_09h21.46.005,t1_Paradigm,2021.1.4,59.9865678786285,
N,left,Distractor,0,50,50,50,2902.0293655507267,2904.0303577901796,left,1,1,2.71,1.020851792767644,H12S02,2023-01-09_09h21.46.005,t1_Paradigm,2021.1.4,59.9865678786285,
R,right,Target,0,51,51,51,2905.5295798461884,2907.529671595432,right,1,1,2.71,0.48173098219558597,H12S02,2023-01-09_09h21.46.005,t1_Paradigm,2021.1.4,59.9865678786285,
V,left,Distractor,0,52,52,52,2909.0294877761044,2911.030704576988,left,1,1,2.71,0.9324093172326684,H12S02,2023-01-09_09h21.46.005,t1_Paradigm,2021.1.4,59.9865678786285,
G,left,Distractor,0,53,53,53,2912.529254553374,2914.530894812662,left,1,1,2.71,0.7124759801663458,H12S02,2023-01-09_09h21.46.005,t1_Paradigm,2021.1.4,59.9865678786285,
H,left,Distractor,0,54,54,54,2916.029481360223,2918.0294829639606,left,1,1,2.71,0.6215607649646699,H12S02,2023-01-09_09h21.46.005,t1_Paradigm,2021.1.4,59.9865678786285,
V,left,Lure,0,55,55,55,2919.529747946188,2921.5309291384183,left,1,1,2.71,1.1042971396818757,H12S02,2023-01-09_09h21.46.005,t1_Paradigm,2021.1.4,59.9865678786285,
L,left,Distractor,0,56,56,56,2923.029382232111,2925.030512737576,left,1,1,2.71,0.7728098062798381,H12S02,2023-01-09_09h21.46.005,t1_Paradigm,2021.1.4,59.9865678786285,
K,left,Distractor,0,57,57,57,2926.5294335605577,2928.529764307197,left,1,1,2.71,0.569449087139219,H12S02,2023-01-09_09h21.46.005,t1_Paradigm,2021.1.4,59.9865678786285,
D,left,Pretarget,0,58,58,58,2930.0294207283296,2932.029902893584,left,1,1,2.71,0.6051546428352594,H12S02,2023-01-09_09h21.46.005,t1_Paradigm,2021.1.4,59.9865678786285,
T,left,Pretarget,0,59,59,59,2933.5296837859787,2935.5317385210656,left,1,1,2.71,0.6235673795454204,H12S02,2023-01-09_09h21.46.005,t1_Paradigm,2021.1.4,59.9865678786285,
D,right,Target,0,60,60,60,2937.029309730977,2939.0300982617773,right,1,1,2.71,1.0454142992384732,H12S02,2023-01-09_09h21.46.005,t1_Paradigm,2021.1.4,59.9865678786285,
T,right,Target,0,61,61,61,2940.5294560166076,2942.529497720767,right,1,1,2.71,1.129826542455703,H12S02,2023-01-09_09h21.46.005,t1_Paradigm,2021.1.4,59.9865678786285,
T,left,Lure,0,62,62,62,2944.02945729997,2946.029400838539,left,1,1,2.71,0.7659279671497643,H12S02,2023-01-09_09h21.46.005,t1_Paradigm,2021.1.4,59.9865678786285,
F,left,Distractor,0,63,63,63,2947.5297011090443,2949.5319425510243,left,1,1,2.71,0.7192169870249927,H12S02,2023-01-09_09h21.46.005,t1_Paradigm,2021.1.4,59.9865678786285,
