Letter,CorrAnswer,Stimulus,nback_run.thisRepN,nback_run.thisTrialN,nback_run.thisN,nback_run.thisIndex,fixcross.started,nback_trial.started,trial_resp.keys,trial_resp.corr,currentlevel,trial_resp.rt,Participant,date,expName,psychopyVersion,frameRate,
H,left,Distractor,0,0,0,0,243.6415471251653,245.5785262229931,None,0,1,,H15G01,2022-11-14_09h17.04.677,t1_Paradigm,2021.1.4,60.016211293551095,
Q,left,Pretarget,0,1,1,1,247.07997143579405,249.07875399238014,left,1,1,0.5510344579793127,H15G01,2022-11-14_09h17.04.677,t1_Paradigm,2021.1.4,60.016211293551095,
Q,right,Target,0,2,2,2,250.57705470443216,252.57705887485758,left,0,1,1.3408867222638037,H15G01,2022-11-14_09h17.04.677,t1_Paradigm,2021.1.4,60.016211293551095,
T,left,Distractor,0,3,3,3,254.07704187235413,256.07845853378103,left,1,1,0.8795561897452444,H15G01,2022-11-14_09h17.04.677,t1_Paradigm,2021.1.4,60.016211293551095,
Q,left,Lure,0,4,4,4,257.5767518673881,259.5934585915254,left,1,1,0.9485671059942433,H15G01,2022-11-14_09h17.04.677,t1_Paradigm,2021.1.4,60.016211293551095,
L,left,Distractor,0,5,5,5,261.07714484978123,263.07950081932813,left,1,1,1.030766511355523,H15G01,2022-11-14_09h17.04.677,t1_Paradigm,2021.1.4,60.016211293551095,
V,left,Pretarget,0,6,6,6,264.5769889400317,266.5784841979371,left,1,1,0.603407301709467,H15G01,2022-11-14_09h17.04.677,t1_Paradigm,2021.1.4,60.016211293551095,
V,right,Target,0,7,7,7,268.07705085480893,270.07677271951525,right,1,1,0.4652321258772645,H15G01,2022-11-14_09h17.04.677,t1_Paradigm,2021.1.4,60.016211293551095,
K,left,Distractor,0,8,8,8,271.57678875961255,273.5780809498815,left,1,1,0.6437802275640934,H15G01,2022-11-14_09h17.04.677,t1_Paradigm,2021.1.4,60.016211293551095,
G,left,Pretarget,0,9,9,9,275.0769635966776,277.07871389213597,left,1,1,0.45520064878974154,H15G01,2022-11-14_09h17.04.677,t1_Paradigm,2021.1.4,60.016211293551095,
G,right,Target,0,10,10,10,278.5769417821448,280.57683206787624,right,1,1,0.39712041750453864,H15G01,2022-11-14_09h17.04.677,t1_Paradigm,2021.1.4,60.016211293551095,
G,right,Target,0,11,11,11,282.0771349049205,284.0770944838746,right,1,1,0.5287432134346091,H15G01,2022-11-14_09h17.04.677,t1_Paradigm,2021.1.4,60.016211293551095,
P,left,Pretarget,0,12,12,12,285.5769212508194,287.5784473057124,left,1,1,0.46733305787120116,H15G01,2022-11-14_09h17.04.677,t1_Paradigm,2021.1.4,60.016211293551095,
P,right,Target,0,13,13,13,289.0768272558471,291.0769693711127,right,1,1,0.45696570113841517,H15G01,2022-11-14_09h17.04.677,t1_Paradigm,2021.1.4,60.016211293551095,
G,left,Lure,0,14,14,14,292.5768728097246,294.5776536416797,left,1,1,0.41229499151131677,H15G01,2022-11-14_09h17.04.677,t1_Paradigm,2021.1.4,60.016211293551095,
Y,left,Distractor,0,15,15,15,296.07683431349005,298.07969907493543,left,1,1,0.3981145827583532,H15G01,2022-11-14_09h17.04.677,t1_Paradigm,2021.1.4,60.016211293551095,
B,left,Distractor,0,16,16,16,299.57681089494736,301.5788672354697,left,1,1,0.41893815836556314,H15G01,2022-11-14_09h17.04.677,t1_Paradigm,2021.1.4,60.016211293551095,
T,left,Pretarget,0,17,17,17,303.076978995171,305.0770354563151,left,1,1,0.40885920258915576,H15G01,2022-11-14_09h17.04.677,t1_Paradigm,2021.1.4,60.016211293551095,
T,right,Target,0,18,18,18,306.5767865139992,308.57716313549236,right,1,1,0.4606427331300438,H15G01,2022-11-14_09h17.04.677,t1_Paradigm,2021.1.4,60.016211293551095,
S,left,Distractor,0,19,19,19,310.07710827835854,312.0782836967164,left,1,1,0.46372146947851434,H15G01,2022-11-14_09h17.04.677,t1_Paradigm,2021.1.4,60.016211293551095,
T,left,Lure,0,20,20,20,313.577030002682,315.5793176414127,left,1,1,0.6586356036273173,H15G01,2022-11-14_09h17.04.677,t1_Paradigm,2021.1.4,60.016211293551095,
J,left,Distractor,0,21,21,21,317.0769469149759,319.0787119673241,left,1,1,0.47120770386663935,H15G01,2022-11-14_09h17.04.677,t1_Paradigm,2021.1.4,60.016211293551095,
P,left,Distractor,0,22,22,22,320.577069461322,322.57692189242334,left,1,1,0.4930289735493716,H15G01,2022-11-14_09h17.04.677,t1_Paradigm,2021.1.4,60.016211293551095,
F,left,Distractor,0,23,23,23,324.07694210294676,326.07841297990353,left,1,1,0.43190818134780784,H15G01,2022-11-14_09h17.04.677,t1_Paradigm,2021.1.4,60.016211293551095,
L,left,Distractor,0,24,24,24,327.5769501229952,329.57779447373696,left,1,1,0.4200205441570688,H15G01,2022-11-14_09h17.04.677,t1_Paradigm,2021.1.4,60.016211293551095,
W,left,Pretarget,0,25,25,25,331.0770643284909,333.0796746939868,left,1,1,0.4382632680481038,H15G01,2022-11-14_09h17.04.677,t1_Paradigm,2021.1.4,60.016211293551095,
W,right,Target,0,26,26,26,334.5766405491104,336.57702358664255,right,1,1,0.41287018941420683,H15G01,2022-11-14_09h17.04.677,t1_Paradigm,2021.1.4,60.016211293551095,
V,left,Distractor,0,27,27,27,338.0770813309946,340.07885793221294,left,1,1,0.3188995979712672,H15G01,2022-11-14_09h17.04.677,t1_Paradigm,2021.1.4,60.016211293551095,
W,left,Lure,0,28,28,28,341.57696070945985,343.5788357968786,left,1,1,0.4029971884920087,H15G01,2022-11-14_09h17.04.677,t1_Paradigm,2021.1.4,60.016211293551095,
R,left,Pretarget,0,29,29,29,345.0767496217745,347.0800525986883,left,1,1,0.5817236560646961,H15G01,2022-11-14_09h17.04.677,t1_Paradigm,2021.1.4,60.016211293551095,
R,right,Target,0,30,30,30,348.5769982432885,350.57677817314834,right,1,1,0.4610886478453722,H15G01,2022-11-14_09h17.04.677,t1_Paradigm,2021.1.4,60.016211293551095,
G,left,Distractor,0,31,31,31,352.07684746637005,354.0772561680592,left,1,1,0.40046991070175864,H15G01,2022-11-14_09h17.04.677,t1_Paradigm,2021.1.4,60.016211293551095,
R,left,Lure,0,32,32,32,355.5767274864397,357.5790552254148,left,1,1,0.40273573489957926,H15G01,2022-11-14_09h17.04.677,t1_Paradigm,2021.1.4,60.016211293551095,
S,left,Distractor,0,33,33,33,359.07669187742295,361.0775840276556,left,1,1,0.39235009245521724,H15G01,2022-11-14_09h17.04.677,t1_Paradigm,2021.1.4,60.016211293551095,
R,left,Lure,0,34,34,34,362.57661296014203,364.578099877197,left,1,1,0.3958144327516493,H15G01,2022-11-14_09h17.04.677,t1_Paradigm,2021.1.4,60.016211293551095,
P,left,Pretarget,0,35,35,35,366.07681346136314,368.0786795663271,left,1,1,0.4150420186397241,H15G01,2022-11-14_09h17.04.677,t1_Paradigm,2021.1.4,60.016211293551095,
P,right,Target,0,36,36,36,369.5768705641108,371.57683431349005,left,0,1,0.4209364337343686,H15G01,2022-11-14_09h17.04.677,t1_Paradigm,2021.1.4,60.016211293551095,
Y,left,Pretarget,0,37,37,37,373.07709801269584,375.0769610302618,left,1,1,0.45691533523176986,H15G01,2022-11-14_09h17.04.677,t1_Paradigm,2021.1.4,60.016211293551095,
Y,right,Target,0,38,38,38,376.57700145130775,378.57674128092367,right,1,1,0.4450835175807697,H15G01,2022-11-14_09h17.04.677,t1_Paradigm,2021.1.4,60.016211293551095,
J,left,Distractor,0,39,39,39,380.0767396769138,382.07856022800024,left,1,1,0.4316476901617534,H15G01,2022-11-14_09h17.04.677,t1_Paradigm,2021.1.4,60.016211293551095,
Y,left,Lure,0,40,40,40,383.57667519572124,385.5779776516524,left,1,1,0.4678088071682396,H15G01,2022-11-14_09h17.04.677,t1_Paradigm,2021.1.4,60.016211293551095,
T,left,Distractor,0,41,41,41,387.07692285482926,389.0788739723107,left,1,1,0.5189385433282041,H15G01,2022-11-14_09h17.04.677,t1_Paradigm,2021.1.4,60.016211293551095,
V,left,Distractor,0,42,42,42,390.5767396769138,392.5775253208981,left,1,1,0.4283238611210436,H15G01,2022-11-14_09h17.04.677,t1_Paradigm,2021.1.4,60.016211293551095,
N,left,Pretarget,0,43,43,43,394.0771108447743,396.07849350119386,left,1,1,0.4954381962206753,H15G01,2022-11-14_09h17.04.677,t1_Paradigm,2021.1.4,60.016211293551095,
N,right,Target,0,44,44,44,397.5767422433296,399.57699375206084,right,1,1,0.6929325404817064,H15G01,2022-11-14_09h17.04.677,t1_Paradigm,2021.1.4,60.016211293551095,
N,right,Target,0,45,45,45,401.07682661424315,403.07682885985696,right,1,1,0.42512803205954697,H15G01,2022-11-14_09h17.04.677,t1_Paradigm,2021.1.4,60.016211293551095,
X,left,Distractor,0,46,46,46,404.5769478773818,406.5784145839134,left,1,1,0.42791997146150607,H15G01,2022-11-14_09h17.04.677,t1_Paradigm,2021.1.4,60.016211293551095,
Z,left,Distractor,0,47,47,47,408.0767136919558,410.0783792956986,left,1,1,0.39935961514038354,H15G01,2022-11-14_09h17.04.677,t1_Paradigm,2021.1.4,60.016211293551095,
H,left,Pretarget,0,48,48,48,411.5768740929325,413.5896724868694,left,1,1,0.4401213529627057,H15G01,2022-11-14_09h17.04.677,t1_Paradigm,2021.1.4,60.016211293551095,
H,right,Target,0,49,49,49,415.07709127585485,417.0768894914263,right,1,1,0.6489964673287432,H15G01,2022-11-14_09h17.04.677,t1_Paradigm,2021.1.4,60.016211293551095,
K,left,Distractor,0,50,50,50,418.57670118067927,420.57856664403926,left,1,1,0.4594666731682082,H15G01,2022-11-14_09h17.04.677,t1_Paradigm,2021.1.4,60.016211293551095,
V,left,Pretarget,0,51,51,51,422.07693504530334,424.0788797467462,left,1,1,0.39889701872334626,H15G01,2022-11-14_09h17.04.677,t1_Paradigm,2021.1.4,60.016211293551095,
V,right,Target,0,52,52,52,425.5769183636021,427.57691226836505,right,1,1,0.4049120553522698,H15G01,2022-11-14_09h17.04.677,t1_Paradigm,2021.1.4,60.016211293551095,
R,left,Distractor,0,53,53,53,429.0768295014609,431.0789493607699,left,1,1,0.3751833383162193,H15G01,2022-11-14_09h17.04.677,t1_Paradigm,2021.1.4,60.016211293551095,
V,left,Lure,0,54,54,54,432.57684201273696,434.5769847696065,left,1,1,0.6367950858275435,H15G01,2022-11-14_09h17.04.677,t1_Paradigm,2021.1.4,60.016211293551095,
Y,left,Distractor,0,55,55,55,436.07666300524716,438.0773710151584,left,1,1,0.4326123416358314,H15G01,2022-11-14_09h17.04.677,t1_Paradigm,2021.1.4,60.016211293551095,
Q,left,Distractor,0,56,56,56,439.5767460929528,441.5794401877588,left,1,1,0.4183603940473404,H15G01,2022-11-14_09h17.04.677,t1_Paradigm,2021.1.4,60.016211293551095,
Z,left,Pretarget,0,57,57,57,443.0766710252956,445.07794172183367,left,1,1,0.423922779120403,H15G01,2022-11-14_09h17.04.677,t1_Paradigm,2021.1.4,60.016211293551095,
Z,right,Target,0,58,58,58,446.5765439877223,448.5767358272906,right,1,1,0.5571858354387587,H15G01,2022-11-14_09h17.04.677,t1_Paradigm,2021.1.4,60.016211293551095,
B,left,Distractor,0,59,59,59,450.07674705535874,452.07890573170425,left,1,1,0.35087777830494815,H15G01,2022-11-14_09h17.04.677,t1_Paradigm,2021.1.4,60.016211293551095,
S,left,Pretarget,0,60,60,60,453.5769822031907,455.57684586236064,left,1,1,0.5329948017251809,H15G01,2022-11-14_09h17.04.677,t1_Paradigm,2021.1.4,60.016211293551095,
S,right,Target,0,61,61,61,457.0766835365721,459.07705470443216,right,1,1,0.44089993930447235,H15G01,2022-11-14_09h17.04.677,t1_Paradigm,2021.1.4,60.016211293551095,
T,left,Distractor,0,62,62,62,460.57674705535874,462.5771791755901,left,1,1,0.44453558784425695,H15G01,2022-11-14_09h17.04.677,t1_Paradigm,2021.1.4,60.016211293551095,
D,left,Distractor,0,63,63,63,464.0769664838949,466.07998458867405,left,1,1,0.4940010034683837,H15G01,2022-11-14_09h17.04.677,t1_Paradigm,2021.1.4,60.016211293551095,
R,left,Distractor,0,0,0,0,489.6918094128423,491.6955089009707,left,1,1,0.7183041253847477,H15G01,2022-11-14_09h17.04.677,t1_Paradigm,2021.1.4,60.016211293551095,
V,left,Distractor,0,1,1,1,493.1935366105604,495.19577548739426,left,1,1,0.45033055433259506,H15G01,2022-11-14_09h17.04.677,t1_Paradigm,2021.1.4,60.016211293551095,
N,left,Pretarget,0,2,2,2,496.69375892631433,498.69542356765123,left,1,1,0.43843874671665617,H15G01,2022-11-14_09h17.04.677,t1_Paradigm,2021.1.4,60.016211293551095,
N,right,Target,0,3,3,3,500.1937345453657,502.1936553072833,right,1,1,0.7965047343955121,H15G01,2022-11-14_09h17.04.677,t1_Paradigm,2021.1.4,60.016211293551095,
S,left,Distractor,0,4,4,4,503.6937316581484,505.6955781941929,left,1,1,0.43033208135057066,H15G01,2022-11-14_09h17.04.677,t1_Paradigm,2021.1.4,60.016211293551095,
N,left,Lure,0,5,5,5,507.19350420956334,509.19482719681946,left,1,1,0.6269249721221968,H15G01,2022-11-14_09h17.04.677,t1_Paradigm,2021.1.4,60.016211293551095,
Z,left,Distractor,0,6,6,6,510.69360718699045,512.6952965300775,left,1,1,0.5344477137728063,H15G01,2022-11-14_09h17.04.677,t1_Paradigm,2021.1.4,60.016211293551095,
L,left,Pretarget,0,7,7,7,514.1935590666972,516.1951637180687,left,1,1,0.5225424324744381,H15G01,2022-11-14_09h17.04.677,t1_Paradigm,2021.1.4,60.016211293551095,
L,right,Target,0,8,8,8,517.6933223148553,519.6933688311387,right,1,1,0.4485783340624039,H15G01,2022-11-14_09h17.04.677,t1_Paradigm,2021.1.4,60.016211293551095,
H,left,Distractor,0,9,9,9,521.1936745554003,523.1958669159512,left,1,1,0.5301008473020374,H15G01,2022-11-14_09h17.04.677,t1_Paradigm,2021.1.4,60.016211293551095,
L,left,Lure,0,10,10,10,524.6936241894937,526.6953873170305,left,1,1,0.4385561602312009,H15G01,2022-11-14_09h17.04.677,t1_Paradigm,2021.1.4,60.016211293551095,
X,left,Pretarget,0,11,11,11,528.1934916982868,530.1961796978558,left,1,1,0.4896990492711666,H15G01,2022-11-14_09h17.04.677,t1_Paradigm,2021.1.4,60.016211293551095,
X,right,Target,0,12,12,12,531.6937271669208,533.6933624150997,right,1,1,0.6724705086762697,H15G01,2022-11-14_09h17.04.677,t1_Paradigm,2021.1.4,60.016211293551095,
X,right,Target,0,13,13,13,535.1936241894937,537.1935645203303,right,1,1,0.5805318768066172,H15G01,2022-11-14_09h17.04.677,t1_Paradigm,2021.1.4,60.016211293551095,
R,left,Distractor,0,14,14,14,538.6934477484192,540.695315457393,left,1,1,1.0466837418853174,H15G01,2022-11-14_09h17.04.677,t1_Paradigm,2021.1.4,60.016211293551095,
T,left,Distractor,0,15,15,15,542.1933601694859,544.1948711466871,left,1,1,0.6348269658424215,H15G01,2022-11-14_09h17.04.677,t1_Paradigm,2021.1.4,60.016211293551095,
V,left,Pretarget,0,16,16,16,545.6932145253991,547.6951556980202,left,1,1,0.7505982956436128,H15G01,2022-11-14_09h17.04.677,t1_Paradigm,2021.1.4,60.016211293551095,
V,right,Target,0,17,17,17,549.1937149764467,551.1934195178474,right,1,1,0.5965928266114133,H15G01,2022-11-14_09h17.04.677,t1_Paradigm,2021.1.4,60.016211293551095,
N,left,Distractor,0,18,18,18,552.6936110366137,554.6942548861343,left,1,1,0.5834617610489659,H15G01,2022-11-14_09h17.04.677,t1_Paradigm,2021.1.4,60.016211293551095,
B,left,Distractor,0,19,19,19,556.1935959589218,558.1953802593875,left,1,1,0.6502986024584061,H15G01,2022-11-14_09h17.04.677,t1_Paradigm,2021.1.4,60.016211293551095,
V,left,Lure,0,20,20,20,559.6935882596749,561.6945320590225,left,1,1,0.46341253719720044,H15G01,2022-11-14_09h17.04.677,t1_Paradigm,2021.1.4,60.016211293551095,
P,left,Distractor,0,21,21,21,563.1933043499462,565.1944557081574,left,1,1,0.4512875065602202,H15G01,2022-11-14_09h17.04.677,t1_Paradigm,2021.1.4,60.016211293551095,
K,left,Pretarget,0,22,22,22,566.6933438085862,568.6955515676309,left,1,1,0.4222462681104844,H15G01,2022-11-14_09h17.04.677,t1_Paradigm,2021.1.4,60.016211293551095,
K,right,Target,0,23,23,23,570.1933649815155,572.193313653203,right,1,1,0.38059270085705066,H15G01,2022-11-14_09h17.04.677,t1_Paradigm,2021.1.4,60.016211293551095,
J,left,Pretarget,0,24,24,24,573.6934317083214,575.6936065453865,left,1,1,0.464349278901409,H15G01,2022-11-14_09h17.04.677,t1_Paradigm,2021.1.4,60.016211293551095,
J,right,Target,0,25,25,25,577.1933620942978,579.1936691017672,right,1,1,0.6922120192944021,H15G01,2022-11-14_09h17.04.677,t1_Paradigm,2021.1.4,60.016211293551095,
H,left,Distractor,0,26,26,26,580.6934243298765,582.6954088107614,left,1,1,0.4224785287251507,H15G01,2022-11-14_09h17.04.677,t1_Paradigm,2021.1.4,60.016211293551095,
J,left,Lure,0,27,27,27,584.1932754777704,586.1950273772386,left,1,1,0.6188157403403238,H15G01,2022-11-14_09h17.04.677,t1_Paradigm,2021.1.4,60.016211293551095,
V,left,Distractor,0,28,28,28,587.6937438486225,589.6951117481526,left,1,1,0.5427205545511242,H15G01,2022-11-14_09h17.04.677,t1_Paradigm,2021.1.4,60.016211293551095,
Z,left,Pretarget,0,29,29,29,591.1933672271289,593.2096931593474,left,1,1,0.4839560526988862,H15G01,2022-11-14_09h17.04.677,t1_Paradigm,2021.1.4,60.016211293551095,
Z,right,Target,0,30,30,30,594.693372680762,596.6932947258874,right,1,1,0.5364594628235864,H15G01,2022-11-14_09h17.04.677,t1_Paradigm,2021.1.4,60.016211293551095,
T,left,Distractor,0,31,31,31,598.1936299639287,600.1955053721495,left,1,1,0.4585793349647247,H15G01,2022-11-14_09h17.04.677,t1_Paradigm,2021.1.4,60.016211293551095,
Z,left,Lure,0,32,32,32,601.6933033875403,603.6955332819193,left,1,1,0.7022143034041619,H15G01,2022-11-14_09h17.04.677,t1_Paradigm,2021.1.4,60.016211293551095,
F,left,Distractor,0,33,33,33,605.1934082897792,607.1939911869285,left,1,1,0.5640230874751069,H15G01,2022-11-14_09h17.04.677,t1_Paradigm,2021.1.4,60.016211293551095,
Y,left,Pretarget,0,34,34,34,608.6933505454272,610.6941118084633,left,1,1,0.519695315136687,H15G01,2022-11-14_09h17.04.677,t1_Paradigm,2021.1.4,60.016211293551095,
Y,right,Target,0,35,35,35,612.1933604902879,614.1937416030087,right,1,1,0.7001303739139075,H15G01,2022-11-14_09h17.04.677,t1_Paradigm,2021.1.4,60.016211293551095,
Y,right,Target,0,36,36,36,615.6937143348428,617.6935651619342,right,1,1,0.6083438021701113,H15G01,2022-11-14_09h17.04.677,t1_Paradigm,2021.1.4,60.016211293551095,
W,left,Distractor,0,37,37,37,619.1933746055738,621.1934977935239,left,1,1,0.5002110876853294,H15G01,2022-11-14_09h17.04.677,t1_Paradigm,2021.1.4,60.016211293551095,
Q,left,Distractor,0,38,38,38,622.693437482757,624.6934150266202,left,1,1,0.48834269861163193,H15G01,2022-11-14_09h17.04.677,t1_Paradigm,2021.1.4,60.016211293551095,
P,left,Pretarget,0,39,39,39,626.1933309765082,628.1940851819008,left,1,1,0.571670043641916,H15G01,2022-11-14_09h17.04.677,t1_Paradigm,2021.1.4,60.016211293551095,
P,right,Target,0,40,40,40,629.6933730015639,631.6934102145906,right,1,1,0.5606184163420949,H15G01,2022-11-14_09h17.04.677,t1_Paradigm,2021.1.4,60.016211293551095,
J,left,Distractor,0,41,41,41,633.1933226356573,635.1957764498002,left,1,1,0.4819446244500796,H15G01,2022-11-14_09h17.04.677,t1_Paradigm,2021.1.4,60.016211293551095,
P,left,Lure,0,42,42,42,636.6936488912443,638.69403738241,left,1,1,1.1276445309040355,H15G01,2022-11-14_09h17.04.677,t1_Paradigm,2021.1.4,60.016211293551095,
L,left,Distractor,0,43,43,43,640.1932719489487,642.193483036634,left,1,1,0.5084018031639062,H15G01,2022-11-14_09h17.04.677,t1_Paradigm,2021.1.4,60.016211293551095,
Z,left,Distractor,0,44,44,44,643.693561633113,645.695412660385,left,1,1,0.49472729909166446,H15G01,2022-11-14_09h17.04.677,t1_Paradigm,2021.1.4,60.016211293551095,
F,left,Pretarget,0,45,45,45,647.1935423849955,649.1959451916277,left,1,1,0.4337829479645734,H15G01,2022-11-14_09h17.04.677,t1_Paradigm,2021.1.4,60.016211293551095,
F,right,Target,0,46,46,46,650.6933768511876,652.6935080591866,right,1,1,0.4722291372863765,H15G01,2022-11-14_09h17.04.677,t1_Paradigm,2021.1.4,60.016211293551095,
G,left,Pretarget,0,47,47,47,654.19333290132,656.1945346254379,left,1,1,0.5237640463137723,H15G01,2022-11-14_09h17.04.677,t1_Paradigm,2021.1.4,60.016211293551095,
G,right,Target,0,48,48,48,657.6936309263347,659.6936193774645,right,1,1,0.5127364791601394,H15G01,2022-11-14_09h17.04.677,t1_Paradigm,2021.1.4,60.016211293551095,
V,left,Distractor,0,49,49,49,661.1935282697095,663.1959657229527,left,1,1,0.4497056321274613,H15G01,2022-11-14_09h17.04.677,t1_Paradigm,2021.1.4,60.016211293551095,
G,left,Lure,0,50,50,50,664.6937364701776,666.6953882794364,left,1,1,0.37453756398372207,H15G01,2022-11-14_09h17.04.677,t1_Paradigm,2021.1.4,60.016211293551095,
Q,left,Pretarget,0,51,51,51,668.1937130516349,670.1961139334553,left,1,1,0.6334994873586766,H15G01,2022-11-14_09h17.04.677,t1_Paradigm,2021.1.4,60.016211293551095,
Q,right,Target,0,52,52,52,671.693561312311,673.6935221744725,right,1,1,0.5443717222060513,H15G01,2022-11-14_09h17.04.677,t1_Paradigm,2021.1.4,60.016211293551095,
Y,left,Distractor,0,53,53,53,675.1933460542,677.1958258533009,left,1,1,0.3699703065713038,H15G01,2022-11-14_09h17.04.677,t1_Paradigm,2021.1.4,60.016211293551095,
V,left,Distractor,0,54,54,54,678.6936415127993,680.6931853324213,left,1,1,0.4566525984319014,H15G01,2022-11-14_09h17.04.677,t1_Paradigm,2021.1.4,60.016211293551095,
B,left,Distractor,0,55,55,55,682.1936415127993,684.1935468762231,left,1,1,0.380377121944548,H15G01,2022-11-14_09h17.04.677,t1_Paradigm,2021.1.4,60.016211293551095,
J,left,Pretarget,0,56,56,56,685.6933017835304,687.6936431168092,left,1,1,0.4322142264118156,H15G01,2022-11-14_09h17.04.677,t1_Paradigm,2021.1.4,60.016211293551095,
J,right,Target,0,57,57,57,689.193326485281,691.1933784551975,right,1,1,0.5965986010469351,H15G01,2022-11-14_09h17.04.677,t1_Paradigm,2021.1.4,60.016211293551095,
H,left,Distractor,0,58,58,58,692.6930945454683,694.6955259034744,left,1,1,0.45429983690428344,H15G01,2022-11-14_09h17.04.677,t1_Paradigm,2021.1.4,60.016211293551095,
J,left,Lure,0,59,59,59,696.193437161955,698.1956458834052,left,1,1,0.9541423231448789,H15G01,2022-11-14_09h17.04.677,t1_Paradigm,2021.1.4,60.016211293551095,
D,left,Pretarget,0,60,60,60,699.6935507258463,701.6940896731285,left,1,1,0.6716781278510098,H15G01,2022-11-14_09h17.04.677,t1_Paradigm,2021.1.4,60.016211293551095,
D,right,Target,0,61,61,61,703.1932802897995,705.1933938536913,right,1,1,0.42036957668278774,H15G01,2022-11-14_09h17.04.677,t1_Paradigm,2021.1.4,60.016211293551095,
R,left,Distractor,0,62,62,62,706.6934153474222,708.6951624348612,left,1,1,0.47060363378795955,H15G01,2022-11-14_09h17.04.677,t1_Paradigm,2021.1.4,60.016211293551095,
F,left,Distractor,0,63,63,63,710.1937268461188,712.1934345955392,left,1,1,0.508457622703645,H15G01,2022-11-14_09h17.04.677,t1_Paradigm,2021.1.4,60.016211293551095,
F,left,Distractor,0,0,0,0,868.4676025315121,870.4602430138957,None,0,2,,H15G01,2022-11-14_09h17.04.677,t1_Paradigm,2021.1.4,60.016211293551095,
N,left,Pretarget,0,1,1,1,871.9598500315028,873.9613555550709,None,0,2,,H15G01,2022-11-14_09h17.04.677,t1_Paradigm,2021.1.4,60.016211293551095,
V,left,Distractor,0,2,2,2,875.460219595353,877.4607450689532,left,1,2,0.5689708160043665,H15G01,2022-11-14_09h17.04.677,t1_Paradigm,2021.1.4,60.016211293551095,
N,right,Target,0,3,3,3,878.9600604775842,880.9601223923614,right,1,2,0.4938319408388452,H15G01,2022-11-14_09h17.04.677,t1_Paradigm,2021.1.4,60.016211293551095,
N,left,Lure,0,4,4,4,882.4602901717831,884.4599148334974,None,0,2,,H15G01,2022-11-14_09h17.04.677,t1_Paradigm,2021.1.4,60.016211293551095,
X,left,Distractor,0,5,5,5,885.9599796354919,887.9608688985072,left,1,2,1.18899469650205,H15G01,2022-11-14_09h17.04.677,t1_Paradigm,2021.1.4,60.016211293551095,
G,left,Pretarget,0,6,6,6,889.4601605677935,891.4602885677732,left,1,2,0.6816589182303687,H15G01,2022-11-14_09h17.04.677,t1_Paradigm,2021.1.4,60.016211293551095,
H,left,Pretarget,0,7,7,7,892.9598179513073,894.9616731490046,left,1,2,0.7319962735646186,H15G01,2022-11-14_09h17.04.677,t1_Paradigm,2021.1.4,60.016211293551095,
G,right,Target,0,8,8,8,896.45993825204,898.4603697306675,right,1,2,0.4497800581807496,H15G01,2022-11-14_09h17.04.677,t1_Paradigm,2021.1.4,60.016211293551095,
H,right,Target,0,9,9,9,899.9601689086444,901.9621476150942,None,0,2,,H15G01,2022-11-14_09h17.04.677,t1_Paradigm,2021.1.4,60.016211293551095,
T,left,Pretarget,0,10,10,10,903.4601249587768,905.4620462416765,None,0,2,,H15G01,2022-11-14_09h17.04.677,t1_Paradigm,2021.1.4,60.016211293551095,
K,left,Distractor,0,11,11,11,906.96011565552,908.9627879357931,left,1,2,0.6671788804524112,H15G01,2022-11-14_09h17.04.677,t1_Paradigm,2021.1.4,60.016211293551095,
T,right,Target,0,12,12,12,910.4601464525076,912.4624844571454,None,0,2,,H15G01,2022-11-14_09h17.04.677,t1_Paradigm,2021.1.4,60.016211293551095,
T,left,Lure,0,13,13,13,913.9601342620335,915.9603392544818,None,0,2,,H15G01,2022-11-14_09h17.04.677,t1_Paradigm,2021.1.4,60.016211293551095,
J,left,Distractor,0,14,14,14,917.459737430017,919.4620751138527,None,0,2,,H15G01,2022-11-14_09h17.04.677,t1_Paradigm,2021.1.4,60.016211293551095,
Q,left,Pretarget,0,15,15,15,920.9599773898781,922.9596524174995,left,1,2,0.7339916617156632,H15G01,2022-11-14_09h17.04.677,t1_Paradigm,2021.1.4,60.016211293551095,
M,left,Distractor,0,16,16,16,924.4597650189849,926.4614521164585,None,0,2,,H15G01,2022-11-14_09h17.04.677,t1_Paradigm,2021.1.4,60.016211293551095,
Q,right,Target,0,17,17,17,927.9597874751216,929.9600752344741,right,1,2,0.9656770781871273,H15G01,2022-11-14_09h17.04.677,t1_Paradigm,2021.1.4,60.016211293551095,
R,left,Distractor,0,18,18,18,931.459827896168,933.4619840060977,left,1,2,0.7442213944109426,H15G01,2022-11-14_09h17.04.677,t1_Paradigm,2021.1.4,60.016211293551095,
W,left,Distractor,0,19,19,19,934.9600713848508,936.9604624424319,None,0,2,,H15G01,2022-11-14_09h17.04.677,t1_Paradigm,2021.1.4,60.016211293551095,
C,left,Pretarget,0,20,20,20,938.459860938769,940.4614623821212,None,0,2,,H15G01,2022-11-14_09h17.04.677,t1_Paradigm,2021.1.4,60.016211293551095,
T,left,Distractor,0,21,21,21,941.9601108434908,943.9622634245993,left,1,2,0.5796358769503058,H15G01,2022-11-14_09h17.04.677,t1_Paradigm,2021.1.4,60.016211293551095,
C,right,Target,0,22,22,22,945.4602693196562,947.4598429738598,None,0,2,,H15G01,2022-11-14_09h17.04.677,t1_Paradigm,2021.1.4,60.016211293551095,
F,left,Pretarget,0,23,23,23,948.9602157457298,950.9611175200212,left,1,2,0.7968354812092002,H15G01,2022-11-14_09h17.04.677,t1_Paradigm,2021.1.4,60.016211293551095,
C,right,Target,0,24,24,24,952.4601637758133,954.4624087478842,right,1,2,1.0874063418696096,H15G01,2022-11-14_09h17.04.677,t1_Paradigm,2021.1.4,60.016211293551095,
F,right,Target,0,25,25,25,955.9601239963708,957.9622855599341,right,1,2,1.3154201799825387,H15G01,2022-11-14_09h17.04.677,t1_Paradigm,2021.1.4,60.016211293551095,
H,left,Distractor,0,26,26,26,959.4600428334766,961.4626153443423,left,1,2,0.6150809639971158,H15G01,2022-11-14_09h17.04.677,t1_Paradigm,2021.1.4,60.016211293551095,
H,left,Lure,0,27,27,27,962.9601339412316,964.95986767561,None,0,2,,H15G01,2022-11-14_09h17.04.677,t1_Paradigm,2021.1.4,60.016211293551095,
P,left,Distractor,0,28,28,28,966.4601243171728,968.461974061237,left,1,2,0.8318314455204927,H15G01,2022-11-14_09h17.04.677,t1_Paradigm,2021.1.4,60.016211293551095,
G,left,Pretarget,0,29,29,29,969.9600996154227,971.9609134899788,left,1,2,0.7886049862886466,H15G01,2022-11-14_09h17.04.677,t1_Paradigm,2021.1.4,60.016211293551095,
K,left,Distractor,0,30,30,30,973.4600919161758,975.4620192943125,left,1,2,1.2558341043272776,H15G01,2022-11-14_09h17.04.677,t1_Paradigm,2021.1.4,60.016211293551095,
G,right,Target,0,31,31,31,976.960082612919,978.96218964015,left,0,2,1.4514934614144295,H15G01,2022-11-14_09h17.04.677,t1_Paradigm,2021.1.4,60.016211293551095,
M,left,Pretarget,0,32,32,32,980.4597486580851,982.4604630840358,left,1,2,0.6413283382330519,H15G01,2022-11-14_09h17.04.677,t1_Paradigm,2021.1.4,60.016211293551095,
B,left,Distractor,0,33,33,33,983.9601454901017,985.962196056189,left,1,2,0.8674510488299347,H15G01,2022-11-14_09h17.04.677,t1_Paradigm,2021.1.4,60.016211293551095,
M,right,Target,0,34,34,34,987.4601791743071,989.4612776001959,right,1,2,0.8085588678000022,H15G01,2022-11-14_09h17.04.677,t1_Paradigm,2021.1.4,60.016211293551095,
M,left,Lure,0,35,35,35,990.9598439362653,992.9596007683849,None,0,2,,H15G01,2022-11-14_09h17.04.677,t1_Paradigm,2021.1.4,60.016211293551095,
T,left,Distractor,0,36,36,36,994.4598750540549,996.4626297804302,left,1,2,0.6711472006177246,H15G01,2022-11-14_09h17.04.677,t1_Paradigm,2021.1.4,60.016211293551095,
F,left,Distractor,0,37,37,37,997.9599315151991,999.9614251690946,left,1,2,0.5964468617230523,H15G01,2022-11-14_09h17.04.677,t1_Paradigm,2021.1.4,60.016211293551095,
X,left,Distractor,0,38,38,38,1001.4600595151783,1003.4604162469509,left,1,2,0.5692775026718664,H15G01,2022-11-14_09h17.04.677,t1_Paradigm,2021.1.4,60.016211293551095,
C,left,Distractor,0,39,39,39,1004.9602250489866,1006.9613212292616,left,1,2,0.7162641457621248,H15G01,2022-11-14_09h17.04.677,t1_Paradigm,2021.1.4,60.016211293551095,
R,left,Distractor,0,40,40,40,1008.4599562169492,1010.4619769484548,left,1,2,0.6877753282765298,H15G01,2022-11-14_09h17.04.677,t1_Paradigm,2021.1.4,60.016211293551095,
B,left,Pretarget,0,41,41,41,1011.9601259211827,1013.9600091492716,right,0,2,0.8054676201754774,H15G01,2022-11-14_09h17.04.677,t1_Paradigm,2021.1.4,60.016211293551095,
H,left,Distractor,0,42,42,42,1015.4600470039022,1017.4605070339035,left,1,2,0.5691610515627872,H15G01,2022-11-14_09h17.04.677,t1_Paradigm,2021.1.4,60.016211293551095,
B,right,Target,0,43,43,43,1018.9600598359802,1020.9615355249666,right,1,2,1.1803542166849184,H15G01,2022-11-14_09h17.04.677,t1_Paradigm,2021.1.4,60.016211293551095,
W,left,Pretarget,0,44,44,44,1022.4598516355122,1024.4620208983224,left,1,2,0.671810619057851,H15G01,2022-11-14_09h17.04.677,t1_Paradigm,2021.1.4,60.016211293551095,
L,left,Pretarget,0,45,45,45,1025.9598965477858,1027.9619994045916,left,1,2,0.6278716586871269,H15G01,2022-11-14_09h17.04.677,t1_Paradigm,2021.1.4,60.016211293551095,
W,right,Target,0,46,46,46,1029.4599097006662,1031.4605545125928,left,0,2,0.8571850655143862,H15G01,2022-11-14_09h17.04.677,t1_Paradigm,2021.1.4,60.016211293551095,
L,right,Target,0,47,47,47,1032.9602343522429,1034.9609632142815,left,0,2,0.9408608014659876,H15G01,2022-11-14_09h17.04.677,t1_Paradigm,2021.1.4,60.016211293551095,
W,right,Target,0,48,48,48,1036.4598705628277,1038.4603623522225,None,0,2,,H15G01,2022-11-14_09h17.04.677,t1_Paradigm,2021.1.4,60.016211293551095,
X,left,Distractor,0,49,49,49,1039.9601397156666,1041.9619182416973,left,1,2,0.6119322928229849,H15G01,2022-11-14_09h17.04.677,t1_Paradigm,2021.1.4,60.016211293551095,
R,left,Distractor,0,50,50,50,1043.460062723198,1045.4620080662444,left,1,2,0.5516924227863456,H15G01,2022-11-14_09h17.04.677,t1_Paradigm,2021.1.4,60.016211293551095,
V,left,Pretarget,0,51,51,51,1046.9601217507575,1048.9608053797206,left,1,2,0.44494428953248644,H15G01,2022-11-14_09h17.04.677,t1_Paradigm,2021.1.4,60.016211293551095,
Z,left,Distractor,0,52,52,52,1050.460103465046,1052.4627314746494,left,1,2,0.5911860304863694,H15G01,2022-11-14_09h17.04.677,t1_Paradigm,2021.1.4,60.016211293551095,
V,right,Target,0,53,53,53,1053.9600425126746,1055.9617918457275,left,0,2,0.5158386340508514,H15G01,2022-11-14_09h17.04.677,t1_Paradigm,2021.1.4,60.016211293551095,
V,left,Lure,0,54,54,54,1057.4598426530579,1059.4599424224652,left,1,2,0.4097038741324468,H15G01,2022-11-14_09h17.04.677,t1_Paradigm,2021.1.4,60.016211293551095,
N,left,Distractor,0,55,55,55,1060.9599109838737,1062.960116617926,left,1,2,0.8138395887576735,H15G01,2022-11-14_09h17.04.677,t1_Paradigm,2021.1.4,60.016211293551095,
B,left,Distractor,0,56,56,56,1064.4598824324999,1066.4622258907707,left,1,2,0.6236059551106337,H15G01,2022-11-14_09h17.04.677,t1_Paradigm,2021.1.4,60.016211293551095,
V,left,Lure,0,57,57,57,1067.9599899011546,1069.9611701315416,right,0,2,1.3324502724894955,H15G01,2022-11-14_09h17.04.677,t1_Paradigm,2021.1.4,60.016211293551095,
J,left,Distractor,0,58,58,58,1071.4597842671023,1073.4608326478865,left,1,2,0.5209018512837247,H15G01,2022-11-14_09h17.04.677,t1_Paradigm,2021.1.4,60.016211293551095,
H,left,Distractor,0,59,59,59,1074.9600235853595,1076.9792453968125,left,1,2,0.45871214697353935,H15G01,2022-11-14_09h17.04.677,t1_Paradigm,2021.1.4,60.016211293551095,
X,left,Pretarget,0,60,60,60,1078.4600120364894,1080.460055023951,left,1,2,0.5616818748180776,H15G01,2022-11-14_09h17.04.677,t1_Paradigm,2021.1.4,60.016211293551095,
P,left,Distractor,0,61,61,61,1081.9600941617891,1083.9619512842983,left,1,2,0.48371865925309976,H15G01,2022-11-14_09h17.04.677,t1_Paradigm,2021.1.4,60.016211293551095,
X,right,Target,0,62,62,62,1085.4600672144252,1087.4609009787023,left,0,2,0.648951234253218,H15G01,2022-11-14_09h17.04.677,t1_Paradigm,2021.1.4,60.016211293551095,
Q,left,Distractor,0,63,63,63,1088.9599870139368,1090.9600033748366,left,1,2,0.7498598095462512,H15G01,2022-11-14_09h17.04.677,t1_Paradigm,2021.1.4,60.016211293551095,
B,left,Pretarget,0,0,0,0,1113.2020333711025,1115.1953529912216,None,0,2,,H15G01,2022-11-14_09h17.04.677,t1_Paradigm,2021.1.4,60.016211293551095,
F,left,Distractor,0,1,1,1,1116.6925735630957,1118.695204459917,None,0,2,,H15G01,2022-11-14_09h17.04.677,t1_Paradigm,2021.1.4,60.016211293551095,
B,right,Target,0,2,2,2,1120.1934079689772,1122.1951797581664,right,1,2,0.7786460104430262,H15G01,2022-11-14_09h17.04.677,t1_Paradigm,2021.1.4,60.016211293551095,
V,left,Distractor,0,3,3,3,1123.6932395479516,1125.6941499838958,left,1,2,0.6556659399434466,H15G01,2022-11-14_09h17.04.677,t1_Paradigm,2021.1.4,60.016211293551095,
G,left,Pretarget,0,4,4,4,1127.1933746055738,1129.1940665753878,left,1,2,0.979966559604236,H15G01,2022-11-14_09h17.04.677,t1_Paradigm,2021.1.4,60.016211293551095,
B,left,Lure,0,5,5,5,1130.6933441293882,1132.6954444197781,left,1,2,0.7422969034910238,H15G01,2022-11-14_09h17.04.677,t1_Paradigm,2021.1.4,60.016211293551095,
G,right,Target,0,6,6,6,1134.193201372519,1136.195921452283,right,1,2,1.385780389248339,H15G01,2022-11-14_09h17.04.677,t1_Paradigm,2021.1.4,60.016211293551095,
Y,left,Pretarget,0,7,7,7,1137.693227357477,1139.6948166103552,left,1,2,0.7348267092011156,H15G01,2022-11-14_09h17.04.677,t1_Paradigm,2021.1.4,60.016211293551095,
P,left,Distractor,0,8,8,8,1141.193132079297,1143.1939514074866,left,1,2,0.7877558235177275,H15G01,2022-11-14_09h17.04.677,t1_Paradigm,2021.1.4,60.016211293551095,
Y,right,Target,0,9,9,9,1144.6932472471985,1146.6952208208168,right,1,2,0.6148535154120509,H15G01,2022-11-14_09h17.04.677,t1_Paradigm,2021.1.4,60.016211293551095,
X,left,Distractor,0,10,10,10,1148.1934204802533,1150.195217291995,left,1,2,1.2264675726969472,H15G01,2022-11-14_09h17.04.677,t1_Paradigm,2021.1.4,60.016211293551095,
Y,right,Target,0,11,11,11,1151.6935096631964,1153.6945484199218,right,1,2,0.5112107450690928,H15G01,2022-11-14_09h17.04.677,t1_Paradigm,2021.1.4,60.016211293551095,
N,left,Distractor,0,12,12,12,1155.1931535730278,1157.1937374325835,left,1,2,0.6600266008977087,H15G01,2022-11-14_09h17.04.677,t1_Paradigm,2021.1.4,60.016211293551095,
Y,right,Target,0,13,13,13,1158.693090375043,1160.7063821623847,right,1,2,1.2274264497359582,H15G01,2022-11-14_09h17.04.677,t1_Paradigm,2021.1.4,60.016211293551095,
Y,left,Lure,0,14,14,14,1162.1932937634815,1164.193313653203,None,0,2,,H15G01,2022-11-14_09h17.04.677,t1_Paradigm,2021.1.4,60.016211293551095,
K,left,Distractor,0,15,15,15,1165.6934259338864,1167.6940851819008,None,0,2,,H15G01,2022-11-14_09h17.04.677,t1_Paradigm,2021.1.4,60.016211293551095,
T,left,Pretarget,0,16,16,16,1169.1930181946036,1171.1934451820039,None,0,2,,H15G01,2022-11-14_09h17.04.677,t1_Paradigm,2021.1.4,60.016211293551095,
J,left,Distractor,0,17,17,17,1172.6929967008728,1174.695721592666,left,1,2,0.7901701790206062,H15G01,2022-11-14_09h17.04.677,t1_Paradigm,2021.1.4,60.016211293551095,
T,right,Target,0,18,18,18,1176.193352470239,1178.194181101685,right,1,2,0.827564137934587,H15G01,2022-11-14_09h17.04.677,t1_Paradigm,2021.1.4,60.016211293551095,
S,left,Pretarget,0,19,19,19,1179.6934981143258,1181.6953828258033,left,1,2,0.8946306735433609,H15G01,2022-11-14_09h17.04.677,t1_Paradigm,2021.1.4,60.016211293551095,
R,left,Distractor,0,20,20,20,1183.1931670467097,1185.1941371518174,None,0,2,,H15G01,2022-11-14_09h17.04.677,t1_Paradigm,2021.1.4,60.016211293551095,
S,right,Target,0,21,21,21,1186.693110585566,1188.6952634874765,right,1,2,1.0626025764245242,H15G01,2022-11-14_09h17.04.677,t1_Paradigm,2021.1.4,60.016211293551095,
Q,left,Distractor,0,22,22,22,1190.1932905554622,1192.1937194676739,left,1,2,0.9241043530259958,H15G01,2022-11-14_09h17.04.677,t1_Paradigm,2021.1.4,60.016211293551095,
D,left,Distractor,0,23,23,23,1193.6933999489283,1195.6938115378348,left,1,2,0.719875413353293,H15G01,2022-11-14_09h17.04.677,t1_Paradigm,2021.1.4,60.016211293551095,
F,left,Distractor,0,24,24,24,1197.193118284813,1199.1935269865016,left,1,2,0.6121555709823951,H15G01,2022-11-14_09h17.04.677,t1_Paradigm,2021.1.4,60.016211293551095,
Z,left,Distractor,0,25,25,25,1200.6933964201066,1202.6950440589403,left,1,2,0.9346455844179218,H15G01,2022-11-14_09h17.04.677,t1_Paradigm,2021.1.4,60.016211293551095,
P,left,Distractor,0,26,26,26,1204.1934082897792,1206.1950013922806,None,0,2,,H15G01,2022-11-14_09h17.04.677,t1_Paradigm,2021.1.4,60.016211293551095,
H,left,Distractor,0,27,27,27,1207.6931458737808,1209.6953828258033,left,1,2,0.7504430274980223,H15G01,2022-11-14_09h17.04.677,t1_Paradigm,2021.1.4,60.016211293551095,
Z,left,Pretarget,0,28,28,28,1211.193442294786,1213.1934063649674,left,1,2,0.48418029326421674,H15G01,2022-11-14_09h17.04.677,t1_Paradigm,2021.1.4,60.016211293551095,
J,left,Pretarget,0,29,29,29,1214.6931612722747,1216.6953796177836,left,1,2,0.6465160266238854,H15G01,2022-11-14_09h17.04.677,t1_Paradigm,2021.1.4,60.016211293551095,
Z,right,Target,0,30,30,30,1218.19335920708,1220.1941223949275,right,1,2,0.7797088273150621,H15G01,2022-11-14_09h17.04.677,t1_Paradigm,2021.1.4,60.016211293551095,
J,right,Target,0,31,31,31,1221.693214846201,1223.695466234311,None,0,2,,H15G01,2022-11-14_09h17.04.677,t1_Paradigm,2021.1.4,60.016211293551095,
V,left,Pretarget,0,32,32,32,1225.1934089313831,1227.1952753571486,left,1,2,0.706532297699141,H15G01,2022-11-14_09h17.04.677,t1_Paradigm,2021.1.4,60.016211293551095,
Z,left,Lure,0,33,33,33,1228.6933925704834,1230.6933781343955,left,1,2,0.744252833002065,H15G01,2022-11-14_09h17.04.677,t1_Paradigm,2021.1.4,60.016211293551095,
V,right,Target,0,34,34,34,1232.1934034777496,1234.1952820939896,right,1,2,0.7784984415443432,H15G01,2022-11-14_09h17.04.677,t1_Paradigm,2021.1.4,60.016211293551095,
X,left,Distractor,0,35,35,35,1235.6931417033556,1237.69604079061,left,1,2,0.7016869049925845,H15G01,2022-11-14_09h17.04.677,t1_Paradigm,2021.1.4,60.016211293551095,
S,left,Distractor,0,36,36,36,1239.1935115880083,1241.193477583001,left,1,2,1.0441160430491436,H15G01,2022-11-14_09h17.04.677,t1_Paradigm,2021.1.4,60.016211293551095,
Q,left,Distractor,0,37,37,37,1242.692903347504,1244.6942433372642,left,1,2,1.223585487946366,H15G01,2022-11-14_09h17.04.677,t1_Paradigm,2021.1.4,60.016211293551095,
P,left,Distractor,0,38,38,38,1246.1931991269053,1248.1944637282063,left,1,2,0.7474355091831058,H15G01,2022-11-14_09h17.04.677,t1_Paradigm,2021.1.4,60.016211293551095,
S,left,Lure,0,39,39,39,1249.6930682397083,1251.6941073172356,left,1,2,0.7998433203260902,H15G01,2022-11-14_09h17.04.677,t1_Paradigm,2021.1.4,60.016211293551095,
K,left,Pretarget,0,40,40,40,1253.1933277684889,1255.1948560689953,left,1,2,0.6110301977296331,H15G01,2022-11-14_09h17.04.677,t1_Paradigm,2021.1.4,60.016211293551095,
L,left,Distractor,0,41,41,41,1256.6932132421912,1258.6942391668385,left,1,2,0.7274710412079912,H15G01,2022-11-14_09h17.04.677,t1_Paradigm,2021.1.4,60.016211293551095,
K,right,Target,0,42,42,42,1260.1933710767526,1262.1940219839162,right,1,2,0.5077236278339115,H15G01,2022-11-14_09h17.04.677,t1_Paradigm,2021.1.4,60.016211293551095,
B,left,Distractor,0,43,43,43,1263.6929152171765,1265.695542905978,left,1,2,0.6062002035164369,H15G01,2022-11-14_09h17.04.677,t1_Paradigm,2021.1.4,60.016211293551095,
N,left,Distractor,0,44,44,44,1267.193195918886,1269.1942090114553,left,1,2,0.5795989847256351,H15G01,2022-11-14_09h17.04.677,t1_Paradigm,2021.1.4,60.016211293551095,
S,left,Pretarget,0,45,45,45,1270.6932106757758,1272.6951807205724,left,1,2,0.6786581367564395,H15G01,2022-11-14_09h17.04.677,t1_Paradigm,2021.1.4,60.016211293551095,
Z,left,Distractor,0,46,46,46,1274.1930044001197,1276.1934538436562,left,1,2,0.6042567852819047,H15G01,2022-11-14_09h17.04.677,t1_Paradigm,2021.1.4,60.016211293551095,
S,right,Target,0,47,47,47,1277.69333290132,1279.694030966371,left,0,2,0.83206242292772,H15G01,2022-11-14_09h17.04.677,t1_Paradigm,2021.1.4,60.016211293551095,
C,left,Distractor,0,48,48,48,1281.1929235580274,1283.1947174825514,left,1,2,0.5951039847450375,H15G01,2022-11-14_09h17.04.677,t1_Paradigm,2021.1.4,60.016211293551095,
T,left,Pretarget,0,49,49,49,1284.693138174534,1286.6934150266202,left,1,2,0.8882467146668205,H15G01,2022-11-14_09h17.04.677,t1_Paradigm,2021.1.4,60.016211293551095,
S,left,Lure,0,50,50,50,1288.1933434877842,1290.193463467715,left,1,2,0.5400405750310711,H15G01,2022-11-14_09h17.04.677,t1_Paradigm,2021.1.4,60.016211293551095,
T,right,Target,0,51,51,51,1291.693332259716,1293.69533630952,right,1,2,1.0863310137210647,H15G01,2022-11-14_09h17.04.677,t1_Paradigm,2021.1.4,60.016211293551095,
N,left,Pretarget,0,52,52,52,1295.1932039389344,1297.194148700688,left,1,2,0.6596393929403348,H15G01,2022-11-14_09h17.04.677,t1_Paradigm,2021.1.4,60.016211293551095,
B,left,Distractor,0,53,53,53,1298.6930605404614,1300.6943184049214,left,1,2,0.6475172495206607,H15G01,2022-11-14_09h17.04.677,t1_Paradigm,2021.1.4,60.016211293551095,
N,right,Target,0,54,54,54,1302.193366585525,1304.194167628003,right,1,2,0.8116533234442613,H15G01,2022-11-14_09h17.04.677,t1_Paradigm,2021.1.4,60.016211293551095,
N,left,Lure,0,55,55,55,1305.6932831770173,1307.6932389063477,left,1,2,1.2486327420742782,H15G01,2022-11-14_09h17.04.677,t1_Paradigm,2021.1.4,60.016211293551095,
X,left,Distractor,0,56,56,56,1309.1933081995694,1311.1952487305866,left,1,2,0.7864331570631293,H15G01,2022-11-14_09h17.04.677,t1_Paradigm,2021.1.4,60.016211293551095,
W,left,Distractor,0,57,57,57,1312.693125021654,1314.6934105353926,left,1,2,0.7604623141114644,H15G01,2022-11-14_09h17.04.677,t1_Paradigm,2021.1.4,60.016211293551095,
S,left,Distractor,0,58,58,58,1316.193436841153,1318.1940813322776,None,0,2,,H15G01,2022-11-14_09h17.04.677,t1_Paradigm,2021.1.4,60.016211293551095,
L,left,Distractor,0,59,59,59,1319.693112510378,1321.6942086906533,left,1,2,0.6714327143567971,H15G01,2022-11-14_09h17.04.677,t1_Paradigm,2021.1.4,60.016211293551095,
K,left,Pretarget,0,60,60,60,1323.1931147559917,1325.192966866291,left,1,2,0.836647003645794,H15G01,2022-11-14_09h17.04.677,t1_Paradigm,2021.1.4,60.016211293551095,
V,left,Pretarget,0,61,61,61,1326.6932645705037,1328.6941631367758,left,1,2,0.535533628385565,H15G01,2022-11-14_09h17.04.677,t1_Paradigm,2021.1.4,60.016211293551095,
K,right,Target,0,62,62,62,1330.1931128311799,1332.1958765400095,right,1,2,0.8899450402095681,H15G01,2022-11-14_09h17.04.677,t1_Paradigm,2021.1.4,60.016211293551095,
V,right,Target,0,63,63,63,1333.6933030667383,1335.6953526704197,right,1,2,0.8144728518141164,H15G01,2022-11-14_09h17.04.677,t1_Paradigm,2021.1.4,60.016211293551095,
R,left,Distractor,0,0,0,0,1453.750359939792,1455.7433382266322,None,0,3,,H15G01,2022-11-14_09h17.04.677,t1_Paradigm,2021.1.4,60.016211293551095,
P,left,Lure,0,1,1,1,1457.2432320411858,1459.2434466576929,None,0,3,,H15G01,2022-11-14_09h17.04.677,t1_Paradigm,2021.1.4,60.016211293551095,
V,left,Distractor,0,2,2,2,1460.7431168732846,1462.7451337551665,None,0,3,,H15G01,2022-11-14_09h17.04.677,t1_Paradigm,2021.1.4,60.016211293551095,
P,left,Pretarget,0,3,3,3,1464.2433058256352,1466.245186045885,left,1,3,0.8565992811472825,H15G01,2022-11-14_09h17.04.677,t1_Paradigm,2021.1.4,60.016211293551095,
Z,left,Distractor,0,4,4,4,1467.7433128832781,1469.7443256550455,left,1,3,0.5733484794627657,H15G01,2022-11-14_09h17.04.677,t1_Paradigm,2021.1.4,60.016211293551095,
L,left,Pretarget,0,5,5,5,1471.2428021665678,1473.2451491536603,left,1,3,0.7045866338507949,H15G01,2022-11-14_09h17.04.677,t1_Paradigm,2021.1.4,60.016211293551095,
P,right,Target,0,6,6,6,1474.743007479818,1476.743223700335,right,1,3,0.8384123767959863,H15G01,2022-11-14_09h17.04.677,t1_Paradigm,2021.1.4,60.016211293551095,
S,left,Distractor,0,7,7,7,1478.2429924021262,1480.244495680081,left,1,3,0.7294019481664691,H15G01,2022-11-14_09h17.04.677,t1_Paradigm,2021.1.4,60.016211293551095,
L,right,Target,0,8,8,8,1481.7432127930683,1483.743307429645,None,0,3,,H15G01,2022-11-14_09h17.04.677,t1_Paradigm,2021.1.4,60.016211293551095,
D,left,Distractor,0,9,9,9,1485.2430562417153,1487.245114827851,None,0,3,,H15G01,2022-11-14_09h17.04.677,t1_Paradigm,2021.1.4,60.016211293551095,
G,left,Distractor,0,10,10,10,1488.74332635696,1490.743450828118,None,0,3,,H15G01,2022-11-14_09h17.04.677,t1_Paradigm,2021.1.4,60.016211293551095,
M,left,Pretarget,0,11,11,11,1492.243334697811,1494.244039178901,None,0,3,,H15G01,2022-11-14_09h17.04.677,t1_Paradigm,2021.1.4,60.016211293551095,
Y,left,Distractor,0,12,12,12,1495.7432782366673,1497.7434100862702,None,0,3,,H15G01,2022-11-14_09h17.04.677,t1_Paradigm,2021.1.4,60.016211293551095,
V,left,Distractor,0,13,13,13,1499.242948131457,1501.245185083479,left,1,3,1.1524774893273388,H15G01,2022-11-14_09h17.04.677,t1_Paradigm,2021.1.4,60.016211293551095,
M,right,Target,0,14,14,14,1502.7430122918477,1504.744611168784,None,0,3,,H15G01,2022-11-14_09h17.04.677,t1_Paradigm,2021.1.4,60.016211293551095,
S,left,Pretarget,0,15,15,15,1506.2430251239257,1508.244741735179,left,1,3,0.7290355923350944,H15G01,2022-11-14_09h17.04.677,t1_Paradigm,2021.1.4,60.016211293551095,
Q,left,Distractor,0,16,16,16,1509.7429635299504,1511.7431698056066,left,1,3,0.6864385465360101,H15G01,2022-11-14_09h17.04.677,t1_Paradigm,2021.1.4,60.016211293551095,
R,left,Pretarget,0,17,17,17,1513.2429080312127,1515.2437177353436,left,1,3,0.8339076757642943,H15G01,2022-11-14_09h17.04.677,t1_Paradigm,2021.1.4,60.016211293551095,
S,right,Target,0,18,18,18,1516.743471038641,1518.743354908334,right,1,3,1.190350084756119,H15G01,2022-11-14_09h17.04.677,t1_Paradigm,2021.1.4,60.016211293551095,
F,left,Distractor,0,19,19,19,1520.2427989585485,1522.2438633794304,None,0,3,,H15G01,2022-11-14_09h17.04.677,t1_Paradigm,2021.1.4,60.016211293551095,
R,right,Target,0,20,20,20,1523.7429195800828,1525.7439939458254,left,0,3,0.5736885295336833,H15G01,2022-11-14_09h17.04.677,t1_Paradigm,2021.1.4,60.016211293551095,
P,left,Distractor,0,21,21,21,1527.2429253545183,1529.2447661161277,left,1,3,0.6569401653032401,H15G01,2022-11-14_09h17.04.677,t1_Paradigm,2021.1.4,60.016211293551095,
L,left,Distractor,0,22,22,22,1530.742989194107,1532.7450638203404,left,1,3,0.7246784602020853,H15G01,2022-11-14_09h17.04.677,t1_Paradigm,2021.1.4,60.016211293551095,
R,right,Target,0,23,23,23,1534.2432885023295,1536.244984261456,right,1,3,0.40881140309784314,H15G01,2022-11-14_09h17.04.677,t1_Paradigm,2021.1.4,60.016211293551095,
H,left,Pretarget,0,24,24,24,1537.7432740662416,1539.742766878353,left,1,3,0.8471276034683797,H15G01,2022-11-14_09h17.04.677,t1_Paradigm,2021.1.4,60.016211293551095,
G,left,Pretarget,0,25,25,25,1541.243241986046,1543.2449935647128,left,1,3,0.544820844941114,H15G01,2022-11-14_09h17.04.677,t1_Paradigm,2021.1.4,60.016211293551095,
T,left,Distractor,0,26,26,26,1544.7432984471902,1546.7432265875527,left,1,3,0.646501911337964,H15G01,2022-11-14_09h17.04.677,t1_Paradigm,2021.1.4,60.016211293551095,
H,right,Target,0,27,27,27,1548.2430097254319,1550.2446358705347,right,1,3,0.6812232691772806,H15G01,2022-11-14_09h17.04.677,t1_Paradigm,2021.1.4,60.016211293551095,
G,right,Target,0,28,28,28,1551.7430546377054,1553.7439256150092,right,1,3,1.0055149063832687,H15G01,2022-11-14_09h17.04.677,t1_Paradigm,2021.1.4,60.016211293551095,
D,left,Distractor,0,29,29,29,1555.2430616953484,1557.2439872089844,left,1,3,1.0897546121700543,H15G01,2022-11-14_09h17.04.677,t1_Paradigm,2021.1.4,60.016211293551095,
N,left,Pretarget,0,30,30,30,1558.7433664572045,1560.7458391986625,None,0,3,,H15G01,2022-11-14_09h17.04.677,t1_Paradigm,2021.1.4,60.016211293551095,
V,left,Distractor,0,31,31,31,1562.2431033996022,1564.243887439577,left,1,3,0.6979283893047068,H15G01,2022-11-14_09h17.04.677,t1_Paradigm,2021.1.4,60.016211293551095,
R,left,Distractor,0,32,32,32,1565.7431778256555,1567.7438210335727,left,1,3,0.6697828299093089,H15G01,2022-11-14_09h17.04.677,t1_Paradigm,2021.1.4,60.016211293551095,
N,right,Target,0,33,33,33,1569.2432538557186,1571.2446076399624,right,1,3,0.44892062974713554,H15G01,2022-11-14_09h17.04.677,t1_Paradigm,2021.1.4,60.016211293551095,
Z,left,Distractor,0,34,34,34,1572.7432769534594,1574.744632983317,left,1,3,0.5972719643473283,H15G01,2022-11-14_09h17.04.677,t1_Paradigm,2021.1.4,60.016211293551095,
N,left,Lure,0,35,35,35,1576.243264121381,1578.2449887526832,right,0,3,0.6968411914840544,H15G01,2022-11-14_09h17.04.677,t1_Paradigm,2021.1.4,60.016211293551095,
Y,left,Pretarget,0,36,36,36,1579.743210547455,1581.7453448428519,left,1,3,0.5084502442582561,H15G01,2022-11-14_09h17.04.677,t1_Paradigm,2021.1.4,60.016211293551095,
Y,left,Lure,0,37,37,37,1583.2433892341428,1585.2431091740377,None,0,3,,H15G01,2022-11-14_09h17.04.677,t1_Paradigm,2021.1.4,60.016211293551095,
B,left,Distractor,0,38,38,38,1586.743125534937,1588.7432885023295,left,1,3,0.8064418957087582,H15G01,2022-11-14_09h17.04.677,t1_Paradigm,2021.1.4,60.016211293551095,
Y,right,Target,0,39,39,39,1590.2430209535005,1592.245460973159,right,1,3,1.0161302430265096,H15G01,2022-11-14_09h17.04.677,t1_Paradigm,2021.1.4,60.016211293551095,
J,left,Distractor,0,40,40,40,1593.7431733344283,1595.7432124722664,left,1,3,0.5105152464338971,H15G01,2022-11-14_09h17.04.677,t1_Paradigm,2021.1.4,60.016211293551095,
X,left,Distractor,0,41,41,41,1597.2431438206486,1599.2455466272804,left,1,3,0.6721314210117271,H15G01,2022-11-14_09h17.04.677,t1_Paradigm,2021.1.4,60.016211293551095,
W,left,Pretarget,0,42,42,42,1600.743210868257,1602.7432682918065,left,1,3,0.5985481145189624,H15G01,2022-11-14_09h17.04.677,t1_Paradigm,2021.1.4,60.016211293551095,
S,left,Pretarget,0,43,43,43,1604.2432278707602,1606.2449284419163,left,1,3,0.6808588381577465,H15G01,2022-11-14_09h17.04.677,t1_Paradigm,2021.1.4,60.016211293551095,
R,left,Distractor,0,44,44,44,1607.7432714998258,1609.7442480209725,left,1,3,0.5254488981736358,H15G01,2022-11-14_09h17.04.677,t1_Paradigm,2021.1.4,60.016211293551095,
W,right,Target,0,45,45,45,1611.2429863068892,1613.2445107577728,None,0,3,,H15G01,2022-11-14_09h17.04.677,t1_Paradigm,2021.1.4,60.016211293551095,
S,right,Target,0,46,46,46,1614.743355229136,1616.744729223903,right,1,3,0.4369595289085737,H15G01,2022-11-14_09h17.04.677,t1_Paradigm,2021.1.4,60.016211293551095,
D,left,Distractor,0,47,47,47,1618.2429141264497,1620.2451475496505,left,1,3,0.7286512715945719,H15G01,2022-11-14_09h17.04.677,t1_Paradigm,2021.1.4,60.016211293551095,
T,left,Distractor,0,48,48,48,1621.7430671489815,1623.7452149180608,left,1,3,0.5726144845930321,H15G01,2022-11-14_09h17.04.677,t1_Paradigm,2021.1.4,60.016211293551095,
S,right,Target,0,49,49,49,1625.2433119208722,1627.24476322891,left,0,3,1.0889628729482865,H15G01,2022-11-14_09h17.04.677,t1_Paradigm,2021.1.4,60.016211293551095,
K,left,Distractor,0,50,50,50,1628.7432086226431,1630.7447192790423,left,1,3,0.6450807586838891,H15G01,2022-11-14_09h17.04.677,t1_Paradigm,2021.1.4,60.016211293551095,
S,left,Lure,0,51,51,51,1632.2429994597696,1634.245075369211,right,0,3,0.8086910382053247,H15G01,2022-11-14_09h17.04.677,t1_Paradigm,2021.1.4,60.016211293551095,
T,left,Pretarget,0,52,52,52,1635.7430235199158,1637.7448751887919,left,1,3,0.9727950319324918,H15G01,2022-11-14_09h17.04.677,t1_Paradigm,2021.1.4,60.016211293551095,
V,left,Distractor,0,53,53,53,1639.2431669183893,1641.2447789482057,None,0,3,,H15G01,2022-11-14_09h17.04.677,t1_Paradigm,2021.1.4,60.016211293551095,
B,left,Distractor,0,54,54,54,1642.7431672391913,1644.7431755800421,left,1,3,1.0465031303851902,H15G01,2022-11-14_09h17.04.677,t1_Paradigm,2021.1.4,60.016211293551095,
T,right,Target,0,55,55,55,1646.2432628381735,1648.2451552488974,None,0,3,,H15G01,2022-11-14_09h17.04.677,t1_Paradigm,2021.1.4,60.016211293551095,
Y,left,Pretarget,0,56,56,56,1649.7432974847843,1651.7444985672983,left,1,3,1.2452980057664718,H15G01,2022-11-14_09h17.04.677,t1_Paradigm,2021.1.4,60.016211293551095,
T,left,Lure,0,57,57,57,1653.2431358005997,1655.2434976652034,left,1,3,1.2499980751881594,H15G01,2022-11-14_09h17.04.677,t1_Paradigm,2021.1.4,60.016211293551095,
P,left,Pretarget,0,58,58,58,1656.7429725124052,1658.7449727125859,left,1,3,0.564776330461882,H15G01,2022-11-14_09h17.04.677,t1_Paradigm,2021.1.4,60.016211293551095,
Y,right,Target,0,59,59,59,1660.2426744873906,1662.2449521812605,right,1,3,0.5686121594203541,H15G01,2022-11-14_09h17.04.677,t1_Paradigm,2021.1.4,60.016211293551095,
R,left,Distractor,0,60,60,60,1663.7432464772737,1665.7449175346496,left,1,3,0.6846404515863469,H15G01,2022-11-14_09h17.04.677,t1_Paradigm,2021.1.4,60.016211293551095,
P,right,Target,0,61,61,61,1667.2430732442185,1669.2438640210344,right,1,3,1.3617625885894995,H15G01,2022-11-14_09h17.04.677,t1_Paradigm,2021.1.4,60.016211293551095,
L,left,Distractor,0,62,62,62,1670.7432949183685,1672.7432015650002,None,0,3,,H15G01,2022-11-14_09h17.04.677,t1_Paradigm,2021.1.4,60.016211293551095,
V,left,Distractor,0,63,63,63,1674.2430616953484,1676.2450407225997,left,1,3,0.5203731696647083,H15G01,2022-11-14_09h17.04.677,t1_Paradigm,2021.1.4,60.016211293551095,
H,left,Lure,0,0,0,0,1707.6371107549494,1709.6282335232909,None,0,3,,H15G01,2022-11-14_09h17.04.677,t1_Paradigm,2021.1.4,60.016211293551095,
B,left,Distractor,0,1,1,1,1711.1263164108163,1713.1280150571606,None,0,3,,H15G01,2022-11-14_09h17.04.677,t1_Paradigm,2021.1.4,60.016211293551095,
T,left,Distractor,0,2,2,2,1714.626379929603,1716.627546365506,None,0,3,,H15G01,2022-11-14_09h17.04.677,t1_Paradigm,2021.1.4,60.016211293551095,
R,left,Distractor,0,3,3,3,1718.1262724609487,1720.1267905561035,left,1,3,0.6706024789009462,H15G01,2022-11-14_09h17.04.677,t1_Paradigm,2021.1.4,60.016211293551095,
H,left,Pretarget,0,4,4,4,1721.6266625561243,1723.625552581365,left,1,3,0.5960577289529283,H15G01,2022-11-14_09h17.04.677,t1_Paradigm,2021.1.4,60.016211293551095,
K,left,Distractor,0,5,5,5,1725.1265627867165,1727.1264809822187,left,1,3,0.5670180945130596,H15G01,2022-11-14_09h17.04.677,t1_Paradigm,2021.1.4,60.016211293551095,
G,left,Distractor,0,6,6,6,1728.6260742053414,1730.6283329718963,left,1,3,0.5693060540461374,H15G01,2022-11-14_09h17.04.677,t1_Paradigm,2021.1.4,60.016211293551095,
H,right,Target,0,7,7,7,1732.1266593481046,1734.1283971322869,right,1,3,1.1332235976783522,H15G01,2022-11-14_09h17.04.677,t1_Paradigm,2021.1.4,60.016211293551095,
Y,left,Pretarget,0,8,8,8,1735.6267302453366,1737.6272416036504,left,1,3,0.5943424009074079,H15G01,2022-11-14_09h17.04.677,t1_Paradigm,2021.1.4,60.016211293551095,
S,left,Distractor,0,9,9,9,1739.1265374433624,1741.1284898440517,left,1,3,0.6932543048415027,H15G01,2022-11-14_09h17.04.677,t1_Paradigm,2021.1.4,60.016211293551095,
P,left,Distractor,0,10,10,10,1742.6262740649586,1744.627664741427,left,1,3,0.5219771794322696,H15G01,2022-11-14_09h17.04.677,t1_Paradigm,2021.1.4,60.016211293551095,
Y,right,Target,0,11,11,11,1746.1265133832158,1748.1284269668686,right,1,3,0.4453186654127421,H15G01,2022-11-14_09h17.04.677,t1_Paradigm,2021.1.4,60.016211293551095,
H,left,Lure,0,12,12,12,1749.626243909575,1751.628963668537,left,1,3,0.528803524201976,H15G01,2022-11-14_09h17.04.677,t1_Paradigm,2021.1.4,60.016211293551095,
Q,left,Distractor,0,13,13,13,1753.1263346965275,1755.1275377038537,left,1,3,1.0461855364515031,H15G01,2022-11-14_09h17.04.677,t1_Paradigm,2021.1.4,60.016211293551095,
V,left,Pretarget,0,14,14,14,1756.6264206714513,1758.6288032675602,left,1,3,0.6647051765885408,H15G01,2022-11-14_09h17.04.677,t1_Paradigm,2021.1.4,60.016211293551095,
G,left,Distractor,0,15,15,15,1760.126144460969,1762.1284587262621,left,1,3,1.1650423394416975,H15G01,2022-11-14_09h17.04.677,t1_Paradigm,2021.1.4,60.016211293551095,
Z,left,Pretarget,0,16,16,16,1763.6262602704746,1765.628825082093,left,1,3,0.6087104788034594,H15G01,2022-11-14_09h17.04.677,t1_Paradigm,2021.1.4,60.016211293551095,
V,right,Target,0,17,17,17,1767.1263247516672,1769.1273506763146,right,1,3,0.5501817663871407,H15G01,2022-11-14_09h17.04.677,t1_Paradigm,2021.1.4,60.016211293551095,
N,left,Distractor,0,18,18,18,1770.6261470273848,1772.627664099823,left,1,3,0.6018722643611909,H15G01,2022-11-14_09h17.04.677,t1_Paradigm,2021.1.4,60.016211293551095,
Z,right,Target,0,19,19,19,1774.1262673281176,1776.1285296234937,left,0,3,0.5251245673985068,H15G01,2022-11-14_09h17.04.677,t1_Paradigm,2021.1.4,60.016211293551095,
R,left,Distractor,0,20,20,20,1777.6265396889762,1779.6264620549032,left,1,3,0.3551434818814414,H15G01,2022-11-14_09h17.04.677,t1_Paradigm,2021.1.4,60.016211293551095,
P,left,Distractor,0,21,21,21,1781.1265326313328,1783.1280593278298,None,0,3,,H15G01,2022-11-14_09h17.04.677,t1_Paradigm,2021.1.4,60.016211293551095,
Z,right,Target,0,22,22,22,1784.6265310273234,1786.6264809822187,left,0,3,0.3473248966697611,H15G01,2022-11-14_09h17.04.677,t1_Paradigm,2021.1.4,60.016211293551095,
D,left,Pretarget,0,23,23,23,1788.126496701514,1790.1266628769263,left,1,3,0.7667500324009779,H15G01,2022-11-14_09h17.04.677,t1_Paradigm,2021.1.4,60.016211293551095,
K,left,Distractor,0,24,24,24,1791.6263420749724,1793.6265913380903,left,1,3,0.547158849578409,H15G01,2022-11-14_09h17.04.677,t1_Paradigm,2021.1.4,60.016211293551095,
W,left,Distractor,0,25,25,25,1795.1262512880198,1797.1282142751734,left,1,3,0.5493072602616849,H15G01,2022-11-14_09h17.04.677,t1_Paradigm,2021.1.4,60.016211293551095,
D,right,Target,0,26,26,26,1798.6263767215837,1800.6272101650588,right,1,3,0.41042247050881997,H15G01,2022-11-14_09h17.04.677,t1_Paradigm,2021.1.4,60.016211293551095,
G,left,Pretarget,0,27,27,27,1802.1265149872256,1804.128727879101,left,1,3,0.7647174312232892,H15G01,2022-11-14_09h17.04.677,t1_Paradigm,2021.1.4,60.016211293551095,
V,left,Distractor,0,28,28,28,1805.6263010123225,1807.6284227964434,left,1,3,0.5931740401924799,H15G01,2022-11-14_09h17.04.677,t1_Paradigm,2021.1.4,60.016211293551095,
D,right,Target,0,29,29,29,1809.1264857942479,1811.1272842703102,right,1,3,0.6948214223848481,H15G01,2022-11-14_09h17.04.677,t1_Paradigm,2021.1.4,60.016211293551095,
G,right,Target,0,30,30,30,1812.6265027967515,1814.6284128515827,None,0,3,,H15G01,2022-11-14_09h17.04.677,t1_Paradigm,2021.1.4,60.016211293551095,
B,left,Pretarget,0,31,31,31,1816.1265849220513,1818.1281311874677,left,1,3,0.6213112587370233,H15G01,2022-11-14_09h17.04.677,t1_Paradigm,2021.1.4,60.016211293551095,
N,left,Distractor,0,32,32,32,1819.6263436789823,1821.6276676286448,None,0,3,,H15G01,2022-11-14_09h17.04.677,t1_Paradigm,2021.1.4,60.016211293551095,
F,left,Distractor,0,33,33,33,1823.126575297993,1825.1272252427507,left,1,3,0.5824525181028548,H15G01,2022-11-14_09h17.04.677,t1_Paradigm,2021.1.4,60.016211293551095,
B,right,Target,0,34,34,34,1826.6261473481868,1828.6274953579955,right,1,3,0.3940577212538301,H15G01,2022-11-14_09h17.04.677,t1_Paradigm,2021.1.4,60.016211293551095,
Q,left,Pretarget,0,35,35,35,1830.126268290523,1832.126947428259,left,1,3,0.5910503312602486,H15G01,2022-11-14_09h17.04.677,t1_Paradigm,2021.1.4,60.016211293551095,
S,left,Pretarget,0,36,36,36,1833.6265130624138,1835.6289652725468,left,1,3,1.1686468701918784,H15G01,2022-11-14_09h17.04.677,t1_Paradigm,2021.1.4,60.016211293551095,
W,left,Distractor,0,37,37,37,1837.1262256238633,1839.1274347264266,left,1,3,0.710085820938275,H15G01,2022-11-14_09h17.04.677,t1_Paradigm,2021.1.4,60.016211293551095,
Q,right,Target,0,38,38,38,1840.6264950975046,1842.6287711873651,left,0,3,0.3928402778401505,H15G01,2022-11-14_09h17.04.677,t1_Paradigm,2021.1.4,60.016211293551095,
S,right,Target,0,39,39,39,1844.126436711549,1846.1285199994354,right,1,3,0.9732040544231495,H15G01,2022-11-14_09h17.04.677,t1_Paradigm,2021.1.4,60.016211293551095,
T,left,Distractor,0,40,40,40,1847.626593583704,1849.6279643704515,left,1,3,0.9617533494933923,H15G01,2022-11-14_09h17.04.677,t1_Paradigm,2021.1.4,60.016211293551095,
G,left,Distractor,0,41,41,41,1851.1264736037738,1853.127887698785,left,1,3,0.6938048009938029,H15G01,2022-11-14_09h17.04.677,t1_Paradigm,2021.1.4,60.016211293551095,
D,left,Distractor,0,42,42,42,1854.626464942121,1856.639201421281,left,1,3,0.9104073928169782,H15G01,2022-11-14_09h17.04.677,t1_Paradigm,2021.1.4,60.016211293551095,
S,left,Lure,0,43,43,43,1858.126588450873,1860.127885773973,left,1,3,0.6055425595118322,H15G01,2022-11-14_09h17.04.677,t1_Paradigm,2021.1.4,60.016211293551095,
Z,left,Pretarget,0,44,44,44,1861.6265140248197,1863.6289341547572,left,1,3,0.7686648992616938,H15G01,2022-11-14_09h17.04.677,t1_Paradigm,2021.1.4,60.016211293551095,
J,left,Distractor,0,45,45,45,1865.1264174634316,1867.1263504158233,left,1,3,0.6155294451282316,H15G01,2022-11-14_09h17.04.677,t1_Paradigm,2021.1.4,60.016211293551095,
M,left,Pretarget,0,46,46,46,1868.626146064979,1870.6289832374564,left,1,3,0.504669593235576,H15G01,2022-11-14_09h17.04.677,t1_Paradigm,2021.1.4,60.016211293551095,
Z,right,Target,0,47,47,47,1872.1265214032646,1874.1271982953867,right,1,3,0.7343663583974376,H15G01,2022-11-14_09h17.04.677,t1_Paradigm,2021.1.4,60.016211293551095,
P,left,Distractor,0,48,48,48,1875.6265300649175,1877.6427020121982,left,1,3,0.5150725589855938,H15G01,2022-11-14_09h17.04.677,t1_Paradigm,2021.1.4,60.016211293551095,
M,right,Target,0,49,49,49,1879.1265095335925,1881.126679237826,right,1,3,1.09484926799405,H15G01,2022-11-14_09h17.04.677,t1_Paradigm,2021.1.4,60.016211293551095,
K,left,Distractor,0,50,50,50,1882.6263125611927,1884.6278569017973,left,1,3,0.8258959677759776,H15G01,2022-11-14_09h17.04.677,t1_Paradigm,2021.1.4,60.016211293551095,
Y,left,Distractor,0,51,51,51,1886.1261957892816,1888.1277673980521,left,1,3,0.4937870285657482,H15G01,2022-11-14_09h17.04.677,t1_Paradigm,2021.1.4,60.016211293551095,
X,left,Distractor,0,52,52,52,1889.626352661437,1891.62810199449,left,1,3,0.6256693532764075,H15G01,2022-11-14_09h17.04.677,t1_Paradigm,2021.1.4,60.016211293551095,
F,left,Pretarget,0,53,53,53,1893.1264023857398,1895.1282781147625,left,1,3,0.5013095135745971,H15G01,2022-11-14_09h17.04.677,t1_Paradigm,2021.1.4,60.016211293551095,
M,left,Lure,0,54,54,54,1896.626450506033,1898.6275672176334,right,0,3,0.6821670685244499,H15G01,2022-11-14_09h17.04.677,t1_Paradigm,2021.1.4,60.016211293551095,
V,left,Distractor,0,55,55,55,1900.1266195686626,1902.1265172328394,left,1,3,0.5272575795875127,H15G01,2022-11-14_09h17.04.677,t1_Paradigm,2021.1.4,60.016211293551095,
F,right,Target,0,56,56,56,1903.6256305362394,1905.627887377983,right,1,3,0.6738522026903411,H15G01,2022-11-14_09h17.04.677,t1_Paradigm,2021.1.4,60.016211293551095,
S,left,Distractor,0,57,57,57,1907.1265833180419,1909.1285864054398,left,1,3,0.7891022293165406,H15G01,2022-11-14_09h17.04.677,t1_Paradigm,2021.1.4,60.016211293551095,
D,left,Distractor,0,58,58,58,1910.6264126514025,1912.6271504958954,left,1,3,0.3465976386410148,H15G01,2022-11-14_09h17.04.677,t1_Paradigm,2021.1.4,60.016211293551095,
F,right,Target,0,59,59,59,1914.126497984722,1916.127175197646,right,1,3,0.8145732628249789,H15G01,2022-11-14_09h17.04.677,t1_Paradigm,2021.1.4,60.016211293551095,
V,left,Pretarget,0,60,60,60,1917.6262798393936,1919.6270070974224,left,1,3,0.4185352311119459,H15G01,2022-11-14_09h17.04.677,t1_Paradigm,2021.1.4,60.016211293551095,
J,left,Distractor,0,61,61,61,1921.1266192478606,1923.1278293128294,left,1,3,0.6140126934919863,H15G01,2022-11-14_09h17.04.677,t1_Paradigm,2021.1.4,60.016211293551095,
V,left,Lure,0,62,62,62,1924.626146064979,1926.6269775836427,right,0,3,0.7307557324097615,H15G01,2022-11-14_09h17.04.677,t1_Paradigm,2021.1.4,60.016211293551095,
V,right,Target,0,63,63,63,1928.1265964709219,1930.1266513280557,left,0,3,0.9590380817580808,H15G01,2022-11-14_09h17.04.677,t1_Paradigm,2021.1.4,60.016211293551095,
R,left,Distractor,0,0,0,0,2004.5020682101945,2006.4938572841934,None,0,4,,H15G01,2022-11-14_09h17.04.677,t1_Paradigm,2021.1.4,60.016211293551095,
F,left,Distractor,0,1,1,1,2007.9930183870847,2009.993837715274,None,0,4,,H15G01,2022-11-14_09h17.04.677,t1_Paradigm,2021.1.4,60.016211293551095,
P,left,Pretarget,0,2,2,2,2011.4931287429567,2013.4937466075194,None,0,4,,H15G01,2022-11-14_09h17.04.677,t1_Paradigm,2021.1.4,60.016211293551095,
H,left,Distractor,0,3,3,3,2014.993236853215,2016.993829374423,left,1,4,0.41174321215112286,H15G01,2022-11-14_09h17.04.677,t1_Paradigm,2021.1.4,60.016211293551095,
Z,left,Distractor,0,4,4,4,2018.4931216853138,2020.495018587265,left,1,4,0.5265386624100756,H15G01,2022-11-14_09h17.04.677,t1_Paradigm,2021.1.4,60.016211293551095,
T,left,Distractor,0,5,5,5,2021.9930347479844,2023.9939852841726,left,1,4,0.6434844481632354,H15G01,2022-11-14_09h17.04.677,t1_Paradigm,2021.1.4,60.016211293551095,
P,right,Target,0,6,6,6,2025.493126497343,2027.494992281505,right,1,4,0.6148246432362612,H15G01,2022-11-14_09h17.04.677,t1_Paradigm,2021.1.4,60.016211293551095,
G,left,Distractor,0,7,7,7,2028.9930690737933,2030.994174878127,left,1,4,0.5874217403634248,H15G01,2022-11-14_09h17.04.677,t1_Paradigm,2021.1.4,60.016211293551095,
L,left,Distractor,0,8,8,8,2032.4932628381735,2034.495421514519,left,1,4,0.6382383738164208,H15G01,2022-11-14_09h17.04.677,t1_Paradigm,2021.1.4,60.016211293551095,
P,left,Lure,0,9,9,9,2035.9931274597488,2037.9949948479207,right,0,4,0.8184289815053489,H15G01,2022-11-14_09h17.04.677,t1_Paradigm,2021.1.4,60.016211293551095,
Q,left,Pretarget,0,10,10,10,2039.4926744873906,2041.4950221160866,left,1,4,0.5184708140800467,H15G01,2022-11-14_09h17.04.677,t1_Paradigm,2021.1.4,60.016211293551095,
D,left,Distractor,0,11,11,11,2042.9928390587925,2044.9947212038542,left,1,4,0.3630076209710751,H15G01,2022-11-14_09h17.04.677,t1_Paradigm,2021.1.4,60.016211293551095,
M,left,Pretarget,0,12,12,12,2046.4929587179213,2048.493575299276,left,1,4,0.3839835775065694,H15G01,2022-11-14_09h17.04.677,t1_Paradigm,2021.1.4,60.016211293551095,
C,left,Distractor,0,13,13,13,2049.9931595399444,2051.995356391722,left,1,4,0.4022878953724103,H15G01,2022-11-14_09h17.04.677,t1_Paradigm,2021.1.4,60.016211293551095,
Q,right,Target,0,14,14,14,2053.493174617636,2055.493776762903,left,0,4,0.4398788266862539,H15G01,2022-11-14_09h17.04.677,t1_Paradigm,2021.1.4,60.016211293551095,
R,left,Distractor,0,15,15,15,2056.993085113891,2058.993898667645,left,1,4,1.0515772548847053,H15G01,2022-11-14_09h17.04.677,t1_Paradigm,2021.1.4,60.016211293551095,
M,right,Target,0,16,16,16,2060.492635670354,2062.494845995814,right,1,4,1.1826197200812203,H15G01,2022-11-14_09h17.04.677,t1_Paradigm,2021.1.4,60.016211293551095,
S,left,Distractor,0,17,17,17,2063.9929083520146,2065.9941383067044,None,0,4,,H15G01,2022-11-14_09h17.04.677,t1_Paradigm,2021.1.4,60.016211293551095,
Z,left,Distractor,0,18,18,18,2067.4931242517296,2069.4948633191198,left,1,4,0.5347816686066835,H15G01,2022-11-14_09h17.04.677,t1_Paradigm,2021.1.4,60.016211293551095,
L,left,Pretarget,0,19,19,19,2070.9930831890792,2072.994646456999,None,0,4,,H15G01,2022-11-14_09h17.04.677,t1_Paradigm,2021.1.4,60.016211293551095,
M,right,Target,0,20,20,20,2074.4931649935775,2076.4951882914984,left,0,4,1.2944961933640116,H15G01,2022-11-14_09h17.04.677,t1_Paradigm,2021.1.4,60.016211293551095,
P,left,Distractor,0,21,21,21,2077.993099549979,2079.9953913591353,left,1,4,0.8821444199065809,H15G01,2022-11-14_09h17.04.677,t1_Paradigm,2021.1.4,60.016211293551095,
F,left,Distractor,0,22,22,22,2081.493188732922,2083.494059389424,left,1,4,0.839587795153875,H15G01,2022-11-14_09h17.04.677,t1_Paradigm,2021.1.4,60.016211293551095,
L,right,Target,0,23,23,23,2084.993211509861,2086.9944684119146,right,1,4,1.003057884221107,H15G01,2022-11-14_09h17.04.677,t1_Paradigm,2021.1.4,60.016211293551095,
L,left,Lure,0,24,24,24,2088.4929141264497,2090.4931515198955,left,1,4,0.9124441644198669,H15G01,2022-11-14_09h17.04.677,t1_Paradigm,2021.1.4,60.016211293551095,
V,left,Pretarget,0,25,25,25,2091.993113344463,2093.9944578254504,left,1,4,0.498964130492368,H15G01,2022-11-14_09h17.04.677,t1_Paradigm,2021.1.4,60.016211293551095,
Z,left,Distractor,0,26,26,26,2095.4928217354873,2097.4942050335108,left,1,4,0.5353209366903684,H15G01,2022-11-14_09h17.04.677,t1_Paradigm,2021.1.4,60.016211293551095,
H,left,Distractor,0,27,27,27,2098.9931418958367,2100.9954109280543,left,1,4,0.858202649310897,H15G01,2022-11-14_09h17.04.677,t1_Paradigm,2021.1.4,60.016211293551095,
X,left,Distractor,0,28,28,28,2102.493108532434,2104.493603529848,left,1,4,0.7359187190504599,H15G01,2022-11-14_09h17.04.677,t1_Paradigm,2021.1.4,60.016211293551095,
V,right,Target,0,29,29,29,2105.9930681113874,2108.006007658184,left,0,4,0.5035657137136695,H15G01,2022-11-14_09h17.04.677,t1_Paradigm,2021.1.4,60.016211293551095,
C,left,Distractor,0,30,30,30,2109.492842266812,2111.4937032992557,left,1,4,0.4078778694133689,H15G01,2022-11-14_09h17.04.677,t1_Paradigm,2021.1.4,60.016211293551095,
S,left,Pretarget,0,31,31,31,2112.9929523018823,2114.994342336747,left,1,4,0.5552295851261988,H15G01,2022-11-14_09h17.04.677,t1_Paradigm,2021.1.4,60.016211293551095,
D,left,Distractor,0,32,32,32,2116.4929134848458,2118.495192141122,left,1,4,0.6863589876516016,H15G01,2022-11-14_09h17.04.677,t1_Paradigm,2021.1.4,60.016211293551095,
V,left,Distractor,0,33,33,33,2119.993098908375,2121.993563108802,left,1,4,0.3880821432653647,H15G01,2022-11-14_09h17.04.677,t1_Paradigm,2021.1.4,60.016211293551095,
R,left,Distractor,0,34,34,34,2123.4929247129144,2125.4949310083316,left,1,4,0.6309029163462583,H15G01,2022-11-14_09h17.04.677,t1_Paradigm,2021.1.4,60.016211293551095,
S,right,Target,0,35,35,35,2126.993000742977,2128.9943205222144,left,0,4,0.5871952541842802,H15G01,2022-11-14_09h17.04.677,t1_Paradigm,2021.1.4,60.016211293551095,
Y,left,Distractor,0,36,36,36,2130.4928942367287,2132.4937664972404,left,1,4,0.3356688784892867,H15G01,2022-11-14_09h17.04.677,t1_Paradigm,2021.1.4,60.016211293551095,
N,left,Pretarget,0,37,37,37,2133.9930373143998,2135.995458727545,left,1,4,0.49796098278329737,H15G01,2022-11-14_09h17.04.677,t1_Paradigm,2021.1.4,60.016211293551095,
Z,left,Pretarget,0,38,38,38,2137.4930427680333,2139.4933738356494,right,0,4,0.6803317605481425,H15G01,2022-11-14_09h17.04.677,t1_Paradigm,2021.1.4,60.016211293551095,
P,left,Pretarget,0,39,39,39,2140.9931451038565,2142.994542517166,left,1,4,0.4269549991849999,H15G01,2022-11-14_09h17.04.677,t1_Paradigm,2021.1.4,60.016211293551095,
M,left,Distractor,0,40,40,40,2144.492782597649,2146.4954446122592,left,1,4,0.6542162359151007,H15G01,2022-11-14_09h17.04.677,t1_Paradigm,2021.1.4,60.016211293551095,
N,right,Target,0,41,41,41,2147.992781314441,2149.9943291838667,left,0,4,0.3393135094834179,H15G01,2022-11-14_09h17.04.677,t1_Paradigm,2021.1.4,60.016211293551095,
Z,right,Target,0,42,42,42,2151.493131950976,2153.4937433994996,left,0,4,0.24784260686237758,H15G01,2022-11-14_09h17.04.677,t1_Paradigm,2021.1.4,60.016211293551095,
P,right,Target,0,43,43,43,2154.9931993193863,2156.9945409131565,left,0,4,0.3631943277082428,H15G01,2022-11-14_09h17.04.677,t1_Paradigm,2021.1.4,60.016211293551095,
X,left,Pretarget,0,44,44,44,2158.4927835600547,2160.4930803018615,left,1,4,0.6564753232723888,H15G01,2022-11-14_09h17.04.677,t1_Paradigm,2021.1.4,60.016211293551095,
Z,left,Lure,0,45,45,45,2161.9930896051183,2163.993838356878,left,1,4,0.6276798191192938,H15G01,2022-11-14_09h17.04.677,t1_Paradigm,2021.1.4,60.016211293551095,
R,left,Pretarget,0,46,46,46,2165.4929099560245,2167.4937632892206,left,1,4,0.13572136168886573,H15G01,2022-11-14_09h17.04.677,t1_Paradigm,2021.1.4,60.016211293551095,
K,left,Distractor,0,47,47,47,2168.993091209128,2170.9939650736496,left,1,4,0.5235741315568703,H15G01,2022-11-14_09h17.04.677,t1_Paradigm,2021.1.4,60.016211293551095,
X,right,Target,0,48,48,48,2172.4930687529913,2174.495539248836,left,0,4,0.26978866850504346,H15G01,2022-11-14_09h17.04.677,t1_Paradigm,2021.1.4,60.016211293551095,
B,left,Distractor,0,49,49,49,2175.9931024371963,2177.9949810534367,left,1,4,0.3386112740072349,H15G01,2022-11-14_09h17.04.677,t1_Paradigm,2021.1.4,60.016211293551095,
R,right,Target,0,50,50,50,2179.4930411640235,2181.495047138639,left,0,4,0.5504374455440484,H15G01,2022-11-14_09h17.04.677,t1_Paradigm,2021.1.4,60.016211293551095,
Y,left,Pretarget,0,51,51,51,2182.9929022567776,2184.9949390283805,left,1,4,0.37878979387824074,H15G01,2022-11-14_09h17.04.677,t1_Paradigm,2021.1.4,60.016211293551095,
W,left,Pretarget,0,52,52,52,2186.4930267279356,2188.494169103692,left,1,4,0.6554144312117387,H15G01,2022-11-14_09h17.04.677,t1_Paradigm,2021.1.4,60.016211293551095,
Z,left,Distractor,0,53,53,53,2189.993072602615,2191.9933728732435,right,0,4,1.1242850928465487,H15G01,2022-11-14_09h17.04.677,t1_Paradigm,2021.1.4,60.016211293551095,
Q,left,Distractor,0,54,54,54,2193.4929561515055,2195.494768682543,left,1,4,0.3907300425894391,H15G01,2022-11-14_09h17.04.677,t1_Paradigm,2021.1.4,60.016211293551095,
Y,right,Target,0,55,55,55,2196.9931293845607,2198.993610587491,right,1,4,1.2439028380708805,H15G01,2022-11-14_09h17.04.677,t1_Paradigm,2021.1.4,60.016211293551095,
W,right,Target,0,56,56,56,2200.492751159057,2202.4925516202425,left,0,4,0.35297903110085826,H15G01,2022-11-14_09h17.04.677,t1_Paradigm,2021.1.4,60.016211293551095,
H,left,Pretarget,0,57,57,57,2203.992780352035,2205.9931640311715,left,1,4,0.42031632355838155,H15G01,2022-11-14_09h17.04.677,t1_Paradigm,2021.1.4,60.016211293551095,
M,left,Distractor,0,58,58,58,2207.4930520712896,2209.4950102464145,right,0,4,0.39073581702496085,H15G01,2022-11-14_09h17.04.677,t1_Paradigm,2021.1.4,60.016211293551095,
R,left,Pretarget,0,59,59,59,2210.9928169234577,2212.9932682918065,left,1,4,0.3163745657943764,H15G01,2022-11-14_09h17.04.677,t1_Paradigm,2021.1.4,60.016211293551095,
J,left,Distractor,0,60,60,60,2214.493015820669,2216.493119760502,left,1,4,0.3046284022648251,H15G01,2022-11-14_09h17.04.677,t1_Paradigm,2021.1.4,60.016211293551095,
H,right,Target,0,61,61,61,2217.9928249435065,2219.9938691538655,right,1,4,0.40369557434451053,H15G01,2022-11-14_09h17.04.677,t1_Paradigm,2021.1.4,60.016211293551095,
Z,left,Distractor,0,62,62,62,2221.4928387379905,2223.4955257751535,left,1,4,0.3101625567660449,H15G01,2022-11-14_09h17.04.677,t1_Paradigm,2021.1.4,60.016211293551095,
R,right,Target,0,63,63,63,2224.9928393795944,2226.9940840911745,left,0,4,0.3155908466223991,H15G01,2022-11-14_09h17.04.677,t1_Paradigm,2021.1.4,60.016211293551095,
J,left,Pretarget,0,0,0,0,2233.005014134534,2234.993568883237,None,0,4,,H15G01,2022-11-14_09h17.04.677,t1_Paradigm,2021.1.4,60.016211293551095,
G,left,Pretarget,0,1,1,1,2236.4928384171885,2238.4938681914596,None,0,4,,H15G01,2022-11-14_09h17.04.677,t1_Paradigm,2021.1.4,60.016211293551095,
Z,left,Distractor,0,2,2,2,2239.9927842016587,2241.9941662164747,None,0,4,,H15G01,2022-11-14_09h17.04.677,t1_Paradigm,2021.1.4,60.016211293551095,
F,left,Distractor,0,3,3,3,2243.493050788082,2245.4944289532746,left,1,4,0.551075520629638,H15G01,2022-11-14_09h17.04.677,t1_Paradigm,2021.1.4,60.016211293551095,
J,right,Target,0,4,4,4,2246.9930325023706,2248.99367442708,right,1,4,0.5718339734403344,H15G01,2022-11-14_09h17.04.677,t1_Paradigm,2021.1.4,60.016211293551095,
G,right,Target,0,5,5,5,2250.49318841212,2252.492312622787,left,0,4,0.3692013442887401,H15G01,2022-11-14_09h17.04.677,t1_Paradigm,2021.1.4,60.016211293551095,
H,left,Distractor,0,6,6,6,2253.992677374608,2255.9946435697816,left,1,4,0.7866689464995034,H15G01,2022-11-14_09h17.04.677,t1_Paradigm,2021.1.4,60.016211293551095,
P,left,Distractor,0,7,7,7,2257.4926459360167,2259.4933927629645,left,1,4,0.7603108955891003,H15G01,2022-11-14_09h17.04.677,t1_Paradigm,2021.1.4,60.016211293551095,
G,left,Lure,0,8,8,8,2260.992718437258,2262.995123489504,left,1,4,0.5384834023484473,H15G01,2022-11-14_09h17.04.677,t1_Paradigm,2021.1.4,60.016211293551095,
S,left,Distractor,0,9,9,9,2264.4930527128936,2266.4953060258154,left,1,4,0.36614346006717824,H15G01,2022-11-14_09h17.04.677,t1_Paradigm,2021.1.4,60.016211293551095,
R,left,Pretarget,0,10,10,10,2267.9929981765617,2269.995466747594,left,1,4,0.6261354785146978,H15G01,2022-11-14_09h17.04.677,t1_Paradigm,2021.1.4,60.016211293551095,
T,left,Pretarget,0,11,11,11,2271.4930344271825,2273.495234807782,left,1,4,0.3581920628462285,H15G01,2022-11-14_09h17.04.677,t1_Paradigm,2021.1.4,60.016211293551095,
X,left,Distractor,0,12,12,12,2274.993118156492,2276.99394871275,left,1,4,0.3957335906593471,H15G01,2022-11-14_09h17.04.677,t1_Paradigm,2021.1.4,60.016211293551095,
F,left,Pretarget,0,13,13,13,2278.4930430888353,2280.4946859156394,left,1,4,0.8629402525607475,H15G01,2022-11-14_09h17.04.677,t1_Paradigm,2021.1.4,60.016211293551095,
R,right,Target,0,14,14,14,2281.992788692886,2283.9938646626383,left,0,4,0.3236891711376302,H15G01,2022-11-14_09h17.04.677,t1_Paradigm,2021.1.4,60.016211293551095,
T,right,Target,0,15,15,15,2285.4931791088634,2287.494638116148,left,0,4,0.374850987492664,H15G01,2022-11-14_09h17.04.677,t1_Paradigm,2021.1.4,60.016211293551095,
C,left,Distractor,0,16,16,16,2288.9928207730813,2290.994158196426,left,1,4,0.3152443805124676,H15G01,2022-11-14_09h17.04.677,t1_Paradigm,2021.1.4,60.016211293551095,
F,right,Target,0,17,17,17,2292.4927835600547,2294.494872943178,left,0,4,0.49476066249462747,H15G01,2022-11-14_09h17.04.677,t1_Paradigm,2021.1.4,60.016211293551095,
M,left,Distractor,0,18,18,18,2295.9929182968754,2297.994314426977,left,1,4,0.2595153067445608,H15G01,2022-11-14_09h17.04.677,t1_Paradigm,2021.1.4,60.016211293551095,
N,left,Distractor,0,19,19,19,2299.4930286527474,2301.4938919308042,left,1,4,0.5995451669900831,H15G01,2022-11-14_09h17.04.677,t1_Paradigm,2021.1.4,60.016211293551095,
R,left,Lure,0,20,20,20,2302.992875309413,2304.9936686526444,left,1,4,0.4918888434067412,H15G01,2022-11-14_09h17.04.677,t1_Paradigm,2021.1.4,60.016211293551095,
F,right,Target,0,21,21,21,2306.492774256798,2308.4933853845196,left,0,4,0.4165084043693241,H15G01,2022-11-14_09h17.04.677,t1_Paradigm,2021.1.4,60.016211293551095,
P,left,Distractor,0,22,22,22,2309.9930440512408,2311.9954240809343,left,1,4,0.801939119488452,H15G01,2022-11-14_09h17.04.677,t1_Paradigm,2021.1.4,60.016211293551095,
L,left,Pretarget,0,23,23,23,2313.492742818207,2315.494973674992,left,1,4,0.40650323304180347,H15G01,2022-11-14_09h17.04.677,t1_Paradigm,2021.1.4,60.016211293551095,
T,left,Distractor,0,24,24,24,2316.9931361214017,2318.993707148879,left,1,4,0.34785614470456494,H15G01,2022-11-14_09h17.04.677,t1_Paradigm,2021.1.4,60.016211293551095,
F,left,Distractor,0,25,25,25,2320.492161204265,2322.4942412841315,left,1,4,0.31904492125613615,H15G01,2022-11-14_09h17.04.677,t1_Paradigm,2021.1.4,60.016211293551095,
V,left,Distractor,0,26,26,26,2323.9925820964277,2325.9939313894442,left,1,4,0.3396641460185492,H15G01,2022-11-14_09h17.04.677,t1_Paradigm,2021.1.4,60.016211293551095,
L,right,Target,0,27,27,27,2327.4927809936394,2329.494324692639,left,0,4,0.3273325189238676,H15G01,2022-11-14_09h17.04.677,t1_Paradigm,2021.1.4,60.016211293551095,
S,left,Pretarget,0,28,28,28,2330.9927912593016,2332.9932670085987,left,1,4,0.46073576569688157,H15G01,2022-11-14_09h17.04.677,t1_Paradigm,2021.1.4,60.016211293551095,
W,left,Distractor,0,29,29,29,2334.4930315399647,2336.4957083114655,left,1,4,0.30159072856713465,H15G01,2022-11-14_09h17.04.677,t1_Paradigm,2021.1.4,60.016211293551095,
Q,left,Distractor,0,30,30,30,2337.9927845224606,2339.994324051036,left,1,4,0.5633458745514872,H15G01,2022-11-14_09h17.04.677,t1_Paradigm,2021.1.4,60.016211293551095,
L,right,Target,0,31,31,31,2341.492755008681,2343.495276191234,left,0,4,0.43826198484021006,H15G01,2022-11-14_09h17.04.677,t1_Paradigm,2021.1.4,60.016211293551095,
S,right,Target,0,32,32,32,2344.993074848229,2346.9944834896064,left,0,4,0.7471044415669894,H15G01,2022-11-14_09h17.04.677,t1_Paradigm,2021.1.4,60.016211293551095,
Z,left,Pretarget,0,33,33,33,2348.4930286527474,2350.494659930681,left,1,4,0.847071783928186,H15G01,2022-11-14_09h17.04.677,t1_Paradigm,2021.1.4,60.016211293551095,
F,left,Distractor,0,34,34,34,2351.992995289344,2353.9951212438905,right,0,4,0.7542653827749746,H15G01,2022-11-14_09h17.04.677,t1_Paradigm,2021.1.4,60.016211293551095,
V,left,Distractor,0,35,35,35,2355.4930219159064,2357.4948706975642,left,1,4,0.39061744110313157,H15G01,2022-11-14_09h17.04.677,t1_Paradigm,2021.1.4,60.016211293551095,
M,left,Distractor,0,36,36,36,2358.993064261764,2360.9950044719794,left,1,4,0.6025514020966511,H15G01,2022-11-14_09h17.04.677,t1_Paradigm,2021.1.4,60.016211293551095,
Z,right,Target,0,37,37,37,2362.492930487349,2364.4952197300904,right,1,4,0.44646617400030664,H15G01,2022-11-14_09h17.04.677,t1_Paradigm,2021.1.4,60.016211293551095,
H,left,Pretarget,0,38,38,38,2365.993020311896,2367.9946746875708,left,1,4,0.850632364811645,H15G01,2022-11-14_09h17.04.677,t1_Paradigm,2021.1.4,60.016211293551095,
L,left,Distractor,0,39,39,39,2369.4931021163943,2371.4948925120975,left,1,4,0.4386527216192917,H15G01,2022-11-14_09h17.04.677,t1_Paradigm,2021.1.4,60.016211293551095,
G,left,Distractor,0,40,40,40,2372.992826547517,2374.995018908067,left,1,4,0.4587804777893325,H15G01,2022-11-14_09h17.04.677,t1_Paradigm,2021.1.4,60.016211293551095,
K,left,Distractor,0,41,41,41,2376.4930726026146,2378.493716772937,left,1,4,0.36779943975125207,H15G01,2022-11-14_09h17.04.677,t1_Paradigm,2021.1.4,60.016211293551095,
H,right,Target,0,42,42,42,2379.9931088532353,2381.9936272691925,left,0,4,0.3879134014368901,H15G01,2022-11-14_09h17.04.677,t1_Paradigm,2021.1.4,60.016211293551095,
B,left,Distractor,0,43,43,43,2383.4930058758086,2385.505831858714,left,1,4,0.7480322008168514,H15G01,2022-11-14_09h17.04.677,t1_Paradigm,2021.1.4,60.016211293551095,
Z,left,Distractor,0,44,44,44,2386.9930052342047,2388.99284675804,left,1,4,0.5725753467550021,H15G01,2022-11-14_09h17.04.677,t1_Paradigm,2021.1.4,60.016211293551095,
T,left,Pretarget,0,45,45,45,2390.4928323219515,2392.4934132942894,right,0,4,0.6721545187519951,H15G01,2022-11-14_09h17.04.677,t1_Paradigm,2021.1.4,60.016211293551095,
H,right,Target,0,46,46,46,2393.992767199155,2395.995214597259,left,0,4,0.45025644908218965,H15G01,2022-11-14_09h17.04.677,t1_Paradigm,2021.1.4,60.016211293551095,
F,left,Distractor,0,47,47,47,2397.4930886427123,2399.495427288954,left,1,4,0.8221797979467738,H15G01,2022-11-14_09h17.04.677,t1_Paradigm,2021.1.4,60.016211293551095,
R,left,Distractor,0,48,48,48,2400.993045976053,2402.995045855431,left,1,4,0.44238685635900765,H15G01,2022-11-14_09h17.04.677,t1_Paradigm,2021.1.4,60.016211293551095,
T,right,Target,0,49,49,49,2404.4930029885913,2406.49452519386,left,0,4,0.43111002608748095,H15G01,2022-11-14_09h17.04.677,t1_Paradigm,2021.1.4,60.016211293551095,
H,right,Target,0,50,50,50,2407.992934657775,2410.0057843800246,left,0,4,1.0156868947269686,H15G01,2022-11-14_09h17.04.677,t1_Paradigm,2021.1.4,60.016211293551095,
Y,left,Pretarget,0,51,51,51,2411.4930597705365,2413.4938268080073,left,1,4,0.3916273256536442,H15G01,2022-11-14_09h17.04.677,t1_Paradigm,2021.1.4,60.016211293551095,
H,left,Distractor,0,52,52,52,2414.9929725124052,2416.9948710183667,left,1,4,0.3947705431946815,H15G01,2022-11-14_09h17.04.677,t1_Paradigm,2021.1.4,60.016211293551095,
S,left,Distractor,0,53,53,53,2418.4931354797977,2420.4942210736085,left,1,4,0.3350404274624452,H15G01,2022-11-14_09h17.04.677,t1_Paradigm,2021.1.4,60.016211293551095,
Q,left,Distractor,0,54,54,54,2421.9929462066452,2423.994659289077,left,1,4,0.3868765695233378,H15G01,2022-11-14_09h17.04.677,t1_Paradigm,2021.1.4,60.016211293551095,
Y,right,Target,0,55,55,55,2425.4929978557598,2427.4933045424273,left,0,4,0.7763699205825105,H15G01,2022-11-14_09h17.04.677,t1_Paradigm,2021.1.4,60.016211293551095,
R,left,Distractor,0,56,56,56,2428.993133554986,2430.9940173643677,right,0,4,0.683453163555896,H15G01,2022-11-14_09h17.04.677,t1_Paradigm,2021.1.4,60.016211293551095,
H,left,Pretarget,0,57,57,57,2432.492994006136,2434.493084472287,left,1,4,0.5925500803932664,H15G01,2022-11-14_09h17.04.677,t1_Paradigm,2021.1.4,60.016211293551095,
J,left,Distractor,0,58,58,58,2435.9929782868408,2437.9940949984407,left,1,4,0.6117247339589085,H15G01,2022-11-14_09h17.04.677,t1_Paradigm,2021.1.4,60.016211293551095,
V,left,Distractor,0,59,59,59,2439.492704321972,2441.495529303975,left,1,4,0.5979145306600913,H15G01,2022-11-14_09h17.04.677,t1_Paradigm,2021.1.4,60.016211293551095,
Y,left,Lure,0,60,60,60,2442.9929936853346,2444.994000682667,right,0,4,0.635462474511769,H15G01,2022-11-14_09h17.04.677,t1_Paradigm,2021.1.4,60.016211293551095,
H,right,Target,0,61,61,61,2446.4929786076423,2448.494215940777,None,0,4,,H15G01,2022-11-14_09h17.04.677,t1_Paradigm,2021.1.4,60.016211293551095,
L,left,Distractor,0,62,62,62,2449.992959680327,2451.99463843695,left,1,4,0.4988216944248052,H15G01,2022-11-14_09h17.04.677,t1_Paradigm,2021.1.4,60.016211293551095,
P,left,Distractor,0,63,63,63,2453.4929253545183,2455.4921743571444,left,1,4,0.3451325361193085,H15G01,2022-11-14_09h17.04.677,t1_Paradigm,2021.1.4,60.016211293551095,
