Letter,CorrAnswer,Stimulus,nback_run.thisRepN,nback_run.thisTrialN,nback_run.thisN,nback_run.thisIndex,fixcross.started,nback_trial.started,trial_resp.keys,trial_resp.corr,currentlevel,trial_resp.rt,Participant,date,expName,psychopyVersion,frameRate,
H,left,Distractor,0,0,0,0,271.9556950045953,273.89974778550095,right,0,1,0.15108681285346393,H17K06,2022-11-15_10h58.36.995,t1_Paradigm,2021.1.4,60.04742632174145,
Q,left,Pretarget,0,1,1,1,275.39826022685156,277.40238124874304,left,1,1,0.7287260184530169,H17K06,2022-11-15_10h58.36.995,t1_Paradigm,2021.1.4,60.04742632174145,
Q,right,Target,0,2,2,2,278.89872057765024,280.8986108633835,right,1,1,0.9604319662466878,H17K06,2022-11-15_10h58.36.995,t1_Paradigm,2021.1.4,60.04742632174145,
T,left,Distractor,0,3,3,3,282.39906993097975,284.4001218405756,left,1,1,0.6108133356028702,H17K06,2022-11-15_10h58.36.995,t1_Paradigm,2021.1.4,60.04742632174145,
Q,left,Lure,0,4,4,4,285.8987802468182,287.9005058405164,left,1,1,0.9183876622118987,H17K06,2022-11-15_10h58.36.995,t1_Paradigm,2021.1.4,60.04742632174145,
L,left,Distractor,0,5,5,5,289.3987651691132,291.40117535419995,left,1,1,1.0816761773749022,H17K06,2022-11-15_10h58.36.995,t1_Paradigm,2021.1.4,60.04742632174145,
V,left,Pretarget,0,6,6,6,292.89881617663195,294.90117407098296,left,1,1,0.5097010510799009,H17K06,2022-11-15_10h58.36.995,t1_Paradigm,2021.1.4,60.04742632174145,
V,right,Target,0,7,7,7,296.39874656261236,298.3986018809228,right,1,1,0.5324179998133332,H17K06,2022-11-15_10h58.36.995,t1_Paradigm,2021.1.4,60.04742632174145,
K,left,Distractor,0,8,8,8,299.8984713145328,301.9010775095958,left,1,1,0.48576441330078524,H17K06,2022-11-15_10h58.36.995,t1_Paradigm,2021.1.4,60.04742632174145,
G,left,Pretarget,0,9,9,9,303.398888357071,305.4003415899206,left,1,1,0.6025552517239703,H17K06,2022-11-15_10h58.36.995,t1_Paradigm,2021.1.4,60.04742632174145,
G,right,Target,0,10,10,10,306.8988174598344,308.8987061415537,right,1,1,0.7203405761829345,H17K06,2022-11-15_10h58.36.995,t1_Paradigm,2021.1.4,60.04742632174145,
G,right,Target,0,11,11,11,310.3989265325072,312.3988649385283,right,1,1,0.4199910303868819,H17K06,2022-11-15_10h58.36.995,t1_Paradigm,2021.1.4,60.04742632174145,
P,left,Pretarget,0,12,12,12,313.89887648739386,315.90023059243686,left,1,1,0.5026325008220738,H17K06,2022-11-15_10h58.36.995,t1_Paradigm,2021.1.4,60.04742632174145,
P,right,Target,0,13,13,13,317.39893198612845,319.39882900871453,left,0,1,0.6041573366674129,H17K06,2022-11-15_10h58.36.995,t1_Paradigm,2021.1.4,60.04742632174145,
G,left,Lure,0,14,14,14,320.8985258508619,322.90134922885045,left,1,1,1.1175617255066754,H17K06,2022-11-15_10h58.36.995,t1_Paradigm,2021.1.4,60.04742632174145,
Y,left,Distractor,0,15,15,15,324.39864133956144,326.40020781550265,left,1,1,0.9467269859887892,H17K06,2022-11-15_10h58.36.995,t1_Paradigm,2021.1.4,60.04742632174145,
B,left,Distractor,0,16,16,16,327.8987244272721,329.9005122565577,left,1,1,0.8864444492937764,H17K06,2022-11-15_10h58.36.995,t1_Paradigm,2021.1.4,60.04742632174145,
T,left,Pretarget,0,17,17,17,331.3987497706257,333.3989740111865,left,1,1,0.6199071085866308,H17K06,2022-11-15_10h58.36.995,t1_Paradigm,2021.1.4,60.04742632174145,
T,right,Target,0,18,18,18,334.898770622749,336.89876581072167,right,1,1,0.46431238666991703,H17K06,2022-11-15_10h58.36.995,t1_Paradigm,2021.1.4,60.04742632174145,
S,left,Distractor,0,19,19,19,338.39874624180084,340.4016478954727,left,1,1,0.6413145437545609,H17K06,2022-11-15_10h58.36.995,t1_Paradigm,2021.1.4,60.04742632174145,
T,left,Lure,0,20,20,20,341.8987712643575,343.9007547828369,left,1,1,0.8701759406249039,H17K06,2022-11-15_10h58.36.995,t1_Paradigm,2021.1.4,60.04742632174145,
J,left,Distractor,0,21,21,21,345.39851847241516,347.40013242705027,left,1,1,0.5866951239440823,H17K06,2022-11-15_10h58.36.995,t1_Paradigm,2021.1.4,60.04742632174145,
P,left,Distractor,0,22,22,22,348.89864743480575,350.90087989559106,left,1,1,0.7179669625329552,H17K06,2022-11-15_10h58.36.995,t1_Paradigm,2021.1.4,60.04742632174145,
F,left,Distractor,0,23,23,23,352.39885659767606,354.4002953944437,left,1,1,0.5950892278488027,H17K06,2022-11-15_10h58.36.995,t1_Paradigm,2021.1.4,60.04742632174145,
L,left,Distractor,0,24,24,24,355.8988206678623,357.8999919157941,left,1,1,0.5189703027281212,H17K06,2022-11-15_10h58.36.995,t1_Paradigm,2021.1.4,60.04742632174145,
W,left,Pretarget,0,25,25,25,359.3987568282755,361.4000955348165,left,1,1,0.41091329749906436,H17K06,2022-11-15_10h58.36.995,t1_Paradigm,2021.1.4,60.04742632174145,
W,right,Target,0,26,26,26,362.89879917413054,364.8987783219927,left,0,1,0.46428158969501965,H17K06,2022-11-15_10h58.36.995,t1_Paradigm,2021.1.4,60.04742632174145,
V,left,Distractor,0,27,27,27,366.39847227693826,368.39880559017183,left,1,1,0.7242149013763992,H17K06,2022-11-15_10h58.36.995,t1_Paradigm,2021.1.4,60.04742632174145,
W,left,Lure,0,28,28,28,369.8988642969198,371.90067426154565,left,1,1,0.6784274801466381,H17K06,2022-11-15_10h58.36.995,t1_Paradigm,2021.1.4,60.04742632174145,
R,left,Pretarget,0,29,29,29,373.3987337305298,375.4015555045189,left,1,1,0.5694010114239063,H17K06,2022-11-15_10h58.36.995,t1_Paradigm,2021.1.4,60.04742632174145,
R,right,Target,0,30,30,30,376.89882900871453,378.89864679319726,right,1,1,0.4963800707628252,H17K06,2022-11-15_10h58.36.995,t1_Paradigm,2021.1.4,60.04742632174145,
G,left,Distractor,0,31,31,31,380.39865898367134,382.4002450285334,left,1,1,0.6426724984194152,H17K06,2022-11-15_10h58.36.995,t1_Paradigm,2021.1.4,60.04742632174145,
R,left,Lure,0,32,32,32,383.89874688340933,385.9007243066444,left,1,1,0.7903004246036289,H17K06,2022-11-15_10h58.36.995,t1_Paradigm,2021.1.4,60.04742632174145,
S,left,Distractor,0,33,33,33,387.39873180571885,389.4008561562514,left,1,1,0.5380743798450567,H17K06,2022-11-15_10h58.36.995,t1_Paradigm,2021.1.4,60.04742632174145,
R,left,Lure,0,34,34,34,390.89851333959086,392.8996027830144,left,1,1,0.5913993637950625,H17K06,2022-11-15_10h58.36.995,t1_Paradigm,2021.1.4,60.04742632174145,
P,left,Pretarget,0,35,35,35,394.3987093495816,396.3995774396608,left,1,1,0.5475357918767259,H17K06,2022-11-15_10h58.36.995,t1_Paradigm,2021.1.4,60.04742632174145,
P,right,Target,0,36,36,36,397.89856659271754,399.89854124934936,right,1,1,0.4723420595837524,H17K06,2022-11-15_10h58.36.995,t1_Paradigm,2021.1.4,60.04742632174145,
Y,left,Pretarget,0,37,37,37,401.39882612149813,403.3990442668146,left,1,1,0.5077765601599822,H17K06,2022-11-15_10h58.36.995,t1_Paradigm,2021.1.4,60.04742632174145,
Y,right,Target,0,38,38,38,404.898900868342,406.89880206134694,right,1,1,0.5761638373951428,H17K06,2022-11-15_10h58.36.995,t1_Paradigm,2021.1.4,60.04742632174145,
J,left,Distractor,0,39,39,39,408.39885659767606,410.40063095328514,left,1,1,0.818260239684605,H17K06,2022-11-15_10h58.36.995,t1_Paradigm,2021.1.4,60.04742632174145,
Y,left,Lure,0,40,40,40,411.89854477817426,413.9009106925805,left,1,1,0.5979472524632001,H17K06,2022-11-15_10h58.36.995,t1_Paradigm,2021.1.4,60.04742632174145,
T,left,Distractor,0,41,41,41,415.39883895356616,417.4001625824312,left,1,1,0.6187400310736848,H17K06,2022-11-15_10h58.36.995,t1_Paradigm,2021.1.4,60.04742632174145,
V,left,Distractor,0,42,42,42,418.89849312906154,420.90074098834884,left,1,1,0.5423086448427057,H17K06,2022-11-15_10h58.36.995,t1_Paradigm,2021.1.4,60.04742632174145,
N,left,Pretarget,0,43,43,43,422.398740788165,424.4014390533994,left,1,1,0.5456472307705553,H17K06,2022-11-15_10h58.36.995,t1_Paradigm,2021.1.4,60.04742632174145,
N,right,Target,0,44,44,44,425.89859706889547,427.8987215400557,right,1,1,0.5680600592604605,H17K06,2022-11-15_10h58.36.995,t1_Paradigm,2021.1.4,60.04742632174145,
N,right,Target,0,45,45,45,429.3986804774031,431.39882965030847,right,1,1,0.4601875151565764,H17K06,2022-11-15_10h58.36.995,t1_Paradigm,2021.1.4,60.04742632174145,
X,left,Distractor,0,46,46,46,432.89887937461026,434.9012183416635,left,1,1,0.49372190577560104,H17K06,2022-11-15_10h58.36.995,t1_Paradigm,2021.1.4,60.04742632174145,
Z,left,Distractor,0,47,47,47,436.398815855835,438.4012090384058,left,1,1,0.5778958471637452,H17K06,2022-11-15_10h58.36.995,t1_Paradigm,2021.1.4,60.04742632174145,
H,left,Pretarget,0,48,48,48,439.89876356511377,441.9005655096844,left,1,1,0.5343206761899637,H17K06,2022-11-15_10h58.36.995,t1_Paradigm,2021.1.4,60.04742632174145,
H,right,Target,0,49,49,49,443.3986891390523,445.3988524272572,left,0,1,0.4120094777754275,H17K06,2022-11-15_10h58.36.995,t1_Paradigm,2021.1.4,60.04742632174145,
K,left,Distractor,0,50,50,50,446.898844086405,448.899805529858,left,1,1,0.7030471052712528,H17K06,2022-11-15_10h58.36.995,t1_Paradigm,2021.1.4,60.04742632174145,
V,left,Pretarget,0,51,51,51,450.3987613194913,452.40110862739675,left,1,1,0.7219009568943875,H17K06,2022-11-15_10h58.36.995,t1_Paradigm,2021.1.4,60.04742632174145,
V,right,Target,0,52,52,52,453.89873244732735,455.89877735958726,right,1,1,0.39220861879584845,H17K06,2022-11-15_10h58.36.995,t1_Paradigm,2021.1.4,60.04742632174145,
R,left,Distractor,0,53,53,53,457.3987330889213,459.40069415126345,left,1,1,0.6501382014830597,H17K06,2022-11-15_10h58.36.995,t1_Paradigm,2021.1.4,60.04742632174145,
V,left,Lure,0,54,54,54,460.89865834206284,462.8994119058625,left,1,1,0.8958468337514205,H17K06,2022-11-15_10h58.36.995,t1_Paradigm,2021.1.4,60.04742632174145,
Y,left,Distractor,0,55,55,55,464.3986483972112,466.40065373021935,left,1,1,0.6582496788760182,H17K06,2022-11-15_10h58.36.995,t1_Paradigm,2021.1.4,60.04742632174145,
Q,left,Distractor,0,56,56,56,467.89871191600105,469.90083402091113,left,1,1,0.6301515981613193,H17K06,2022-11-15_10h58.36.995,t1_Paradigm,2021.1.4,60.04742632174145,
Z,left,Pretarget,0,57,57,57,471.3988264422951,473.4002905824018,left,1,1,0.6664804946049117,H17K06,2022-11-15_10h58.36.995,t1_Paradigm,2021.1.4,60.04742632174145,
Z,right,Target,0,58,58,58,474.8988626929204,476.8987250688806,right,1,1,0.4323887426726287,H17K06,2022-11-15_10h58.36.995,t1_Paradigm,2021.1.4,60.04742632174145,
B,left,Distractor,0,59,59,59,478.39830032708414,480.3992383519944,left,1,1,0.5957574583298992,H17K06,2022-11-15_10h58.36.995,t1_Paradigm,2021.1.4,60.04742632174145,
S,left,Pretarget,0,60,60,60,481.8984623320721,483.89973976546025,left,1,1,0.6312535528850276,H17K06,2022-11-15_10h58.36.995,t1_Paradigm,2021.1.4,60.04742632174145,
S,right,Target,0,61,61,61,485.39872538967757,487.39876067789737,right,1,1,0.46021478333568666,H17K06,2022-11-15_10h58.36.995,t1_Paradigm,2021.1.4,60.04742632174145,
T,left,Distractor,0,62,62,62,488.8986811190116,490.90072077783407,left,1,1,0.68616971449228,H17K06,2022-11-15_10h58.36.995,t1_Paradigm,2021.1.4,60.04742632174145,
D,left,Distractor,0,63,63,63,492.39875746986945,494.40066431667947,left,1,1,0.5463812256348319,H17K06,2022-11-15_10h58.36.995,t1_Paradigm,2021.1.4,60.04742632174145,
R,left,Distractor,0,0,0,0,525.3322038965853,527.3338832948211,None,0,1,,H17K06,2022-11-15_10h58.36.995,t1_Paradigm,2021.1.4,60.04742632174145,
V,left,Distractor,0,1,1,1,528.832095465521,530.8337225730356,left,1,1,0.4651923464407446,H17K06,2022-11-15_10h58.36.995,t1_Paradigm,2021.1.4,60.04742632174145,
N,left,Pretarget,0,2,2,2,532.332473691029,534.3341014401376,left,1,1,0.5167237266432494,H17K06,2022-11-15_10h58.36.995,t1_Paradigm,2021.1.4,60.04742632174145,
N,right,Target,0,3,3,3,535.831977410402,537.8318548640673,right,1,1,0.5710200988833094,H17K06,2022-11-15_10h58.36.995,t1_Paradigm,2021.1.4,60.04742632174145,
S,left,Distractor,0,4,4,4,539.3324214003078,541.3357808383735,left,1,1,0.41126329243707005,H17K06,2022-11-15_10h58.36.995,t1_Paradigm,2021.1.4,60.04742632174145,
N,left,Lure,0,5,5,5,542.8319607287121,544.8333639164484,left,1,1,0.7695750144048361,H17K06,2022-11-15_10h58.36.995,t1_Paradigm,2021.1.4,60.04742632174145,
Z,left,Distractor,0,6,6,6,546.3324056810234,548.3353721366875,left,1,1,0.6116461374767823,H17K06,2022-11-15_10h58.36.995,t1_Paradigm,2021.1.4,60.04742632174145,
L,left,Pretarget,0,7,7,7,549.8320588940987,551.8339625328954,left,1,1,0.56892365810927,H17K06,2022-11-15_10h58.36.995,t1_Paradigm,2021.1.4,60.04742632174145,
L,right,Target,0,8,8,8,553.3326485280995,555.332225390317,right,1,1,0.5907154140295461,H17K06,2022-11-15_10h58.36.995,t1_Paradigm,2021.1.4,60.04742632174145,
H,left,Distractor,0,9,9,9,556.831992808904,558.8339070341608,left,1,1,0.44896265481656883,H17K06,2022-11-15_10h58.36.995,t1_Paradigm,2021.1.4,60.04742632174145,
L,left,Lure,0,10,10,10,560.3326296007872,562.3349797958945,left,1,1,0.7400057359336643,H17K06,2022-11-15_10h58.36.995,t1_Paradigm,2021.1.4,60.04742632174145,
X,left,Pretarget,0,11,11,11,563.8321163176588,565.8337289890769,left,1,1,0.5371254476776812,H17K06,2022-11-15_10h58.36.995,t1_Paradigm,2021.1.4,60.04742632174145,
X,right,Target,0,12,12,12,567.3322058213962,569.3319799768215,right,1,1,0.6868681003543315,H17K06,2022-11-15_10h58.36.995,t1_Paradigm,2021.1.4,60.04742632174145,
X,right,Target,0,13,13,13,570.8317570194631,572.8320152650413,right,1,1,0.6108588894858258,H17K06,2022-11-15_10h58.36.995,t1_Paradigm,2021.1.4,60.04742632174145,
R,left,Distractor,0,14,14,14,574.3323498614773,576.3352701216645,left,1,1,0.4676208172313636,H17K06,2022-11-15_10h58.36.995,t1_Paradigm,2021.1.4,60.04742632174145,
T,left,Distractor,0,15,15,15,577.8311147739587,579.8333976006543,left,1,1,0.4095457187795546,H17K06,2022-11-15_10h58.36.995,t1_Paradigm,2021.1.4,60.04742632174145,
V,left,Pretarget,0,16,16,16,581.3323995857791,583.3335037861107,left,1,1,0.6054646046395646,H17K06,2022-11-15_10h58.36.995,t1_Paradigm,2021.1.4,60.04742632174145,
V,right,Target,0,17,17,17,584.8319315357367,586.8319623327116,right,1,1,0.3549641535792034,H17K06,2022-11-15_10h58.36.995,t1_Paradigm,2021.1.4,60.04742632174145,
N,left,Distractor,0,18,18,18,588.3324037562124,590.3341854902537,left,1,1,0.5486858668737113,H17K06,2022-11-15_10h58.36.995,t1_Paradigm,2021.1.4,60.04742632174145,
B,left,Distractor,0,19,19,19,591.832109260009,593.8338739915635,left,1,1,0.5529557408735855,H17K06,2022-11-15_10h58.36.995,t1_Paradigm,2021.1.4,60.04742632174145,
V,left,Lure,0,20,20,20,595.3323662223702,597.3444469823444,left,1,1,0.48244379229436163,H17K06,2022-11-15_10h58.36.995,t1_Paradigm,2021.1.4,60.04742632174145,
P,left,Distractor,0,21,21,21,598.832096748738,600.8323966985627,left,1,1,0.434408511777292,H17K06,2022-11-15_10h58.36.995,t1_Paradigm,2021.1.4,60.04742632174145,
K,left,Pretarget,0,22,22,22,602.3324505932833,604.3339285278926,left,1,1,0.500914606382139,H17K06,2022-11-15_10h58.36.995,t1_Paradigm,2021.1.4,60.04742632174145,
K,right,Target,0,23,23,23,605.8321060519957,607.8319934505125,right,1,1,0.4909739162394544,H17K06,2022-11-15_10h58.36.995,t1_Paradigm,2021.1.4,60.04742632174145,
J,left,Pretarget,0,24,24,24,609.3324637461774,611.3344876857009,left,1,1,0.47654007392702624,H17K06,2022-11-15_10h58.36.995,t1_Paradigm,2021.1.4,60.04742632174145,
J,right,Target,0,25,25,25,612.8320187938662,614.8317643979099,right,1,1,0.579167506104568,H17K06,2022-11-15_10h58.36.995,t1_Paradigm,2021.1.4,60.04742632174145,
H,left,Distractor,0,26,26,26,616.3318632049195,618.3336311444727,left,1,1,0.43720269679033663,H17K06,2022-11-15_10h58.36.995,t1_Paradigm,2021.1.4,60.04742632174145,
J,left,Lure,0,27,27,27,619.8317146736081,621.8337905830558,None,0,1,,H17K06,2022-11-15_10h58.36.995,t1_Paradigm,2021.1.4,60.04742632174145,
V,left,Distractor,0,28,28,28,623.3324342323904,625.3345415804215,left,1,1,0.7002676771371625,H17K06,2022-11-15_10h58.36.995,t1_Paradigm,2021.1.4,60.04742632174145,
Z,left,Pretarget,0,29,29,29,626.832066914154,628.8327178213221,left,1,1,0.6422115060122451,H17K06,2022-11-15_10h58.36.995,t1_Paradigm,2021.1.4,60.04742632174145,
Z,right,Target,0,30,30,30,630.3322302023444,632.3316716861445,right,1,1,0.4232073907623999,H17K06,2022-11-15_10h58.36.995,t1_Paradigm,2021.1.4,60.04742632174145,
T,left,Distractor,0,31,31,31,633.8320056409866,635.8335657008865,left,1,1,0.4414408113952959,H17K06,2022-11-15_10h58.36.995,t1_Paradigm,2021.1.4,60.04742632174145,
Z,left,Lure,0,32,32,32,637.3321759868122,639.3345091794326,left,1,1,0.7003607097140048,H17K06,2022-11-15_10h58.36.995,t1_Paradigm,2021.1.4,60.04742632174145,
F,left,Distractor,0,33,33,33,640.8320341923536,642.8331669440522,left,1,1,0.5618660151376389,H17K06,2022-11-15_10h58.36.995,t1_Paradigm,2021.1.4,60.04742632174145,
Y,left,Pretarget,0,34,34,34,644.3327428438643,646.3348457006796,left,1,1,0.5961882953561144,H17K06,2022-11-15_10h58.36.995,t1_Paradigm,2021.1.4,60.04742632174145,
Y,right,Target,0,35,35,35,647.8318494104315,649.8319886384706,right,1,1,0.5228840865602251,H17K06,2022-11-15_10h58.36.995,t1_Paradigm,2021.1.4,60.04742632174145,
Y,right,Target,0,36,36,36,651.3326902323461,653.3316193954233,right,1,1,0.5433204542059684,H17K06,2022-11-15_10h58.36.995,t1_Paradigm,2021.1.4,60.04742632174145,
W,left,Distractor,0,37,37,37,654.831964578334,656.8332833951572,left,1,1,0.43348877257085405,H17K06,2022-11-15_10h58.36.995,t1_Paradigm,2021.1.4,60.04742632174145,
Q,left,Distractor,0,38,38,38,658.3322035757883,660.3335685881029,left,1,1,0.5492649143998278,H17K06,2022-11-15_10h58.36.995,t1_Paradigm,2021.1.4,60.04742632174145,
P,left,Pretarget,0,39,39,39,661.8319918464986,663.8332641470479,left,1,1,0.6175514598435257,H17K06,2022-11-15_10h58.36.995,t1_Paradigm,2021.1.4,60.04742632174145,
P,right,Target,0,40,40,40,665.3319908840931,667.33272006693,right,1,1,0.622239659584011,H17K06,2022-11-15_10h58.36.995,t1_Paradigm,2021.1.4,60.04742632174145,
J,left,Distractor,0,41,41,41,668.8319815808354,670.8335268838418,left,1,1,0.5294874739629449,H17K06,2022-11-15_10h58.36.995,t1_Paradigm,2021.1.4,60.04742632174145,
P,left,Lure,0,42,42,42,672.3325327185885,674.3335904026317,left,1,1,0.5974333277263213,H17K06,2022-11-15_10h58.36.995,t1_Paradigm,2021.1.4,60.04742632174145,
L,left,Distractor,0,43,43,43,675.8317242976627,677.8335124477599,left,1,1,1.0492950697953347,H17K06,2022-11-15_10h58.36.995,t1_Paradigm,2021.1.4,60.04742632174145,
Z,left,Distractor,0,44,44,44,679.3322892299038,681.3348970289953,left,1,1,0.5560152291000122,H17K06,2022-11-15_10h58.36.995,t1_Paradigm,2021.1.4,60.04742632174145,
F,left,Pretarget,0,45,45,45,682.8322388640081,684.8344928185252,left,1,1,0.5765048498869874,H17K06,2022-11-15_10h58.36.995,t1_Paradigm,2021.1.4,60.04742632174145,
F,right,Target,0,46,46,46,686.3319170996401,688.3317005583231,right,1,1,0.5350906008825405,H17K06,2022-11-15_10h58.36.995,t1_Paradigm,2021.1.4,60.04742632174145,
G,left,Pretarget,0,47,47,47,689.8318503728369,691.8342701819638,left,1,1,0.5845717358024558,H17K06,2022-11-15_10h58.36.995,t1_Paradigm,2021.1.4,60.04742632174145,
G,right,Target,0,48,48,48,693.3324053602119,695.3321015607653,right,1,1,0.3668514699820662,H17K06,2022-11-15_10h58.36.995,t1_Paradigm,2021.1.4,60.04742632174145,
V,left,Distractor,0,49,49,49,696.8319270445063,698.8338961268892,left,1,1,0.8168923401390202,H17K06,2022-11-15_10h58.36.995,t1_Paradigm,2021.1.4,60.04742632174145,
G,left,Lure,0,50,50,50,700.3322465632518,702.3337732597429,left,1,1,0.6770435405342141,H17K06,2022-11-15_10h58.36.995,t1_Paradigm,2021.1.4,60.04742632174145,
Q,left,Pretarget,0,51,51,51,703.8318012901436,705.8332474653434,left,1,1,0.7620534917950863,H17K06,2022-11-15_10h58.36.995,t1_Paradigm,2021.1.4,60.04742632174145,
Q,right,Target,0,52,52,52,707.3323222725157,709.3318340119295,right,1,1,0.5112251811515307,H17K06,2022-11-15_10h58.36.995,t1_Paradigm,2021.1.4,60.04742632174145,
Y,left,Distractor,0,53,53,53,710.8320473452331,712.8341659213329,left,1,1,0.5449071406765142,H17K06,2022-11-15_10h58.36.995,t1_Paradigm,2021.1.4,60.04742632174145,
V,left,Distractor,0,54,54,54,714.3317249392712,716.3346381418087,left,1,1,0.6124163829663303,H17K06,2022-11-15_10h58.36.995,t1_Paradigm,2021.1.4,60.04742632174145,
B,left,Distractor,0,55,55,55,717.8320207186771,719.8339185830264,left,1,1,0.5369461193913594,H17K06,2022-11-15_10h58.36.995,t1_Paradigm,2021.1.4,60.04742632174145,
J,left,Pretarget,0,56,56,56,721.332315214866,723.3344434150204,left,1,1,0.6364081986685051,H17K06,2022-11-15_10h58.36.995,t1_Paradigm,2021.1.4,60.04742632174145,
J,right,Target,0,57,57,57,724.8321025231708,726.8320447788137,right,1,1,0.5310096792381955,H17K06,2022-11-15_10h58.36.995,t1_Paradigm,2021.1.4,60.04742632174145,
H,left,Distractor,0,58,58,58,728.3325368890219,730.3346528987022,left,1,1,0.5001498145138612,H17K06,2022-11-15_10h58.36.995,t1_Paradigm,2021.1.4,60.04742632174145,
J,left,Lure,0,59,59,59,731.8319581622927,733.8331592448085,left,1,1,0.7298478628945304,H17K06,2022-11-15_10h58.36.995,t1_Paradigm,2021.1.4,60.04742632174145,
D,left,Pretarget,0,60,60,60,735.3319013803412,737.3448104509589,left,1,1,0.5781723784457427,H17K06,2022-11-15_10h58.36.995,t1_Paradigm,2021.1.4,60.04742632174145,
D,right,Target,0,61,61,61,738.8319177412486,740.8320165482437,left,0,1,0.4347739052027464,H17K06,2022-11-15_10h58.36.995,t1_Paradigm,2021.1.4,60.04742632174145,
R,left,Distractor,0,62,62,62,742.3319514254545,744.3351017006353,left,1,1,0.6119396712747402,H17K06,2022-11-15_10h58.36.995,t1_Paradigm,2021.1.4,60.04742632174145,
F,left,Distractor,0,63,63,63,745.8316992751206,747.8331553951866,left,1,1,0.6819194094132399,H17K06,2022-11-15_10h58.36.995,t1_Paradigm,2021.1.4,60.04742632174145,
F,left,Distractor,0,0,0,0,944.0099679583072,946.0149840176455,None,0,2,,H17K06,2022-11-15_10h58.36.995,t1_Paradigm,2021.1.4,60.04742632174145,
N,left,Pretarget,0,1,1,1,947.5153189348785,949.5159878069535,None,0,2,,H17K06,2022-11-15_10h58.36.995,t1_Paradigm,2021.1.4,60.04742632174145,
V,left,Distractor,0,2,2,2,951.0148800778115,953.0171503932361,left,1,2,0.7298642237874446,H17K06,2022-11-15_10h58.36.995,t1_Paradigm,2021.1.4,60.04742632174145,
N,right,Target,0,3,3,3,954.5152374511963,956.5170827040274,right,1,2,0.9257821472419892,H17K06,2022-11-15_10h58.36.995,t1_Paradigm,2021.1.4,60.04742632174145,
N,left,Lure,0,4,4,4,958.0152788346459,960.0151764988113,left,1,2,1.011704459277098,H17K06,2022-11-15_10h58.36.995,t1_Paradigm,2021.1.4,60.04742632174145,
X,left,Distractor,0,5,5,5,961.5151216416853,963.5162938520225,left,1,2,1.1905749669240322,H17K06,2022-11-15_10h58.36.995,t1_Paradigm,2021.1.4,60.04742632174145,
G,left,Pretarget,0,6,6,6,965.0148890602723,967.0160596665955,left,1,2,1.2588448306487408,H17K06,2022-11-15_10h58.36.995,t1_Paradigm,2021.1.4,60.04742632174145,
H,left,Pretarget,0,7,7,7,968.5152461128455,970.5171526388585,left,1,2,0.7656621929781977,H17K06,2022-11-15_10h58.36.995,t1_Paradigm,2021.1.4,60.04742632174145,
G,right,Target,0,8,8,8,972.0149464838178,974.0167635060789,left,0,2,1.122149193441146,H17K06,2022-11-15_10h58.36.995,t1_Paradigm,2021.1.4,60.04742632174145,
H,right,Target,0,9,9,9,975.5149140828144,977.5172751851933,left,0,2,1.3014771646849113,H17K06,2022-11-15_10h58.36.995,t1_Paradigm,2021.1.4,60.04742632174145,
T,left,Pretarget,0,10,10,10,979.0147825540189,981.0170830248244,left,1,2,1.2097265227494063,H17K06,2022-11-15_10h58.36.995,t1_Paradigm,2021.1.4,60.04742632174145,
K,left,Distractor,0,11,11,11,982.5153721880051,984.5280412987631,left,1,2,1.250953423397732,H17K06,2022-11-15_10h58.36.995,t1_Paradigm,2021.1.4,60.04742632174145,
T,right,Target,0,12,12,12,986.0152133910451,988.0173627641343,right,1,2,0.6575792028015712,H17K06,2022-11-15_10h58.36.995,t1_Paradigm,2021.1.4,60.04742632174145,
T,left,Lure,0,13,13,13,989.5151620627294,991.5151562882966,left,1,2,1.0638838594168192,H17K06,2022-11-15_10h58.36.995,t1_Paradigm,2021.1.4,60.04742632174145,
J,left,Distractor,0,14,14,14,993.015083466249,995.0153240677173,left,1,2,1.0673215731658274,H17K06,2022-11-15_10h58.36.995,t1_Paradigm,2021.1.4,60.04742632174145,
Q,left,Pretarget,0,15,15,15,996.5148210502521,998.5174079972057,left,1,2,0.7813737894466612,H17K06,2022-11-15_10h58.36.995,t1_Paradigm,2021.1.4,60.04742632174145,
M,left,Distractor,0,16,16,16,1000.0152220526943,1002.0183893303765,left,1,2,0.9286369638284668,H17K06,2022-11-15_10h58.36.995,t1_Paradigm,2021.1.4,60.04742632174145,
Q,right,Target,0,17,17,17,1003.5153962481563,1005.5172475962318,right,1,2,0.5655401599069592,H17K06,2022-11-15_10h58.36.995,t1_Paradigm,2021.1.4,60.04742632174145,
R,left,Distractor,0,18,18,18,1007.0152117870311,1009.014694012687,left,1,2,0.7003395367937628,H17K06,2022-11-15_10h58.36.995,t1_Paradigm,2021.1.4,60.04742632174145,
W,left,Distractor,0,19,19,19,1010.5152618321445,1012.5167657517013,left,1,2,0.7019945540669141,H17K06,2022-11-15_10h58.36.995,t1_Paradigm,2021.1.4,60.04742632174145,
C,left,Pretarget,0,20,20,20,1014.0152165990585,1016.0174920473219,left,1,2,1.1054026898636948,H17K06,2022-11-15_10h58.36.995,t1_Paradigm,2021.1.4,60.04742632174145,
T,left,Distractor,0,21,21,21,1017.5151569299051,1019.5166403181356,left,1,2,0.7263151917723008,H17K06,2022-11-15_10h58.36.995,t1_Paradigm,2021.1.4,60.04742632174145,
C,right,Target,0,22,22,22,1021.0149054211652,1023.0157667744061,right,1,2,0.7956064889294794,H17K06,2022-11-15_10h58.36.995,t1_Paradigm,2021.1.4,60.04742632174145,
F,left,Pretarget,0,23,23,23,1024.5150205890677,1026.5173752754054,left,1,2,0.6694620279595256,H17K06,2022-11-15_10h58.36.995,t1_Paradigm,2021.1.4,60.04742632174145,
C,right,Target,0,24,24,24,1028.0151582131075,1030.0155685188074,right,1,2,1.283392596145859,H17K06,2022-11-15_10h58.36.995,t1_Paradigm,2021.1.4,60.04742632174145,
F,right,Target,0,25,25,25,1031.5152117870311,1033.5168805987923,right,1,2,0.7900482742843451,H17K06,2022-11-15_10h58.36.995,t1_Paradigm,2021.1.4,60.04742632174145,
H,left,Distractor,0,26,26,26,1035.0150632557343,1037.014462072868,left,1,2,1.2123086576757487,H17K06,2022-11-15_10h58.36.995,t1_Paradigm,2021.1.4,60.04742632174145,
H,left,Lure,0,27,27,27,1038.5151527594717,1040.5150504236517,left,1,2,1.2159282661159523,H17K06,2022-11-15_10h58.36.995,t1_Paradigm,2021.1.4,60.04742632174145,
P,left,Distractor,0,28,28,28,1042.0149009299348,1044.0176954357594,left,1,2,0.8170614027767442,H17K06,2022-11-15_10h58.36.995,t1_Paradigm,2021.1.4,60.04742632174145,
G,left,Pretarget,0,29,29,29,1045.5151534010802,1047.5175940623449,left,1,2,0.9011917151074158,H17K06,2022-11-15_10h58.36.995,t1_Paradigm,2021.1.4,60.04742632174145,
K,left,Distractor,0,30,30,30,1049.0149278773024,1051.0160417016887,left,1,2,0.8908888395671966,H17K06,2022-11-15_10h58.36.995,t1_Paradigm,2021.1.4,60.04742632174145,
G,right,Target,0,31,31,31,1052.515185802069,1054.5145217420359,right,1,2,1.0883754845708609,H17K06,2022-11-15_10h58.36.995,t1_Paradigm,2021.1.4,60.04742632174145,
M,left,Pretarget,0,32,32,32,1056.0153166892705,1058.0166666238947,left,1,2,0.9462804296636023,H17K06,2022-11-15_10h58.36.995,t1_Paradigm,2021.1.4,60.04742632174145,
B,left,Distractor,0,33,33,33,1059.5151819524472,1061.516991917073,left,1,2,1.1098085838893894,H17K06,2022-11-15_10h58.36.995,t1_Paradigm,2021.1.4,60.04742632174145,
M,right,Target,0,34,34,34,1063.0152583033196,1065.016890222847,right,1,2,0.6179784472478786,H17K06,2022-11-15_10h58.36.995,t1_Paradigm,2021.1.4,60.04742632174145,
M,left,Lure,0,35,35,35,1066.5150045489718,1068.5152101830172,left,1,2,0.9916790389397647,H17K06,2022-11-15_10h58.36.995,t1_Paradigm,2021.1.4,60.04742632174145,
T,left,Distractor,0,36,36,36,1070.0152252607222,1072.016699666492,left,1,2,0.6902182351477677,H17K06,2022-11-15_10h58.36.995,t1_Paradigm,2021.1.4,60.04742632174145,
F,left,Distractor,0,37,37,37,1073.5150026241608,1075.528131764906,left,1,2,1.1308336231304565,H17K06,2022-11-15_10h58.36.995,t1_Paradigm,2021.1.4,60.04742632174145,
X,left,Distractor,0,38,38,38,1077.0149452006153,1079.0171070849756,left,1,2,1.033663032198092,H17K06,2022-11-15_10h58.36.995,t1_Paradigm,2021.1.4,60.04742632174145,
C,left,Distractor,0,39,39,39,1080.514936859763,1082.5166480173793,left,1,2,0.9902521118347067,H17K06,2022-11-15_10h58.36.995,t1_Paradigm,2021.1.4,60.04742632174145,
R,left,Distractor,0,40,40,40,1084.0153590351256,1086.0174516262778,left,1,2,0.9935101764713181,H17K06,2022-11-15_10h58.36.995,t1_Paradigm,2021.1.4,60.04742632174145,
B,left,Pretarget,0,41,41,41,1087.5151145840355,1089.515882904714,left,1,2,1.1429150246840436,H17K06,2022-11-15_10h58.36.995,t1_Paradigm,2021.1.4,60.04742632174145,
H,left,Distractor,0,42,42,42,1091.015175215609,1093.0151562882966,left,1,2,1.1478370890690712,H17K06,2022-11-15_10h58.36.995,t1_Paradigm,2021.1.4,60.04742632174145,
B,right,Target,0,43,43,43,1094.5151440978225,1096.5174054307863,right,1,2,0.5895207475405186,H17K06,2022-11-15_10h58.36.995,t1_Paradigm,2021.1.4,60.04742632174145,
W,left,Pretarget,0,44,44,44,1098.0149403885735,1100.0166059923213,left,1,2,0.9784969658649061,H17K06,2022-11-15_10h58.36.995,t1_Paradigm,2021.1.4,60.04742632174145,
L,left,Pretarget,0,45,45,45,1101.5151720075955,1103.5168170800025,left,1,2,0.9179090257093776,H17K06,2022-11-15_10h58.36.995,t1_Paradigm,2021.1.4,60.04742632174145,
W,right,Target,0,46,46,46,1105.014998774539,1107.0167285386706,right,1,2,0.9700617992784828,H17K06,2022-11-15_10h58.36.995,t1_Paradigm,2021.1.4,60.04742632174145,
L,right,Target,0,47,47,47,1108.515218844681,1110.51715199725,right,1,2,0.6695826494978974,H17K06,2022-11-15_10h58.36.995,t1_Paradigm,2021.1.4,60.04742632174145,
W,right,Target,0,48,48,48,1112.0151832356642,1114.0162935312255,right,1,2,0.7705037360574352,H17K06,2022-11-15_10h58.36.995,t1_Paradigm,2021.1.4,60.04742632174145,
X,left,Distractor,0,49,49,49,1115.5152201278834,1117.517037791753,left,1,2,0.8375064320716774,H17K06,2022-11-15_10h58.36.995,t1_Paradigm,2021.1.4,60.04742632174145,
R,left,Distractor,0,50,50,50,1119.0149192156532,1121.0171433356008,left,1,2,0.761855556993396,H17K06,2022-11-15_10h58.36.995,t1_Paradigm,2021.1.4,60.04742632174145,
V,left,Pretarget,0,51,51,51,1122.5147815916134,1124.5175138618506,left,1,2,1.069309903672547,H17K06,2022-11-15_10h58.36.995,t1_Paradigm,2021.1.4,60.04742632174145,
Z,left,Distractor,0,52,52,52,1126.015174894812,1128.017126012288,left,1,2,0.9298765425774036,H17K06,2022-11-15_10h58.36.995,t1_Paradigm,2021.1.4,60.04742632174145,
V,right,Target,0,53,53,53,1129.515143456214,1131.5166483381763,right,1,2,1.0142156969668576,H17K06,2022-11-15_10h58.36.995,t1_Paradigm,2021.1.4,60.04742632174145,
V,left,Lure,0,54,54,54,1133.0152268647216,1135.014980809632,left,1,2,0.8919160474033561,H17K06,2022-11-15_10h58.36.995,t1_Paradigm,2021.1.4,60.04742632174145,
N,left,Distractor,0,55,55,55,1136.515305781999,1138.515940969868,left,1,2,0.7991930547723314,H17K06,2022-11-15_10h58.36.995,t1_Paradigm,2021.1.4,60.04742632174145,
B,left,Distractor,0,56,56,56,1140.0151655915543,1142.0159939021978,left,1,2,0.946950584941078,H17K06,2022-11-15_10h58.36.995,t1_Paradigm,2021.1.4,60.04742632174145,
V,left,Lure,0,57,57,57,1143.5151206792798,1145.5170714759588,left,1,2,0.7738420011883136,H17K06,2022-11-15_10h58.36.995,t1_Paradigm,2021.1.4,60.04742632174145,
J,left,Distractor,0,58,58,58,1147.0152252607222,1149.0168603882776,left,1,2,0.8260659928200766,H17K06,2022-11-15_10h58.36.995,t1_Paradigm,2021.1.4,60.04742632174145,
H,left,Distractor,0,59,59,59,1150.5151578923105,1152.5158492205082,left,1,2,0.6709075615508482,H17K06,2022-11-15_10h58.36.995,t1_Paradigm,2021.1.4,60.04742632174145,
X,left,Pretarget,0,60,60,60,1154.0152114662342,1156.0166788143688,left,1,2,0.7222814280103194,H17K06,2022-11-15_10h58.36.995,t1_Paradigm,2021.1.4,60.04742632174145,
P,left,Distractor,0,61,61,61,1157.5151264537126,1159.5163782229356,left,1,2,0.934284040617058,H17K06,2022-11-15_10h58.36.995,t1_Paradigm,2021.1.4,60.04742632174145,
X,right,Target,0,62,62,62,1161.015257982508,1163.0151200376713,right,1,2,0.907762059912784,H17K06,2022-11-15_10h58.36.995,t1_Paradigm,2021.1.4,60.04742632174145,
Q,left,Distractor,0,63,63,63,1164.5151655915543,1166.517256257881,left,1,2,1.0535585277539212,H17K06,2022-11-15_10h58.36.995,t1_Paradigm,2021.1.4,60.04742632174145,
B,left,Pretarget,0,0,0,0,1198.597399964332,1200.6005739788525,None,0,2,,H17K06,2022-11-15_10h58.36.995,t1_Paradigm,2021.1.4,60.04742632174145,
F,left,Distractor,0,1,1,1,1202.0985295080027,1204.1001858084928,None,0,2,,H17K06,2022-11-15_10h58.36.995,t1_Paradigm,2021.1.4,60.04742632174145,
B,right,Target,0,2,2,2,1205.5985603049921,1207.600208585427,right,1,2,0.8505239337391686,H17K06,2022-11-15_10h58.36.995,t1_Paradigm,2021.1.4,60.04742632174145,
V,left,Distractor,0,3,3,3,1209.0982048564329,1211.1004918535618,left,1,2,0.7744018005905673,H17K06,2022-11-15_10h58.36.995,t1_Paradigm,2021.1.4,60.04742632174145,
G,left,Pretarget,0,4,4,4,1212.598404074437,1214.6004312219884,left,1,2,1.2744624321785523,H17K06,2022-11-15_10h58.36.995,t1_Paradigm,2021.1.4,60.04742632174145,
B,left,Lure,0,5,5,5,1216.0986305606202,1218.1006092670723,left,1,2,0.9421228363644332,H17K06,2022-11-15_10h58.36.995,t1_Paradigm,2021.1.4,60.04742632174145,
G,right,Target,0,6,6,6,1219.5982051772298,1221.6003462094668,right,1,2,0.706450814002892,H17K06,2022-11-15_10h58.36.995,t1_Paradigm,2021.1.4,60.04742632174145,
Y,left,Pretarget,0,7,7,7,1223.0984188313305,1225.10085147254,left,1,2,0.7259796329162782,H17K06,2022-11-15_10h58.36.995,t1_Paradigm,2021.1.4,60.04742632174145,
P,left,Distractor,0,8,8,8,1226.5983780894894,1228.5985070518655,left,1,2,0.8604604534630198,H17K06,2022-11-15_10h58.36.995,t1_Paradigm,2021.1.4,60.04742632174145,
Y,right,Target,0,9,9,9,1230.0984964654053,1232.1004312219884,right,1,2,0.6863432683603605,H17K06,2022-11-15_10h58.36.995,t1_Paradigm,2021.1.4,60.04742632174145,
X,left,Distractor,0,10,10,10,1233.5985769866966,1235.6005842445156,left,1,2,0.978366720257327,H17K06,2022-11-15_10h58.36.995,t1_Paradigm,2021.1.4,60.04742632174145,
Y,right,Target,0,11,11,11,1237.0984868413507,1239.1002621593507,right,1,2,0.7106911742157536,H17K06,2022-11-15_10h58.36.995,t1_Paradigm,2021.1.4,60.04742632174145,
N,left,Distractor,0,12,12,12,1240.59863761827,1242.600460414964,left,1,2,0.970305929571623,H17K06,2022-11-15_10h58.36.995,t1_Paradigm,2021.1.4,60.04742632174145,
Y,right,Target,0,13,13,13,1244.0986209365656,1246.1004235227447,right,1,2,1.1503447979484918,H17K06,2022-11-15_10h58.36.995,t1_Paradigm,2021.1.4,60.04742632174145,
Y,left,Lure,0,14,14,14,1247.5984117736807,1249.598289548143,left,1,2,1.2684499619645067,H17K06,2022-11-15_10h58.36.995,t1_Paradigm,2021.1.4,60.04742632174145,
K,left,Distractor,0,15,15,15,1251.0984643852134,1253.1005637131893,left,1,2,0.8063158205477521,H17K06,2022-11-15_10h58.36.995,t1_Paradigm,2021.1.4,60.04742632174145,
T,left,Pretarget,0,16,16,16,1254.5985692874528,1256.6000507508725,left,1,2,0.8266437571292045,H17K06,2022-11-15_10h58.36.995,t1_Paradigm,2021.1.4,60.04742632174145,
J,left,Distractor,0,17,17,17,1258.0981650769827,1260.1008960640174,left,1,2,0.8460654282098403,H17K06,2022-11-15_10h58.36.995,t1_Paradigm,2021.1.4,60.04742632174145,
T,right,Target,0,18,18,18,1261.5983906007605,1263.600322790924,right,1,2,0.882431858452037,H17K06,2022-11-15_10h58.36.995,t1_Paradigm,2021.1.4,60.04742632174145,
S,left,Pretarget,0,19,19,19,1265.098694721004,1267.1006227407488,left,1,2,1.062303909813636,H17K06,2022-11-15_10h58.36.995,t1_Paradigm,2021.1.4,60.04742632174145,
R,left,Distractor,0,20,20,20,1268.5982661296002,1270.6003330565873,left,1,2,0.9704387415840756,H17K06,2022-11-15_10h58.36.995,t1_Paradigm,2021.1.4,60.04742632174145,
S,right,Target,0,21,21,21,1272.098405999248,1274.1001370465965,right,1,2,0.7987153806607239,H17K06,2022-11-15_10h58.36.995,t1_Paradigm,2021.1.4,60.04742632174145,
Q,left,Distractor,0,22,22,22,1275.598461818794,1277.6003256781405,left,1,2,0.8985476653906517,H17K06,2022-11-15_10h58.36.995,t1_Paradigm,2021.1.4,60.04742632174145,
D,left,Distractor,0,23,23,23,1279.098417548128,1281.100426409961,left,1,2,1.15852685176651,H17K06,2022-11-15_10h58.36.995,t1_Paradigm,2021.1.4,60.04742632174145,
F,left,Distractor,0,24,24,24,1282.5986318438227,1284.6007517031394,left,1,2,1.0659543152432889,H17K06,2022-11-15_10h58.36.995,t1_Paradigm,2021.1.4,60.04742632174145,
Z,left,Distractor,0,25,25,25,1286.0984098488698,1288.1002483648772,left,1,2,1.0065318485721946,H17K06,2022-11-15_10h58.36.995,t1_Paradigm,2021.1.4,60.04742632174145,
P,left,Distractor,0,26,26,26,1289.5981737386319,1291.5999570767017,left,1,2,0.8507459287066013,H17K06,2022-11-15_10h58.36.995,t1_Paradigm,2021.1.4,60.04742632174145,
H,left,Distractor,0,27,27,27,1293.0982000444055,1295.1006224199518,left,1,2,0.8541409757890506,H17K06,2022-11-15_10h58.36.995,t1_Paradigm,2021.1.4,60.04742632174145,
Z,left,Pretarget,0,28,28,28,1296.5985070518655,1298.6005268209701,left,1,2,0.9543094609689433,H17K06,2022-11-15_10h58.36.995,t1_Paradigm,2021.1.4,60.04742632174145,
J,left,Pretarget,0,29,29,29,1300.098464064402,1302.10022590874,left,1,2,0.9426572924130596,H17K06,2022-11-15_10h58.36.995,t1_Paradigm,2021.1.4,60.04742632174145,
Z,right,Target,0,30,30,30,1303.5984509115224,1305.6003510214941,right,1,2,0.5785214109637309,H17K06,2022-11-15_10h58.36.995,t1_Paradigm,2021.1.4,60.04742632174145,
J,right,Target,0,31,31,31,1307.0983796934888,1309.0993597434572,right,1,2,1.3354003672575345,H17K06,2022-11-15_10h58.36.995,t1_Paradigm,2021.1.4,60.04742632174145,
V,left,Pretarget,0,32,32,32,1310.5984701596462,1312.6004562445305,left,1,2,1.050240152340848,H17K06,2022-11-15_10h58.36.995,t1_Paradigm,2021.1.4,60.04742632174145,
Z,left,Lure,0,33,33,33,1314.098449307523,1316.1003728360229,None,0,2,,H17K06,2022-11-15_10h58.36.995,t1_Paradigm,2021.1.4,60.04742632174145,
V,right,Target,0,34,34,34,1317.5984345506295,1319.5995563950564,right,1,2,0.7235636734112632,H17K06,2022-11-15_10h58.36.995,t1_Paradigm,2021.1.4,60.04742632174145,
X,left,Distractor,0,35,35,35,1321.0983764854755,1323.0989048462943,left,1,2,1.03216488705948,H17K06,2022-11-15_10h58.36.995,t1_Paradigm,2021.1.4,60.04742632174145,
S,left,Distractor,0,36,36,36,1324.598344084472,1326.5992439339607,left,1,2,1.243540331866825,H17K06,2022-11-15_10h58.36.995,t1_Paradigm,2021.1.4,60.04742632174145,
Q,left,Distractor,0,37,37,37,1328.0980961045716,1330.1006865803356,left,1,2,1.102102600154467,H17K06,2022-11-15_10h58.36.995,t1_Paradigm,2021.1.4,60.04742632174145,
P,left,Distractor,0,38,38,38,1331.598505768663,1333.600282049083,left,1,2,0.8987882668589009,H17K06,2022-11-15_10h58.36.995,t1_Paradigm,2021.1.4,60.04742632174145,
S,left,Lure,0,39,39,39,1335.0986119541049,1337.100284294691,left,1,2,1.286459783630562,H17K06,2022-11-15_10h58.36.995,t1_Paradigm,2021.1.4,60.04742632174145,
K,left,Pretarget,0,40,40,40,1338.5982350118138,1340.5992997534922,left,1,2,0.7635570905549685,H17K06,2022-11-15_10h58.36.995,t1_Paradigm,2021.1.4,60.04742632174145,
L,left,Distractor,0,41,41,41,1342.098446099495,1344.1003131668695,left,1,2,0.878653132240288,H17K06,2022-11-15_10h58.36.995,t1_Paradigm,2021.1.4,60.04742632174145,
K,right,Target,0,42,42,42,1345.5983992624097,1347.6002031317912,right,1,2,1.0108937927434454,H17K06,2022-11-15_10h58.36.995,t1_Paradigm,2021.1.4,60.04742632174145,
B,left,Distractor,0,43,43,43,1349.0981971571746,1351.0992519540014,left,1,2,0.7275072918273509,H17K06,2022-11-15_10h58.36.995,t1_Paradigm,2021.1.4,60.04742632174145,
N,left,Distractor,0,44,44,44,1352.5985689666413,1354.5983787310834,left,1,2,0.8285916665918194,H17K06,2022-11-15_10h58.36.995,t1_Paradigm,2021.1.4,60.04742632174145,
S,left,Pretarget,0,45,45,45,1356.0982042148244,1358.1008011066442,left,1,2,0.8301286287605762,H17K06,2022-11-15_10h58.36.995,t1_Paradigm,2021.1.4,60.04742632174145,
Z,left,Distractor,0,46,46,46,1359.598377447881,1361.600314450072,left,1,2,0.9466403694677865,H17K06,2022-11-15_10h58.36.995,t1_Paradigm,2021.1.4,60.04742632174145,
S,right,Target,0,47,47,47,1363.0984384002513,1365.1003895177273,right,1,2,0.5662866660568397,H17K06,2022-11-15_10h58.36.995,t1_Paradigm,2021.1.4,60.04742632174145,
C,left,Distractor,0,48,48,48,1366.59824399426,1368.5992388011218,left,1,2,1.1316661041928455,H17K06,2022-11-15_10h58.36.995,t1_Paradigm,2021.1.4,60.04742632174145,
T,left,Pretarget,0,49,49,49,1370.0984268513857,1372.100501156805,left,1,2,1.422252363350708,H17K06,2022-11-15_10h58.36.995,t1_Paradigm,2021.1.4,60.04742632174145,
S,left,Lure,0,50,50,50,1373.5982763952634,1375.600412615473,left,1,2,0.9625133293156978,H17K06,2022-11-15_10h58.36.995,t1_Paradigm,2021.1.4,60.04742632174145,
T,right,Target,0,51,51,51,1377.0984387210483,1379.10031060045,right,1,2,0.9343972837086767,H17K06,2022-11-15_10h58.36.995,t1_Paradigm,2021.1.4,60.04742632174145,
N,left,Pretarget,0,52,52,52,1380.5983267611737,1382.6007969362108,left,1,2,0.9380156089464435,H17K06,2022-11-15_10h58.36.995,t1_Paradigm,2021.1.4,60.04742632174145,
B,left,Distractor,0,53,53,53,1384.0982776784658,1386.0998483248404,None,0,2,,H17K06,2022-11-15_10h58.36.995,t1_Paradigm,2021.1.4,60.04742632174145,
N,right,Target,0,54,54,54,1387.5984948613914,1389.599042791131,right,1,2,0.7077260017686058,H17K06,2022-11-15_10h58.36.995,t1_Paradigm,2021.1.4,60.04742632174145,
N,left,Lure,0,55,55,55,1391.0983386308362,1393.0984188313305,left,1,2,1.0485097466153093,H17K06,2022-11-15_10h58.36.995,t1_Paradigm,2021.1.4,60.04742632174145,
X,left,Distractor,0,56,56,56,1394.5984281345882,1396.5999968561373,left,1,2,0.8587014963559341,H17K06,2022-11-15_10h58.36.995,t1_Paradigm,2021.1.4,60.04742632174145,
W,left,Distractor,0,57,57,57,1398.0978879040922,1400.1006647658069,left,1,2,1.038149768326548,H17K06,2022-11-15_10h58.36.995,t1_Paradigm,2021.1.4,60.04742632174145,
S,left,Distractor,0,58,58,58,1401.5984980694193,1403.5999205052794,left,1,2,0.6749320220551454,H17K06,2022-11-15_10h58.36.995,t1_Paradigm,2021.1.4,60.04742632174145,
L,left,Distractor,0,59,59,59,1405.098518600731,1407.1005319537944,left,1,2,1.0623613333591493,H17K06,2022-11-15_10h58.36.995,t1_Paradigm,2021.1.4,60.04742632174145,
K,left,Pretarget,0,60,60,60,1408.5984108112752,1410.6007273221912,None,0,2,,H17K06,2022-11-15_10h58.36.995,t1_Paradigm,2021.1.4,60.04742632174145,
V,left,Pretarget,0,61,61,61,1412.0983950919908,1414.0995239940676,left,1,2,0.8794336433929857,H17K06,2022-11-15_10h58.36.995,t1_Paradigm,2021.1.4,60.04742632174145,
K,right,Target,0,62,62,62,1415.5984720844572,1417.5992019089026,right,1,2,0.8834093420155114,H17K06,2022-11-15_10h58.36.995,t1_Paradigm,2021.1.4,60.04742632174145,
V,right,Target,0,63,63,63,1419.0981163150864,1421.1112380773993,left,0,2,1.1316106054437114,H17K06,2022-11-15_10h58.36.995,t1_Paradigm,2021.1.4,60.04742632174145,
R,left,Distractor,0,0,0,0,1621.5448368850339,1623.5492180773144,None,0,3,,H17K06,2022-11-15_10h58.36.995,t1_Paradigm,2021.1.4,60.04742632174145,
P,left,Lure,0,1,1,1,1625.0482890348649,1627.0483942579012,None,0,3,,H17K06,2022-11-15_10h58.36.995,t1_Paradigm,2021.1.4,60.04742632174145,
V,left,Distractor,0,2,2,2,1628.5482460474013,1630.550077826556,None,0,3,,H17K06,2022-11-15_10h58.36.995,t1_Paradigm,2021.1.4,60.04742632174145,
P,left,Pretarget,0,3,3,3,1632.0482726739574,1634.0498231098027,left,1,3,0.9291412644961383,H17K06,2022-11-15_10h58.36.995,t1_Paradigm,2021.1.4,60.04742632174145,
Z,left,Distractor,0,4,4,4,1635.5484789496113,1637.5490182177018,left,1,3,0.6936350967735052,H17K06,2022-11-15_10h58.36.995,t1_Paradigm,2021.1.4,60.04742632174145,
L,left,Pretarget,0,5,5,5,1639.048153014839,1641.0496123429184,left,1,3,0.7930859479674837,H17K06,2022-11-15_10h58.36.995,t1_Paradigm,2021.1.4,60.04742632174145,
P,right,Target,0,6,6,6,1642.548325606287,1644.549956563409,right,1,3,1.2610747250291752,H17K06,2022-11-15_10h58.36.995,t1_Paradigm,2021.1.4,60.04742632174145,
S,left,Distractor,0,7,7,7,1646.0480878920353,1648.0491760522564,left,1,3,0.8495727559493389,H17K06,2022-11-15_10h58.36.995,t1_Paradigm,2021.1.4,60.04742632174145,
L,right,Target,0,8,8,8,1649.5483666689397,1651.5500210446044,right,1,3,0.8204474673984805,H17K06,2022-11-15_10h58.36.995,t1_Paradigm,2021.1.4,60.04742632174145,
D,left,Distractor,0,9,9,9,1653.0483095661912,1655.0497595910128,left,1,3,0.6970968706300482,H17K06,2022-11-15_10h58.36.995,t1_Paradigm,2021.1.4,60.04742632174145,
G,left,Distractor,0,10,10,10,1656.5481013657118,1658.5500210446044,left,1,3,1.1808941263734596,H17K06,2022-11-15_10h58.36.995,t1_Paradigm,2021.1.4,60.04742632174145,
M,left,Pretarget,0,11,11,11,1660.0484520022583,1662.0494885133667,left,1,3,0.9771880938933464,H17K06,2022-11-15_10h58.36.995,t1_Paradigm,2021.1.4,60.04742632174145,
Y,left,Distractor,0,12,12,12,1663.548331059923,1665.5500864882051,left,1,3,1.0127910154988058,H17K06,2022-11-15_10h58.36.995,t1_Paradigm,2021.1.4,60.04742632174145,
V,left,Distractor,0,13,13,13,1667.0483320223284,1669.0503126535768,left,1,3,0.9044234739703825,H17K06,2022-11-15_10h58.36.995,t1_Paradigm,2021.1.4,60.04742632174145,
M,right,Target,0,14,14,14,1670.5483326639223,1672.5497804431361,right,1,3,1.3091664667008445,H17K06,2022-11-15_10h58.36.995,t1_Paradigm,2021.1.4,60.04742632174145,
S,left,Pretarget,0,15,15,15,1674.0483483832213,1676.0506077913742,left,1,3,0.784524064642028,H17K06,2022-11-15_10h58.36.995,t1_Paradigm,2021.1.4,60.04742632174145,
Q,left,Distractor,0,16,16,16,1677.5484622679214,1679.548285185243,left,1,3,1.2223869718436617,H17K06,2022-11-15_10h58.36.995,t1_Paradigm,2021.1.4,60.04742632174145,
R,left,Pretarget,0,17,17,17,1681.0480628694786,1683.049887590998,left,1,3,0.84091431122215,H17K06,2022-11-15_10h58.36.995,t1_Paradigm,2021.1.4,60.04742632174145,
S,right,Target,0,18,18,18,1684.548110989781,1686.549915821568,right,1,3,0.6048197927157162,H17K06,2022-11-15_10h58.36.995,t1_Paradigm,2021.1.4,60.04742632174145,
F,left,Distractor,0,19,19,19,1688.0482486138208,1690.0484244132822,left,1,3,1.0903420005488442,H17K06,2022-11-15_10h58.36.995,t1_Paradigm,2021.1.4,60.04742632174145,
R,right,Target,0,20,20,20,1691.5483948995097,1693.5502982174949,right,1,3,1.12449585973809,H17K06,2022-11-15_10h58.36.995,t1_Paradigm,2021.1.4,60.04742632174145,
P,left,Distractor,0,21,21,21,1695.048310207785,1697.0494246737799,left,1,3,0.7293182188586798,H17K06,2022-11-15_10h58.36.995,t1_Paradigm,2021.1.4,60.04742632174145,
L,left,Distractor,0,22,22,22,1698.5481100273755,1700.5498670596717,left,1,3,0.8767658543511061,H17K06,2022-11-15_10h58.36.995,t1_Paradigm,2021.1.4,60.04742632174145,
R,right,Target,0,23,23,23,1702.0483503080322,1704.049813485748,right,1,3,0.656993418422644,H17K06,2022-11-15_10h58.36.995,t1_Paradigm,2021.1.4,60.04742632174145,
H,left,Pretarget,0,24,24,24,1705.5483374759497,1707.5496829193435,left,1,3,0.6769023876695428,H17K06,2022-11-15_10h58.36.995,t1_Paradigm,2021.1.4,60.04742632174145,
G,left,Pretarget,0,25,25,25,1709.0479743281467,1711.0503136159823,left,1,3,1.1604224705079105,H17K06,2022-11-15_10h58.36.995,t1_Paradigm,2021.1.4,60.04742632174145,
T,left,Distractor,0,26,26,26,1712.5483143782185,1714.5491622577829,left,1,3,0.9095223002223065,H17K06,2022-11-15_10h58.36.995,t1_Paradigm,2021.1.4,60.04742632174145,
H,right,Target,0,27,27,27,1716.0483551200596,1718.0497037714813,right,1,3,0.929259961223579,H17K06,2022-11-15_10h58.36.995,t1_Paradigm,2021.1.4,60.04742632174145,
G,right,Target,0,28,28,28,1719.5482758819853,1721.5498789293488,right,1,3,0.7408722220134223,H17K06,2022-11-15_10h58.36.995,t1_Paradigm,2021.1.4,60.04742632174145,
D,left,Distractor,0,29,29,29,1723.0481039321312,1725.049799370463,left,1,3,0.9368809324369067,H17K06,2022-11-15_10h58.36.995,t1_Paradigm,2021.1.4,60.04742632174145,
N,left,Pretarget,0,30,30,30,1726.548195681491,1728.5492568943591,left,1,3,1.1333166302501922,H17K06,2022-11-15_10h58.36.995,t1_Paradigm,2021.1.4,60.04742632174145,
V,left,Distractor,0,31,31,31,1730.0474835011555,1732.0496562927874,left,1,3,0.9612711841618875,H17K06,2022-11-15_10h58.36.995,t1_Paradigm,2021.1.4,60.04742632174145,
R,left,Distractor,0,32,32,32,1733.548574227796,1735.5497862175835,left,1,3,1.0290585617476609,H17K06,2022-11-15_10h58.36.995,t1_Paradigm,2021.1.4,60.04742632174145,
N,right,Target,0,33,33,33,1737.0483570448705,1739.049683240155,right,1,3,0.793001256257412,H17K06,2022-11-15_10h58.36.995,t1_Paradigm,2021.1.4,60.04742632174145,
Z,left,Distractor,0,34,34,34,1740.548283581229,1742.549843320332,left,1,3,0.7328557020082371,H17K06,2022-11-15_10h58.36.995,t1_Paradigm,2021.1.4,60.04742632174145,
N,left,Lure,0,35,35,35,1744.0482948092977,1746.0496925434127,left,1,3,0.8971156054758467,H17K06,2022-11-15_10h58.36.995,t1_Paradigm,2021.1.4,60.04742632174145,
Y,left,Pretarget,0,36,36,36,1747.54802341084,1749.54787520034,left,1,3,0.8225868956214981,H17K06,2022-11-15_10h58.36.995,t1_Paradigm,2021.1.4,60.04742632174145,
Y,left,Lure,0,37,37,37,1751.0480327140976,1753.0481777165842,left,1,3,1.450423266098369,H17K06,2022-11-15_10h58.36.995,t1_Paradigm,2021.1.4,60.04742632174145,
B,left,Distractor,0,38,38,38,1754.5482794107957,1756.548214929615,left,1,3,0.7506537943845615,H17K06,2022-11-15_10h58.36.995,t1_Paradigm,2021.1.4,60.04742632174145,
Y,right,Target,0,39,39,39,1758.0481722629484,1760.0499623378564,right,1,3,0.8487736382958246,H17K06,2022-11-15_10h58.36.995,t1_Paradigm,2021.1.4,60.04742632174145,
J,left,Distractor,0,40,40,40,1761.5483025085414,1763.5500826385833,left,1,3,1.0447239627537783,H17K06,2022-11-15_10h58.36.995,t1_Paradigm,2021.1.4,60.04742632174145,
X,left,Distractor,0,41,41,41,1765.0483490248298,1767.0498866285925,left,1,3,0.9367840502382023,H17K06,2022-11-15_10h58.36.995,t1_Paradigm,2021.1.4,60.04742632174145,
W,left,Pretarget,0,42,42,42,1768.548035601314,1770.5483968243207,left,1,3,0.9583862121799029,H17K06,2022-11-15_10h58.36.995,t1_Paradigm,2021.1.4,60.04742632174145,
S,left,Pretarget,0,43,43,43,1772.0483095661912,1774.0494028592366,left,1,3,0.897459505169536,H17K06,2022-11-15_10h58.36.995,t1_Paradigm,2021.1.4,60.04742632174145,
R,left,Distractor,0,44,44,44,1775.5482373857521,1777.5667909667245,left,1,3,1.1879623558197636,H17K06,2022-11-15_10h58.36.995,t1_Paradigm,2021.1.4,60.04742632174145,
W,right,Target,0,45,45,45,1779.0480137867853,1781.0490419570415,right,1,3,1.2897329259576509,H17K06,2022-11-15_10h58.36.995,t1_Paradigm,2021.1.4,60.04742632174145,
S,right,Target,0,46,46,46,1782.5483095661912,1784.5491927339608,None,0,3,,H17K06,2022-11-15_10h58.36.995,t1_Paradigm,2021.1.4,60.04742632174145,
D,left,Distractor,0,47,47,47,1786.048299300528,1788.050000192481,left,1,3,1.2968447844614275,H17K06,2022-11-15_10h58.36.995,t1_Paradigm,2021.1.4,60.04742632174145,
T,left,Distractor,0,48,48,48,1789.5480859672243,1791.5500531247962,left,1,3,1.188740300553036,H17K06,2022-11-15_10h58.36.995,t1_Paradigm,2021.1.4,60.04742632174145,
S,right,Target,0,49,49,49,1793.0483384383551,1795.047424473596,right,1,3,0.5872161063161911,H17K06,2022-11-15_10h58.36.995,t1_Paradigm,2021.1.4,60.04742632174145,
K,left,Distractor,0,50,50,50,1796.5483499872353,1798.5501455157646,left,1,3,1.1164584875805303,H17K06,2022-11-15_10h58.36.995,t1_Paradigm,2021.1.4,60.04742632174145,
S,left,Lure,0,51,51,51,1800.0482880724594,1802.0497470797418,None,0,3,,H17K06,2022-11-15_10h58.36.995,t1_Paradigm,2021.1.4,60.04742632174145,
T,left,Pretarget,0,52,52,52,1803.5482880724594,1805.548982929482,left,1,3,1.2376273102563573,H17K06,2022-11-15_10h58.36.995,t1_Paradigm,2021.1.4,60.04742632174145,
V,left,Distractor,0,53,53,53,1807.0484237716737,1809.0497069794947,left,1,3,0.7291828404268017,H17K06,2022-11-15_10h58.36.995,t1_Paradigm,2021.1.4,60.04742632174145,
B,left,Distractor,0,54,54,54,1810.5481228594435,1812.548680413238,left,1,3,0.9580897911801003,H17K06,2022-11-15_10h58.36.995,t1_Paradigm,2021.1.4,60.04742632174145,
T,right,Target,0,55,55,55,1814.0482964133116,1816.0494522627414,right,1,3,0.5294624514062889,H17K06,2022-11-15_10h58.36.995,t1_Paradigm,2021.1.4,60.04742632174145,
Y,left,Pretarget,0,56,56,56,1817.5483916914818,1819.550148402981,left,1,3,1.3809301845176378,H17K06,2022-11-15_10h58.36.995,t1_Paradigm,2021.1.4,60.04742632174145,
T,left,Lure,0,57,57,57,1821.0479682329023,1823.0499549594097,left,1,3,1.0006480199517682,H17K06,2022-11-15_10h58.36.995,t1_Paradigm,2021.1.4,60.04742632174145,
P,left,Pretarget,0,58,58,58,1824.548092062454,1826.5504493152112,left,1,3,0.9242512803175487,H17K06,2022-11-15_10h58.36.995,t1_Paradigm,2021.1.4,60.04742632174145,
Y,right,Target,0,59,59,59,1828.0483801426162,1830.0497897463938,right,1,3,0.5130271257221466,H17K06,2022-11-15_10h58.36.995,t1_Paradigm,2021.1.4,60.04742632174145,
R,left,Distractor,0,60,60,60,1831.5482723531604,1833.5484102979972,left,1,3,0.8060306276020128,H17K06,2022-11-15_10h58.36.995,t1_Paradigm,2021.1.4,60.04742632174145,
P,right,Target,0,61,61,61,1835.048283260432,1837.0498827789706,right,1,3,0.9847911001706962,H17K06,2022-11-15_10h58.36.995,t1_Paradigm,2021.1.4,60.04742632174145,
L,left,Distractor,0,62,62,62,1838.5479906890396,1840.5478540274053,left,1,3,0.6707526142126881,H17K06,2022-11-15_10h58.36.995,t1_Paradigm,2021.1.4,60.04742632174145,
V,left,Distractor,0,63,63,63,1842.0482033807348,1844.0490878317214,left,1,3,0.7536228164681233,H17K06,2022-11-15_10h58.36.995,t1_Paradigm,2021.1.4,60.04742632174145,
H,left,Lure,0,0,0,0,1896.1644860688539,1898.1668163742434,None,0,3,,H17K06,2022-11-15_10h58.36.995,t1_Paradigm,2021.1.4,60.04742632174145,
B,left,Distractor,0,1,1,1,1899.6649242843268,1901.6665401637583,None,0,3,,H17K06,2022-11-15_10h58.36.995,t1_Paradigm,2021.1.4,60.04742632174145,
T,left,Distractor,0,2,2,2,1903.1648848256882,1905.165834399464,None,0,3,,H17K06,2022-11-15_10h58.36.995,t1_Paradigm,2021.1.4,60.04742632174145,
R,left,Distractor,0,3,3,3,1906.6647212166863,1908.6777845930337,left,1,3,0.7330597320396919,H17K06,2022-11-15_10h58.36.995,t1_Paradigm,2021.1.4,60.04742632174145,
H,left,Pretarget,0,4,4,4,1910.1649213971104,1912.1664262790728,left,1,3,1.0841354451549705,H17K06,2022-11-15_10h58.36.995,t1_Paradigm,2021.1.4,60.04742632174145,
K,left,Distractor,0,5,5,5,1913.6647670913662,1915.6670188002754,left,1,3,0.6556428422045428,H17K06,2022-11-15_10h58.36.995,t1_Paradigm,2021.1.4,60.04742632174145,
G,left,Distractor,0,6,6,6,1917.164542209197,1919.1668654569366,left,1,3,1.348057287526899,H17K06,2022-11-15_10h58.36.995,t1_Paradigm,2021.1.4,60.04742632174145,
H,right,Target,0,7,7,7,1920.6649579685327,1922.6671137576486,right,1,3,1.1755543778563151,H17K06,2022-11-15_10h58.36.995,t1_Paradigm,2021.1.4,60.04742632174145,
Y,left,Pretarget,0,8,8,8,1924.1649307003681,1926.1659887052083,left,1,3,0.780816556463833,H17K06,2022-11-15_10h58.36.995,t1_Paradigm,2021.1.4,60.04742632174145,
S,left,Distractor,0,9,9,9,1927.6649605349376,1929.666509045972,left,1,3,0.8000216862128582,H17K06,2022-11-15_10h58.36.995,t1_Paradigm,2021.1.4,60.04742632174145,
P,left,Distractor,0,10,10,10,1931.1646714923845,1933.1662617076654,left,1,3,0.6604070720204618,H17K06,2022-11-15_10h58.36.995,t1_Paradigm,2021.1.4,60.04742632174145,
Y,right,Target,0,11,11,11,1934.6649746502226,1936.6663646850939,right,1,3,0.776091464489582,H17K06,2022-11-15_10h58.36.995,t1_Paradigm,2021.1.4,60.04742632174145,
H,left,Lure,0,12,12,12,1938.1649149810692,1940.1656252365938,left,1,3,0.8932194657536456,H17K06,2022-11-15_10h58.36.995,t1_Paradigm,2021.1.4,60.04742632174145,
Q,left,Distractor,0,13,13,13,1941.6650266201468,1943.6659652866656,left,1,3,0.7526530321483733,H17K06,2022-11-15_10h58.36.995,t1_Paradigm,2021.1.4,60.04742632174145,
V,left,Pretarget,0,14,14,14,1945.1649146602576,1947.1650128256588,left,1,3,0.9176190207363106,H17K06,2022-11-15_10h58.36.995,t1_Paradigm,2021.1.4,60.04742632174145,
G,left,Distractor,0,15,15,15,1948.6648415174132,1950.6673809856875,left,1,3,0.9991777846007608,H17K06,2022-11-15_10h58.36.995,t1_Paradigm,2021.1.4,60.04742632174145,
Z,left,Pretarget,0,16,16,16,1952.1647651665553,1954.1667842940515,left,1,3,1.0199423326412216,H17K06,2022-11-15_10h58.36.995,t1_Paradigm,2021.1.4,60.04742632174145,
V,right,Target,0,17,17,17,1955.6648963745538,1957.6665857176413,right,1,3,0.6080993510840926,H17K06,2022-11-15_10h58.36.995,t1_Paradigm,2021.1.4,60.04742632174145,
N,left,Distractor,0,18,18,18,1959.1648508206708,1961.1668243942986,left,1,3,0.9317984670778969,H17K06,2022-11-15_10h58.36.995,t1_Paradigm,2021.1.4,60.04742632174145,
Z,right,Target,0,19,19,19,1962.6649554021133,1964.6668195822567,right,1,3,0.7282496275438461,H17K06,2022-11-15_10h58.36.995,t1_Paradigm,2021.1.4,60.04742632174145,
R,left,Distractor,0,20,20,20,1966.1649400036113,1968.1668215070822,left,1,3,0.7800033235107549,H17K06,2022-11-15_10h58.36.995,t1_Paradigm,2021.1.4,60.04742632174145,
P,left,Distractor,0,21,21,21,1969.6651998532034,1971.6654545699566,left,1,3,0.865394066713634,H17K06,2022-11-15_10h58.36.995,t1_Paradigm,2021.1.4,60.04742632174145,
Z,right,Target,0,22,22,22,1973.164902790595,1975.1670970759587,right,1,3,0.755598635689239,H17K06,2022-11-15_10h58.36.995,t1_Paradigm,2021.1.4,60.04742632174145,
D,left,Pretarget,0,23,23,23,1976.6644421189849,1978.6662857678166,left,1,3,0.9363593084563036,H17K06,2022-11-15_10h58.36.995,t1_Paradigm,2021.1.4,60.04742632174145,
K,left,Distractor,0,24,24,24,1980.164628825718,1982.1659283944318,left,1,3,1.052658036671346,H17K06,2022-11-15_10h58.36.995,t1_Paradigm,2021.1.4,60.04742632174145,
W,left,Distractor,0,25,25,25,1983.6650590211357,1985.6672330959846,left,1,3,0.7673184934683377,H17K06,2022-11-15_10h58.36.995,t1_Paradigm,2021.1.4,60.04742632174145,
D,right,Target,0,26,26,26,1987.1646766252088,1989.1668580785044,right,1,3,0.5641510874556843,H17K06,2022-11-15_10h58.36.995,t1_Paradigm,2021.1.4,60.04742632174145,
G,left,Pretarget,0,27,27,27,1990.6645604949008,1992.664353577653,left,1,3,1.0824448188504903,H17K06,2022-11-15_10h58.36.995,t1_Paradigm,2021.1.4,60.04742632174145,
V,left,Distractor,0,28,28,28,1994.1649448156531,1996.165590269171,left,1,3,0.7972265387797961,H17K06,2022-11-15_10h58.36.995,t1_Paradigm,2021.1.4,60.04742632174145,
D,right,Target,0,29,29,29,1997.664876484836,1999.6665725647617,right,1,3,0.7038792655366706,H17K06,2022-11-15_10h58.36.995,t1_Paradigm,2021.1.4,60.04742632174145,
G,right,Target,0,30,30,30,2001.1647574673116,2003.1664676625223,None,0,3,,H17K06,2022-11-15_10h58.36.995,t1_Paradigm,2021.1.4,60.04742632174145,
B,left,Pretarget,0,31,31,31,2004.6648338181694,2006.6656627704215,left,1,3,0.9689383508521132,H17K06,2022-11-15_10h58.36.995,t1_Paradigm,2021.1.4,60.04742632174145,
N,left,Distractor,0,32,32,32,2008.1648684647807,2010.1657394420909,left,1,3,0.8608527942415094,H17K06,2022-11-15_10h58.36.995,t1_Paradigm,2021.1.4,60.04742632174145,
F,left,Distractor,0,33,33,33,2011.664730199147,2013.6663117527642,left,1,3,0.9443912269634893,H17K06,2022-11-15_10h58.36.995,t1_Paradigm,2021.1.4,60.04742632174145,
B,right,Target,0,34,34,34,2015.1648790512409,2017.16433625434,right,1,3,0.8063517503615003,H17K06,2022-11-15_10h58.36.995,t1_Paradigm,2021.1.4,60.04742632174145,
Q,left,Pretarget,0,35,35,35,2018.6651116326684,2020.6662684445037,left,1,3,1.016340689107892,H17K06,2022-11-15_10h58.36.995,t1_Paradigm,2021.1.4,60.04742632174145,
S,left,Pretarget,0,36,36,36,2022.1650080136315,2024.1662001136865,left,1,3,0.7003305543330498,H17K06,2022-11-15_10h58.36.995,t1_Paradigm,2021.1.4,60.04742632174145,
W,left,Distractor,0,37,37,37,2025.6646955525357,2027.6812239107821,left,1,3,1.1054309204337187,H17K06,2022-11-15_10h58.36.995,t1_Paradigm,2021.1.4,60.04742632174145,
Q,right,Target,0,38,38,38,2029.1648533870903,2031.1663916324615,right,1,3,0.5964269719988806,H17K06,2022-11-15_10h58.36.995,t1_Paradigm,2021.1.4,60.04742632174145,
S,right,Target,0,39,39,39,2032.6649441740446,2034.6660451663483,right,1,3,1.1287512976414291,H17K06,2022-11-15_10h58.36.995,t1_Paradigm,2021.1.4,60.04742632174145,
T,left,Distractor,0,40,40,40,2036.1648790512409,2038.1666803542175,left,1,3,1.1158810440829257,H17K06,2022-11-15_10h58.36.995,t1_Paradigm,2021.1.4,60.04742632174145,
G,left,Distractor,0,41,41,41,2039.664674379601,2041.6662414971506,left,1,3,0.8485343200300122,H17K06,2022-11-15_10h58.36.995,t1_Paradigm,2021.1.4,60.04742632174145,
D,left,Distractor,0,42,42,42,2043.1646737379924,2045.1668888754793,left,1,3,0.771866181952646,H17K06,2022-11-15_10h58.36.995,t1_Paradigm,2021.1.4,60.04742632174145,
S,left,Lure,0,43,43,43,2046.6648655775643,2048.666493326673,left,1,3,0.9041600955679314,H17K06,2022-11-15_10h58.36.995,t1_Paradigm,2021.1.4,60.04742632174145,
Z,left,Pretarget,0,44,44,44,2050.1648687855777,2052.166418900626,left,1,3,0.8924145736527862,H17K06,2022-11-15_10h58.36.995,t1_Paradigm,2021.1.4,60.04742632174145,
J,left,Distractor,0,45,45,45,2053.6650057680235,2055.6665497878275,left,1,3,0.7840816787356744,H17K06,2022-11-15_10h58.36.995,t1_Paradigm,2021.1.4,60.04742632174145,
M,left,Pretarget,0,46,46,46,2057.164984274292,2059.1652438030724,left,1,3,0.709478863645927,H17K06,2022-11-15_10h58.36.995,t1_Paradigm,2021.1.4,60.04742632174145,
Z,right,Target,0,47,47,47,2060.66457011897,2062.6662222490268,right,1,3,0.6647314823494526,H17K06,2022-11-15_10h58.36.995,t1_Paradigm,2021.1.4,60.04742632174145,
P,left,Distractor,0,48,48,48,2064.164574289389,2066.1659813267615,left,1,3,0.8605544484453276,H17K06,2022-11-15_10h58.36.995,t1_Paradigm,2021.1.4,60.04742632174145,
M,right,Target,0,49,49,49,2067.6648735976196,2069.666424354262,right,1,3,0.6083168548066169,H17K06,2022-11-15_10h58.36.995,t1_Paradigm,2021.1.4,60.04742632174145,
K,left,Distractor,0,50,50,50,2071.1648299685476,2073.1656111213088,left,1,3,0.7411327131994767,H17K06,2022-11-15_10h58.36.995,t1_Paradigm,2021.1.4,60.04742632174145,
Y,left,Distractor,0,51,51,51,2074.664841517413,2076.666070188905,left,1,3,0.8885867647331906,H17K06,2022-11-15_10h58.36.995,t1_Paradigm,2021.1.4,60.04742632174145,
X,left,Distractor,0,52,52,52,2078.1648652567674,2080.166140444533,left,1,3,0.8127251227706438,H17K06,2022-11-15_10h58.36.995,t1_Paradigm,2021.1.4,60.04742632174145,
F,left,Pretarget,0,53,53,53,2081.664878409647,2083.6667018479493,left,1,3,0.9920915902330307,H17K06,2022-11-15_10h58.36.995,t1_Paradigm,2021.1.4,60.04742632174145,
M,left,Lure,0,54,54,54,2085.1650057680235,2087.165692284194,left,1,3,1.3651079113624291,H17K06,2022-11-15_10h58.36.995,t1_Paradigm,2021.1.4,60.04742632174145,
V,left,Distractor,0,55,55,55,2088.6648687855777,2090.6652316125983,left,1,3,0.8413226921111345,H17K06,2022-11-15_10h58.36.995,t1_Paradigm,2021.1.4,60.04742632174145,
F,right,Target,0,56,56,56,2092.1643426703813,2094.165619462161,right,1,3,0.6050713014410576,H17K06,2022-11-15_10h58.36.995,t1_Paradigm,2021.1.4,60.04742632174145,
S,left,Distractor,0,57,57,57,2095.66477479061,2097.6658892566047,left,1,3,1.08877969502646,H17K06,2022-11-15_10h58.36.995,t1_Paradigm,2021.1.4,60.04742632174145,
D,left,Distractor,0,58,58,58,2099.1648578783206,2101.1660275222384,left,1,3,1.0765744639065815,H17K06,2022-11-15_10h58.36.995,t1_Paradigm,2021.1.4,60.04742632174145,
F,right,Target,0,59,59,59,2102.664559853307,2104.666390990853,None,0,3,,H17K06,2022-11-15_10h58.36.995,t1_Paradigm,2021.1.4,60.04742632174145,
V,left,Pretarget,0,60,60,60,2106.1645518332516,2108.166406710152,left,1,3,0.7963911705010105,H17K06,2022-11-15_10h58.36.995,t1_Paradigm,2021.1.4,60.04742632174145,
J,left,Distractor,0,61,61,61,2109.6647892267065,2111.666190168835,left,1,3,0.8485275831917534,H17K06,2022-11-15_10h58.36.995,t1_Paradigm,2021.1.4,60.04742632174145,
V,left,Lure,0,62,62,62,2113.1648232317093,2115.165638068662,right,0,3,0.82094631443033,H17K06,2022-11-15_10h58.36.995,t1_Paradigm,2021.1.4,60.04742632174145,
V,right,Target,0,63,63,63,2116.6648800136463,2118.664898940973,left,0,3,1.1139097160630627,H17K06,2022-11-15_10h58.36.995,t1_Paradigm,2021.1.4,60.04742632174145,
R,left,Distractor,0,0,0,0,2280.9796123942506,2282.9825368248567,None,0,4,,H17K06,2022-11-15_10h58.36.995,t1_Paradigm,2021.1.4,60.04742632174145,
F,left,Distractor,0,1,1,1,2284.4813293262996,2286.483039842322,None,0,4,,H17K06,2022-11-15_10h58.36.995,t1_Paradigm,2021.1.4,60.04742632174145,
P,left,Pretarget,0,2,2,2,2287.981472403975,2289.982795070435,None,0,4,,H17K06,2022-11-15_10h58.36.995,t1_Paradigm,2021.1.4,60.04742632174145,
H,left,Distractor,0,3,3,3,2291.4815109002084,2293.4840529348876,None,0,4,,H17K06,2022-11-15_10h58.36.995,t1_Paradigm,2021.1.4,60.04742632174145,
Z,left,Distractor,0,4,4,4,2294.981214158397,2296.983486719444,left,1,4,0.7312751107820077,H17K06,2022-11-15_10h58.36.995,t1_Paradigm,2021.1.4,60.04742632174145,
T,left,Distractor,0,5,5,5,2298.4815830806474,2300.482335040433,left,1,4,0.8323338213813258,H17K06,2022-11-15_10h58.36.995,t1_Paradigm,2021.1.4,60.04742632174145,
P,right,Target,0,6,6,6,2301.9817454064323,2303.9821865091217,right,1,4,0.6767153601249447,H17K06,2022-11-15_10h58.36.995,t1_Paradigm,2021.1.4,60.04742632174145,
G,left,Distractor,0,7,7,7,2305.4812706195517,2307.4822432910732,left,1,4,1.0964715634763706,H17K06,2022-11-15_10h58.36.995,t1_Paradigm,2021.1.4,60.04742632174145,
L,left,Distractor,0,8,8,8,2308.981089687237,2310.9823449852847,left,1,4,1.0202150143013569,H17K06,2022-11-15_10h58.36.995,t1_Paradigm,2021.1.4,60.04742632174145,
P,left,Lure,0,9,9,9,2312.481217687222,2314.4821820178913,right,0,4,1.104433226355468,H17K06,2022-11-15_10h58.36.995,t1_Paradigm,2021.1.4,60.04742632174145,
Q,left,Pretarget,0,10,10,10,2315.9814278124977,2317.9829811355594,left,1,4,1.0279941408662125,H17K06,2022-11-15_10h58.36.995,t1_Paradigm,2021.1.4,60.04742632174145,
D,left,Distractor,0,11,11,11,2319.4812892260525,2321.4827344388614,left,1,4,1.271855595492525,H17K06,2022-11-15_10h58.36.995,t1_Paradigm,2021.1.4,60.04742632174145,
M,left,Pretarget,0,12,12,12,2322.9815513212525,2324.983647441215,left,1,4,0.8752612931857584,H17K06,2022-11-15_10h58.36.995,t1_Paradigm,2021.1.4,60.04742632174145,
C,left,Distractor,0,13,13,13,2326.481305266163,2328.483351341012,left,1,4,0.9591689689550549,H17K06,2022-11-15_10h58.36.995,t1_Paradigm,2021.1.4,60.04742632174145,
Q,right,Target,0,14,14,14,2329.9813626897085,2331.9822760128736,left,0,4,0.8043133747414686,H17K06,2022-11-15_10h58.36.995,t1_Paradigm,2021.1.4,60.04742632174145,
R,left,Distractor,0,15,15,15,2333.4815372059675,2335.483817466258,left,1,4,0.6471948435500963,H17K06,2022-11-15_10h58.36.995,t1_Paradigm,2021.1.4,60.04742632174145,
M,right,Target,0,16,16,16,2336.9812786395923,2338.9819946695497,left,0,4,1.1807879409316229,H17K06,2022-11-15_10h58.36.995,t1_Paradigm,2021.1.4,60.04742632174145,
S,left,Distractor,0,17,17,17,2340.481337667152,2342.4838043133786,None,0,4,,H17K06,2022-11-15_10h58.36.995,t1_Paradigm,2021.1.4,60.04742632174145,
Z,left,Distractor,0,18,18,18,2343.9814133764157,2345.982511160706,left,1,4,0.9000281664193608,H17K06,2022-11-15_10h58.36.995,t1_Paradigm,2021.1.4,60.04742632174145,
L,left,Pretarget,0,19,19,19,2347.481452193446,2349.4825759626983,right,0,4,0.9358088122971822,H17K06,2022-11-15_10h58.36.995,t1_Paradigm,2021.1.4,60.04742632174145,
M,right,Target,0,20,20,20,2350.9812645243073,2352.9834353911283,left,0,4,0.9392750774131855,H17K06,2022-11-15_10h58.36.995,t1_Paradigm,2021.1.4,60.04742632174145,
P,left,Distractor,0,21,21,21,2354.48164178741,2356.4829118423368,left,1,4,0.8480069216166157,H17K06,2022-11-15_10h58.36.995,t1_Paradigm,2021.1.4,60.04742632174145,
F,left,Distractor,0,22,22,22,2357.9815423388063,2359.982036373811,left,1,4,0.7885562244046014,H17K06,2022-11-15_10h58.36.995,t1_Paradigm,2021.1.4,60.04742632174145,
L,right,Target,0,23,23,23,2361.481452193446,2363.483745927413,left,0,4,1.3028457058098866,H17K06,2022-11-15_10h58.36.995,t1_Paradigm,2021.1.4,60.04742632174145,
L,left,Lure,0,24,24,24,2364.981460534298,2366.981608103204,right,0,4,1.1651693770108977,H17K06,2022-11-15_10h58.36.995,t1_Paradigm,2021.1.4,60.04742632174145,
V,left,Pretarget,0,25,25,25,2368.481420434051,2370.4831854864024,left,1,4,0.7834018994180951,H17K06,2022-11-15_10h58.36.995,t1_Paradigm,2021.1.4,60.04742632174145,
Z,left,Distractor,0,26,26,26,2371.9815019177477,2373.9831755415507,left,1,4,1.1395851004199358,H17K06,2022-11-15_10h58.36.995,t1_Paradigm,2021.1.4,60.04742632174145,
H,left,Distractor,0,27,27,27,2375.481594629513,2377.483905365996,left,1,4,1.2068117161979899,H17K06,2022-11-15_10h58.36.995,t1_Paradigm,2021.1.4,60.04742632174145,
X,left,Distractor,0,28,28,28,2378.9814752911916,2380.9822134564893,left,1,4,1.0043648313730955,H17K06,2022-11-15_10h58.36.995,t1_Paradigm,2021.1.4,60.04742632174145,
V,right,Target,0,29,29,29,2382.4814791408135,2384.4832923134527,left,0,4,0.9114028412732296,H17K06,2022-11-15_10h58.36.995,t1_Paradigm,2021.1.4,60.04742632174145,
C,left,Distractor,0,30,30,30,2385.9810649854917,2387.982564093021,left,1,4,0.6121196411550045,H17K06,2022-11-15_10h58.36.995,t1_Paradigm,2021.1.4,60.04742632174145,
S,left,Pretarget,0,31,31,31,2389.480574479312,2391.483057486432,left,1,4,1.0316002756444504,H17K06,2022-11-15_10h58.36.995,t1_Paradigm,2021.1.4,60.04742632174145,
D,left,Distractor,0,32,32,32,2392.981186248624,2394.9836160026316,left,1,4,0.858968082771753,H17K06,2022-11-15_10h58.36.995,t1_Paradigm,2021.1.4,60.04742632174145,
V,left,Distractor,0,33,33,33,2396.481381296224,2398.4821111206693,left,1,4,1.2004158876516158,H17K06,2022-11-15_10h58.36.995,t1_Paradigm,2021.1.4,60.04742632174145,
R,left,Distractor,0,34,34,34,2399.9814008651447,2401.983724754493,left,1,4,1.234935140266316,H17K06,2022-11-15_10h58.36.995,t1_Paradigm,2021.1.4,60.04742632174145,
S,right,Target,0,35,35,35,2403.4815651157405,2405.4829731155187,left,0,4,1.1118427890760358,H17K06,2022-11-15_10h58.36.995,t1_Paradigm,2021.1.4,60.04742632174145,
Y,left,Distractor,0,36,36,36,2406.9815282235068,2408.98329712548,left,1,4,0.9075153632002184,H17K06,2022-11-15_10h58.36.995,t1_Paradigm,2021.1.4,60.04742632174145,
N,left,Pretarget,0,37,37,37,2410.4814432109997,2412.4825345792487,left,1,4,1.0561711388581898,H17K06,2022-11-15_10h58.36.995,t1_Paradigm,2021.1.4,60.04742632174145,
Z,left,Pretarget,0,38,38,38,2413.980460273815,2415.9810479829903,right,0,4,0.8694740259525133,H17K06,2022-11-15_10h58.36.995,t1_Paradigm,2021.1.4,60.04742632174145,
P,left,Pretarget,0,39,39,39,2417.4816199728666,2419.482337606838,left,1,4,1.2083534903940745,H17K06,2022-11-15_10h58.36.995,t1_Paradigm,2021.1.4,60.04742632174145,
M,left,Distractor,0,40,40,40,2420.9812289152906,2422.983370909933,left,1,4,1.3872936120606028,H17K06,2022-11-15_10h58.36.995,t1_Paradigm,2021.1.4,60.04742632174145,
N,right,Target,0,41,41,41,2424.4814278124977,2426.482844153128,right,1,4,1.1037512014154345,H17K06,2022-11-15_10h58.36.995,t1_Paradigm,2021.1.4,60.04742632174145,
Z,right,Target,0,42,42,42,2427.9815160330327,2429.9826779777213,left,0,4,0.9158363242750056,H17K06,2022-11-15_10h58.36.995,t1_Paradigm,2021.1.4,60.04742632174145,
P,right,Target,0,43,43,43,2431.4816097072035,2433.4810049955267,None,0,4,,H17K06,2022-11-15_10h58.36.995,t1_Paradigm,2021.1.4,60.04742632174145,
X,left,Pretarget,0,44,44,44,2434.9812167248165,2436.982851531575,left,1,4,0.699674514340586,H17K06,2022-11-15_10h58.36.995,t1_Paradigm,2021.1.4,60.04742632174145,
Z,left,Lure,0,45,45,45,2438.4814528350544,2440.480987351417,left,1,4,1.1380949753511231,H17K06,2022-11-15_10h58.36.995,t1_Paradigm,2021.1.4,60.04742632174145,
R,left,Pretarget,0,46,46,46,2441.981451872649,2443.982199662001,left,1,4,0.9487419430661248,H17K06,2022-11-15_10h58.36.995,t1_Paradigm,2021.1.4,60.04742632174145,
K,left,Distractor,0,47,47,47,2445.4814194716455,2447.482582057928,left,1,4,0.9197975868009962,H17K06,2022-11-15_10h58.36.995,t1_Paradigm,2021.1.4,60.04742632174145,
X,right,Target,0,48,48,48,2448.9814807448274,2450.982707170697,right,1,4,1.1157787082483992,H17K06,2022-11-15_10h58.36.995,t1_Paradigm,2021.1.4,60.04742632174145,
B,left,Distractor,0,49,49,49,2452.481395411509,2454.48384954645,left,1,4,0.9585401971125975,H17K06,2022-11-15_10h58.36.995,t1_Paradigm,2021.1.4,60.04742632174145,
R,right,Target,0,50,50,50,2455.9811339579173,2457.983292634264,None,0,4,,H17K06,2022-11-15_10h58.36.995,t1_Paradigm,2021.1.4,60.04742632174145,
Y,left,Pretarget,0,51,51,51,2459.4814733663807,2461.4833895164484,left,1,4,1.1755412249767687,H17K06,2022-11-15_10h58.36.995,t1_Paradigm,2021.1.4,60.04742632174145,
W,left,Pretarget,0,52,52,52,2462.981353065654,2464.9825461281143,left,1,4,1.1481877256010193,H17K06,2022-11-15_10h58.36.995,t1_Paradigm,2021.1.4,60.04742632174145,
Z,left,Distractor,0,53,53,53,2466.481460213501,2468.482129406373,None,0,4,,H17K06,2022-11-15_10h58.36.995,t1_Paradigm,2021.1.4,60.04742632174145,
Q,left,Distractor,0,54,54,54,2469.981276073173,2471.982860193224,None,0,4,,H17K06,2022-11-15_10h58.36.995,t1_Paradigm,2021.1.4,60.04742632174145,
Y,right,Target,0,55,55,55,2473.4813787298044,2475.494051048576,left,0,4,1.2925123540917411,H17K06,2022-11-15_10h58.36.995,t1_Paradigm,2021.1.4,60.04742632174145,
W,right,Target,0,56,56,56,2476.9810633814777,2478.9814416069858,right,1,4,1.0051321896607988,H17K06,2022-11-15_10h58.36.995,t1_Paradigm,2021.1.4,60.04742632174145,
H,left,Pretarget,0,57,57,57,2480.4814156220236,2482.482762027823,left,1,4,0.8801394077017903,H17K06,2022-11-15_10h58.36.995,t1_Paradigm,2021.1.4,60.04742632174145,
M,left,Distractor,0,58,58,58,2483.981289546864,2485.9833776467713,left,1,4,0.6591828917589737,H17K06,2022-11-15_10h58.36.995,t1_Paradigm,2021.1.4,60.04742632174145,
R,left,Pretarget,0,59,59,59,2487.4814826696384,2489.4832980878855,left,1,4,0.967601889904472,H17K06,2022-11-15_10h58.36.995,t1_Paradigm,2021.1.4,60.04742632174145,
J,left,Distractor,0,60,60,60,2490.981569606971,2492.981921847517,left,1,4,0.940766806495958,H17K06,2022-11-15_10h58.36.995,t1_Paradigm,2021.1.4,60.04742632174145,
H,right,Target,0,61,61,61,2494.481374238574,2496.4831678422925,right,1,4,0.8796562799543608,H17K06,2022-11-15_10h58.36.995,t1_Paradigm,2021.1.4,60.04742632174145,
Z,left,Distractor,0,62,62,62,2497.981432303728,2499.9815721733758,left,1,4,0.9009408479614649,H17K06,2022-11-15_10h58.36.995,t1_Paradigm,2021.1.4,60.04742632174145,
R,right,Target,0,63,63,63,2501.4810951408726,2503.48296188745,None,0,4,,H17K06,2022-11-15_10h58.36.995,t1_Paradigm,2021.1.4,60.04742632174145,
J,left,Pretarget,0,0,0,0,2571.7524656838214,2573.765862052591,None,0,4,,H17K06,2022-11-15_10h58.36.995,t1_Paradigm,2021.1.4,60.04742632174145,
G,left,Pretarget,0,1,1,1,2575.2643205992063,2577.2663676364755,None,0,4,,H17K06,2022-11-15_10h58.36.995,t1_Paradigm,2021.1.4,60.04742632174145,
Z,left,Distractor,0,2,2,2,2578.7647270552843,2580.765952839545,None,0,4,,H17K06,2022-11-15_10h58.36.995,t1_Paradigm,2021.1.4,60.04742632174145,
F,left,Distractor,0,3,3,3,2582.2646718773467,2584.2656775914656,None,0,4,,H17K06,2022-11-15_10h58.36.995,t1_Paradigm,2021.1.4,60.04742632174145,
J,right,Target,0,4,4,4,2585.7645121179667,2587.7665463231533,right,1,4,0.8443651778507046,H17K06,2022-11-15_10h58.36.995,t1_Paradigm,2021.1.4,60.04742632174145,
G,right,Target,0,5,5,5,2589.264704919944,2591.2666887592204,right,1,4,1.2479738148540491,H17K06,2022-11-15_10h58.36.995,t1_Paradigm,2021.1.4,60.04742632174145,
H,left,Distractor,0,6,6,6,2592.7645573510526,2594.780977278235,left,1,4,0.9977421958465129,H17K06,2022-11-15_10h58.36.995,t1_Paradigm,2021.1.4,60.04742632174145,
P,left,Distractor,0,7,7,7,2596.264712619188,2598.266830232882,left,1,4,1.079900538563379,H17K06,2022-11-15_10h58.36.995,t1_Paradigm,2021.1.4,60.04742632174145,
G,left,Lure,0,8,8,8,2599.764695937498,2601.7663676364755,left,1,4,0.9882025081606116,H17K06,2022-11-15_10h58.36.995,t1_Paradigm,2021.1.4,60.04742632174145,
S,left,Distractor,0,9,9,9,2603.264720639243,2605.2660558169737,left,1,4,1.2324261481844587,H17K06,2022-11-15_10h58.36.995,t1_Paradigm,2021.1.4,60.04742632174145,
R,left,Pretarget,0,10,10,10,2606.764460148057,2608.766230654044,left,1,4,1.0284297899343073,H17K06,2022-11-15_10h58.36.995,t1_Paradigm,2021.1.4,60.04742632174145,
T,left,Pretarget,0,11,11,11,2610.264450203191,2612.2659679172357,left,1,4,1.3845157879550243,H17K06,2022-11-15_10h58.36.995,t1_Paradigm,2021.1.4,60.04742632174145,
X,left,Distractor,0,12,12,12,2613.764590714447,2615.7660593457986,left,1,4,1.1649624597484944,H17K06,2022-11-15_10h58.36.995,t1_Paradigm,2021.1.4,60.04742632174145,
F,left,Pretarget,0,13,13,13,2617.2647880076547,2619.2658152155054,left,1,4,0.8166860644851113,H17K06,2022-11-15_10h58.36.995,t1_Paradigm,2021.1.4,60.04742632174145,
R,right,Target,0,14,14,14,2620.764668027725,2622.7658517869277,right,1,4,1.124810566441738,H17K06,2022-11-15_10h58.36.995,t1_Paradigm,2021.1.4,60.04742632174145,
T,right,Target,0,15,15,15,2624.264612849787,2626.2661600776046,left,0,4,1.4484413516329369,H17K06,2022-11-15_10h58.36.995,t1_Paradigm,2021.1.4,60.04742632174145,
C,left,Distractor,0,16,16,16,2627.764470092923,2629.7658957367967,left,1,4,0.9088136487116572,H17K06,2022-11-15_10h58.36.995,t1_Paradigm,2021.1.4,60.04742632174145,
F,right,Target,0,17,17,17,2631.2646555164392,2633.265953160342,left,0,4,0.9127052972180536,H17K06,2022-11-15_10h58.36.995,t1_Paradigm,2021.1.4,60.04742632174145,
M,left,Distractor,0,18,18,18,2634.764442503947,2636.766381110152,left,1,4,0.6599393427750329,H17K06,2022-11-15_10h58.36.995,t1_Paradigm,2021.1.4,60.04742632174145,
N,left,Distractor,0,19,19,19,2638.264766193126,2640.2661389046843,left,1,4,1.1926162297459086,H17K06,2022-11-15_10h58.36.995,t1_Paradigm,2021.1.4,60.04742632174145,
R,left,Lure,0,20,20,20,2641.764782874816,2643.7666656614892,right,0,4,0.7481547471688827,H17K06,2022-11-15_10h58.36.995,t1_Paradigm,2021.1.4,60.04742632174145,
F,right,Target,0,21,21,21,2645.2647838372213,2647.2642760077288,left,0,4,1.410401939181611,H17K06,2022-11-15_10h58.36.995,t1_Paradigm,2021.1.4,60.04742632174145,
P,left,Distractor,0,22,22,22,2648.764750473827,2650.7661687392538,left,1,4,0.8684217955451459,H17K06,2022-11-15_10h58.36.995,t1_Paradigm,2021.1.4,60.04742632174145,
L,left,Pretarget,0,23,23,23,2652.264548689389,2654.265847616509,left,1,4,0.7766493390809046,H17K06,2022-11-15_10h58.36.995,t1_Paradigm,2021.1.4,60.04742632174145,
T,left,Distractor,0,24,24,24,2655.7644980026816,2657.763806995281,left,1,4,0.6866210828447947,H17K06,2022-11-15_10h58.36.995,t1_Paradigm,2021.1.4,60.04742632174145,
F,left,Distractor,0,25,25,25,2659.264676689374,2661.2660773107054,left,1,4,1.3286952856287826,H17K06,2022-11-15_10h58.36.995,t1_Paradigm,2021.1.4,60.04742632174145,
V,left,Distractor,0,26,26,26,2662.764688879848,2664.7664157567633,left,1,4,0.6922566107677994,H17K06,2022-11-15_10h58.36.995,t1_Paradigm,2021.1.4,60.04742632174145,
L,right,Target,0,27,27,27,2666.264258042822,2668.2661472455366,right,1,4,0.8085142763302429,H17K06,2022-11-15_10h58.36.995,t1_Paradigm,2021.1.4,60.04742632174145,
S,left,Pretarget,0,28,28,28,2669.7646754061716,2671.766734954712,left,1,4,0.9239282327471301,H17K06,2022-11-15_10h58.36.995,t1_Paradigm,2021.1.4,60.04742632174145,
W,left,Distractor,0,29,29,29,2673.2644434663525,2675.2668395361397,left,1,4,1.0078124899737304,H17K06,2022-11-15_10h58.36.995,t1_Paradigm,2021.1.4,60.04742632174145,
Q,left,Distractor,0,30,30,30,2676.764402082903,2678.7660436264996,left,1,4,0.7084692998905666,H17K06,2022-11-15_10h58.36.995,t1_Paradigm,2021.1.4,60.04742632174145,
L,right,Target,0,31,31,31,2680.2646263234637,2682.266277170318,None,0,4,,H17K06,2022-11-15_10h58.36.995,t1_Paradigm,2021.1.4,60.04742632174145,
S,right,Target,0,32,32,32,2683.7647556066513,2685.764963807116,left,0,4,0.8615508592920378,H17K06,2022-11-15_10h58.36.995,t1_Paradigm,2021.1.4,60.04742632174145,
Z,left,Pretarget,0,33,33,33,2687.26481720063,2689.266014754321,left,1,4,0.704598824333516,H17K06,2022-11-15_10h58.36.995,t1_Paradigm,2021.1.4,60.04742632174145,
F,left,Distractor,0,34,34,34,2690.7647934612905,2692.7658575613605,right,0,4,0.9166899782867404,H17K06,2022-11-15_10h58.36.995,t1_Paradigm,2021.1.4,60.04742632174145,
V,left,Distractor,0,35,35,35,2694.2646125289903,2696.266733671495,left,1,4,1.1757831096474547,H17K06,2022-11-15_10h58.36.995,t1_Paradigm,2021.1.4,60.04742632174145,
M,left,Distractor,0,36,36,36,2697.76457274954,2699.7662319372466,left,1,4,1.1485633846896235,H17K06,2022-11-15_10h58.36.995,t1_Paradigm,2021.1.4,60.04742632174145,
Z,right,Target,0,37,37,37,2701.2647498322185,2703.2665424735314,right,1,4,0.7199944308667909,H17K06,2022-11-15_10h58.36.995,t1_Paradigm,2021.1.4,60.04742632174145,
H,left,Pretarget,0,38,38,38,2704.7641707846924,2706.777500426673,left,1,4,0.7771465821133461,H17K06,2022-11-15_10h58.36.995,t1_Paradigm,2021.1.4,60.04742632174145,
L,left,Distractor,0,39,39,39,2708.2647196768376,2710.2666387141217,left,1,4,1.2080285180127248,H17K06,2022-11-15_10h58.36.995,t1_Paradigm,2021.1.4,60.04742632174145,
G,left,Distractor,0,40,40,40,2711.7646458923846,2713.7662579222088,left,1,4,1.3882800780702382,H17K06,2022-11-15_10h58.36.995,t1_Paradigm,2021.1.4,60.04742632174145,
K,left,Distractor,0,41,41,41,2715.2647238472564,2717.2662037066766,left,1,4,0.8485702498583123,H17K06,2022-11-15_10h58.36.995,t1_Paradigm,2021.1.4,60.04742632174145,
H,right,Target,0,42,42,42,2718.764766513923,2720.7657212205377,right,1,4,0.916730078519322,H17K06,2022-11-15_10h58.36.995,t1_Paradigm,2021.1.4,60.04742632174145,
B,left,Distractor,0,43,43,43,2722.2638384338643,2724.2644136317685,left,1,4,1.0822513752791565,H17K06,2022-11-15_10h58.36.995,t1_Paradigm,2021.1.4,60.04742632174145,
Z,left,Distractor,0,44,44,44,2725.764454694421,2727.7664366088866,right,0,4,0.98817652319849,H17K06,2022-11-15_10h58.36.995,t1_Paradigm,2021.1.4,60.04742632174145,
T,left,Pretarget,0,45,45,45,2729.264347867371,2731.265996789414,left,1,4,0.6085619475052226,H17K06,2022-11-15_10h58.36.995,t1_Paradigm,2021.1.4,60.04742632174145,
H,right,Target,0,46,46,46,2732.764673160549,2734.7662566389918,right,1,4,0.9321516700292705,H17K06,2022-11-15_10h58.36.995,t1_Paradigm,2021.1.4,60.04742632174145,
F,left,Distractor,0,47,47,47,2736.2646154162067,2738.266459065024,left,1,4,0.8560847148182802,H17K06,2022-11-15_10h58.36.995,t1_Paradigm,2021.1.4,60.04742632174145,
R,left,Distractor,0,48,48,48,2739.7646577620617,2741.7656660426,left,1,4,0.8608357917546527,H17K06,2022-11-15_10h58.36.995,t1_Paradigm,2021.1.4,60.04742632174145,
T,right,Target,0,49,49,49,2743.2646619324805,2745.26588226312,left,0,4,0.7526568817847874,H17K06,2022-11-15_10h58.36.995,t1_Paradigm,2021.1.4,60.04742632174145,
H,right,Target,0,50,50,50,2746.7638727596786,2748.765227185533,left,0,4,1.1414120675326558,H17K06,2022-11-15_10h58.36.995,t1_Paradigm,2021.1.4,60.04742632174145,
Y,left,Pretarget,0,51,51,51,2750.264800198129,2752.2651476266474,left,1,4,0.6816387077124091,H17K06,2022-11-15_10h58.36.995,t1_Paradigm,2021.1.4,60.04742632174145,
H,left,Distractor,0,52,52,52,2753.7646564788447,2755.766294814428,right,0,4,0.8283327794051729,H17K06,2022-11-15_10h58.36.995,t1_Paradigm,2021.1.4,60.04742632174145,
S,left,Distractor,0,53,53,53,2757.26436358667,2759.266589310617,left,1,4,0.8158792475733208,H17K06,2022-11-15_10h58.36.995,t1_Paradigm,2021.1.4,60.04742632174145,
Q,left,Distractor,0,54,54,54,2760.764588789636,2762.7663147041458,left,1,4,0.7882203447516076,H17K06,2022-11-15_10h58.36.995,t1_Paradigm,2021.1.4,60.04742632174145,
Y,right,Target,0,55,55,55,2764.264708769566,2766.2664911452302,right,1,4,0.8241466347244568,H17K06,2022-11-15_10h58.36.995,t1_Paradigm,2021.1.4,60.04742632174145,
R,left,Distractor,0,56,56,56,2767.7648560176603,2769.7671426939924,left,1,4,0.8753402104775887,H17K06,2022-11-15_10h58.36.995,t1_Paradigm,2021.1.4,60.04742632174145,
H,left,Pretarget,0,57,57,57,2771.2643735315214,2773.266238994882,right,0,4,0.4965712687262567,H17K06,2022-11-15_10h58.36.995,t1_Paradigm,2021.1.4,60.04742632174145,
J,left,Distractor,0,58,58,58,2774.764672839752,2776.76685461383,left,1,4,0.9638299005309818,H17K06,2022-11-15_10h58.36.995,t1_Paradigm,2021.1.4,60.04742632174145,
V,left,Distractor,0,59,59,59,2778.2646654613054,2780.266233220449,left,1,4,0.7925627199874725,H17K06,2022-11-15_10h58.36.995,t1_Paradigm,2021.1.4,60.04742632174145,
Y,left,Lure,0,60,60,60,2781.7644607896655,2783.766050684135,left,1,4,1.3405864516389556,H17K06,2022-11-15_10h58.36.995,t1_Paradigm,2021.1.4,60.04742632174145,
H,right,Target,0,61,61,61,2785.264697862309,2787.2660840475437,right,1,4,0.9286215653410181,H17K06,2022-11-15_10h58.36.995,t1_Paradigm,2021.1.4,60.04742632174145,
L,left,Distractor,0,62,62,62,2788.7646417219657,2790.766066082637,left,1,4,0.8684310988028301,H17K06,2022-11-15_10h58.36.995,t1_Paradigm,2021.1.4,60.04742632174145,
P,left,Distractor,0,63,63,63,2792.264782233222,2794.265127736915,left,1,4,0.7773708226741292,H17K06,2022-11-15_10h58.36.995,t1_Paradigm,2021.1.4,60.04742632174145,
