Letter,CorrAnswer,Stimulus,nback_run.thisRepN,nback_run.thisTrialN,nback_run.thisN,nback_run.thisIndex,fixcross.started,nback_trial.started,trial_resp.keys,trial_resp.corr,currentlevel,trial_resp.rt,Participant,date,expName,psychopyVersion,frameRate,
H,left,Distractor,0,0,0,0,297.1859092603554,299.1223932384746,None,0,1,,H17N05,2022-11-03_09h13.00.421,t1_Paradigm,2021.1.4,60.011820679107274,
Q,left,Pretarget,0,1,1,1,300.6243032970233,302.6247723103734,left,1,1,0.677808033011388,H17N05,2022-11-03_09h13.00.421,t1_Paradigm,2021.1.4,60.011820679107274,
Q,right,Target,0,2,2,2,304.1213949008961,306.12124187807785,left,0,1,1.405169476813171,H17N05,2022-11-03_09h13.00.421,t1_Paradigm,2021.1.4,60.011820679107274,
T,left,Distractor,0,3,3,3,307.6216037433478,309.62063973164186,left,1,1,1.2980441949912347,H17N05,2022-11-03_09h13.00.421,t1_Paradigm,2021.1.4,60.011820679107274,
Q,left,Lure,0,4,4,4,311.12139682570705,313.12288182083284,left,1,1,1.091549354547169,H17N05,2022-11-03_09h13.00.421,t1_Paradigm,2021.1.4,60.011820679107274,
L,left,Distractor,0,5,5,5,314.621381748002,316.62366522068623,left,1,1,1.0309789418824948,H17N05,2022-11-03_09h13.00.421,t1_Paradigm,2021.1.4,60.011820679107274,
V,left,Pretarget,0,6,6,6,318.12146996869706,320.12305409181863,left,1,1,0.9714097540127113,H17N05,2022-11-03_09h13.00.421,t1_Paradigm,2021.1.4,60.011820679107274,
V,right,Target,0,7,7,7,321.621360895806,323.6213349108002,right,1,1,0.5611212306539528,H17N05,2022-11-03_09h13.00.421,t1_Paradigm,2021.1.4,60.011820679107274,
K,left,Distractor,0,8,8,8,325.12145809899084,327.1238487197552,left,1,1,0.4506268802797422,H17N05,2022-11-03_09h13.00.421,t1_Paradigm,2021.1.4,60.011820679107274,
G,left,Pretarget,0,9,9,9,328.62151808908675,330.6233858016785,left,1,1,0.47110306681133807,H17N05,2022-11-03_09h13.00.421,t1_Paradigm,2021.1.4,60.011820679107274,
G,right,Target,0,10,10,10,332.121349026158,334.121275883168,left,0,1,0.7973451662692241,H17N05,2022-11-03_09h13.00.421,t1_Paradigm,2021.1.4,60.011820679107274,
G,right,Target,0,11,11,11,335.6214135074406,337.6216095178388,right,1,1,0.3848055711714551,H17N05,2022-11-03_09h13.00.421,t1_Paradigm,2021.1.4,60.011820679107274,
P,left,Pretarget,0,12,12,12,339.12147157272557,341.12369601771934,left,1,1,0.41876380651956424,H17N05,2022-11-03_09h13.00.421,t1_Paradigm,2021.1.4,60.011820679107274,
P,right,Target,0,13,13,13,342.6214937081095,344.62154888611985,right,1,1,0.3930203625932336,H17N05,2022-11-03_09h13.00.421,t1_Paradigm,2021.1.4,60.011820679107274,
G,left,Lure,0,14,14,14,346.12163935246645,348.1220506213722,left,1,1,0.3965761383296922,H17N05,2022-11-03_09h13.00.421,t1_Paradigm,2021.1.4,60.011820679107274,
Y,left,Distractor,0,15,15,15,349.6215334876324,351.6238092610729,left,1,1,0.5110404204460792,H17N05,2022-11-03_09h13.00.421,t1_Paradigm,2021.1.4,60.011820679107274,
B,left,Distractor,0,16,16,16,353.1214738183189,355.12377365195425,left,1,1,0.5629421060439199,H17N05,2022-11-03_09h13.00.421,t1_Paradigm,2021.1.4,60.011820679107274,
T,left,Pretarget,0,17,17,17,356.62148761283606,358.6231381420512,left,1,1,0.5033799759112298,H17N05,2022-11-03_09h13.00.421,t1_Paradigm,2021.1.4,60.011820679107274,
T,right,Target,0,18,18,18,360.1215338084148,362.1214821591857,right,1,1,0.6210657574702054,H17N05,2022-11-03_09h13.00.421,t1_Paradigm,2021.1.4,60.011820679107274,
S,left,Distractor,0,19,19,19,363.6215469613089,365.6243767607957,left,1,1,0.44630823604529724,H17N05,2022-11-03_09h13.00.421,t1_Paradigm,2021.1.4,60.011820679107274,
T,left,Lure,0,20,20,20,367.12148280080874,369.12244905816624,left,1,1,0.4040752192377113,H17N05,2022-11-03_09h13.00.421,t1_Paradigm,2021.1.4,60.011820679107274,
J,left,Distractor,0,21,21,21,370.62141864030855,372.6237367596477,left,1,1,0.4868079567095265,H17N05,2022-11-03_09h13.00.421,t1_Paradigm,2021.1.4,60.011820679107274,
P,left,Distractor,0,22,22,22,374.12155594379874,376.12361421308015,left,1,1,0.4749793242663145,H17N05,2022-11-03_09h13.00.421,t1_Paradigm,2021.1.4,60.011820679107274,
F,left,Distractor,0,23,23,23,377.62147991359234,379.623106703395,left,1,1,0.415508943668101,H17N05,2022-11-03_09h13.00.421,t1_Paradigm,2021.1.4,60.011820679107274,
L,left,Distractor,0,24,24,24,381.1215511317714,383.12296939990483,left,1,1,0.467529967718292,H17N05,2022-11-03_09h13.00.421,t1_Paradigm,2021.1.4,60.011820679107274,
W,left,Pretarget,0,25,25,25,384.6214898584876,386.6233431349392,left,1,1,0.4872509850538336,H17N05,2022-11-03_09h13.00.421,t1_Paradigm,2021.1.4,60.011820679107274,
W,right,Target,0,26,26,26,388.1215918736998,390.121311171446,left,0,1,0.5253639344591647,H17N05,2022-11-03_09h13.00.421,t1_Paradigm,2021.1.4,60.011820679107274,
V,left,Distractor,0,27,27,27,391.62160695140483,393.62342012755107,left,1,1,0.8473076002555899,H17N05,2022-11-03_09h13.00.421,t1_Paradigm,2021.1.4,60.011820679107274,
W,left,Lure,0,28,28,28,395.12169517209986,397.12138495600084,left,1,1,0.9172165757627226,H17N05,2022-11-03_09h13.00.421,t1_Paradigm,2021.1.4,60.011820679107274,
R,left,Pretarget,0,29,29,29,398.6213932968676,400.6229671543115,left,1,1,0.7276524116750807,H17N05,2022-11-03_09h13.00.421,t1_Paradigm,2021.1.4,60.011820679107274,
R,right,Target,0,30,30,30,402.12149595370283,404.1215832119924,right,1,1,0.6209852360188961,H17N05,2022-11-03_09h13.00.421,t1_Paradigm,2021.1.4,60.011820679107274,
G,left,Distractor,0,31,31,31,405.6213320235838,407.6232189843431,left,1,1,0.6234759471844882,H17N05,2022-11-03_09h13.00.421,t1_Paradigm,2021.1.4,60.011820679107274,
R,left,Lure,0,32,32,32,409.1214824800263,411.1231545030023,left,1,1,0.915659079211764,H17N05,2022-11-03_09h13.00.421,t1_Paradigm,2021.1.4,60.011820679107274,
S,left,Distractor,0,33,33,33,412.62155145255383,414.6235872656689,left,1,1,0.6472888012649491,H17N05,2022-11-03_09h13.00.421,t1_Paradigm,2021.1.4,60.011820679107274,
R,left,Lure,0,34,34,34,416.12162748276023,418.1235846992349,left,1,1,0.5550349642289802,H17N05,2022-11-03_09h13.00.421,t1_Paradigm,2021.1.4,60.011820679107274,
P,left,Pretarget,0,35,35,35,419.6216255579493,421.62347273912746,left,1,1,0.5272524991887622,H17N05,2022-11-03_09h13.00.421,t1_Paradigm,2021.1.4,60.011820679107274,
P,right,Target,0,36,36,36,423.121633257193,425.12173174362397,right,1,1,0.6130213122232817,H17N05,2022-11-03_09h13.00.421,t1_Paradigm,2021.1.4,60.011820679107274,
Y,left,Pretarget,0,37,37,37,426.62171987391775,428.6236369900871,left,1,1,0.4550587678095326,H17N05,2022-11-03_09h13.00.421,t1_Paradigm,2021.1.4,60.011820679107274,
Y,right,Target,0,38,38,38,430.12158096639905,432.12151648505824,right,1,1,0.4772660050075501,H17N05,2022-11-03_09h13.00.421,t1_Paradigm,2021.1.4,60.011820679107274,
J,left,Distractor,0,39,39,39,433.6215014073532,435.6224073538324,left,1,1,0.44845087645808235,H17N05,2022-11-03_09h13.00.421,t1_Paradigm,2021.1.4,60.011820679107274,
Y,left,Lure,0,40,40,40,437.12172885634936,439.12373291002586,left,1,1,0.4348610379383899,H17N05,2022-11-03_09h13.00.421,t1_Paradigm,2021.1.4,60.011820679107274,
T,left,Distractor,0,41,41,41,440.62163229478756,442.6233036761987,left,1,1,0.6795454997336492,H17N05,2022-11-03_09h13.00.421,t1_Paradigm,2021.1.4,60.011820679107274,
V,left,Distractor,0,42,42,42,444.12154599890346,446.1227602366125,left,1,1,0.5717439661966637,H17N05,2022-11-03_09h13.00.421,t1_Paradigm,2021.1.4,60.011820679107274,
N,left,Pretarget,0,43,43,43,447.6216124050552,449.6241043994087,left,1,1,0.6386726858327165,H17N05,2022-11-03_09h13.00.421,t1_Paradigm,2021.1.4,60.011820679107274,
N,right,Target,0,44,44,44,451.1213284947444,453.1216492973617,right,1,1,0.40499463939340785,H17N05,2022-11-03_09h13.00.421,t1_Paradigm,2021.1.4,60.011820679107274,
N,right,Target,0,45,45,45,454.6216929265065,456.6214850464021,right,1,1,0.8252469698200002,H17N05,2022-11-03_09h13.00.421,t1_Paradigm,2021.1.4,60.011820679107274,
X,left,Distractor,0,46,46,46,458.12146868550917,460.1344028035528,left,1,1,0.5445014118449762,H17N05,2022-11-03_09h13.00.421,t1_Paradigm,2021.1.4,60.011820679107274,
Z,left,Distractor,0,47,47,47,461.6214882544591,463.62312178115826,left,1,1,0.5117680007242598,H17N05,2022-11-03_09h13.00.421,t1_Paradigm,2021.1.4,60.011820679107274,
H,left,Pretarget,0,48,48,48,465.1215315628215,467.12362576200394,left,1,1,0.46718061377760023,H17N05,2022-11-03_09h13.00.421,t1_Paradigm,2021.1.4,60.011820679107274,
H,right,Target,0,49,49,49,468.6217044753721,470.6216650166898,right,1,1,0.40911117795621976,H17N05,2022-11-03_09h13.00.421,t1_Paradigm,2021.1.4,60.011820679107274,
K,left,Distractor,0,50,50,50,472.12168618961005,474.12150493619265,left,1,1,0.4611164827947505,H17N05,2022-11-03_09h13.00.421,t1_Paradigm,2021.1.4,60.011820679107274,
V,left,Pretarget,0,51,51,51,475.62170222977875,477.6238901033066,left,1,1,0.5428021206753328,H17N05,2022-11-03_09h13.00.421,t1_Paradigm,2021.1.4,60.011820679107274,
V,right,Target,0,52,52,52,479.12167624477297,481.1214205651195,right,1,1,0.789337613270618,H17N05,2022-11-03_09h13.00.421,t1_Paradigm,2021.1.4,60.011820679107274,
R,left,Distractor,0,53,53,53,482.62164673092775,484.6235099522746,left,1,1,0.6153102385578677,H17N05,2022-11-03_09h13.00.421,t1_Paradigm,2021.1.4,60.011820679107274,
V,left,Lure,0,54,54,54,486.1216095178388,488.1226238955278,left,1,1,0.5880894988076761,H17N05,2022-11-03_09h13.00.421,t1_Paradigm,2021.1.4,60.011820679107274,
Y,left,Distractor,0,55,55,55,489.62171121221036,491.62360683461884,left,1,1,0.5591345003340393,H17N05,2022-11-03_09h13.00.421,t1_Paradigm,2021.1.4,60.011820679107274,
Q,left,Distractor,0,56,56,56,493.1217099290225,495.1226838856237,left,1,1,0.5322214102488942,H17N05,2022-11-03_09h13.00.421,t1_Paradigm,2021.1.4,60.011820679107274,
Z,left,Pretarget,0,57,57,57,496.62166886631167,498.62223893246846,left,1,1,0.5846363799646497,H17N05,2022-11-03_09h13.00.421,t1_Paradigm,2021.1.4,60.011820679107274,
Z,right,Target,0,58,58,58,500.12173270602943,502.1218420997029,right,1,1,0.5727185644209385,H17N05,2022-11-03_09h13.00.421,t1_Paradigm,2021.1.4,60.011820679107274,
B,left,Distractor,0,59,59,59,503.6216765655554,505.6230961169349,left,1,1,0.4478330107522197,H17N05,2022-11-03_09h13.00.421,t1_Paradigm,2021.1.4,60.011820679107274,
S,left,Pretarget,0,60,60,60,507.12161432986613,509.1222597846063,left,1,1,0.4524740615161136,H17N05,2022-11-03_09h13.00.421,t1_Paradigm,2021.1.4,60.011820679107274,
S,right,Target,0,61,61,61,510.60513887222623,512.6051292481134,right,1,1,0.6337929578730837,H17N05,2022-11-03_09h13.00.421,t1_Paradigm,2021.1.4,60.011820679107274,
T,left,Distractor,0,62,62,62,514.1051180200302,516.1062687388621,left,1,1,0.47645469527924433,H17N05,2022-11-03_09h13.00.421,t1_Paradigm,2021.1.4,60.011820679107274,
D,left,Distractor,0,63,63,63,517.6217744103633,519.6213070009835,left,1,1,0.44979118957417086,H17N05,2022-11-03_09h13.00.421,t1_Paradigm,2021.1.4,60.011820679107274,
R,left,Distractor,0,0,0,0,531.7121900485945,533.7062882436439,None,0,1,,H17N05,2022-11-03_09h13.00.421,t1_Paradigm,2021.1.4,60.011820679107274,
V,left,Distractor,0,1,1,1,535.2048866572441,537.2053473297274,left,1,1,0.9296168783330359,H17N05,2022-11-03_09h13.00.421,t1_Paradigm,2021.1.4,60.011820679107274,
N,left,Pretarget,0,2,2,2,538.7042354280129,540.7047705267323,left,1,1,0.7900664767366834,H17N05,2022-11-03_09h13.00.421,t1_Paradigm,2021.1.4,60.011820679107274,
N,right,Target,0,3,3,3,542.2051795499865,544.2053723523277,right,1,1,0.393707521725446,H17N05,2022-11-03_09h13.00.421,t1_Paradigm,2021.1.4,60.011820679107274,
S,left,Distractor,0,4,4,4,545.705256221816,547.7051872492302,left,1,1,0.5417094671283849,H17N05,2022-11-03_09h13.00.421,t1_Paradigm,2021.1.4,60.011820679107274,
N,left,Lure,0,5,5,5,549.2049636498559,551.2049880308332,left,1,1,0.8018392894300632,H17N05,2022-11-03_09h13.00.421,t1_Paradigm,2021.1.4,60.011820679107274,
Z,left,Distractor,0,6,6,6,552.7051108982414,554.7063299479778,left,1,1,0.548668637231458,H17N05,2022-11-03_09h13.00.421,t1_Paradigm,2021.1.4,60.011820679107274,
L,left,Pretarget,0,7,7,7,556.2051394496812,558.2056928341044,left,1,1,0.5690986281842925,H17N05,2022-11-03_09h13.00.421,t1_Paradigm,2021.1.4,60.011820679107274,
L,right,Target,0,8,8,8,559.7051461865194,561.7052119510481,right,1,1,0.685629841289483,H17N05,2022-11-03_09h13.00.421,t1_Paradigm,2021.1.4,60.011820679107274,
H,left,Distractor,0,9,9,9,563.2052042518044,565.2060495665646,left,1,1,0.4810059213778004,H17N05,2022-11-03_09h13.00.421,t1_Paradigm,2021.1.4,60.011820679107274,
L,left,Lure,0,10,10,10,566.7052020061528,568.7055526433978,left,1,1,0.3893542308360338,H17N05,2022-11-03_09h13.00.421,t1_Paradigm,2021.1.4,60.011820679107274,
X,left,Pretarget,0,11,11,11,570.2049957301351,572.2064608354704,left,1,1,0.5204530887422152,H17N05,2022-11-03_09h13.00.421,t1_Paradigm,2021.1.4,60.011820679107274,
X,right,Target,0,12,12,12,573.7051311088144,575.7051888532587,right,1,1,0.39785902778385207,H17N05,2022-11-03_09h13.00.421,t1_Paradigm,2021.1.4,60.011820679107274,
X,right,Target,0,13,13,13,577.2053203823161,579.205266166653,right,1,1,0.5459434194490314,H17N05,2022-11-03_09h13.00.421,t1_Paradigm,2021.1.4,60.011820679107274,
R,left,Distractor,0,14,14,14,580.704851368966,582.7061387496651,left,1,1,0.6129064648412168,H17N05,2022-11-03_09h13.00.421,t1_Paradigm,2021.1.4,60.011820679107274,
T,left,Distractor,0,15,15,15,584.2051827579853,586.2062661083182,left,1,1,0.7449491238803603,H17N05,2022-11-03_09h13.00.421,t1_Paradigm,2021.1.4,60.011820679107274,
V,left,Pretarget,0,16,16,16,587.7051846827962,589.7065480937599,left,1,1,0.47639598842943087,H17N05,2022-11-03_09h13.00.421,t1_Paradigm,2021.1.4,60.011820679107274,
V,right,Target,0,17,17,17,591.2053251943435,593.2052482017316,right,1,1,0.4176772481878288,H17N05,2022-11-03_09h13.00.421,t1_Paradigm,2021.1.4,60.011820679107274,
N,left,Distractor,0,18,18,18,594.7052459561382,596.7067870916799,left,1,1,0.40412847249535844,H17N05,2022-11-03_09h13.00.421,t1_Paradigm,2021.1.4,60.011820679107274,
B,left,Distractor,0,19,19,19,598.2052482017316,600.2059716115473,left,1,1,0.36093433102359995,H17N05,2022-11-03_09h13.00.421,t1_Paradigm,2021.1.4,60.011820679107274,
V,left,Lure,0,20,20,20,601.7052478809492,603.7059953509015,left,1,1,0.4131061323569156,H17N05,2022-11-03_09h13.00.421,t1_Paradigm,2021.1.4,60.011820679107274,
P,left,Distractor,0,21,21,21,605.2053168534767,607.2068977685412,left,1,1,0.44805211888160557,H17N05,2022-11-03_09h13.00.421,t1_Paradigm,2021.1.4,60.011820679107274,
K,left,Pretarget,0,22,22,22,608.7051843620138,610.7070649067173,left,1,1,0.49978281662333757,H17N05,2022-11-03_09h13.00.421,t1_Paradigm,2021.1.4,60.011820679107274,
K,right,Target,0,23,23,23,612.2053547081887,614.205218367104,right,1,1,0.36172061815159395,H17N05,2022-11-03_09h13.00.421,t1_Paradigm,2021.1.4,60.011820679107274,
J,left,Pretarget,0,24,24,24,615.7049912388902,617.707909259072,left,1,1,0.5231128628365695,H17N05,2022-11-03_09h13.00.421,t1_Paradigm,2021.1.4,60.011820679107274,
J,right,Target,0,25,25,25,619.205162868253,621.205382297223,right,1,1,0.6416795682744123,H17N05,2022-11-03_09h13.00.421,t1_Paradigm,2021.1.4,60.011820679107274,
H,left,Distractor,0,26,26,26,622.7053210239392,624.705397374928,left,1,1,0.533660851418972,H17N05,2022-11-03_09h13.00.421,t1_Paradigm,2021.1.4,60.011820679107274,
J,left,Lure,0,27,27,27,626.2053152494482,628.2070777387707,left,1,1,0.8240298448945396,H17N05,2022-11-03_09h13.00.421,t1_Paradigm,2021.1.4,60.011820679107274,
V,left,Distractor,0,28,28,28,629.7054862372461,631.7082807484549,left,1,1,0.5387914468883537,H17N05,2022-11-03_09h13.00.421,t1_Paradigm,2021.1.4,60.011820679107274,
Z,left,Pretarget,0,29,29,29,633.2053251943435,635.2064059781842,left,1,1,0.43261606158921495,H17N05,2022-11-03_09h13.00.421,t1_Paradigm,2021.1.4,60.011820679107274,
Z,right,Target,0,30,30,30,636.7052212543203,638.7064768755808,right,1,1,0.5486243664636277,H17N05,2022-11-03_09h13.00.421,t1_Paradigm,2021.1.4,60.011820679107274,
T,left,Distractor,0,31,31,31,640.2050416048733,642.2054050741717,left,1,1,0.4576829328434542,H17N05,2022-11-03_09h13.00.421,t1_Paradigm,2021.1.4,60.011820679107274,
Z,left,Lure,0,32,32,32,643.7051092942129,645.7063844844233,left,1,1,0.476646856055595,H17N05,2022-11-03_09h13.00.421,t1_Paradigm,2021.1.4,60.011820679107274,
F,left,Distractor,0,33,33,33,647.2052876604721,649.2214676589356,left,1,1,0.6735654190415516,H17N05,2022-11-03_09h13.00.421,t1_Paradigm,2021.1.4,60.011820679107274,
Y,left,Pretarget,0,34,34,34,650.7052722619264,652.7059382480802,left,1,1,0.43705500673968345,H17N05,2022-11-03_09h13.00.421,t1_Paradigm,2021.1.4,60.011820679107274,
Y,right,Target,0,35,35,35,654.2053123622318,656.2053864676272,left,0,1,0.5696099874330685,H17N05,2022-11-03_09h13.00.421,t1_Paradigm,2021.1.4,60.011820679107274,
Y,right,Target,0,36,36,36,657.7053245527204,659.7056049341918,right,1,1,0.685425169300288,H17N05,2022-11-03_09h13.00.421,t1_Paradigm,2021.1.4,60.011820679107274,
W,left,Distractor,0,37,37,37,661.2054368336685,663.2068737083464,left,1,1,0.7361918553360738,H17N05,2022-11-03_09h13.00.421,t1_Paradigm,2021.1.4,60.011820679107274,
Q,left,Distractor,0,38,38,38,664.706434529624,666.7079528882168,left,1,1,0.5471576570998877,H17N05,2022-11-03_09h13.00.421,t1_Paradigm,2021.1.4,60.011820679107274,
P,left,Pretarget,0,39,39,39,668.2050833092071,670.2068653674796,left,1,1,0.6000884773675352,H17N05,2022-11-03_09h13.00.421,t1_Paradigm,2021.1.4,60.011820679107274,
P,right,Target,0,40,40,40,671.707361328241,673.7054069989827,right,1,1,0.5417726651648991,H17N05,2022-11-03_09h13.00.421,t1_Paradigm,2021.1.4,60.011820679107274,
J,left,Distractor,0,41,41,41,675.205384863657,677.2070257687592,left,1,1,0.4160164532950148,H17N05,2022-11-03_09h13.00.421,t1_Paradigm,2021.1.4,60.011820679107274,
P,left,Lure,0,42,42,42,678.706014599069,680.7057188191102,left,1,1,0.7094337128801271,H17N05,2022-11-03_09h13.00.421,t1_Paradigm,2021.1.4,60.011820679107274,
L,left,Distractor,0,43,43,43,682.2052559009753,684.207051753765,left,1,1,0.7282417259993963,H17N05,2022-11-03_09h13.00.421,t1_Paradigm,2021.1.4,60.011820679107274,
Z,left,Distractor,0,44,44,44,685.7052905476885,687.7056373352534,left,1,1,0.5735542550683022,H17N05,2022-11-03_09h13.00.421,t1_Paradigm,2021.1.4,60.011820679107274,
F,left,Pretarget,0,45,45,45,689.2055016357917,691.207347533782,left,1,1,0.5918441720423289,H17N05,2022-11-03_09h13.00.421,t1_Paradigm,2021.1.4,60.011820679107274,
F,right,Target,0,46,46,46,692.7053152494482,694.7054211143404,right,1,1,0.5818197333137505,H17N05,2022-11-03_09h13.00.421,t1_Paradigm,2021.1.4,60.011820679107274,
G,left,Pretarget,0,47,47,47,696.2052141966415,698.2055295456084,left,1,1,0.4736341991228983,H17N05,2022-11-03_09h13.00.421,t1_Paradigm,2021.1.4,60.011820679107274,
G,right,Target,0,48,48,48,699.7054814252187,701.7054923324613,right,1,1,0.4299485881929286,H17N05,2022-11-03_09h13.00.421,t1_Paradigm,2021.1.4,60.011820679107274,
V,left,Distractor,0,49,49,49,703.2051554897917,705.2071085358621,left,1,1,0.3998694975161925,H17N05,2022-11-03_09h13.00.421,t1_Paradigm,2021.1.4,60.011820679107274,
G,left,Lure,0,50,50,50,706.7053826180054,708.7178624796215,left,1,1,0.6014724196284078,H17N05,2022-11-03_09h13.00.421,t1_Paradigm,2021.1.4,60.011820679107274,
Q,left,Pretarget,0,51,51,51,710.2052850940381,712.2072253079969,left,1,1,0.6158844751189463,H17N05,2022-11-03_09h13.00.421,t1_Paradigm,2021.1.4,60.011820679107274,
Q,right,Target,0,52,52,52,713.7053736355156,715.7053624074324,right,1,1,0.4140287605696358,H17N05,2022-11-03_09h13.00.421,t1_Paradigm,2021.1.4,60.011820679107274,
Y,left,Distractor,0,53,53,53,717.2053518209723,719.2060749099473,left,1,1,0.5452617139671929,H17N05,2022-11-03_09h13.00.421,t1_Paradigm,2021.1.4,60.011820679107274,
V,left,Distractor,0,54,54,54,720.7053928836831,722.7055446233135,left,1,1,0.5014769750414416,H17N05,2022-11-03_09h13.00.421,t1_Paradigm,2021.1.4,60.011820679107274,
B,left,Distractor,0,55,55,55,724.2054034702014,726.2063187198946,left,1,1,0.5528361834585667,H17N05,2022-11-03_09h13.00.421,t1_Paradigm,2021.1.4,60.011820679107274,
J,left,Pretarget,0,56,56,56,727.7051715299021,729.7054759715684,left,1,1,0.5737621351727284,H17N05,2022-11-03_09h13.00.421,t1_Paradigm,2021.1.4,60.011820679107274,
J,right,Target,0,57,57,57,731.2053008133662,733.2055571345845,right,1,1,0.5937407568562776,H17N05,2022-11-03_09h13.00.421,t1_Paradigm,2021.1.4,60.011820679107274,
H,left,Distractor,0,58,58,58,734.7054410040728,736.7077652186854,left,1,1,0.531379945052322,H17N05,2022-11-03_09h13.00.421,t1_Paradigm,2021.1.4,60.011820679107274,
J,left,Lure,0,59,59,59,738.2056030093809,740.2071678843349,left,1,1,0.45611549145542085,H17N05,2022-11-03_09h13.00.421,t1_Paradigm,2021.1.4,60.011820679107274,
D,left,Pretarget,0,60,60,60,741.7052167630754,743.7072904309025,left,1,1,0.4758666642010212,H17N05,2022-11-03_09h13.00.421,t1_Paradigm,2021.1.4,60.011820679107274,
D,right,Target,0,61,61,61,745.2054050741717,747.2054333048291,right,1,1,0.4337295672739856,H17N05,2022-11-03_09h13.00.421,t1_Paradigm,2021.1.4,60.011820679107274,
R,left,Distractor,0,62,62,62,748.7052735451143,750.7072727867635,left,1,1,0.4199068260495551,H17N05,2022-11-03_09h13.00.421,t1_Paradigm,2021.1.4,60.011820679107274,
F,left,Distractor,0,63,63,63,752.2054470993462,754.2070812676102,left,1,1,0.4241545729455538,H17N05,2022-11-03_09h13.00.421,t1_Paradigm,2021.1.4,60.011820679107274,
F,left,Distractor,0,0,0,0,837.8538551807287,839.8556231237017,None,0,2,,H17N05,2022-11-03_09h13.00.421,t1_Paradigm,2021.1.4,60.011820679107274,
N,left,Pretarget,0,1,1,1,841.3557774297078,843.357499818725,None,0,2,,H17N05,2022-11-03_09h13.00.421,t1_Paradigm,2021.1.4,60.011820679107274,
V,left,Distractor,0,2,2,2,844.8557556151645,846.8563106036163,left,1,2,0.5270821530139074,H17N05,2022-11-03_09h13.00.421,t1_Paradigm,2021.1.4,60.011820679107274,
N,right,Target,0,3,3,3,848.3556539207348,850.3573615528294,right,1,2,0.8020609640516341,H17N05,2022-11-03_09h13.00.421,t1_Paradigm,2021.1.4,60.011820679107274,
N,left,Lure,0,4,4,4,851.8554450782831,853.8556750937132,left,1,2,0.9835665674763732,H17N05,2022-11-03_09h13.00.421,t1_Paradigm,2021.1.4,60.011820679107274,
X,left,Distractor,0,5,5,5,855.355484857806,857.355351083097,left,1,2,1.2601525993668474,H17N05,2022-11-03_09h13.00.421,t1_Paradigm,2021.1.4,60.011820679107274,
G,left,Pretarget,0,6,6,6,858.855701078719,860.8573050915729,left,1,2,1.438119750469923,H17N05,2022-11-03_09h13.00.421,t1_Paradigm,2021.1.4,60.011820679107274,
H,left,Pretarget,0,7,7,7,862.3556414094637,864.3567831458058,left,1,2,0.8346086305100471,H17N05,2022-11-03_09h13.00.421,t1_Paradigm,2021.1.4,60.011820679107274,
G,right,Target,0,8,8,8,865.8555852689897,867.8560469038785,right,1,2,0.40745006228098646,H17N05,2022-11-03_09h13.00.421,t1_Paradigm,2021.1.4,60.011820679107274,
H,right,Target,0,9,9,9,869.3554948026431,871.3572563295602,right,1,2,0.44220420881174505,H17N05,2022-11-03_09h13.00.421,t1_Paradigm,2021.1.4,60.011820679107274,
T,left,Pretarget,0,10,10,10,872.8556600160082,874.8558370990213,left,1,2,0.6395850483095273,H17N05,2022-11-03_09h13.00.421,t1_Paradigm,2021.1.4,60.011820679107274,
K,left,Distractor,0,11,11,11,876.3558335701819,878.3572717281058,left,1,2,0.5942495497874916,H17N05,2022-11-03_09h13.00.421,t1_Paradigm,2021.1.4,60.011820679107274,
T,right,Target,0,12,12,12,879.8556414094637,881.8573987659183,right,1,2,0.5981456969748251,H17N05,2022-11-03_09h13.00.421,t1_Paradigm,2021.1.4,60.011820679107274,
T,left,Lure,0,13,13,13,883.3558505726978,885.3557001163135,left,1,2,0.5078028809512034,H17N05,2022-11-03_09h13.00.421,t1_Paradigm,2021.1.4,60.011820679107274,
J,left,Distractor,0,14,14,14,886.8556927378522,888.8561505231191,left,1,2,1.2154667259892449,H17N05,2022-11-03_09h13.00.421,t1_Paradigm,2021.1.4,60.011820679107274,
Q,left,Pretarget,0,15,15,15,890.3556770185241,892.3573236981174,left,1,2,0.8500883169472218,H17N05,2022-11-03_09h13.00.421,t1_Paradigm,2021.1.4,60.011820679107274,
M,left,Distractor,0,16,16,16,893.8556452590856,895.8581061356235,left,1,2,1.4136149252881296,H17N05,2022-11-03_09h13.00.421,t1_Paradigm,2021.1.4,60.011820679107274,
Q,right,Target,0,17,17,17,897.3556843969855,899.3563442878658,right,1,2,0.4271377160330303,H17N05,2022-11-03_09h13.00.421,t1_Paradigm,2021.1.4,60.011820679107274,
R,left,Distractor,0,18,18,18,900.8556125372415,902.8573050915729,left,1,2,0.49420726794051006,H17N05,2022-11-03_09h13.00.421,t1_Paradigm,2021.1.4,60.011820679107274,
W,left,Distractor,0,19,19,19,904.3555249581113,906.3564386038342,left,1,2,0.45099227444734424,H17N05,2022-11-03_09h13.00.421,t1_Paradigm,2021.1.4,60.011820679107274,
C,left,Pretarget,0,20,20,20,907.8557196852635,909.8576409718953,left,1,2,0.5658607678487897,H17N05,2022-11-03_09h13.00.421,t1_Paradigm,2021.1.4,60.011820679107274,
T,left,Distractor,0,21,21,21,911.3555445270613,913.357575528149,left,1,2,0.746061667217873,H17N05,2022-11-03_09h13.00.421,t1_Paradigm,2021.1.4,60.011820679107274,
C,right,Target,0,22,22,22,914.8555685872561,916.8568983139121,right,1,2,0.46276604960439727,H17N05,2022-11-03_09h13.00.421,t1_Paradigm,2021.1.4,60.011820679107274,
F,left,Pretarget,0,23,23,23,918.3557299509412,920.3548025107011,left,1,2,1.1247450421797112,H17N05,2022-11-03_09h13.00.421,t1_Paradigm,2021.1.4,60.011820679107274,
C,right,Target,0,24,24,24,921.8556006675353,923.8573227357119,right,1,2,0.790279810433276,H17N05,2022-11-03_09h13.00.421,t1_Paradigm,2021.1.4,60.011820679107274,
F,right,Target,0,25,25,25,925.3556516751414,927.3564190348843,right,1,2,0.5390949261491187,H17N05,2022-11-03_09h13.00.421,t1_Paradigm,2021.1.4,60.011820679107274,
H,left,Distractor,0,26,26,26,928.8557774297078,930.857286164246,left,1,2,0.6862631055992097,H17N05,2022-11-03_09h13.00.421,t1_Paradigm,2021.1.4,60.011820679107274,
H,left,Lure,0,27,27,27,932.3553071331698,934.3556827929569,left,1,2,0.7558413335937075,H17N05,2022-11-03_09h13.00.421,t1_Paradigm,2021.1.4,60.011820679107274,
P,left,Distractor,0,28,28,28,935.8557113443967,937.856358724006,left,1,2,0.9670673704240471,H17N05,2022-11-03_09h13.00.421,t1_Paradigm,2021.1.4,60.011820679107274,
G,left,Pretarget,0,29,29,29,939.355612858024,941.3581545767956,left,1,2,1.2415585615672171,H17N05,2022-11-03_09h13.00.421,t1_Paradigm,2021.1.4,60.011820679107274,
K,left,Distractor,0,30,30,30,942.8555743616889,944.857450094365,left,1,2,0.5740524614811875,H17N05,2022-11-03_09h13.00.421,t1_Paradigm,2021.1.4,60.011820679107274,
G,right,Target,0,31,31,31,946.3555964970728,948.3573692520731,None,0,2,,H17N05,2022-11-03_09h13.00.421,t1_Paradigm,2021.1.4,60.011820679107274,
M,left,Pretarget,0,32,32,32,949.8557700512465,951.8574055027566,left,1,2,1.4145468567148782,H17N05,2022-11-03_09h13.00.421,t1_Paradigm,2021.1.4,60.011820679107274,
B,left,Distractor,0,33,33,33,953.3558345325873,955.3574119188124,left,1,2,1.2902551086153835,H17N05,2022-11-03_09h13.00.421,t1_Paradigm,2021.1.4,60.011820679107274,
M,right,Target,0,34,34,34,956.8558810489485,958.8575335030328,right,1,2,0.5422346208943054,H17N05,2022-11-03_09h13.00.421,t1_Paradigm,2021.1.4,60.011820679107274,
M,left,Lure,0,35,35,35,960.3555291285156,962.3556247277302,left,1,2,0.5161277076113038,H17N05,2022-11-03_09h13.00.421,t1_Paradigm,2021.1.4,60.011820679107274,
T,left,Distractor,0,36,36,36,963.8558492895099,965.8578071476077,left,1,2,0.5657991737243719,H17N05,2022-11-03_09h13.00.421,t1_Paradigm,2021.1.4,60.011820679107274,
F,left,Distractor,0,37,37,37,967.3556369182188,969.3576011923724,left,1,2,0.8741058430168778,H17N05,2022-11-03_09h13.00.421,t1_Paradigm,2021.1.4,60.011820679107274,
X,left,Distractor,0,38,38,38,970.8558188132592,972.8556404470582,left,1,2,0.7678595603210852,H17N05,2022-11-03_09h13.00.421,t1_Paradigm,2021.1.4,60.011820679107274,
C,left,Distractor,0,39,39,39,974.3559423222323,976.3578084307956,left,1,2,0.7538173901848495,H17N05,2022-11-03_09h13.00.421,t1_Paradigm,2021.1.4,60.011820679107274,
R,left,Distractor,0,40,40,40,977.855832286994,979.8578687416739,left,1,2,0.7899285315652378,H17N05,2022-11-03_09h13.00.421,t1_Paradigm,2021.1.4,60.011820679107274,
B,left,Pretarget,0,41,41,41,981.3557934698765,983.3576326310285,None,0,2,,H17N05,2022-11-03_09h13.00.421,t1_Paradigm,2021.1.4,60.011820679107274,
H,left,Distractor,0,42,42,42,984.8556558455457,986.8574542647693,left,1,2,1.038205661403481,H17N05,2022-11-03_09h13.00.421,t1_Paradigm,2021.1.4,60.011820679107274,
B,right,Target,0,43,43,43,988.3559051091434,990.3576570120058,None,0,2,,H17N05,2022-11-03_09h13.00.421,t1_Paradigm,2021.1.4,60.011820679107274,
W,left,Pretarget,0,44,44,44,991.8556398054352,993.8582957299077,left,1,2,0.9652057531056926,H17N05,2022-11-03_09h13.00.421,t1_Paradigm,2021.1.4,60.011820679107274,
L,left,Pretarget,0,45,45,45,995.3558903522207,997.3576855634456,left,1,2,0.6499171366449445,H17N05,2022-11-03_09h13.00.421,t1_Paradigm,2021.1.4,60.011820679107274,
W,right,Target,0,46,46,46,998.8558778409497,1000.8558072643937,right,1,2,0.44799501600209624,H17N05,2022-11-03_09h13.00.421,t1_Paradigm,2021.1.4,60.011820679107274,
L,right,Target,0,47,47,47,1002.3557838457637,1004.3563446087064,right,1,2,0.5314588625333272,H17N05,2022-11-03_09h13.00.421,t1_Paradigm,2021.1.4,60.011820679107274,
W,right,Target,0,48,48,48,1005.8558611592161,1007.8562210996752,right,1,2,0.6318322125007398,H17N05,2022-11-03_09h13.00.421,t1_Paradigm,2021.1.4,60.011820679107274,
X,left,Distractor,0,49,49,49,1009.3555942514795,1011.3574244301417,left,1,2,0.5862676610122435,H17N05,2022-11-03_09h13.00.421,t1_Paradigm,2021.1.4,60.011820679107274,
R,left,Distractor,0,50,50,50,1012.8559156956617,1014.8550116739934,left,1,2,0.4971249673399143,H17N05,2022-11-03_09h13.00.421,t1_Paradigm,2021.1.4,60.011820679107274,
V,left,Pretarget,0,51,51,51,1016.3558560263482,1018.3577635184629,left,1,2,0.6900261197588407,H17N05,2022-11-03_09h13.00.421,t1_Paradigm,2021.1.4,60.011820679107274,
Z,left,Distractor,0,52,52,52,1019.8558932394371,1021.8558974098996,left,1,2,0.7598430248908699,H17N05,2022-11-03_09h13.00.421,t1_Paradigm,2021.1.4,60.011820679107274,
V,right,Target,0,53,53,53,1023.3556122164009,1025.3564216013183,right,1,2,0.3794006895041093,H17N05,2022-11-03_09h13.00.421,t1_Paradigm,2021.1.4,60.011820679107274,
V,left,Lure,0,54,54,54,1026.8556369182188,1028.855595855508,left,1,2,0.7360423613572493,H17N05,2022-11-03_09h13.00.421,t1_Paradigm,2021.1.4,60.011820679107274,
N,left,Distractor,0,55,55,55,1030.3559051091434,1032.3568177924608,left,1,2,0.7229686941718683,H17N05,2022-11-03_09h13.00.421,t1_Paradigm,2021.1.4,60.011820679107274,
B,left,Distractor,0,56,56,56,1033.856087004242,1035.8572871266515,left,1,2,0.8542215372435749,H17N05,2022-11-03_09h13.00.421,t1_Paradigm,2021.1.4,60.011820679107274,
V,left,Lure,0,57,57,57,1037.3559641368338,1039.3560244477121,left,1,2,0.4916928174206987,H17N05,2022-11-03_09h13.00.421,t1_Paradigm,2021.1.4,60.011820679107274,
J,left,Distractor,0,58,58,58,1040.8558550639427,1042.857981022622,left,1,2,0.5419154223636724,H17N05,2022-11-03_09h13.00.421,t1_Paradigm,2021.1.4,60.011820679107274,
H,left,Distractor,0,59,59,59,1044.3559965378954,1046.3575575632276,left,1,2,0.578335496596992,H17N05,2022-11-03_09h13.00.421,t1_Paradigm,2021.1.4,60.011820679107274,
X,left,Pretarget,0,60,60,60,1047.855915374821,1049.8579620952369,left,1,2,0.8058894218993373,H17N05,2022-11-03_09h13.00.421,t1_Paradigm,2021.1.4,60.011820679107274,
P,left,Distractor,0,61,61,61,1051.3556398054352,1053.3568213213002,right,0,2,0.49090717191575095,H17N05,2022-11-03_09h13.00.421,t1_Paradigm,2021.1.4,60.011820679107274,
X,right,Target,0,62,62,62,1054.855779354577,1056.8560513951234,right,1,2,0.7836629365920089,H17N05,2022-11-03_09h13.00.421,t1_Paradigm,2021.1.4,60.011820679107274,
Q,left,Distractor,0,63,63,63,1058.35595643759,1060.3549805561197,left,1,2,1.188800974690821,H17N05,2022-11-03_09h13.00.421,t1_Paradigm,2021.1.4,60.011820679107274,
B,left,Pretarget,0,0,0,0,1240.099243162549,1242.0903928612242,None,0,2,,H17N05,2022-11-03_09h13.00.421,t1_Paradigm,2021.1.4,60.011820679107274,
F,left,Distractor,0,1,1,1,1243.5896081781248,1245.5917148886365,None,0,2,,H17N05,2022-11-03_09h13.00.421,t1_Paradigm,2021.1.4,60.011820679107274,
B,right,Target,0,2,2,2,1247.0894092805684,1249.0912741058855,right,1,2,0.38884672115091234,H17N05,2022-11-03_09h13.00.421,t1_Paradigm,2021.1.4,60.011820679107274,
V,left,Distractor,0,3,3,3,1250.5893605185556,1252.5907961100456,left,1,2,0.4574112130794674,H17N05,2022-11-03_09h13.00.421,t1_Paradigm,2021.1.4,60.011820679107274,
G,left,Pretarget,0,4,4,4,1254.0896569401375,1256.0914393192506,left,1,2,0.524705647607334,H17N05,2022-11-03_09h13.00.421,t1_Paradigm,2021.1.4,60.011820679107274,
B,left,Lure,0,5,5,5,1257.5895578121417,1259.5903604601626,left,1,2,0.5777330293785781,H17N05,2022-11-03_09h13.00.421,t1_Paradigm,2021.1.4,60.011820679107274,
G,right,Target,0,6,6,6,1261.0897137221764,1263.0892511248821,right,1,2,0.4708130612852983,H17N05,2022-11-03_09h13.00.421,t1_Paradigm,2021.1.4,60.011820679107274,
Y,left,Pretarget,0,7,7,7,1264.5895648698206,1266.5912628778024,left,1,2,0.40922377968672663,H17N05,2022-11-03_09h13.00.421,t1_Paradigm,2021.1.4,60.011820679107274,
P,left,Distractor,0,8,8,8,1268.0894958972349,1270.0908490425209,left,1,2,0.44543180346954614,H17N05,2022-11-03_09h13.00.421,t1_Paradigm,2021.1.4,60.011820679107274,
Y,right,Target,0,9,9,9,1271.5893191350042,1273.5914646626334,right,1,2,0.3526605119695887,H17N05,2022-11-03_09h13.00.421,t1_Paradigm,2021.1.4,60.011820679107274,
X,left,Distractor,0,10,10,10,1275.0897660130286,1277.0906588065554,left,1,2,0.8055323686567135,H17N05,2022-11-03_09h13.00.421,t1_Paradigm,2021.1.4,60.011820679107274,
Y,right,Target,0,11,11,11,1278.5895189950243,1280.5910899652517,right,1,2,0.4251513065537438,H17N05,2022-11-03_09h13.00.421,t1_Paradigm,2021.1.4,60.011820679107274,
N,left,Distractor,0,12,12,12,1282.0896425039973,1284.09071141819,left,1,2,0.47740619571413845,H17N05,2022-11-03_09h13.00.421,t1_Paradigm,2021.1.4,60.011820679107274,
Y,right,Target,0,13,13,13,1285.5894801779068,1287.590895558882,right,1,2,0.5454230776522309,H17N05,2022-11-03_09h13.00.421,t1_Paradigm,2021.1.4,60.011820679107274,
Y,left,Lure,0,14,14,14,1289.089469912229,1291.0898657825892,left,1,2,0.4382791893440299,H17N05,2022-11-03_09h13.00.421,t1_Paradigm,2021.1.4,60.011820679107274,
K,left,Distractor,0,15,15,15,1292.5895796267432,1294.5917071893928,left,1,2,0.9683759241597727,H17N05,2022-11-03_09h13.00.421,t1_Paradigm,2021.1.4,60.011820679107274,
T,left,Pretarget,0,16,16,16,1296.089451626467,1298.0917655754602,None,0,2,,H17N05,2022-11-03_09h13.00.421,t1_Paradigm,2021.1.4,60.011820679107274,
J,left,Distractor,0,17,17,17,1299.5895706442534,1301.5897326495615,left,1,2,0.866531694366131,H17N05,2022-11-03_09h13.00.421,t1_Paradigm,2021.1.4,60.011820679107274,
T,right,Target,0,18,18,18,1303.0895793059026,1305.091241063259,right,1,2,0.4209568129153922,H17N05,2022-11-03_09h13.00.421,t1_Paradigm,2021.1.4,60.011820679107274,
S,left,Pretarget,0,19,19,19,1306.589215194981,1308.5912497249083,left,1,2,0.473047130391933,H17N05,2022-11-03_09h13.00.421,t1_Paradigm,2021.1.4,60.011820679107274,
R,left,Distractor,0,20,20,20,1310.089435907139,1312.0910845116014,left,1,2,0.6051757645327598,H17N05,2022-11-03_09h13.00.421,t1_Paradigm,2021.1.4,60.011820679107274,
S,right,Target,0,21,21,21,1313.5897374615888,1315.590892992448,right,1,2,0.4013022017898038,H17N05,2022-11-03_09h13.00.421,t1_Paradigm,2021.1.4,60.011820679107274,
Q,left,Distractor,0,22,22,22,1317.089840118424,1319.0901554673328,left,1,2,0.48601397027960047,H17N05,2022-11-03_09h13.00.421,t1_Paradigm,2021.1.4,60.011820679107274,
D,left,Distractor,0,23,23,23,1320.5897185342037,1322.591490006016,left,1,2,0.5047735422267579,H17N05,2022-11-03_09h13.00.421,t1_Paradigm,2021.1.4,60.011820679107274,
F,left,Distractor,0,24,24,24,1324.0896861332003,1326.0902699938742,left,1,2,0.43008974130498245,H17N05,2022-11-03_09h13.00.421,t1_Paradigm,2021.1.4,60.011820679107274,
Z,left,Distractor,0,25,25,25,1327.5895087293466,1329.5914707578486,left,1,2,0.49715159396873787,H17N05,2022-11-03_09h13.00.421,t1_Paradigm,2021.1.4,60.011820679107274,
P,left,Distractor,0,26,26,26,1331.0897194966674,1333.0901458432782,left,1,2,0.8061149461427703,H17N05,2022-11-03_09h13.00.421,t1_Paradigm,2021.1.4,60.011820679107274,
H,left,Distractor,0,27,27,27,1334.5896309551317,1336.5905340143945,right,0,2,1.0820667513180524,H17N05,2022-11-03_09h13.00.421,t1_Paradigm,2021.1.4,60.011820679107274,
Z,left,Pretarget,0,28,28,28,1338.0896537321387,1340.0909449624596,left,1,2,0.8615743322297931,H17N05,2022-11-03_09h13.00.421,t1_Paradigm,2021.1.4,60.011820679107274,
J,left,Pretarget,0,29,29,29,1341.5896447496489,1343.591444131278,left,1,2,0.8327893590903841,H17N05,2022-11-03_09h13.00.421,t1_Paradigm,2021.1.4,60.011820679107274,
Z,right,Target,0,30,30,30,1345.089748689672,1347.090690565994,right,1,2,0.40562629961641505,H17N05,2022-11-03_09h13.00.421,t1_Paradigm,2021.1.4,60.011820679107274,
J,right,Target,0,31,31,31,1348.589801622089,1350.5905462048831,right,1,2,0.5857145973714069,H17N05,2022-11-03_09h13.00.421,t1_Paradigm,2021.1.4,60.011820679107274,
V,left,Pretarget,0,32,32,32,1352.0897984140902,1354.0915618658182,left,1,2,0.4289194535231218,H17N05,2022-11-03_09h13.00.421,t1_Paradigm,2021.1.4,60.011820679107274,
Z,left,Lure,0,33,33,33,1355.5889944828232,1357.6026350081665,left,1,2,0.4700550048146397,H17N05,2022-11-03_09h13.00.421,t1_Paradigm,2021.1.4,60.011820679107274,
V,right,Target,0,34,34,34,1359.0898840683512,1361.091203208547,right,1,2,0.5330699330661446,H17N05,2022-11-03_09h13.00.421,t1_Paradigm,2021.1.4,60.011820679107274,
X,left,Distractor,0,35,35,35,1362.5895751354983,1364.5899790259427,left,1,2,0.41052270925138146,H17N05,2022-11-03_09h13.00.421,t1_Paradigm,2021.1.4,60.011820679107274,
S,left,Distractor,0,36,36,36,1366.089693832444,1368.0914473392768,left,1,2,0.5409202927257866,H17N05,2022-11-03_09h13.00.421,t1_Paradigm,2021.1.4,60.011820679107274,
Q,left,Distractor,0,37,37,37,1369.5898234366905,1371.5916516905418,left,1,2,0.5128272908041254,H17N05,2022-11-03_09h13.00.421,t1_Paradigm,2021.1.4,60.011820679107274,
P,left,Distractor,0,38,38,38,1373.089731045533,1375.0913225471159,left,1,2,0.757018679054454,H17N05,2022-11-03_09h13.00.421,t1_Paradigm,2021.1.4,60.011820679107274,
S,left,Lure,0,39,39,39,1376.5894336615456,1378.590313623019,left,1,2,0.9699314957833849,H17N05,2022-11-03_09h13.00.421,t1_Paradigm,2021.1.4,60.011820679107274,
K,left,Pretarget,0,40,40,40,1380.0898507048842,1382.091020992666,left,1,2,0.7974574471008964,H17N05,2022-11-03_09h13.00.421,t1_Paradigm,2021.1.4,60.011820679107274,
L,left,Distractor,0,41,41,41,1383.5898516672896,1385.5912968828925,left,1,2,0.7529088773299009,H17N05,2022-11-03_09h13.00.421,t1_Paradigm,2021.1.4,60.011820679107274,
K,right,Target,0,42,42,42,1387.089621972642,1389.0921030597528,right,1,2,0.4202398191555403,H17N05,2022-11-03_09h13.00.421,t1_Paradigm,2021.1.4,60.011820679107274,
B,left,Distractor,0,43,43,43,1390.589765692188,1392.5906732426956,left,1,2,1.0176627479377203,H17N05,2022-11-03_09h13.00.421,t1_Paradigm,2021.1.4,60.011820679107274,
N,left,Distractor,0,44,44,44,1394.089821832662,1396.092137064843,left,1,2,0.7320502941147424,H17N05,2022-11-03_09h13.00.421,t1_Paradigm,2021.1.4,60.011820679107274,
S,left,Pretarget,0,45,45,45,1397.5896636769758,1399.5905571121257,left,1,2,0.8338018120266497,H17N05,2022-11-03_09h13.00.421,t1_Paradigm,2021.1.4,60.011820679107274,
Z,left,Distractor,0,46,46,46,1401.0897008900647,1403.091016501421,left,1,2,0.741421899641864,H17N05,2022-11-03_09h13.00.421,t1_Paradigm,2021.1.4,60.011820679107274,
S,right,Target,0,47,47,47,1404.5895164285903,1406.5918724026997,left,0,2,0.8725842764251865,H17N05,2022-11-03_09h13.00.421,t1_Paradigm,2021.1.4,60.011820679107274,
C,left,Distractor,0,48,48,48,1408.0898914468125,1410.090693132428,left,1,2,0.957782702462282,H17N05,2022-11-03_09h13.00.421,t1_Paradigm,2021.1.4,60.011820679107274,
T,left,Pretarget,0,49,49,49,1411.5900306751137,1413.5908978044754,left,1,2,0.8495160051970743,H17N05,2022-11-03_09h13.00.421,t1_Paradigm,2021.1.4,60.011820679107274,
S,left,Lure,0,50,50,50,1415.0898468552623,1417.0908782355255,left,1,2,0.7894694631686434,H17N05,2022-11-03_09h13.00.421,t1_Paradigm,2021.1.4,60.011820679107274,
T,right,Target,0,51,51,51,1418.589838193613,1420.5904810819193,None,0,2,,H17N05,2022-11-03_09h13.00.421,t1_Paradigm,2021.1.4,60.011820679107274,
N,left,Pretarget,0,52,52,52,1422.0898689906462,1424.090028108738,left,1,2,0.7826873759622686,H17N05,2022-11-03_09h13.00.421,t1_Paradigm,2021.1.4,60.011820679107274,
B,left,Distractor,0,53,53,53,1425.589857762563,1427.5913222262752,left,1,2,0.6730806863051839,H17N05,2022-11-03_09h13.00.421,t1_Paradigm,2021.1.4,60.011820679107274,
N,right,Target,0,54,54,54,1429.089620689454,1431.091659710568,right,1,2,0.5649775983765721,H17N05,2022-11-03_09h13.00.421,t1_Paradigm,2021.1.4,60.011820679107274,
N,left,Lure,0,55,55,55,1432.58978397795,1434.5900133518153,left,1,2,0.5543885470833629,H17N05,2022-11-03_09h13.00.421,t1_Paradigm,2021.1.4,60.011820679107274,
X,left,Distractor,0,56,56,56,1436.0898189454456,1438.091457925795,left,1,2,0.7169299065135419,H17N05,2022-11-03_09h13.00.421,t1_Paradigm,2021.1.4,60.011820679107274,
W,left,Distractor,0,57,57,57,1439.5898972212453,1441.5901150461868,left,1,2,0.594282592413947,H17N05,2022-11-03_09h13.00.421,t1_Paradigm,2021.1.4,60.011820679107274,
S,left,Distractor,0,58,58,58,1443.0897432360216,1445.0911602209671,left,1,2,0.5013207442243584,H17N05,2022-11-03_09h13.00.421,t1_Paradigm,2021.1.4,60.011820679107274,
L,left,Distractor,0,59,59,59,1446.59003356233,1448.5911602209671,left,1,2,0.6815736136049964,H17N05,2022-11-03_09h13.00.421,t1_Paradigm,2021.1.4,60.011820679107274,
K,left,Pretarget,0,60,60,60,1450.0900149557856,1452.0911977548967,left,1,2,0.6370208733715117,H17N05,2022-11-03_09h13.00.421,t1_Paradigm,2021.1.4,60.011820679107274,
V,left,Pretarget,0,61,61,61,1453.5899039581418,1455.5911570129683,left,1,2,0.5134570262162015,H17N05,2022-11-03_09h13.00.421,t1_Paradigm,2021.1.4,60.011820679107274,
K,right,Target,0,62,62,62,1457.0899677978014,1459.0911589377793,right,1,2,0.7733064671629108,H17N05,2022-11-03_09h13.00.421,t1_Paradigm,2021.1.4,60.011820679107274,
V,right,Target,0,63,63,63,1460.5895331103238,1462.5913655346376,right,1,2,1.241183543286752,H17N05,2022-11-03_09h13.00.421,t1_Paradigm,2021.1.4,60.011820679107274,
R,left,Distractor,0,0,0,0,1589.6805152859306,1591.6750590757583,None,0,3,,H17N05,2022-11-03_09h13.00.421,t1_Paradigm,2021.1.4,60.011820679107274,
P,left,Lure,0,1,1,1,1593.1735144113773,1595.1748877672362,None,0,3,,H17N05,2022-11-03_09h13.00.421,t1_Paradigm,2021.1.4,60.011820679107274,
V,left,Distractor,0,2,2,2,1596.6734063009499,1598.675240329234,None,0,3,,H17N05,2022-11-03_09h13.00.421,t1_Paradigm,2021.1.4,60.011820679107274,
P,left,Pretarget,0,3,3,3,1600.1734820103738,1602.1747273658984,left,1,3,0.8099706722423434,H17N05,2022-11-03_09h13.00.421,t1_Paradigm,2021.1.4,60.011820679107274,
Z,left,Distractor,0,4,4,4,1603.673547454062,1605.6749285091646,left,1,3,0.7337919312994927,H17N05,2022-11-03_09h13.00.421,t1_Paradigm,2021.1.4,60.011820679107274,
L,left,Pretarget,0,5,5,5,1607.17361674743,1609.1751277275616,left,1,3,0.7695662300102413,H17N05,2022-11-03_09h13.00.421,t1_Paradigm,2021.1.4,60.011820679107274,
P,right,Target,0,6,6,6,1610.6734508925001,1612.67534491088,right,1,3,0.485332585638389,H17N05,2022-11-03_09h13.00.421,t1_Paradigm,2021.1.4,60.011820679107274,
S,left,Distractor,0,7,7,7,1614.1732433332363,1616.175074474304,left,1,3,0.7779077384620905,H17N05,2022-11-03_09h13.00.421,t1_Paradigm,2021.1.4,60.011820679107274,
L,right,Target,0,8,8,8,1617.673653960519,1619.6752079281723,None,0,3,,H17N05,2022-11-03_09h13.00.421,t1_Paradigm,2021.1.4,60.011820679107274,
D,left,Distractor,0,9,9,9,1621.1735314139514,1623.1753407404176,left,1,3,0.6254203315475024,H17N05,2022-11-03_09h13.00.421,t1_Paradigm,2021.1.4,60.011820679107274,
G,left,Distractor,0,10,10,10,1624.6733196842251,1626.674455966975,left,1,3,0.4862741411780007,H17N05,2022-11-03_09h13.00.421,t1_Paradigm,2021.1.4,60.011820679107274,
M,left,Pretarget,0,11,11,11,1628.1735105617554,1630.175035336404,left,1,3,0.4260534033528529,H17N05,2022-11-03_09h13.00.421,t1_Paradigm,2021.1.4,60.011820679107274,
Y,left,Distractor,0,12,12,12,1631.6735496997135,1633.6752236475004,left,1,3,0.41367876500589773,H17N05,2022-11-03_09h13.00.421,t1_Paradigm,2021.1.4,60.011820679107274,
V,left,Distractor,0,13,13,13,1635.173452817311,1637.1749801583355,left,1,3,0.4177228022017516,H17N05,2022-11-03_09h13.00.421,t1_Paradigm,2021.1.4,60.011820679107274,
M,right,Target,0,14,14,14,1638.6736793039017,1640.675386615214,left,0,3,1.0615068353363313,H17N05,2022-11-03_09h13.00.421,t1_Paradigm,2021.1.4,60.011820679107274,
S,left,Pretarget,0,15,15,15,1642.173582100775,1644.17582290672,right,0,3,1.0169585862895474,H17N05,2022-11-03_09h13.00.421,t1_Paradigm,2021.1.4,60.011820679107274,
Q,left,Distractor,0,16,16,16,1645.6735734390677,1647.6749705342809,None,0,3,,H17N05,2022-11-03_09h13.00.421,t1_Paradigm,2021.1.4,60.011820679107274,
R,left,Pretarget,0,17,17,17,1649.1735644565779,1651.174858253391,None,0,3,,H17N05,2022-11-03_09h13.00.421,t1_Paradigm,2021.1.4,60.011820679107274,
S,right,Target,0,18,18,18,1652.6735615693615,1654.6743122473708,right,1,3,0.9344731876626611,H17N05,2022-11-03_09h13.00.421,t1_Paradigm,2021.1.4,60.011820679107274,
F,left,Distractor,0,19,19,19,1656.1735673438525,1658.1756153474562,left,1,3,0.6009581731632352,H17N05,2022-11-03_09h13.00.421,t1_Paradigm,2021.1.4,60.011820679107274,
R,right,Target,0,20,20,20,1659.6733049273025,1661.675581983989,right,1,3,0.5092102418420836,H17N05,2022-11-03_09h13.00.421,t1_Paradigm,2021.1.4,60.011820679107274,
P,left,Distractor,0,21,21,21,1663.1735766471247,1665.175563056604,left,1,3,0.4012447781278752,H17N05,2022-11-03_09h13.00.421,t1_Paradigm,2021.1.4,60.011820679107274,
L,left,Distractor,0,22,22,22,1666.6735914040473,1668.6739240763127,left,1,3,0.6790290076169185,H17N05,2022-11-03_09h13.00.421,t1_Paradigm,2021.1.4,60.011820679107274,
R,right,Target,0,23,23,23,1670.1735756847193,1672.1744450596743,left,0,3,0.9384251544834115,H17N05,2022-11-03_09h13.00.421,t1_Paradigm,2021.1.4,60.011820679107274,
H,left,Pretarget,0,24,24,24,1673.6736600557924,1675.675256690185,left,1,3,0.7015977892442606,H17N05,2022-11-03_09h13.00.421,t1_Paradigm,2021.1.4,60.011820679107274,
G,left,Pretarget,0,25,25,25,1677.1736443364643,1679.1746064233594,left,1,3,0.40231080510420725,H17N05,2022-11-03_09h13.00.421,t1_Paradigm,2021.1.4,60.011820679107274,
T,left,Distractor,0,26,26,26,1680.6737848479534,1682.675414845813,left,1,3,0.5493285281700082,H17N05,2022-11-03_09h13.00.421,t1_Paradigm,2021.1.4,60.011820679107274,
H,right,Target,0,27,27,27,1684.173635674757,1686.1754863848328,right,1,3,1.2414995338767767,H17N05,2022-11-03_09h13.00.421,t1_Paradigm,2021.1.4,60.011820679107274,
G,right,Target,0,28,28,28,1687.6736234842683,1689.6757359692128,None,0,3,,H17N05,2022-11-03_09h13.00.421,t1_Paradigm,2021.1.4,60.011820679107274,
D,left,Distractor,0,29,29,29,1691.1736491484917,1693.17563748284,left,1,3,0.9133204285171814,H17N05,2022-11-03_09h13.00.421,t1_Paradigm,2021.1.4,60.011820679107274,
N,left,Pretarget,0,30,30,30,1694.6734759151004,1696.673759825353,left,1,3,0.5351265983190387,H17N05,2022-11-03_09h13.00.421,t1_Paradigm,2021.1.4,60.011820679107274,
V,left,Distractor,0,31,31,31,1698.1737485972699,1700.1754081089748,left,1,3,1.0817603848408908,H17N05,2022-11-03_09h13.00.421,t1_Paradigm,2021.1.4,60.011820679107274,
R,left,Distractor,0,32,32,32,1701.6736770583084,1703.6746709047002,right,0,3,1.2146226944751106,H17N05,2022-11-03_09h13.00.421,t1_Paradigm,2021.1.4,60.011820679107274,
N,right,Target,0,33,33,33,1705.1736844367697,1707.1740787031013,left,0,3,1.2028027237392962,H17N05,2022-11-03_09h13.00.421,t1_Paradigm,2021.1.4,60.011820679107274,
Z,left,Distractor,0,34,34,34,1708.6737835647655,1710.6753911064588,left,1,3,0.7735945478780195,H17N05,2022-11-03_09h13.00.421,t1_Paradigm,2021.1.4,60.011820679107274,
N,left,Lure,0,35,35,35,1712.1737056097481,1714.1740017104894,left,1,3,0.8910236874362454,H17N05,2022-11-03_09h13.00.421,t1_Paradigm,2021.1.4,60.011820679107274,
Y,left,Pretarget,0,36,36,36,1715.6736780207139,1717.6755444500595,left,1,3,0.781490140769165,H17N05,2022-11-03_09h13.00.421,t1_Paradigm,2021.1.4,60.011820679107274,
Y,left,Lure,0,37,37,37,1719.1736145017785,1721.1737963968772,left,1,3,0.8190885228686966,H17N05,2022-11-03_09h13.00.421,t1_Paradigm,2021.1.4,60.011820679107274,
B,left,Distractor,0,38,38,38,1722.6738297603442,1724.6752319883672,left,1,3,0.6617839445825666,H17N05,2022-11-03_09h13.00.421,t1_Paradigm,2021.1.4,60.011820679107274,
Y,right,Target,0,39,39,39,1726.1737235746696,1728.1754892720492,left,0,3,0.8575264453538693,H17N05,2022-11-03_09h13.00.421,t1_Paradigm,2021.1.4,60.011820679107274,
J,left,Distractor,0,40,40,40,1729.6738429132383,1731.6752220434719,left,1,3,1.0697007746202871,H17N05,2022-11-03_09h13.00.421,t1_Paradigm,2021.1.4,60.011820679107274,
X,left,Distractor,0,41,41,41,1733.1735400756006,1735.1734354939545,left,1,3,0.8997431013267487,H17N05,2022-11-03_09h13.00.421,t1_Paradigm,2021.1.4,60.011820679107274,
W,left,Pretarget,0,42,42,42,1736.673711384181,1738.6755415628431,left,1,3,1.1093506891629659,H17N05,2022-11-03_09h13.00.421,t1_Paradigm,2021.1.4,60.011820679107274,
S,left,Pretarget,0,43,43,43,1740.1735134489718,1742.1746737919166,left,1,3,0.77878385031363,H17N05,2022-11-03_09h13.00.421,t1_Paradigm,2021.1.4,60.011820679107274,
R,left,Distractor,0,44,44,44,1743.6737639958155,1745.6756496733287,right,0,3,0.925543648074381,H17N05,2022-11-03_09h13.00.421,t1_Paradigm,2021.1.4,60.011820679107274,
W,right,Target,0,45,45,45,1747.1734958048328,1749.175182905572,left,0,3,0.4496513196500018,H17N05,2022-11-03_09h13.00.421,t1_Paradigm,2021.1.4,60.011820679107274,
S,right,Target,0,46,46,46,1750.6738589533488,1752.675764199812,left,0,3,1.0133636727114208,H17N05,2022-11-03_09h13.00.421,t1_Paradigm,2021.1.4,60.011820679107274,
D,left,Distractor,0,47,47,47,1754.173797038442,1756.174532959587,left,1,3,0.906527113285847,H17N05,2022-11-03_09h13.00.421,t1_Paradigm,2021.1.4,60.011820679107274,
T,left,Distractor,0,48,48,48,1757.6737463516765,1759.6743385532172,right,0,3,1.198834075126797,H17N05,2022-11-03_09h13.00.421,t1_Paradigm,2021.1.4,60.011820679107274,
S,right,Target,0,49,49,49,1761.1737954344717,1763.174510824203,right,1,3,0.3864477595197968,H17N05,2022-11-03_09h13.00.421,t1_Paradigm,2021.1.4,60.011820679107274,
K,left,Distractor,0,50,50,50,1764.6735577197396,1766.6758729519206,left,1,3,0.3890456187655218,H17N05,2022-11-03_09h13.00.421,t1_Paradigm,2021.1.4,60.011820679107274,
S,left,Lure,0,51,51,51,1768.173744106025,1770.174400468124,left,1,3,1.0025853479164653,H17N05,2022-11-03_09h13.00.421,t1_Paradigm,2021.1.4,60.011820679107274,
T,left,Pretarget,0,52,52,52,1771.6738820511382,1773.6755229562987,right,0,3,1.0694925737334415,H17N05,2022-11-03_09h13.00.421,t1_Paradigm,2021.1.4,60.011820679107274,
V,left,Distractor,0,53,53,53,1775.1736860407982,1777.1744457012974,left,1,3,0.7545488200848922,H17N05,2022-11-03_09h13.00.421,t1_Paradigm,2021.1.4,60.011820679107274,
B,left,Distractor,0,54,54,54,1778.6736013488844,1780.6751832263544,left,1,3,0.4698073451872915,H17N05,2022-11-03_09h13.00.421,t1_Paradigm,2021.1.4,60.011820679107274,
T,right,Target,0,55,55,55,1782.173923755472,1784.175034694781,right,1,3,0.8420698566478677,H17N05,2022-11-03_09h13.00.421,t1_Paradigm,2021.1.4,60.011820679107274,
Y,left,Pretarget,0,56,56,56,1785.673742822837,1787.6755778135266,left,1,3,0.5735587463714182,H17N05,2022-11-03_09h13.00.421,t1_Paradigm,2021.1.4,60.011820679107274,
T,left,Lure,0,57,57,57,1789.1737963968772,1791.1759730423219,left,1,3,1.2170364130288363,H17N05,2022-11-03_09h13.00.421,t1_Paradigm,2021.1.4,60.011820679107274,
P,left,Pretarget,0,58,58,58,1792.6738082665834,1794.6755213522702,left,1,3,0.917405849264469,H17N05,2022-11-03_09h13.00.421,t1_Paradigm,2021.1.4,60.011820679107274,
Y,right,Target,0,59,59,59,1796.173731594754,1798.1755941744777,left,0,3,0.7296343299676664,H17N05,2022-11-03_09h13.00.421,t1_Paradigm,2021.1.4,60.011820679107274,
R,left,Distractor,0,60,60,60,1799.6734804063453,1801.674983687175,left,1,3,0.43024789699120447,H17N05,2022-11-03_09h13.00.421,t1_Paradigm,2021.1.4,60.011820679107274,
P,right,Target,0,61,61,61,1803.1737765070866,1805.175631708349,left,0,3,0.4493173642549664,H17N05,2022-11-03_09h13.00.421,t1_Paradigm,2021.1.4,60.011820679107274,
L,left,Distractor,0,62,62,62,1806.6738364971825,1808.6748415716575,left,1,3,0.4382791893440299,H17N05,2022-11-03_09h13.00.421,t1_Paradigm,2021.1.4,60.011820679107274,
V,left,Distractor,0,63,63,63,1810.1739369083662,1812.1746827743482,right,0,3,0.7785515892319381,H17N05,2022-11-03_09h13.00.421,t1_Paradigm,2021.1.4,60.011820679107274,
H,left,Lure,0,0,0,0,1822.5844397279434,1824.5757116524037,None,0,3,,H17N05,2022-11-03_09h13.00.421,t1_Paradigm,2021.1.4,60.011820679107274,
B,left,Distractor,0,1,1,1,1826.0738474686514,1828.07458723936,None,0,3,,H17N05,2022-11-03_09h13.00.421,t1_Paradigm,2021.1.4,60.011820679107274,
T,left,Distractor,0,2,2,2,1829.5739841305185,1831.5744387077866,None,0,3,,H17N05,2022-11-03_09h13.00.421,t1_Paradigm,2021.1.4,60.011820679107274,
R,left,Distractor,0,3,3,3,1833.0737348669209,1835.0751233004848,left,1,3,0.6140661661629565,H17N05,2022-11-03_09h13.00.421,t1_Paradigm,2021.1.4,60.011820679107274,
H,left,Pretarget,0,4,4,4,1836.5730082491064,1838.5754912610282,left,1,3,0.8577166812610812,H17N05,2022-11-03_09h13.00.421,t1_Paradigm,2021.1.4,60.011820679107274,
K,left,Distractor,0,5,5,5,1840.0738660751958,1842.0756144492188,right,0,3,1.229715493042022,H17N05,2022-11-03_09h13.00.421,t1_Paradigm,2021.1.4,60.011820679107274,
G,left,Distractor,0,6,6,6,1843.5738837193348,1845.5746077707154,left,1,3,0.8827389610232785,H17N05,2022-11-03_09h13.00.421,t1_Paradigm,2021.1.4,60.011820679107274,
H,right,Target,0,7,7,7,1847.0730486702523,1849.0743354093283,left,0,3,0.8707842532312497,H17N05,2022-11-03_09h13.00.421,t1_Paradigm,2021.1.4,60.011820679107274,
Y,left,Pretarget,0,8,8,8,1850.5740559903206,1852.5740101155243,left,1,3,0.8592055260087363,H17N05,2022-11-03_09h13.00.421,t1_Paradigm,2021.1.4,60.011820679107274,
S,left,Distractor,0,9,9,9,1854.0739183659898,1856.0756795721245,left,1,3,0.8616583825205453,H17N05,2022-11-03_09h13.00.421,t1_Paradigm,2021.1.4,60.011820679107274,
P,left,Distractor,0,10,10,10,1857.5731442694087,1859.5745439309976,left,1,3,0.4825877988478169,H17N05,2022-11-03_09h13.00.421,t1_Paradigm,2021.1.4,60.011820679107274,
Y,right,Target,0,11,11,11,1861.0736716688261,1863.075933326967,right,1,3,0.38924291235161945,H17N05,2022-11-03_09h13.00.421,t1_Paradigm,2021.1.4,60.011820679107274,
H,left,Lure,0,12,12,12,1864.573954937514,1866.5762499590637,left,1,3,0.6811626654816791,H17N05,2022-11-03_09h13.00.421,t1_Paradigm,2021.1.4,60.011820679107274,
Q,left,Distractor,0,13,13,13,1868.07402551407,1870.0757045947248,left,1,3,0.6692326594493352,H17N05,2022-11-03_09h13.00.421,t1_Paradigm,2021.1.4,60.011820679107274,
V,left,Pretarget,0,14,14,14,1871.57396295754,1873.5745429685921,left,1,3,0.9147271477850154,H17N05,2022-11-03_09h13.00.421,t1_Paradigm,2021.1.4,60.011820679107274,
G,left,Distractor,0,15,15,15,1875.0737371125724,1877.0751592303277,left,1,3,0.9659984562895261,H17N05,2022-11-03_09h13.00.421,t1_Paradigm,2021.1.4,60.011820679107274,
Z,left,Pretarget,0,16,16,16,1878.5737765712547,1880.5748682623962,left,1,3,0.45840538025368005,H17N05,2022-11-03_09h13.00.421,t1_Paradigm,2021.1.4,60.011820679107274,
V,right,Target,0,17,17,17,1882.0739652031916,1884.0760943698697,left,0,3,1.3732172198942862,H17N05,2022-11-03_09h13.00.421,t1_Paradigm,2021.1.4,60.011820679107274,
N,left,Distractor,0,18,18,18,1885.573838806944,1887.5742269780603,left,1,3,0.8349788366467692,H17N05,2022-11-03_09h13.00.421,t1_Paradigm,2021.1.4,60.011820679107274,
Z,right,Target,0,19,19,19,1889.0739446718362,1891.074149023043,left,0,3,1.0471826797584072,H17N05,2022-11-03_09h13.00.421,t1_Paradigm,2021.1.4,60.011820679107274,
R,left,Distractor,0,20,20,20,1892.573663007177,1894.575147039839,right,0,3,0.842194328084588,H17N05,2022-11-03_09h13.00.421,t1_Paradigm,2021.1.4,60.011820679107274,
P,left,Distractor,0,21,21,21,1896.0740011330927,1898.0747078611166,left,1,3,0.7665057734702714,H17N05,2022-11-03_09h13.00.421,t1_Paradigm,2021.1.4,60.011820679107274,
Z,right,Target,0,22,22,22,1899.5741028274642,1901.575423250848,right,1,3,0.7218372235074639,H17N05,2022-11-03_09h13.00.421,t1_Paradigm,2021.1.4,60.011820679107274,
D,left,Pretarget,0,23,23,23,1903.074018456391,1905.0868367647636,left,1,3,0.49036854441510513,H17N05,2022-11-03_09h13.00.421,t1_Paradigm,2021.1.4,60.011820679107274,
K,left,Distractor,0,24,24,24,1906.5739129123394,1908.574726467661,left,1,3,0.5865781978936866,H17N05,2022-11-03_09h13.00.421,t1_Paradigm,2021.1.4,60.011820679107274,
W,left,Distractor,0,25,25,25,1910.0739385765628,1912.075062668766,left,1,3,0.7985112835885957,H17N05,2022-11-03_09h13.00.421,t1_Paradigm,2021.1.4,60.011820679107274,
D,right,Target,0,26,26,26,1913.5740736344596,1915.575133245322,right,1,3,0.7381452221889049,H17N05,2022-11-03_09h13.00.421,t1_Paradigm,2021.1.4,60.011820679107274,
G,left,Pretarget,0,27,27,27,1917.090822415892,1919.0756920833956,left,1,3,0.9335528050432913,H17N05,2022-11-03_09h13.00.421,t1_Paradigm,2021.1.4,60.011820679107274,
V,left,Distractor,0,28,28,28,1920.573964882351,1922.5756737976917,left,1,3,0.7136615699855611,H17N05,2022-11-03_09h13.00.421,t1_Paradigm,2021.1.4,60.011820679107274,
D,right,Target,0,29,29,29,1924.0737954986398,1926.0741910481593,right,1,3,0.3831412474391982,H17N05,2022-11-03_09h13.00.421,t1_Paradigm,2021.1.4,60.011820679107274,
G,right,Target,0,30,30,30,1927.573189502582,1929.5752824185183,left,0,3,0.3700005325372331,H17N05,2022-11-03_09h13.00.421,t1_Paradigm,2021.1.4,60.011820679107274,
B,left,Pretarget,0,31,31,31,1931.0739584662952,1933.0756330557633,left,1,3,1.1577662131749094,H17N05,2022-11-03_09h13.00.421,t1_Paradigm,2021.1.4,60.011820679107274,
N,left,Distractor,0,32,32,32,1934.5740662559983,1936.575273115246,left,1,3,0.9700152252917178,H17N05,2022-11-03_09h13.00.421,t1_Paradigm,2021.1.4,60.011820679107274,
F,left,Distractor,0,33,33,33,1938.0740165315801,1940.075438970176,left,1,3,0.526153750368394,H17N05,2022-11-03_09h13.00.421,t1_Paradigm,2021.1.4,60.011820679107274,
B,right,Target,0,34,34,34,1941.5738811529009,1943.5761726456694,left,0,3,0.7691485450486653,H17N05,2022-11-03_09h13.00.421,t1_Paradigm,2021.1.4,60.011820679107274,
Q,left,Pretarget,0,35,35,35,1945.0737274884596,1947.0757078027236,right,0,3,1.0779332101810724,H17N05,2022-11-03_09h13.00.421,t1_Paradigm,2021.1.4,60.011820679107274,
S,left,Pretarget,0,36,36,36,1948.5737768920953,1950.5754729752662,left,1,3,0.8579720401321538,H17N05,2022-11-03_09h13.00.421,t1_Paradigm,2021.1.4,60.011820679107274,
W,left,Distractor,0,37,37,37,1952.0740871081362,1954.0731208508369,left,1,3,0.816388969309628,H17N05,2022-11-03_09h13.00.421,t1_Paradigm,2021.1.4,60.011820679107274,
Q,right,Target,0,38,38,38,1955.5740611231304,1957.5732603999204,right,1,3,0.4520688878837973,H17N05,2022-11-03_09h13.00.421,t1_Paradigm,2021.1.4,60.011820679107274,
S,right,Target,0,39,39,39,1959.0741291333106,1961.075621186057,right,1,3,0.7257073856890202,H17N05,2022-11-03_09h13.00.421,t1_Paradigm,2021.1.4,60.011820679107274,
T,left,Distractor,0,40,40,40,1962.5740540655097,1964.5753606943763,left,1,3,0.4579071738407947,H17N05,2022-11-03_09h13.00.421,t1_Paradigm,2021.1.4,60.011820679107274,
G,left,Distractor,0,41,41,41,1966.07384009019,1968.0757931362023,left,1,3,0.6375248541589826,H17N05,2022-11-03_09h13.00.421,t1_Paradigm,2021.1.4,60.011820679107274,
D,left,Distractor,0,42,42,42,1969.574043158209,1971.5747794000781,left,1,3,0.48278316762298346,H17N05,2022-11-03_09h13.00.421,t1_Paradigm,2021.1.4,60.011820679107274,
S,left,Lure,0,43,43,43,1973.0733056330937,1975.0758123843698,left,1,3,0.549548598646652,H17N05,2022-11-03_09h13.00.421,t1_Paradigm,2021.1.4,60.011820679107274,
Z,left,Pretarget,0,44,44,44,1976.5742282613064,1978.5742728528567,left,1,3,0.587190289166756,H17N05,2022-11-03_09h13.00.421,t1_Paradigm,2021.1.4,60.011820679107274,
J,left,Distractor,0,45,45,45,1980.0741304164985,1982.0758672415977,left,1,3,0.4456220394349657,H17N05,2022-11-03_09h13.00.421,t1_Paradigm,2021.1.4,60.011820679107274,
M,left,Pretarget,0,46,46,46,1983.5739956794423,1985.575608033163,left,1,3,0.8497546822763979,H17N05,2022-11-03_09h13.00.421,t1_Paradigm,2021.1.4,60.011820679107274,
Z,right,Target,0,47,47,47,1987.0738150675897,1989.075819762831,left,0,3,0.48549394932342693,H17N05,2022-11-03_09h13.00.421,t1_Paradigm,2021.1.4,60.011820679107274,
P,left,Distractor,0,48,48,48,1990.574111809954,1992.5760080739274,left,1,3,0.4257447912823409,H17N05,2022-11-03_09h13.00.421,t1_Paradigm,2021.1.4,60.011820679107274,
M,right,Target,0,49,49,49,1994.0741644215886,1996.0758325949428,right,1,3,0.5416623090859503,H17N05,2022-11-03_09h13.00.421,t1_Paradigm,2021.1.4,60.011820679107274,
K,left,Distractor,0,50,50,50,1997.5740543862921,1999.5758130259928,left,1,3,0.497957770829089,H17N05,2022-11-03_09h13.00.421,t1_Paradigm,2021.1.4,60.011820679107274,
Y,left,Distractor,0,51,51,51,2001.074113093142,2003.0742632287438,left,1,3,0.5190248756553046,H17N05,2022-11-03_09h13.00.421,t1_Paradigm,2021.1.4,60.011820679107274,
X,left,Distractor,0,52,52,52,2004.5741153387935,2006.5747136355494,left,1,3,0.6346401975024492,H17N05,2022-11-03_09h13.00.421,t1_Paradigm,2021.1.4,60.011820679107274,
F,left,Pretarget,0,53,53,53,2008.0739029675024,2010.0757475822465,left,1,3,0.7655966189922765,H17N05,2022-11-03_09h13.00.421,t1_Paradigm,2021.1.4,60.011820679107274,
M,left,Lure,0,54,54,54,2011.5738866065512,2013.5751932354178,left,1,3,1.0101918976870365,H17N05,2022-11-03_09h13.00.421,t1_Paradigm,2021.1.4,60.011820679107274,
V,left,Distractor,0,55,55,55,2015.0742006722721,2017.0905532625038,left,1,3,0.8389099513296969,H17N05,2022-11-03_09h13.00.421,t1_Paradigm,2021.1.4,60.011820679107274,
F,right,Target,0,56,56,56,2018.5742029178655,2020.575930760533,right,1,3,1.1616010871366598,H17N05,2022-11-03_09h13.00.421,t1_Paradigm,2021.1.4,60.011820679107274,
S,left,Distractor,0,57,57,57,2022.0741384365829,2024.0750200020266,left,1,3,1.0543766773771495,H17N05,2022-11-03_09h13.00.421,t1_Paradigm,2021.1.4,60.011820679107274,
D,left,Distractor,0,58,58,58,2025.5742914594011,2027.5758239332936,right,0,3,1.3297892134869471,H17N05,2022-11-03_09h13.00.421,t1_Paradigm,2021.1.4,60.011820679107274,
F,right,Target,0,59,59,59,2029.0741788576706,2031.0751961226342,right,1,3,0.7742274913471192,H17N05,2022-11-03_09h13.00.421,t1_Paradigm,2021.1.4,60.011820679107274,
V,left,Pretarget,0,60,60,60,2032.573910025123,2034.5750337965437,left,1,3,0.6344374502077699,H17N05,2022-11-03_09h13.00.421,t1_Paradigm,2021.1.4,60.011820679107274,
J,left,Distractor,0,61,61,61,2036.0741804616991,2038.0743315597065,left,1,3,0.8313091760501266,H17N05,2022-11-03_09h13.00.421,t1_Paradigm,2021.1.4,60.011820679107274,
V,left,Lure,0,62,62,62,2039.5740524614812,2041.5758075723425,right,0,3,0.8015797602129169,H17N05,2022-11-03_09h13.00.421,t1_Paradigm,2021.1.4,60.011820679107274,
V,right,Target,0,63,63,63,2043.073949804646,2045.074007869931,left,0,3,1.3674543225206435,H17N05,2022-11-03_09h13.00.421,t1_Paradigm,2021.1.4,60.011820679107274,
R,left,Distractor,0,0,0,0,2177.290086366469,2179.2923400045256,None,0,4,,H17N05,2022-11-03_09h13.00.421,t1_Paradigm,2021.1.4,60.011820679107274,
F,left,Distractor,0,1,1,1,2180.791075079993,2182.792943754932,None,0,4,,H17N05,2022-11-03_09h13.00.421,t1_Paradigm,2021.1.4,60.011820679107274,
P,left,Pretarget,0,2,2,2,2184.291079250397,2186.292057377461,None,0,4,,H17N05,2022-11-03_09h13.00.421,t1_Paradigm,2021.1.4,60.011820679107274,
H,left,Distractor,0,3,3,3,2187.7909586286405,2189.7914151307195,None,0,4,,H17N05,2022-11-03_09h13.00.421,t1_Paradigm,2021.1.4,60.011820679107274,
Z,left,Distractor,0,4,4,4,2191.2910481325816,2193.2917214971385,left,1,4,0.414195898687467,H17N05,2022-11-03_09h13.00.421,t1_Paradigm,2021.1.4,60.011820679107274,
T,left,Distractor,0,5,5,5,2194.7909547790186,2196.791977176792,left,1,4,1.0898048300878145,H17N05,2022-11-03_09h13.00.421,t1_Paradigm,2021.1.4,60.011820679107274,
P,right,Target,0,6,6,6,2198.291229385999,2200.2918286452186,right,1,4,0.6620341706438921,H17N05,2022-11-03_09h13.00.421,t1_Paradigm,2021.1.4,60.011820679107274,
G,left,Distractor,0,7,7,7,2201.7911312204087,2203.792634822079,left,1,4,0.8093685258063488,H17N05,2022-11-03_09h13.00.421,t1_Paradigm,2021.1.4,60.011820679107274,
L,left,Distractor,0,8,8,8,2205.291274940013,2207.2912544085993,left,1,4,0.6705938248196617,H17N05,2022-11-03_09h13.00.421,t1_Paradigm,2021.1.4,60.011820679107274,
P,left,Lure,0,9,9,9,2208.7911623382824,2210.792465117527,left,1,4,1.1853144923807122,H17N05,2022-11-03_09h13.00.421,t1_Paradigm,2021.1.4,60.011820679107274,
Q,left,Pretarget,0,10,10,10,2212.2910959321307,2214.2931294996524,left,1,4,0.7567857763497159,H17N05,2022-11-03_09h13.00.421,t1_Paradigm,2021.1.4,60.011820679107274,
D,left,Distractor,0,11,11,11,2215.790838006884,2217.793069830397,left,1,4,1.1288481070660055,H17N05,2022-11-03_09h13.00.421,t1_Paradigm,2021.1.4,60.011820679107274,
M,left,Pretarget,0,12,12,12,2219.2909878217033,2221.292433678871,left,1,4,0.941394503111951,H17N05,2022-11-03_09h13.00.421,t1_Paradigm,2021.1.4,60.011820679107274,
C,left,Distractor,0,13,13,13,2222.7911957017495,2224.7922662199126,right,0,4,1.409815981227439,H17N05,2022-11-03_09h13.00.421,t1_Paradigm,2021.1.4,60.011820679107274,
Q,right,Target,0,14,14,14,2226.291038508469,2228.29259760899,right,1,4,0.46906083764042705,H17N05,2022-11-03_09h13.00.421,t1_Paradigm,2021.1.4,60.011820679107274,
R,left,Distractor,0,15,15,15,2229.790921094769,2231.7913150403183,left,1,4,0.6985992476693355,H17N05,2022-11-03_09h13.00.421,t1_Paradigm,2021.1.4,60.011820679107274,
M,right,Target,0,16,16,16,2233.290873295162,2235.2920788712217,left,0,4,0.9898190096137114,H17N05,2022-11-03_09h13.00.421,t1_Paradigm,2021.1.4,60.011820679107274,
S,left,Distractor,0,17,17,17,2236.7911552806036,2238.792632897268,left,1,4,1.0092278859228827,H17N05,2022-11-03_09h13.00.421,t1_Paradigm,2021.1.4,60.011820679107274,
Z,left,Distractor,0,18,18,18,2240.2902766023763,2242.292772767192,left,1,4,1.333057870855555,H17N05,2022-11-03_09h13.00.421,t1_Paradigm,2021.1.4,60.011820679107274,
L,left,Pretarget,0,19,19,19,2243.7911761327996,2245.7922999042203,right,0,4,1.1618513131397776,H17N05,2022-11-03_09h13.00.421,t1_Paradigm,2021.1.4,60.011820679107274,
M,right,Target,0,20,20,20,2247.290929435636,2249.292391332914,right,1,4,0.4456916535855271,H17N05,2022-11-03_09h13.00.421,t1_Paradigm,2021.1.4,60.011820679107274,
P,left,Distractor,0,21,21,21,2250.7912447845447,2252.7926207067794,left,1,4,0.609510448819492,H17N05,2022-11-03_09h13.00.421,t1_Paradigm,2021.1.4,60.011820679107274,
F,left,Distractor,0,22,22,22,2254.2912595414673,2256.292018881126,left,1,4,0.7419730384717695,H17N05,2022-11-03_09h13.00.421,t1_Paradigm,2021.1.4,60.011820679107274,
L,right,Target,0,23,23,23,2257.791243180516,2259.7923849168583,right,1,4,0.39342008263338357,H17N05,2022-11-03_09h13.00.421,t1_Paradigm,2021.1.4,60.011820679107274,
L,left,Lure,0,24,24,24,2261.291041395685,2263.2914099978516,left,1,4,0.39864146523177624,H17N05,2022-11-03_09h13.00.421,t1_Paradigm,2021.1.4,60.011820679107274,
V,left,Pretarget,0,25,25,25,2264.791387220903,2266.7918944097473,left,1,4,0.5622895936248824,H17N05,2022-11-03_09h13.00.421,t1_Paradigm,2021.1.4,60.011820679107274,
Z,left,Distractor,0,26,26,26,2268.290945154964,2270.293076888018,left,1,4,1.2048853739979677,H17N05,2022-11-03_09h13.00.421,t1_Paradigm,2021.1.4,60.011820679107274,
H,left,Distractor,0,27,27,27,2271.7910766840214,2273.7936299516587,left,1,4,1.400247723737266,H17N05,2022-11-03_09h13.00.421,t1_Paradigm,2021.1.4,60.011820679107274,
X,left,Distractor,0,28,28,28,2275.2912402933,2277.292166450352,left,1,4,0.62180360336788,H17N05,2022-11-03_09h13.00.421,t1_Paradigm,2021.1.4,60.011820679107274,
V,right,Target,0,29,29,29,2278.7912505589775,2280.792405448272,right,1,4,0.3534493654733524,H17N05,2022-11-03_09h13.00.421,t1_Paradigm,2021.1.4,60.011820679107274,
C,left,Distractor,0,30,30,30,2282.291141165304,2284.2930733591784,left,1,4,0.46862967900233343,H17N05,2022-11-03_09h13.00.421,t1_Paradigm,2021.1.4,60.011820679107274,
S,left,Pretarget,0,31,31,31,2285.791300604178,2287.7920820792788,left,1,4,0.7139955254388042,H17N05,2022-11-03_09h13.00.421,t1_Paradigm,2021.1.4,60.011820679107274,
D,left,Distractor,0,32,32,32,2289.29100674903,2291.293376196816,left,1,4,0.9406569779966958,H17N05,2022-11-03_09h13.00.421,t1_Paradigm,2021.1.4,60.011820679107274,
V,left,Distractor,0,33,33,33,2292.791024393169,2294.7920747008175,right,0,4,0.5619691118481569,H17N05,2022-11-03_09h13.00.421,t1_Paradigm,2021.1.4,60.011820679107274,
R,left,Distractor,0,34,34,34,2296.291243822139,2298.2922562750755,left,1,4,1.2376922489493154,H17N05,2022-11-03_09h13.00.421,t1_Paradigm,2021.1.4,60.011820679107274,
S,right,Target,0,35,35,35,2299.7913060578285,2301.793251404597,right,1,4,0.4088914282619953,H17N05,2022-11-03_09h13.00.421,t1_Paradigm,2021.1.4,60.011820679107274,
Y,left,Distractor,0,36,36,36,2303.2912284235936,2305.292977760022,left,1,4,0.6049896990298294,H17N05,2022-11-03_09h13.00.421,t1_Paradigm,2021.1.4,60.011820679107274,
N,left,Pretarget,0,37,37,37,2306.79100674903,2308.790785074467,left,1,4,0.6114397555356845,H17N05,2022-11-03_09h13.00.421,t1_Paradigm,2021.1.4,60.011820679107274,
Z,left,Pretarget,0,38,38,38,2310.2910956113483,2312.292828266043,left,1,4,0.43701843527378514,H17N05,2022-11-03_09h13.00.421,t1_Paradigm,2021.1.4,60.011820679107274,
P,left,Pretarget,0,39,39,39,2313.7912896968774,2315.7933980114176,left,1,4,1.0647100490168668,H17N05,2022-11-03_09h13.00.421,t1_Paradigm,2021.1.4,60.011820679107274,
M,left,Distractor,0,40,40,40,2317.291287451284,2319.292668185546,left,1,4,0.9734170157462358,H17N05,2022-11-03_09h13.00.421,t1_Paradigm,2021.1.4,60.011820679107274,
N,right,Target,0,41,41,41,2320.791355461406,2322.7930778504233,right,1,4,0.4009185219183564,H17N05,2022-11-03_09h13.00.421,t1_Paradigm,2021.1.4,60.011820679107274,
Z,right,Target,0,42,42,42,2324.291383371281,2326.291876444826,right,1,4,0.39017323980806395,H17N05,2022-11-03_09h13.00.421,t1_Paradigm,2021.1.4,60.011820679107274,
P,right,Target,0,43,43,43,2327.791424754774,2329.792289959325,right,1,4,0.4099452646332793,H17N05,2022-11-03_09h13.00.421,t1_Paradigm,2021.1.4,60.011820679107274,
X,left,Pretarget,0,44,44,44,2331.290993596136,2333.293142331764,left,1,4,0.44496214849641547,H17N05,2022-11-03_09h13.00.421,t1_Paradigm,2021.1.4,60.011820679107274,
Z,left,Lure,0,45,45,45,2334.7913179275347,2336.7921042146045,left,1,4,0.4338469810318202,H17N05,2022-11-03_09h13.00.421,t1_Paradigm,2021.1.4,60.011820679107274,
R,left,Pretarget,0,46,46,46,2338.2914536269964,2340.2913346092682,left,1,4,0.9026450813980773,H17N05,2022-11-03_09h13.00.421,t1_Paradigm,2021.1.4,60.011820679107274,
K,left,Distractor,0,47,47,47,2341.7904270588188,2343.7919989913935,left,1,4,0.6020136136212386,H17N05,2022-11-03_09h13.00.421,t1_Paradigm,2021.1.4,60.011820679107274,
X,right,Target,0,48,48,48,2345.2913160027238,2347.292156826239,right,1,4,0.42997232754714787,H17N05,2022-11-03_09h13.00.421,t1_Paradigm,2021.1.4,60.011820679107274,
B,left,Distractor,0,49,49,49,2348.7911302580032,2350.8099742010236,left,1,4,0.40003086120123044,H17N05,2022-11-03_09h13.00.421,t1_Paradigm,2021.1.4,60.011820679107274,
R,right,Target,0,50,50,50,2352.2911681127152,2354.2929302812554,right,1,4,0.7891842696699314,H17N05,2022-11-03_09h13.00.421,t1_Paradigm,2021.1.4,60.011820679107274,
Y,left,Pretarget,0,51,51,51,2355.7912165539456,2357.792015673127,left,1,4,0.6661831102683209,H17N05,2022-11-03_09h13.00.421,t1_Paradigm,2021.1.4,60.011820679107274,
W,left,Pretarget,0,52,52,52,2359.291225857218,2361.2910853456706,left,1,4,0.5909934036317281,H17N05,2022-11-03_09h13.00.421,t1_Paradigm,2021.1.4,60.011820679107274,
Z,left,Distractor,0,53,53,53,2362.7912094962667,2364.792311453086,left,1,4,0.9298972598044202,H17N05,2022-11-03_09h13.00.421,t1_Paradigm,2021.1.4,60.011820679107274,
Q,left,Distractor,0,54,54,54,2366.2912021178054,2368.2929880256997,left,1,4,0.9330157815711573,H17N05,2022-11-03_09h13.00.421,t1_Paradigm,2021.1.4,60.011820679107274,
Y,right,Target,0,55,55,55,2369.7911924937507,2371.7932058506412,left,0,4,1.2409772672690451,H17N05,2022-11-03_09h13.00.421,t1_Paradigm,2021.1.4,60.011820679107274,
W,right,Target,0,56,56,56,2373.2914144890965,2375.30421130365,right,1,4,0.3860133928828873,H17N05,2022-11-03_09h13.00.421,t1_Paradigm,2021.1.4,60.011820679107274,
H,left,Pretarget,0,57,57,57,2376.7912839224446,2378.7919617783045,left,1,4,0.38615262118401006,H17N05,2022-11-03_09h13.00.421,t1_Paradigm,2021.1.4,60.011820679107274,
M,left,Distractor,0,58,58,58,2380.291427962831,2382.2922719944036,left,1,4,0.45377395348623395,H17N05,2022-11-03_09h13.00.421,t1_Paradigm,2021.1.4,60.011820679107274,
R,left,Pretarget,0,59,59,59,2383.791184794449,2385.7928645167267,left,1,4,0.5851727618137375,H17N05,2022-11-03_09h13.00.421,t1_Paradigm,2021.1.4,60.011820679107274,
J,left,Distractor,0,60,60,60,2387.2914372661035,2389.292410901864,left,1,4,0.7820528284646571,H17N05,2022-11-03_09h13.00.421,t1_Paradigm,2021.1.4,60.011820679107274,
H,right,Target,0,61,61,61,2390.791469025542,2392.7917907905066,right,1,4,0.8342506148619577,H17N05,2022-11-03_09h13.00.421,t1_Paradigm,2021.1.4,60.011820679107274,
Z,left,Distractor,0,62,62,62,2394.2914314916125,2396.2914616470807,left,1,4,0.7267730918247253,H17N05,2022-11-03_09h13.00.421,t1_Paradigm,2021.1.4,60.011820679107274,
R,right,Target,0,63,63,63,2397.7914039026364,2399.792960757506,right,1,4,0.3612172789289616,H17N05,2022-11-03_09h13.00.421,t1_Paradigm,2021.1.4,60.011820679107274,
J,left,Pretarget,0,0,0,0,2424.616633549158,2426.6094177369378,None,0,4,,H17N05,2022-11-03_09h13.00.421,t1_Paradigm,2021.1.4,60.011820679107274,
G,left,Pretarget,0,1,1,1,2428.1080309074023,2430.1096108600614,None,0,4,,H17N05,2022-11-03_09h13.00.421,t1_Paradigm,2021.1.4,60.011820679107274,
Z,left,Distractor,0,2,2,2,2431.608128110587,2433.6082330130157,None,0,4,,H17N05,2022-11-03_09h13.00.421,t1_Paradigm,2021.1.4,60.011820679107274,
F,left,Distractor,0,3,3,3,2435.1079442906776,2437.1095653061057,None,0,4,,H17N05,2022-11-03_09h13.00.421,t1_Paradigm,2021.1.4,60.011820679107274,
J,right,Target,0,4,4,4,2438.6079227969167,2440.6098113616463,right,1,4,0.3763790500815958,H17N05,2022-11-03_09h13.00.421,t1_Paradigm,2021.1.4,60.011820679107274,
G,right,Target,0,5,5,5,2442.1081447923207,2444.110301547975,right,1,4,0.3799486202769913,H17N05,2022-11-03_09h13.00.421,t1_Paradigm,2021.1.4,60.011820679107274,
H,left,Distractor,0,6,6,6,2445.608220822527,2447.608896753518,left,1,4,0.8012166116386652,H17N05,2022-11-03_09h13.00.421,t1_Paradigm,2021.1.4,60.011820679107274,
P,left,Distractor,0,7,7,7,2449.1081688525155,2451.1093077016412,left,1,4,0.7408714024932124,H17N05,2022-11-03_09h13.00.421,t1_Paradigm,2021.1.4,60.011820679107274,
G,left,Lure,0,8,8,8,2452.6082955694874,2454.608541625086,left,1,4,0.9057190116145648,H17N05,2022-11-03_09h13.00.421,t1_Paradigm,2021.1.4,60.011820679107274,
S,left,Distractor,0,9,9,9,2456.108168531675,2458.108711971261,left,1,4,1.2614977245684713,H17N05,2022-11-03_09h13.00.421,t1_Paradigm,2021.1.4,60.011820679107274,
R,left,Pretarget,0,10,10,10,2459.6081550579984,2461.6101405051304,left,1,4,0.6081284313695505,H17N05,2022-11-03_09h13.00.421,t1_Paradigm,2021.1.4,60.011820679107274,
T,left,Pretarget,0,11,11,11,2463.108231088205,2465.109027961793,left,1,4,0.597373525146395,H17N05,2022-11-03_09h13.00.421,t1_Paradigm,2021.1.4,60.011820679107274,
X,left,Distractor,0,12,12,12,2466.6082410331,2468.609314759262,left,1,4,0.9208878403878771,H17N05,2022-11-03_09h13.00.421,t1_Paradigm,2021.1.4,60.011820679107274,
F,left,Pretarget,0,13,13,13,2470.107946536329,2472.110341969121,left,1,4,0.8120112973847426,H17N05,2022-11-03_09h13.00.421,t1_Paradigm,2021.1.4,60.011820679107274,
R,right,Target,0,14,14,14,2473.607923759322,2475.610497558373,right,1,4,1.0238876010407694,H17N05,2022-11-03_09h13.00.421,t1_Paradigm,2021.1.4,60.011820679107274,
T,right,Target,0,15,15,15,2477.1079917695024,2479.1101225401508,right,1,4,0.9482426755712368,H17N05,2022-11-03_09h13.00.421,t1_Paradigm,2021.1.4,60.011820679107274,
C,left,Distractor,0,16,16,16,2480.6082609228324,2482.608438968251,left,1,4,0.3939221386681311,H17N05,2022-11-03_09h13.00.421,t1_Paradigm,2021.1.4,60.011820679107274,
F,right,Target,0,17,17,17,2484.108244882722,2486.108937816287,right,1,4,0.893603581644129,H17N05,2022-11-03_09h13.00.421,t1_Paradigm,2021.1.4,60.011820679107274,
M,left,Distractor,0,18,18,18,2487.6081925918697,2489.608457254013,left,1,4,0.7378359684953466,H17N05,2022-11-03_09h13.00.421,t1_Paradigm,2021.1.4,60.011820679107274,
N,left,Distractor,0,19,19,19,2491.1082249929314,2493.1097122336505,left,1,4,0.5807418366894126,H17N05,2022-11-03_09h13.00.421,t1_Paradigm,2021.1.4,60.011820679107274,
R,left,Lure,0,20,20,20,2494.6081082207966,2496.6086680212757,right,0,4,0.7938314157072455,H17N05,2022-11-03_09h13.00.421,t1_Paradigm,2021.1.4,60.011820679107274,
F,right,Target,0,21,21,21,2498.1080010727746,2500.108994919108,right,1,4,0.3974631574237719,H17N05,2022-11-03_09h13.00.421,t1_Paradigm,2021.1.4,60.011820679107274,
P,left,Distractor,0,22,22,22,2501.608224672149,2503.608404963219,left,1,4,0.5941581210354343,H17N05,2022-11-03_09h13.00.421,t1_Paradigm,2021.1.4,60.011820679107274,
L,left,Pretarget,0,23,23,23,2505.1083244417678,2507.110048113973,left,1,4,0.46831593406386673,H17N05,2022-11-03_09h13.00.421,t1_Paradigm,2021.1.4,60.011820679107274,
T,left,Distractor,0,24,24,24,2508.6082275593653,2510.6082753589726,left,1,4,0.8740827452274971,H17N05,2022-11-03_09h13.00.421,t1_Paradigm,2021.1.4,60.011820679107274,
F,left,Distractor,0,25,25,25,2512.1082602812094,2514.1091524331714,right,0,4,0.8933472604257986,H17N05,2022-11-03_09h13.00.421,t1_Paradigm,2021.1.4,60.011820679107274,
V,left,Distractor,0,26,26,26,2515.6080068472074,2517.610515202512,left,1,4,0.5279181645601057,H17N05,2022-11-03_09h13.00.421,t1_Paradigm,2021.1.4,60.011820679107274,
L,right,Target,0,27,27,27,2519.1082647724543,2521.1087430890766,right,1,4,0.5816112117026933,H17N05,2022-11-03_09h13.00.421,t1_Paradigm,2021.1.4,60.011820679107274,
S,left,Pretarget,0,28,28,28,2522.60829973995,2524.609681115835,left,1,4,0.5366648466442712,H17N05,2022-11-03_09h13.00.421,t1_Paradigm,2021.1.4,60.011820679107274,
W,left,Distractor,0,29,29,29,2526.1083975847578,2528.1087950591464,left,1,4,0.42967879318166524,H17N05,2022-11-03_09h13.00.421,t1_Paradigm,2021.1.4,60.011820679107274,
Q,left,Distractor,0,30,30,30,2529.608045664325,2531.609529055422,left,1,4,0.7048686923226342,H17N05,2022-11-03_09h13.00.421,t1_Paradigm,2021.1.4,60.011820679107274,
L,right,Target,0,31,31,31,2533.1080491931643,2535.1101844550576,right,1,4,0.8681681082816795,H17N05,2022-11-03_09h13.00.421,t1_Paradigm,2021.1.4,60.011820679107274,
S,right,Target,0,32,32,32,2536.608235900232,2538.609952193976,right,1,4,0.9843846140429378,H17N05,2022-11-03_09h13.00.421,t1_Paradigm,2021.1.4,60.011820679107274,
Z,left,Pretarget,0,33,33,33,2540.108348822745,2542.109590970271,left,1,4,0.6685291394824162,H17N05,2022-11-03_09h13.00.421,t1_Paradigm,2021.1.4,60.011820679107274,
F,left,Distractor,0,34,34,34,2543.608444101119,2545.6095742885373,right,0,4,1.2651474953745492,H17N05,2022-11-03_09h13.00.421,t1_Paradigm,2021.1.4,60.011820679107274,
V,left,Distractor,0,35,35,35,2547.108186817437,2549.1087684325175,right,0,4,1.0297412855434231,H17N05,2022-11-03_09h13.00.421,t1_Paradigm,2021.1.4,60.011820679107274,
M,left,Distractor,0,36,36,36,2550.6081775141647,2552.6102707509417,left,1,4,1.032077690702863,H17N05,2022-11-03_09h13.00.421,t1_Paradigm,2021.1.4,60.011820679107274,
Z,right,Target,0,37,37,37,2554.108350105933,2556.109654489206,right,1,4,1.0047841287450865,H17N05,2022-11-03_09h13.00.421,t1_Paradigm,2021.1.4,60.011820679107274,
H,left,Pretarget,0,38,38,38,2557.6083032687893,2559.609578779782,left,1,4,0.4809501017443836,H17N05,2022-11-03_09h13.00.421,t1_Paradigm,2021.1.4,60.011820679107274,
L,left,Distractor,0,39,39,39,2561.108485484612,2563.10891503928,left,1,4,0.5334372519864701,H17N05,2022-11-03_09h13.00.421,t1_Paradigm,2021.1.4,60.011820679107274,
G,left,Distractor,0,40,40,40,2564.608231088205,2566.609890279069,left,1,4,0.4886159999878146,H17N05,2022-11-03_09h13.00.421,t1_Paradigm,2021.1.4,60.011820679107274,
K,left,Distractor,0,41,41,41,2568.1085907078814,2570.1102280842024,left,1,4,0.8601127556758001,H17N05,2022-11-03_09h13.00.421,t1_Paradigm,2021.1.4,60.011820679107274,
H,right,Target,0,42,42,42,2571.6082086320384,2573.608856973995,right,1,4,0.8335249594529159,H17N05,2022-11-03_09h13.00.421,t1_Paradigm,2021.1.4,60.011820679107274,
B,left,Distractor,0,43,43,43,2575.108098596742,2577.1083314993884,left,1,4,0.6303594079217874,H17N05,2022-11-03_09h13.00.421,t1_Paradigm,2021.1.4,60.011820679107274,
Z,left,Distractor,0,44,44,44,2578.6081746269483,2580.609803983185,left,1,4,0.4247201478574425,H17N05,2022-11-03_09h13.00.421,t1_Paradigm,2021.1.4,60.011820679107274,
T,left,Pretarget,0,45,45,45,2582.1083719205344,2584.1097205745173,left,1,4,0.5568195889354683,H17N05,2022-11-03_09h13.00.421,t1_Paradigm,2021.1.4,60.011820679107274,
H,right,Target,0,46,46,46,2585.6084158704616,2587.6082955694874,left,0,4,0.4983655108953826,H17N05,2022-11-03_09h13.00.421,t1_Paradigm,2021.1.4,60.011820679107274,
F,left,Distractor,0,47,47,47,2589.1084537251736,2591.1100490763783,left,1,4,0.5805548087810166,H17N05,2022-11-03_09h13.00.421,t1_Paradigm,2021.1.4,60.011820679107274,
R,left,Distractor,0,48,48,48,2592.608357163612,2594.60960861441,left,1,4,0.8409784863470122,H17N05,2022-11-03_09h13.00.421,t1_Paradigm,2021.1.4,60.011820679107274,
T,right,Target,0,49,49,49,2596.108361334016,2598.1102883950807,right,1,4,0.7641873333486728,H17N05,2022-11-03_09h13.00.421,t1_Paradigm,2021.1.4,60.011820679107274,
H,right,Target,0,50,50,50,2599.6085066575906,2601.609096613538,right,1,4,0.3853419530787505,H17N05,2022-11-03_09h13.00.421,t1_Paradigm,2021.1.4,60.011820679107274,
Y,left,Pretarget,0,51,51,51,2603.1081573035917,2605.110085327062,left,1,4,0.4203870675410144,H17N05,2022-11-03_09h13.00.421,t1_Paradigm,2021.1.4,60.011820679107274,
H,left,Distractor,0,52,52,52,2606.6082955694874,2608.608941345068,left,1,4,0.9694830137887038,H17N05,2022-11-03_09h13.00.421,t1_Paradigm,2021.1.4,60.011820679107274,
S,left,Distractor,0,53,53,53,2610.108482597396,2612.10962305055,left,1,4,0.5888969588559121,H17N05,2022-11-03_09h13.00.421,t1_Paradigm,2021.1.4,60.011820679107274,
Q,left,Distractor,0,54,54,54,2613.6085053744027,2615.6098604444414,left,1,4,0.5766002754680812,H17N05,2022-11-03_09h13.00.421,t1_Paradigm,2021.1.4,60.011820679107274,
Y,right,Target,0,55,55,55,2617.1080950679025,2619.1098896375042,left,0,4,0.4526537109632045,H17N05,2022-11-03_09h13.00.421,t1_Paradigm,2021.1.4,60.011820679107274,
R,left,Distractor,0,56,56,56,2620.608418116113,2622.6089435907197,left,1,4,0.7297498189145699,H17N05,2022-11-03_09h13.00.421,t1_Paradigm,2021.1.4,60.011820679107274,
H,left,Pretarget,0,57,57,57,2624.108591670287,2626.109579100623,left,1,4,0.5570467171492055,H17N05,2022-11-03_09h13.00.421,t1_Paradigm,2021.1.4,60.011820679107274,
J,left,Distractor,0,58,58,58,2627.608599048748,2629.6097148000845,left,1,4,0.5607298515387811,H17N05,2022-11-03_09h13.00.421,t1_Paradigm,2021.1.4,60.011820679107274,
V,left,Distractor,0,59,59,59,2631.108412983245,2633.1090125632472,left,1,4,0.661739673872944,H17N05,2022-11-03_09h13.00.421,t1_Paradigm,2021.1.4,60.011820679107274,
Y,left,Lure,0,60,60,60,2634.608523660165,2636.6095842334325,right,0,4,0.6169450484449044,H17N05,2022-11-03_09h13.00.421,t1_Paradigm,2021.1.4,60.011820679107274,
H,right,Target,0,61,61,61,2638.108614447294,2640.110674641386,right,1,4,0.683594990579877,H17N05,2022-11-03_09h13.00.421,t1_Paradigm,2021.1.4,60.011820679107274,
L,left,Distractor,0,62,62,62,2641.608521093731,2643.6085214145132,left,1,4,0.4822131014079787,H17N05,2022-11-03_09h13.00.421,t1_Paradigm,2021.1.4,60.011820679107274,
P,left,Distractor,0,63,63,63,2645.1084713693126,2647.110377578181,left,1,4,0.4361872357549146,H17N05,2022-11-03_09h13.00.421,t1_Paradigm,2021.1.4,60.011820679107274,
