Letter,CorrAnswer,Stimulus,finaln_nback_run.thisRepN,finaln_nback_run.thisTrialN,finaln_nback_run.thisN,finaln_nback_run.thisIndex,finaln_fixcross.started,finaln_nback_trial.started,finaln_trial_resp.keys,finaln_trial_resp.corr,finaln_level,finaln_money,finaln_trial_resp.rt,Participant,date,expName,psychopyVersion,frameRate,
F,left,Distractor,0,0,0,0,2537.699712882284,2539.692441269057,None,0,3,3.0,,H18I08,2023-01-05_09h14.06.423,t1_Paradigm,2021.1.4,60.04792755890366,
P,left,Pretarget,0,1,1,1,2541.191615846241,2543.19344313303,None,0,3,3.0,,H18I08,2023-01-05_09h14.06.423,t1_Paradigm,2021.1.4,60.04792755890366,
B,left,Distractor,0,2,2,2,2544.6915192848537,2546.692245580023,None,0,3,3.0,,H18I08,2023-01-05_09h14.06.423,t1_Paradigm,2021.1.4,60.04792755890366,
K,left,Pretarget,0,3,3,3,2548.191585049266,2550.19254809618,None,0,3,3.0,,H18I08,2023-01-05_09h14.06.423,t1_Paradigm,2021.1.4,60.04792755890366,
H,left,Distractor,0,4,4,4,2551.6914535204414,2553.692255204078,left,1,3,3.0,0.36910101724788547,H18I08,2023-01-05_09h14.06.423,t1_Paradigm,2021.1.4,60.04792755890366,
P,right,Target,0,5,5,5,2555.1913229541387,2557.1940558643546,right,1,3,3.0,0.6112781062256545,H18I08,2023-01-05_09h14.06.423,t1_Paradigm,2021.1.4,60.04792755890366,
L,left,Distractor,0,6,6,6,2558.691684818594,2560.693020957755,left,1,3,3.0,0.7441856286022812,H18I08,2023-01-05_09h14.06.423,t1_Paradigm,2021.1.4,60.04792755890366,
K,right,Target,0,7,7,7,2562.191676156828,2564.191641831072,right,1,3,3.0,0.6375171230174601,H18I08,2023-01-05_09h14.06.423,t1_Paradigm,2021.1.4,60.04792755890366,
Z,left,Pretarget,0,8,8,8,2565.6916617208626,2567.692394752754,left,1,3,3.0,0.881005649222061,H18I08,2023-01-05_09h14.06.423,t1_Paradigm,2021.1.4,60.04792755890366,
S,left,Pretarget,0,9,9,9,2569.191402513068,2571.1917281267233,left,1,3,3.0,0.5976174054667354,H18I08,2023-01-05_09h14.06.423,t1_Paradigm,2021.1.4,60.04792755890366,
N,left,Distractor,0,10,10,10,2572.69161680853,2574.69336036616,left,1,3,3.0,0.5357360315974802,H18I08,2023-01-05_09h14.06.423,t1_Paradigm,2021.1.4,60.04792755890366,
M,left,Distractor,0,11,11,11,2576.19142593164,2578.1933648572303,left,1,3,3.0,0.6037716660648584,H18I08,2023-01-05_09h14.06.423,t1_Paradigm,2021.1.4,60.04792755890366,
Z,right,Target,0,12,12,12,2579.6914618613664,2581.6921355449595,left,0,3,3.0,0.9131615331862122,H18I08,2023-01-05_09h14.06.423,t1_Paradigm,2021.1.4,60.04792755890366,
S,right,Target,0,13,13,13,2583.1916562672704,2585.1928576696664,right,1,3,3.0,0.5322591820731759,H18I08,2023-01-05_09h14.06.423,t1_Paradigm,2021.1.4,60.04792755890366,
Q,left,Distractor,0,14,14,14,2586.691617771052,2588.6919616705272,left,1,3,3.0,0.9051321863662452,H18I08,2023-01-05_09h14.06.423,t1_Paradigm,2021.1.4,60.04792755890366,
V,left,Lure,0,15,15,15,2590.1916931595188,2592.1934020703193,left,1,3,3.0,0.8597089045215398,H18I08,2023-01-05_09h14.06.423,t1_Paradigm,2021.1.4,60.04792755890366,
Z,right,Target,0,16,16,16,2593.69130113977,2595.6937267216854,right,1,3,3.0,0.43156143836677074,H18I08,2023-01-05_09h14.06.423,t1_Paradigm,2021.1.4,60.04792755890366,
X,left,Distractor,0,17,17,17,2597.191739354981,2599.1927460308652,left,1,3,3.0,0.4683214691467583,H18I08,2023-01-05_09h14.06.423,t1_Paradigm,2021.1.4,60.04792755890366,
V,left,Pretarget,0,18,18,18,2600.6913511848543,2602.693745648954,left,1,3,3.0,0.7754198492038995,H18I08,2023-01-05_09h14.06.423,t1_Paradigm,2021.1.4,60.04792755890366,
E,left,Distractor,0,19,19,19,2604.1911137914285,2606.1929981808644,left,1,3,3.0,0.4922632242087275,H18I08,2023-01-05_09h14.06.423,t1_Paradigm,2021.1.4,60.04792755890366,
R,left,Distractor,0,20,20,20,2607.6914644278586,2609.691539495485,left,1,3,3.0,0.8498067168984562,H18I08,2023-01-05_09h14.06.423,t1_Paradigm,2021.1.4,60.04792755890366,
G,left,Distractor,0,21,21,21,2611.191530192038,2613.1922619410325,left,1,3,3.0,0.7409958969801664,H18I08,2023-01-05_09h14.06.423,t1_Paradigm,2021.1.4,60.04792755890366,
V,right,Target,0,22,22,22,2614.6914904126897,2616.693629198009,left,0,3,3.0,0.631394300609827,H18I08,2023-01-05_09h14.06.423,t1_Paradigm,2021.1.4,60.04792755890366,
T,left,Pretarget,0,23,23,23,2618.191309801303,2620.1916238663252,left,1,3,3.0,0.7816652178298682,H18I08,2023-01-05_09h14.06.423,t1_Paradigm,2021.1.4,60.04792755890366,
B,left,Distractor,0,24,24,24,2621.6913787736557,2623.692730311537,left,1,3,3.0,0.9605080217588693,H18I08,2023-01-05_09h14.06.423,t1_Paradigm,2021.1.4,60.04792755890366,
S,left,Pretarget,0,25,25,25,2625.1913694704417,2627.1935348822735,left,1,3,3.0,0.5957381487824023,H18I08,2023-01-05_09h14.06.423,t1_Paradigm,2021.1.4,60.04792755890366,
G,left,Lure,0,26,26,26,2628.6916052596644,2630.693085759878,left,1,3,3.0,0.5520163993351161,H18I08,2023-01-05_09h14.06.423,t1_Paradigm,2021.1.4,60.04792755890366,
T,right,Target,0,27,27,27,2632.1915138312615,2634.1919167581946,right,1,3,3.0,0.7011837584432214,H18I08,2023-01-05_09h14.06.423,t1_Paradigm,2021.1.4,60.04792755890366,
H,left,Distractor,0,28,28,28,2635.691527304938,2637.6936455587856,left,1,3,3.0,0.6075991517864168,H18I08,2023-01-05_09h14.06.423,t1_Paradigm,2021.1.4,60.04792755890366,
S,right,Target,0,29,29,29,2639.1915808788035,2641.193553167861,right,1,3,3.0,0.5797176302876323,H18I08,2023-01-05_09h14.06.423,t1_Paradigm,2021.1.4,60.04792755890366,
D,left,Distractor,0,30,30,30,2642.691466994118,2644.693117519142,left,1,3,3.0,0.4880145259667188,H18I08,2023-01-05_09h14.06.423,t1_Paradigm,2021.1.4,60.04792755890366,
Z,left,Distractor,0,31,31,31,2646.191590823699,2648.193243273534,left,1,3,3.0,0.699829975143075,H18I08,2023-01-05_09h14.06.423,t1_Paradigm,2021.1.4,60.04792755890366,
J,left,Pretarget,0,32,32,32,2649.691614883719,2651.6920649686363,left,1,3,3.0,0.6890510362572968,H18I08,2023-01-05_09h14.06.423,t1_Paradigm,2021.1.4,60.04792755890366,
C,left,Pretarget,0,33,33,33,2653.1913110846654,2655.193064586958,left,1,3,3.0,0.5481706280261278,H18I08,2023-01-05_09h14.06.423,t1_Paradigm,2021.1.4,60.04792755890366,
H,left,Distractor,0,34,34,34,2656.691205220064,2658.6929850280285,left,1,3,3.0,0.6160599770955741,H18I08,2023-01-05_09h14.06.423,t1_Paradigm,2021.1.4,60.04792755890366,
B,left,Pretarget,0,35,35,35,2660.1912838164717,2662.192781639751,left,1,3,3.0,0.8125362906139344,H18I08,2023-01-05_09h14.06.423,t1_Paradigm,2021.1.4,60.04792755890366,
J,right,Target,0,36,36,36,2663.6914301021025,2665.691826933762,right,1,3,3.0,0.545456965919584,H18I08,2023-01-05_09h14.06.423,t1_Paradigm,2021.1.4,60.04792755890366,
C,right,Target,0,37,37,37,2667.191202653572,2669.1912661723327,right,1,3,3.0,0.614003958646208,H18I08,2023-01-05_09h14.06.423,t1_Paradigm,2021.1.4,60.04792755890366,
H,left,Distractor,0,38,38,38,2670.6915334002115,2672.691971294582,right,0,3,3.0,0.5690169672016054,H18I08,2023-01-05_09h14.06.423,t1_Paradigm,2021.1.4,60.04792755890366,
B,right,Target,0,39,39,39,2674.1914451797493,2676.190570674138,right,1,3,3.0,0.6864393893629313,H18I08,2023-01-05_09h14.06.423,t1_Paradigm,2021.1.4,60.04792755890366,
F,left,Pretarget,0,40,40,40,2677.691199766239,2679.7042717959266,left,1,3,3.0,0.4689345210790634,H18I08,2023-01-05_09h14.06.423,t1_Paradigm,2021.1.4,60.04792755890366,
M,left,Distractor,0,41,41,41,2681.1915706130676,2683.191811214434,left,1,3,3.0,0.5814140299335122,H18I08,2023-01-05_09h14.06.423,t1_Paradigm,2021.1.4,60.04792755890366,
W,left,Pretarget,0,42,42,42,2684.6917371093296,2686.6929821409285,left,1,3,3.0,0.5839852560311556,H18I08,2023-01-05_09h14.06.423,t1_Paradigm,2021.1.4,60.04792755890366,
Z,left,Distractor,0,43,43,43,2688.1914224028587,2690.19263375015,left,1,3,3.0,0.7645655223168433,H18I08,2023-01-05_09h14.06.423,t1_Paradigm,2021.1.4,60.04792755890366,
F,right,Target,0,44,44,44,2691.6914916958194,2693.6921419610735,right,1,3,3.0,0.7048890187870711,H18I08,2023-01-05_09h14.06.423,t1_Paradigm,2021.1.4,60.04792755890366,
B,left,Lure,0,45,45,45,2695.191412137123,2697.191970011452,left,1,3,3.0,0.8370503562036902,H18I08,2023-01-05_09h14.06.423,t1_Paradigm,2021.1.4,60.04792755890366,
W,right,Target,0,46,46,46,2698.691334823845,2700.6931906619575,right,1,3,3.0,0.5678107524290681,H18I08,2023-01-05_09h14.06.423,t1_Paradigm,2021.1.4,60.04792755890366,
X,left,Distractor,0,47,47,47,2702.1911519668065,2704.1932410278823,left,1,3,3.0,0.6997764012776315,H18I08,2023-01-05_09h14.06.423,t1_Paradigm,2021.1.4,60.04792755890366,
T,left,Distractor,0,48,48,48,2705.6914143827744,2707.6913527888246,left,1,3,3.0,0.7057349728420377,H18I08,2023-01-05_09h14.06.423,t1_Paradigm,2021.1.4,60.04792755890366,
L,left,Pretarget,0,49,49,49,2709.191441009287,2711.1933825013693,left,1,3,3.0,0.8196734879165888,H18I08,2023-01-05_09h14.06.423,t1_Paradigm,2021.1.4,60.04792755890366,
J,left,Distractor,0,50,50,50,2712.6915452699177,2714.6925076751504,left,1,3,3.0,0.7923626727424562,H18I08,2023-01-05_09h14.06.423,t1_Paradigm,2021.1.4,60.04792755890366,
Z,left,Distractor,0,51,51,51,2716.191265209811,2718.191185971955,left,1,3,3.0,0.6218401829246432,H18I08,2023-01-05_09h14.06.423,t1_Paradigm,2021.1.4,60.04792755890366,
P,left,Pretarget,0,52,52,52,2719.6913957761135,2721.69194787601,left,1,3,3.0,0.6571620593313128,H18I08,2023-01-05_09h14.06.423,t1_Paradigm,2021.1.4,60.04792755890366,
L,right,Target,0,53,53,53,2723.19146667351,2725.1936352932826,right,1,3,3.0,0.3873026669025421,H18I08,2023-01-05_09h14.06.423,t1_Paradigm,2021.1.4,60.04792755890366,
V,left,Distractor,0,54,54,54,2726.6913890393917,2728.7075811869,left,1,3,3.0,0.6014288510195911,H18I08,2023-01-05_09h14.06.423,t1_Paradigm,2021.1.4,60.04792755890366,
F,left,Distractor,0,55,55,55,2730.1914191946853,2732.192515374394,left,1,3,3.0,0.732512294780463,H18I08,2023-01-05_09h14.06.423,t1_Paradigm,2021.1.4,60.04792755890366,
P,right,Target,0,56,56,56,2733.691479184665,2735.6927348026074,right,1,3,3.0,0.6723613254725933,H18I08,2023-01-05_09h14.06.423,t1_Paradigm,2021.1.4,60.04792755890366,
T,left,Pretarget,0,57,57,57,2737.1916533799376,2739.19051421294,left,1,3,3.0,0.5826869714073837,H18I08,2023-01-05_09h14.06.423,t1_Paradigm,2021.1.4,60.04792755890366,
D,left,Distractor,0,58,58,58,2740.691522813635,2742.693387313513,left,1,3,3.0,0.5995152685791254,H18I08,2023-01-05_09h14.06.423,t1_Paradigm,2021.1.4,60.04792755890366,
V,left,Distractor,0,59,59,59,2744.1912318465766,2746.190860358067,left,1,3,3.0,0.5262845703400671,H18I08,2023-01-05_09h14.06.423,t1_Paradigm,2021.1.4,60.04792755890366,
Z,left,Distractor,0,60,60,60,2747.6913874354213,2749.692580497125,left,1,3,3.0,0.5284936113748699,H18I08,2023-01-05_09h14.06.423,t1_Paradigm,2021.1.4,60.04792755890366,
T,right,Target,0,61,61,61,2751.191531796241,2753.1916960466187,right,1,3,3.0,0.6296703121624887,H18I08,2023-01-05_09h14.06.423,t1_Paradigm,2021.1.4,60.04792755890366,
B,left,Distractor,0,62,62,62,2754.6914541621227,2756.6932464814745,left,1,3,3.0,0.7118773637339473,H18I08,2023-01-05_09h14.06.423,t1_Paradigm,2021.1.4,60.04792755890366,
J,left,Distractor,0,63,63,63,2758.1914894504007,2760.1914310643915,left,1,3,3.0,0.8457918830681592,H18I08,2023-01-05_09h14.06.423,t1_Paradigm,2021.1.4,60.04792755890366,
