Letter,CorrAnswer,Stimulus,nback_run.thisRepN,nback_run.thisTrialN,nback_run.thisN,nback_run.thisIndex,fixcross.started,nback_trial.started,trial_resp.keys,trial_resp.corr,currentlevel,trial_resp.rt,Participant,date,expName,psychopyVersion,frameRate,
H,left,Distractor,0,0,0,0,264.42557399440557,266.36179411574267,None,0,1,,H18I08,2023-01-05_09h14.06.423,t1_Paradigm,2021.1.4,60.04792755890366,
Q,left,Pretarget,0,1,1,1,267.8632784653455,269.86210785992444,left,1,1,0.7768682690802962,H18I08,2023-01-05_09h14.06.423,t1_Paradigm,2021.1.4,60.04792755890366,
Q,right,Target,0,2,2,2,271.36048107407987,273.36046599643305,None,0,1,,H18I08,2023-01-05_09h14.06.423,t1_Paradigm,2021.1.4,60.04792755890366,
T,left,Distractor,0,3,3,3,274.86061099893413,276.8619176244829,left,1,1,0.8974788191262633,H18I08,2023-01-05_09h14.06.423,t1_Paradigm,2021.1.4,60.04792755890366,
Q,left,Lure,0,4,4,4,278.3605413849,280.3625553783495,left,1,1,0.6125959597993642,H18I08,2023-01-05_09h14.06.423,t1_Paradigm,2021.1.4,60.04792755890366,
L,left,Distractor,0,5,5,5,281.8605869386811,283.8619516293984,left,1,1,0.5849383580498397,H18I08,2023-01-05_09h14.06.423,t1_Paradigm,2021.1.4,60.04792755890366,
V,left,Pretarget,0,6,6,6,285.3602767235134,287.36333492654376,left,1,1,0.4916533799842,H18I08,2023-01-05_09h14.06.423,t1_Paradigm,2021.1.4,60.04792755890366,
V,right,Target,0,7,7,7,288.860465034144,290.86050417181104,right,1,1,0.7065218994393945,H18I08,2023-01-05_09h14.06.423,t1_Paradigm,2021.1.4,60.04792755890366,
K,left,Distractor,0,8,8,8,292.36047947010957,294.3617963613942,left,1,1,0.5171372294425964,H18I08,2023-01-05_09h14.06.423,t1_Paradigm,2021.1.4,60.04792755890366,
G,left,Pretarget,0,9,9,9,295.8605006430298,297.8619413636625,left,1,1,0.5530208298005164,H18I08,2023-01-05_09h14.06.423,t1_Paradigm,2021.1.4,60.04792755890366,
G,right,Target,0,10,10,10,299.3606873496901,301.3602744778618,right,1,1,0.5908260324504226,H18I08,2023-01-05_09h14.06.423,t1_Paradigm,2021.1.4,60.04792755890366,
G,right,Target,0,11,11,11,302.8601519316435,304.8604316706769,right,1,1,0.51467315107584,H18I08,2023-01-05_09h14.06.423,t1_Paradigm,2021.1.4,60.04792755890366,
P,left,Pretarget,0,12,12,12,306.3600528037641,308.3619474589359,left,1,1,0.5169678458478302,H18I08,2023-01-05_09h14.06.423,t1_Paradigm,2021.1.4,60.04792755890366,
P,right,Target,0,13,13,13,309.8604942271486,311.8604749790393,right,1,1,0.6343264286406338,H18I08,2023-01-05_09h14.06.423,t1_Paradigm,2021.1.4,60.04792755890366,
G,left,Lure,0,14,14,14,313.36020903429016,315.36070242733695,left,1,1,0.7182192937470973,H18I08,2023-01-05_09h14.06.423,t1_Paradigm,2021.1.4,60.04792755890366,
Y,left,Distractor,0,15,15,15,316.8603623774834,318.8623304963112,left,1,1,0.4326146305538714,H18I08,2023-01-05_09h14.06.423,t1_Paradigm,2021.1.4,60.04792755890366,
B,left,Distractor,0,16,16,16,320.3604124225676,322.36184480250813,left,1,1,0.43711451650597155,H18I08,2023-01-05_09h14.06.423,t1_Paradigm,2021.1.4,60.04792755890366,
T,left,Pretarget,0,17,17,17,323.8605923925061,325.86135461740196,left,1,1,0.5536454308312386,H18I08,2023-01-05_09h14.06.423,t1_Paradigm,2021.1.4,60.04792755890366,
T,right,Target,0,18,18,18,327.360520853661,329.36044546519406,right,1,1,0.44673054898157716,H18I08,2023-01-05_09h14.06.423,t1_Paradigm,2021.1.4,60.04792755890366,
S,left,Distractor,0,19,19,19,330.86041466821916,332.8619124914985,left,1,1,0.5292106030974537,H18I08,2023-01-05_09h14.06.423,t1_Paradigm,2021.1.4,60.04792755890366,
T,left,Lure,0,20,20,20,334.36042365059257,336.3619692735374,left,1,1,0.7730969237163663,H18I08,2023-01-05_09h14.06.423,t1_Paradigm,2021.1.4,60.04792755890366,
J,left,Distractor,0,21,21,21,337.8604066481348,339.86301861610264,left,1,1,0.6158652503509074,H18I08,2023-01-05_09h14.06.423,t1_Paradigm,2021.1.4,60.04792755890366,
P,left,Distractor,0,22,22,22,341.3603902873583,343.3765593369026,left,1,1,0.5104959916789085,H18I08,2023-01-05_09h14.06.423,t1_Paradigm,2021.1.4,60.04792755890366,
F,left,Distractor,0,23,23,23,344.86036205664277,346.861907358747,left,1,1,0.48156897723674774,H18I08,2023-01-05_09h14.06.423,t1_Paradigm,2021.1.4,60.04792755890366,
L,left,Distractor,0,24,24,24,348.36043199151754,350.3610363819171,left,1,1,0.46985618444159627,H18I08,2023-01-05_09h14.06.423,t1_Paradigm,2021.1.4,60.04792755890366,
W,left,Pretarget,0,25,25,25,351.86047594132833,353.86167349433526,left,1,1,0.44137444300577044,H18I08,2023-01-05_09h14.06.423,t1_Paradigm,2021.1.4,60.04792755890366,
W,right,Target,0,26,26,26,355.3604117811192,357.3603315805085,right,1,1,0.3987738958094269,H18I08,2023-01-05_09h14.06.423,t1_Paradigm,2021.1.4,60.04792755890366,
V,left,Distractor,0,27,27,27,358.8603193901945,360.8616151083261,left,1,1,0.38535122969187796,H18I08,2023-01-05_09h14.06.423,t1_Paradigm,2021.1.4,60.04792755890366,
W,left,Lure,0,28,28,28,362.36035307426937,364.3598997814115,left,1,1,0.6312040651682764,H18I08,2023-01-05_09h14.06.423,t1_Paradigm,2021.1.4,60.04792755890366,
R,left,Pretarget,0,29,29,29,365.8604531644378,367.8635206706822,left,1,1,0.45549998548813164,H18I08,2023-01-05_09h14.06.423,t1_Paradigm,2021.1.4,60.04792755890366,
R,right,Target,0,30,30,30,369.3603973449208,371.3605429888703,right,1,1,0.5425062316935509,H18I08,2023-01-05_09h14.06.423,t1_Paradigm,2021.1.4,60.04792755890366,
G,left,Distractor,0,31,31,31,372.8603610943537,374.86152785038576,left,1,1,0.43325912137515843,H18I08,2023-01-05_09h14.06.423,t1_Paradigm,2021.1.4,60.04792755890366,
R,left,Lure,0,32,32,32,376.3602427185979,378.3613100259099,left,1,1,1.0138005702756345,H18I08,2023-01-05_09h14.06.423,t1_Paradigm,2021.1.4,60.04792755890366,
S,left,Distractor,0,33,33,33,379.8603668687865,381.86126768006943,left,1,1,0.48966408846899867,H18I08,2023-01-05_09h14.06.423,t1_Paradigm,2021.1.4,60.04792755890366,
R,left,Lure,0,34,34,34,383.360412101727,385.36145599070005,left,1,1,0.8136324703227729,H18I08,2023-01-05_09h14.06.423,t1_Paradigm,2021.1.4,60.04792755890366,
P,left,Pretarget,0,35,35,35,386.86053496878594,388.8617793589365,left,1,1,0.657242901623249,H18I08,2023-01-05_09h14.06.423,t1_Paradigm,2021.1.4,60.04792755890366,
P,right,Target,0,36,36,36,390.3604493148159,392.3600874503609,right,1,1,0.4548423420637846,H18I08,2023-01-05_09h14.06.423,t1_Paradigm,2021.1.4,60.04792755890366,
Y,left,Pretarget,0,37,37,37,393.86051860800944,395.86164237651974,left,1,1,0.47318674833513796,H18I08,2023-01-05_09h14.06.423,t1_Paradigm,2021.1.4,60.04792755890366,
Y,right,Target,0,38,38,38,397.36036013183184,399.36049968074076,right,1,1,0.6224699167069048,H18I08,2023-01-05_09h14.06.423,t1_Paradigm,2021.1.4,60.04792755890366,
J,left,Distractor,0,39,39,39,400.86051026708446,402.86160163464956,left,1,1,0.43318277038633823,H18I08,2023-01-05_09h14.06.423,t1_Paradigm,2021.1.4,60.04792755890366,
Y,left,Lure,0,40,40,40,404.36012498429045,406.36104215634987,left,1,1,0.4218870201148093,H18I08,2023-01-05_09h14.06.423,t1_Paradigm,2021.1.4,60.04792755890366,
T,left,Distractor,0,41,41,41,407.8603309390601,409.86168247670867,left,1,1,0.4413407586980611,H18I08,2023-01-05_09h14.06.423,t1_Paradigm,2021.1.4,60.04792755890366,
V,left,Distractor,0,42,42,42,411.3602507384494,413.361551910406,left,1,1,0.573445635382086,H18I08,2023-01-05_09h14.06.423,t1_Paradigm,2021.1.4,60.04792755890366,
N,left,Pretarget,0,43,43,43,414.8603392797522,416.86339331255294,left,1,1,0.5757143453229219,H18I08,2023-01-05_09h14.06.423,t1_Paradigm,2021.1.4,60.04792755890366,
N,right,Target,0,44,44,44,418.36036783107556,420.3602269992698,right,1,1,0.5988367728423327,H18I08,2023-01-05_09h14.06.423,t1_Paradigm,2021.1.4,60.04792755890366,
N,right,Target,0,45,45,45,421.8603652648162,423.8602760818321,right,1,1,0.4426849181763828,H18I08,2023-01-05_09h14.06.423,t1_Paradigm,2021.1.4,60.04792755890366,
X,left,Distractor,0,46,46,46,425.36030399170704,427.3616449430119,left,1,1,0.4134297235868871,H18I08,2023-01-05_09h14.06.423,t1_Paradigm,2021.1.4,60.04792755890366,
Z,left,Distractor,0,47,47,47,428.86030719964765,430.86120319901966,left,1,1,0.5619134542066604,H18I08,2023-01-05_09h14.06.423,t1_Paradigm,2021.1.4,60.04792755890366,
H,left,Pretarget,0,48,48,48,432.3602356608026,434.3617328426335,left,1,1,0.5170945625286549,H18I08,2023-01-05_09h14.06.423,t1_Paradigm,2021.1.4,60.04792755890366,
H,right,Target,0,49,49,49,435.8603607735131,437.86033960059285,right,1,1,0.618498070165515,H18I08,2023-01-05_09h14.06.423,t1_Paradigm,2021.1.4,60.04792755890366,
K,left,Distractor,0,50,50,50,439.36036013183184,441.3616754191462,left,1,1,0.5414469442330301,H18I08,2023-01-05_09h14.06.423,t1_Paradigm,2021.1.4,60.04792755890366,
V,left,Pretarget,0,51,51,51,442.86017214204185,444.8615355496295,left,1,1,0.4816681048832834,H18I08,2023-01-05_09h14.06.423,t1_Paradigm,2021.1.4,60.04792755890366,
V,right,Target,0,52,52,52,446.3604499564972,448.36035114945844,right,1,1,0.6146907950751483,H18I08,2023-01-05_09h14.06.423,t1_Paradigm,2021.1.4,60.04792755890366,
R,left,Distractor,0,53,53,53,449.86036301916465,451.86166579509154,left,1,1,0.5211960130836815,H18I08,2023-01-05_09h14.06.423,t1_Paradigm,2021.1.4,60.04792755890366,
V,left,Lure,0,54,54,54,453.3602978964336,455.3604945477564,left,1,1,0.39854805124923587,H18I08,2023-01-05_09h14.06.423,t1_Paradigm,2021.1.4,60.04792755890366,
Y,left,Distractor,0,55,55,55,456.8602683825884,458.86042942502536,left,1,1,0.6584067703224719,H18I08,2023-01-05_09h14.06.423,t1_Paradigm,2021.1.4,60.04792755890366,
Q,left,Distractor,0,56,56,56,460.36047465819865,462.3599982676096,left,1,1,0.48700175480917096,H18I08,2023-01-05_09h14.06.423,t1_Paradigm,2021.1.4,60.04792755890366,
Z,left,Pretarget,0,57,57,57,463.86001623235643,465.86197183979675,left,1,1,0.5528556169010699,H18I08,2023-01-05_09h14.06.423,t1_Paradigm,2021.1.4,60.04792755890366,
Z,right,Target,0,58,58,58,467.360362698324,469.36032067332417,right,1,1,0.4147129305638373,H18I08,2023-01-05_09h14.06.423,t1_Paradigm,2021.1.4,60.04792755890366,
B,left,Distractor,0,59,59,59,470.86034409189597,472.86245753383264,left,1,1,0.4482928535435349,H18I08,2023-01-05_09h14.06.423,t1_Paradigm,2021.1.4,60.04792755890366,
S,left,Pretarget,0,60,60,60,474.3602693451103,476.3607502267696,left,1,1,0.4061626016627997,H18I08,2023-01-05_09h14.06.423,t1_Paradigm,2021.1.4,60.04792755890366,
S,right,Target,0,61,61,61,477.8603383174632,479.86044097389095,right,1,1,0.47450941405259073,H18I08,2023-01-05_09h14.06.423,t1_Paradigm,2021.1.4,60.04792755890366,
T,left,Distractor,0,62,62,62,481.35989144048654,483.3602346985135,left,1,1,0.510993876028806,H18I08,2023-01-05_09h14.06.423,t1_Paradigm,2021.1.4,60.04792755890366,
D,left,Distractor,0,63,63,63,484.86029693391174,486.8620998398401,left,1,1,0.512933443300426,H18I08,2023-01-05_09h14.06.423,t1_Paradigm,2021.1.4,60.04792755890366,
R,left,Distractor,0,0,0,0,495.1343957216013,497.1288538714871,None,0,1,,H18I08,2023-01-05_09h14.06.423,t1_Paradigm,2021.1.4,60.04792755890366,
V,left,Distractor,0,1,1,1,498.62698808847927,500.62683634925634,left,1,1,0.5240742464084178,H18I08,2023-01-05_09h14.06.423,t1_Paradigm,2021.1.4,60.04792755890366,
N,left,Pretarget,0,2,2,2,502.127060910454,504.12691719131544,left,1,1,0.4965087145101279,H18I08,2023-01-05_09h14.06.423,t1_Paradigm,2021.1.4,60.04792755890366,
N,right,Target,0,3,3,3,505.62689409358427,507.6269431763794,right,1,1,0.6919988836161792,H18I08,2023-01-05_09h14.06.423,t1_Paradigm,2021.1.4,60.04792755890366,
S,left,Distractor,0,4,4,4,509.12658676551655,511.1271225044038,left,1,1,0.6638668160885572,H18I08,2023-01-05_09h14.06.423,t1_Paradigm,2021.1.4,60.04792755890366,
N,left,Lure,0,5,5,5,512.6266874973662,514.6273557273671,left,1,1,0.36357969837263227,H18I08,2023-01-05_09h14.06.423,t1_Paradigm,2021.1.4,60.04792755890366,
Z,left,Distractor,0,6,6,6,516.127136298921,518.1273319879547,left,1,1,0.6395285497419536,H18I08,2023-01-05_09h14.06.423,t1_Paradigm,2021.1.4,60.04792755890366,
L,left,Pretarget,0,7,7,7,519.6266733820084,521.6279909147415,left,1,1,0.4507094530854374,H18I08,2023-01-05_09h14.06.423,t1_Paradigm,2021.1.4,60.04792755890366,
L,right,Target,0,8,8,8,523.1266788356006,525.126871958375,right,1,1,0.47191605251282454,H18I08,2023-01-05_09h14.06.423,t1_Paradigm,2021.1.4,60.04792755890366,
H,left,Distractor,0,9,9,9,526.6268863943405,528.6282122679986,left,1,1,0.5546857907902449,H18I08,2023-01-05_09h14.06.423,t1_Paradigm,2021.1.4,60.04792755890366,
L,left,Lure,0,10,10,10,530.1269216826186,532.1287573100999,left,1,1,0.558107462245971,H18I08,2023-01-05_09h14.06.423,t1_Paradigm,2021.1.4,60.04792755890366,
X,left,Pretarget,0,11,11,11,533.6266743442975,535.6291384226643,left,1,1,0.43356516608037055,H18I08,2023-01-05_09h14.06.423,t1_Paradigm,2021.1.4,60.04792755890366,
X,right,Target,0,12,12,12,537.1268799782265,539.126937081106,right,1,1,0.40772586851380765,H18I08,2023-01-05_09h14.06.423,t1_Paradigm,2021.1.4,60.04792755890366,
X,right,Target,0,13,13,13,540.6268889608327,542.6265062442981,right,1,1,0.5722435913048685,H18I08,2023-01-05_09h14.06.423,t1_Paradigm,2021.1.4,60.04792755890366,
R,left,Distractor,0,14,14,14,544.1270480784588,546.1288076760247,left,1,1,0.5262467158026993,H18I08,2023-01-05_09h14.06.423,t1_Paradigm,2021.1.4,60.04792755890366,
T,left,Distractor,0,15,15,15,547.6267532615457,549.6280836265069,left,1,1,0.5151989450678229,H18I08,2023-01-05_09h14.06.423,t1_Paradigm,2021.1.4,60.04792755890366,
V,left,Pretarget,0,16,16,16,551.1268767702859,553.1278051706031,left,1,1,0.42302137496881187,H18I08,2023-01-05_09h14.06.423,t1_Paradigm,2021.1.4,60.04792755890366,
V,right,Target,0,17,17,17,554.6266583043616,556.6270121487323,right,1,1,0.4598484532907605,H18I08,2023-01-05_09h14.06.423,t1_Paradigm,2021.1.4,60.04792755890366,
N,left,Distractor,0,18,18,18,558.1268918479327,560.1269085297827,left,1,1,0.4799957654904574,H18I08,2023-01-05_09h14.06.423,t1_Paradigm,2021.1.4,60.04792755890366,
B,left,Distractor,0,19,19,19,561.6267956073862,563.627404168481,left,1,1,0.5476220569107682,H18I08,2023-01-05_09h14.06.423,t1_Paradigm,2021.1.4,60.04792755890366,
V,left,Lure,0,20,20,20,565.1266214121133,567.1277836768422,left,1,1,0.4069684555288404,H18I08,2023-01-05_09h14.06.423,t1_Paradigm,2021.1.4,60.04792755890366,
P,left,Distractor,0,21,21,21,568.6265630261041,570.6281230850145,left,1,1,0.5067275334149599,H18I08,2023-01-05_09h14.06.423,t1_Paradigm,2021.1.4,60.04792755890366,
K,left,Pretarget,0,22,22,22,572.1268581638578,574.1271622837521,left,1,1,0.46375742251984775,H18I08,2023-01-05_09h14.06.423,t1_Paradigm,2021.1.4,60.04792755890366,
K,right,Target,0,23,23,23,575.6268706750125,577.6269383642357,right,1,1,0.5319906710647047,H18I08,2023-01-05_09h14.06.423,t1_Paradigm,2021.1.4,60.04792755890366,
J,left,Pretarget,0,24,24,24,579.126872920664,581.127936378587,left,1,1,0.4868265970144421,H18I08,2023-01-05_09h14.06.423,t1_Paradigm,2021.1.4,60.04792755890366,
J,right,Target,0,25,25,25,582.6267173318192,584.6269011511467,right,1,1,0.5239071084652096,H18I08,2023-01-05_09h14.06.423,t1_Paradigm,2021.1.4,60.04792755890366,
H,left,Distractor,0,26,26,26,586.1268209507689,588.128165430855,left,1,1,0.4951379287522286,H18I08,2023-01-05_09h14.06.423,t1_Paradigm,2021.1.4,60.04792755890366,
J,left,Lure,0,27,27,27,589.6269351562951,591.6288102425169,left,1,1,0.8336870707571507,H18I08,2023-01-05_09h14.06.423,t1_Paradigm,2021.1.4,60.04792755890366,
V,left,Distractor,0,28,28,28,593.1264157781843,595.1272120082285,left,1,1,0.5514501843135804,H18I08,2023-01-05_09h14.06.423,t1_Paradigm,2021.1.4,60.04792755890366,
Z,left,Pretarget,0,29,29,29,596.626581632765,598.6275783637539,left,1,1,0.4752491826657206,H18I08,2023-01-05_09h14.06.423,t1_Paradigm,2021.1.4,60.04792755890366,
Z,right,Target,0,30,30,30,600.1269884093199,602.1268052314408,right,1,1,0.41625662869773805,H18I08,2023-01-05_09h14.06.423,t1_Paradigm,2021.1.4,60.04792755890366,
T,left,Distractor,0,31,31,31,603.6267843793612,605.6273239678703,left,1,1,0.37139667477458715,H18I08,2023-01-05_09h14.06.423,t1_Paradigm,2021.1.4,60.04792755890366,
Z,left,Lure,0,32,32,32,607.1269033967983,609.1272649404127,left,1,1,0.4874608220998198,H18I08,2023-01-05_09h14.06.423,t1_Paradigm,2021.1.4,60.04792755890366,
F,left,Distractor,0,33,33,33,610.626852389425,612.6279466440901,left,1,1,0.618812456028536,H18I08,2023-01-05_09h14.06.423,t1_Paradigm,2021.1.4,60.04792755890366,
Y,left,Pretarget,0,34,34,34,614.126511056209,616.128761801403,left,1,1,0.4142349357716739,H18I08,2023-01-05_09h14.06.423,t1_Paradigm,2021.1.4,60.04792755890366,
Y,right,Target,0,35,35,35,617.6266592666507,619.6268979432061,right,1,1,0.6279033359605819,H18I08,2023-01-05_09h14.06.423,t1_Paradigm,2021.1.4,60.04792755890366,
Y,right,Target,0,36,36,36,621.1265819536056,623.1265713670291,right,1,1,0.7922179913148284,H18I08,2023-01-05_09h14.06.423,t1_Paradigm,2021.1.4,60.04792755890366,
W,left,Distractor,0,37,37,37,624.6267423543613,626.6271083892789,left,1,1,0.5876311678439379,H18I08,2023-01-05_09h14.06.423,t1_Paradigm,2021.1.4,60.04792755890366,
Q,left,Distractor,0,38,38,38,628.1265620638151,630.128321661381,left,1,1,0.6864185372833163,H18I08,2023-01-05_09h14.06.423,t1_Paradigm,2021.1.4,60.04792755890366,
P,left,Pretarget,0,39,39,39,631.626801381819,633.6287816911936,left,1,1,0.5461341785266995,H18I08,2023-01-05_09h14.06.423,t1_Paradigm,2021.1.4,60.04792755890366,
P,right,Target,0,40,40,40,635.1268495020922,637.1267792466097,right,1,1,0.5838607850018889,H18I08,2023-01-05_09h14.06.423,t1_Paradigm,2021.1.4,60.04792755890366,
J,left,Distractor,0,41,41,41,638.6265534020495,640.6268690710422,left,1,1,0.6040998462121934,H18I08,2023-01-05_09h14.06.423,t1_Paradigm,2021.1.4,60.04792755890366,
P,left,Lure,0,42,42,42,642.1263551467564,644.127059948165,left,1,1,0.5757948665414006,H18I08,2023-01-05_09h14.06.423,t1_Paradigm,2021.1.4,60.04792755890366,
L,left,Distractor,0,43,43,43,645.6268610509578,647.6273704841733,left,1,1,0.7074355429504067,H18I08,2023-01-05_09h14.06.423,t1_Paradigm,2021.1.4,60.04792755890366,
Z,left,Distractor,0,44,44,44,649.1268097227439,651.1279014111497,left,1,1,0.5027576119173318,H18I08,2023-01-05_09h14.06.423,t1_Paradigm,2021.1.4,60.04792755890366,
F,left,Pretarget,0,45,45,45,652.6268485398032,654.6272187449504,left,1,1,0.5714771957136691,H18I08,2023-01-05_09h14.06.423,t1_Paradigm,2021.1.4,60.04792755890366,
F,right,Target,0,46,46,46,656.1265880486462,658.1268248003908,right,1,1,0.6878589370753616,H18I08,2023-01-05_09h14.06.423,t1_Paradigm,2021.1.4,60.04792755890366,
G,left,Pretarget,0,47,47,47,659.6266554170288,661.627292529447,left,1,1,0.5956293968483806,H18I08,2023-01-05_09h14.06.423,t1_Paradigm,2021.1.4,60.04792755890366,
G,right,Target,0,48,48,48,663.1269598579966,665.1266214121133,right,1,1,0.6641866553109139,H18I08,2023-01-05_09h14.06.423,t1_Paradigm,2021.1.4,60.04792755890366,
V,left,Distractor,0,49,49,49,666.6268154971767,668.6278504035436,left,1,1,0.49091906496323645,H18I08,2023-01-05_09h14.06.423,t1_Paradigm,2021.1.4,60.04792755890366,
G,left,Lure,0,50,50,50,670.126801381819,672.1394906949718,left,1,1,0.9151758474763483,H18I08,2023-01-05_09h14.06.423,t1_Paradigm,2021.1.4,60.04792755890366,
Q,left,Pretarget,0,51,51,51,673.6266525299288,675.6279306041542,left,1,1,0.6266704949084669,H18I08,2023-01-05_09h14.06.423,t1_Paradigm,2021.1.4,60.04792755890366,
Q,right,Target,0,52,52,52,677.1267028958537,679.1268405197188,right,1,1,0.6319816887844354,H18I08,2023-01-05_09h14.06.423,t1_Paradigm,2021.1.4,60.04792755890366,
Y,left,Distractor,0,53,53,53,680.6266855725553,682.627994122915,left,1,1,0.5387162796687335,H18I08,2023-01-05_09h14.06.423,t1_Paradigm,2021.1.4,60.04792755890366,
V,left,Distractor,0,54,54,54,684.1267664146144,686.1273961483967,left,1,1,0.5592870502732694,H18I08,2023-01-05_09h14.06.423,t1_Paradigm,2021.1.4,60.04792755890366,
B,left,Distractor,0,55,55,55,687.6267288806848,689.6278994863387,left,1,1,0.6107430090196431,H18I08,2023-01-05_09h14.06.423,t1_Paradigm,2021.1.4,60.04792755890366,
J,left,Pretarget,0,56,56,56,691.1265498732682,693.1270496824291,left,1,1,0.4397146147675812,H18I08,2023-01-05_09h14.06.423,t1_Paradigm,2021.1.4,60.04792755890366,
J,right,Target,0,57,57,57,694.6265418531839,696.6268196676392,right,1,1,0.6197986006736755,H18I08,2023-01-05_09h14.06.423,t1_Paradigm,2021.1.4,60.04792755890366,
H,left,Distractor,0,58,58,58,698.1267032164615,700.1274699326605,left,1,1,0.5435453082900494,H18I08,2023-01-05_09h14.06.423,t1_Paradigm,2021.1.4,60.04792755890366,
J,left,Lure,0,59,59,59,701.6266576626804,703.626855276525,left,1,1,0.4357280114199966,H18I08,2023-01-05_09h14.06.423,t1_Paradigm,2021.1.4,60.04792755890366,
D,left,Pretarget,0,60,60,60,705.126563988626,707.1269531210419,left,1,1,0.583644243888557,H18I08,2023-01-05_09h14.06.423,t1_Paradigm,2021.1.4,60.04792755890366,
D,right,Target,0,61,61,61,708.626743637491,710.626798494719,right,1,1,0.6198098289314657,H18I08,2023-01-05_09h14.06.423,t1_Paradigm,2021.1.4,60.04792755890366,
R,left,Distractor,0,62,62,62,712.1267240687739,714.1285866436083,left,1,1,0.4300568781327456,H18I08,2023-01-05_09h14.06.423,t1_Paradigm,2021.1.4,60.04792755890366,
F,left,Distractor,0,63,63,63,715.6266935924068,717.6287053402048,left,1,1,0.5620536445640028,H18I08,2023-01-05_09h14.06.423,t1_Paradigm,2021.1.4,60.04792755890366,
F,left,Distractor,0,0,0,0,798.1004773529712,800.093376085395,None,0,2,,H18I08,2023-01-05_09h14.06.423,t1_Paradigm,2021.1.4,60.04792755890366,
N,left,Pretarget,0,1,1,1,801.5931605065707,803.5949438435491,left,1,2,0.9636701645795256,H18I08,2023-01-05_09h14.06.423,t1_Paradigm,2021.1.4,60.04792755890366,
V,left,Distractor,0,2,2,2,805.0930745317601,807.0949229914695,left,1,2,0.7117981258779764,H18I08,2023-01-05_09h14.06.423,t1_Paradigm,2021.1.4,60.04792755890366,
N,right,Target,0,3,3,3,808.5933549124748,810.5951404951047,left,0,2,1.435358447721228,H18I08,2023-01-05_09h14.06.423,t1_Paradigm,2021.1.4,60.04792755890366,
N,left,Lure,0,4,4,4,812.0928810883779,814.0932782408781,left,1,2,1.4253622654359788,H18I08,2023-01-05_09h14.06.423,t1_Paradigm,2021.1.4,60.04792755890366,
X,left,Distractor,0,5,5,5,815.5933340603951,817.5948726255447,left,1,2,1.2677629531826824,H18I08,2023-01-05_09h14.06.423,t1_Paradigm,2021.1.4,60.04792755890366,
G,left,Pretarget,0,6,6,6,819.0933815389872,821.0944321646821,left,1,2,1.272142217727378,H18I08,2023-01-05_09h14.06.423,t1_Paradigm,2021.1.4,60.04792755890366,
H,left,Pretarget,0,7,7,7,822.5933369474951,824.5948046154808,left,1,2,1.3398740531411022,H18I08,2023-01-05_09h14.06.423,t1_Paradigm,2021.1.4,60.04792755890366,
G,right,Target,0,8,8,8,826.0932638046797,828.0951077733189,right,1,2,0.4635469764471054,H18I08,2023-01-05_09h14.06.423,t1_Paradigm,2021.1.4,60.04792755890366,
H,right,Target,0,9,9,9,829.5929949728306,831.5936984911095,right,1,2,0.72498211520724,H18I08,2023-01-05_09h14.06.423,t1_Paradigm,2021.1.4,60.04792755890366,
T,left,Pretarget,0,10,10,10,833.0934161855839,835.0948841744103,left,1,2,1.0798408181872219,H18I08,2023-01-05_09h14.06.423,t1_Paradigm,2021.1.4,60.04792755890366,
K,left,Distractor,0,11,11,11,836.5932484061923,838.5948700590525,left,1,2,1.1958449757657945,H18I08,2023-01-05_09h14.06.423,t1_Paradigm,2021.1.4,60.04792755890366,
T,right,Target,0,12,12,12,840.0932593136095,842.09336485737,right,1,2,0.8655343435239047,H18I08,2023-01-05_09h14.06.423,t1_Paradigm,2021.1.4,60.04792755890366,
T,left,Lure,0,13,13,13,843.5932063811924,845.5933786518872,left,1,2,0.8530002983752638,H18I08,2023-01-05_09h14.06.423,t1_Paradigm,2021.1.4,60.04792755890366,
J,left,Distractor,0,14,14,14,847.0929503815714,849.0940767163411,left,1,2,1.2085958826355636,H18I08,2023-01-05_09h14.06.423,t1_Paradigm,2021.1.4,60.04792755890366,
Q,left,Pretarget,0,15,15,15,850.5933715940919,852.5948302797042,left,1,2,1.2437214287929237,H18I08,2023-01-05_09h14.06.423,t1_Paradigm,2021.1.4,60.04792755890366,
M,left,Distractor,0,16,16,16,854.0932872232515,856.1058212684002,left,1,2,1.092750201234594,H18I08,2023-01-05_09h14.06.423,t1_Paradigm,2021.1.4,60.04792755890366,
Q,right,Target,0,17,17,17,857.5932650880422,859.5947629113216,right,1,2,0.6118712688330561,H18I08,2023-01-05_09h14.06.423,t1_Paradigm,2021.1.4,60.04792755890366,
R,left,Distractor,0,18,18,18,861.0933318147436,863.0952085049357,left,1,2,0.7278808797709644,H18I08,2023-01-05_09h14.06.423,t1_Paradigm,2021.1.4,60.04792755890366,
W,left,Distractor,0,19,19,19,864.5933260403108,866.5954125348944,left,1,2,0.7150035770609975,H18I08,2023-01-05_09h14.06.423,t1_Paradigm,2021.1.4,60.04792755890366,
C,left,Pretarget,0,20,20,20,868.0931932283565,870.0955094171222,left,1,2,0.863194736186415,H18I08,2023-01-05_09h14.06.423,t1_Paradigm,2021.1.4,60.04792755890366,
T,left,Distractor,0,21,21,21,871.5932105516549,873.5949358234648,left,1,2,0.6595902079716325,H18I08,2023-01-05_09h14.06.423,t1_Paradigm,2021.1.4,60.04792755890366,
C,right,Target,0,22,22,22,875.0932246670127,877.1094995811582,right,1,2,0.7450129764620215,H18I08,2023-01-05_09h14.06.423,t1_Paradigm,2021.1.4,60.04792755890366,
F,left,Pretarget,0,23,23,23,878.5932092685252,880.5949906806927,left,1,2,0.9395708956290036,H18I08,2023-01-05_09h14.06.423,t1_Paradigm,2021.1.4,60.04792755890366,
C,right,Target,0,24,24,24,882.0932018901221,884.0948591518681,right,1,2,1.295824765227735,H18I08,2023-01-05_09h14.06.423,t1_Paradigm,2021.1.4,60.04792755890366,
F,right,Target,0,25,25,25,885.5932577096391,887.593981759157,right,1,2,1.0926449783146381,H18I08,2023-01-05_09h14.06.423,t1_Paradigm,2021.1.4,60.04792755890366,
H,left,Distractor,0,26,26,26,889.0933183410671,891.0936705814674,left,1,2,1.288914374774322,H18I08,2023-01-05_09h14.06.423,t1_Paradigm,2021.1.4,60.04792755890366,
H,left,Lure,0,27,27,27,892.5932221005205,894.5932946016546,None,0,2,,H18I08,2023-01-05_09h14.06.423,t1_Paradigm,2021.1.4,60.04792755890366,
P,left,Distractor,0,28,28,28,896.0932792031672,898.0949874725193,None,0,2,,H18I08,2023-01-05_09h14.06.423,t1_Paradigm,2021.1.4,60.04792755890366,
G,left,Pretarget,0,29,29,29,899.5933481757529,901.595170971239,right,0,2,1.3795161668676883,H18I08,2023-01-05_09h14.06.423,t1_Paradigm,2021.1.4,60.04792755890366,
K,left,Distractor,0,30,30,30,903.0929699502885,905.0932006067596,left,1,2,1.2573920744471252,H18I08,2023-01-05_09h14.06.423,t1_Paradigm,2021.1.4,60.04792755890366,
G,right,Target,0,31,31,31,906.592963855248,908.5947292272467,right,1,2,0.8756088016089052,H18I08,2023-01-05_09h14.06.423,t1_Paradigm,2021.1.4,60.04792755890366,
M,left,Pretarget,0,32,32,32,910.0930039554369,912.0938139797654,left,1,2,1.0727263977751136,H18I08,2023-01-05_09h14.06.423,t1_Paradigm,2021.1.4,60.04792755890366,
B,left,Distractor,0,33,33,33,913.5931887372863,915.594383723801,left,1,2,1.0440589119680226,H18I08,2023-01-05_09h14.06.423,t1_Paradigm,2021.1.4,60.04792755890366,
M,right,Target,0,34,34,34,917.0933263611514,919.0950426505879,right,1,2,0.8075513523072004,H18I08,2023-01-05_09h14.06.423,t1_Paradigm,2021.1.4,60.04792755890366,
M,left,Lure,0,35,35,35,920.5930453387555,922.5932124764659,left,1,2,0.957317006541416,H18I08,2023-01-05_09h14.06.423,t1_Paradigm,2021.1.4,60.04792755890366,
T,left,Distractor,0,36,36,36,924.0929895192385,926.0931354840286,left,1,2,1.233484003227204,H18I08,2023-01-05_09h14.06.423,t1_Paradigm,2021.1.4,60.04792755890366,
F,left,Distractor,0,37,37,37,927.5932127973065,929.5951379286125,left,1,2,1.011449414305389,H18I08,2023-01-05_09h14.06.423,t1_Paradigm,2021.1.4,60.04792755890366,
X,left,Distractor,0,38,38,38,931.0932314037345,933.0940917939879,left,1,2,1.192521148826927,H18I08,2023-01-05_09h14.06.423,t1_Paradigm,2021.1.4,60.04792755890366,
C,left,Distractor,0,39,39,39,934.5933478549123,936.5930719652679,left,1,2,0.9094229098409414,H18I08,2023-01-05_09h14.06.423,t1_Paradigm,2021.1.4,60.04792755890366,
R,left,Distractor,0,40,40,40,938.0929045067169,940.0934745715931,left,1,2,0.8971406938508153,H18I08,2023-01-05_09h14.06.423,t1_Paradigm,2021.1.4,60.04792755890366,
B,left,Pretarget,0,41,41,41,941.593291393714,943.5926286173053,left,1,2,0.8058559149503708,H18I08,2023-01-05_09h14.06.423,t1_Paradigm,2021.1.4,60.04792755890366,
H,left,Distractor,0,42,42,42,945.0930052385665,947.0950195528567,left,1,2,1.0313654283527285,H18I08,2023-01-05_09h14.06.423,t1_Paradigm,2021.1.4,60.04792755890366,
B,right,Target,0,43,43,43,948.5930796645116,950.5949156130664,right,1,2,0.5396138830110431,H18I08,2023-01-05_09h14.06.423,t1_Paradigm,2021.1.4,60.04792755890366,
W,left,Pretarget,0,44,44,44,952.0932317245752,954.0950073623098,left,1,2,0.6235539058689028,H18I08,2023-01-05_09h14.06.423,t1_Paradigm,2021.1.4,60.04792755890366,
L,left,Pretarget,0,45,45,45,955.5929381910246,957.593817187706,left,1,2,0.9967746592592448,H18I08,2023-01-05_09h14.06.423,t1_Paradigm,2021.1.4,60.04792755890366,
W,right,Target,0,46,46,46,959.092937870184,961.0946025105659,right,1,2,0.5837940580677241,H18I08,2023-01-05_09h14.06.423,t1_Paradigm,2021.1.4,60.04792755890366,
L,right,Target,0,47,47,47,962.5932230630424,964.5944552624132,right,1,2,0.8444541397038847,H18I08,2023-01-05_09h14.06.423,t1_Paradigm,2021.1.4,60.04792755890366,
W,right,Target,0,48,48,48,966.0931839251425,968.0942509118468,right,1,2,0.6563003859482706,H18I08,2023-01-05_09h14.06.423,t1_Paradigm,2021.1.4,60.04792755890366,
X,left,Distractor,0,49,49,49,969.5931608274113,971.5949714325834,left,1,2,1.3956476827152073,H18I08,2023-01-05_09h14.06.423,t1_Paradigm,2021.1.4,60.04792755890366,
R,left,Distractor,0,50,50,50,973.0932115141768,975.095229677856,left,1,2,1.095357998739928,H18I08,2023-01-05_09h14.06.423,t1_Paradigm,2021.1.4,60.04792755890366,
V,left,Pretarget,0,51,51,51,976.5931175192818,978.5936811678112,left,1,2,1.324864701833576,H18I08,2023-01-05_09h14.06.423,t1_Paradigm,2021.1.4,60.04792755890366,
Z,left,Distractor,0,52,52,52,980.0932041357737,982.0937703507952,left,1,2,0.8006021447945386,H18I08,2023-01-05_09h14.06.423,t1_Paradigm,2021.1.4,60.04792755890366,
V,right,Target,0,53,53,53,983.5931941908784,985.6059159049764,right,1,2,0.4884703850839287,H18I08,2023-01-05_09h14.06.423,t1_Paradigm,2021.1.4,60.04792755890366,
V,left,Lure,0,54,54,54,987.0929904817604,989.09317975468,left,1,2,0.953175135422498,H18I08,2023-01-05_09h14.06.423,t1_Paradigm,2021.1.4,60.04792755890366,
N,left,Distractor,0,55,55,55,990.5931900204159,992.5937318545766,left,1,2,0.8128176338505,H18I08,2023-01-05_09h14.06.423,t1_Paradigm,2021.1.4,60.04792755890366,
B,left,Distractor,0,56,56,56,994.0931977196597,996.0943208464887,left,1,2,0.8963293863926083,H18I08,2023-01-05_09h14.06.423,t1_Paradigm,2021.1.4,60.04792755890366,
V,left,Lure,0,57,57,57,997.5931868124753,999.5949666204397,None,0,2,,H18I08,2023-01-05_09h14.06.423,t1_Paradigm,2021.1.4,60.04792755890366,
J,left,Distractor,0,58,58,58,1001.0931916243862,1003.0936522956472,left,1,2,0.9686737093143165,H18I08,2023-01-05_09h14.06.423,t1_Paradigm,2021.1.4,60.04792755890366,
H,left,Distractor,0,59,59,59,1004.5930395643227,1006.5937851076014,left,1,2,0.9084078930318356,H18I08,2023-01-05_09h14.06.423,t1_Paradigm,2021.1.4,60.04792755890366,
X,left,Pretarget,0,60,60,60,1008.0930023514666,1010.0932012484409,left,1,2,0.673263099277392,H18I08,2023-01-05_09h14.06.423,t1_Paradigm,2021.1.4,60.04792755890366,
P,left,Distractor,0,61,61,61,1011.5929920857307,1013.5950157032348,left,1,2,1.1075070817023516,H18I08,2023-01-05_09h14.06.423,t1_Paradigm,2021.1.4,60.04792755890366,
X,right,Target,0,62,62,62,1015.0931495993864,1017.0935011981055,right,1,2,0.64933577994816,H18I08,2023-01-05_09h14.06.423,t1_Paradigm,2021.1.4,60.04792755890366,
Q,left,Distractor,0,63,63,63,1018.5928804466967,1020.5937437242828,left,1,2,0.556713578524068,H18I08,2023-01-05_09h14.06.423,t1_Paradigm,2021.1.4,60.04792755890366,
B,left,Pretarget,0,0,0,0,1028.7002354683354,1030.6939785510767,None,0,2,,H18I08,2023-01-05_09h14.06.423,t1_Paradigm,2021.1.4,60.04792755890366,
F,left,Distractor,0,1,1,1,1032.1931540905498,1034.1949884349015,None,0,2,,H18I08,2023-01-05_09h14.06.423,t1_Paradigm,2021.1.4,60.04792755890366,
B,right,Target,0,2,2,2,1035.6927643164527,1037.6939971575048,right,1,2,0.4965234713163227,H18I08,2023-01-05_09h14.06.423,t1_Paradigm,2021.1.4,60.04792755890366,
V,left,Distractor,0,3,3,3,1039.1929247174412,1041.1945717134513,left,1,2,0.7078317329287529,H18I08,2023-01-05_09h14.06.423,t1_Paradigm,2021.1.4,60.04792755890366,
G,left,Pretarget,0,4,4,4,1042.6930953839328,1044.694915292086,left,1,2,0.5514492220245302,H18I08,2023-01-05_09h14.06.423,t1_Paradigm,2021.1.4,60.04792755890366,
B,left,Lure,0,5,5,5,1046.193033789983,1048.1939153531566,left,1,2,0.5245339553803205,H18I08,2023-01-05_09h14.06.423,t1_Paradigm,2021.1.4,60.04792755890366,
G,right,Target,0,6,6,6,1049.692951023113,1051.6950779387262,right,1,2,0.5432434338144958,H18I08,2023-01-05_09h14.06.423,t1_Paradigm,2021.1.4,60.04792755890366,
Y,left,Pretarget,0,7,7,7,1053.1930055592675,1055.1941261198372,left,1,2,0.676586284302175,H18I08,2023-01-05_09h14.06.423,t1_Paradigm,2021.1.4,60.04792755890366,
P,left,Distractor,0,8,8,8,1056.6930453388486,1058.6938242453616,left,1,2,0.7127085612155497,H18I08,2023-01-05_09h14.06.423,t1_Paradigm,2021.1.4,60.04792755890366,
Y,right,Target,0,9,9,9,1060.192809549626,1062.1938139798585,right,1,2,0.5726407438050956,H18I08,2023-01-05_09h14.06.423,t1_Paradigm,2021.1.4,60.04792755890366,
X,left,Distractor,0,10,10,10,1063.6930764566641,1065.6939981200267,left,1,2,0.7362788282334805,H18I08,2023-01-05_09h14.06.423,t1_Paradigm,2021.1.4,60.04792755890366,
Y,right,Target,0,11,11,11,1067.1930706822313,1069.1944722649641,right,1,2,0.4358688434585929,H18I08,2023-01-05_09h14.06.423,t1_Paradigm,2021.1.4,60.04792755890366,
N,left,Distractor,0,12,12,12,1070.693062662147,1072.693626631517,left,1,2,0.8085211359430104,H18I08,2023-01-05_09h14.06.423,t1_Paradigm,2021.1.4,60.04792755890366,
Y,right,Target,0,13,13,13,1074.192999464227,1076.1922394847497,right,1,2,0.5102695054374635,H18I08,2023-01-05_09h14.06.423,t1_Paradigm,2021.1.4,60.04792755890366,
Y,left,Lure,0,14,14,14,1077.693067474058,1079.6930395644158,left,1,2,0.8171587230172008,H18I08,2023-01-05_09h14.06.423,t1_Paradigm,2021.1.4,60.04792755890366,
K,left,Distractor,0,15,15,15,1081.1930296195205,1083.1935406567063,left,1,2,0.4532736213877797,H18I08,2023-01-05_09h14.06.423,t1_Paradigm,2021.1.4,60.04792755890366,
T,left,Pretarget,0,16,16,16,1084.692808587104,1086.6945466909092,left,1,2,0.7119736042805016,H18I08,2023-01-05_09h14.06.423,t1_Paradigm,2021.1.4,60.04792755890366,
J,left,Distractor,0,17,17,17,1088.192679303931,1090.1942849168554,left,1,2,0.4763569110073149,H18I08,2023-01-05_09h14.06.423,t1_Paradigm,2021.1.4,60.04792755890366,
T,right,Target,0,18,18,18,1091.692942682188,1093.693252576748,right,1,2,0.5931768675800413,H18I08,2023-01-05_09h14.06.423,t1_Paradigm,2021.1.4,60.04792755890366,
S,left,Pretarget,0,19,19,19,1095.1929725168739,1097.1938354736194,left,1,2,0.628749931929633,H18I08,2023-01-05_09h14.06.423,t1_Paradigm,2021.1.4,60.04792755890366,
R,left,Distractor,0,20,20,20,1098.6928089079447,1100.693870440824,left,1,2,0.5683564364444464,H18I08,2023-01-05_09h14.06.423,t1_Paradigm,2021.1.4,60.04792755890366,
S,right,Target,0,21,21,21,1102.192100577755,1104.193168847356,right,1,2,0.41308999457396567,H18I08,2023-01-05_09h14.06.423,t1_Paradigm,2021.1.4,60.04792755890366,
Q,left,Distractor,0,22,22,22,1105.6930055592675,1107.6939371677581,left,1,2,0.7524655219167471,H18I08,2023-01-05_09h14.06.423,t1_Paradigm,2021.1.4,60.04792755890366,
D,left,Distractor,0,23,23,23,1109.1927495596465,1111.1941277238075,left,1,2,0.6442635834682733,H18I08,2023-01-05_09h14.06.423,t1_Paradigm,2021.1.4,60.04792755890366,
F,left,Distractor,0,24,24,24,1112.6929564767051,1114.6928624818102,left,1,2,0.7454646653495729,H18I08,2023-01-05_09h14.06.423,t1_Paradigm,2021.1.4,60.04792755890366,
Z,left,Distractor,0,25,25,25,1116.1928140406962,1118.194100135006,left,1,2,0.5083812663797289,H18I08,2023-01-05_09h14.06.423,t1_Paradigm,2021.1.4,60.04792755890366,
P,left,Distractor,0,26,26,26,1119.693063624436,1121.6949746406171,left,1,2,0.6874162305612117,H18I08,2023-01-05_09h14.06.423,t1_Paradigm,2021.1.4,60.04792755890366,
H,left,Distractor,0,27,27,27,1123.1928371384274,1125.1933991832193,left,1,2,0.7250443508382887,H18I08,2023-01-05_09h14.06.423,t1_Paradigm,2021.1.4,60.04792755890366,
Z,left,Pretarget,0,28,28,28,1126.6927999255713,1128.6932346117683,left,1,2,0.8570375882554799,H18I08,2023-01-05_09h14.06.423,t1_Paradigm,2021.1.4,60.04792755890366,
J,left,Pretarget,0,29,29,29,1130.1930556043517,1132.1920197356958,left,1,2,0.6222979670856148,H18I08,2023-01-05_09h14.06.423,t1_Paradigm,2021.1.4,60.04792755890366,
Z,right,Target,0,30,30,30,1133.6928117950447,1135.6935159550048,right,1,2,0.6568864907603711,H18I08,2023-01-05_09h14.06.423,t1_Paradigm,2021.1.4,60.04792755890366,
J,right,Target,0,31,31,31,1137.1929192636162,1139.193622781895,right,1,2,0.7567094080150127,H18I08,2023-01-05_09h14.06.423,t1_Paradigm,2021.1.4,60.04792755890366,
V,left,Pretarget,0,32,32,32,1140.693064586958,1142.6933638949413,left,1,2,0.6168392046820372,H18I08,2023-01-05_09h14.06.423,t1_Paradigm,2021.1.4,60.04792755890366,
Z,left,Lure,0,33,33,33,1144.193004917819,1146.1941479344387,left,1,2,0.9242927124723792,H18I08,2023-01-05_09h14.06.423,t1_Paradigm,2021.1.4,60.04792755890366,
V,right,Target,0,34,34,34,1147.692920226138,1149.6936420300044,right,1,2,0.5446684353519231,H18I08,2023-01-05_09h14.06.423,t1_Paradigm,2021.1.4,60.04792755890366,
X,left,Distractor,0,35,35,35,1151.1929166973568,1153.1946217585355,left,1,2,0.6282013608142734,H18I08,2023-01-05_09h14.06.423,t1_Paradigm,2021.1.4,60.04792755890366,
S,left,Distractor,0,36,36,36,1154.6929702712223,1156.6934306216426,left,1,2,0.697026488604024,H18I08,2023-01-05_09h14.06.423,t1_Paradigm,2021.1.4,60.04792755890366,
Q,left,Distractor,0,37,37,37,1158.1926751334686,1160.1929080355912,left,1,2,0.6533432356081903,H18I08,2023-01-05_09h14.06.423,t1_Paradigm,2021.1.4,60.04792755890366,
P,left,Distractor,0,38,38,38,1161.6929750831332,1163.693056246033,left,1,2,0.6893294921610504,H18I08,2023-01-05_09h14.06.423,t1_Paradigm,2021.1.4,60.04792755890366,
S,left,Lure,0,39,39,39,1165.1930251282174,1167.19300972973,left,1,2,1.077462714863941,H18I08,2023-01-05_09h14.06.423,t1_Paradigm,2021.1.4,60.04792755890366,
K,left,Pretarget,0,40,40,40,1168.6927014393732,1170.6930395644158,left,1,2,0.8892184947617352,H18I08,2023-01-05_09h14.06.423,t1_Paradigm,2021.1.4,60.04792755890366,
L,left,Distractor,0,41,41,41,1172.193136125803,1174.1944369766861,left,1,2,0.5878836389165372,H18I08,2023-01-05_09h14.06.423,t1_Paradigm,2021.1.4,60.04792755890366,
K,right,Target,0,42,42,42,1175.6929580806755,1177.6950760139152,right,1,2,0.6872343360446393,H18I08,2023-01-05_09h14.06.423,t1_Paradigm,2021.1.4,60.04792755890366,
B,left,Distractor,0,43,43,43,1179.192697910592,1181.1928284768946,left,1,2,0.597589174984023,H18I08,2023-01-05_09h14.06.423,t1_Paradigm,2021.1.4,60.04792755890366,
N,left,Distractor,0,44,44,44,1182.692933378974,1184.694560806267,left,1,2,0.6316381099168211,H18I08,2023-01-05_09h14.06.423,t1_Paradigm,2021.1.4,60.04792755890366,
S,left,Pretarget,0,45,45,45,1186.192649469478,1188.1936417091638,left,1,2,0.9407520876266062,H18I08,2023-01-05_09h14.06.423,t1_Paradigm,2021.1.4,60.04792755890366,
Z,left,Distractor,0,46,46,46,1189.6929391534068,1191.6944655282423,left,1,2,0.6077836127951741,H18I08,2023-01-05_09h14.06.423,t1_Paradigm,2021.1.4,60.04792755890366,
S,right,Target,0,47,47,47,1193.192993689794,1195.193854400888,right,1,2,0.7085577074903995,H18I08,2023-01-05_09h14.06.423,t1_Paradigm,2021.1.4,60.04792755890366,
C,left,Distractor,0,48,48,48,1196.6928974492475,1198.6932557846885,left,1,2,0.7131724406499416,H18I08,2023-01-05_09h14.06.423,t1_Paradigm,2021.1.4,60.04792755890366,
T,left,Pretarget,0,49,49,49,1200.1926145020407,1202.193500877358,left,1,2,0.8129154783673584,H18I08,2023-01-05_09h14.06.423,t1_Paradigm,2021.1.4,60.04792755890366,
S,left,Lure,0,50,50,50,1203.692903544521,1205.6935833233874,left,1,2,1.120649687713012,H18I08,2023-01-05_09h14.06.423,t1_Paradigm,2021.1.4,60.04792755890366,
T,right,Target,0,51,51,51,1207.1927822814323,1209.1949643748812,right,1,2,0.6432572284247726,H18I08,2023-01-05_09h14.06.423,t1_Paradigm,2021.1.4,60.04792755890366,
N,left,Pretarget,0,52,52,52,1210.6926757751498,1212.7056489977986,left,1,2,0.9086209053639323,H18I08,2023-01-05_09h14.06.423,t1_Paradigm,2021.1.4,60.04792755890366,
B,left,Distractor,0,53,53,53,1214.1929029028397,1216.192861840129,left,1,2,0.6053666926454753,H18I08,2023-01-05_09h14.06.423,t1_Paradigm,2021.1.4,60.04792755890366,
N,right,Target,0,54,54,54,1217.6928875043523,1219.6944671322126,right,1,2,0.864104530075565,H18I08,2023-01-05_09h14.06.423,t1_Paradigm,2021.1.4,60.04792755890366,
N,left,Lure,0,55,55,55,1221.192756617209,1223.1927694492042,left,1,2,0.8054847475141287,H18I08,2023-01-05_09h14.06.423,t1_Paradigm,2021.1.4,60.04792755890366,
X,left,Distractor,0,56,56,56,1224.6929032236803,1226.6934258097317,left,1,2,1.2728325831703842,H18I08,2023-01-05_09h14.06.423,t1_Paradigm,2021.1.4,60.04792755890366,
W,left,Distractor,0,57,57,57,1228.192898090696,1230.1932631630916,left,1,2,1.229220227105543,H18I08,2023-01-05_09h14.06.423,t1_Paradigm,2021.1.4,60.04792755890366,
S,left,Distractor,0,58,58,58,1231.6929580806755,1233.694859472569,left,1,2,0.8636592570692301,H18I08,2023-01-05_09h14.06.423,t1_Paradigm,2021.1.4,60.04792755890366,
L,left,Distractor,0,59,59,59,1235.192575043533,1237.1948001242708,left,1,2,0.8354383273981512,H18I08,2023-01-05_09h14.06.423,t1_Paradigm,2021.1.4,60.04792755890366,
K,left,Pretarget,0,60,60,60,1238.692729669856,1240.6936481252778,left,1,2,0.664737471845001,H18I08,2023-01-05_09h14.06.423,t1_Paradigm,2021.1.4,60.04792755890366,
V,left,Pretarget,0,61,61,61,1242.1928964867257,1244.1947690066881,left,1,2,0.7956079032737762,H18I08,2023-01-05_09h14.06.423,t1_Paradigm,2021.1.4,60.04792755890366,
K,right,Target,0,62,62,62,1245.692816928029,1247.6931919450872,right,1,2,0.6091149400454015,H18I08,2023-01-05_09h14.06.423,t1_Paradigm,2021.1.4,60.04792755890366,
V,right,Target,0,63,63,63,1249.192789980676,1251.194373778766,right,1,2,0.7719195813406259,H18I08,2023-01-05_09h14.06.423,t1_Paradigm,2021.1.4,60.04792755890366,
R,left,Distractor,0,0,0,0,1312.6709116222337,1314.6593791202176,None,0,3,,H18I08,2023-01-05_09h14.06.423,t1_Paradigm,2021.1.4,60.04792755890366,
P,left,Lure,0,1,1,1,1316.1591455764137,1318.1605179663748,None,0,3,,H18I08,2023-01-05_09h14.06.423,t1_Paradigm,2021.1.4,60.04792755890366,
V,left,Distractor,0,2,2,2,1319.6594529044814,1321.661568271229,None,0,3,,H18I08,2023-01-05_09h14.06.423,t1_Paradigm,2021.1.4,60.04792755890366,
P,left,Pretarget,0,3,3,3,1323.1593091853429,1325.160966126481,left,1,3,0.9652161081321537,H18I08,2023-01-05_09h14.06.423,t1_Paradigm,2021.1.4,60.04792755890366,
Z,left,Distractor,0,4,4,4,1326.6593909899238,1328.6606857457664,left,1,3,0.6173778306692839,H18I08,2023-01-05_09h14.06.423,t1_Paradigm,2021.1.4,60.04792755890366,
L,left,Pretarget,0,5,5,5,1330.1594930049032,1332.160185615765,left,1,3,0.6859273896552622,H18I08,2023-01-05_09h14.06.423,t1_Paradigm,2021.1.4,60.04792755890366,
P,right,Target,0,6,6,6,1333.659415049944,1335.6608580162283,right,1,3,0.961448612390086,H18I08,2023-01-05_09h14.06.423,t1_Paradigm,2021.1.4,60.04792755890366,
S,left,Distractor,0,7,7,7,1337.1592527243774,1339.1599007437471,left,1,3,0.7583775771781802,H18I08,2023-01-05_09h14.06.423,t1_Paradigm,2021.1.4,60.04792755890366,
L,right,Target,0,8,8,8,1340.659490438411,1342.659614267759,right,1,3,0.7626458446029574,H18I08,2023-01-05_09h14.06.423,t1_Paradigm,2021.1.4,60.04792755890366,
D,left,Distractor,0,9,9,9,1344.159318488557,1346.161119790515,left,1,3,0.8770277076400816,H18I08,2023-01-05_09h14.06.423,t1_Paradigm,2021.1.4,60.04792755890366,
G,left,Distractor,0,10,10,10,1347.6594474508893,1349.6608567330986,left,1,3,0.673411630326882,H18I08,2023-01-05_09h14.06.423,t1_Paradigm,2021.1.4,60.04792755890366,
M,left,Pretarget,0,11,11,11,1351.1591879222542,1353.1595847541466,left,1,3,0.7108495151624084,H18I08,2023-01-05_09h14.06.423,t1_Paradigm,2021.1.4,60.04792755890366,
Y,left,Distractor,0,12,12,12,1354.6592123033479,1356.6603720015846,right,0,3,0.7779233863111585,H18I08,2023-01-05_09h14.06.423,t1_Paradigm,2021.1.4,60.04792755890366,
V,left,Distractor,0,13,13,13,1358.1592469499446,1360.15944777173,left,1,3,0.5267975323367864,H18I08,2023-01-05_09h14.06.423,t1_Paradigm,2021.1.4,60.04792755890366,
M,right,Target,0,14,14,14,1361.6595074408688,1363.661036061123,right,1,3,0.7690333281643689,H18I08,2023-01-05_09h14.06.423,t1_Paradigm,2021.1.4,60.04792755890366,
S,left,Pretarget,0,15,15,15,1365.1591866391245,1367.161182988435,None,0,3,,H18I08,2023-01-05_09h14.06.423,t1_Paradigm,2021.1.4,60.04792755890366,
Q,left,Distractor,0,16,16,16,1368.6591840726323,1370.6607341868803,left,1,3,0.8095258872490376,H18I08,2023-01-05_09h14.06.423,t1_Paradigm,2021.1.4,60.04792755890366,
R,left,Pretarget,0,17,17,17,1372.1595847541466,1374.1595427291468,left,1,3,0.7185182808898389,H18I08,2023-01-05_09h14.06.423,t1_Paradigm,2021.1.4,60.04792755890366,
S,right,Target,0,18,18,18,1375.6594436012674,1377.6600537663326,right,1,3,0.6261665155179799,H18I08,2023-01-05_09h14.06.423,t1_Paradigm,2021.1.4,60.04792755890366,
F,left,Distractor,0,19,19,19,1379.1592209648807,1381.1611056751572,left,1,3,0.8369756094180048,H18I08,2023-01-05_09h14.06.423,t1_Paradigm,2021.1.4,60.04792755890366,
R,right,Target,0,20,20,20,1382.6593678921927,1384.6608910588548,right,1,3,0.6012366907671094,H18I08,2023-01-05_09h14.06.423,t1_Paradigm,2021.1.4,60.04792755890366,
P,left,Distractor,0,21,21,21,1386.1593775162473,1388.1609356503468,left,1,3,0.4133774330839515,H18I08,2023-01-05_09h14.06.423,t1_Paradigm,2021.1.4,60.04792755890366,
L,left,Distractor,0,22,22,22,1389.6594205035362,1391.6609901865013,left,1,3,0.5775977722369134,H18I08,2023-01-05_09h14.06.423,t1_Paradigm,2021.1.4,60.04792755890366,
R,right,Target,0,23,23,23,1393.1594622079283,1395.1599777361844,right,1,3,0.35794481565244496,H18I08,2023-01-05_09h14.06.423,t1_Paradigm,2021.1.4,60.04792755890366,
H,left,Pretarget,0,24,24,24,1396.6591568046715,1398.6603033500724,left,1,3,1.0017393871676177,H18I08,2023-01-05_09h14.06.423,t1_Paradigm,2021.1.4,60.04792755890366,
G,left,Pretarget,0,25,25,25,1400.1596238918137,1402.1604416156188,left,1,3,0.6217606242280453,H18I08,2023-01-05_09h14.06.423,t1_Paradigm,2021.1.4,60.04792755890366,
T,left,Distractor,0,26,26,26,1403.6595093656797,1405.6584924240597,left,1,3,0.5637481193989515,H18I08,2023-01-05_09h14.06.423,t1_Paradigm,2021.1.4,60.04792755890366,
H,right,Target,0,27,27,27,1407.1593287542928,1409.1610039810184,right,1,3,0.7891809609718621,H18I08,2023-01-05_09h14.06.423,t1_Paradigm,2021.1.4,60.04792755890366,
G,right,Target,0,28,28,28,1410.6592713308055,1412.6595151401125,right,1,3,0.602462153416127,H18I08,2023-01-05_09h14.06.423,t1_Paradigm,2021.1.4,60.04792755890366,
D,left,Distractor,0,29,29,29,1414.1593775162473,1416.1720078017097,left,1,3,0.4660781023558229,H18I08,2023-01-05_09h14.06.423,t1_Paradigm,2021.1.4,60.04792755890366,
N,left,Pretarget,0,30,30,30,1417.6593338870443,1419.661105033476,left,1,3,0.6411174808163196,H18I08,2023-01-05_09h14.06.423,t1_Paradigm,2021.1.4,60.04792755890366,
V,left,Distractor,0,31,31,31,1421.1593868194614,1423.1604996807873,left,1,3,0.7576897784601897,H18I08,2023-01-05_09h14.06.423,t1_Paradigm,2021.1.4,60.04792755890366,
R,left,Distractor,0,32,32,32,1424.6594185787253,1426.660525986459,left,1,3,0.601447457447648,H18I08,2023-01-05_09h14.06.423,t1_Paradigm,2021.1.4,60.04792755890366,
N,right,Target,0,33,33,33,1428.1594208243769,1430.160549405031,right,1,3,0.6375405411235988,H18I08,2023-01-05_09h14.06.423,t1_Paradigm,2021.1.4,60.04792755890366,
Z,left,Distractor,0,34,34,34,1431.6594009348191,1433.6613992087077,left,1,3,0.5288009394425899,H18I08,2023-01-05_09h14.06.423,t1_Paradigm,2021.1.4,60.04792755890366,
N,left,Lure,0,35,35,35,1435.159082057653,1437.1596992802806,left,1,3,0.8384317285381258,H18I08,2023-01-05_09h14.06.423,t1_Paradigm,2021.1.4,60.04792755890366,
Y,left,Pretarget,0,36,36,36,1438.6590538271703,1440.6605850139167,left,1,3,0.8735200613737106,H18I08,2023-01-05_09h14.06.423,t1_Paradigm,2021.1.4,60.04792755890366,
Y,left,Lure,0,37,37,37,1442.1593986891676,1444.1592453457415,left,1,3,0.6708083241246641,H18I08,2023-01-05_09h14.06.423,t1_Paradigm,2021.1.4,60.04792755890366,
B,left,Distractor,0,38,38,38,1445.659059601603,1447.659876683727,left,1,3,0.7701211669482291,H18I08,2023-01-05_09h14.06.423,t1_Paradigm,2021.1.4,60.04792755890366,
Y,right,Target,0,39,39,39,1449.1592815965414,1451.1605811642949,right,1,3,0.8215771254617721,H18I08,2023-01-05_09h14.06.423,t1_Paradigm,2021.1.4,60.04792755890366,
J,left,Distractor,0,40,40,40,1452.659341586288,1454.660370718455,left,1,3,0.5696739691775292,H18I08,2023-01-05_09h14.06.423,t1_Paradigm,2021.1.4,60.04792755890366,
X,left,Distractor,0,41,41,41,1456.1594041427597,1458.1613305571955,left,1,3,0.636714476859197,H18I08,2023-01-05_09h14.06.423,t1_Paradigm,2021.1.4,60.04792755890366,
W,left,Pretarget,0,42,42,42,1459.659267160343,1461.659783651121,left,1,3,1.1862449834588915,H18I08,2023-01-05_09h14.06.423,t1_Paradigm,2021.1.4,60.04792755890366,
S,left,Pretarget,0,43,43,43,1463.1593730249442,1465.1594657367095,left,1,3,0.5987652342300862,H18I08,2023-01-05_09h14.06.423,t1_Paradigm,2021.1.4,60.04792755890366,
R,left,Distractor,0,44,44,44,1466.6594294861425,1468.6605859764386,left,1,3,0.5854519614949822,H18I08,2023-01-05_09h14.06.423,t1_Paradigm,2021.1.4,60.04792755890366,
W,right,Target,0,45,45,45,1470.1593444736209,1472.1603181068785,right,1,3,0.6856954500544816,H18I08,2023-01-05_09h14.06.423,t1_Paradigm,2021.1.4,60.04792755890366,
S,right,Target,0,46,46,46,1473.6594006139785,1475.6721187992953,right,1,3,0.7259275179821998,H18I08,2023-01-05_09h14.06.423,t1_Paradigm,2021.1.4,60.04792755890366,
D,left,Distractor,0,47,47,47,1477.1589922332205,1479.160470166942,left,1,3,0.6296946927905083,H18I08,2023-01-05_09h14.06.423,t1_Paradigm,2021.1.4,60.04792755890366,
T,left,Distractor,0,48,48,48,1480.6591157419607,1482.67221407732,left,1,3,0.6701516429893672,H18I08,2023-01-05_09h14.06.423,t1_Paradigm,2021.1.4,60.04792755890366,
S,right,Target,0,49,49,49,1484.1594779270235,1486.172156332992,right,1,3,0.6898257725406438,H18I08,2023-01-05_09h14.06.423,t1_Paradigm,2021.1.4,60.04792755890366,
K,left,Distractor,0,50,50,50,1487.6592408546712,1489.660830427194,left,1,3,0.6572894176933914,H18I08,2023-01-05_09h14.06.423,t1_Paradigm,2021.1.4,60.04792755890366,
S,left,Lure,0,51,51,51,1491.1592902580742,1493.1612359206192,left,1,3,0.46876545855775476,H18I08,2023-01-05_09h14.06.423,t1_Paradigm,2021.1.4,60.04792755890366,
T,left,Pretarget,0,52,52,52,1494.6593836115208,1496.6603386381175,left,1,3,0.9215257973410189,H18I08,2023-01-05_09h14.06.423,t1_Paradigm,2021.1.4,60.04792755890366,
V,left,Distractor,0,53,53,53,1498.1593682130333,1500.1603367133066,left,1,3,0.6057500506285578,H18I08,2023-01-05_09h14.06.423,t1_Paradigm,2021.1.4,60.04792755890366,
B,left,Distractor,0,54,54,54,1501.6593720626552,1503.6607470188756,left,1,3,0.5294046881608665,H18I08,2023-01-05_09h14.06.423,t1_Paradigm,2021.1.4,60.04792755890366,
T,right,Target,0,55,55,55,1505.1586893964559,1507.1580834018532,right,1,3,0.43997093522921205,H18I08,2023-01-05_09h14.06.423,t1_Paradigm,2021.1.4,60.04792755890366,
Y,left,Pretarget,0,56,56,56,1508.6590300879907,1510.6609061365016,left,1,3,0.7617033289279789,H18I08,2023-01-05_09h14.06.423,t1_Paradigm,2021.1.4,60.04792755890366,
T,left,Lure,0,57,57,57,1512.159221606562,1514.1593088645022,left,1,3,0.6226797213312238,H18I08,2023-01-05_09h14.06.423,t1_Paradigm,2021.1.4,60.04792755890366,
P,left,Pretarget,0,58,58,58,1515.6593996514566,1517.660856412258,left,1,3,0.5452664098702371,H18I08,2023-01-05_09h14.06.423,t1_Paradigm,2021.1.4,60.04792755890366,
Y,right,Target,0,59,59,59,1519.1593441527802,1521.160687028896,right,1,3,0.9492388977669179,H18I08,2023-01-05_09h14.06.423,t1_Paradigm,2021.1.4,60.04792755890366,
R,left,Distractor,0,60,60,60,1522.659033616772,1524.6609481615014,left,1,3,0.5690445562358946,H18I08,2023-01-05_09h14.06.423,t1_Paradigm,2021.1.4,60.04792755890366,
P,right,Target,0,61,61,61,1526.1590352207422,1528.1606183773838,right,1,3,0.7013512167613953,H18I08,2023-01-05_09h14.06.423,t1_Paradigm,2021.1.4,60.04792755890366,
L,left,Distractor,0,62,62,62,1529.6593524937052,1531.6590762832202,left,1,3,0.6430538401473314,H18I08,2023-01-05_09h14.06.423,t1_Paradigm,2021.1.4,60.04792755890366,
V,left,Distractor,0,63,63,63,1533.1592687643133,1535.1602029390633,left,1,3,0.6777540028560907,H18I08,2023-01-05_09h14.06.423,t1_Paradigm,2021.1.4,60.04792755890366,
H,left,Lure,0,0,0,0,1545.3649540129118,1547.3611428881995,None,0,3,,H18I08,2023-01-05_09h14.06.423,t1_Paradigm,2021.1.4,60.04792755890366,
B,left,Distractor,0,1,1,1,1548.8592687644996,1550.8604682420846,None,0,3,,H18I08,2023-01-05_09h14.06.423,t1_Paradigm,2021.1.4,60.04792755890366,
T,left,Distractor,0,2,2,2,1552.3593152805697,1554.3602433600463,None,0,3,,H18I08,2023-01-05_09h14.06.423,t1_Paradigm,2021.1.4,60.04792755890366,
R,left,Distractor,0,3,3,3,1555.8589826091193,1557.8591394813266,left,1,3,0.4750323207117617,H18I08,2023-01-05_09h14.06.423,t1_Paradigm,2021.1.4,60.04792755890366,
H,left,Pretarget,0,4,4,4,1559.3591471805703,1561.360823369585,left,1,3,0.5094780875369906,H18I08,2023-01-05_09h14.06.423,t1_Paradigm,2021.1.4,60.04792755890366,
K,left,Distractor,0,5,5,5,1562.8592017167248,1564.8591330652125,left,1,3,0.610959550132975,H18I08,2023-01-05_09h14.06.423,t1_Paradigm,2021.1.4,60.04792755890366,
G,left,Distractor,0,6,6,6,1566.3590185390785,1568.359443280613,left,1,3,0.902502253651619,H18I08,2023-01-05_09h14.06.423,t1_Paradigm,2021.1.4,60.04792755890366,
H,right,Target,0,7,7,7,1569.8592565739527,1571.8610678205732,right,1,3,0.5848209443502128,H18I08,2023-01-05_09h14.06.423,t1_Paradigm,2021.1.4,60.04792755890366,
Y,left,Pretarget,0,8,8,8,1573.358826378826,1575.3593101478182,left,1,3,0.8148194367531687,H18I08,2023-01-05_09h14.06.423,t1_Paradigm,2021.1.4,60.04792755890366,
S,left,Distractor,0,9,9,9,1576.859165145317,1578.871923110215,left,1,3,0.678003586595878,H18I08,2023-01-05_09h14.06.423,t1_Paradigm,2021.1.4,60.04792755890366,
P,left,Distractor,0,10,10,10,1580.3589983284473,1582.3587253261358,left,1,3,0.6313849971629679,H18I08,2023-01-05_09h14.06.423,t1_Paradigm,2021.1.4,60.04792755890366,
Y,right,Target,0,11,11,11,1583.858950208174,1585.8598830997944,right,1,3,0.44218093855306506,H18I08,2023-01-05_09h14.06.423,t1_Paradigm,2021.1.4,60.04792755890366,
H,left,Lure,0,12,12,12,1587.359159691725,1589.3604124225676,left,1,3,0.44568248954601586,H18I08,2023-01-05_09h14.06.423,t1_Paradigm,2021.1.4,60.04792755890366,
Q,left,Distractor,0,13,13,13,1590.8588879727758,1592.8608621866442,left,1,3,0.6091515114530921,H18I08,2023-01-05_09h14.06.423,t1_Paradigm,2021.1.4,60.04792755890366,
V,left,Pretarget,0,14,14,14,1594.3589835716411,1596.3603405631147,left,1,3,0.6617812837939709,H18I08,2023-01-05_09h14.06.423,t1_Paradigm,2021.1.4,60.04792755890366,
G,left,Distractor,0,15,15,15,1597.8590746794362,1599.8595552402548,left,1,3,0.698350437451154,H18I08,2023-01-05_09h14.06.423,t1_Paradigm,2021.1.4,60.04792755890366,
Z,left,Pretarget,0,16,16,16,1601.3592687644996,1603.3605705779046,left,1,3,0.5254450321663171,H18I08,2023-01-05_09h14.06.423,t1_Paradigm,2021.1.4,60.04792755890366,
V,right,Target,0,17,17,17,1604.8588568549603,1606.86037585116,right,1,3,0.4821191520895809,H18I08,2023-01-05_09h14.06.423,t1_Paradigm,2021.1.4,60.04792755890366,
N,left,Distractor,0,18,18,18,1608.3592017167248,1610.3590974563267,left,1,3,0.6469862279482186,H18I08,2023-01-05_09h14.06.423,t1_Paradigm,2021.1.4,60.04792755890366,
Z,right,Target,0,19,19,19,1611.8593669296242,1613.8597679319791,right,1,3,0.410341365262866,H18I08,2023-01-05_09h14.06.423,t1_Paradigm,2021.1.4,60.04792755890366,
R,left,Distractor,0,20,20,20,1615.359182789456,1617.360728412401,left,1,3,0.6531905338633806,H18I08,2023-01-05_09h14.06.423,t1_Paradigm,2021.1.4,60.04792755890366,
P,left,Distractor,0,21,21,21,1618.8591648247093,1620.8606103572529,left,1,3,0.9134743148460984,H18I08,2023-01-05_09h14.06.423,t1_Paradigm,2021.1.4,60.04792755890366,
Z,right,Target,0,22,22,22,1622.3591173458844,1624.3593287542462,right,1,3,0.5989718304481357,H18I08,2023-01-05_09h14.06.423,t1_Paradigm,2021.1.4,60.04792755890366,
D,left,Pretarget,0,23,23,23,1625.8591462180484,1627.8604368036613,left,1,3,0.5854240518528968,H18I08,2023-01-05_09h14.06.423,t1_Paradigm,2021.1.4,60.04792755890366,
K,left,Distractor,0,24,24,24,1629.3593338872306,1631.3595074408222,left,1,3,0.6064840448088944,H18I08,2023-01-05_09h14.06.423,t1_Paradigm,2021.1.4,60.04792755890366,
W,left,Distractor,0,25,25,25,1632.858939942671,1634.8606851040386,left,1,3,0.48163153347559273,H18I08,2023-01-05_09h14.06.423,t1_Paradigm,2021.1.4,60.04792755890366,
D,right,Target,0,26,26,26,1636.3589152409695,1638.3612692840397,right,1,3,0.7887616730295122,H18I08,2023-01-05_09h14.06.423,t1_Paradigm,2021.1.4,60.04792755890366,
G,left,Pretarget,0,27,27,27,1639.8591824686155,1641.8593329247087,left,1,3,0.7627286114729941,H18I08,2023-01-05_09h14.06.423,t1_Paradigm,2021.1.4,60.04792755890366,
V,left,Distractor,0,28,28,28,1643.3590903985314,1645.360935008619,left,1,3,0.7489049432333559,H18I08,2023-01-05_09h14.06.423,t1_Paradigm,2021.1.4,60.04792755890366,
D,right,Target,0,29,29,29,1646.859097135486,1648.8597313605715,right,1,3,0.4824075528886169,H18I08,2023-01-05_09h14.06.423,t1_Paradigm,2021.1.4,60.04792755890366,
G,right,Target,0,30,30,30,1650.3591314612422,1652.3596967139747,right,1,3,0.8542167784180492,H18I08,2023-01-05_09h14.06.423,t1_Paradigm,2021.1.4,60.04792755890366,
B,left,Pretarget,0,31,31,31,1653.8591115714516,1655.8610877103638,left,1,3,0.6167160167824477,H18I08,2023-01-05_09h14.06.423,t1_Paradigm,2021.1.4,60.04792755890366,
N,left,Distractor,0,32,32,32,1657.3589239025023,1659.3591134962626,left,1,3,0.5908539420925081,H18I08,2023-01-05_09h14.06.423,t1_Paradigm,2021.1.4,60.04792755890366,
F,left,Distractor,0,33,33,33,1660.8590647345409,1662.8718470800668,left,1,3,0.6138127609156072,H18I08,2023-01-05_09h14.06.423,t1_Paradigm,2021.1.4,60.04792755890366,
B,right,Target,0,34,34,34,1664.3588770653587,1666.3601804829668,right,1,3,0.6138143646530807,H18I08,2023-01-05_09h14.06.423,t1_Paradigm,2021.1.4,60.04792755890366,
Q,left,Pretarget,0,35,35,35,1667.8591218371876,1669.8606228686403,left,1,3,0.8095663082785904,H18I08,2023-01-05_09h14.06.423,t1_Paradigm,2021.1.4,60.04792755890366,
S,left,Pretarget,0,36,36,36,1671.3591362731531,1673.3607678709086,left,1,3,0.621108434163034,H18I08,2023-01-05_09h14.06.423,t1_Paradigm,2021.1.4,60.04792755890366,
W,left,Distractor,0,37,37,37,1674.8591985087842,1676.8602940468118,left,1,3,0.593540656613186,H18I08,2023-01-05_09h14.06.423,t1_Paradigm,2021.1.4,60.04792755890366,
Q,right,Target,0,38,38,38,1678.3591272907797,1680.3607332243118,right,1,3,0.5011058035306633,H18I08,2023-01-05_09h14.06.423,t1_Paradigm,2021.1.4,60.04792755890366,
S,right,Target,0,39,39,39,1681.8591484637,1683.8605744275264,right,1,3,0.9533220625016838,H18I08,2023-01-05_09h14.06.423,t1_Paradigm,2021.1.4,60.04792755890366,
T,left,Distractor,0,40,40,40,1685.3590910402127,1687.3604137059301,left,1,3,0.5415951546747237,H18I08,2023-01-05_09h14.06.423,t1_Paradigm,2021.1.4,60.04792755890366,
G,left,Distractor,0,41,41,41,1688.8589928748552,1690.8603931744583,left,1,3,0.7859286728780717,H18I08,2023-01-05_09h14.06.423,t1_Paradigm,2021.1.4,60.04792755890366,
D,left,Distractor,0,42,42,42,1692.3591115714516,1694.3594811351504,left,1,3,0.7425152140203863,H18I08,2023-01-05_09h14.06.423,t1_Paradigm,2021.1.4,60.04792755890366,
S,left,Lure,0,43,43,43,1695.8587962232996,1697.8610902766231,left,1,3,0.7927694495301694,H18I08,2023-01-05_09h14.06.423,t1_Paradigm,2021.1.4,60.04792755890366,
Z,left,Pretarget,0,44,44,44,1699.3591375565156,1701.3606462869793,left,1,3,0.8453857479617,H18I08,2023-01-05_09h14.06.423,t1_Paradigm,2021.1.4,60.04792755890366,
J,left,Distractor,0,45,45,45,1702.8592334762216,1704.8591045138892,left,1,3,0.6745463062543422,H18I08,2023-01-05_09h14.06.423,t1_Paradigm,2021.1.4,60.04792755890366,
M,left,Pretarget,0,46,46,46,1706.3591863182373,1708.3604618259706,left,1,3,0.8213782284874469,H18I08,2023-01-05_09h14.06.423,t1_Paradigm,2021.1.4,60.04792755890366,
Z,right,Target,0,47,47,47,1709.8591077218298,1711.8602183375042,right,1,3,0.6174541814252734,H18I08,2023-01-05_09h14.06.423,t1_Paradigm,2021.1.4,60.04792755890366,
P,left,Distractor,0,48,48,48,1713.3591282533016,1715.3595738469157,left,1,3,0.6063146614469588,H18I08,2023-01-05_09h14.06.423,t1_Paradigm,2021.1.4,60.04792755890366,
M,right,Target,0,49,49,49,1716.8592010752764,1718.861028041225,right,1,3,0.5928688980638981,H18I08,2023-01-05_09h14.06.423,t1_Paradigm,2021.1.4,60.04792755890366,
K,left,Distractor,0,50,50,50,1720.3590952106752,1722.360260362504,left,1,3,0.5656559271737933,H18I08,2023-01-05_09h14.06.423,t1_Paradigm,2021.1.4,60.04792755890366,
Y,left,Distractor,0,51,51,51,1723.8590948898345,1725.860234377673,left,1,3,0.8577273120172322,H18I08,2023-01-05_09h14.06.423,t1_Paradigm,2021.1.4,60.04792755890366,
X,left,Distractor,0,52,52,52,1727.3588254163042,1729.3608301065397,left,1,3,0.5251165314111859,H18I08,2023-01-05_09h14.06.423,t1_Paradigm,2021.1.4,60.04792755890366,
F,left,Pretarget,0,53,53,53,1730.8591093258,1732.8605288737454,left,1,3,0.5134502549190074,H18I08,2023-01-05_09h14.06.423,t1_Paradigm,2021.1.4,60.04792755890366,
M,left,Lure,0,54,54,54,1734.35908237868,1736.358574228594,left,1,3,0.999604772310704,H18I08,2023-01-05_09h14.06.423,t1_Paradigm,2021.1.4,60.04792755890366,
V,left,Distractor,0,55,55,55,1737.8590868697502,1739.8717123433016,left,1,3,0.6864974545314908,H18I08,2023-01-05_09h14.06.423,t1_Paradigm,2021.1.4,60.04792755890366,
F,right,Target,0,56,56,56,1741.3590881531127,1743.3581292766612,right,1,3,0.847905325004831,H18I08,2023-01-05_09h14.06.423,t1_Paradigm,2021.1.4,60.04792755890366,
S,left,Distractor,0,57,57,57,1744.8591070803814,1746.8610136050265,left,1,3,0.7368514591362327,H18I08,2023-01-05_09h14.06.423,t1_Paradigm,2021.1.4,60.04792755890366,
D,left,Distractor,0,58,58,58,1748.3588250954635,1750.360335750971,left,1,3,0.6136385654099286,H18I08,2023-01-05_09h14.06.423,t1_Paradigm,2021.1.4,60.04792755890366,
F,right,Target,0,59,59,59,1751.859076604247,1753.8600422174204,right,1,3,0.5217744186520576,H18I08,2023-01-05_09h14.06.423,t1_Paradigm,2021.1.4,60.04792755890366,
V,left,Pretarget,0,60,60,60,1755.358734308742,1757.3612795497756,left,1,3,0.7324814978055656,H18I08,2023-01-05_09h14.06.423,t1_Paradigm,2021.1.4,60.04792755890366,
J,left,Distractor,0,61,61,61,1758.8590698672924,1760.8602395104244,left,1,3,0.6574193423148245,H18I08,2023-01-05_09h14.06.423,t1_Paradigm,2021.1.4,60.04792755890366,
V,left,Lure,0,62,62,62,1762.3589104288258,1764.3606142068747,left,1,3,0.7093433507252485,H18I08,2023-01-05_09h14.06.423,t1_Paradigm,2021.1.4,60.04792755890366,
V,right,Target,0,63,63,63,1765.858789165737,1767.8591362731531,right,1,3,0.6344486540183425,H18I08,2023-01-05_09h14.06.423,t1_Paradigm,2021.1.4,60.04792755890366,
R,left,Distractor,0,0,0,0,1834.0660825935192,1836.0606373045594,None,0,4,,H18I08,2023-01-05_09h14.06.423,t1_Paradigm,2021.1.4,60.04792755890366,
F,left,Distractor,0,1,1,1,1837.5590310501866,1839.5590868697036,None,0,4,,H18I08,2023-01-05_09h14.06.423,t1_Paradigm,2021.1.4,60.04792755890366,
P,left,Pretarget,0,2,2,2,1841.0589582282118,1843.0608137457166,None,0,4,,H18I08,2023-01-05_09h14.06.423,t1_Paradigm,2021.1.4,60.04792755890366,
H,left,Distractor,0,3,3,3,1844.5587176270783,1846.5605080216192,None,0,4,,H18I08,2023-01-05_09h14.06.423,t1_Paradigm,2021.1.4,60.04792755890366,
Z,left,Distractor,0,4,4,4,1848.0587426496204,1850.0602276409045,left,1,4,0.6896121187601238,H18I08,2023-01-05_09h14.06.423,t1_Paradigm,2021.1.4,60.04792755890366,
T,left,Distractor,0,5,5,5,1851.5587070405018,1853.5612381664105,left,1,4,0.5809097297023982,H18I08,2023-01-05_09h14.06.423,t1_Paradigm,2021.1.4,60.04792755890366,
P,right,Target,0,6,6,6,1855.058833436342,1857.0598112400621,right,1,4,0.5861054346896708,H18I08,2023-01-05_09h14.06.423,t1_Paradigm,2021.1.4,60.04792755890366,
G,left,Distractor,0,7,7,7,1858.5589434714057,1860.5602760817856,left,1,4,0.4774412210099399,H18I08,2023-01-05_09h14.06.423,t1_Paradigm,2021.1.4,60.04792755890366,
L,left,Distractor,0,8,8,8,1862.0587715217844,1864.0591122130863,left,1,4,0.5787433553487062,H18I08,2023-01-05_09h14.06.423,t1_Paradigm,2021.1.4,60.04792755890366,
P,left,Lure,0,9,9,9,1865.5587513111532,1867.5605487632565,left,1,4,0.5817239244934171,H18I08,2023-01-05_09h14.06.423,t1_Paradigm,2021.1.4,60.04792755890366,
Q,left,Pretarget,0,10,10,10,1869.0586486544926,1871.0596543680876,left,1,4,0.5860749585554004,H18I08,2023-01-05_09h14.06.423,t1_Paradigm,2021.1.4,60.04792755890366,
D,left,Distractor,0,11,11,11,1872.5587448950391,1874.560661685653,right,0,4,0.9248079198878258,H18I08,2023-01-05_09h14.06.423,t1_Paradigm,2021.1.4,60.04792755890366,
M,left,Pretarget,0,12,12,12,1876.058665015502,1878.0611262065358,left,1,4,0.7845097668468952,H18I08,2023-01-05_09h14.06.423,t1_Paradigm,2021.1.4,60.04792755890366,
C,left,Distractor,0,13,13,13,1879.5589498875197,1881.5601753501687,left,1,4,0.757594499969855,H18I08,2023-01-05_09h14.06.423,t1_Paradigm,2021.1.4,60.04792755890366,
Q,right,Target,0,14,14,14,1883.0587663888,1885.0603582072072,right,1,4,0.4251675386913121,H18I08,2023-01-05_09h14.06.423,t1_Paradigm,2021.1.4,60.04792755890366,
R,left,Distractor,0,15,15,15,1886.5587015869096,1888.5604018361773,left,1,4,0.9092759825289249,H18I08,2023-01-05_09h14.06.423,t1_Paradigm,2021.1.4,60.04792755890366,
M,right,Target,0,16,16,16,1890.0586711107753,1892.0601227385923,right,1,4,0.6095974259078503,H18I08,2023-01-05_09h14.06.423,t1_Paradigm,2021.1.4,60.04792755890366,
S,left,Distractor,0,17,17,17,1893.5589222984854,1895.5592607443687,left,1,4,0.47049618419259787,H18I08,2023-01-05_09h14.06.423,t1_Paradigm,2021.1.4,60.04792755890366,
Z,left,Distractor,0,18,18,18,1897.0585854565725,1899.0603809840977,left,1,4,0.7777597773820162,H18I08,2023-01-05_09h14.06.423,t1_Paradigm,2021.1.4,60.04792755890366,
L,left,Pretarget,0,19,19,19,1900.5588420981076,1902.5604900566395,left,1,4,0.5413433250505477,H18I08,2023-01-05_09h14.06.423,t1_Paradigm,2021.1.4,60.04792755890366,
M,right,Target,0,20,20,20,1904.0588562132325,1906.0604092145804,right,1,4,0.6734212543815374,H18I08,2023-01-05_09h14.06.423,t1_Paradigm,2021.1.4,60.04792755890366,
P,left,Distractor,0,21,21,21,1907.5589155617636,1909.5608390888665,left,1,4,0.7408932403195649,H18I08,2023-01-05_09h14.06.423,t1_Paradigm,2021.1.4,60.04792755890366,
F,left,Distractor,0,22,22,22,1911.0589203736745,1913.0600483126473,left,1,4,0.5055995946750045,H18I08,2023-01-05_09h14.06.423,t1_Paradigm,2021.1.4,60.04792755890366,
L,right,Target,0,23,23,23,1914.5586958124768,1916.5610094347503,right,1,4,0.4926154646091163,H18I08,2023-01-05_09h14.06.423,t1_Paradigm,2021.1.4,60.04792755890366,
L,left,Lure,0,24,24,24,1918.0586412760895,1920.0589036920574,left,1,4,0.7228154202457517,H18I08,2023-01-05_09h14.06.423,t1_Paradigm,2021.1.4,60.04792755890366,
V,left,Pretarget,0,25,25,25,1921.5589280729182,1923.5594557917211,left,1,4,0.8543075656052679,H18I08,2023-01-05_09h14.06.423,t1_Paradigm,2021.1.4,60.04792755890366,
Z,left,Distractor,0,26,26,26,1925.0589110704605,1927.0594089548104,right,0,4,0.8903416218236089,H18I08,2023-01-05_09h14.06.423,t1_Paradigm,2021.1.4,60.04792755890366,
H,left,Distractor,0,27,27,27,1928.5588581380434,1930.5588963136543,left,1,4,0.5428526976611465,H18I08,2023-01-05_09h14.06.423,t1_Paradigm,2021.1.4,60.04792755890366,
X,left,Distractor,0,28,28,28,1932.058682659641,1934.06092506391,left,1,4,0.7847019270993769,H18I08,2023-01-05_09h14.06.423,t1_Paradigm,2021.1.4,60.04792755890366,
V,right,Target,0,29,29,29,1935.5589636820368,1937.5604101771023,right,1,4,0.597586287651211,H18I08,2023-01-05_09h14.06.423,t1_Paradigm,2021.1.4,60.04792755890366,
C,left,Distractor,0,30,30,30,1939.0588456268888,1941.0593146390747,left,1,4,0.6502821450121701,H18I08,2023-01-05_09h14.06.423,t1_Paradigm,2021.1.4,60.04792755890366,
S,left,Pretarget,0,31,31,31,1942.5587083236314,1944.5601949191187,left,1,4,0.7494390781503171,H18I08,2023-01-05_09h14.06.423,t1_Paradigm,2021.1.4,60.04792755890366,
D,left,Distractor,0,32,32,32,1946.0589351304807,1948.0600515205879,left,1,4,0.6896910357754678,H18I08,2023-01-05_09h14.06.423,t1_Paradigm,2021.1.4,60.04792755890366,
V,left,Distractor,0,33,33,33,1949.558659241069,1951.5593569849152,right,0,4,0.3584321136586368,H18I08,2023-01-05_09h14.06.423,t1_Paradigm,2021.1.4,60.04792755890366,
R,left,Distractor,0,34,34,34,1953.0589733058587,1955.0600297062192,left,1,4,0.5538000571541488,H18I08,2023-01-05_09h14.06.423,t1_Paradigm,2021.1.4,60.04792755890366,
S,right,Target,0,35,35,35,1956.5588424189482,1958.559912613593,right,1,4,0.5738604320213199,H18I08,2023-01-05_09h14.06.423,t1_Paradigm,2021.1.4,60.04792755890366,
Y,left,Distractor,0,36,36,36,1960.0589306394104,1962.071516012773,left,1,4,0.6621864563785493,H18I08,2023-01-05_09h14.06.423,t1_Paradigm,2021.1.4,60.04792755890366,
N,left,Pretarget,0,37,37,37,1963.5585517724976,1965.560505455127,left,1,4,0.45314594241790473,H18I08,2023-01-05_09h14.06.423,t1_Paradigm,2021.1.4,60.04792755890366,
Z,left,Pretarget,0,38,38,38,1967.0588995215949,1969.058802639367,left,1,4,0.506796826608479,H18I08,2023-01-05_09h14.06.423,t1_Paradigm,2021.1.4,60.04792755890366,
P,left,Pretarget,0,39,39,39,1970.558824133128,1972.559430769179,left,1,4,0.6701574174221605,H18I08,2023-01-05_09h14.06.423,t1_Paradigm,2021.1.4,60.04792755890366,
M,left,Distractor,0,40,40,40,1974.0588613462169,1976.0594477718696,left,1,4,1.0423230538144708,H18I08,2023-01-05_09h14.06.423,t1_Paradigm,2021.1.4,60.04792755890366,
N,right,Target,0,41,41,41,1977.55874393275,1979.5604557308834,right,1,4,0.5974630997516215,H18I08,2023-01-05_09h14.06.423,t1_Paradigm,2021.1.4,60.04792755890366,
Z,right,Target,0,42,42,42,1981.0587962234858,1983.0605731443502,right,1,4,0.47285407688468695,H18I08,2023-01-05_09h14.06.423,t1_Paradigm,2021.1.4,60.04792755890366,
P,right,Target,0,43,43,43,1984.5586152912583,1986.5587779376656,right,1,4,0.6388000089209527,H18I08,2023-01-05_09h14.06.423,t1_Paradigm,2021.1.4,60.04792755890366,
X,left,Pretarget,0,44,44,44,1988.058653787477,1990.0596389696002,left,1,4,0.49807583121582866,H18I08,2023-01-05_09h14.06.423,t1_Paradigm,2021.1.4,60.04792755890366,
Z,left,Lure,0,45,45,45,1991.5587808249984,1993.559329395881,left,1,4,0.6304123264271766,H18I08,2023-01-05_09h14.06.423,t1_Paradigm,2021.1.4,60.04792755890366,
R,left,Pretarget,0,46,46,46,1995.058885406237,1997.0612327125855,left,1,4,0.8565262304618955,H18I08,2023-01-05_09h14.06.423,t1_Paradigm,2021.1.4,60.04792755890366,
K,left,Distractor,0,47,47,47,1998.5587676721625,2000.5594541877508,left,1,4,0.654109630966559,H18I08,2023-01-05_09h14.06.423,t1_Paradigm,2021.1.4,60.04792755890366,
X,right,Target,0,48,48,48,2002.0585633213632,2004.0580028807744,right,1,4,0.7077053373213857,H18I08,2023-01-05_09h14.06.423,t1_Paradigm,2021.1.4,60.04792755890366,
B,left,Distractor,0,49,49,49,2005.5588777069934,2007.5590012157336,left,1,4,0.4865686723496765,H18I08,2023-01-05_09h14.06.423,t1_Paradigm,2021.1.4,60.04792755890366,
R,right,Target,0,50,50,50,2009.0585549804382,2011.060771399876,right,1,4,0.5849210345186293,H18I08,2023-01-05_09h14.06.423,t1_Paradigm,2021.1.4,60.04792755890366,
Y,left,Pretarget,0,51,51,51,2012.5585270707961,2014.5589354513213,left,1,4,0.5907147142570466,H18I08,2023-01-05_09h14.06.423,t1_Paradigm,2021.1.4,60.04792755890366,
W,left,Pretarget,0,52,52,52,2016.0589222984854,2018.0603049539495,left,1,4,0.9134656533133239,H18I08,2023-01-05_09h14.06.423,t1_Paradigm,2021.1.4,60.04792755890366,
Z,left,Distractor,0,53,53,53,2019.558797185775,2021.5605667282362,right,0,4,0.8051139004528522,H18I08,2023-01-05_09h14.06.423,t1_Paradigm,2021.1.4,60.04792755890366,
Q,left,Distractor,0,54,54,54,2023.058669506805,2025.058709606994,left,1,4,0.6508608714211732,H18I08,2023-01-05_09h14.06.423,t1_Paradigm,2021.1.4,60.04792755890366,
Y,right,Target,0,55,55,55,2026.5588497973513,2028.5717396114487,left,0,4,0.8020515271928161,H18I08,2023-01-05_09h14.06.423,t1_Paradigm,2021.1.4,60.04792755890366,
W,right,Target,0,56,56,56,2030.0588420981076,2032.059101305902,right,1,4,0.594522951869294,H18I08,2023-01-05_09h14.06.423,t1_Paradigm,2021.1.4,60.04792755890366,
H,left,Pretarget,0,57,57,57,2033.5587330255657,2035.5597650445998,left,1,4,0.5337233212776482,H18I08,2023-01-05_09h14.06.423,t1_Paradigm,2021.1.4,60.04792755890366,
M,left,Distractor,0,58,58,58,2037.058589627035,2039.0606491742656,left,1,4,0.7929516648873687,H18I08,2023-01-05_09h14.06.423,t1_Paradigm,2021.1.4,60.04792755890366,
R,left,Pretarget,0,59,59,59,2040.5587695969734,2042.560114718508,left,1,4,0.9413401172496378,H18I08,2023-01-05_09h14.06.423,t1_Paradigm,2021.1.4,60.04792755890366,
J,left,Distractor,0,60,60,60,2044.0583002639469,2046.0597124332562,left,1,4,0.849810566753149,H18I08,2023-01-05_09h14.06.423,t1_Paradigm,2021.1.4,60.04792755890366,
H,right,Target,0,61,61,61,2047.558775692014,2049.559901706176,right,1,4,0.5335670909844339,H18I08,2023-01-05_09h14.06.423,t1_Paradigm,2021.1.4,60.04792755890366,
Z,left,Distractor,0,62,62,62,2051.058797827456,2053.0588700077496,left,1,4,0.586639248766005,H18I08,2023-01-05_09h14.06.423,t1_Paradigm,2021.1.4,60.04792755890366,
R,right,Target,0,63,63,63,2054.5587695969734,2056.560477545485,right,1,4,0.7010554377920926,H18I08,2023-01-05_09h14.06.423,t1_Paradigm,2021.1.4,60.04792755890366,
J,left,Pretarget,0,0,0,0,2062.1523426547647,2064.1438455786556,None,0,4,,H18I08,2023-01-05_09h14.06.423,t1_Paradigm,2021.1.4,60.04792755890366,
G,left,Pretarget,0,1,1,1,2065.6421119661536,2067.643844937207,None,0,4,,H18I08,2023-01-05_09h14.06.423,t1_Paradigm,2021.1.4,60.04792755890366,
Z,left,Distractor,0,2,2,2,2069.141918201931,2071.1424452790525,None,0,4,,H18I08,2023-01-05_09h14.06.423,t1_Paradigm,2021.1.4,60.04792755890366,
F,left,Distractor,0,3,3,3,2072.641875214409,2074.6441416786984,None,0,4,,H18I08,2023-01-05_09h14.06.423,t1_Paradigm,2021.1.4,60.04792755890366,
J,right,Target,0,4,4,4,2076.142075394746,2078.158245406812,right,1,4,0.5929962561931461,H18I08,2023-01-05_09h14.06.423,t1_Paradigm,2021.1.4,60.04792755890366,
G,right,Target,0,5,5,5,2079.6421369886957,2081.642712827772,right,1,4,0.48282716143876314,H18I08,2023-01-05_09h14.06.423,t1_Paradigm,2021.1.4,60.04792755890366,
H,left,Distractor,0,6,6,6,2083.142085339641,2085.1436370576266,left,1,4,0.5820841847453266,H18I08,2023-01-05_09h14.06.423,t1_Paradigm,2021.1.4,60.04792755890366,
P,left,Distractor,0,7,7,7,2086.6420574297663,2088.6438167064916,left,1,4,0.665688649052754,H18I08,2023-01-05_09h14.06.423,t1_Paradigm,2021.1.4,60.04792755890366,
G,left,Lure,0,8,8,8,2090.1420423521195,2092.1425501813646,left,1,4,0.6391490411479026,H18I08,2023-01-05_09h14.06.423,t1_Paradigm,2021.1.4,60.04792755890366,
S,left,Distractor,0,9,9,9,2093.642114211805,2095.654887254117,left,1,4,0.6313821102958173,H18I08,2023-01-05_09h14.06.423,t1_Paradigm,2021.1.4,60.04792755890366,
R,left,Pretarget,0,10,10,10,2097.1420664123725,2099.1439822402317,left,1,4,0.5335160833783448,H18I08,2023-01-05_09h14.06.423,t1_Paradigm,2021.1.4,60.04792755890366,
T,left,Pretarget,0,11,11,11,2100.642185108969,2102.6426278152503,right,0,4,0.5548683267552406,H18I08,2023-01-05_09h14.06.423,t1_Paradigm,2021.1.4,60.04792755890366,
X,left,Distractor,0,12,12,12,2104.1419502820354,2106.142600226449,left,1,4,0.8630577540025115,H18I08,2023-01-05_09h14.06.423,t1_Paradigm,2021.1.4,60.04792755890366,
F,left,Pretarget,0,13,13,13,2107.641909540165,2109.642097850796,left,1,4,0.6274898224510252,H18I08,2023-01-05_09h14.06.423,t1_Paradigm,2021.1.4,60.04792755890366,
R,right,Target,0,14,14,14,2111.1418466630857,2113.1431423812173,right,1,4,0.47041822923347354,H18I08,2023-01-05_09h14.06.423,t1_Paradigm,2021.1.4,60.04792755890366,
T,right,Target,0,15,15,15,2114.641790522728,2116.641255425522,right,1,4,0.5403141933493316,H18I08,2023-01-05_09h14.06.423,t1_Paradigm,2021.1.4,60.04792755890366,
C,left,Distractor,0,16,16,16,2118.1418777809013,2120.142482171301,left,1,4,0.7509529415983707,H18I08,2023-01-05_09h14.06.423,t1_Paradigm,2021.1.4,60.04792755890366,
F,right,Target,0,17,17,17,2121.6418181117624,2123.643639624119,left,0,4,1.057974008610472,H18I08,2023-01-05_09h14.06.423,t1_Paradigm,2021.1.4,60.04792755890366,
M,left,Distractor,0,18,18,18,2125.14202150004,2127.144390300149,left,1,4,0.6775323287583888,H18I08,2023-01-05_09h14.06.423,t1_Paradigm,2021.1.4,60.04792755890366,
N,left,Distractor,0,19,19,19,2128.6419910239056,2130.6439851275645,left,1,4,0.7616077300626785,H18I08,2023-01-05_09h14.06.423,t1_Paradigm,2021.1.4,60.04792755890366,
R,left,Lure,0,20,20,20,2132.1419679261744,2134.142328507267,left,1,4,0.8633936333935708,H18I08,2023-01-05_09h14.06.423,t1_Paradigm,2021.1.4,60.04792755890366,
F,right,Target,0,21,21,21,2135.6419964774977,2137.6435376091395,left,0,4,0.9300998656544834,H18I08,2023-01-05_09h14.06.423,t1_Paradigm,2021.1.4,60.04792755890366,
P,left,Distractor,0,22,22,22,2139.1416573899332,2141.1422880862374,left,1,4,0.7912603979930282,H18I08,2023-01-05_09h14.06.423,t1_Paradigm,2021.1.4,60.04792755890366,
L,left,Pretarget,0,23,23,23,2142.6420266327914,2144.642234512372,left,1,4,0.5233591792639345,H18I08,2023-01-05_09h14.06.423,t1_Paradigm,2021.1.4,60.04792755890366,
T,left,Distractor,0,24,24,24,2146.141914352309,2148.142685880419,left,1,4,1.0867964415811002,H18I08,2023-01-05_09h14.06.423,t1_Paradigm,2021.1.4,60.04792755890366,
F,left,Distractor,0,25,25,25,2149.641724758316,2151.6435469123535,right,0,4,0.4984633596614003,H18I08,2023-01-05_09h14.06.423,t1_Paradigm,2021.1.4,60.04792755890366,
V,left,Distractor,0,26,26,26,2153.1419807581697,2155.1427019205876,left,1,4,0.8228789388667792,H18I08,2023-01-05_09h14.06.423,t1_Paradigm,2021.1.4,60.04792755890366,
L,right,Target,0,27,27,27,2156.6419788333587,2158.642480888171,left,0,4,1.0993577549234033,H18I08,2023-01-05_09h14.06.423,t1_Paradigm,2021.1.4,60.04792755890366,
S,left,Pretarget,0,28,28,28,2160.1417722371407,2162.1435135488864,left,1,4,1.390100699616596,H18I08,2023-01-05_09h14.06.423,t1_Paradigm,2021.1.4,60.04792755890366,
W,left,Distractor,0,29,29,29,2163.6420170087367,2165.643305669306,left,1,4,0.9943320748861879,H18I08,2023-01-05_09h14.06.423,t1_Paradigm,2021.1.4,60.04792755890366,
Q,left,Distractor,0,30,30,30,2167.142096567666,2169.143651493592,left,1,4,0.821887340862304,H18I08,2023-01-05_09h14.06.423,t1_Paradigm,2021.1.4,60.04792755890366,
L,right,Target,0,31,31,31,2170.6419531691354,2172.643539854791,left,0,4,1.1301075648516417,H18I08,2023-01-05_09h14.06.423,t1_Paradigm,2021.1.4,60.04792755890366,
S,right,Target,0,32,32,32,2174.14199904399,2176.143716616556,right,1,4,0.6537615607958287,H18I08,2023-01-05_09h14.06.423,t1_Paradigm,2021.1.4,60.04792755890366,
Z,left,Pretarget,0,33,33,33,2177.641808166867,2179.6426480258815,left,1,4,0.5790891796350479,H18I08,2023-01-05_09h14.06.423,t1_Paradigm,2021.1.4,60.04792755890366,
F,left,Distractor,0,34,34,34,2181.1420340111945,2183.143114792416,left,1,4,0.6465284440200776,H18I08,2023-01-05_09h14.06.423,t1_Paradigm,2021.1.4,60.04792755890366,
V,left,Distractor,0,35,35,35,2184.642088547582,2186.642216868233,left,1,4,0.9392119185067713,H18I08,2023-01-05_09h14.06.423,t1_Paradigm,2021.1.4,60.04792755890366,
M,left,Distractor,0,36,36,36,2188.1418245276436,2190.1435542907566,left,1,4,0.7498692732769996,H18I08,2023-01-05_09h14.06.423,t1_Paradigm,2021.1.4,60.04792755890366,
Z,right,Target,0,37,37,37,2191.64191916422,2193.6435478746425,right,1,4,0.9300180610734969,H18I08,2023-01-05_09h14.06.423,t1_Paradigm,2021.1.4,60.04792755890366,
H,left,Pretarget,0,38,38,38,2195.142078923527,2197.1436251879204,left,1,4,1.1098508592694998,H18I08,2023-01-05_09h14.06.423,t1_Paradigm,2021.1.4,60.04792755890366,
L,left,Distractor,0,39,39,39,2198.6416349338833,2200.6435462706722,right,0,4,1.1620571732055396,H18I08,2023-01-05_09h14.06.423,t1_Paradigm,2021.1.4,60.04792755890366,
G,left,Distractor,0,40,40,40,2202.141853720648,2204.1430070030037,left,1,4,0.7026341031305492,H18I08,2023-01-05_09h14.06.423,t1_Paradigm,2021.1.4,60.04792755890366,
K,left,Distractor,0,41,41,41,2205.6419352043886,2207.643551082816,left,1,4,0.8018580838106573,H18I08,2023-01-05_09h14.06.423,t1_Paradigm,2021.1.4,60.04792755890366,
H,right,Target,0,42,42,42,2209.14194033714,2211.1434651077725,left,0,4,0.7581289559602737,H18I08,2023-01-05_09h14.06.423,t1_Paradigm,2021.1.4,60.04792755890366,
B,left,Distractor,0,43,43,43,2212.64195990609,2214.6422162267845,left,1,4,0.6350969944614917,H18I08,2023-01-05_09h14.06.423,t1_Paradigm,2021.1.4,60.04792755890366,
Z,left,Distractor,0,44,44,44,2216.141947715543,2218.142732396722,left,1,4,0.9748084011953324,H18I08,2023-01-05_09h14.06.423,t1_Paradigm,2021.1.4,60.04792755890366,
T,left,Pretarget,0,45,45,45,2219.641806242056,2221.6443248565774,left,1,4,0.8170416306238621,H18I08,2023-01-05_09h14.06.423,t1_Paradigm,2021.1.4,60.04792755890366,
H,right,Target,0,46,46,46,2223.1417186632752,2225.143137890147,right,1,4,0.7424186526332051,H18I08,2023-01-05_09h14.06.423,t1_Paradigm,2021.1.4,60.04792755890366,
F,left,Distractor,0,47,47,47,2226.642053259304,2228.643329729559,left,1,4,0.6020598679315299,H18I08,2023-01-05_09h14.06.423,t1_Paradigm,2021.1.4,60.04792755890366,
R,left,Distractor,0,48,48,48,2230.1419108235277,2232.142599905608,left,1,4,0.526964349206537,H18I08,2023-01-05_09h14.06.423,t1_Paradigm,2021.1.4,60.04792755890366,
T,right,Target,0,49,49,49,2233.641973700607,2235.6433717545588,right,1,4,0.45001555886119604,H18I08,2023-01-05_09h14.06.423,t1_Paradigm,2021.1.4,60.04792755890366,
H,right,Target,0,50,50,50,2237.1419008786324,2239.143656305736,right,1,4,0.6459243742283434,H18I08,2023-01-05_09h14.06.423,t1_Paradigm,2021.1.4,60.04792755890366,
Y,left,Pretarget,0,51,51,51,2240.641667655669,2242.642576166196,left,1,4,0.6028406994882971,H18I08,2023-01-05_09h14.06.423,t1_Paradigm,2021.1.4,60.04792755890366,
H,left,Distractor,0,52,52,52,2244.141970171826,2246.154656597646,left,1,4,0.9948937986046076,H18I08,2023-01-05_09h14.06.423,t1_Paradigm,2021.1.4,60.04792755890366,
S,left,Distractor,0,53,53,53,2247.6416618812364,2249.644100937061,left,1,4,1.1532527692615986,H18I08,2023-01-05_09h14.06.423,t1_Paradigm,2021.1.4,60.04792755890366,
Q,left,Distractor,0,54,54,54,2251.1417270039674,2253.1436094685923,left,1,4,0.6459471511188895,H18I08,2023-01-05_09h14.06.423,t1_Paradigm,2021.1.4,60.04792755890366,
Y,right,Target,0,55,55,55,2254.641671505291,2256.64247735939,left,0,4,1.1311007670592517,H18I08,2023-01-05_09h14.06.423,t1_Paradigm,2021.1.4,60.04792755890366,
R,left,Distractor,0,56,56,56,2258.1415964376647,2260.1422181515954,left,1,4,0.8957423190586269,H18I08,2023-01-05_09h14.06.423,t1_Paradigm,2021.1.4,60.04792755890366,
H,left,Pretarget,0,57,57,57,2261.6583108503837,2263.6439738995396,left,1,4,1.121510719647631,H18I08,2023-01-05_09h14.06.423,t1_Paradigm,2021.1.4,60.04792755890366,
J,left,Distractor,0,58,58,58,2265.141872647917,2267.1430968274362,left,1,4,0.7103301370516419,H18I08,2023-01-05_09h14.06.423,t1_Paradigm,2021.1.4,60.04792755890366,
V,left,Distractor,0,59,59,59,2268.641924617812,2270.6437477341387,left,1,4,0.7941588417161256,H18I08,2023-01-05_09h14.06.423,t1_Paradigm,2021.1.4,60.04792755890366,
Y,left,Lure,0,60,60,60,2272.141649049241,2274.143442010274,left,1,4,0.6379912677221,H18I08,2023-01-05_09h14.06.423,t1_Paradigm,2021.1.4,60.04792755890366,
H,right,Target,0,61,61,61,2275.6418508335482,2277.6418655903544,right,1,4,0.5476653652731329,H18I08,2023-01-05_09h14.06.423,t1_Paradigm,2021.1.4,60.04792755890366,
L,left,Distractor,0,62,62,62,2279.141902161762,2281.1423994044308,left,1,4,0.7271359781734645,H18I08,2023-01-05_09h14.06.423,t1_Paradigm,2021.1.4,60.04792755890366,
P,left,Distractor,0,63,63,63,2282.6418617407326,2284.6428722662386,left,1,4,0.6184804262593389,H18I08,2023-01-05_09h14.06.423,t1_Paradigm,2021.1.4,60.04792755890366,
