Currentstep,EDround.thisRepN,EDround.thisTrialN,EDround.thisN,EDround.thisIndex,question.started,EDclick.clicked_name,EDleftbutton.wasclicked,EDrightbutton.wasclicked,EDleftbutton.value,EDrightbutton.value,EDleftbutton.nback,EDrightbutton.nback,Participant,date,expName,psychopyVersion,frameRate,
,,,,,,,,,,,,,H24B02,2023-01-09_16h16.57.673,t1_Paradigm,2021.1.4,60.00019250499381,
0,0,0,0,0,2183.4094065488316,EDleftbutton,1,0,1.00,2.00,1,3,H24B02,2023-01-09_16h16.57.673,t1_Paradigm,2021.1.4,60.00019250499381,
1,0,1,1,1,2191.7045788033865,EDrightbutton,0,1,0.50,2.00,1,3,H24B02,2023-01-09_16h16.57.673,t1_Paradigm,2021.1.4,60.00019250499381,
2,0,2,2,2,2194.6961776469834,EDrightbutton,0,1,0.75,2.00,1,3,H24B02,2023-01-09_16h16.57.673,t1_Paradigm,2021.1.4,60.00019250499381,
3,0,3,3,3,2196.8912061825395,EDrightbutton,0,1,0.88,2.00,1,3,H24B02,2023-01-09_16h16.57.673,t1_Paradigm,2021.1.4,60.00019250499381,
4,0,4,4,4,2198.961152191274,EDrightbutton,0,1,0.94,2.00,1,3,H24B02,2023-01-09_16h16.57.673,t1_Paradigm,2021.1.4,60.00019250499381,
5,0,5,5,5,2200.5393761689775,EDrightbutton,0,1,0.97,2.00,1,3,H24B02,2023-01-09_16h16.57.673,t1_Paradigm,2021.1.4,60.00019250499381,
0,0,0,0,0,2201.888180059381,EDrightbutton,0,1,1.00,2.00,2,3,H24B02,2023-01-09_16h16.57.673,t1_Paradigm,2021.1.4,60.00019250499381,
1,0,1,1,1,2204.855277349241,EDrightbutton,0,1,1.50,2.00,2,3,H24B02,2023-01-09_16h16.57.673,t1_Paradigm,2021.1.4,60.00019250499381,
2,0,2,2,2,2206.220066470094,EDrightbutton,0,1,1.75,2.00,2,3,H24B02,2023-01-09_16h16.57.673,t1_Paradigm,2021.1.4,60.00019250499381,
3,0,3,3,3,2207.885734267067,EDrightbutton,0,1,1.88,2.00,2,3,H24B02,2023-01-09_16h16.57.673,t1_Paradigm,2021.1.4,60.00019250499381,
4,0,4,4,4,2209.25152204372,EDrightbutton,0,1,1.94,2.00,2,3,H24B02,2023-01-09_16h16.57.673,t1_Paradigm,2021.1.4,60.00019250499381,
5,0,5,5,5,2210.4199278834276,EDrightbutton,0,1,1.97,2.00,2,3,H24B02,2023-01-09_16h16.57.673,t1_Paradigm,2021.1.4,60.00019250499381,
0,0,0,0,0,2211.825281423051,EDleftbutton,1,0,1.00,2.00,1,4,H24B02,2023-01-09_16h16.57.673,t1_Paradigm,2021.1.4,60.00019250499381,
1,0,1,1,1,2214.537881232798,EDleftbutton,1,0,0.50,2.00,1,4,H24B02,2023-01-09_16h16.57.673,t1_Paradigm,2021.1.4,60.00019250499381,
2,0,2,2,2,2218.8055161857046,EDleftbutton,1,0,0.25,2.00,1,4,H24B02,2023-01-09_16h16.57.673,t1_Paradigm,2021.1.4,60.00019250499381,
3,0,3,3,3,2221.762927829288,EDrightbutton,0,1,0.12,2.00,1,4,H24B02,2023-01-09_16h16.57.673,t1_Paradigm,2021.1.4,60.00019250499381,
4,0,4,4,4,2224.6314953533,EDrightbutton,0,1,0.18,2.00,1,4,H24B02,2023-01-09_16h16.57.673,t1_Paradigm,2021.1.4,60.00019250499381,
5,0,5,5,5,2226.5693178791553,EDleftbutton,1,0,0.21,2.00,1,4,H24B02,2023-01-09_16h16.57.673,t1_Paradigm,2021.1.4,60.00019250499381,
0,0,0,0,0,2229.726997712627,EDleftbutton,1,0,1.00,2.00,1,2,H24B02,2023-01-09_16h16.57.673,t1_Paradigm,2021.1.4,60.00019250499381,
1,0,1,1,1,2232.10501477262,EDrightbutton,0,1,0.50,2.00,1,2,H24B02,2023-01-09_16h16.57.673,t1_Paradigm,2021.1.4,60.00019250499381,
2,0,2,2,2,2235.2342051654123,EDrightbutton,0,1,0.75,2.00,1,2,H24B02,2023-01-09_16h16.57.673,t1_Paradigm,2021.1.4,60.00019250499381,
3,0,3,3,3,2236.8146988153458,EDrightbutton,0,1,0.88,2.00,1,2,H24B02,2023-01-09_16h16.57.673,t1_Paradigm,2021.1.4,60.00019250499381,
4,0,4,4,4,2238.1701824399643,EDrightbutton,0,1,0.94,2.00,1,2,H24B02,2023-01-09_16h16.57.673,t1_Paradigm,2021.1.4,60.00019250499381,
5,0,5,5,5,2239.453194062691,EDrightbutton,0,1,0.97,2.00,1,2,H24B02,2023-01-09_16h16.57.673,t1_Paradigm,2021.1.4,60.00019250499381,
0,0,0,0,0,2240.484164904803,EDleftbutton,1,0,1.00,2.00,2,4,H24B02,2023-01-09_16h16.57.673,t1_Paradigm,2021.1.4,60.00019250499381,
1,0,1,1,1,2243.353671736084,EDleftbutton,1,0,0.50,2.00,2,4,H24B02,2023-01-09_16h16.57.673,t1_Paradigm,2021.1.4,60.00019250499381,
2,0,2,2,2,2245.404026061762,EDrightbutton,0,1,0.25,2.00,2,4,H24B02,2023-01-09_16h16.57.673,t1_Paradigm,2021.1.4,60.00019250499381,
3,0,3,3,3,2247.5776308146305,EDrightbutton,0,1,0.38,2.00,2,4,H24B02,2023-01-09_16h16.57.673,t1_Paradigm,2021.1.4,60.00019250499381,
4,0,4,4,4,2253.2391913868487,EDrightbutton,0,1,0.44,2.00,2,4,H24B02,2023-01-09_16h16.57.673,t1_Paradigm,2021.1.4,60.00019250499381,
5,0,5,5,5,2254.8397675468586,EDrightbutton,0,1,0.47,2.00,2,4,H24B02,2023-01-09_16h16.57.673,t1_Paradigm,2021.1.4,60.00019250499381,
0,0,0,0,0,2256.103832939174,EDleftbutton,1,0,1.00,2.00,3,4,H24B02,2023-01-09_16h16.57.673,t1_Paradigm,2021.1.4,60.00019250499381,
1,0,1,1,1,2260.071993045043,EDrightbutton,0,1,0.50,2.00,3,4,H24B02,2023-01-09_16h16.57.673,t1_Paradigm,2021.1.4,60.00019250499381,
2,0,2,2,2,2262.2872320902534,EDrightbutton,0,1,0.75,2.00,3,4,H24B02,2023-01-09_16h16.57.673,t1_Paradigm,2021.1.4,60.00019250499381,
3,0,3,3,3,2264.1544670038857,EDrightbutton,0,1,0.88,2.00,3,4,H24B02,2023-01-09_16h16.57.673,t1_Paradigm,2021.1.4,60.00019250499381,
4,0,4,4,4,2266.100776339881,EDrightbutton,0,1,0.94,2.00,3,4,H24B02,2023-01-09_16h16.57.673,t1_Paradigm,2021.1.4,60.00019250499381,
5,0,5,5,5,2267.3364940858446,EDrightbutton,0,1,0.97,2.00,3,4,H24B02,2023-01-09_16h16.57.673,t1_Paradigm,2021.1.4,60.00019250499381,
