Letter,CorrAnswer,Stimulus,nback_run.thisRepN,nback_run.thisTrialN,nback_run.thisN,nback_run.thisIndex,fixcross.started,nback_trial.started,trial_resp.keys,trial_resp.corr,currentlevel,trial_resp.rt,Participant,date,expName,psychopyVersion,frameRate,
H,left,Distractor,0,0,0,0,14.854685149155557,16.798327339347452,None,0,1,,H24B02,2023-01-09_16h16.57.673,t1_Paradigm,2021.1.4,60.00019250499381,
Q,left,Pretarget,0,1,1,1,18.296106428839266,20.2985862265341,left,1,1,0.5477782874368131,H24B02,2023-01-09_16h16.57.673,t1_Paradigm,2021.1.4,60.00019250499381,
Q,right,Target,0,2,2,2,21.796318158041686,23.796327461488545,right,1,1,0.4896887904033065,H24B02,2023-01-09_16h16.57.673,t1_Paradigm,2021.1.4,60.00019250499381,
T,left,Distractor,0,3,3,3,25.29607659438625,27.297753425315022,left,1,1,0.3963396521285176,H24B02,2023-01-09_16h16.57.673,t1_Paradigm,2021.1.4,60.00019250499381,
Q,left,Lure,0,4,4,4,28.796031361445785,30.79641536111012,right,0,1,0.5136077683418989,H24B02,2023-01-09_16h16.57.673,t1_Paradigm,2021.1.4,60.00019250499381,
L,left,Distractor,0,5,5,5,32.29593030875549,34.297890407498926,left,1,1,0.34014128101989627,H24B02,2023-01-09_16h16.57.673,t1_Paradigm,2021.1.4,60.00019250499381,
V,left,Pretarget,0,6,6,6,35.796102579217404,37.79791639233008,left,1,1,0.7600213652476668,H24B02,2023-01-09_16h16.57.673,t1_Paradigm,2021.1.4,60.00019250499381,
V,right,Target,0,7,7,7,39.29600954707712,41.29612663947046,right,1,1,0.6217946289107203,H24B02,2023-01-09_16h16.57.673,t1_Paradigm,2021.1.4,60.00019250499381,
K,left,Distractor,0,8,8,8,42.796283511444926,44.79880405077711,left,1,1,0.5591147798113525,H24B02,2023-01-09_16h16.57.673,t1_Paradigm,2021.1.4,60.00019250499381,
G,left,Pretarget,0,9,9,9,46.296213577035815,48.29865199094638,left,1,1,0.4352782475762069,H24B02,2023-01-09_16h16.57.673,t1_Paradigm,2021.1.4,60.00019250499381,
G,right,Target,0,10,10,10,49.796337406151,51.7964182482101,right,1,1,0.4415948339737952,H24B02,2023-01-09_16h16.57.673,t1_Paradigm,2021.1.4,60.00019250499381,
G,right,Target,0,11,11,11,53.296302118338645,55.29643300548196,right,1,1,0.4936429923400283,H24B02,2023-01-09_16h16.57.673,t1_Paradigm,2021.1.4,60.00019250499381,
P,left,Pretarget,0,12,12,12,56.79629441909492,58.797603610903025,left,1,1,0.5125228171236813,H24B02,2023-01-09_16h16.57.673,t1_Paradigm,2021.1.4,60.00019250499381,
P,right,Target,0,13,13,13,60.29632778232917,62.29634542623535,right,1,1,0.7256583655253053,H24B02,2023-01-09_16h16.57.673,t1_Paradigm,2021.1.4,60.00019250499381,
G,left,Lure,0,14,14,14,63.796308213379234,65.79840208636597,left,1,1,0.6154722683131695,H24B02,2023-01-09_16h16.57.673,t1_Paradigm,2021.1.4,60.00019250499381,
Y,left,Distractor,0,15,15,15,67.29633259447291,69.29770305939019,left,1,1,0.4442722452804446,H24B02,2023-01-09_16h16.57.673,t1_Paradigm,2021.1.4,60.00019250499381,
B,left,Distractor,0,16,16,16,70.7961025792174,72.79777941014618,left,1,1,0.656182331033051,H24B02,2023-01-09_16h16.57.673,t1_Paradigm,2021.1.4,60.00019250499381,
T,left,Pretarget,0,17,17,17,74.29604708077386,76.29834466287866,left,1,1,0.48350341198965907,H24B02,2023-01-09_16h16.57.673,t1_Paradigm,2021.1.4,60.00019250499381,
T,right,Target,0,18,18,18,77.79637718573213,79.79635986266658,left,0,1,0.505554361268878,H24B02,2023-01-09_16h16.57.673,t1_Paradigm,2021.1.4,60.00019250499381,
S,left,Distractor,0,19,19,19,81.29637943115085,83.2976193302311,right,0,1,0.5403857319615781,H24B02,2023-01-09_16h16.57.673,t1_Paradigm,2021.1.4,60.00019250499381,
T,left,Lure,0,20,20,20,84.79631462926045,86.79740824270993,left,1,1,0.7044607480056584,H24B02,2023-01-09_16h16.57.673,t1_Paradigm,2021.1.4,60.00019250499381,
J,left,Distractor,0,21,21,21,88.29628383228555,90.29768637754023,left,1,1,0.5643849112093449,H24B02,2023-01-09_16h16.57.673,t1_Paradigm,2021.1.4,60.00019250499381,
P,left,Distractor,0,22,22,22,91.79604611825198,93.79799017682672,left,1,1,0.5518566402606666,H24B02,2023-01-09_16h16.57.673,t1_Paradigm,2021.1.4,60.00019250499381,
F,left,Distractor,0,23,23,23,95.2962918523699,97.29806107422337,left,1,1,0.4920187732204795,H24B02,2023-01-09_16h16.57.673,t1_Paradigm,2021.1.4,60.00019250499381,
L,left,Distractor,0,24,24,24,98.79612824367359,100.79776208708063,left,1,1,0.4962658677250147,H24B02,2023-01-09_16h16.57.673,t1_Paradigm,2021.1.4,60.00019250499381,
W,left,Pretarget,0,25,25,25,102.2961154114455,104.29780828254297,left,1,1,0.42005909187719226,H24B02,2023-01-09_16h16.57.673,t1_Paradigm,2021.1.4,60.00019250499381,
W,right,Target,0,26,26,26,105.7959803538397,107.79590368224308,right,1,1,0.4260317785665393,H24B02,2023-01-09_16h16.57.673,t1_Paradigm,2021.1.4,60.00019250499381,
V,left,Distractor,0,27,27,27,109.29629698535427,111.29643589258194,left,1,1,0.5895168404094875,H24B02,2023-01-09_16h16.57.673,t1_Paradigm,2021.1.4,60.00019250499381,
W,left,Lure,0,28,28,28,112.79640284972265,114.79843384586275,left,1,1,0.5115616950206459,H24B02,2023-01-09_16h16.57.673,t1_Paradigm,2021.1.4,60.00019250499381,
R,left,Pretarget,0,29,29,29,116.2961369054392,118.29969940846786,left,1,1,0.48206365341320634,H24B02,2023-01-09_16h16.57.673,t1_Paradigm,2021.1.4,60.00019250499381,
R,right,Target,0,30,30,30,119.79593319632113,121.79645289480686,right,1,1,0.7135699139907956,H24B02,2023-01-09_16h16.57.673,t1_Paradigm,2021.1.4,60.00019250499381,
G,left,Distractor,0,31,31,31,123.29637109069154,125.29797991132364,left,1,1,0.4598670597188175,H24B02,2023-01-09_16h16.57.673,t1_Paradigm,2021.1.4,60.00019250499381,
R,left,Lure,0,32,32,32,126.79621165199205,128.79641664447263,left,1,1,0.5773645495064557,H24B02,2023-01-09_16h16.57.673,t1_Paradigm,2021.1.4,60.00019250499381,
S,left,Distractor,0,33,33,33,130.29641568195075,132.29856954468414,left,1,1,0.46722978074103594,H24B02,2023-01-09_16h16.57.673,t1_Paradigm,2021.1.4,60.00019250499381,
R,left,Lure,0,34,34,34,133.79635857930407,135.79643493006006,left,1,1,0.7135445703752339,H24B02,2023-01-09_16h16.57.673,t1_Paradigm,2021.1.4,60.00019250499381,
P,left,Pretarget,0,35,35,35,137.29629217321053,139.29670279938728,left,1,1,0.49330262234434485,H24B02,2023-01-09_16h16.57.673,t1_Paradigm,2021.1.4,60.00019250499381,
P,right,Target,0,36,36,36,140.7958786599338,142.79624822363257,right,1,1,0.9137187660671771,H24B02,2023-01-09_16h16.57.673,t1_Paradigm,2021.1.4,60.00019250499381,
Y,left,Pretarget,0,37,37,37,144.29621710581705,146.2981929234229,left,1,1,0.4675932489335537,H24B02,2023-01-09_16h16.57.673,t1_Paradigm,2021.1.4,60.00019250499381,
Y,right,Target,0,38,38,38,147.79621036862954,149.79626554669812,right,1,1,0.6015206007286906,H24B02,2023-01-09_16h16.57.673,t1_Paradigm,2021.1.4,60.00019250499381,
J,left,Distractor,0,39,39,39,151.29624694027007,153.29800814203918,left,1,1,0.6198557033203542,H24B02,2023-01-09_16h16.57.673,t1_Paradigm,2021.1.4,60.00019250499381,
Y,left,Lure,0,40,40,40,154.79606729140505,156.79832990607247,left,1,1,0.5594314113259315,H24B02,2023-01-09_16h16.57.673,t1_Paradigm,2021.1.4,60.00019250499381,
T,left,Distractor,0,41,41,41,158.29623378720134,160.29750801203772,left,1,1,0.5486508682370186,H24B02,2023-01-09_16h16.57.673,t1_Paradigm,2021.1.4,60.00019250499381,
V,left,Distractor,0,42,42,42,161.7962517524138,163.7974842726253,left,1,1,0.47238795179873705,H24B02,2023-01-09_16h16.57.673,t1_Paradigm,2021.1.4,60.00019250499381,
N,left,Pretarget,0,43,43,43,165.29583535157144,167.29771877871826,left,1,1,0.4760839086957276,H24B02,2023-01-09_16h16.57.673,t1_Paradigm,2021.1.4,60.00019250499381,
N,right,Target,0,44,44,44,168.79617379745468,170.79593544173986,right,1,1,0.6899078977294266,H24B02,2023-01-09_16h16.57.673,t1_Paradigm,2021.1.4,60.00019250499381,
N,right,Target,0,45,45,45,172.29596720123664,174.29620972741395,right,1,1,0.6615756498649716,H24B02,2023-01-09_16h16.57.673,t1_Paradigm,2021.1.4,60.00019250499381,
X,left,Distractor,0,46,46,46,175.79624822363257,177.79755196161568,left,1,1,0.5682271532714367,H24B02,2023-01-09_16h16.57.673,t1_Paradigm,2021.1.4,60.00019250499381,
Z,left,Distractor,0,47,47,47,179.2960887849331,181.29813165031374,left,1,1,0.5398009107448161,H24B02,2023-01-09_16h16.57.673,t1_Paradigm,2021.1.4,60.00019250499381,
H,left,Pretarget,0,48,48,48,182.79621389787644,184.79808577569202,left,1,1,0.7356622470542789,H24B02,2023-01-09_16h16.57.673,t1_Paradigm,2021.1.4,60.00019250499381,
H,right,Target,0,49,49,49,186.29619336640462,188.29621903039515,right,1,1,0.6937793330289423,H24B02,2023-01-09_16h16.57.673,t1_Paradigm,2021.1.4,60.00019250499381,
K,left,Distractor,0,50,50,50,189.7961622485891,191.7979924227111,left,1,1,0.48783680191263556,H24B02,2023-01-09_16h16.57.673,t1_Paradigm,2021.1.4,60.00019250499381,
V,left,Pretarget,0,51,51,51,193.2961369054392,195.29681123048067,left,1,1,0.5730731845833361,H24B02,2023-01-09_16h16.57.673,t1_Paradigm,2021.1.4,60.00019250499381,
V,right,Target,0,52,52,52,196.7962751709856,198.796154870186,right,1,1,0.6097331251949072,H24B02,2023-01-09_16h16.57.673,t1_Paradigm,2021.1.4,60.00019250499381,
R,left,Distractor,0,53,53,53,200.29617764707655,202.29836230678484,left,1,1,0.4673449485562742,H24B02,2023-01-09_16h16.57.673,t1_Paradigm,2021.1.4,60.00019250499381,
V,left,Lure,0,54,54,54,203.79586775274947,205.7969084335491,left,1,1,1.208967692218721,H24B02,2023-01-09_16h16.57.673,t1_Paradigm,2021.1.4,60.00019250499381,
Y,left,Distractor,0,55,55,55,207.2960326448083,209.29756575636566,left,1,1,0.7644449006766081,H24B02,2023-01-09_16h16.57.673,t1_Paradigm,2021.1.4,60.00019250499381,
Q,left,Distractor,0,56,56,56,210.79610707052052,212.798284673132,left,1,1,0.6395202088169754,H24B02,2023-01-09_16h16.57.673,t1_Paradigm,2021.1.4,60.00019250499381,
Z,left,Pretarget,0,57,57,57,214.2963281031698,216.31280672643334,left,1,1,0.4529217015951872,H24B02,2023-01-09_16h16.57.673,t1_Paradigm,2021.1.4,60.00019250499381,
Z,right,Target,0,58,58,58,217.7961526243016,219.7960974466987,right,1,1,0.6176623818464577,H24B02,2023-01-09_16h16.57.673,t1_Paradigm,2021.1.4,60.00019250499381,
B,left,Distractor,0,59,59,59,221.29612952657044,223.2979622669518,left,1,1,0.5079430514015257,H24B02,2023-01-09_16h16.57.673,t1_Paradigm,2021.1.4,60.00019250499381,
S,left,Pretarget,0,60,60,60,224.7961664190516,226.79801102913916,left,1,1,0.6398544842377305,H24B02,2023-01-09_16h16.57.673,t1_Paradigm,2021.1.4,60.00019250499381,
S,right,Target,0,61,61,61,228.29615198308602,230.29625560203567,right,1,1,0.453453591093421,H24B02,2023-01-09_16h16.57.673,t1_Paradigm,2021.1.4,60.00019250499381,
T,left,Distractor,0,62,62,62,231.79604900535196,233.7973845032975,left,1,1,0.6002758895047009,H24B02,2023-01-09_16h16.57.673,t1_Paradigm,2021.1.4,60.00019250499381,
D,left,Distractor,0,63,63,63,235.2960371361114,237.29769118968397,left,1,1,0.49240181036293507,H24B02,2023-01-09_16h16.57.673,t1_Paradigm,2021.1.4,60.00019250499381,
R,left,Distractor,0,0,0,0,245.09578306088224,247.09712112508714,None,0,1,,H24B02,2023-01-09_16h16.57.673,t1_Paradigm,2021.1.4,60.00019250499381,
V,left,Distractor,0,1,1,1,248.59598003327847,250.59634093521163,left,1,1,0.6975542074069381,H24B02,2023-01-09_16h16.57.673,t1_Paradigm,2021.1.4,60.00019250499381,
N,left,Pretarget,0,2,2,2,252.09610803285614,254.09845533967018,left,1,1,0.6032801978290081,H24B02,2023-01-09_16h16.57.673,t1_Paradigm,2021.1.4,60.00019250499381,
N,right,Target,0,3,3,3,255.59588218852878,257.5961353010498,right,1,1,0.8977425182238221,H24B02,2023-01-09_16h16.57.673,t1_Paradigm,2021.1.4,60.00019250499381,
S,left,Distractor,0,4,4,4,259.09608397306874,261.0981152895838,left,1,1,0.5957827405072749,H24B02,2023-01-09_16h16.57.673,t1_Paradigm,2021.1.4,60.00019250499381,
N,left,Lure,0,5,5,5,262.59611573209986,264.5976437111385,left,1,1,0.6322206859476864,H24B02,2023-01-09_16h16.57.673,t1_Paradigm,2021.1.4,60.00019250499381,
Z,left,Distractor,0,6,6,6,266.09576509613544,268.0976289543323,left,1,1,0.47593890642747283,H24B02,2023-01-09_16h16.57.673,t1_Paradigm,2021.1.4,60.00019250499381,
L,left,Pretarget,0,7,7,7,269.5962353912182,271.59840497374535,left,1,1,0.5114606423303485,H24B02,2023-01-09_16h16.57.673,t1_Paradigm,2021.1.4,60.00019250499381,
L,right,Target,0,8,8,8,273.096038098447,275.09576605819166,left,0,1,0.5660659121349454,H24B02,2023-01-09_16h16.57.673,t1_Paradigm,2021.1.4,60.00019250499381,
H,left,Distractor,0,9,9,9,276.59619657415897,278.59611348668113,left,1,1,0.681768836453557,H24B02,2023-01-09_16h16.57.673,t1_Paradigm,2021.1.4,60.00019250499381,
L,left,Lure,0,10,10,10,280.0960544589907,282.09757698420435,left,1,1,0.4123024265281856,H24B02,2023-01-09_16h16.57.673,t1_Paradigm,2021.1.4,60.00019250499381,
X,left,Pretarget,0,11,11,11,283.59612952684984,285.5975125031546,left,1,1,0.48043077252805233,H24B02,2023-01-09_16h16.57.673,t1_Paradigm,2021.1.4,60.00019250499381,
X,right,Target,0,12,12,12,287.0960480431095,289.09629730600864,right,1,1,0.5979465483687818,H24B02,2023-01-09_16h16.57.673,t1_Paradigm,2021.1.4,60.00019250499381,
X,right,Target,0,13,13,13,290.59622544655576,292.59580680029467,right,1,1,0.6018333821557462,H24B02,2023-01-09_16h16.57.673,t1_Paradigm,2021.1.4,60.00019250499381,
R,left,Distractor,0,14,14,14,294.096002810169,296.0961012961343,left,1,1,0.5096272602677345,H24B02,2023-01-09_16h16.57.673,t1_Paradigm,2021.1.4,60.00019250499381,
T,left,Distractor,0,15,15,15,297.59587031882256,299.59626490529627,left,1,1,0.6894931010901928,H24B02,2023-01-09_16h16.57.673,t1_Paradigm,2021.1.4,60.00019250499381,
V,left,Pretarget,0,16,16,16,301.0951113021001,303.0979783073999,left,1,1,0.4356625680811703,H24B02,2023-01-09_16h16.57.673,t1_Paradigm,2021.1.4,60.00019250499381,
V,right,Target,0,17,17,17,304.5957593214698,306.5959983188659,left,0,1,0.9214879428036511,H24B02,2023-01-09_16h16.57.673,t1_Paradigm,2021.1.4,60.00019250499381,
N,left,Distractor,0,18,18,18,308.09616224840283,310.0976850944571,left,1,1,0.6360603622160852,H24B02,2023-01-09_16h16.57.673,t1_Paradigm,2021.1.4,60.00019250499381,
B,left,Distractor,0,19,19,19,311.5962065192871,313.59736525500193,left,1,1,0.6409493805840611,H24B02,2023-01-09_16h16.57.673,t1_Paradigm,2021.1.4,60.00019250499381,
V,left,Lure,0,20,20,20,315.0960852559656,317.0981290838681,left,1,1,0.5154151655733585,H24B02,2023-01-09_16h16.57.673,t1_Paradigm,2021.1.4,60.00019250499381,
P,left,Distractor,0,21,21,21,318.5960323237814,320.59722827281803,left,1,1,0.4725393704138696,H24B02,2023-01-09_16h16.57.673,t1_Paradigm,2021.1.4,60.00019250499381,
K,left,Pretarget,0,22,22,22,322.09590047458187,324.09743743529543,left,1,1,0.5883266660384834,H24B02,2023-01-09_16h16.57.673,t1_Paradigm,2021.1.4,60.00019250499381,
K,right,Target,0,23,23,23,325.5959578980692,327.5961041832343,right,1,1,0.5775737119838595,H24B02,2023-01-09_16h16.57.673,t1_Paradigm,2021.1.4,60.00019250499381,
J,left,Pretarget,0,24,24,24,329.09592036390677,331.0978528736159,left,1,1,0.6280441679991782,H24B02,2023-01-09_16h16.57.673,t1_Paradigm,2021.1.4,60.00019250499381,
J,right,Target,0,25,25,25,332.5958382389508,334.5958975870162,right,1,1,0.5377702354453504,H24B02,2023-01-09_16h16.57.673,t1_Paradigm,2021.1.4,60.00019250499381,
H,left,Distractor,0,26,26,26,336.0960910306312,338.09827440744266,left,1,1,0.4436383410356939,H24B02,2023-01-09_16h16.57.673,t1_Paradigm,2021.1.4,60.00019250499381,
J,left,Lure,0,27,27,27,339.596340614371,341.5977053050883,left,1,1,0.7519268956966698,H24B02,2023-01-09_16h16.57.673,t1_Paradigm,2021.1.4,60.00019250499381,
V,left,Distractor,0,28,28,28,343.0956932362169,345.09792056307197,left,1,1,0.6438535987399518,H24B02,2023-01-09_16h16.57.673,t1_Paradigm,2021.1.4,60.00019250499381,
Z,left,Pretarget,0,29,29,29,346.59594025369734,348.5962302586995,left,1,1,0.505483784712851,H24B02,2023-01-09_16h16.57.673,t1_Paradigm,2021.1.4,60.00019250499381,
Z,right,Target,0,30,30,30,350.0961205442436,352.0959992813878,right,1,1,0.5737837604247034,H24B02,2023-01-09_16h16.57.673,t1_Paradigm,2021.1.4,60.00019250499381,
T,left,Distractor,0,31,31,31,353.5958440131508,355.59735787659883,left,1,1,0.48052765475586057,H24B02,2023-01-09_16h16.57.673,t1_Paradigm,2021.1.4,60.00019250499381,
Z,left,Lure,0,32,32,32,357.0961731560528,359.09612118592486,left,1,1,0.7896040985360742,H24B02,2023-01-09_16h16.57.673,t1_Paradigm,2021.1.4,60.00019250499381,
F,left,Distractor,0,33,33,33,360.59601179277524,362.5972292353399,left,1,1,0.5044107032008469,H24B02,2023-01-09_16h16.57.673,t1_Paradigm,2021.1.4,60.00019250499381,
Y,left,Pretarget,0,34,34,34,364.09566853474826,366.096866408363,left,1,1,0.5088445041328669,H24B02,2023-01-09_16h16.57.673,t1_Paradigm,2021.1.4,60.00019250499381,
Y,right,Target,0,35,35,35,367.5957275624387,369.5960101885721,right,1,1,0.9458213970065117,H24B02,2023-01-09_16h16.57.673,t1_Paradigm,2021.1.4,60.00019250499381,
Y,right,Target,0,36,36,36,371.0955838430673,373.09567687567323,right,1,1,0.5662118764594197,H24B02,2023-01-09_16h16.57.673,t1_Paradigm,2021.1.4,60.00019250499381,
W,left,Distractor,0,37,37,37,374.59588186768815,376.5967252557166,left,1,1,0.5528443888761103,H24B02,2023-01-09_16h16.57.673,t1_Paradigm,2021.1.4,60.00019250499381,
Q,left,Distractor,0,38,38,38,378.09574360214174,380.09745892928913,left,1,1,0.4760473375208676,H24B02,2023-01-09_16h16.57.673,t1_Paradigm,2021.1.4,60.00019250499381,
P,left,Pretarget,0,39,39,39,381.5959736169316,383.5975288641639,left,1,1,0.46427359245717525,H24B02,2023-01-09_16h16.57.673,t1_Paradigm,2021.1.4,60.00019250499381,
P,right,Target,0,40,40,40,385.0958282938227,387.09597457945347,right,1,1,0.4375873785465956,H24B02,2023-01-09_16h16.57.673,t1_Paradigm,2021.1.4,60.00019250499381,
J,left,Distractor,0,41,41,41,388.59572916617617,390.59860772034153,left,1,1,0.4711586399935186,H24B02,2023-01-09_16h16.57.673,t1_Paradigm,2021.1.4,60.00019250499381,
P,left,Lure,0,42,42,42,392.09602526621893,394.0974605330266,left,1,1,0.44445317750796676,H24B02,2023-01-09_16h16.57.673,t1_Paradigm,2021.1.4,60.00019250499381,
L,left,Distractor,0,43,43,43,395.5957663790323,397.59614588785917,left,1,1,0.5295711839571595,H24B02,2023-01-09_16h16.57.673,t1_Paradigm,2021.1.4,60.00019250499381,
Z,left,Distractor,0,44,44,44,399.0958366347477,401.0977643323131,left,1,1,0.4357395600527525,H24B02,2023-01-09_16h16.57.673,t1_Paradigm,2021.1.4,60.00019250499381,
F,left,Pretarget,0,45,45,45,402.59575033932924,404.59721576143056,left,1,1,0.6003236891701818,H24B02,2023-01-09_16h16.57.673,t1_Paradigm,2021.1.4,60.00019250499381,
F,right,Target,0,46,46,46,406.09581097075716,408.095629717689,left,0,1,0.8301447778940201,H24B02,2023-01-09_16h16.57.673,t1_Paradigm,2021.1.4,60.00019250499381,
G,left,Pretarget,0,47,47,47,409.59601083025336,411.59705824777484,left,1,1,0.4649382936768234,H24B02,2023-01-09_16h16.57.673,t1_Paradigm,2021.1.4,60.00019250499381,
G,right,Target,0,48,48,48,413.09589469991624,415.096158398781,right,1,1,0.7575710816308856,H24B02,2023-01-09_16h16.57.673,t1_Paradigm,2021.1.4,60.00019250499381,
V,left,Distractor,0,49,49,49,416.6127213933505,418.59807743504643,left,1,1,0.4716327846981585,H24B02,2023-01-09_16h16.57.673,t1_Paradigm,2021.1.4,60.00019250499381,
G,left,Lure,0,50,50,50,420.0960236620158,422.0970165436156,left,1,1,0.4447518438100815,H24B02,2023-01-09_16h16.57.673,t1_Paradigm,2021.1.4,60.00019250499381,
Q,left,Pretarget,0,51,51,51,423.5959424995817,425.59725489933044,left,1,1,0.6883837687782943,H24B02,2023-01-09_16h16.57.673,t1_Paradigm,2021.1.4,60.00019250499381,
Q,right,Target,0,52,52,52,427.09599799802527,429.0958430506289,right,1,1,0.45376508962363005,H24B02,2023-01-09_16h16.57.673,t1_Paradigm,2021.1.4,60.00019250499381,
Y,left,Distractor,0,53,53,53,430.59590624878183,432.59803605172783,left,1,1,0.45567642664536834,H24B02,2023-01-09_16h16.57.673,t1_Paradigm,2021.1.4,60.00019250499381,
V,left,Distractor,0,54,54,54,434.09566436428577,436.0960220582783,left,1,1,0.4619497046805918,H24B02,2023-01-09_16h16.57.673,t1_Paradigm,2021.1.4,60.00019250499381,
B,left,Distractor,0,55,55,55,437.5960073014721,439.59648529579863,left,1,1,0.43298964761197567,H24B02,2023-01-09_16h16.57.673,t1_Paradigm,2021.1.4,60.00019250499381,
J,left,Pretarget,0,56,56,56,441.09592549689114,443.09821987105533,left,1,1,0.5152480280958116,H24B02,2023-01-09_16h16.57.673,t1_Paradigm,2021.1.4,60.00019250499381,
J,right,Target,0,57,57,57,444.595970408991,446.5959453866817,right,1,1,0.4897032263688743,H24B02,2023-01-09_16h16.57.673,t1_Paradigm,2021.1.4,60.00019250499381,
H,left,Distractor,0,58,58,58,448.0958793014288,450.0971567342058,left,1,1,0.4925054293125868,H24B02,2023-01-09_16h16.57.673,t1_Paradigm,2021.1.4,60.00019250499381,
J,left,Lure,0,59,59,59,451.59601981239393,453.596158398781,left,1,1,0.7374314684420824,H24B02,2023-01-09_16h16.57.673,t1_Paradigm,2021.1.4,60.00019250499381,
D,left,Pretarget,0,60,60,60,455.095921005588,457.09795007668436,left,1,1,0.5479993200860918,H24B02,2023-01-09_16h16.57.673,t1_Paradigm,2021.1.4,60.00019250499381,
D,right,Target,0,61,61,61,458.59616160718724,460.5959684844129,left,0,1,0.47369714360684156,H24B02,2023-01-09_16h16.57.673,t1_Paradigm,2021.1.4,60.00019250499381,
R,left,Distractor,0,62,62,62,462.0956496074796,464.0978307384066,left,1,1,0.5076835225336254,H24B02,2023-01-09_16h16.57.673,t1_Paradigm,2021.1.4,60.00019250499381,
F,left,Distractor,0,63,63,63,465.5959232514724,467.5974342273548,left,1,1,0.6242202110588551,H24B02,2023-01-09_16h16.57.673,t1_Paradigm,2021.1.4,60.00019250499381,
F,left,Distractor,0,0,0,0,555.2669160366058,557.2791639263742,None,0,2,,H24B02,2023-01-09_16h16.57.673,t1_Paradigm,2021.1.4,60.00019250499381,
N,left,Pretarget,0,1,1,1,558.7791421120055,560.7804134492762,None,0,2,,H24B02,2023-01-09_16h16.57.673,t1_Paradigm,2021.1.4,60.00019250499381,
V,left,Distractor,0,2,2,2,562.2788700717501,564.2809463008307,left,1,2,0.9164895308203995,H24B02,2023-01-09_16h16.57.673,t1_Paradigm,2021.1.4,60.00019250499381,
N,right,Target,0,3,3,3,565.778857881669,567.7799229430966,right,1,2,0.537586416117847,H24B02,2023-01-09_16h16.57.673,t1_Paradigm,2021.1.4,60.00019250499381,
N,left,Lure,0,4,4,4,569.2791065028869,571.2791507733054,left,1,2,0.7342398124746978,H24B02,2023-01-09_16h16.57.673,t1_Paradigm,2021.1.4,60.00019250499381,
X,left,Distractor,0,5,5,5,572.7791279964149,574.7792146131396,left,1,2,0.7541863024234772,H24B02,2023-01-09_16h16.57.673,t1_Paradigm,2021.1.4,60.00019250499381,
G,left,Pretarget,0,6,6,6,576.2792492597364,578.2806521258317,left,1,2,0.9327747104689479,H24B02,2023-01-09_16h16.57.673,t1_Paradigm,2021.1.4,60.00019250499381,
H,left,Pretarget,0,7,7,7,579.7789948638529,581.7807050580159,left,1,2,0.8568874527700245,H24B02,2023-01-09_16h16.57.673,t1_Paradigm,2021.1.4,60.00019250499381,
G,right,Target,0,8,8,8,583.2790211695246,585.2808272833936,right,1,2,0.7810245766304433,H24B02,2023-01-09_16h16.57.673,t1_Paradigm,2021.1.4,60.00019250499381,
H,right,Target,0,9,9,9,586.7788209891878,588.7809937796555,right,1,2,0.8649530508555472,H24B02,2023-01-09_16h16.57.673,t1_Paradigm,2021.1.4,60.00019250499381,
T,left,Pretarget,0,10,10,10,590.2791831744835,592.2803470431827,left,1,2,0.8371411431580782,H24B02,2023-01-09_16h16.57.673,t1_Paradigm,2021.1.4,60.00019250499381,
K,left,Distractor,0,11,11,11,593.7790186032653,595.7797872442752,left,1,2,0.5537073453888297,H24B02,2023-01-09_16h16.57.673,t1_Paradigm,2021.1.4,60.00019250499381,
T,right,Target,0,12,12,12,597.2791077862494,599.2807002458721,right,1,2,0.6048704120330513,H24B02,2023-01-09_16h16.57.673,t1_Paradigm,2021.1.4,60.00019250499381,
T,left,Lure,0,13,13,13,600.7793355551548,602.7788232350722,left,1,2,1.1226437911391258,H24B02,2023-01-09_16h16.57.673,t1_Paradigm,2021.1.4,60.00019250499381,
J,left,Distractor,0,14,14,14,604.2788065532222,606.2795132794417,left,1,2,1.1261046007275581,H24B02,2023-01-09_16h16.57.673,t1_Paradigm,2021.1.4,60.00019250499381,
Q,left,Pretarget,0,15,15,15,607.7791071445681,609.7916014101356,left,1,2,0.6700169062241912,H24B02,2023-01-09_16h16.57.673,t1_Paradigm,2021.1.4,60.00019250499381,
M,left,Distractor,0,16,16,16,611.2791960067116,613.2808875939809,left,1,2,0.47661226941272616,H24B02,2023-01-09_16h16.57.673,t1_Paradigm,2021.1.4,60.00019250499381,
Q,right,Target,0,17,17,17,614.7790814801119,616.7810621103272,right,1,2,0.4644901338033378,H24B02,2023-01-09_16h16.57.673,t1_Paradigm,2021.1.4,60.00019250499381,
R,left,Distractor,0,18,18,18,618.2791289589368,620.2792604877613,left,1,2,0.6143975821323693,H24B02,2023-01-09_16h16.57.673,t1_Paradigm,2021.1.4,60.00019250499381,
W,left,Distractor,0,19,19,19,621.7790468335152,623.7795350938104,left,1,2,0.45798940723761916,H24B02,2023-01-09_16h16.57.673,t1_Paradigm,2021.1.4,60.00019250499381,
C,left,Pretarget,0,20,20,20,625.2791664926335,627.2808061107062,left,1,2,0.49265299877151847,H24B02,2023-01-09_16h16.57.673,t1_Paradigm,2021.1.4,60.00019250499381,
T,left,Distractor,0,21,21,21,628.779184457846,630.7792184627615,left,1,2,0.514454685151577,H24B02,2023-01-09_16h16.57.673,t1_Paradigm,2021.1.4,60.00019250499381,
C,right,Target,0,22,22,22,632.278890603222,634.280557168182,right,1,2,0.7092583384364843,H24B02,2023-01-09_16h16.57.673,t1_Paradigm,2021.1.4,60.00019250499381,
F,left,Pretarget,0,23,23,23,635.779190232046,637.7802963564172,left,1,2,0.6976186889223754,H24B02,2023-01-09_16h16.57.673,t1_Paradigm,2021.1.4,60.00019250499381,
C,right,Target,0,24,24,24,639.279200497549,641.2800945723429,right,1,2,0.6373390778899193,H24B02,2023-01-09_16h16.57.673,t1_Paradigm,2021.1.4,60.00019250499381,
F,right,Target,0,25,25,25,642.7790282270871,644.7803438352421,right,1,2,0.7690512929111719,H24B02,2023-01-09_16h16.57.673,t1_Paradigm,2021.1.4,60.00019250499381,
H,left,Distractor,0,26,26,26,646.2792062722147,648.280692867469,left,1,2,0.836770938243717,H24B02,2023-01-09_16h16.57.673,t1_Paradigm,2021.1.4,60.00019250499381,
H,left,Lure,0,27,27,27,649.7789820316248,651.7791806082241,left,1,2,0.9702276727184653,H24B02,2023-01-09_16h16.57.673,t1_Paradigm,2021.1.4,60.00019250499381,
P,left,Distractor,0,28,28,28,653.2791254301555,655.2790676858276,left,1,2,0.6543582519516349,H24B02,2023-01-09_16h16.57.673,t1_Paradigm,2021.1.4,60.00019250499381,
G,left,Pretarget,0,29,29,29,656.7788742422126,658.7804269227199,left,1,2,0.7050709133036435,H24B02,2023-01-09_16h16.57.673,t1_Paradigm,2021.1.4,60.00019250499381,
K,left,Distractor,0,30,30,30,660.279164888896,662.2798363268375,left,1,2,0.5335497674532235,H24B02,2023-01-09_16h16.57.673,t1_Paradigm,2021.1.4,60.00019250499381,
G,right,Target,0,31,31,31,663.7790468335152,665.7644923790358,right,1,2,0.7130274381488562,H24B02,2023-01-09_16h16.57.673,t1_Paradigm,2021.1.4,60.00019250499381,
M,left,Pretarget,0,32,32,32,667.2785884081386,669.2803951636888,left,1,2,0.5093895462341607,H24B02,2023-01-09_16h16.57.673,t1_Paradigm,2021.1.4,60.00019250499381,
B,left,Distractor,0,33,33,33,670.7790455506183,672.7803271533921,left,1,2,0.6249866066500545,H24B02,2023-01-09_16h16.57.673,t1_Paradigm,2021.1.4,60.00019250499381,
M,right,Target,0,34,34,34,674.2799736298621,676.27872121986,right,1,2,0.5026642582379282,H24B02,2023-01-09_16h16.57.673,t1_Paradigm,2021.1.4,60.00019250499381,
M,left,Lure,0,35,35,35,677.7783965687267,679.7790474751964,left,1,2,0.4744106070138514,H24B02,2023-01-09_16h16.57.673,t1_Paradigm,2021.1.4,60.00019250499381,
T,left,Distractor,0,36,36,36,681.2790166782215,683.2804371886887,left,1,2,0.6529848999343812,H24B02,2023-01-09_16h16.57.673,t1_Paradigm,2021.1.4,60.00019250499381,
F,left,Distractor,0,37,37,37,684.7790500419214,686.7809039549902,left,1,2,0.576464700512588,H24B02,2023-01-09_16h16.57.673,t1_Paradigm,2021.1.4,60.00019250499381,
X,left,Distractor,0,38,38,38,688.2787991748191,690.2792967380956,left,1,2,0.5664566485211253,H24B02,2023-01-09_16h16.57.673,t1_Paradigm,2021.1.4,60.00019250499381,
C,left,Distractor,0,39,39,39,691.7790218112059,693.7805177099071,left,1,2,0.48892848985269666,H24B02,2023-01-09_16h16.57.673,t1_Paradigm,2021.1.4,60.00019250499381,
R,left,Distractor,0,40,40,40,695.2789749740623,697.279767033644,left,1,2,0.717573519796133,H24B02,2023-01-09_16h16.57.673,t1_Paradigm,2021.1.4,60.00019250499381,
B,left,Pretarget,0,41,41,41,698.7789518763311,700.7809819099493,left,1,2,0.7363016051240265,H24B02,2023-01-09_16h16.57.673,t1_Paradigm,2021.1.4,60.00019250499381,
H,left,Distractor,0,42,42,42,702.2790137911215,704.2801301814616,left,1,2,0.8212576070800424,H24B02,2023-01-09_16h16.57.673,t1_Paradigm,2021.1.4,60.00019250499381,
B,right,Target,0,43,43,43,705.778767736163,707.7917213900946,right,1,2,0.6858362820930779,H24B02,2023-01-09_16h16.57.673,t1_Paradigm,2021.1.4,60.00019250499381,
W,left,Pretarget,0,44,44,44,709.2791068237275,711.2916071843356,left,1,2,0.9458935773000121,H24B02,2023-01-09_16h16.57.673,t1_Paradigm,2021.1.4,60.00019250499381,
L,left,Pretarget,0,45,45,45,712.7790433047339,714.7812039046548,left,1,2,0.8161286287941039,H24B02,2023-01-09_16h16.57.673,t1_Paradigm,2021.1.4,60.00019250499381,
W,right,Target,0,46,46,46,716.2788209891878,718.2803441560827,right,1,2,0.805051023606211,H24B02,2023-01-09_16h16.57.673,t1_Paradigm,2021.1.4,60.00019250499381,
L,right,Target,0,47,47,47,719.7789890891872,721.7806229325943,right,1,2,0.9208161840215325,H24B02,2023-01-09_16h16.57.673,t1_Paradigm,2021.1.4,60.00019250499381,
W,right,Target,0,48,48,48,723.2787603577599,725.2802716549486,right,1,2,0.909387300722301,H24B02,2023-01-09_16h16.57.673,t1_Paradigm,2021.1.4,60.00019250499381,
X,left,Distractor,0,49,49,49,726.7787558664568,728.7799453996122,left,1,2,0.5295516150072217,H24B02,2023-01-09_16h16.57.673,t1_Paradigm,2021.1.4,60.00019250499381,
R,left,Distractor,0,50,50,50,730.2780478568748,732.2810621103272,left,1,2,1.4607951394282281,H24B02,2023-01-09_16h16.57.673,t1_Paradigm,2021.1.4,60.00019250499381,
V,left,Pretarget,0,51,51,51,733.7790494002402,735.780377519317,left,1,2,0.8410231652669609,H24B02,2023-01-09_16h16.57.673,t1_Paradigm,2021.1.4,60.00019250499381,
Z,left,Distractor,0,52,52,52,737.2787330895662,739.2798722567968,left,1,2,0.4620119398459792,H24B02,2023-01-09_16h16.57.673,t1_Paradigm,2021.1.4,60.00019250499381,
V,right,Target,0,53,53,53,740.7789627835155,742.781093869824,right,1,2,0.6563757741823792,H24B02,2023-01-09_16h16.57.673,t1_Paradigm,2021.1.4,60.00019250499381,
V,left,Lure,0,54,54,54,744.2789663122967,746.2787279565819,left,1,2,0.8708631810732186,H24B02,2023-01-09_16h16.57.673,t1_Paradigm,2021.1.4,60.00019250499381,
N,left,Distractor,0,55,55,55,747.7789592547342,749.7811079849489,left,1,2,1.1922523169778287,H24B02,2023-01-09_16h16.57.673,t1_Paradigm,2021.1.4,60.00019250499381,
B,left,Distractor,0,56,56,56,751.2789021520875,753.2805898902006,left,1,2,0.9248906867578626,H24B02,2023-01-09_16h16.57.673,t1_Paradigm,2021.1.4,60.00019250499381,
V,left,Lure,0,57,57,57,754.7788947736844,756.7808776493184,left,1,2,0.7204915322363377,H24B02,2023-01-09_16h16.57.673,t1_Paradigm,2021.1.4,60.00019250499381,
J,left,Distractor,0,58,58,58,758.2786763077602,760.2803951636888,left,1,2,0.5811160053126514,H24B02,2023-01-09_16h16.57.673,t1_Paradigm,2021.1.4,60.00019250499381,
H,left,Distractor,0,59,59,59,761.7789422525093,763.7802854492329,left,1,2,0.4092820775695145,H24B02,2023-01-09_16h16.57.673,t1_Paradigm,2021.1.4,60.00019250499381,
X,left,Pretarget,0,60,60,60,765.2790818009526,767.2805019905791,left,1,2,0.6049265521578491,H24B02,2023-01-09_16h16.57.673,t1_Paradigm,2021.1.4,60.00019250499381,
P,left,Distractor,0,61,61,61,768.7786605884321,770.7804471333511,left,1,2,0.49708968633785844,H24B02,2023-01-09_16h16.57.673,t1_Paradigm,2021.1.4,60.00019250499381,
X,right,Target,0,62,62,62,772.2786621926352,774.2803005268797,right,1,2,0.9011029163375497,H24B02,2023-01-09_16h16.57.673,t1_Paradigm,2021.1.4,60.00019250499381,
Q,left,Distractor,0,63,63,63,775.7789364778437,777.7791036157869,left,1,2,0.44231022149324417,H24B02,2023-01-09_16h16.57.673,t1_Paradigm,2021.1.4,60.00019250499381,
B,left,Pretarget,0,0,0,0,783.6956277927384,785.6972966035828,None,0,2,,H24B02,2023-01-09_16h16.57.673,t1_Paradigm,2021.1.4,60.00019250499381,
F,left,Distractor,0,1,1,1,787.1955979582854,789.1973780873232,None,0,2,,H24B02,2023-01-09_16h16.57.673,t1_Paradigm,2021.1.4,60.00019250499381,
B,right,Target,0,2,2,2,790.6953775673173,792.6968401027843,left,0,2,0.5003714882768691,H24B02,2023-01-09_16h16.57.673,t1_Paradigm,2021.1.4,60.00019250499381,
V,left,Distractor,0,3,3,3,794.19552481547,796.1973533853889,left,1,2,0.8080335175618529,H24B02,2023-01-09_16h16.57.673,t1_Paradigm,2021.1.4,60.00019250499381,
G,left,Pretarget,0,4,4,4,797.6952665699646,799.6964323637076,left,1,2,0.8130810121074319,H24B02,2023-01-09_16h16.57.673,t1_Paradigm,2021.1.4,60.00019250499381,
B,left,Lure,0,5,5,5,801.1955421390012,803.1960140382871,left,1,2,0.7852476108819246,H24B02,2023-01-09_16h16.57.673,t1_Paradigm,2021.1.4,60.00019250499381,
G,right,Target,0,6,6,6,804.6956194518134,806.6967281429097,right,1,2,0.932347402907908,H24B02,2023-01-09_16h16.57.673,t1_Paradigm,2021.1.4,60.00019250499381,
Y,left,Pretarget,0,7,7,7,808.1953445249237,810.1970053156838,left,1,2,0.5203141290694475,H24B02,2023-01-09_16h16.57.673,t1_Paradigm,2021.1.4,60.00019250499381,
P,left,Distractor,0,8,8,8,811.6955876927823,813.6980309188366,left,1,2,0.731191554106772,H24B02,2023-01-09_16h16.57.673,t1_Paradigm,2021.1.4,60.00019250499381,
Y,right,Target,0,9,9,9,815.1957051060162,817.1969450046308,right,1,2,0.7204668307676911,H24B02,2023-01-09_16h16.57.673,t1_Paradigm,2021.1.4,60.00019250499381,
X,left,Distractor,0,10,10,10,818.6956678931601,820.6956492867321,left,1,2,0.7737054843455553,H24B02,2023-01-09_16h16.57.673,t1_Paradigm,2021.1.4,60.00019250499381,
Y,right,Target,0,11,11,11,822.1953393919393,824.1964605944231,None,0,2,,H24B02,2023-01-09_16h16.57.673,t1_Paradigm,2021.1.4,60.00019250499381,
N,left,Distractor,0,12,12,12,825.6955889756791,827.6961102788337,left,1,2,0.8132943450473249,H24B02,2023-01-09_16h16.57.673,t1_Paradigm,2021.1.4,60.00019250499381,
Y,right,Target,0,13,13,13,829.1954256878234,831.2082016174681,left,0,2,0.709097295999527,H24B02,2023-01-09_16h16.57.673,t1_Paradigm,2021.1.4,60.00019250499381,
Y,left,Lure,0,14,14,14,832.6955036427826,834.6952399434522,right,0,2,0.806070210877806,H24B02,2023-01-09_16h16.57.673,t1_Paradigm,2021.1.4,60.00019250499381,
K,left,Distractor,0,15,15,15,836.1955119832419,838.1968856565654,left,1,2,0.7927386523224413,H24B02,2023-01-09_16h16.57.673,t1_Paradigm,2021.1.4,60.00019250499381,
T,left,Pretarget,0,16,16,16,839.6957907602191,841.696350238286,left,1,2,0.8130858242511749,H24B02,2023-01-09_16h16.57.673,t1_Paradigm,2021.1.4,60.00019250499381,
J,left,Distractor,0,17,17,17,843.1953631313518,845.196970669087,left,1,2,0.7842014762572944,H24B02,2023-01-09_16h16.57.673,t1_Paradigm,2021.1.4,60.00019250499381,
T,right,Target,0,18,18,18,846.695416063536,848.6975606232882,right,1,2,0.6597291147336364,H24B02,2023-01-09_16h16.57.673,t1_Paradigm,2021.1.4,60.00019250499381,
S,left,Pretarget,0,19,19,19,850.1956653269008,852.1974512301385,left,1,2,0.48796415980905294,H24B02,2023-01-09_16h16.57.673,t1_Paradigm,2021.1.4,60.00019250499381,
R,left,Distractor,0,20,20,20,853.6952585498802,855.6974371145479,left,1,2,0.4921028236858547,H24B02,2023-01-09_16h16.57.673,t1_Paradigm,2021.1.4,60.00019250499381,
S,right,Target,0,21,21,21,857.1955854468979,859.1975599816069,right,1,2,0.5118770427070558,H24B02,2023-01-09_16h16.57.673,t1_Paradigm,2021.1.4,60.00019250499381,
Q,left,Distractor,0,22,22,22,860.6955607454292,862.7081316825934,left,1,2,0.5372287221252918,H24B02,2023-01-09_16h16.57.673,t1_Paradigm,2021.1.4,60.00019250499381,
D,left,Distractor,0,23,23,23,864.1956444745883,866.1974387187511,left,1,2,0.9198486460372806,H24B02,2023-01-09_16h16.57.673,t1_Paradigm,2021.1.4,60.00019250499381,
F,left,Distractor,0,24,24,24,867.6955315521918,869.6966620576568,left,1,2,0.5727039417251945,H24B02,2023-01-09_16h16.57.673,t1_Paradigm,2021.1.4,60.00019250499381,
Z,left,Distractor,0,25,25,25,871.1954821487889,873.1976934354752,left,1,2,0.5441798544488847,H24B02,2023-01-09_16h16.57.673,t1_Paradigm,2021.1.4,60.00019250499381,
P,left,Distractor,0,26,26,26,874.6954956226982,876.695753547363,left,1,2,0.48539197165519,H24B02,2023-01-09_16h16.57.673,t1_Paradigm,2021.1.4,60.00019250499381,
H,left,Distractor,0,27,27,27,878.1954677128233,880.1965395114385,left,1,2,0.47280146554112434,H24B02,2023-01-09_16h16.57.673,t1_Paradigm,2021.1.4,60.00019250499381,
Z,left,Pretarget,0,28,28,28,881.6955482340418,883.6975227687508,left,1,2,0.44379553385078907,H24B02,2023-01-09_16h16.57.673,t1_Paradigm,2021.1.4,60.00019250499381,
J,left,Pretarget,0,29,29,29,885.1953095574863,887.196853576228,left,1,2,0.6245381259359419,H24B02,2023-01-09_16h16.57.673,t1_Paradigm,2021.1.4,60.00019250499381,
Z,right,Target,0,30,30,30,888.6954151014797,890.6968805235811,right,1,2,0.45234618382528424,H24B02,2023-01-09_16h16.57.673,t1_Paradigm,2021.1.4,60.00019250499381,
J,right,Target,0,31,31,31,892.1956245847978,894.1969093959779,right,1,2,0.4243863862939179,H24B02,2023-01-09_16h16.57.673,t1_Paradigm,2021.1.4,60.00019250499381,
V,left,Pretarget,0,32,32,32,895.6956069408916,897.6973774456419,left,1,2,0.5719821378588676,H24B02,2023-01-09_16h16.57.673,t1_Paradigm,2021.1.4,60.00019250499381,
Z,left,Lure,0,33,33,33,899.1955296276137,901.1971958717331,right,0,2,1.1200456181541085,H24B02,2023-01-09_16h16.57.673,t1_Paradigm,2021.1.4,60.00019250499381,
V,right,Target,0,34,34,34,902.6953878332861,904.6970210350119,right,1,2,0.4681937899440527,H24B02,2023-01-09_16h16.57.673,t1_Paradigm,2021.1.4,60.00019250499381,
X,left,Distractor,0,35,35,35,906.1955357226543,908.1966011053883,left,1,2,0.7287739920429885,H24B02,2023-01-09_16h16.57.673,t1_Paradigm,2021.1.4,60.00019250499381,
S,left,Distractor,0,36,36,36,909.6952415476553,911.6964599527419,left,1,2,0.5248348671011627,H24B02,2023-01-09_16h16.57.673,t1_Paradigm,2021.1.4,60.00019250499381,
Q,left,Distractor,0,37,37,37,913.1952518131584,915.1965520228259,left,1,2,0.6407469548285007,H24B02,2023-01-09_16h16.57.673,t1_Paradigm,2021.1.4,60.00019250499381,
P,left,Distractor,0,38,38,38,916.6952274320647,918.6978102070279,left,1,2,0.5475023980252445,H24B02,2023-01-09_16h16.57.673,t1_Paradigm,2021.1.4,60.00019250499381,
S,left,Lure,0,39,39,39,920.1955350809731,922.1968468395062,left,1,2,1.1446199943311512,H24B02,2023-01-09_16h16.57.673,t1_Paradigm,2021.1.4,60.00019250499381,
K,left,Pretarget,0,40,40,40,923.6951918234117,925.6958690355532,left,1,2,0.5734437108039856,H24B02,2023-01-09_16h16.57.673,t1_Paradigm,2021.1.4,60.00019250499381,
L,left,Distractor,0,41,41,41,927.1952232620679,929.1976177259348,left,1,2,0.5595793006941676,H24B02,2023-01-09_16h16.57.673,t1_Paradigm,2021.1.4,60.00019250499381,
K,right,Target,0,42,42,42,930.6953730764799,932.6964654061012,right,1,2,0.6930058803409338,H24B02,2023-01-09_16h16.57.673,t1_Paradigm,2021.1.4,60.00019250499381,
B,left,Distractor,0,43,43,43,934.1954584093764,936.1970791001804,left,1,2,0.45621344866231084,H24B02,2023-01-09_16h16.57.673,t1_Paradigm,2021.1.4,60.00019250499381,
N,left,Distractor,0,44,44,44,937.6954738078639,939.6979539263994,left,1,2,0.507379082031548,H24B02,2023-01-09_16h16.57.673,t1_Paradigm,2021.1.4,60.00019250499381,
S,left,Pretarget,0,45,45,45,941.1954029109329,943.1972889043391,left,1,2,0.767898331861943,H24B02,2023-01-09_16h16.57.673,t1_Paradigm,2021.1.4,60.00019250499381,
Z,left,Distractor,0,46,46,46,944.6953705097549,946.6954632215202,left,1,2,0.6138669764623046,H24B02,2023-01-09_16h16.57.673,t1_Paradigm,2021.1.4,60.00019250499381,
S,right,Target,0,47,47,47,948.1952203745022,950.1979856858961,right,1,2,0.6310885767452419,H24B02,2023-01-09_16h16.57.673,t1_Paradigm,2021.1.4,60.00019250499381,
C,left,Distractor,0,48,48,48,951.6952344900928,953.695519361645,left,1,2,0.46169819589704275,H24B02,2023-01-09_16h16.57.673,t1_Paradigm,2021.1.4,60.00019250499381,
T,left,Pretarget,0,49,49,49,955.1951000741683,957.1968202129938,left,1,2,0.4485334549099207,H24B02,2023-01-09_16h16.57.673,t1_Paradigm,2021.1.4,60.00019250499381,
S,left,Lure,0,50,50,50,958.6954458984546,960.6971846437082,left,1,2,0.6599604128859937,H24B02,2023-01-09_16h16.57.673,t1_Paradigm,2021.1.4,60.00019250499381,
T,right,Target,0,51,51,51,962.1953567154706,964.1971862479113,right,1,2,0.6320760045200586,H24B02,2023-01-09_16h16.57.673,t1_Paradigm,2021.1.4,60.00019250499381,
N,left,Pretarget,0,52,52,52,965.6954051563516,967.6972930748016,left,1,2,0.49216955015435815,H24B02,2023-01-09_16h16.57.673,t1_Paradigm,2021.1.4,60.00019250499381,
B,left,Distractor,0,53,53,53,969.1953705097549,971.1969511001371,left,1,2,1.2162261521443725,H24B02,2023-01-09_16h16.57.673,t1_Paradigm,2021.1.4,60.00019250499381,
N,right,Target,0,54,54,54,972.6955177579075,974.6958112916909,left,0,2,0.997547791339457,H24B02,2023-01-09_16h16.57.673,t1_Paradigm,2021.1.4,60.00019250499381,
N,left,Lure,0,55,55,55,976.1954013067298,978.195443010889,left,1,2,1.3376974132843316,H24B02,2023-01-09_16h16.57.673,t1_Paradigm,2021.1.4,60.00019250499381,
X,left,Distractor,0,56,56,56,979.6954308208078,981.697123370599,left,1,2,1.0360260363668203,H24B02,2023-01-09_16h16.57.673,t1_Paradigm,2021.1.4,60.00019250499381,
W,left,Distractor,0,57,57,57,983.195203693118,985.1961734765209,left,1,2,0.7049977704882622,H24B02,2023-01-09_16h16.57.673,t1_Paradigm,2021.1.4,60.00019250499381,
S,left,Distractor,0,58,58,58,986.6951202843338,988.6957333367318,left,1,2,0.597591741476208,H24B02,2023-01-09_16h16.57.673,t1_Paradigm,2021.1.4,60.00019250499381,
L,left,Distractor,0,59,59,59,990.1952537382022,992.1976857362315,left,1,2,0.6313795438036323,H24B02,2023-01-09_16h16.57.673,t1_Paradigm,2021.1.4,60.00019250499381,
K,left,Pretarget,0,60,60,60,993.695015703328,995.6967194811441,left,1,2,0.5885807410813868,H24B02,2023-01-09_16h16.57.673,t1_Paradigm,2021.1.4,60.00019250499381,
V,left,Pretarget,0,61,61,61,997.1953243142925,999.1970916111022,left,1,2,0.8801879258826375,H24B02,2023-01-09_16h16.57.673,t1_Paradigm,2021.1.4,60.00019250499381,
K,right,Target,0,62,62,62,1000.695377888158,1002.6979038813151,left,0,2,0.8032580628059804,H24B02,2023-01-09_16h16.57.673,t1_Paradigm,2021.1.4,60.00019250499381,
V,right,Target,0,63,63,63,1004.1952229412273,1006.1970197516493,right,1,2,0.5201341593638062,H24B02,2023-01-09_16h16.57.673,t1_Paradigm,2021.1.4,60.00019250499381,
R,left,Distractor,0,0,0,0,1071.5300918454304,1073.5300610484555,None,0,3,,H24B02,2023-01-09_16h16.57.673,t1_Paradigm,2021.1.4,60.00019250499381,
P,left,Lure,0,1,1,1,1075.0287569891661,1077.030912135262,None,0,3,,H24B02,2023-01-09_16h16.57.673,t1_Paradigm,2021.1.4,60.00019250499381,
V,left,Distractor,0,2,2,2,1078.5285568088293,1080.5276758875698,None,0,3,,H24B02,2023-01-09_16h16.57.673,t1_Paradigm,2021.1.4,60.00019250499381,
P,left,Pretarget,0,3,3,3,1082.0286514456384,1084.029833599925,left,1,3,0.6553081460297108,H24B02,2023-01-09_16h16.57.673,t1_Paradigm,2021.1.4,60.00019250499381,
Z,left,Distractor,0,4,4,4,1085.528597871773,1087.5295102316886,left,1,3,0.7076597833074629,H24B02,2023-01-09_16h16.57.673,t1_Paradigm,2021.1.4,60.00019250499381,
L,left,Pretarget,0,5,5,5,1089.0286309141666,1091.0300042666495,left,1,3,0.5671049887314439,H24B02,2023-01-09_16h16.57.673,t1_Paradigm,2021.1.4,60.00019250499381,
P,right,Target,0,6,6,6,1092.5286931497976,1094.5296430438757,right,1,3,0.42753794277086854,H24B02,2023-01-09_16h16.57.673,t1_Paradigm,2021.1.4,60.00019250499381,
S,left,Distractor,0,7,7,7,1096.0287784831598,1098.030545459129,left,1,3,0.5744933737441897,H24B02,2023-01-09_16h16.57.673,t1_Paradigm,2021.1.4,60.00019250499381,
L,right,Target,0,8,8,8,1099.528342192527,1101.5288083176129,left,0,3,0.5644426550716162,H24B02,2023-01-09_16h16.57.673,t1_Paradigm,2021.1.4,60.00019250499381,
D,left,Distractor,0,9,9,9,1103.0282680876553,1105.02983905375,left,1,3,0.5190306012518704,H24B02,2023-01-09_16h16.57.673,t1_Paradigm,2021.1.4,60.00019250499381,
G,left,Distractor,0,10,10,10,1106.5288310945034,1108.530318331439,left,1,3,0.6986417253501713,H24B02,2023-01-09_16h16.57.673,t1_Paradigm,2021.1.4,60.00019250499381,
M,left,Pretarget,0,11,11,11,1110.0285693202168,1112.030873959884,left,1,3,0.8943298291414976,H24B02,2023-01-09_16h16.57.673,t1_Paradigm,2021.1.4,60.00019250499381,
Y,left,Distractor,0,12,12,12,1113.528662031982,1115.5306850080378,left,1,3,0.49832573579624295,H24B02,2023-01-09_16h16.57.673,t1_Paradigm,2021.1.4,60.00019250499381,
V,left,Distractor,0,13,13,13,1117.0287342122756,1119.0312752830796,left,1,3,0.4856178159825504,H24B02,2023-01-09_16h16.57.673,t1_Paradigm,2021.1.4,60.00019250499381,
M,right,Target,0,14,14,14,1120.5285991546698,1122.5297999158502,right,1,3,0.5233158711344004,H24B02,2023-01-09_16h16.57.673,t1_Paradigm,2021.1.4,60.00019250499381,
S,left,Pretarget,0,15,15,15,1124.0286402176134,1126.0306131481193,left,1,3,0.5745094139128923,H24B02,2023-01-09_16h16.57.673,t1_Paradigm,2021.1.4,60.00019250499381,
Q,left,Distractor,0,16,16,16,1127.5277236867696,1129.5300642563961,left,1,3,0.723021695856005,H24B02,2023-01-09_16h16.57.673,t1_Paradigm,2021.1.4,60.00019250499381,
R,left,Pretarget,0,17,17,17,1131.028398653958,1133.0283152451739,left,1,3,0.792884617112577,H24B02,2023-01-09_16h16.57.673,t1_Paradigm,2021.1.4,60.00019250499381,
S,right,Target,0,18,18,18,1134.5285523179919,1136.531200215686,right,1,3,0.6817646659910679,H24B02,2023-01-09_16h16.57.673,t1_Paradigm,2021.1.4,60.00019250499381,
F,left,Distractor,0,19,19,19,1138.0282863732427,1140.030298762489,left,1,3,0.4948116731829941,H24B02,2023-01-09_16h16.57.673,t1_Paradigm,2021.1.4,60.00019250499381,
R,right,Target,0,20,20,20,1141.5287046986632,1143.5296879559755,right,1,3,0.7234178860671818,H24B02,2023-01-09_16h16.57.673,t1_Paradigm,2021.1.4,60.00019250499381,
P,left,Distractor,0,21,21,21,1145.0285994755104,1147.0306484363973,left,1,3,0.502210003323853,H24B02,2023-01-09_16h16.57.673,t1_Paradigm,2021.1.4,60.00019250499381,
L,left,Distractor,0,22,22,22,1148.5286992448382,1150.5443514832295,left,1,3,0.6847728244028986,H24B02,2023-01-09_16h16.57.673,t1_Paradigm,2021.1.4,60.00019250499381,
R,right,Target,0,23,23,23,1152.0283133205958,1154.0310141504742,right,1,3,1.2781396065838635,H24B02,2023-01-09_16h16.57.673,t1_Paradigm,2021.1.4,60.00019250499381,
H,left,Pretarget,0,24,24,24,1155.5282873357646,1157.5295298006386,left,1,3,0.8993981759995222,H24B02,2023-01-09_16h16.57.673,t1_Paradigm,2021.1.4,60.00019250499381,
G,left,Pretarget,0,25,25,25,1159.028684488032,1161.0306596644223,left,1,3,0.982312916778028,H24B02,2023-01-09_16h16.57.673,t1_Paradigm,2021.1.4,60.00019250499381,
T,left,Distractor,0,26,26,26,1162.5286912252195,1164.530323785264,left,1,3,0.7311277142725885,H24B02,2023-01-09_16h16.57.673,t1_Paradigm,2021.1.4,60.00019250499381,
H,right,Target,0,27,27,27,1166.0285337115638,1168.0304351034574,right,1,3,0.6387108261696994,H24B02,2023-01-09_16h16.57.673,t1_Paradigm,2021.1.4,60.00019250499381,
G,right,Target,0,28,28,28,1169.528684488032,1171.5278099826537,right,1,3,0.5493749179877341,H24B02,2023-01-09_16h16.57.673,t1_Paradigm,2021.1.4,60.00019250499381,
D,left,Distractor,0,29,29,29,1173.0286408592947,1175.0303741511889,left,1,3,0.4387034475803375,H24B02,2023-01-09_16h16.57.673,t1_Paradigm,2021.1.4,60.00019250499381,
N,left,Pretarget,0,30,30,30,1176.5287585933693,1178.5303048579954,left,1,3,0.6186555838212371,H24B02,2023-01-09_16h16.57.673,t1_Paradigm,2021.1.4,60.00019250499381,
V,left,Distractor,0,31,31,31,1180.0287473653443,1182.0301932189614,left,1,3,0.5747647723183036,H24B02,2023-01-09_16h16.57.673,t1_Paradigm,2021.1.4,60.00019250499381,
R,left,Distractor,0,32,32,32,1183.5281814709306,1185.5292728384957,left,1,3,1.0279912357218564,H24B02,2023-01-09_16h16.57.673,t1_Paradigm,2021.1.4,60.00019250499381,
N,right,Target,0,33,33,33,1187.0285555259325,1189.0290809990838,right,1,3,0.6158155263401568,H24B02,2023-01-09_16h16.57.673,t1_Paradigm,2021.1.4,60.00019250499381,
Z,left,Distractor,0,34,34,34,1190.5284531898797,1192.53025417123,left,1,3,0.506890180055052,H24B02,2023-01-09_16h16.57.673,t1_Paradigm,2021.1.4,60.00019250499381,
N,left,Lure,0,35,35,35,1194.0282603884116,1196.0306452284567,left,1,3,0.7823138791136444,H24B02,2023-01-09_16h16.57.673,t1_Paradigm,2021.1.4,60.00019250499381,
Y,left,Pretarget,0,36,36,36,1197.5285446187481,1199.5308399549685,left,1,3,0.6421203068457544,H24B02,2023-01-09_16h16.57.673,t1_Paradigm,2021.1.4,60.00019250499381,
Y,left,Lure,0,37,37,37,1201.028312358074,1203.0285876058042,left,1,3,0.440501862205565,H24B02,2023-01-09_16h16.57.673,t1_Paradigm,2021.1.4,60.00019250499381,
B,left,Distractor,0,38,38,38,1204.5281936614774,1206.530053990893,left,1,3,0.45917476946488023,H24B02,2023-01-09_16h16.57.673,t1_Paradigm,2021.1.4,60.00019250499381,
Y,right,Target,0,39,39,39,1208.028532749042,1210.0305149829946,right,1,3,0.6065074633806944,H24B02,2023-01-09_16h16.57.673,t1_Paradigm,2021.1.4,60.00019250499381,
J,left,Distractor,0,40,40,40,1211.5284810997546,1213.5286511247978,left,1,3,0.4362813946790993,H24B02,2023-01-09_16h16.57.673,t1_Paradigm,2021.1.4,60.00019250499381,
X,left,Distractor,0,41,41,41,1215.0282302326523,1217.0295006078668,left,1,3,0.48729336354881525,H24B02,2023-01-09_16h16.57.673,t1_Paradigm,2021.1.4,60.00019250499381,
W,left,Pretarget,0,42,42,42,1218.5285138217732,1220.529077149462,left,1,3,0.41212149430066347,H24B02,2023-01-09_16h16.57.673,t1_Paradigm,2021.1.4,60.00019250499381,
S,left,Pretarget,0,43,43,43,1222.0282093808055,1224.030220487155,left,1,3,0.4468919122591615,H24B02,2023-01-09_16h16.57.673,t1_Paradigm,2021.1.4,60.00019250499381,
R,left,Distractor,0,44,44,44,1225.5284942528233,1227.5305294189602,left,1,3,0.5785868037492037,H24B02,2023-01-09_16h16.57.673,t1_Paradigm,2021.1.4,60.00019250499381,
W,right,Target,0,45,45,45,1229.0283261528239,1231.028818583116,left,0,3,0.5999162709340453,H24B02,2023-01-09_16h16.57.673,t1_Paradigm,2021.1.4,60.00019250499381,
S,right,Target,0,46,46,46,1232.5282103433274,1234.5305566871539,right,1,3,0.4423881764523685,H24B02,2023-01-09_16h16.57.673,t1_Paradigm,2021.1.4,60.00019250499381,
D,left,Distractor,0,47,47,47,1236.028316849377,1238.029604547657,left,1,3,0.4315290371887386,H24B02,2023-01-09_16h16.57.673,t1_Paradigm,2021.1.4,60.00019250499381,
T,left,Distractor,0,48,48,48,1239.5286806384102,1241.5306019200943,left,1,3,0.4822458690032363,H24B02,2023-01-09_16h16.57.673,t1_Paradigm,2021.1.4,60.00019250499381,
S,right,Target,0,49,49,49,1243.0284551149234,1245.030021589715,left,0,3,0.5828316528350115,H24B02,2023-01-09_16h16.57.673,t1_Paradigm,2021.1.4,60.00019250499381,
K,left,Distractor,0,50,50,50,1246.5282587842084,1248.530002020765,left,1,3,0.7631203103810549,H24B02,2023-01-09_16h16.57.673,t1_Paradigm,2021.1.4,60.00019250499381,
S,left,Lure,0,51,51,51,1250.0282728993334,1252.0304966974072,left,1,3,0.7183986217714846,H24B02,2023-01-09_16h16.57.673,t1_Paradigm,2021.1.4,60.00019250499381,
T,left,Pretarget,0,52,52,52,1253.5281888493337,1255.5292192646302,left,1,3,0.7717774664051831,H24B02,2023-01-09_16h16.57.673,t1_Paradigm,2021.1.4,60.00019250499381,
V,left,Distractor,0,53,53,53,1257.0283582326956,1259.029829108622,left,1,3,0.7594756819307804,H24B02,2023-01-09_16h16.57.673,t1_Paradigm,2021.1.4,60.00019250499381,
B,left,Distractor,0,54,54,54,1260.528404428158,1262.5297732893378,left,1,3,0.4912661723792553,H24B02,2023-01-09_16h16.57.673,t1_Paradigm,2021.1.4,60.00019250499381,
T,right,Target,0,55,55,55,1264.0284939319827,1266.0296728783287,right,1,3,0.6713581783697009,H24B02,2023-01-09_16h16.57.673,t1_Paradigm,2021.1.4,60.00019250499381,
Y,left,Pretarget,0,56,56,56,1267.528580227401,1269.5295567479916,left,1,3,0.48328237934038043,H24B02,2023-01-09_16h16.57.673,t1_Paradigm,2021.1.4,60.00019250499381,
T,left,Lure,0,57,57,57,1271.0284108440392,1273.0308784511872,left,1,3,0.8061626018024981,H24B02,2023-01-09_16h16.57.673,t1_Paradigm,2021.1.4,60.00019250499381,
P,left,Pretarget,0,58,58,58,1274.528412769083,1276.5303741511889,left,1,3,0.6345262881368399,H24B02,2023-01-09_16h16.57.673,t1_Paradigm,2021.1.4,60.00019250499381,
Y,right,Target,0,59,59,59,1278.0281452205963,1280.030307103414,right,1,3,0.8467809148132801,H24B02,2023-01-09_16h16.57.673,t1_Paradigm,2021.1.4,60.00019250499381,
R,left,Distractor,0,60,60,60,1281.5285632251762,1283.5303670931607,left,1,3,0.6747070280835032,H24B02,2023-01-09_16h16.57.673,t1_Paradigm,2021.1.4,60.00019250499381,
P,right,Target,0,61,61,61,1285.0285022729076,1287.0297440961003,left,0,3,0.8392975726164877,H24B02,2023-01-09_16h16.57.673,t1_Paradigm,2021.1.4,60.00019250499381,
L,left,Distractor,0,62,62,62,1288.5284406789578,1290.5296972594224,left,1,3,0.651120079215616,H24B02,2023-01-09_16h16.57.673,t1_Paradigm,2021.1.4,60.00019250499381,
V,left,Distractor,0,63,63,63,1292.0282029649243,1294.030302612111,left,1,3,0.41476233396679163,H24B02,2023-01-09_16h16.57.673,t1_Paradigm,2021.1.4,60.00019250499381,
H,left,Lure,0,0,0,0,1299.571714268066,1301.5791366579942,None,0,3,,H24B02,2023-01-09_16h16.57.673,t1_Paradigm,2021.1.4,60.00019250499381,
B,left,Distractor,0,1,1,1,1303.078112338204,1305.0789384027012,None,0,3,,H24B02,2023-01-09_16h16.57.673,t1_Paradigm,2021.1.4,60.00019250499381,
T,left,Distractor,0,2,2,2,1306.57851398224,1308.5792049891315,None,0,3,,H24B02,2023-01-09_16h16.57.673,t1_Paradigm,2021.1.4,60.00019250499381,
R,left,Distractor,0,3,3,3,1310.0784719567746,1312.0804304517806,left,1,3,0.49266550969332457,H24B02,2023-01-09_16h16.57.673,t1_Paradigm,2021.1.4,60.00019250499381,
H,left,Pretarget,0,4,4,4,1313.5786012401804,1315.580565830227,left,1,3,0.6723962929099798,H24B02,2023-01-09_16h16.57.673,t1_Paradigm,2021.1.4,60.00019250499381,
K,left,Distractor,0,5,5,5,1317.0784536711872,1319.091046102345,left,1,3,0.634023271035403,H24B02,2023-01-09_16h16.57.673,t1_Paradigm,2021.1.4,60.00019250499381,
G,left,Distractor,0,6,6,6,1320.578139285557,1322.580310150981,left,1,3,1.0004224958829582,H24B02,2023-01-09_16h16.57.673,t1_Paradigm,2021.1.4,60.00019250499381,
H,right,Target,0,7,7,7,1324.0783718670718,1326.0800044271164,right,1,3,0.9410337512381375,H24B02,2023-01-09_16h16.57.673,t1_Paradigm,2021.1.4,60.00019250499381,
Y,left,Pretarget,0,8,8,8,1327.5781918969005,1329.5911333602853,left,1,3,0.6139051513746381,H24B02,2023-01-09_16h16.57.673,t1_Paradigm,2021.1.4,60.00019250499381,
S,left,Distractor,0,9,9,9,1331.0784004181623,1333.0798995248042,left,1,3,0.5809937794692814,H24B02,2023-01-09_16h16.57.673,t1_Paradigm,2021.1.4,60.00019250499381,
P,left,Distractor,0,10,10,10,1334.578428648878,1336.58061812073,left,1,3,0.5522188255563378,H24B02,2023-01-09_16h16.57.673,t1_Paradigm,2021.1.4,60.00019250499381,
Y,right,Target,0,11,11,11,1338.0781537215225,1340.0792861520313,right,1,3,0.46177326375618577,H24B02,2023-01-09_16h16.57.673,t1_Paradigm,2021.1.4,60.00019250499381,
H,left,Lure,0,12,12,12,1341.57820248371,1343.5804243562743,left,1,3,0.4808664214797318,H24B02,2023-01-09_16h16.57.673,t1_Paradigm,2021.1.4,60.00019250499381,
Q,left,Distractor,0,13,13,13,1345.0784395560622,1347.0797413694672,left,1,3,0.5971804731525481,H24B02,2023-01-09_16h16.57.673,t1_Paradigm,2021.1.4,60.00019250499381,
V,left,Pretarget,0,14,14,14,1348.5782066541724,1350.580721418839,left,1,3,0.5522079179063439,H24B02,2023-01-09_16h16.57.673,t1_Paradigm,2021.1.4,60.00019250499381,
G,left,Distractor,0,15,15,15,1352.078506924212,1354.0788184227422,left,1,3,0.5741834794171154,H24B02,2023-01-09_16h16.57.673,t1_Paradigm,2021.1.4,60.00019250499381,
Z,left,Pretarget,0,16,16,16,1355.5782576613128,1357.5800583218224,left,1,3,0.4488930734805763,H24B02,2023-01-09_16h16.57.673,t1_Paradigm,2021.1.4,60.00019250499381,
V,right,Target,0,17,17,17,1359.078488317784,1361.0798619911075,right,1,3,0.4050721963867545,H24B02,2023-01-09_16h16.57.673,t1_Paradigm,2021.1.4,60.00019250499381,
N,left,Distractor,0,18,18,18,1362.5783693003468,1364.5792322573252,left,1,3,0.4897112459875643,H24B02,2023-01-09_16h16.57.673,t1_Paradigm,2021.1.4,60.00019250499381,
Z,right,Target,0,19,19,19,1366.0782435461879,1368.0798815600574,right,1,3,0.4610511385835707,H24B02,2023-01-09_16h16.57.673,t1_Paradigm,2021.1.4,60.00019250499381,
R,left,Distractor,0,20,20,20,1369.578460087534,1371.5784809393808,left,1,3,0.45032737823203206,H24B02,2023-01-09_16h16.57.673,t1_Paradigm,2021.1.4,60.00019250499381,
P,left,Distractor,0,21,21,21,1373.0785723677836,1375.0797278960235,left,1,3,0.8210795619525015,H24B02,2023-01-09_16h16.57.673,t1_Paradigm,2021.1.4,60.00019250499381,
Z,right,Target,0,22,22,22,1376.5782307139598,1378.5791007285006,right,1,3,0.8258639993146062,H24B02,2023-01-09_16h16.57.673,t1_Paradigm,2021.1.4,60.00019250499381,
D,left,Pretarget,0,23,23,23,1380.0784780522808,1382.0909466538578,left,1,3,0.5939843254163861,H24B02,2023-01-09_16h16.57.673,t1_Paradigm,2021.1.4,60.00019250499381,
K,left,Distractor,0,24,24,24,1383.5780029450543,1385.5808580801822,left,1,3,0.4641147959046066,H24B02,2023-01-09_16h16.57.673,t1_Paradigm,2021.1.4,60.00019250499381,
W,left,Distractor,0,25,25,25,1387.0784751651809,1389.0804538703524,left,1,3,0.6445795730687678,H24B02,2023-01-09_16h16.57.673,t1_Paradigm,2021.1.4,60.00019250499381,
D,right,Target,0,26,26,26,1390.5780706340447,1392.5801664316095,right,1,3,0.8727430794388056,H24B02,2023-01-09_16h16.57.673,t1_Paradigm,2021.1.4,60.00019250499381,
G,left,Pretarget,0,27,27,27,1394.078078654129,1396.079971384257,None,0,3,,H24B02,2023-01-09_16h16.57.673,t1_Paradigm,2021.1.4,60.00019250499381,
V,left,Distractor,0,28,28,28,1397.5783112351783,1399.5794208887964,left,1,3,0.7853637412190437,H24B02,2023-01-09_16h16.57.673,t1_Paradigm,2021.1.4,60.00019250499381,
D,right,Target,0,29,29,29,1401.0781566090882,1403.0793159864843,left,0,3,0.9976514102891088,H24B02,2023-01-09_16h16.57.673,t1_Paradigm,2021.1.4,60.00019250499381,
G,right,Target,0,30,30,30,1404.5784344230779,1406.5789951845072,left,0,3,0.6822368865832686,H24B02,2023-01-09_16h16.57.673,t1_Paradigm,2021.1.4,60.00019250499381,
B,left,Pretarget,0,31,31,31,1408.0783590348437,1410.0798546127044,left,1,3,1.02100994810462,H24B02,2023-01-09_16h16.57.673,t1_Paradigm,2021.1.4,60.00019250499381,
N,left,Distractor,0,32,32,32,1411.57837379165,1413.5798202869482,left,1,3,0.44887639163061976,H24B02,2023-01-09_16h16.57.673,t1_Paradigm,2021.1.4,60.00019250499381,
F,left,Distractor,0,33,33,33,1415.0783805283718,1417.078526493162,left,1,3,0.4700576481409371,H24B02,2023-01-09_16h16.57.673,t1_Paradigm,2021.1.4,60.00019250499381,
B,right,Target,0,34,34,34,1418.578270493541,1420.5801783013158,right,1,3,0.7447390118613839,H24B02,2023-01-09_16h16.57.673,t1_Paradigm,2021.1.4,60.00019250499381,
Q,left,Pretarget,0,35,35,35,1422.078290704172,1424.0801850385033,left,1,3,0.5408117566257715,H24B02,2023-01-09_16h16.57.673,t1_Paradigm,2021.1.4,60.00019250499381,
S,left,Pretarget,0,36,36,36,1425.5783397867344,1427.579223274719,left,1,3,0.5137774725444615,H24B02,2023-01-09_16h16.57.673,t1_Paradigm,2021.1.4,60.00019250499381,
W,left,Distractor,0,37,37,37,1429.0783914355561,1431.080146221444,left,1,3,0.5165363675914705,H24B02,2023-01-09_16h16.57.673,t1_Paradigm,2021.1.4,60.00019250499381,
Q,right,Target,0,38,38,38,1432.5784126087092,1434.579920056276,right,1,3,0.5692976685240865,H24B02,2023-01-09_16h16.57.673,t1_Paradigm,2021.1.4,60.00019250499381,
S,right,Target,0,39,39,39,1436.0784289697185,1438.0796470539644,right,1,3,0.42928470810875297,H24B02,2023-01-09_16h16.57.673,t1_Paradigm,2021.1.4,60.00019250499381,
T,left,Distractor,0,40,40,40,1439.5782518871129,1441.580062492285,left,1,3,0.4326691669411957,H24B02,2023-01-09_16h16.57.673,t1_Paradigm,2021.1.4,60.00019250499381,
G,left,Distractor,0,41,41,41,1443.0783157264814,1445.0793910538778,left,1,3,0.4851779965683818,H24B02,2023-01-09_16h16.57.673,t1_Paradigm,2021.1.4,60.00019250499381,
D,left,Distractor,0,42,42,42,1446.5781867643818,1448.57857557619,left,1,3,0.7941421600989997,H24B02,2023-01-09_16h16.57.673,t1_Paradigm,2021.1.4,60.00019250499381,
S,left,Lure,0,43,43,43,1450.078038874548,1452.0795472846366,left,1,3,0.973253795877099,H24B02,2023-01-09_16h16.57.673,t1_Paradigm,2021.1.4,60.00019250499381,
Z,left,Pretarget,0,44,44,44,1453.5780032654293,1455.5796618107706,left,1,3,0.6093760724179447,H24B02,2023-01-09_16h16.57.673,t1_Paradigm,2021.1.4,60.00019250499381,
J,left,Distractor,0,45,45,45,1457.0780478571542,1459.0800275248475,left,1,3,0.5165184028446674,H24B02,2023-01-09_16h16.57.673,t1_Paradigm,2021.1.4,60.00019250499381,
M,left,Pretarget,0,46,46,46,1460.5783035359345,1462.5803531385027,left,1,3,0.6003352380357683,H24B02,2023-01-09_16h16.57.673,t1_Paradigm,2021.1.4,60.00019250499381,
Z,right,Target,0,47,47,47,1464.0784000973217,1466.0803261911497,right,1,3,1.356602260377258,H24B02,2023-01-09_16h16.57.673,t1_Paradigm,2021.1.4,60.00019250499381,
P,left,Distractor,0,48,48,48,1467.578389510978,1469.5805112938397,left,1,3,0.6085310806520283,H24B02,2023-01-09_16h16.57.673,t1_Paradigm,2021.1.4,60.00019250499381,
M,right,Target,0,49,49,49,1471.0783154056408,1473.0800519054756,right,1,3,0.516483114566654,H24B02,2023-01-09_16h16.57.673,t1_Paradigm,2021.1.4,60.00019250499381,
K,left,Distractor,0,50,50,50,1474.578016418498,1476.580472797621,left,1,3,0.4563837945461273,H24B02,2023-01-09_16h16.57.673,t1_Paradigm,2021.1.4,60.00019250499381,
Y,left,Distractor,0,51,51,51,1478.078209862113,1480.0796031039208,left,1,3,0.4613844519481063,H24B02,2023-01-09_16h16.57.673,t1_Paradigm,2021.1.4,60.00019250499381,
X,left,Distractor,0,52,52,52,1481.5781655912288,1483.5798799558543,left,1,3,0.4487795098684728,H24B02,2023-01-09_16h16.57.673,t1_Paradigm,2021.1.4,60.00019250499381,
F,left,Pretarget,0,53,53,53,1485.0784392352216,1487.0907458318397,left,1,3,0.44181201653555036,H24B02,2023-01-09_16h16.57.673,t1_Paradigm,2021.1.4,60.00019250499381,
M,left,Lure,0,54,54,54,1488.5782198067755,1490.5806996044703,left,1,3,0.4401887599378824,H24B02,2023-01-09_16h16.57.673,t1_Paradigm,2021.1.4,60.00019250499381,
V,left,Distractor,0,55,55,55,1492.0782259022817,1494.0797493895516,left,1,3,0.4931505615822971,H24B02,2023-01-09_16h16.57.673,t1_Paradigm,2021.1.4,60.00019250499381,
F,right,Target,0,56,56,56,1495.5783744333312,1497.5795280365273,left,0,3,0.44913367461413145,H24B02,2023-01-09_16h16.57.673,t1_Paradigm,2021.1.4,60.00019250499381,
S,left,Distractor,0,57,57,57,1499.0782291102223,1501.0803935592994,left,1,3,0.5647503039799631,H24B02,2023-01-09_16h16.57.673,t1_Paradigm,2021.1.4,60.00019250499381,
D,left,Distractor,0,58,58,58,1502.5782820424065,1504.5799931990914,left,1,3,0.6166749536059797,H24B02,2023-01-09_16h16.57.673,t1_Paradigm,2021.1.4,60.00019250499381,
F,right,Target,0,59,59,59,1506.0778053309768,1508.079517449718,right,1,3,0.5250430679880083,H24B02,2023-01-09_16h16.57.673,t1_Paradigm,2021.1.4,60.00019250499381,
V,left,Pretarget,0,60,60,60,1509.5782111450098,1511.579487615265,left,1,3,0.48161645606160164,H24B02,2023-01-09_16h16.57.673,t1_Paradigm,2021.1.4,60.00019250499381,
J,left,Distractor,0,61,61,61,1513.0780606893823,1515.08056230098,left,1,3,0.5963374064303935,H24B02,2023-01-09_16h16.57.673,t1_Paradigm,2021.1.4,60.00019250499381,
V,left,Lure,0,62,62,62,1516.57797535602,1518.580184396822,left,1,3,0.9364068279974163,H24B02,2023-01-09_16h16.57.673,t1_Paradigm,2021.1.4,60.00019250499381,
V,right,Target,0,63,63,63,1520.0781566090882,1522.0783218219876,right,1,3,0.654404126573354,H24B02,2023-01-09_16h16.57.673,t1_Paradigm,2021.1.4,60.00019250499381,
R,left,Distractor,0,0,0,0,1576.9619840304367,1578.962581363041,None,0,4,,H24B02,2023-01-09_16h16.57.673,t1_Paradigm,2021.1.4,60.00019250499381,
F,left,Distractor,0,1,1,1,1580.4615310584195,1582.4621367319487,None,0,4,,H24B02,2023-01-09_16h16.57.673,t1_Paradigm,2021.1.4,60.00019250499381,
P,left,Pretarget,0,2,2,2,1583.9612147477455,1585.9619025466964,None,0,4,,H24B02,2023-01-09_16h16.57.673,t1_Paradigm,2021.1.4,60.00019250499381,
H,left,Distractor,0,3,3,3,1587.461224692408,1589.462273072917,None,0,4,,H24B02,2023-01-09_16h16.57.673,t1_Paradigm,2021.1.4,60.00019250499381,
Z,left,Distractor,0,4,4,4,1590.9615307375789,1592.9629634381272,left,1,4,0.5058315340429544,H24B02,2023-01-09_16h16.57.673,t1_Paradigm,2021.1.4,60.00019250499381,
T,left,Distractor,0,5,5,5,1594.4613812440075,1596.4631325006485,left,1,4,0.5094950902275741,H24B02,2023-01-09_16h16.57.673,t1_Paradigm,2021.1.4,60.00019250499381,
P,right,Target,0,6,6,6,1597.9616038803943,1599.9638199787587,right,1,4,0.4487782269716263,H24B02,2023-01-09_16h16.57.673,t1_Paradigm,2021.1.4,60.00019250499381,
G,left,Distractor,0,7,7,7,1601.4615894444287,1603.4636137033813,left,1,4,0.4531035963445902,H24B02,2023-01-09_16h16.57.673,t1_Paradigm,2021.1.4,60.00019250499381,
L,left,Distractor,0,8,8,8,1604.9610889935866,1606.962970174849,left,1,4,0.5217243735678494,H24B02,2023-01-09_16h16.57.673,t1_Paradigm,2021.1.4,60.00019250499381,
P,left,Lure,0,9,9,9,1608.4614251935855,1610.463373101782,left,1,4,0.46141332387924194,H24B02,2023-01-09_16h16.57.673,t1_Paradigm,2021.1.4,60.00019250499381,
Q,left,Pretarget,0,10,10,10,1611.961603238713,1613.9631177438423,left,1,4,0.6094877114519477,H24B02,2023-01-09_16h16.57.673,t1_Paradigm,2021.1.4,60.00019250499381,
D,left,Distractor,0,11,11,11,1615.4612686424516,1617.4741757800803,left,1,4,0.8105245428159833,H24B02,2023-01-09_16h16.57.673,t1_Paradigm,2021.1.4,60.00019250499381,
M,left,Pretarget,0,12,12,12,1618.9614498955198,1620.9630814930424,left,1,4,0.7463276223279536,H24B02,2023-01-09_16h16.57.673,t1_Paradigm,2021.1.4,60.00019250499381,
C,left,Distractor,0,13,13,13,1622.4616773440503,1624.4633609117009,left,1,4,0.5092868898063898,H24B02,2023-01-09_16h16.57.673,t1_Paradigm,2021.1.4,60.00019250499381,
Q,right,Target,0,14,14,14,1625.961422627326,1627.9629919896834,left,0,4,1.0258992873132229,H24B02,2023-01-09_16h16.57.673,t1_Paradigm,2021.1.4,60.00019250499381,
R,left,Distractor,0,15,15,15,1629.4613536549732,1631.4620619853958,left,1,4,0.5185487568378448,H24B02,2023-01-09_16h16.57.673,t1_Paradigm,2021.1.4,60.00019250499381,
M,right,Target,0,16,16,16,1632.961267359089,1634.963047488127,right,1,4,0.45769651513546705,H24B02,2023-01-09_16h16.57.673,t1_Paradigm,2021.1.4,60.00019250499381,
S,left,Distractor,0,17,17,17,1636.4614142864011,1638.463662465103,left,1,4,0.6530015817843378,H24B02,2023-01-09_16h16.57.673,t1_Paradigm,2021.1.4,60.00019250499381,
Z,left,Distractor,0,18,18,18,1639.961469143629,1641.9633965203539,left,1,4,0.8651471356861293,H24B02,2023-01-09_16h16.57.673,t1_Paradigm,2021.1.4,60.00019250499381,
L,left,Pretarget,0,19,19,19,1643.4612593390048,1645.4629528517835,left,1,4,1.0298493192531168,H24B02,2023-01-09_16h16.57.673,t1_Paradigm,2021.1.4,60.00019250499381,
M,right,Target,0,20,20,20,1646.9615467777476,1648.9633182450198,right,1,4,0.47340200608596206,H24B02,2023-01-09_16h16.57.673,t1_Paradigm,2021.1.4,60.00019250499381,
P,left,Distractor,0,21,21,21,1650.4614620860666,1652.463696790859,left,1,4,0.4610861064866185,H24B02,2023-01-09_16h16.57.673,t1_Paradigm,2021.1.4,60.00019250499381,
F,left,Distractor,0,22,22,22,1653.9614267977886,1655.9631921695545,left,1,4,0.62535649118945,H24B02,2023-01-09_16h16.57.673,t1_Paradigm,2021.1.4,60.00019250499381,
L,right,Target,0,23,23,23,1657.4614232690074,1659.462649052497,right,1,4,0.5499318293295801,H24B02,2023-01-09_16h16.57.673,t1_Paradigm,2021.1.4,60.00019250499381,
L,left,Lure,0,24,24,24,1660.9615387576632,1662.9614486121573,left,1,4,0.39517482090741396,H24B02,2023-01-09_16h16.57.673,t1_Paradigm,2021.1.4,60.00019250499381,
V,left,Pretarget,0,25,25,25,1664.4613677700981,1666.46155383531,right,0,4,0.8792479764670134,H24B02,2023-01-09_16h16.57.673,t1_Paradigm,2021.1.4,60.00019250499381,
Z,left,Distractor,0,26,26,26,1667.961412361823,1669.9624771028757,left,1,4,1.3143507451750338,H24B02,2023-01-09_16h16.57.673,t1_Paradigm,2021.1.4,60.00019250499381,
H,left,Distractor,0,27,27,27,1671.461526887957,1673.4634401495568,left,1,4,0.9976193304173648,H24B02,2023-01-09_16h16.57.673,t1_Paradigm,2021.1.4,60.00019250499381,
X,left,Distractor,0,28,28,28,1674.961245865561,1676.9630173328333,left,1,4,0.9216884435154498,H24B02,2023-01-09_16h16.57.673,t1_Paradigm,2021.1.4,60.00019250499381,
V,right,Target,0,29,29,29,1678.4612070485018,1680.46267311275,left,0,4,1.2300992240197957,H24B02,2023-01-09_16h16.57.673,t1_Paradigm,2021.1.4,60.00019250499381,
C,left,Distractor,0,30,30,30,1681.9612112189643,1683.9629842904396,left,1,4,0.7696313024498522,H24B02,2023-01-09_16h16.57.673,t1_Paradigm,2021.1.4,60.00019250499381,
S,left,Pretarget,0,31,31,31,1685.4613764318638,1687.4631514279172,left,1,4,1.2694863001815975,H24B02,2023-01-09_16h16.57.673,t1_Paradigm,2021.1.4,60.00019250499381,
D,left,Distractor,0,32,32,32,1688.9613706571981,1690.9629894229583,left,1,4,0.6814939095638692,H24B02,2023-01-09_16h16.57.673,t1_Paradigm,2021.1.4,60.00019250499381,
V,left,Distractor,0,33,33,33,1692.4611422466114,1694.463123838883,right,0,4,0.8136469065211713,H24B02,2023-01-09_16h16.57.673,t1_Paradigm,2021.1.4,60.00019250499381,
R,left,Distractor,0,34,34,34,1695.96140787052,1697.9623956191353,left,1,4,0.6901780124753714,H24B02,2023-01-09_16h16.57.673,t1_Paradigm,2021.1.4,60.00019250499381,
S,right,Target,0,35,35,35,1699.4613353693858,1701.4629198089242,right,1,4,0.5336280432529747,H24B02,2023-01-09_16h16.57.673,t1_Paradigm,2021.1.4,60.00019250499381,
Y,left,Distractor,0,36,36,36,1702.9613311989233,1704.9632486309856,left,1,4,0.48935355246067047,H24B02,2023-01-09_16h16.57.673,t1_Paradigm,2021.1.4,60.00019250499381,
N,left,Pretarget,0,37,37,37,1706.4613350485452,1708.4630750771612,left,1,4,0.6375591480173171,H24B02,2023-01-09_16h16.57.673,t1_Paradigm,2021.1.4,60.00019250499381,
Z,left,Pretarget,0,38,38,38,1709.9614088330418,1711.9633788764477,left,1,4,0.7692190720699728,H24B02,2023-01-09_16h16.57.673,t1_Paradigm,2021.1.4,60.00019250499381,
P,left,Pretarget,0,39,39,39,1713.4613430686295,1715.4607579261065,left,1,4,0.7759164506569505,H24B02,2023-01-09_16h16.57.673,t1_Paradigm,2021.1.4,60.00019250499381,
M,left,Distractor,0,40,40,40,1716.9613311989233,1718.9630349767394,left,1,4,1.225789573509246,H24B02,2023-01-09_16h16.57.673,t1_Paradigm,2021.1.4,60.00019250499381,
N,right,Target,0,41,41,41,1720.4615060356446,1722.4621694539674,left,0,4,0.6384881897829473,H24B02,2023-01-09_16h16.57.673,t1_Paradigm,2021.1.4,60.00019250499381,
Z,right,Target,0,42,42,42,1723.9612503568642,1725.963724700734,right,1,4,1.216805841308087,H24B02,2023-01-09_16h16.57.673,t1_Paradigm,2021.1.4,60.00019250499381,
P,right,Target,0,43,43,43,1727.4613539758138,1729.4627728820778,right,1,4,0.661993654910475,H24B02,2023-01-09_16h16.57.673,t1_Paradigm,2021.1.4,60.00019250499381,
X,left,Pretarget,0,44,44,44,1730.9611303769052,1732.9632739741355,left,1,4,0.569230621214956,H24B02,2023-01-09_16h16.57.673,t1_Paradigm,2021.1.4,60.00019250499381,
Z,left,Lure,0,45,45,45,1734.4614713890478,1736.4633654025383,left,1,4,0.8613501260988414,H24B02,2023-01-09_16h16.57.673,t1_Paradigm,2021.1.4,60.00019250499381,
R,left,Pretarget,0,46,46,46,1737.9612975148484,1739.963490194641,left,1,4,0.6091534364968538,H24B02,2023-01-09_16h16.57.673,t1_Paradigm,2021.1.4,60.00019250499381,
K,left,Distractor,0,47,47,47,1741.4610867477022,1743.462791488506,left,1,4,0.4858260164037347,H24B02,2023-01-09_16h16.57.673,t1_Paradigm,2021.1.4,60.00019250499381,
X,right,Target,0,48,48,48,1744.9613376148045,1746.96139118867,right,1,4,0.6672230437397957,H24B02,2023-01-09_16h16.57.673,t1_Paradigm,2021.1.4,60.00019250499381,
B,left,Distractor,0,49,49,49,1748.4612747374922,1750.463162014261,left,1,4,0.39755099918693304,H24B02,2023-01-09_16h16.57.673,t1_Paradigm,2021.1.4,60.00019250499381,
R,right,Target,0,50,50,50,1751.9613847727887,1753.962565323338,right,1,4,0.6104161120019853,H24B02,2023-01-09_16h16.57.673,t1_Paradigm,2021.1.4,60.00019250499381,
Y,left,Pretarget,0,51,51,51,1755.4613000811078,1757.4622057043016,left,1,4,0.6784495008178055,H24B02,2023-01-09_16h16.57.673,t1_Paradigm,2021.1.4,60.00019250499381,
W,left,Pretarget,0,52,52,52,1758.9613421061076,1760.962463949807,left,1,4,0.6019812715239823,H24B02,2023-01-09_16h16.57.673,t1_Paradigm,2021.1.4,60.00019250499381,
Z,left,Distractor,0,53,53,53,1762.4613267076202,1764.4620645516552,right,0,4,1.3424818506464362,H24B02,2023-01-09_16h16.57.673,t1_Paradigm,2021.1.4,60.00019250499381,
Q,left,Distractor,0,54,54,54,1765.960902607534,1767.963106836658,left,1,4,0.89773353561759,H24B02,2023-01-09_16h16.57.673,t1_Paradigm,2021.1.4,60.00019250499381,
Y,right,Target,0,55,55,55,1769.4613777152263,1771.4632714078762,left,0,4,0.6774450708180666,H24B02,2023-01-09_16h16.57.673,t1_Paradigm,2021.1.4,60.00019250499381,
W,right,Target,0,56,56,56,1772.9614415545948,1774.9741112990305,right,1,4,0.5264699938707054,H24B02,2023-01-09_16h16.57.673,t1_Paradigm,2021.1.4,60.00019250499381,
H,left,Pretarget,0,57,57,57,1776.4614261561073,1778.4621367319487,left,1,4,0.4625919498503208,H24B02,2023-01-09_16h16.57.673,t1_Paradigm,2021.1.4,60.00019250499381,
M,left,Distractor,0,58,58,58,1779.9610957303084,1781.963043638505,left,1,4,1.1215007747523487,H24B02,2023-01-09_16h16.57.673,t1_Paradigm,2021.1.4,60.00019250499381,
R,left,Pretarget,0,59,59,59,1783.4612853243016,1785.463078926783,left,1,4,0.7094161729328334,H24B02,2023-01-09_16h16.57.673,t1_Paradigm,2021.1.4,60.00019250499381,
J,left,Distractor,0,60,60,60,1786.961189083755,1788.9629249419086,left,1,4,0.5216740076430142,H24B02,2023-01-09_16h16.57.673,t1_Paradigm,2021.1.4,60.00019250499381,
H,right,Target,0,61,61,61,1790.4615188678727,1792.462854044512,right,1,4,0.5259060240350664,H24B02,2023-01-09_16h16.57.673,t1_Paradigm,2021.1.4,60.00019250499381,
Z,left,Distractor,0,62,62,62,1793.9612269382924,1795.962006165646,left,1,4,0.8344521825201809,H24B02,2023-01-09_16h16.57.673,t1_Paradigm,2021.1.4,60.00019250499381,
R,right,Target,0,63,63,63,1797.4613950382918,1799.4634128813632,left,0,4,0.5170502923429012,H24B02,2023-01-09_16h16.57.673,t1_Paradigm,2021.1.4,60.00019250499381,
J,left,Pretarget,0,0,0,0,1806.8772625345737,1808.878773510456,None,0,4,,H24B02,2023-01-09_16h16.57.673,t1_Paradigm,2021.1.4,60.00019250499381,
G,left,Pretarget,0,1,1,1,1810.377994603943,1812.3792900014669,None,0,4,,H24B02,2023-01-09_16h16.57.673,t1_Paradigm,2021.1.4,60.00019250499381,
Z,left,Distractor,0,2,2,2,1813.877963165287,1815.8794125476852,None,0,4,,H24B02,2023-01-09_16h16.57.673,t1_Paradigm,2021.1.4,60.00019250499381,
F,left,Distractor,0,3,3,3,1817.37760835886,1819.3793608988635,None,0,4,,H24B02,2023-01-09_16h16.57.673,t1_Paradigm,2021.1.4,60.00019250499381,
J,right,Target,0,4,4,4,1820.87798722554,1822.8782958369702,right,1,4,0.7020791159011424,H24B02,2023-01-09_16h16.57.673,t1_Paradigm,2021.1.4,60.00019250499381,
G,right,Target,0,5,5,5,1824.377804689575,1826.3792980215512,right,1,4,0.4652016721665859,H24B02,2023-01-09_16h16.57.673,t1_Paradigm,2021.1.4,60.00019250499381,
H,left,Distractor,0,6,6,6,1827.8776612910442,1829.8798943920992,left,1,4,0.4685101006180048,H24B02,2023-01-09_16h16.57.673,t1_Paradigm,2021.1.4,60.00019250499381,
P,left,Distractor,0,7,7,7,1831.3778277873062,1833.3796255602501,left,1,4,0.6812529875896871,H24B02,2023-01-09_16h16.57.673,t1_Paradigm,2021.1.4,60.00019250499381,
G,left,Lure,0,8,8,8,1834.8779583536088,1836.8793281768449,left,1,4,1.0851106285117567,H24B02,2023-01-09_16h16.57.673,t1_Paradigm,2021.1.4,60.00019250499381,
S,left,Distractor,0,9,9,9,1838.3779596365057,1840.3799085072242,left,1,4,0.5127136940136552,H24B02,2023-01-09_16h16.57.673,t1_Paradigm,2021.1.4,60.00019250499381,
R,left,Pretarget,0,10,10,10,1841.878050423693,1843.8795639663003,left,1,4,0.4049172489903867,H24B02,2023-01-09_16h16.57.673,t1_Paradigm,2021.1.4,60.00019250499381,
T,left,Pretarget,0,11,11,11,1845.3775894315913,1847.378186443355,left,1,4,0.45838335156440735,H24B02,2023-01-09_16h16.57.673,t1_Paradigm,2021.1.4,60.00019250499381,
X,left,Distractor,0,12,12,12,1848.8777966694906,1850.8791568689048,left,1,4,0.4933189828880131,H24B02,2023-01-09_16h16.57.673,t1_Paradigm,2021.1.4,60.00019250499381,
F,left,Pretarget,0,13,13,13,1852.3780048694462,1854.3793201567605,left,1,4,0.4170996956527233,H24B02,2023-01-09_16h16.57.673,t1_Paradigm,2021.1.4,60.00019250499381,
R,right,Target,0,14,14,14,1855.8777363584377,1857.8796242768876,left,0,4,0.5487801511771977,H24B02,2023-01-09_16h16.57.673,t1_Paradigm,2021.1.4,60.00019250499381,
T,right,Target,0,15,15,15,1859.3780116066337,1861.3790564578958,left,0,4,0.4894927805289626,H24B02,2023-01-09_16h16.57.673,t1_Paradigm,2021.1.4,60.00019250499381,
C,left,Distractor,0,16,16,16,1862.8778803986497,1864.8794962768443,left,1,4,0.4929150934331119,H24B02,2023-01-09_16h16.57.673,t1_Paradigm,2021.1.4,60.00019250499381,
F,right,Target,0,17,17,17,1866.3780574812554,1868.379372768104,right,1,4,0.5132629070430994,H24B02,2023-01-09_16h16.57.673,t1_Paradigm,2021.1.4,60.00019250499381,
M,left,Distractor,0,18,18,18,1869.877755606547,1871.8797015901655,left,1,4,0.6289408085867763,H24B02,2023-01-09_16h16.57.673,t1_Paradigm,2021.1.4,60.00019250499381,
N,left,Distractor,0,19,19,19,1873.3776211906224,1875.3780520274304,left,1,4,0.4744776547886431,H24B02,2023-01-09_16h16.57.673,t1_Paradigm,2021.1.4,60.00019250499381,
R,left,Lure,0,20,20,20,1876.877940709237,1878.8784815808758,left,1,4,0.4621133138425648,H24B02,2023-01-09_16h16.57.673,t1_Paradigm,2021.1.4,60.00019250499381,
F,right,Target,0,21,21,21,1880.3778826440684,1882.3786596260034,right,1,4,0.4658711855299771,H24B02,2023-01-09_16h16.57.673,t1_Paradigm,2021.1.4,60.00019250499381,
P,left,Distractor,0,22,22,22,1883.8776628947817,1885.8783609597012,left,1,4,0.406163243111223,H24B02,2023-01-09_16h16.57.673,t1_Paradigm,2021.1.4,60.00019250499381,
L,left,Pretarget,0,23,23,23,1887.3778313160874,1889.390515496023,left,1,4,0.5259300842881203,H24B02,2023-01-09_16h16.57.673,t1_Paradigm,2021.1.4,60.00019250499381,
T,left,Distractor,0,24,24,24,1890.8775560678914,1892.8788001369685,left,1,4,1.0536242579109967,H24B02,2023-01-09_16h16.57.673,t1_Paradigm,2021.1.4,60.00019250499381,
F,left,Distractor,0,25,25,25,1894.3775438773446,1896.3787677362561,left,1,4,0.5138268759474158,H24B02,2023-01-09_16h16.57.673,t1_Paradigm,2021.1.4,60.00019250499381,
V,left,Distractor,0,26,26,26,1897.8778685289435,1899.879283264745,left,1,4,0.5330114625394344,H24B02,2023-01-09_16h16.57.673,t1_Paradigm,2021.1.4,60.00019250499381,
L,right,Target,0,27,27,27,1901.3778999675997,1903.3795623620972,right,1,4,0.5853412849828601,H24B02,2023-01-09_16h16.57.673,t1_Paradigm,2021.1.4,60.00019250499381,
S,left,Pretarget,0,28,28,28,1904.8777703633532,1906.8792762071826,left,1,4,0.5732383974827826,H24B02,2023-01-09_16h16.57.673,t1_Paradigm,2021.1.4,60.00019250499381,
W,left,Distractor,0,29,29,29,1908.3777876868844,1910.3794295503758,left,1,4,0.5611438509076834,H24B02,2023-01-09_16h16.57.673,t1_Paradigm,2021.1.4,60.00019250499381,
Q,left,Distractor,0,30,30,30,1911.8775034565479,1913.8798295902088,left,1,4,0.56476377742365,H24B02,2023-01-09_16h16.57.673,t1_Paradigm,2021.1.4,60.00019250499381,
L,right,Target,0,31,31,31,1915.3775560678914,1917.378415175248,right,1,4,1.001953361555934,H24B02,2023-01-09_16h16.57.673,t1_Paradigm,2021.1.4,60.00019250499381,
S,right,Target,0,32,32,32,1918.8779009296559,1920.8801863216795,right,1,4,0.9403648800216615,H24B02,2023-01-09_16h16.57.673,t1_Paradigm,2021.1.4,60.00019250499381,
Z,left,Pretarget,0,33,33,33,1922.3776908046566,1924.3792328988202,left,1,4,0.4973187390714884,H24B02,2023-01-09_16h16.57.673,t1_Paradigm,2021.1.4,60.00019250499381,
F,left,Distractor,0,34,34,34,1925.877746945247,1927.8792242370546,left,1,4,0.5973565932363272,H24B02,2023-01-09_16h16.57.673,t1_Paradigm,2021.1.4,60.00019250499381,
V,left,Distractor,0,35,35,35,1929.377712619491,1931.3795613995753,left,1,4,1.0969193405471742,H24B02,2023-01-09_16h16.57.673,t1_Paradigm,2021.1.4,60.00019250499381,
M,left,Distractor,0,36,36,36,1932.877563125454,1934.879656357225,left,1,4,0.572816542815417,H24B02,2023-01-09_16h16.57.673,t1_Paradigm,2021.1.4,60.00019250499381,
Z,right,Target,0,37,37,37,1936.3778380528092,1938.3781534009613,left,0,4,0.3382806312292814,H24B02,2023-01-09_16h16.57.673,t1_Paradigm,2021.1.4,60.00019250499381,
H,left,Pretarget,0,38,38,38,1939.8777649099939,1941.8792614499107,left,1,4,0.48510742047801614,H24B02,2023-01-09_16h16.57.673,t1_Paradigm,2021.1.4,60.00019250499381,
L,left,Distractor,0,39,39,39,1943.3776699528098,1945.3792004976422,left,1,4,0.4093917920254171,H24B02,2023-01-09_16h16.57.673,t1_Paradigm,2021.1.4,60.00019250499381,
G,left,Distractor,0,40,40,40,1946.8776811808348,1948.878784738481,left,1,4,0.9896990559063852,H24B02,2023-01-09_16h16.57.673,t1_Paradigm,2021.1.4,60.00019250499381,
K,left,Distractor,0,41,41,41,1950.3777947444469,1952.3795790439472,left,1,4,0.5928073041141033,H24B02,2023-01-09_16h16.57.673,t1_Paradigm,2021.1.4,60.00019250499381,
H,right,Target,0,42,42,42,1953.8777328296565,1955.8783372202888,right,1,4,0.7899961182847619,H24B02,2023-01-09_16h16.57.673,t1_Paradigm,2021.1.4,60.00019250499381,
B,left,Distractor,0,43,43,43,1957.3779500126839,1959.3795966878533,left,1,4,0.5848908792249858,H24B02,2023-01-09_16h16.57.673,t1_Paradigm,2021.1.4,60.00019250499381,
Z,left,Distractor,0,44,44,44,1960.877549010329,1962.8784363479353,left,1,4,0.9900221033021808,H24B02,2023-01-09_16h16.57.673,t1_Paradigm,2021.1.4,60.00019250499381,
T,left,Pretarget,0,45,45,45,1964.3777896114625,1966.3783952854574,left,1,4,0.7380268769338727,H24B02,2023-01-09_16h16.57.673,t1_Paradigm,2021.1.4,60.00019250499381,
H,right,Target,0,46,46,46,1967.8945049867034,1969.8790234150365,right,1,4,0.5172395650297403,H24B02,2023-01-09_16h16.57.673,t1_Paradigm,2021.1.4,60.00019250499381,
F,left,Distractor,0,47,47,47,1971.3778194463812,1973.3791254302487,left,1,4,0.4573965654708445,H24B02,2023-01-09_16h16.57.673,t1_Paradigm,2021.1.4,60.00019250499381,
R,left,Distractor,0,48,48,48,1974.8777803084813,1976.8780908444896,left,1,4,0.44636162696406245,H24B02,2023-01-09_16h16.57.673,t1_Paradigm,2021.1.4,60.00019250499381,
T,right,Target,0,49,49,49,1978.377854092978,1980.3787757563405,right,1,4,0.4334782287478447,H24B02,2023-01-09_16h16.57.673,t1_Paradigm,2021.1.4,60.00019250499381,
H,right,Target,0,50,50,50,1981.877563125454,1983.8790420219302,left,0,4,0.8373371530324221,H24B02,2023-01-09_16h16.57.673,t1_Paradigm,2021.1.4,60.00019250499381,
Y,left,Pretarget,0,51,51,51,1985.3777902531438,1987.3788594854996,left,1,4,1.385446507949382,H24B02,2023-01-09_16h16.57.673,t1_Paradigm,2021.1.4,60.00019250499381,
H,left,Distractor,0,52,52,52,1988.877527516801,1990.8797801863402,left,1,4,1.068546671885997,H24B02,2023-01-09_16h16.57.673,t1_Paradigm,2021.1.4,60.00019250499381,
S,left,Distractor,0,53,53,53,1992.3777825539,1994.3791812495328,left,1,4,1.0732961418107152,H24B02,2023-01-09_16h16.57.673,t1_Paradigm,2021.1.4,60.00019250499381,
Q,left,Distractor,0,54,54,54,1995.8777029952034,1997.8793913749978,left,1,4,0.5649209707044065,H24B02,2023-01-09_16h16.57.673,t1_Paradigm,2021.1.4,60.00019250499381,
Y,right,Target,0,55,55,55,1999.377858904656,2001.378814252559,left,0,4,0.6175039056688547,H24B02,2023-01-09_16h16.57.673,t1_Paradigm,2021.1.4,60.00019250499381,
R,left,Distractor,0,56,56,56,2002.8776122084819,2004.8798607075587,left,1,4,0.5086276424117386,H24B02,2023-01-09_16h16.57.673,t1_Paradigm,2021.1.4,60.00019250499381,
H,left,Pretarget,0,57,57,57,2006.377844789531,2008.3787802476436,left,1,4,1.1055713640525937,H24B02,2023-01-09_16h16.57.673,t1_Paradigm,2021.1.4,60.00019250499381,
J,left,Distractor,0,58,58,58,2009.8777350755408,2011.8785775005817,left,1,4,0.9979471899569035,H24B02,2023-01-09_16h16.57.673,t1_Paradigm,2021.1.4,60.00019250499381,
V,left,Distractor,0,59,59,59,2013.377731225919,2015.3783558267169,left,1,4,0.7780058323405683,H24B02,2023-01-09_16h16.57.673,t1_Paradigm,2021.1.4,60.00019250499381,
Y,left,Lure,0,60,60,60,2016.8778775115497,2018.8795142420568,left,1,4,0.6048553343862295,H24B02,2023-01-09_16h16.57.673,t1_Paradigm,2021.1.4,60.00019250499381,
H,right,Target,0,61,61,61,2020.3774469955824,2022.3792373901233,right,1,4,0.5771249104291201,H24B02,2023-01-09_16h16.57.673,t1_Paradigm,2021.1.4,60.00019250499381,
L,left,Distractor,0,62,62,62,2023.8778521679342,2025.8780051902868,left,1,4,0.5023835571482778,H24B02,2023-01-09_16h16.57.673,t1_Paradigm,2021.1.4,60.00019250499381,
P,left,Distractor,0,63,63,63,2027.3777738926,2029.3795408685692,left,1,4,0.6167554752901196,H24B02,2023-01-09_16h16.57.673,t1_Paradigm,2021.1.4,60.00019250499381,
