Letter,CorrAnswer,Stimulus,finaln_nback_run.thisRepN,finaln_nback_run.thisTrialN,finaln_nback_run.thisN,finaln_nback_run.thisIndex,finaln_fixcross.started,finaln_nback_trial.started,finaln_trial_resp.keys,finaln_trial_resp.corr,finaln_trial_resp.rt,finaln_level,finaln_money,Participant,date,expName,psychopyVersion,frameRate,
F,left,Distractor,0,0,0,0,2690.3350577507663,2692.3236984743853,left,1,1.097550420439802,1,1.97,H24R05,2022-11-15_09h07.27.124,t1_Paradigm,2021.1.4,59.98248932659295,
T,left,Pretarget,0,1,1,1,2693.822301381879,2695.824199887851,left,1,0.34888110695465,1,1.97,H24R05,2022-11-15_09h07.27.124,t1_Paradigm,2021.1.4,59.98248932659295,
B,left,Distractor,0,2,2,2,2697.3222182941827,2699.3240009906294,left,1,0.5614948472648393,1,1.97,H24R05,2022-11-15_09h07.27.124,t1_Paradigm,2021.1.4,59.98248932659295,
T,right,Target,0,3,3,3,2700.822281492161,2702.823927206191,right,1,0.46920333326852415,1,1.97,H24R05,2022-11-15_09h07.27.124,t1_Paradigm,2021.1.4,59.98248932659295,
Z,left,Distractor,0,4,4,4,2704.3222786049446,2706.324206303878,left,1,0.45694516981893685,1,1.97,H24R05,2022-11-15_09h07.27.124,t1_Paradigm,2021.1.4,59.98248932659295,
T,right,Target,0,5,5,5,2707.8223389157065,2709.824300619657,right,1,0.6527405469241785,1,1.97,H24R05,2022-11-15_09h07.27.124,t1_Paradigm,2021.1.4,59.98248932659295,
L,left,Distractor,0,6,6,6,2711.3222545447934,2713.324450754968,left,1,0.40059855228173546,1,1.97,H24R05,2022-11-15_09h07.27.124,t1_Paradigm,2021.1.4,59.98248932659295,
T,right,Target,0,7,7,7,2714.822378053548,2716.8234601185395,right,1,0.6137246133439476,1,1.97,H24R05,2022-11-15_09h07.27.124,t1_Paradigm,2021.1.4,59.98248932659295,
Z,left,Lure,0,8,8,8,2718.3222680184845,2720.324003877846,left,1,0.36150562623515725,1,1.97,H24R05,2022-11-15_09h07.27.124,t1_Paradigm,2021.1.4,59.98248932659295,
J,left,Distractor,0,9,9,9,2721.822358805439,2723.824027937997,left,1,0.7490138548018876,1,1.97,H24R05,2022-11-15_09h07.27.124,t1_Paradigm,2021.1.4,59.98248932659295,
D,left,Pretarget,0,10,10,10,2725.3217470361124,2727.3236856423173,left,1,0.44939252942276653,1,1.97,H24R05,2022-11-15_09h07.27.124,t1_Paradigm,2021.1.4,59.98248932659295,
H,left,Distractor,0,11,11,11,2728.8223385949095,2730.824521010596,left,1,0.38869712060841266,1,1.97,H24R05,2022-11-15_09h07.27.124,t1_Paradigm,2021.1.4,59.98248932659295,
D,right,Target,0,12,12,12,2732.322459216448,2734.3241373314668,left,0,0.39295993695850484,1,1.97,H24R05,2022-11-15_09h07.27.124,t1_Paradigm,2021.1.4,59.98248932659295,
S,left,Distractor,0,13,13,13,2735.8223584846273,2737.824189942985,left,1,0.6366834467480658,1,1.97,H24R05,2022-11-15_09h07.27.124,t1_Paradigm,2021.1.4,59.98248932659295,
R,left,Pretarget,0,14,14,14,2739.32226192324,2741.3241873765655,left,1,0.9769089961919235,1,1.97,H24R05,2022-11-15_09h07.27.124,t1_Paradigm,2021.1.4,59.98248932659295,
Z,left,Distractor,0,15,15,15,2742.822286625,2744.8238829355105,left,1,0.5973948314931476,1,1.97,H24R05,2022-11-15_09h07.27.124,t1_Paradigm,2021.1.4,59.98248932659295,
R,right,Target,0,16,16,16,2746.3221993668703,2748.3241713364696,right,1,0.4890173451276496,1,1.97,H24R05,2022-11-15_09h07.27.124,t1_Paradigm,2021.1.4,59.98248932659295,
T,left,Distractor,0,17,17,17,2749.8222397879144,2751.823795035787,left,1,0.5890831736760447,1,1.97,H24R05,2022-11-15_09h07.27.124,t1_Paradigm,2021.1.4,59.98248932659295,
M,left,Distractor,0,18,18,18,2753.3222545447934,2755.324019276348,left,1,0.6250835689133964,1,1.97,H24R05,2022-11-15_09h07.27.124,t1_Paradigm,2021.1.4,59.98248932659295,
R,left,Lure,0,19,19,19,2756.822351747789,2758.8229651211295,right,0,1.0142782533512218,1,1.97,H24R05,2022-11-15_09h07.27.124,t1_Paradigm,2021.1.4,59.98248932659295,
J,left,Distractor,0,20,20,20,2760.322287266594,2762.3243035068735,left,1,0.8408947423158679,1,1.97,H24R05,2022-11-15_09h07.27.124,t1_Paradigm,2021.1.4,59.98248932659295,
K,left,Distractor,0,21,21,21,2763.8221842891653,2765.8241835269437,left,1,0.540773928296403,1,1.97,H24R05,2022-11-15_09h07.27.124,t1_Paradigm,2021.1.4,59.98248932659295,
Z,left,Distractor,0,22,22,22,2767.322416870593,2769.324304148482,left,1,0.5768814713665051,1,1.97,H24R05,2022-11-15_09h07.27.124,t1_Paradigm,2021.1.4,59.98248932659295,
W,left,Pretarget,0,23,23,23,2770.8222895122162,2772.8244850807823,left,1,0.5966961248486768,1,1.97,H24R05,2022-11-15_09h07.27.124,t1_Paradigm,2021.1.4,59.98248932659295,
Q,left,Distractor,0,24,24,24,2774.322161191434,2776.3237879781373,left,1,0.45743022236274555,1,1.97,H24R05,2022-11-15_09h07.27.124,t1_Paradigm,2021.1.4,59.98248932659295,
W,right,Target,0,25,25,25,2777.8222946450405,2779.8238704242394,left,0,0.46133791096508503,1,1.97,H24R05,2022-11-15_09h07.27.124,t1_Paradigm,2021.1.4,59.98248932659295,
D,left,Pretarget,0,26,26,26,2781.3222984946624,2783.3245903038187,left,1,0.6726174359791912,1,1.97,H24R05,2022-11-15_09h07.27.124,t1_Paradigm,2021.1.4,59.98248932659295,
W,right,Target,0,27,27,27,2784.8224447803514,2786.8236628653685,None,0,,1,1.97,H24R05,2022-11-15_09h07.27.124,t1_Paradigm,2021.1.4,59.98248932659295,
D,right,Target,0,28,28,28,2788.3221165999566,2790.3245861334,right,1,0.8566226996917976,1,1.97,H24R05,2022-11-15_09h07.27.124,t1_Paradigm,2021.1.4,59.98248932659295,
L,left,Pretarget,0,29,29,29,2791.8221640786505,2793.823582985686,left,1,0.5095704846899025,1,1.97,H24R05,2022-11-15_09h07.27.124,t1_Paradigm,2021.1.4,59.98248932659295,
P,left,Distractor,0,30,30,30,2795.3222744345258,2797.324508820122,left,1,0.5127419327909593,1,1.97,H24R05,2022-11-15_09h07.27.124,t1_Paradigm,2021.1.4,59.98248932659295,
L,right,Target,0,31,31,31,2798.8220578932087,2800.8237481987017,right,1,0.725294399948325,1,1.97,H24R05,2022-11-15_09h07.27.124,t1_Paradigm,2021.1.4,59.98248932659295,
R,left,Distractor,0,32,32,32,2802.3218403894716,2804.3244809103635,left,1,0.8886810805124696,1,1.97,H24R05,2022-11-15_09h07.27.124,t1_Paradigm,2021.1.4,59.98248932659295,
V,left,Distractor,0,33,33,33,2805.821506434644,2807.8243070356984,left,1,0.9888691346131964,1,1.97,H24R05,2022-11-15_09h07.27.124,t1_Paradigm,2021.1.4,59.98248932659295,
L,left,Lure,0,34,34,34,2809.3222362590896,2811.3243173013616,right,0,0.8167502248834353,1,1.97,H24R05,2022-11-15_09h07.27.124,t1_Paradigm,2021.1.4,59.98248932659295,
H,left,Distractor,0,35,35,35,2812.8222086701135,2814.8243416823098,left,1,0.7728702920721844,1,1.97,H24R05,2022-11-15_09h07.27.124,t1_Paradigm,2021.1.4,59.98248932659295,
K,left,Pretarget,0,36,36,36,2816.322050835559,2818.3236712062208,left,1,0.8415546319301939,1,1.97,H24R05,2022-11-15_09h07.27.124,t1_Paradigm,2021.1.4,59.98248932659295,
F,left,Distractor,0,37,37,37,2819.822295607446,2821.822930474518,left,1,0.7824965962936403,1,1.97,H24R05,2022-11-15_09h07.27.124,t1_Paradigm,2021.1.4,59.98248932659295,
K,right,Target,0,38,38,38,2823.3223017026903,2825.3243756873126,right,1,0.9766629410878522,1,1.97,H24R05,2022-11-15_09h07.27.124,t1_Paradigm,2021.1.4,59.98248932659295,
S,left,Pretarget,0,39,39,39,2826.8223469357617,2828.8237985645974,left,1,1.2053642577811843,1,1.97,H24R05,2022-11-15_09h07.27.124,t1_Paradigm,2021.1.4,59.98248932659295,
W,left,Distractor,0,40,40,40,2830.3223145347583,2832.3241604292125,left,1,0.6168745677277911,1,1.97,H24R05,2022-11-15_09h07.27.124,t1_Paradigm,2021.1.4,59.98248932659295,
S,right,Target,0,41,41,41,2833.8222715473094,2835.823957361572,left,0,1.0371193524479168,1,1.97,H24R05,2022-11-15_09h07.27.124,t1_Paradigm,2021.1.4,59.98248932659295,
F,left,Pretarget,0,42,42,42,2837.3222747553227,2839.324307677307,left,1,1.264774854775169,1,1.97,H24R05,2022-11-15_09h07.27.124,t1_Paradigm,2021.1.4,59.98248932659295,
Y,left,Distractor,0,43,43,43,2840.822101522266,2842.8239403590705,left,1,0.56497779408528,1,1.97,H24R05,2022-11-15_09h07.27.124,t1_Paradigm,2021.1.4,59.98248932659295,
F,right,Target,0,44,44,44,2844.3222186149796,2846.324182885335,left,0,1.2090743323788047,1,1.97,H24R05,2022-11-15_09h07.27.124,t1_Paradigm,2021.1.4,59.98248932659295,
F,left,Lure,0,45,45,45,2847.8223597678443,2849.822277963336,None,0,,1,1.97,H24R05,2022-11-15_09h07.27.124,t1_Paradigm,2021.1.4,59.98248932659295,
B,left,Pretarget,0,46,46,46,2851.3222590360238,2853.3230257526884,left,1,0.6581877641001483,1,1.97,H24R05,2022-11-15_09h07.27.124,t1_Paradigm,2021.1.4,59.98248932659295,
W,left,Distractor,0,47,47,47,2854.822241071117,2856.823459156134,left,1,0.565467017062474,1,1.97,H24R05,2022-11-15_09h07.27.124,t1_Paradigm,2021.1.4,59.98248932659295,
B,right,Target,0,48,48,48,2858.3221730610967,2860.3242332512455,right,1,0.9049486267758766,1,1.97,H24R05,2022-11-15_09h07.27.124,t1_Paradigm,2021.1.4,59.98248932659295,
R,left,Pretarget,0,49,49,49,2861.8223806199676,2863.824113592127,left,1,0.5090007404069183,1,1.97,H24R05,2022-11-15_09h07.27.124,t1_Paradigm,2021.1.4,59.98248932659295,
N,left,Distractor,0,50,50,50,2865.322173381908,2867.324223306394,left,1,0.9450090915197507,1,1.97,H24R05,2022-11-15_09h07.27.124,t1_Paradigm,2021.1.4,59.98248932659295,
R,right,Target,0,51,51,51,2868.8222664144705,2870.823862083387,right,1,0.5973685257340549,1,1.97,H24R05,2022-11-15_09h07.27.124,t1_Paradigm,2021.1.4,59.98248932659295,
V,left,Distractor,0,52,52,52,2872.322302665096,2874.3230286399194,left,1,0.5061042195738992,1,1.97,H24R05,2022-11-15_09h07.27.124,t1_Paradigm,2021.1.4,59.98248932659295,
G,left,Distractor,0,53,53,53,2875.8221717778943,2877.8220681588573,left,1,0.5588745369168464,1,1.97,H24R05,2022-11-15_09h07.27.124,t1_Paradigm,2021.1.4,59.98248932659295,
H,left,Distractor,0,54,54,54,2879.3222484495636,2881.3244295820477,left,1,0.576621621788945,1,1.97,H24R05,2022-11-15_09h07.27.124,t1_Paradigm,2021.1.4,59.98248932659295,
V,left,Lure,0,55,55,55,2882.8222737929173,2884.824149842738,left,1,0.5328497992450139,1,1.97,H24R05,2022-11-15_09h07.27.124,t1_Paradigm,2021.1.4,59.98248932659295,
L,left,Distractor,0,56,56,56,2886.3222904746217,2888.3237886197458,left,1,0.8094352987391176,1,1.97,H24R05,2022-11-15_09h07.27.124,t1_Paradigm,2021.1.4,59.98248932659295,
K,left,Distractor,0,57,57,57,2889.8224242490396,2891.8242512161523,left,1,0.5727283692831406,1,1.97,H24R05,2022-11-15_09h07.27.124,t1_Paradigm,2021.1.4,59.98248932659295,
D,left,Pretarget,0,58,58,58,2893.3222891914047,2895.323781562096,left,1,1.313584872012143,1,1.97,H24R05,2022-11-15_09h07.27.124,t1_Paradigm,2021.1.4,59.98248932659295,
T,left,Pretarget,0,59,59,59,2896.8222324094677,2898.82396409841,left,1,1.109224403538974,1,1.97,H24R05,2022-11-15_09h07.27.124,t1_Paradigm,2021.1.4,59.98248932659295,
D,right,Target,0,60,60,60,2900.3222734721203,2902.3240815119207,right,1,0.7614314568199916,1,1.97,H24R05,2022-11-15_09h07.27.124,t1_Paradigm,2021.1.4,59.98248932659295,
T,right,Target,0,61,61,61,2903.8221441889327,2905.823929131002,right,1,0.6368903640104691,1,1.97,H24R05,2022-11-15_09h07.27.124,t1_Paradigm,2021.1.4,59.98248932659295,
T,left,Lure,0,62,62,62,2907.322293682635,2909.32230779792,left,1,0.9631469131854828,1,1.97,H24R05,2022-11-15_09h07.27.124,t1_Paradigm,2021.1.4,59.98248932659295,
F,left,Distractor,0,63,63,63,2910.822337953301,2912.8350875853503,left,1,0.9861102378054056,1,1.97,H24R05,2022-11-15_09h07.27.124,t1_Paradigm,2021.1.4,59.98248932659295,
