Letter,CorrAnswer,Stimulus,nback_run.thisRepN,nback_run.thisTrialN,nback_run.thisN,nback_run.thisIndex,fixcross.started,nback_trial.started,trial_resp.keys,trial_resp.corr,currentlevel,trial_resp.rt,Participant,date,expName,psychopyVersion,frameRate,
H,left,Distractor,0,0,0,0,274.8321397362015,276.7742211891018,None,0,1,,H24R05,2022-11-15_09h07.27.124,t1_Paradigm,2021.1.4,59.98248932659295,
Q,left,Pretarget,0,1,1,1,278.2731538809894,280.27591758982453,left,1,1,0.7137557952810312,H24R05,2022-11-15_09h07.27.124,t1_Paradigm,2021.1.4,59.98248932659295,
Q,right,Target,0,2,2,2,281.77254211167747,283.77320520930516,right,1,1,0.7362776964437217,H24R05,2022-11-15_09h07.27.124,t1_Paradigm,2021.1.4,59.98248932659295,
T,left,Distractor,0,3,3,3,285.2731105727289,287.2749160461244,left,1,1,0.5148232958599692,H24R05,2022-11-15_09h07.27.124,t1_Paradigm,2021.1.4,59.98248932659295,
Q,left,Lure,0,4,4,4,288.773150993773,290.7753173693636,left,1,1,0.5660912976745749,H24R05,2022-11-15_09h07.27.124,t1_Paradigm,2021.1.4,59.98248932659295,
L,left,Distractor,0,5,5,5,292.27307271810423,294.274914762922,left,1,1,0.7947217171313241,H24R05,2022-11-15_09h07.27.124,t1_Paradigm,2021.1.4,59.98248932659295,
V,left,Pretarget,0,6,6,6,295.77327257771685,297.7746773694671,left,1,1,0.7508315186569234,H24R05,2022-11-15_09h07.27.124,t1_Paradigm,2021.1.4,59.98248932659295,
V,right,Target,0,7,7,7,299.27318179076246,301.2731516353815,left,0,1,0.5324324359098682,H24R05,2022-11-15_09h07.27.124,t1_Paradigm,2021.1.4,59.98248932659295,
K,left,Distractor,0,8,8,8,302.7730630940496,304.77498245213064,left,1,1,0.9025378000951605,H24R05,2022-11-15_09h07.27.124,t1_Paradigm,2021.1.4,59.98248932659295,
G,left,Pretarget,0,9,9,9,306.2729915552045,308.2749484471278,left,1,1,0.8425394939404214,H24R05,2022-11-15_09h07.27.124,t1_Paradigm,2021.1.4,59.98248932659295,
G,right,Target,0,10,10,10,309.7730416003178,311.77298834719113,right,1,1,1.0405808055220405,H24R05,2022-11-15_09h07.27.124,t1_Paradigm,2021.1.4,59.98248932659295,
G,right,Target,0,11,11,11,313.2730762469291,315.27322509902297,right,1,1,0.6604840644868091,H24R05,2022-11-15_09h07.27.124,t1_Paradigm,2021.1.4,59.98248932659295,
P,left,Pretarget,0,12,12,12,316.77308619178075,318.77617070256383,left,1,1,0.6934759789874079,H24R05,2022-11-15_09h07.27.124,t1_Paradigm,2021.1.4,59.98248932659295,
P,right,Target,0,13,13,13,320.273006632895,322.2730595652247,right,1,1,1.1004206355282804,H24R05,2022-11-15_09h07.27.124,t1_Paradigm,2021.1.4,59.98248932659295,
G,left,Lure,0,14,14,14,323.7897624397301,325.77460871785297,left,1,1,0.6548889576079091,H24R05,2022-11-15_09h07.27.124,t1_Paradigm,2021.1.4,59.98248932659295,
Y,left,Distractor,0,15,15,15,327.2729889887851,329.2759438955836,left,1,1,0.7535406911629252,H24R05,2022-11-15_09h07.27.124,t1_Paradigm,2021.1.4,59.98248932659295,
B,left,Distractor,0,16,16,16,330.77313848250196,332.77491572532745,left,1,1,0.8545775872335071,H24R05,2022-11-15_09h07.27.124,t1_Paradigm,2021.1.4,59.98248932659295,
T,left,Pretarget,0,17,17,17,334.27228867812664,336.2739228432765,left,1,1,0.8274672557454323,H24R05,2022-11-15_09h07.27.124,t1_Paradigm,2021.1.4,59.98248932659295,
T,right,Target,0,18,18,18,337.77305218677793,339.7729501717549,right,1,1,0.8005984881310724,H24R05,2022-11-15_09h07.27.124,t1_Paradigm,2021.1.4,59.98248932659295,
S,left,Distractor,0,19,19,19,341.2730589236162,343.2744746226381,left,1,1,0.8829271766735474,H24R05,2022-11-15_09h07.27.124,t1_Paradigm,2021.1.4,59.98248932659295,
T,left,Lure,0,20,20,20,344.7732449887553,346.7737217004469,left,1,1,0.7122374396421947,H24R05,2022-11-15_09h07.27.124,t1_Paradigm,2021.1.4,59.98248932659295,
J,left,Distractor,0,21,21,21,348.2730964574439,350.27489455239265,left,1,1,0.5707156578282593,H24R05,2022-11-15_09h07.27.124,t1_Paradigm,2021.1.4,59.98248932659295,
P,left,Distractor,0,22,22,22,351.773136878488,353.7742619309429,left,1,1,0.4953271987469634,H24R05,2022-11-15_09h07.27.124,t1_Paradigm,2021.1.4,59.98248932659295,
F,left,Distractor,0,23,23,23,355.27322862784786,357.255984560441,left,1,1,0.6136511496879393,H24R05,2022-11-15_09h07.27.124,t1_Paradigm,2021.1.4,59.98248932659295,
L,left,Distractor,0,24,24,24,358.7563467458531,360.7571285402082,left,1,1,1.0003711678582476,H24R05,2022-11-15_09h07.27.124,t1_Paradigm,2021.1.4,59.98248932659295,
W,left,Pretarget,0,25,25,25,362.2563922997215,364.2580935124861,left,1,1,0.6513784218404908,H24R05,2022-11-15_09h07.27.124,t1_Paradigm,2021.1.4,59.98248932659295,
W,right,Target,0,26,26,26,365.7730823421589,367.77302171058545,right,1,1,0.7844268616463523,H24R05,2022-11-15_09h07.27.124,t1_Paradigm,2021.1.4,59.98248932659295,
V,left,Distractor,0,27,27,27,369.273020427383,371.275043725298,left,1,1,0.7864244954107562,H24R05,2022-11-15_09h07.27.124,t1_Paradigm,2021.1.4,59.98248932659295,
W,left,Lure,0,28,28,28,372.77284141989367,374.7740723369934,left,1,1,0.775529098653351,H24R05,2022-11-15_09h07.27.124,t1_Paradigm,2021.1.4,59.98248932659295,
R,left,Pretarget,0,29,29,29,376.27303165545163,378.2758944920788,left,1,1,0.697543106158264,H24R05,2022-11-15_09h07.27.124,t1_Paradigm,2021.1.4,59.98248932659295,
R,right,Target,0,30,30,30,379.7730630940496,381.7731259712309,right,1,1,0.8644714402762474,H24R05,2022-11-15_09h07.27.124,t1_Paradigm,2021.1.4,59.98248932659295,
G,left,Distractor,0,31,31,31,383.2730332594656,385.2736501616164,left,1,1,0.6119063078658655,H24R05,2022-11-15_09h07.27.124,t1_Paradigm,2021.1.4,59.98248932659295,
R,left,Lure,0,32,32,32,386.77299540482636,388.7750385924737,left,1,1,0.9824441130913328,H24R05,2022-11-15_09h07.27.124,t1_Paradigm,2021.1.4,59.98248932659295,
S,left,Distractor,0,33,33,33,390.2730650188605,392.27483777045563,left,1,1,0.6826036799902795,H24R05,2022-11-15_09h07.27.124,t1_Paradigm,2021.1.4,59.98248932659295,
R,left,Lure,0,34,34,34,393.77310993113497,395.7747742516658,left,1,1,0.8628456159785856,H24R05,2022-11-15_09h07.27.124,t1_Paradigm,2021.1.4,59.98248932659295,
P,left,Pretarget,0,35,35,35,397.2730262018158,399.2742551941046,left,1,1,0.7552441495354287,H24R05,2022-11-15_09h07.27.124,t1_Paradigm,2021.1.4,59.98248932659295,
P,right,Target,0,36,36,36,400.7730300514377,402.77307753013156,right,1,1,0.6805794196552597,H24R05,2022-11-15_09h07.27.124,t1_Paradigm,2021.1.4,59.98248932659295,
Y,left,Pretarget,0,37,37,37,404.2731724875048,406.2746780110756,left,1,1,0.7948943085793871,H24R05,2022-11-15_09h07.27.124,t1_Paradigm,2021.1.4,59.98248932659295,
Y,right,Target,0,38,38,38,407.77301946497755,409.7729713446897,right,1,1,0.6884798093669815,H24R05,2022-11-15_09h07.27.124,t1_Paradigm,2021.1.4,59.98248932659295,
J,left,Distractor,0,39,39,39,411.2730300514377,413.27379163527803,left,1,1,1.0598058249888709,H24R05,2022-11-15_09h07.27.124,t1_Paradigm,2021.1.4,59.98248932659295,
Y,left,Lure,0,40,40,40,414.77310030706576,416.77472581056645,left,1,1,1.1908614430722082,H24R05,2022-11-15_09h07.27.124,t1_Paradigm,2021.1.4,59.98248932659295,
T,left,Distractor,0,41,41,41,418.27303293865407,420.27459171535156,left,1,1,0.8268307846738026,H24R05,2022-11-15_09h07.27.124,t1_Paradigm,2021.1.4,59.98248932659295,
V,left,Distractor,0,42,42,42,421.77301721936965,423.77466197097965,left,1,1,0.8950092198501807,H24R05,2022-11-15_09h07.27.124,t1_Paradigm,2021.1.4,59.98248932659295,
N,left,Pretarget,0,43,43,43,425.2730146529502,427.2753250686219,left,1,1,0.6743080622691195,H24R05,2022-11-15_09h07.27.124,t1_Paradigm,2021.1.4,59.98248932659295,
N,right,Target,0,44,44,44,428.77292386599584,430.7731606178422,right,1,1,0.7764395346021047,H24R05,2022-11-15_09h07.27.124,t1_Paradigm,2021.1.4,59.98248932659295,
N,right,Target,0,45,45,45,432.27295145495737,434.2730855501868,right,1,1,0.7003578224976081,H24R05,2022-11-15_09h07.27.124,t1_Paradigm,2021.1.4,59.98248932659295,
X,left,Distractor,0,46,46,46,435.77283596625784,437.7750421212986,left,1,1,0.7024356567562791,H24R05,2022-11-15_09h07.27.124,t1_Paradigm,2021.1.4,59.98248932659295,
Z,left,Distractor,0,47,47,47,439.27302299380244,441.2745849785133,left,1,1,0.6111334959568921,H24R05,2022-11-15_09h07.27.124,t1_Paradigm,2021.1.4,59.98248932659295,
H,left,Pretarget,0,48,48,48,442.77291744995455,444.7749904721859,left,1,1,0.6626520440913737,H24R05,2022-11-15_09h07.27.124,t1_Paradigm,2021.1.4,59.98248932659295,
H,right,Target,0,49,49,49,446.2729735902976,448.27310447749915,right,1,1,0.7645150051830569,H24R05,2022-11-15_09h07.27.124,t1_Paradigm,2021.1.4,59.98248932659295,
K,left,Distractor,0,50,50,50,449.7729944424209,451.77441976549744,left,1,1,0.7190012280334486,H24R05,2022-11-15_09h07.27.124,t1_Paradigm,2021.1.4,59.98248932659295,
V,left,Pretarget,0,51,51,51,453.2729947632324,455.27483392083377,left,1,1,0.5467328245867975,H24R05,2022-11-15_09h07.27.124,t1_Paradigm,2021.1.4,59.98248932659295,
V,right,Target,0,52,52,52,456.7728000364441,458.7730300514377,right,1,1,0.6166060564864893,H24R05,2022-11-15_09h07.27.124,t1_Paradigm,2021.1.4,59.98248932659295,
R,left,Distractor,0,53,53,53,460.27298481836624,462.2746687078179,left,1,1,0.7469366621517111,H24R05,2022-11-15_09h07.27.124,t1_Paradigm,2021.1.4,59.98248932659295,
V,left,Lure,0,54,54,54,463.7730419211148,465.7734576804505,left,1,1,0.9921268784528365,H24R05,2022-11-15_09h07.27.124,t1_Paradigm,2021.1.4,59.98248932659295,
Y,left,Distractor,0,55,55,55,467.27298706397414,469.2749138005165,left,1,1,0.8185133524093544,H24R05,2022-11-15_09h07.27.124,t1_Paradigm,2021.1.4,59.98248932659295,
Q,left,Distractor,0,56,56,56,470.7730239562079,472.7749757152924,left,1,1,0.5664576535054948,H24R05,2022-11-15_09h07.27.124,t1_Paradigm,2021.1.4,59.98248932659295,
Z,left,Pretarget,0,57,57,57,474.27304352512874,476.27426225173986,left,1,1,0.6511589932924835,H24R05,2022-11-15_09h07.27.124,t1_Paradigm,2021.1.4,59.98248932659295,
Z,right,Target,0,58,58,58,477.77294022688875,479.7730412795063,right,1,1,0.5925147921807365,H24R05,2022-11-15_09h07.27.124,t1_Paradigm,2021.1.4,59.98248932659295,
B,left,Distractor,0,59,59,59,481.2730319762486,483.2745509735105,left,1,1,0.8988803370157257,H24R05,2022-11-15_09h07.27.124,t1_Paradigm,2021.1.4,59.98248932659295,
S,left,Pretarget,0,60,60,60,484.77301240732777,486.7749311238149,left,1,1,0.6466921468963847,H24R05,2022-11-15_09h07.27.124,t1_Paradigm,2021.1.4,59.98248932659295,
S,right,Target,0,61,61,61,488.27304897875,490.27295273817435,right,1,1,1.132659627837711,H24R05,2022-11-15_09h07.27.124,t1_Paradigm,2021.1.4,59.98248932659295,
T,left,Distractor,0,62,62,62,491.7730672644684,493.7745153644937,left,1,1,0.60702723095892,H24R05,2022-11-15_09h07.27.124,t1_Paradigm,2021.1.4,59.98248932659295,
D,left,Distractor,0,63,63,63,495.2729861015687,497.27540270269674,left,1,1,0.5782246691524051,H24R05,2022-11-15_09h07.27.124,t1_Paradigm,2021.1.4,59.98248932659295,
R,left,Distractor,0,0,0,0,508.7476372936071,510.7415131843154,left,1,1,1.0481405035679927,H24R05,2022-11-15_09h07.27.124,t1_Paradigm,2021.1.4,59.98248932659295,
V,left,Distractor,0,1,1,1,512.2396807635523,514.2409235503292,left,1,1,0.7324749100807821,H24R05,2022-11-15_09h07.27.124,t1_Paradigm,2021.1.4,59.98248932659295,
N,left,Pretarget,0,2,2,2,515.7395941470313,517.7404654451384,left,1,1,0.929176231904421,H24R05,2022-11-15_09h07.27.124,t1_Paradigm,2021.1.4,59.98248932659295,
N,right,Target,0,3,3,3,519.2396509289829,521.2397115605418,right,1,1,0.8697412539768266,H24R05,2022-11-15_09h07.27.124,t1_Paradigm,2021.1.4,59.98248932659295,
S,left,Distractor,0,4,4,4,522.7396557410102,524.7413710690453,left,1,1,0.8721806320245378,H24R05,2022-11-15_09h07.27.124,t1_Paradigm,2021.1.4,59.98248932659295,
N,left,Lure,0,5,5,5,526.2396743475256,528.2411955903808,left,1,1,0.6683616772497771,H24R05,2022-11-15_09h07.27.124,t1_Paradigm,2021.1.4,59.98248932659295,
Z,left,Distractor,0,6,6,6,529.7396935956349,531.7410319813935,left,1,1,0.5926328472996829,H24R05,2022-11-15_09h07.27.124,t1_Paradigm,2021.1.4,59.98248932659295,
L,left,Pretarget,0,7,7,7,533.2395806733548,535.2412799612939,left,1,1,1.0760820329160197,H24R05,2022-11-15_09h07.27.124,t1_Paradigm,2021.1.4,59.98248932659295,
L,right,Target,0,8,8,8,536.7397940066439,538.7396875004051,right,1,1,1.1777393599622883,H24R05,2022-11-15_09h07.27.124,t1_Paradigm,2021.1.4,59.98248932659295,
H,left,Distractor,0,9,9,9,540.239515871348,542.2409825778886,left,1,1,0.7648245790769579,H24R05,2022-11-15_09h07.27.124,t1_Paradigm,2021.1.4,59.98248932659295,
L,left,Lure,0,10,10,10,543.7396287936426,545.741031339785,left,1,1,0.5763829451316269,H24R05,2022-11-15_09h07.27.124,t1_Paradigm,2021.1.4,59.98248932659295,
X,left,Pretarget,0,11,11,11,547.2396990492707,549.2415879311739,left,1,1,0.659829307696782,H24R05,2022-11-15_09h07.27.124,t1_Paradigm,2021.1.4,59.98248932659295,
X,right,Target,0,12,12,12,550.7396329640615,552.739792081833,right,1,1,0.6659104295249563,H24R05,2022-11-15_09h07.27.124,t1_Paradigm,2021.1.4,59.98248932659295,
X,right,Target,0,13,13,13,554.2399264978594,556.2395412147016,right,1,1,0.8300275761430385,H24R05,2022-11-15_09h07.27.124,t1_Paradigm,2021.1.4,59.98248932659295,
R,left,Distractor,0,14,14,14,557.7396990492707,559.7406383573834,left,1,1,0.6249356792104663,H24R05,2022-11-15_09h07.27.124,t1_Paradigm,2021.1.4,59.98248932659295,
T,left,Distractor,0,15,15,15,561.2393885129713,563.2414897657727,left,1,1,0.819964339651051,H24R05,2022-11-15_09h07.27.124,t1_Paradigm,2021.1.4,59.98248932659295,
V,left,Pretarget,0,16,16,16,564.7393946082157,566.7408500866732,left,1,1,0.8247314566833666,H24R05,2022-11-15_09h07.27.124,t1_Paradigm,2021.1.4,59.98248932659295,
V,right,Target,0,17,17,17,568.2394940568192,570.2396573450096,right,1,1,0.5098983442730969,H24R05,2022-11-15_09h07.27.124,t1_Paradigm,2021.1.4,59.98248932659295,
N,left,Distractor,0,18,18,18,571.7393811345391,573.73872830256,left,1,1,0.5469188897259301,H24R05,2022-11-15_09h07.27.124,t1_Paradigm,2021.1.4,59.98248932659295,
B,left,Distractor,0,19,19,19,575.2396153199661,577.2403794702113,left,1,1,0.5973101397685241,H24R05,2022-11-15_09h07.27.124,t1_Paradigm,2021.1.4,59.98248932659295,
V,left,Lure,0,20,20,20,578.7397227886104,580.7410246029467,left,1,1,0.9523862532514613,H24R05,2022-11-15_09h07.27.124,t1_Paradigm,2021.1.4,59.98248932659295,
P,left,Distractor,0,21,21,21,582.2397821369814,584.2415770239022,left,1,1,0.5079757781641092,H24R05,2022-11-15_09h07.27.124,t1_Paradigm,2021.1.4,59.98248932659295,
K,left,Pretarget,0,22,22,22,585.739645796144,587.740767640571,left,1,1,0.5765548950002994,H24R05,2022-11-15_09h07.27.124,t1_Paradigm,2021.1.4,59.98248932659295,
K,right,Target,0,23,23,23,589.2396400217112,591.2397028988926,right,1,1,0.7418189085874474,H24R05,2022-11-15_09h07.27.124,t1_Paradigm,2021.1.4,59.98248932659295,
J,left,Pretarget,0,24,24,24,592.7396095455188,594.7414249637804,left,1,1,0.7122640662128106,H24R05,2022-11-15_09h07.27.124,t1_Paradigm,2021.1.4,59.98248932659295,
J,right,Target,0,25,25,25,596.2398164627812,598.2394959816302,right,1,1,0.9897468487615697,H24R05,2022-11-15_09h07.27.124,t1_Paradigm,2021.1.4,59.98248932659295,
H,left,Distractor,0,26,26,26,599.7396534953878,601.7395222873893,left,1,1,0.6740122828632593,H24R05,2022-11-15_09h07.27.124,t1_Paradigm,2021.1.4,59.98248932659295,
J,left,Lure,0,27,27,27,603.2396971244598,605.2412048936385,left,1,1,0.7402906080678804,H24R05,2022-11-15_09h07.27.124,t1_Paradigm,2021.1.4,59.98248932659295,
V,left,Distractor,0,28,28,28,606.7395575756091,608.7410813848837,left,1,1,0.9843618671729928,H24R05,2022-11-15_09h07.27.124,t1_Paradigm,2021.1.4,59.98248932659295,
Z,left,Pretarget,0,29,29,29,610.2394180267584,612.2404157208366,left,1,1,0.5890626423497451,H24R05,2022-11-15_09h07.27.124,t1_Paradigm,2021.1.4,59.98248932659295,
Z,right,Target,0,30,30,30,613.7396891044045,615.7397766833456,right,1,1,0.8659468084661057,H24R05,2022-11-15_09h07.27.124,t1_Paradigm,2021.1.4,59.98248932659295,
T,left,Distractor,0,31,31,31,617.2397693048988,619.2415712494694,left,1,1,0.6439390245359391,H24R05,2022-11-15_09h07.27.124,t1_Paradigm,2021.1.4,59.98248932659295,
Z,left,Lure,0,32,32,32,620.7396262272232,622.7402713599586,left,1,1,1.033152636286104,H24R05,2022-11-15_09h07.27.124,t1_Paradigm,2021.1.4,59.98248932659295,
F,left,Distractor,0,33,33,33,624.2398126131593,626.2410749688424,left,1,1,0.7323350404185476,H24R05,2022-11-15_09h07.27.124,t1_Paradigm,2021.1.4,59.98248932659295,
Y,left,Pretarget,0,34,34,34,627.7396194903849,629.7400791995897,left,1,1,0.9614075249846792,H24R05,2022-11-15_09h07.27.124,t1_Paradigm,2021.1.4,59.98248932659295,
Y,right,Target,0,35,35,35,631.2396307184536,633.2397035405011,right,1,1,0.7418423271301435,H24R05,2022-11-15_09h07.27.124,t1_Paradigm,2021.1.4,59.98248932659295,
Y,right,Target,0,36,36,36,634.7396592698205,636.7397891946166,right,1,1,0.8257317171810428,H24R05,2022-11-15_09h07.27.124,t1_Paradigm,2021.1.4,59.98248932659295,
W,left,Distractor,0,37,37,37,638.2396329640615,640.2414333046327,left,1,1,0.5401329659944167,H24R05,2022-11-15_09h07.27.124,t1_Paradigm,2021.1.4,59.98248932659295,
Q,left,Distractor,0,38,38,38,641.7398129339563,643.7411939863669,left,1,1,0.5924050779140089,H24R05,2022-11-15_09h07.27.124,t1_Paradigm,2021.1.4,59.98248932659295,
P,left,Pretarget,0,39,39,39,645.2396162823716,647.2410977457912,left,1,1,0.5964882451662561,H24R05,2022-11-15_09h07.27.124,t1_Paradigm,2021.1.4,59.98248932659295,
P,right,Target,0,40,40,40,648.7396143575606,650.7393920417962,right,1,1,0.7779739303514361,H24R05,2022-11-15_09h07.27.124,t1_Paradigm,2021.1.4,59.98248932659295,
J,left,Distractor,0,41,41,41,652.2396531745908,654.2415330740332,left,1,1,0.6838791885529645,H24R05,2022-11-15_09h07.27.124,t1_Paradigm,2021.1.4,59.98248932659295,
P,left,Lure,0,42,42,42,655.7396105079242,657.7410486630833,left,1,1,0.9444342144270195,H24R05,2022-11-15_09h07.27.124,t1_Paradigm,2021.1.4,59.98248932659295,
L,left,Distractor,0,43,43,43,659.2395331946609,661.2411291843746,left,1,1,0.8843063042731956,H24R05,2022-11-15_09h07.27.124,t1_Paradigm,2021.1.4,59.98248932659295,
Z,left,Distractor,0,44,44,44,662.7396714602946,664.7403194802464,left,1,1,0.6329964698961703,H24R05,2022-11-15_09h07.27.124,t1_Paradigm,2021.1.4,59.98248932659295,
F,left,Pretarget,0,45,45,45,666.2396409841167,668.2418201917899,left,1,1,0.5397399836074328,H24R05,2022-11-15_09h07.27.124,t1_Paradigm,2021.1.4,59.98248932659295,
F,right,Target,0,46,46,46,669.7393599616044,671.7395935054228,right,1,1,0.833778713378706,H24R05,2022-11-15_09h07.27.124,t1_Paradigm,2021.1.4,59.98248932659295,
G,left,Pretarget,0,47,47,47,673.2396345680754,675.2406110892189,left,1,1,0.6289688013639534,H24R05,2022-11-15_09h07.27.124,t1_Paradigm,2021.1.4,59.98248932659295,
G,right,Target,0,48,48,48,676.7396907084185,678.7397590392357,right,1,1,0.6016374373284634,H24R05,2022-11-15_09h07.27.124,t1_Paradigm,2021.1.4,59.98248932659295,
V,left,Distractor,0,49,49,49,680.239851751001,682.2414888033672,left,1,1,0.5080646403075662,H24R05,2022-11-15_09h07.27.124,t1_Paradigm,2021.1.4,59.98248932659295,
G,left,Lure,0,50,50,50,683.7396531745908,685.7417929236253,left,1,1,0.5597137548320461,H24R05,2022-11-15_09h07.27.124,t1_Paradigm,2021.1.4,59.98248932659295,
Q,left,Pretarget,0,51,51,51,687.2395951094368,689.240038778531,left,1,1,0.5815375909296563,H24R05,2022-11-15_09h07.27.124,t1_Paradigm,2021.1.4,59.98248932659295,
Q,right,Target,0,52,52,52,690.7396182071825,692.739603771086,right,1,1,0.9698215186217567,H24R05,2022-11-15_09h07.27.124,t1_Paradigm,2021.1.4,59.98248932659295,
Y,left,Distractor,0,53,53,53,694.2396140367491,696.2411856455292,left,1,1,0.5882609582768055,H24R05,2022-11-15_09h07.27.124,t1_Paradigm,2021.1.4,59.98248932659295,
V,left,Distractor,0,54,54,54,697.7395559715951,699.7411866079347,left,1,1,0.62434797003516,H24R05,2022-11-15_09h07.27.124,t1_Paradigm,2021.1.4,59.98248932659295,
B,left,Distractor,0,55,55,55,701.2397683424933,703.2418407231162,left,1,1,0.57970998219389,H24R05,2022-11-15_09h07.27.124,t1_Paradigm,2021.1.4,59.98248932659295,
J,left,Pretarget,0,56,56,56,704.7395922222204,706.7407541668945,left,1,1,0.4407796385639813,H24R05,2022-11-15_09h07.27.124,t1_Paradigm,2021.1.4,59.98248932659295,
J,right,Target,0,57,57,57,708.2392297160113,710.2395851645706,right,1,1,0.7662223131774226,H24R05,2022-11-15_09h07.27.124,t1_Paradigm,2021.1.4,59.98248932659295,
H,left,Distractor,0,58,58,58,711.7395845229767,713.7412286329782,left,1,1,0.6082806041958975,H24R05,2022-11-15_09h07.27.124,t1_Paradigm,2021.1.4,59.98248932659295,
J,left,Lure,0,59,59,59,715.2394597310049,717.2399428587523,left,1,1,0.6775311594828963,H24R05,2022-11-15_09h07.27.124,t1_Paradigm,2021.1.4,59.98248932659295,
D,left,Pretarget,0,60,60,60,718.7395784277323,720.7415045226662,left,1,1,0.8240247299836483,H24R05,2022-11-15_09h07.27.124,t1_Paradigm,2021.1.4,59.98248932659295,
D,right,Target,0,61,61,61,722.239631680859,724.2396246232092,left,0,1,0.6217905368685024,H24R05,2022-11-15_09h07.27.124,t1_Paradigm,2021.1.4,59.98248932659295,
R,left,Distractor,0,62,62,62,725.7395267786196,727.741626427407,left,1,1,0.9119947208819212,H24R05,2022-11-15_09h07.27.124,t1_Paradigm,2021.1.4,59.98248932659295,
F,left,Distractor,0,63,63,63,729.2396143575606,731.240579009027,left,1,1,0.6607901095412672,H24R05,2022-11-15_09h07.27.124,t1_Paradigm,2021.1.4,59.98248932659295,
F,left,Distractor,0,0,0,0,873.90159624636,875.8895405089424,left,1,2,0.619850647446583,H24R05,2022-11-15_09h07.27.124,t1_Paradigm,2021.1.4,59.98248932659295,
N,left,Pretarget,0,1,1,1,877.389583496406,879.3911653708346,left,1,2,0.9101963051216444,H24R05,2022-11-15_09h07.27.124,t1_Paradigm,2021.1.4,59.98248932659295,
V,left,Distractor,0,2,2,2,880.8896078773541,882.891054052554,left,1,2,0.7224450370122213,H24R05,2022-11-15_09h07.27.124,t1_Paradigm,2021.1.4,59.98248932659295,
N,right,Target,0,3,3,3,884.3895757971623,886.3917466639832,right,1,2,0.6138850143033778,H24R05,2022-11-15_09h07.27.124,t1_Paradigm,2021.1.4,59.98248932659295,
N,left,Lure,0,4,4,4,887.8894984838844,889.8894769901526,left,1,2,0.7480867371486966,H24R05,2022-11-15_09h07.27.124,t1_Paradigm,2021.1.4,59.98248932659295,
X,left,Distractor,0,5,5,5,891.3896489400067,893.3911785237142,left,1,2,0.8305703730438836,H24R05,2022-11-15_09h07.27.124,t1_Paradigm,2021.1.4,59.98248932659295,
G,left,Pretarget,0,6,6,6,894.8895135615749,896.8914492805634,left,1,2,0.8499224300903734,H24R05,2022-11-15_09h07.27.124,t1_Paradigm,2021.1.4,59.98248932659295,
H,left,Pretarget,0,7,7,7,898.3896040277323,900.3914797567559,left,1,2,0.6940672169876052,H24R05,2022-11-15_09h07.27.124,t1_Paradigm,2021.1.4,59.98248932659295,
G,right,Target,0,8,8,8,901.8896223134361,903.8911159673444,right,1,2,0.5542835401574848,H24R05,2022-11-15_09h07.27.124,t1_Paradigm,2021.1.4,59.98248932659295,
H,right,Target,0,9,9,9,905.389537942523,907.3914059723029,left,0,2,0.462124196550576,H24R05,2022-11-15_09h07.27.124,t1_Paradigm,2021.1.4,59.98248932659295,
T,left,Pretarget,0,10,10,10,908.8886252609664,910.8902093810175,left,1,2,1.1552572382497601,H24R05,2022-11-15_09h07.27.124,t1_Paradigm,2021.1.4,59.98248932659295,
K,left,Distractor,0,11,11,11,912.3896563184535,914.3913559272041,left,1,2,0.694189442525385,H24R05,2022-11-15_09h07.27.124,t1_Paradigm,2021.1.4,59.98248932659295,
T,right,Target,0,12,12,12,915.8895286392653,917.8901891704882,right,1,2,0.5872164271131624,H24R05,2022-11-15_09h07.27.124,t1_Paradigm,2021.1.4,59.98248932659295,
T,left,Lure,0,13,13,13,919.3895783635817,921.389567777107,left,1,2,0.8960527886083582,H24R05,2022-11-15_09h07.27.124,t1_Paradigm,2021.1.4,59.98248932659295,
J,left,Distractor,0,14,14,14,922.8895122783724,924.8913074861048,left,1,2,0.6581547215027967,H24R05,2022-11-15_09h07.27.124,t1_Paradigm,2021.1.4,59.98248932659295,
Q,left,Pretarget,0,15,15,15,926.389523506441,928.3912035462708,left,1,2,0.9341258852509782,H24R05,2022-11-15_09h07.27.124,t1_Paradigm,2021.1.4,59.98248932659295,
M,left,Distractor,0,16,16,16,929.889523827238,931.8918037667318,left,1,2,1.1139151696988847,H24R05,2022-11-15_09h07.27.124,t1_Paradigm,2021.1.4,59.98248932659295,
Q,right,Target,0,17,17,17,933.3895571906469,935.39131454374,right,1,2,0.7819136991456617,H24R05,2022-11-15_09h07.27.124,t1_Paradigm,2021.1.4,59.98248932659295,
R,left,Distractor,0,18,18,18,936.8895158071973,938.8915965286578,left,1,2,0.9140497781918384,H24R05,2022-11-15_09h07.27.124,t1_Paradigm,2021.1.4,59.98248932659295,
W,left,Distractor,0,19,19,19,940.3895023335062,942.3911891101889,left,1,2,0.6463360567286145,H24R05,2022-11-15_09h07.27.124,t1_Paradigm,2021.1.4,59.98248932659295,
C,left,Pretarget,0,20,20,20,943.8895353761181,945.8910059322661,None,0,2,,H24R05,2022-11-15_09h07.27.124,t1_Paradigm,2021.1.4,59.98248932659295,
T,left,Distractor,0,21,21,21,947.3895292808738,949.3910928695987,left,1,2,1.3583778071770212,H24R05,2022-11-15_09h07.27.124,t1_Paradigm,2021.1.4,59.98248932659295,
C,right,Target,0,22,22,22,950.889597290894,952.8915756765346,right,1,2,0.5619702757830964,H24R05,2022-11-15_09h07.27.124,t1_Paradigm,2021.1.4,59.98248932659295,
F,left,Pretarget,0,23,23,23,954.3896130101784,956.390979626507,left,1,2,0.6785747282410739,H24R05,2022-11-15_09h07.27.124,t1_Paradigm,2021.1.4,59.98248932659295,
C,right,Target,0,24,24,24,957.8895100327645,959.8896126893815,right,1,2,1.116091490141116,H24R05,2022-11-15_09h07.27.124,t1_Paradigm,2021.1.4,59.98248932659295,
F,right,Target,0,25,25,25,961.389553661822,963.3905160676804,right,1,2,1.0229819311498431,H24R05,2022-11-15_09h07.27.124,t1_Paradigm,2021.1.4,59.98248932659295,
H,left,Distractor,0,26,26,26,964.8893964688614,966.8903534210986,left,1,2,0.851028234421392,H24R05,2022-11-15_09h07.27.124,t1_Paradigm,2021.1.4,59.98248932659295,
H,left,Lure,0,27,27,27,968.3895132407779,970.3895328096987,left,1,2,1.0160785939224297,H24R05,2022-11-15_09h07.27.124,t1_Paradigm,2021.1.4,59.98248932659295,
P,left,Distractor,0,28,28,28,971.8895016919123,973.8910726590693,None,0,2,,H24R05,2022-11-15_09h07.27.124,t1_Paradigm,2021.1.4,59.98248932659295,
G,left,Pretarget,0,29,29,29,975.3895032959117,977.3913151853485,None,0,2,,H24R05,2022-11-15_09h07.27.124,t1_Paradigm,2021.1.4,59.98248932659295,
K,left,Distractor,0,30,30,30,978.8895889500418,980.8896146141924,left,1,2,1.1397974713181611,H24R05,2022-11-15_09h07.27.124,t1_Paradigm,2021.1.4,59.98248932659295,
G,right,Target,0,31,31,31,982.389435606703,984.3914649998624,right,1,2,0.7900466702558333,H24R05,2022-11-15_09h07.27.124,t1_Paradigm,2021.1.4,59.98248932659295,
M,left,Pretarget,0,32,32,32,985.8895263936574,987.8909574911668,left,1,2,0.9544243080599699,H24R05,2022-11-15_09h07.27.124,t1_Paradigm,2021.1.4,59.98248932659295,
B,left,Distractor,0,33,33,33,989.3894904638437,991.3915654108714,left,1,2,0.7017818623717176,H24R05,2022-11-15_09h07.27.124,t1_Paradigm,2021.1.4,59.98248932659295,
M,right,Target,0,34,34,34,992.8896110853675,994.8910582229873,right,1,2,0.6102945988532156,H24R05,2022-11-15_09h07.27.124,t1_Paradigm,2021.1.4,59.98248932659295,
M,left,Lure,0,35,35,35,996.3894914262492,998.3895902332442,left,1,2,0.7598758881358663,H24R05,2022-11-15_09h07.27.124,t1_Paradigm,2021.1.4,59.98248932659295,
T,left,Distractor,0,36,36,36,999.8895151655888,1001.8913167893625,left,1,2,1.4180665394524112,H24R05,2022-11-15_09h07.27.124,t1_Paradigm,2021.1.4,59.98248932659295,
F,left,Distractor,0,37,37,37,1003.3895353761181,1005.3912651402497,left,1,2,1.358315250792657,H24R05,2022-11-15_09h07.27.124,t1_Paradigm,2021.1.4,59.98248932659295,
X,left,Distractor,0,38,38,38,1006.8893412909238,1008.8902719374018,left,1,2,0.9792806850164197,H24R05,2022-11-15_09h07.27.124,t1_Paradigm,2021.1.4,59.98248932659295,
C,left,Distractor,0,39,39,39,1010.3895430753619,1012.3907297217811,left,1,2,0.6149337159004062,H24R05,2022-11-15_09h07.27.124,t1_Paradigm,2021.1.4,59.98248932659295,
R,left,Distractor,0,40,40,40,1013.8892521079833,1015.8906280275696,left,1,2,0.5547410037543159,H24R05,2022-11-15_09h07.27.124,t1_Paradigm,2021.1.4,59.98248932659295,
B,left,Pretarget,0,41,41,41,1017.3895312056848,1019.3910527693515,left,1,2,0.9903268586931517,H24R05,2022-11-15_09h07.27.124,t1_Paradigm,2021.1.4,59.98248932659295,
H,left,Distractor,0,42,42,42,1020.8895472457807,1022.8914980424597,left,1,2,0.7378765733592445,H24R05,2022-11-15_09h07.27.124,t1_Paradigm,2021.1.4,59.98248932659295,
B,right,Target,0,43,43,43,1024.4061638245767,1026.3914127091412,None,0,2,,H24R05,2022-11-15_09h07.27.124,t1_Paradigm,2021.1.4,59.98248932659295,
W,left,Pretarget,0,44,44,44,1027.889509711953,1029.8918522078166,left,1,2,1.289628023718251,H24R05,2022-11-15_09h07.27.124,t1_Paradigm,2021.1.4,59.98248932659295,
L,left,Pretarget,0,45,45,45,1031.3894757069502,1033.3908827443229,left,1,2,1.0864320663386025,H24R05,2022-11-15_09h07.27.124,t1_Paradigm,2021.1.4,59.98248932659295,
W,right,Target,0,46,46,46,1034.8895915164612,1036.8898330803204,right,1,2,0.7875283749308437,H24R05,2022-11-15_09h07.27.124,t1_Paradigm,2021.1.4,59.98248932659295,
L,right,Target,0,47,47,47,1038.3895042583172,1040.3907322882005,right,1,2,0.8386719055706635,H24R05,2022-11-15_09h07.27.124,t1_Paradigm,2021.1.4,59.98248932659295,
W,right,Target,0,48,48,48,1041.8894362483115,1043.8912898419949,left,0,2,0.5860910538613098,H24R05,2022-11-15_09h07.27.124,t1_Paradigm,2021.1.4,59.98248932659295,
X,left,Distractor,0,49,49,49,1045.3894949550595,1047.3917216414266,left,1,2,0.765712558888481,H24R05,2022-11-15_09h07.27.124,t1_Paradigm,2021.1.4,59.98248932659295,
R,left,Distractor,0,50,50,50,1048.8895000878983,1050.8914682078757,None,0,2,,H24R05,2022-11-15_09h07.27.124,t1_Paradigm,2021.1.4,59.98248932659295,
V,left,Pretarget,0,51,51,51,1052.3893971104699,1054.3913353958778,left,1,2,0.917941426683683,H24R05,2022-11-15_09h07.27.124,t1_Paradigm,2021.1.4,59.98248932659295,
Z,left,Distractor,0,52,52,52,1055.8895664939046,1057.8911326490343,left,1,2,1.0022084006486693,H24R05,2022-11-15_09h07.27.124,t1_Paradigm,2021.1.4,59.98248932659295,
V,right,Target,0,53,53,53,1059.3895020127093,1061.3902202882891,right,1,2,0.7993210547574563,H24R05,2022-11-15_09h07.27.124,t1_Paradigm,2021.1.4,59.98248932659295,
V,left,Lure,0,54,54,54,1062.8894609500567,1064.8894837270054,left,1,2,1.0599886821000837,H24R05,2022-11-15_09h07.27.124,t1_Paradigm,2021.1.4,59.98248932659295,
N,left,Distractor,0,55,55,55,1066.3894785941666,1068.3912773307238,left,1,2,1.1260119697690243,H24R05,2022-11-15_09h07.27.124,t1_Paradigm,2021.1.4,59.98248932659295,
B,left,Distractor,0,56,56,56,1069.889118654377,1071.8890676468582,left,1,2,1.2446400409535272,H24R05,2022-11-15_09h07.27.124,t1_Paradigm,2021.1.4,59.98248932659295,
V,left,Lure,0,57,57,57,1073.389467686895,1075.3910845287464,left,1,2,0.76623899488186,H24R05,2022-11-15_09h07.27.124,t1_Paradigm,2021.1.4,59.98248932659295,
J,left,Distractor,0,58,58,58,1076.8895180528052,1078.8914666038763,left,1,2,0.6418576614523772,H24R05,2022-11-15_09h07.27.124,t1_Paradigm,2021.1.4,59.98248932659295,
H,left,Distractor,0,59,59,59,1080.389495275871,1082.3912205487723,left,1,2,0.9979686820297502,H24R05,2022-11-15_09h07.27.124,t1_Paradigm,2021.1.4,59.98248932659295,
X,left,Pretarget,0,60,60,60,1083.8894170001877,1085.8914848895802,left,1,2,1.273985078863916,H24R05,2022-11-15_09h07.27.124,t1_Paradigm,2021.1.4,59.98248932659295,
P,left,Distractor,0,61,61,61,1087.3895065039396,1089.390090363493,left,1,2,1.151245289016515,H24R05,2022-11-15_09h07.27.124,t1_Paradigm,2021.1.4,59.98248932659295,
X,right,Target,0,62,62,62,1090.889423095432,1092.8906671654113,right,1,2,0.8187064751982689,H24R05,2022-11-15_09h07.27.124,t1_Paradigm,2021.1.4,59.98248932659295,
Q,left,Distractor,0,63,63,63,1094.389483406194,1096.3909436966933,left,1,2,0.6625721643940778,H24R05,2022-11-15_09h07.27.124,t1_Paradigm,2021.1.4,59.98248932659295,
B,left,Pretarget,0,0,0,0,1108.7641993360594,1110.7567782244732,left,1,2,1.2406912897131406,H24R05,2022-11-15_09h07.27.124,t1_Paradigm,2021.1.4,59.98248932659295,
F,left,Distractor,0,1,1,1,1112.2561959689338,1114.257706304532,left,1,2,0.6997803789854515,H24R05,2022-11-15_09h07.27.124,t1_Paradigm,2021.1.4,59.98248932659295,
B,right,Target,0,2,2,2,1115.7562177834625,1117.768961961876,right,1,2,0.5325703807466198,H24R05,2022-11-15_09h07.27.124,t1_Paradigm,2021.1.4,59.98248932659295,
V,left,Distractor,0,3,3,3,1119.2562216330844,1121.2580588658748,left,1,2,0.9954770132608246,H24R05,2022-11-15_09h07.27.124,t1_Paradigm,2021.1.4,59.98248932659295,
G,left,Pretarget,0,4,4,4,1122.7561735127965,1124.7578724799387,left,1,2,0.7758251988707343,H24R05,2022-11-15_09h07.27.124,t1_Paradigm,2021.1.4,59.98248932659295,
B,left,Lure,0,5,5,5,1126.2561045403709,1128.2576687707042,left,1,2,0.8437508421047824,H24R05,2022-11-15_09h07.27.124,t1_Paradigm,2021.1.4,59.98248932659295,
G,right,Target,0,6,6,6,1129.756144961415,1131.7579093721579,right,1,2,1.2154335895029362,H24R05,2022-11-15_09h07.27.124,t1_Paradigm,2021.1.4,59.98248932659295,
Y,left,Pretarget,0,7,7,7,1133.2561055027763,1135.2570428860927,left,1,2,0.7244218186388025,H24R05,2022-11-15_09h07.27.124,t1_Paradigm,2021.1.4,59.98248932659295,
P,left,Distractor,0,8,8,8,1136.7557895128557,1138.7582673871366,left,1,2,0.679243921127636,H24R05,2022-11-15_09h07.27.124,t1_Paradigm,2021.1.4,59.98248932659295,
Y,right,Target,0,9,9,9,1140.255780209598,1142.2576302744565,right,1,2,0.5558237103396095,H24R05,2022-11-15_09h07.27.124,t1_Paradigm,2021.1.4,59.98248932659295,
X,left,Distractor,0,10,10,10,1143.7561032571684,1145.7578086403519,left,1,2,1.071542364457855,H24R05,2022-11-15_09h07.27.124,t1_Paradigm,2021.1.4,59.98248932659295,
Y,right,Target,0,11,11,11,1147.2562646205479,1149.2579135425913,right,1,2,1.283410240255762,H24R05,2022-11-15_09h07.27.124,t1_Paradigm,2021.1.4,59.98248932659295,
N,left,Distractor,0,12,12,12,1150.7559726907639,1152.758035447332,left,1,2,0.9993009725440061,H24R05,2022-11-15_09h07.27.124,t1_Paradigm,2021.1.4,59.98248932659295,
Y,right,Target,0,13,13,13,1154.2561138436286,1156.2580348057236,right,1,2,0.923437084959005,H24R05,2022-11-15_09h07.27.124,t1_Paradigm,2021.1.4,59.98248932659295,
Y,left,Lure,0,14,14,14,1157.7561173724534,1159.7560820842336,left,1,2,0.9133706404682016,H24R05,2022-11-15_09h07.27.124,t1_Paradigm,2021.1.4,59.98248932659295,
K,left,Distractor,0,15,15,15,1161.256148169443,1163.2577335726965,None,0,2,,H24R05,2022-11-15_09h07.27.124,t1_Paradigm,2021.1.4,59.98248932659295,
T,left,Pretarget,0,16,16,16,1164.755996430118,1166.757568680492,left,1,2,1.0639451325987466,H24R05,2022-11-15_09h07.27.124,t1_Paradigm,2021.1.4,59.98248932659295,
J,left,Distractor,0,17,17,17,1168.256114485237,1170.2579183546186,left,1,2,0.7314884440711467,H24R05,2022-11-15_09h07.27.124,t1_Paradigm,2021.1.4,59.98248932659295,
T,right,Target,0,18,18,18,1171.7557869464363,1173.7578638182895,right,1,2,0.6555713033740176,H24R05,2022-11-15_09h07.27.124,t1_Paradigm,2021.1.4,59.98248932659295,
S,left,Pretarget,0,19,19,19,1175.256132129347,1177.2568218535453,left,1,2,0.9966729629377369,H24R05,2022-11-15_09h07.27.124,t1_Paradigm,2021.1.4,59.98248932659295,
R,left,Distractor,0,20,20,20,1178.7560942747077,1180.7573020940617,left,1,2,1.224150420195656,H24R05,2022-11-15_09h07.27.124,t1_Paradigm,2021.1.4,59.98248932659295,
S,right,Target,0,21,21,21,1182.2560913874913,1184.2569857833441,right,1,2,0.8767116388189606,H24R05,2022-11-15_09h07.27.124,t1_Paradigm,2021.1.4,59.98248932659295,
Q,left,Distractor,0,22,22,22,1185.7552261846286,1187.7572834875464,left,1,2,0.6721019072429044,H24R05,2022-11-15_09h07.27.124,t1_Paradigm,2021.1.4,59.98248932659295,
D,left,Distractor,0,23,23,23,1189.2560506456502,1191.2571843597543,left,1,2,1.124280280826497,H24R05,2022-11-15_09h07.27.124,t1_Paradigm,2021.1.4,59.98248932659295,
F,left,Distractor,0,24,24,24,1192.7561237884947,1194.757439076493,left,1,2,1.0320917442295467,H24R05,2022-11-15_09h07.27.124,t1_Paradigm,2021.1.4,59.98248932659295,
Z,left,Distractor,0,25,25,25,1196.2561626055249,1198.2580052919511,left,1,2,0.795459882428986,H24R05,2022-11-15_09h07.27.124,t1_Paradigm,2021.1.4,59.98248932659295,
P,left,Distractor,0,26,26,26,1199.7561083899927,1201.7554799389618,left,1,2,0.6098040926590329,H24R05,2022-11-15_09h07.27.124,t1_Paradigm,2021.1.4,59.98248932659295,
H,left,Distractor,0,27,27,27,1203.2557907960581,1205.2580492418201,left,1,2,0.707386593305273,H24R05,2022-11-15_09h07.27.124,t1_Paradigm,2021.1.4,59.98248932659295,
Z,left,Pretarget,0,28,28,28,1206.755998354929,1208.7577419135487,left,1,2,1.0155714060238097,H24R05,2022-11-15_09h07.27.124,t1_Paradigm,2021.1.4,59.98248932659295,
J,left,Pretarget,0,29,29,29,1210.2561093523982,1212.2571509963454,left,1,2,0.7803645465173759,H24R05,2022-11-15_09h07.27.124,t1_Paradigm,2021.1.4,59.98248932659295,
Z,right,Target,0,30,30,30,1213.7560631569213,1215.757526655434,right,1,2,0.9279032897611614,H24R05,2022-11-15_09h07.27.124,t1_Paradigm,2021.1.4,59.98248932659295,
J,right,Target,0,31,31,31,1217.2562819438463,1219.2577951666608,right,1,2,1.2515347165463027,H24R05,2022-11-15_09h07.27.124,t1_Paradigm,2021.1.4,59.98248932659295,
V,left,Pretarget,0,32,32,32,1220.7561311669415,1222.7577508959948,left,1,2,0.7757754745543934,H24R05,2022-11-15_09h07.27.124,t1_Paradigm,2021.1.4,59.98248932659295,
Z,left,Lure,0,33,33,33,1224.255998675726,1226.257601081481,left,1,2,1.3078608027426526,H24R05,2022-11-15_09h07.27.124,t1_Paradigm,2021.1.4,59.98248932659295,
V,right,Target,0,34,34,34,1227.755879016593,1229.7579517180275,None,0,2,,H24R05,2022-11-15_09h07.27.124,t1_Paradigm,2021.1.4,59.98248932659295,
X,left,Distractor,0,35,35,35,1231.2561626055249,1233.2570906855835,left,1,2,0.9002395748975687,H24R05,2022-11-15_09h07.27.124,t1_Paradigm,2021.1.4,59.98248932659295,
S,left,Distractor,0,36,36,36,1234.7560981243296,1236.755223939006,left,1,2,0.6179762016399764,H24R05,2022-11-15_09h07.27.124,t1_Paradigm,2021.1.4,59.98248932659295,
Q,left,Distractor,0,37,37,37,1238.2561780040269,1240.25782243484,left,1,2,0.7315683237538906,H24R05,2022-11-15_09h07.27.124,t1_Paradigm,2021.1.4,59.98248932659295,
P,left,Distractor,0,38,38,38,1241.756098445141,1243.7578397581383,left,1,2,0.7034843583387556,H24R05,2022-11-15_09h07.27.124,t1_Paradigm,2021.1.4,59.98248932659295,
S,left,Lure,0,39,39,39,1245.2561090316012,1247.2579555676493,left,1,2,0.547701325675007,H24R05,2022-11-15_09h07.27.124,t1_Paradigm,2021.1.4,59.98248932659295,
K,left,Pretarget,0,40,40,40,1248.756044871203,1250.7577409511432,left,1,2,0.7595829959609546,H24R05,2022-11-15_09h07.27.124,t1_Paradigm,2021.1.4,59.98248932659295,
L,left,Distractor,0,41,41,41,1252.2560910666944,1254.257907447347,left,1,2,1.339544486894738,H24R05,2022-11-15_09h07.27.124,t1_Paradigm,2021.1.4,59.98248932659295,
K,right,Target,0,42,42,42,1255.7560820842336,1257.7579571716487,None,0,2,,H24R05,2022-11-15_09h07.27.124,t1_Paradigm,2021.1.4,59.98248932659295,
B,left,Distractor,0,43,43,43,1259.2560804802197,1261.2578221140284,left,1,2,1.1395703435409814,H24R05,2022-11-15_09h07.27.124,t1_Paradigm,2021.1.4,59.98248932659295,
N,left,Distractor,0,44,44,44,1262.756001883754,1264.7568674074137,None,0,2,,H24R05,2022-11-15_09h07.27.124,t1_Paradigm,2021.1.4,59.98248932659295,
S,left,Pretarget,0,45,45,45,1266.2560573824885,1268.2568449512764,left,1,2,1.0365297184616793,H24R05,2022-11-15_09h07.27.124,t1_Paradigm,2021.1.4,59.98248932659295,
Z,left,Distractor,0,46,46,46,1269.7561558686866,1271.757514144163,left,1,2,0.8318102726043435,H24R05,2022-11-15_09h07.27.124,t1_Paradigm,2021.1.4,59.98248932659295,
S,right,Target,0,47,47,47,1273.2558899238647,1275.2580136328033,right,1,2,0.7874074325955007,H24R05,2022-11-15_09h07.27.124,t1_Paradigm,2021.1.4,59.98248932659295,
C,left,Distractor,0,48,48,48,1276.7560856130585,1278.7572408208944,left,1,2,0.7281957328086719,H24R05,2022-11-15_09h07.27.124,t1_Paradigm,2021.1.4,59.98248932659295,
T,left,Pretarget,0,49,49,49,1280.256185061662,1282.2568680490222,left,1,2,0.6524566371954279,H24R05,2022-11-15_09h07.27.124,t1_Paradigm,2021.1.4,59.98248932659295,
S,left,Lure,0,50,50,50,1283.7560605905019,1285.7579042393336,left,1,2,1.2796170779474778,H24R05,2022-11-15_09h07.27.124,t1_Paradigm,2021.1.4,59.98248932659295,
T,right,Target,0,51,51,51,1287.256305362389,1289.2580556578469,right,1,2,1.3312732501217397,H24R05,2022-11-15_09h07.27.124,t1_Paradigm,2021.1.4,59.98248932659295,
N,left,Pretarget,0,52,52,52,1290.756014074228,1292.7565761192382,left,1,2,0.9207227796432562,H24R05,2022-11-15_09h07.27.124,t1_Paradigm,2021.1.4,59.98248932659295,
B,left,Distractor,0,53,53,53,1294.256071176962,1296.2578865952237,left,1,2,0.6355154068296542,H24R05,2022-11-15_09h07.27.124,t1_Paradigm,2021.1.4,59.98248932659295,
N,right,Target,0,54,54,54,1297.756234785964,1299.7579315074981,right,1,2,0.591204316195217,H24R05,2022-11-15_09h07.27.124,t1_Paradigm,2021.1.4,59.98248932659295,
N,left,Lure,0,55,55,55,1301.2561510566593,1303.2560647609353,left,1,2,0.6133765432314249,H24R05,2022-11-15_09h07.27.124,t1_Paradigm,2021.1.4,59.98248932659295,
X,left,Distractor,0,56,56,56,1304.756060269705,1306.7576848108001,left,1,2,0.7283128255367046,H24R05,2022-11-15_09h07.27.124,t1_Paradigm,2021.1.4,59.98248932659295,
W,left,Distractor,0,57,57,57,1308.256174795999,1310.2575802293577,left,1,2,0.8437457092659315,H24R05,2022-11-15_09h07.27.124,t1_Paradigm,2021.1.4,59.98248932659295,
S,left,Distractor,0,58,58,58,1311.7560506456502,1313.7579760989756,left,1,2,0.6713323033472989,H24R05,2022-11-15_09h07.27.124,t1_Paradigm,2021.1.4,59.98248932659295,
L,left,Distractor,0,59,59,59,1315.2560577032855,1317.2578416829492,left,1,2,0.5636464659910416,H24R05,2022-11-15_09h07.27.124,t1_Paradigm,2021.1.4,59.98248932659295,
K,left,Pretarget,0,60,60,60,1318.75605674088,1320.757266485045,left,1,2,0.6000241243018536,H24R05,2022-11-15_09h07.27.124,t1_Paradigm,2021.1.4,59.98248932659295,
V,left,Pretarget,0,61,61,61,1322.2561000491405,1324.2579725701507,left,1,2,1.1315759588469518,H24R05,2022-11-15_09h07.27.124,t1_Paradigm,2021.1.4,59.98248932659295,
K,right,Target,0,62,62,62,1325.7560467960138,1327.7577403095347,right,1,2,0.8477214078884572,H24R05,2022-11-15_09h07.27.124,t1_Paradigm,2021.1.4,59.98248932659295,
V,right,Target,0,63,63,63,1329.256044871203,1331.2579286202817,right,1,2,1.1875318396050716,H24R05,2022-11-15_09h07.27.124,t1_Paradigm,2021.1.4,59.98248932659295,
R,left,Distractor,0,0,0,0,1422.6310889814777,1424.6240246016532,None,0,3,,H24R05,2022-11-15_09h07.27.124,t1_Paradigm,2021.1.4,59.98248932659295,
P,left,Lure,0,1,1,1,1426.12263167958,1428.1239257946581,left,1,3,0.5615038297401043,H24R05,2022-11-15_09h07.27.124,t1_Paradigm,2021.1.4,59.98248932659295,
V,left,Distractor,0,2,2,2,1429.6227253537509,1431.624512541428,left,1,3,1.1569183507672278,H24R05,2022-11-15_09h07.27.124,t1_Paradigm,2021.1.4,59.98248932659295,
P,left,Pretarget,0,3,3,3,1433.1226560605282,1435.124321985073,None,0,3,,H24R05,2022-11-15_09h07.27.124,t1_Paradigm,2021.1.4,59.98248932659295,
Z,left,Distractor,0,4,4,4,1436.6226560605282,1438.6244169424463,left,1,3,1.2289849056251114,H24R05,2022-11-15_09h07.27.124,t1_Paradigm,2021.1.4,59.98248932659295,
L,left,Pretarget,0,5,5,5,1440.1227192585065,1442.1245025965618,left,1,3,0.78479097186937,H24R05,2022-11-15_09h07.27.124,t1_Paradigm,2021.1.4,59.98248932659295,
P,right,Target,0,6,6,6,1443.62263167958,1445.6236502257816,left,0,3,1.1099474911316065,H24R05,2022-11-15_09h07.27.124,t1_Paradigm,2021.1.4,59.98248932659295,
S,left,Distractor,0,7,7,7,1447.1227776444575,1449.1239450427674,left,1,3,1.08161907462636,H24R05,2022-11-15_09h07.27.124,t1_Paradigm,2021.1.4,59.98248932659295,
L,right,Target,0,8,8,8,1450.6226868575177,1452.624074005158,None,0,3,,H24R05,2022-11-15_09h07.27.124,t1_Paradigm,2021.1.4,59.98248932659295,
D,left,Distractor,0,9,9,9,1454.122677875057,1456.1236662658775,None,0,3,,H24R05,2022-11-15_09h07.27.124,t1_Paradigm,2021.1.4,59.98248932659295,
G,left,Distractor,0,10,10,10,1457.6224651833618,1459.6243425163993,left,1,3,0.8849376425205264,H24R05,2022-11-15_09h07.27.124,t1_Paradigm,2021.1.4,59.98248932659295,
M,left,Pretarget,0,11,11,11,1461.1226749878406,1463.1246597895224,left,1,3,1.2407583373278612,H24R05,2022-11-15_09h07.27.124,t1_Paradigm,2021.1.4,59.98248932659295,
Y,left,Distractor,0,12,12,12,1464.62263167958,1466.6241169926216,left,1,3,0.9572781622409821,H24R05,2022-11-15_09h07.27.124,t1_Paradigm,2021.1.4,59.98248932659295,
V,left,Distractor,0,13,13,13,1468.1225983161712,1470.124144581583,left,1,3,0.8652602922957158,H24R05,2022-11-15_09h07.27.124,t1_Paradigm,2021.1.4,59.98248932659295,
M,right,Target,0,14,14,14,1471.6226814038819,1473.624162225693,right,1,3,1.3331335806433344,H24R05,2022-11-15_09h07.27.124,t1_Paradigm,2021.1.4,59.98248932659295,
S,left,Pretarget,0,15,15,15,1475.122704501613,1477.1234288724372,left,1,3,0.9219209749280708,H24R05,2022-11-15_09h07.27.124,t1_Paradigm,2021.1.4,59.98248932659295,
Q,left,Distractor,0,16,16,16,1478.6226647221774,1480.6234423461137,left,1,3,0.7176188924058806,H24R05,2022-11-15_09h07.27.124,t1_Paradigm,2021.1.4,59.98248932659295,
R,left,Pretarget,0,17,17,17,1482.1227571131458,1484.1238751079509,left,1,3,0.785413648452959,H24R05,2022-11-15_09h07.27.124,t1_Paradigm,2021.1.4,59.98248932659295,
S,right,Target,0,18,18,18,1485.6227269577503,1487.6243460452097,right,1,3,0.46895054131164216,H24R05,2022-11-15_09h07.27.124,t1_Paradigm,2021.1.4,59.98248932659295,
F,left,Distractor,0,19,19,19,1489.1225347973814,1491.1232315792295,left,1,3,0.6981962589343311,H24R05,2022-11-15_09h07.27.124,t1_Paradigm,2021.1.4,59.98248932659295,
R,right,Target,0,20,20,20,1492.622651569298,1494.623580932559,right,1,3,0.7335130252031377,H24R05,2022-11-15_09h07.27.124,t1_Paradigm,2021.1.4,59.98248932659295,
P,left,Distractor,0,21,21,21,1496.1225668775878,1498.1240624562924,left,1,3,0.6575984509108821,H24R05,2022-11-15_09h07.27.124,t1_Paradigm,2021.1.4,59.98248932659295,
L,left,Distractor,0,22,22,22,1499.6226066570234,1501.623884090397,left,1,3,1.125531087644049,H24R05,2022-11-15_09h07.27.124,t1_Paradigm,2021.1.4,59.98248932659295,
R,right,Target,0,23,23,23,1503.1226737046381,1505.1244657043426,right,1,3,1.3848218330094824,H24R05,2022-11-15_09h07.27.124,t1_Paradigm,2021.1.4,59.98248932659295,
H,left,Pretarget,0,24,24,24,1506.6228321808012,1508.6238321204874,left,1,3,0.7172538197919494,H24R05,2022-11-15_09h07.27.124,t1_Paradigm,2021.1.4,59.98248932659295,
G,left,Pretarget,0,25,25,25,1510.1226377748098,1512.1243312883307,left,1,3,1.2169423210871173,H24R05,2022-11-15_09h07.27.124,t1_Paradigm,2021.1.4,59.98248932659295,
T,left,Distractor,0,26,26,26,1513.6227208625205,1515.6246347669803,left,1,3,1.1726305888587376,H24R05,2022-11-15_09h07.27.124,t1_Paradigm,2021.1.4,59.98248932659295,
H,right,Target,0,27,27,27,1517.1226839703013,1519.1238205716218,right,1,3,0.698071466977126,H24R05,2022-11-15_09h07.27.124,t1_Paradigm,2021.1.4,59.98248932659295,
G,right,Target,0,28,28,28,1520.6226801206649,1522.6241388071503,None,0,3,,H24R05,2022-11-15_09h07.27.124,t1_Paradigm,2021.1.4,59.98248932659295,
D,left,Distractor,0,29,29,29,1524.1224821858632,1526.1233797897294,left,1,3,0.737879460590193,H24R05,2022-11-15_09h07.27.124,t1_Paradigm,2021.1.4,59.98248932659295,
N,left,Pretarget,0,30,30,30,1527.6228440504638,1529.6244111680135,left,1,3,0.9008462113997666,H24R05,2022-11-15_09h07.27.124,t1_Paradigm,2021.1.4,59.98248932659295,
V,left,Distractor,0,31,31,31,1531.1225835592777,1533.1245975539496,left,1,3,0.696833171430626,H24R05,2022-11-15_09h07.27.124,t1_Paradigm,2021.1.4,59.98248932659295,
R,left,Distractor,0,32,32,32,1534.6226660053799,1536.624144581583,left,1,3,0.5732637877517845,H24R05,2022-11-15_09h07.27.124,t1_Paradigm,2021.1.4,59.98248932659295,
N,right,Target,0,33,33,33,1538.1227067472355,1540.124466987545,right,1,3,0.881166936349473,H24R05,2022-11-15_09h07.27.124,t1_Paradigm,2021.1.4,59.98248932659295,
Z,left,Distractor,0,34,34,34,1541.6226833286928,1543.6243880702677,left,1,3,1.1410155563207809,H24R05,2022-11-15_09h07.27.124,t1_Paradigm,2021.1.4,59.98248932659295,
N,left,Lure,0,35,35,35,1545.122693915153,1547.135109913157,None,0,3,,H24R05,2022-11-15_09h07.27.124,t1_Paradigm,2021.1.4,59.98248932659295,
Y,left,Pretarget,0,36,36,36,1548.6227462058741,1550.6243896742817,left,1,3,1.0689063348108903,H24R05,2022-11-15_09h07.27.124,t1_Paradigm,2021.1.4,59.98248932659295,
Y,left,Lure,0,37,37,37,1552.1226855743007,1554.122692311139,left,1,3,1.2185889975226019,H24R05,2022-11-15_09h07.27.124,t1_Paradigm,2021.1.4,59.98248932659295,
B,left,Distractor,0,38,38,38,1555.6226114690508,1557.624642466224,left,1,3,1.0926514538150514,H24R05,2022-11-15_09h07.27.124,t1_Paradigm,2021.1.4,59.98248932659295,
Y,right,Target,0,39,39,39,1559.122708030438,1561.124207779576,left,0,3,0.6813570435915608,H24R05,2022-11-15_09h07.27.124,t1_Paradigm,2021.1.4,59.98248932659295,
J,left,Distractor,0,40,40,40,1562.6226682510023,1564.624586005084,left,1,3,0.7326330654323101,H24R05,2022-11-15_09h07.27.124,t1_Paradigm,2021.1.4,59.98248932659295,
X,left,Distractor,0,41,41,41,1566.1225989577797,1568.1246434286295,left,1,3,0.8809497534384718,H24R05,2022-11-15_09h07.27.124,t1_Paradigm,2021.1.4,59.98248932659295,
W,left,Pretarget,0,42,42,42,1569.622732411386,1571.6247236291092,left,1,3,0.7565039388136938,H24R05,2022-11-15_09h07.27.124,t1_Paradigm,2021.1.4,59.98248932659295,
S,left,Pretarget,0,43,43,43,1573.122691669545,1575.1240358297218,left,1,3,1.177244362552301,H24R05,2022-11-15_09h07.27.124,t1_Paradigm,2021.1.4,59.98248932659295,
R,left,Distractor,0,44,44,44,1576.6226332835795,1578.6239950878808,left,1,3,1.2294122138264356,H24R05,2022-11-15_09h07.27.124,t1_Paradigm,2021.1.4,59.98248932659295,
W,right,Target,0,45,45,45,1580.1224603713345,1582.1234112283273,right,1,3,1.16982581737102,H24R05,2022-11-15_09h07.27.124,t1_Paradigm,2021.1.4,59.98248932659295,
S,right,Target,0,46,46,46,1583.6226287923637,1585.6239938046638,left,0,3,0.9817518224735977,H24R05,2022-11-15_09h07.27.124,t1_Paradigm,2021.1.4,59.98248932659295,
D,left,Distractor,0,47,47,47,1587.1227192585065,1589.1245391679986,left,1,3,0.6969858731608838,H24R05,2022-11-15_09h07.27.124,t1_Paradigm,2021.1.4,59.98248932659295,
T,left,Distractor,0,48,48,48,1590.622601844996,1592.6242850928393,left,1,3,0.7167973186151357,H24R05,2022-11-15_09h07.27.124,t1_Paradigm,2021.1.4,59.98248932659295,
S,right,Target,0,49,49,49,1594.1226765918545,1596.1242953585024,right,1,3,0.9291342068609083,H24R05,2022-11-15_09h07.27.124,t1_Paradigm,2021.1.4,59.98248932659295,
K,left,Distractor,0,50,50,50,1597.6227843813103,1599.6241400903673,left,1,3,0.8051846728485543,H24R05,2022-11-15_09h07.27.124,t1_Paradigm,2021.1.4,59.98248932659295,
S,left,Lure,0,51,51,51,1601.1226724214212,1603.1242696943518,None,0,3,,H24R05,2022-11-15_09h07.27.124,t1_Paradigm,2021.1.4,59.98248932659295,
T,left,Pretarget,0,52,52,52,1604.6226467572706,1606.6246325213579,right,0,3,0.9407847714028321,H24R05,2022-11-15_09h07.27.124,t1_Paradigm,2021.1.4,59.98248932659295,
V,left,Distractor,0,53,53,53,1608.122559819938,1610.1226470780675,left,1,3,0.8346092696301639,H24R05,2022-11-15_09h07.27.124,t1_Paradigm,2021.1.4,59.98248932659295,
B,left,Distractor,0,54,54,54,1611.622660230947,1613.624000220705,left,1,3,0.7570563597691944,H24R05,2022-11-15_09h07.27.124,t1_Paradigm,2021.1.4,59.98248932659295,
T,right,Target,0,55,55,55,1615.1226156394841,1617.123568742085,right,1,3,0.7777320456661982,H24R05,2022-11-15_09h07.27.124,t1_Paradigm,2021.1.4,59.98248932659295,
Y,left,Pretarget,0,56,56,56,1618.622644511648,1620.6246299549384,left,1,3,1.0046567611570936,H24R05,2022-11-15_09h07.27.124,t1_Paradigm,2021.1.4,59.98248932659295,
T,left,Lure,0,57,57,57,1622.1226624765695,1624.1227410730353,left,1,3,0.8829416127555305,H24R05,2022-11-15_09h07.27.124,t1_Paradigm,2021.1.4,59.98248932659295,
P,left,Pretarget,0,58,58,58,1625.6226204515115,1627.624276751987,left,1,3,0.46900988968263846,H24R05,2022-11-15_09h07.27.124,t1_Paradigm,2021.1.4,59.98248932659295,
Y,right,Target,0,59,59,59,1629.1226608725556,1631.1244740451948,right,1,3,0.6968899533821968,H24R05,2022-11-15_09h07.27.124,t1_Paradigm,2021.1.4,59.98248932659295,
R,left,Distractor,0,60,60,60,1632.6226252635388,1634.6236014638853,left,1,3,0.6537337497720728,H24R05,2022-11-15_09h07.27.124,t1_Paradigm,2021.1.4,59.98248932659295,
P,right,Target,0,61,61,61,1636.1226672885969,1638.12442464169,left,0,3,1.088968326585018,H24R05,2022-11-15_09h07.27.124,t1_Paradigm,2021.1.4,59.98248932659295,
L,left,Distractor,0,62,62,62,1639.6225171532715,1641.624279960015,left,1,3,0.6611080242873868,H24R05,2022-11-15_09h07.27.124,t1_Paradigm,2021.1.4,59.98248932659295,
V,left,Distractor,0,63,63,63,1643.1225466670585,1645.1245038797788,left,1,3,1.2248879438702716,H24R05,2022-11-15_09h07.27.124,t1_Paradigm,2021.1.4,59.98248932659295,
H,left,Lure,0,0,0,0,1652.648332407276,1654.6401715263928,left,1,3,0.8770863355166512,H24R05,2022-11-15_09h07.27.124,t1_Paradigm,2021.1.4,59.98248932659295,
B,left,Distractor,0,1,1,1,1656.1392703937017,1658.140091967507,left,1,3,0.641307486104779,H24R05,2022-11-15_09h07.27.124,t1_Paradigm,2021.1.4,59.98248932659295,
T,left,Distractor,0,2,2,2,1659.6392902834195,1661.6403049799992,left,1,3,0.5489389796130126,H24R05,2022-11-15_09h07.27.124,t1_Paradigm,2021.1.4,59.98248932659295,
R,left,Distractor,0,3,3,3,1663.1390769501159,1665.1409712856548,left,1,3,0.5683067559584742,H24R05,2022-11-15_09h07.27.124,t1_Paradigm,2021.1.4,59.98248932659295,
H,left,Pretarget,0,4,4,4,1666.6393736919272,1668.641197771838,left,1,3,0.892408799205441,H24R05,2022-11-15_09h07.27.124,t1_Paradigm,2021.1.4,59.98248932659295,
K,left,Distractor,0,5,5,5,1670.1392200277915,1672.141109551303,left,1,3,1.2161422410135856,H24R05,2022-11-15_09h07.27.124,t1_Paradigm,2021.1.4,59.98248932659295,
G,left,Distractor,0,6,6,6,1673.6392954162584,1675.6399819324288,left,1,3,0.5012382955465,H24R05,2022-11-15_09h07.27.124,t1_Paradigm,2021.1.4,59.98248932659295,
H,right,Target,0,7,7,7,1677.1393220428145,1679.140835265629,left,0,3,0.8885068850649986,H24R05,2022-11-15_09h07.27.124,t1_Paradigm,2021.1.4,59.98248932659295,
Y,left,Pretarget,0,8,8,8,1680.6394205290126,1682.6401144236443,left,1,3,0.6051608051930089,H24R05,2022-11-15_09h07.27.124,t1_Paradigm,2021.1.4,59.98248932659295,
S,left,Distractor,0,9,9,9,1684.139308569138,1686.1397204788373,left,1,3,0.5459654663136462,H24R05,2022-11-15_09h07.27.124,t1_Paradigm,2021.1.4,59.98248932659295,
P,left,Distractor,0,10,10,10,1687.6393701631023,1689.6404554361216,left,1,3,0.8208247305010445,H24R05,2022-11-15_09h07.27.124,t1_Paradigm,2021.1.4,59.98248932659295,
Y,right,Target,0,11,11,11,1691.1391529801913,1693.1406091002573,left,0,3,0.6967690110468538,H24R05,2022-11-15_09h07.27.124,t1_Paradigm,2021.1.4,59.98248932659295,
H,left,Lure,0,12,12,12,1694.6391411105142,1696.6401651103515,left,1,3,0.9092117639374919,H24R05,2022-11-15_09h07.27.124,t1_Paradigm,2021.1.4,59.98248932659295,
Q,left,Distractor,0,13,13,13,1698.1394413811358,1700.140850984928,left,1,3,0.7524865359300748,H24R05,2022-11-15_09h07.27.124,t1_Paradigm,2021.1.4,59.98248932659295,
V,left,Pretarget,0,14,14,14,1701.6392671856738,1703.639844308389,left,1,3,0.74133257282665,H24R05,2022-11-15_09h07.27.124,t1_Paradigm,2021.1.4,59.98248932659295,
G,left,Distractor,0,15,15,15,1705.1392838673783,1707.1406761478574,left,1,3,0.8407336997188395,H24R05,2022-11-15_09h07.27.124,t1_Paradigm,2021.1.4,59.98248932659295,
Z,left,Pretarget,0,16,16,16,1708.639367275886,1710.6407082280493,left,1,3,0.7164040154166287,H24R05,2022-11-15_09h07.27.124,t1_Paradigm,2021.1.4,59.98248932659295,
V,right,Target,0,17,17,17,1712.1391760779225,1714.140790994963,right,1,3,0.9285987883922644,H24R05,2022-11-15_09h07.27.124,t1_Paradigm,2021.1.4,59.98248932659295,
N,left,Distractor,0,18,18,18,1715.6392222733994,1717.6403046592022,left,1,3,0.6612106809043325,H24R05,2022-11-15_09h07.27.124,t1_Paradigm,2021.1.4,59.98248932659295,
Z,right,Target,0,19,19,19,1719.139221310994,1721.140879215498,right,1,3,1.0965405358874705,H24R05,2022-11-15_09h07.27.124,t1_Paradigm,2021.1.4,59.98248932659295,
R,left,Distractor,0,20,20,20,1722.6392569200107,1724.639963646725,left,1,3,0.6372717975318665,H24R05,2022-11-15_09h07.27.124,t1_Paradigm,2021.1.4,59.98248932659295,
P,left,Distractor,0,21,21,21,1726.139599857299,1728.1413414911076,left,1,3,0.7039540124096675,H24R05,2022-11-15_09h07.27.124,t1_Paradigm,2021.1.4,59.98248932659295,
Z,right,Target,0,22,22,22,1729.639289000217,1731.641171466079,right,1,3,0.6602354429633124,H24R05,2022-11-15_09h07.27.124,t1_Paradigm,2021.1.4,59.98248932659295,
D,left,Pretarget,0,23,23,23,1733.1392880378116,1735.1394577420433,left,1,3,0.7777599554538028,H24R05,2022-11-15_09h07.27.124,t1_Paradigm,2021.1.4,59.98248932659295,
K,left,Distractor,0,24,24,24,1736.6393396869244,1738.6396473359928,left,1,3,0.9577394754596753,H24R05,2022-11-15_09h07.27.124,t1_Paradigm,2021.1.4,59.98248932659295,
W,left,Distractor,0,25,25,25,1740.139275205729,1742.1403996165755,left,1,3,0.4168205446767388,H24R05,2022-11-15_09h07.27.124,t1_Paradigm,2021.1.4,59.98248932659295,
D,right,Target,0,26,26,26,1743.6393518773984,1745.6402555764944,right,1,3,0.7409261167485965,H24R05,2022-11-15_09h07.27.124,t1_Paradigm,2021.1.4,59.98248932659295,
G,left,Pretarget,0,27,27,27,1747.1392841881898,1749.1403187744872,left,1,3,0.5849547733378131,H24R05,2022-11-15_09h07.27.124,t1_Paradigm,2021.1.4,59.98248932659295,
V,left,Distractor,0,28,28,28,1750.6393217220175,1752.641083566341,left,1,3,0.732141917644185,H24R05,2022-11-15_09h07.27.124,t1_Paradigm,2021.1.4,59.98248932659295,
D,right,Target,0,29,29,29,1754.1393323084776,1756.1411336114397,left,0,3,1.0242080362222623,H24R05,2022-11-15_09h07.27.124,t1_Paradigm,2021.1.4,59.98248932659295,
G,right,Target,0,30,30,30,1757.6391744739085,1759.6384953361849,right,1,3,0.8549006348039256,H24R05,2022-11-15_09h07.27.124,t1_Paradigm,2021.1.4,59.98248932659295,
B,left,Pretarget,0,31,31,31,1761.1392588448216,1763.1408978220134,left,1,3,0.7448187276459066,H24R05,2022-11-15_09h07.27.124,t1_Paradigm,2021.1.4,59.98248932659295,
N,left,Distractor,0,32,32,32,1764.6393390453159,1766.6398853710416,left,1,3,0.8134806113666855,H24R05,2022-11-15_09h07.27.124,t1_Paradigm,2021.1.4,59.98248932659295,
F,left,Distractor,0,33,33,33,1768.1389021130599,1770.1410421828914,left,1,3,0.6083094763598638,H24R05,2022-11-15_09h07.27.124,t1_Paradigm,2021.1.4,59.98248932659295,
B,right,Target,0,34,34,34,1771.6392691104847,1773.6409414510708,right,1,3,0.8683618055802071,H24R05,2022-11-15_09h07.27.124,t1_Paradigm,2021.1.4,59.98248932659295,
Q,left,Pretarget,0,35,35,35,1775.1394128297688,1777.1398962783132,left,1,3,0.4254873302561464,H24R05,2022-11-15_09h07.27.124,t1_Paradigm,2021.1.4,59.98248932659295,
S,left,Pretarget,0,36,36,36,1778.6392290102522,1780.6383573913336,left,1,3,0.6069393312063767,H24R05,2022-11-15_09h07.27.124,t1_Paradigm,2021.1.4,59.98248932659295,
W,left,Distractor,0,37,37,37,1782.1393079275294,1784.1408711954427,left,1,3,0.784259082225617,H24R05,2022-11-15_09h07.27.124,t1_Paradigm,2021.1.4,59.98248932659295,
Q,right,Target,0,38,38,38,1785.6391658122593,1787.6393018322851,right,1,3,1.2540485206554877,H24R05,2022-11-15_09h07.27.124,t1_Paradigm,2021.1.4,59.98248932659295,
S,right,Target,0,39,39,39,1789.1392293310491,1791.1403633659502,right,1,3,1.0168709747376852,H24R05,2022-11-15_09h07.27.124,t1_Paradigm,2021.1.4,59.98248932659295,
T,left,Distractor,0,40,40,40,1792.639147205744,1794.6409722480603,left,1,3,0.6681592512177303,H24R05,2022-11-15_09h07.27.124,t1_Paradigm,2021.1.4,59.98248932659295,
G,left,Distractor,0,41,41,41,1796.139279376148,1798.141006253063,left,1,3,0.8002164130011806,H24R05,2022-11-15_09h07.27.124,t1_Paradigm,2021.1.4,59.98248932659295,
D,left,Distractor,0,42,42,42,1799.6392841881898,1801.6412022630684,left,1,3,0.804015349727706,H24R05,2022-11-15_09h07.27.124,t1_Paradigm,2021.1.4,59.98248932659295,
S,left,Lure,0,43,43,43,1803.1392206694,1805.1399520978448,left,1,3,0.985246318145073,H24R05,2022-11-15_09h07.27.124,t1_Paradigm,2021.1.4,59.98248932659295,
Z,left,Pretarget,0,44,44,44,1806.639217140575,1808.6411688996595,left,1,3,0.7642102433310356,H24R05,2022-11-15_09h07.27.124,t1_Paradigm,2021.1.4,59.98248932659295,
J,left,Distractor,0,45,45,45,1810.139215536561,1812.1407082280493,left,1,3,0.6566690876643406,H24R05,2022-11-15_09h07.27.124,t1_Paradigm,2021.1.4,59.98248932659295,
M,left,Pretarget,0,46,46,46,1813.6392623736465,1815.6400560376787,left,1,3,0.6770621470495826,H24R05,2022-11-15_09h07.27.124,t1_Paradigm,2021.1.4,59.98248932659295,
Z,right,Target,0,47,47,47,1817.139317872381,1819.1395286392653,right,1,3,0.7298619781649904,H24R05,2022-11-15_09h07.27.124,t1_Paradigm,2021.1.4,59.98248932659295,
P,left,Distractor,0,48,48,48,1820.6392976618663,1822.6412850299675,left,1,3,0.7639988348528277,H24R05,2022-11-15_09h07.27.124,t1_Paradigm,2021.1.4,59.98248932659295,
M,right,Target,0,49,49,49,1824.1392036668985,1826.1410665638396,right,1,3,0.6722921428008704,H24R05,2022-11-15_09h07.27.124,t1_Paradigm,2021.1.4,59.98248932659295,
K,left,Distractor,0,50,50,50,1827.639261411241,1829.6406790350738,left,1,3,1.0929048873658758,H24R05,2022-11-15_09h07.27.124,t1_Paradigm,2021.1.4,59.98248932659295,
Y,left,Distractor,0,51,51,51,1831.1392700728902,1833.1411409898865,left,1,3,1.4160974570695544,H24R05,2022-11-15_09h07.27.124,t1_Paradigm,2021.1.4,59.98248932659295,
X,left,Distractor,0,52,52,52,1834.6392604488356,1836.641215736745,left,1,3,0.6838339554669801,H24R05,2022-11-15_09h07.27.124,t1_Paradigm,2021.1.4,59.98248932659295,
F,left,Pretarget,0,53,53,53,1838.1392440879426,1840.1408557969553,left,1,3,0.6244791780336527,H24R05,2022-11-15_09h07.27.124,t1_Paradigm,2021.1.4,59.98248932659295,
M,left,Lure,0,54,54,54,1841.639215536561,1843.6399107143952,left,1,3,1.0134226745431079,H24R05,2022-11-15_09h07.27.124,t1_Paradigm,2021.1.4,59.98248932659295,
V,left,Distractor,0,55,55,55,1845.1393313460721,1847.1383634865779,left,1,3,0.8270171706099063,H24R05,2022-11-15_09h07.27.124,t1_Paradigm,2021.1.4,59.98248932659295,
F,right,Target,0,56,56,56,1848.6392408799147,1850.6409587743838,right,1,3,0.9401983454445144,H24R05,2022-11-15_09h07.27.124,t1_Paradigm,2021.1.4,59.98248932659295,
S,left,Distractor,0,57,57,57,1852.1391844187747,1854.1406350852048,left,1,3,0.6406986039946787,H24R05,2022-11-15_09h07.27.124,t1_Paradigm,2021.1.4,59.98248932659295,
D,left,Distractor,0,58,58,58,1855.6391946844378,1857.6407563483517,left,1,3,0.7403117810026743,H24R05,2022-11-15_09h07.27.124,t1_Paradigm,2021.1.4,59.98248932659295,
F,right,Target,0,59,59,59,1859.1393801079685,1861.1413482279459,right,1,3,0.535897417794331,H24R05,2022-11-15_09h07.27.124,t1_Paradigm,2021.1.4,59.98248932659295,
V,left,Pretarget,0,60,60,60,1862.6391853811801,1864.6412083582982,left,1,3,0.4760367356793722,H24R05,2022-11-15_09h07.27.124,t1_Paradigm,2021.1.4,59.98248932659295,
J,left,Distractor,0,61,61,61,1866.1392360678874,1868.1412712354795,left,1,3,0.4642360358120641,H24R05,2022-11-15_09h07.27.124,t1_Paradigm,2021.1.4,59.98248932659295,
V,left,Lure,0,62,62,62,1869.6393589350337,1871.6406094210543,right,0,3,0.9165549206518335,H24R05,2022-11-15_09h07.27.124,t1_Paradigm,2021.1.4,59.98248932659295,
V,right,Target,0,63,63,63,1873.139159396218,1875.1394192458101,left,0,3,1.0338045058597345,H24R05,2022-11-15_09h07.27.124,t1_Paradigm,2021.1.4,59.98248932659295,
R,left,Distractor,0,0,0,0,1945.3832239184849,1947.3743598396977,left,1,4,1.022707645475748,H24R05,2022-11-15_09h07.27.124,t1_Paradigm,2021.1.4,59.98248932659295,
F,left,Distractor,0,1,1,1,1948.8725546871137,1950.8747390276112,left,1,4,0.7864690868882462,H24R05,2022-11-15_09h07.27.124,t1_Paradigm,2021.1.4,59.98248932659295,
P,left,Pretarget,0,2,2,2,1952.372604090604,1954.3742276692938,left,1,4,0.8710870181676,H24R05,2022-11-15_09h07.27.124,t1_Paradigm,2021.1.4,59.98248932659295,
H,left,Distractor,0,3,3,3,1955.872257303694,1957.8737900954293,left,1,4,0.8434152832633117,H24R05,2022-11-15_09h07.27.124,t1_Paradigm,2021.1.4,59.98248932659295,
Z,left,Distractor,0,4,4,4,1959.372736261008,1961.374218686833,left,1,4,1.3430046567664249,H24R05,2022-11-15_09h07.27.124,t1_Paradigm,2021.1.4,59.98248932659295,
T,left,Distractor,0,5,5,5,1962.8726704966102,1964.8732319000264,left,1,4,0.7720304325484904,H24R05,2022-11-15_09h07.27.124,t1_Paradigm,2021.1.4,59.98248932659295,
P,right,Target,0,6,6,6,1966.372572331209,1968.3718248626683,right,1,4,0.9851584184216335,H24R05,2022-11-15_09h07.27.124,t1_Paradigm,2021.1.4,59.98248932659295,
G,left,Distractor,0,7,7,7,1969.8724202710873,1971.8727506971045,left,1,4,0.5565477603522595,H24R05,2022-11-15_09h07.27.124,t1_Paradigm,2021.1.4,59.98248932659295,
L,left,Distractor,0,8,8,8,1973.372446897658,1975.374732290773,left,1,4,0.7184571479156148,H24R05,2022-11-15_09h07.27.124,t1_Paradigm,2021.1.4,59.98248932659295,
P,left,Lure,0,9,9,9,1976.872502075581,1978.8743620853202,left,1,4,0.9950432890182128,H24R05,2022-11-15_09h07.27.124,t1_Paradigm,2021.1.4,59.98248932659295,
Q,left,Pretarget,0,10,10,10,1980.3726281507552,1982.3741025565396,None,0,4,,H24R05,2022-11-15_09h07.27.124,t1_Paradigm,2021.1.4,59.98248932659295,
D,left,Distractor,0,11,11,11,1983.8726958399639,1985.8743264763034,left,1,4,0.8591538271139143,H24R05,2022-11-15_09h07.27.124,t1_Paradigm,2021.1.4,59.98248932659295,
M,left,Pretarget,0,12,12,12,1987.3725203612994,1989.374482706844,left,1,4,0.782707683974877,H24R05,2022-11-15_09h07.27.124,t1_Paradigm,2021.1.4,59.98248932659295,
C,left,Distractor,0,13,13,13,1990.8725309477595,1992.8745192782662,left,1,4,0.9788267502590315,H24R05,2022-11-15_09h07.27.124,t1_Paradigm,2021.1.4,59.98248932659295,
Q,right,Target,0,14,14,14,1994.3726297547692,1996.3741157094191,right,1,4,0.9669163361249957,H24R05,2022-11-15_09h07.27.124,t1_Paradigm,2021.1.4,59.98248932659295,
R,left,Distractor,0,15,15,15,1997.8726169226866,1999.8745199198747,left,1,4,0.7948513211304089,H24R05,2022-11-15_09h07.27.124,t1_Paradigm,2021.1.4,59.98248932659295,
M,right,Target,0,16,16,16,2001.3722903462913,2003.3742597494856,right,1,4,0.8150249519676436,H24R05,2022-11-15_09h07.27.124,t1_Paradigm,2021.1.4,59.98248932659295,
S,left,Distractor,0,17,17,17,2004.8725068876229,2006.8726663261914,left,1,4,0.708687124424614,H24R05,2022-11-15_09h07.27.124,t1_Paradigm,2021.1.4,59.98248932659295,
Z,left,Distractor,0,18,18,18,2008.3725816344668,2010.374773353411,left,1,4,0.5823325381788891,H24R05,2022-11-15_09h07.27.124,t1_Paradigm,2021.1.4,59.98248932659295,
L,left,Pretarget,0,19,19,19,2011.8725405718142,2013.8853986349277,left,1,4,1.1679484843334649,H24R05,2022-11-15_09h07.27.124,t1_Paradigm,2021.1.4,59.98248932659295,
M,right,Target,0,20,20,20,2015.3725707272097,2017.3742706567573,left,0,4,0.9270246132073225,H24R05,2022-11-15_09h07.27.124,t1_Paradigm,2021.1.4,59.98248932659295,
P,left,Distractor,0,21,21,21,2018.8724914891209,2020.8744445314223,left,1,4,0.9949271587101975,H24R05,2022-11-15_09h07.27.124,t1_Paradigm,2021.1.4,59.98248932659295,
F,left,Distractor,0,22,22,22,2022.3722165618528,2024.3740656643058,left,1,4,0.9031139604048803,H24R05,2022-11-15_09h07.27.124,t1_Paradigm,2021.1.4,59.98248932659295,
L,right,Target,0,23,23,23,2025.8721642711316,2027.872806516636,right,1,4,0.9884399016009411,H24R05,2022-11-15_09h07.27.124,t1_Paradigm,2021.1.4,59.98248932659295,
L,left,Lure,0,24,24,24,2029.3724164214655,2031.3725136244611,right,0,4,1.3446551828092197,H24R05,2022-11-15_09h07.27.124,t1_Paradigm,2021.1.4,59.98248932659295,
V,left,Pretarget,0,25,25,25,2032.8724622961454,2034.874116030216,left,1,4,0.931496271645301,H24R05,2022-11-15_09h07.27.124,t1_Paradigm,2021.1.4,59.98248932659295,
Z,left,Distractor,0,26,26,26,2036.3725585367356,2038.3741003109171,left,1,4,1.1752059869322693,H24R05,2022-11-15_09h07.27.124,t1_Paradigm,2021.1.4,59.98248932659295,
H,left,Distractor,0,27,27,27,2039.872401343775,2041.889190514019,left,1,4,1.1481691191002028,H24R05,2022-11-15_09h07.27.124,t1_Paradigm,2021.1.4,59.98248932659295,
X,left,Distractor,0,28,28,28,2043.372427970331,2045.372878697075,left,1,4,1.3924537114944542,H24R05,2022-11-15_09h07.27.124,t1_Paradigm,2021.1.4,59.98248932659295,
V,right,Target,0,29,29,29,2046.8725165116775,2048.8746418246155,left,0,4,1.0425575871631736,H24R05,2022-11-15_09h07.27.124,t1_Paradigm,2021.1.4,59.98248932659295,
C,left,Distractor,0,30,30,30,2050.3724465768464,2052.374408601594,left,1,4,1.2707716056902427,H24R05,2022-11-15_09h07.27.124,t1_Paradigm,2021.1.4,59.98248932659295,
S,left,Pretarget,0,31,31,31,2053.8725270981377,2055.874568681771,left,1,4,0.746767278702464,H24R05,2022-11-15_09h07.27.124,t1_Paradigm,2021.1.4,59.98248932659295,
D,left,Distractor,0,32,32,32,2057.3725004715816,2059.37245427609,left,1,4,0.6408513057249365,H24R05,2022-11-15_09h07.27.124,t1_Paradigm,2021.1.4,59.98248932659295,
V,left,Distractor,0,33,33,33,2060.8725466670585,2062.873098767217,left,1,4,0.5165325286798179,H24R05,2022-11-15_09h07.27.124,t1_Paradigm,2021.1.4,59.98248932659295,
R,left,Distractor,0,34,34,34,2064.372697764775,2066.374049945007,left,1,4,0.7111900212621549,H24R05,2022-11-15_09h07.27.124,t1_Paradigm,2021.1.4,59.98248932659295,
S,right,Target,0,35,35,35,2067.8724886019045,2069.8729531231365,left,0,4,0.748409463907592,H24R05,2022-11-15_09h07.27.124,t1_Paradigm,2021.1.4,59.98248932659295,
Y,left,Distractor,0,36,36,36,2071.372217203447,2073.372938366243,left,1,4,0.6722953508142382,H24R05,2022-11-15_09h07.27.124,t1_Paradigm,2021.1.4,59.98248932659295,
N,left,Pretarget,0,37,37,37,2074.8723336545663,2076.874190456263,left,1,4,0.9791231712733861,H24R05,2022-11-15_09h07.27.124,t1_Paradigm,2021.1.4,59.98248932659295,
Z,left,Pretarget,0,38,38,38,2078.3724411232106,2080.372035308741,left,1,4,0.8412620605522534,H24R05,2022-11-15_09h07.27.124,t1_Paradigm,2021.1.4,59.98248932659295,
P,left,Pretarget,0,39,39,39,2081.8725303061656,2083.874651127873,left,1,4,1.0824615005549276,H24R05,2022-11-15_09h07.27.124,t1_Paradigm,2021.1.4,59.98248932659295,
M,left,Distractor,0,40,40,40,2085.372362847542,2087.374336100358,left,1,4,0.8149351274187211,H24R05,2022-11-15_09h07.27.124,t1_Paradigm,2021.1.4,59.98248932659295,
N,right,Target,0,41,41,41,2088.8726313587686,2090.87412822069,right,1,4,1.1711093459889526,H24R05,2022-11-15_09h07.27.124,t1_Paradigm,2021.1.4,59.98248932659295,
Z,right,Target,0,42,42,42,2092.372551479086,2094.3730198499397,right,1,4,0.6963022442068905,H24R05,2022-11-15_09h07.27.124,t1_Paradigm,2021.1.4,59.98248932659295,
P,right,Target,0,43,43,43,2095.8725030379865,2097.8740329425054,left,0,4,0.6031198631535517,H24R05,2022-11-15_09h07.27.124,t1_Paradigm,2021.1.4,59.98248932659295,
X,left,Pretarget,0,44,44,44,2099.3725287021516,2101.374400260742,left,1,4,0.8949424930469831,H24R05,2022-11-15_09h07.27.124,t1_Paradigm,2021.1.4,59.98248932659295,
Z,left,Lure,0,45,45,45,2102.8724324615614,2104.874308511382,left,1,4,0.6910157488164259,H24R05,2022-11-15_09h07.27.124,t1_Paradigm,2021.1.4,59.98248932659295,
R,left,Pretarget,0,46,46,46,2106.372491809918,2108.3741025565396,left,1,4,0.8711518201598665,H24R05,2022-11-15_09h07.27.124,t1_Paradigm,2021.1.4,59.98248932659295,
K,left,Distractor,0,47,47,47,2109.8723971733416,2111.8738051731198,left,1,4,0.9554598567629,H24R05,2022-11-15_09h07.27.124,t1_Paradigm,2021.1.4,59.98248932659295,
X,right,Target,0,48,48,48,2113.372395569342,2115.37391200017,left,0,4,0.8794346058130031,H24R05,2022-11-15_09h07.27.124,t1_Paradigm,2021.1.4,59.98248932659295,
B,left,Distractor,0,49,49,49,2116.872510416433,2118.8733445015096,left,1,4,1.1399132808146533,H24R05,2022-11-15_09h07.27.124,t1_Paradigm,2021.1.4,59.98248932659295,
R,right,Target,0,50,50,50,2120.372059368892,2122.3742190076446,left,0,4,0.7750443669065135,H24R05,2022-11-15_09h07.27.124,t1_Paradigm,2021.1.4,59.98248932659295,
Y,left,Pretarget,0,51,51,51,2123.8725566119247,2125.873589594208,left,1,4,0.7479901757615153,H24R05,2022-11-15_09h07.27.124,t1_Paradigm,2021.1.4,59.98248932659295,
W,left,Pretarget,0,52,52,52,2127.3725566119247,2129.3742068171705,left,1,4,0.6390747045079479,H24R05,2022-11-15_09h07.27.124,t1_Paradigm,2021.1.4,59.98248932659295,
Z,left,Distractor,0,53,53,53,2130.872576180831,2132.87362873205,right,0,4,0.7715854802518152,H24R05,2022-11-15_09h07.27.124,t1_Paradigm,2021.1.4,59.98248932659295,
Q,left,Distractor,0,54,54,54,2134.3716975042917,2136.3726855743007,left,1,4,0.7445020961167756,H24R05,2022-11-15_09h07.27.124,t1_Paradigm,2021.1.4,59.98248932659295,
Y,right,Target,0,55,55,55,2137.8724247623177,2139.87419783471,left,0,4,1.242971229206887,H24R05,2022-11-15_09h07.27.124,t1_Paradigm,2021.1.4,59.98248932659295,
W,right,Target,0,56,56,56,2141.3723763212183,2143.374267769541,right,1,4,0.942787858803058,H24R05,2022-11-15_09h07.27.124,t1_Paradigm,2021.1.4,59.98248932659295,
H,left,Pretarget,0,57,57,57,2144.8724786570383,2146.8741256542708,left,1,4,0.7391520819364814,H24R05,2022-11-15_09h07.27.124,t1_Paradigm,2021.1.4,59.98248932659295,
M,left,Distractor,0,58,58,58,2148.3722717397904,2150.3741561304632,left,1,4,0.7911566450202372,H24R05,2022-11-15_09h07.27.124,t1_Paradigm,2021.1.4,59.98248932659295,
R,left,Pretarget,0,59,59,59,2151.8722823262506,2153.8732335040404,left,1,4,0.7801197746157413,H24R05,2022-11-15_09h07.27.124,t1_Paradigm,2021.1.4,59.98248932659295,
J,left,Distractor,0,60,60,60,2155.3724709577946,2157.3742135540087,left,1,4,0.6869665865524439,H24R05,2022-11-15_09h07.27.124,t1_Paradigm,2021.1.4,59.98248932659295,
H,right,Target,0,61,61,61,2158.8725508374773,2160.8728950579825,left,0,4,1.0924150227656355,H24R05,2022-11-15_09h07.27.124,t1_Paradigm,2021.1.4,59.98248932659295,
Z,left,Distractor,0,62,62,62,2162.3724959803512,2164.3737243310316,left,1,4,0.7434489033039426,H24R05,2022-11-15_09h07.27.124,t1_Paradigm,2021.1.4,59.98248932659295,
R,right,Target,0,63,63,63,2165.872563990357,2167.871859188468,right,1,4,0.925435039534932,H24R05,2022-11-15_09h07.27.124,t1_Paradigm,2021.1.4,59.98248932659295,
J,left,Pretarget,0,0,0,0,2176.163228525198,2178.1574457491806,left,1,4,1.0238654197310098,H24R05,2022-11-15_09h07.27.124,t1_Paradigm,2021.1.4,59.98248932659295,
G,left,Pretarget,0,1,1,1,2179.6558115840307,2181.6561936591606,left,1,4,1.2210126562858932,H24R05,2022-11-15_09h07.27.124,t1_Paradigm,2021.1.4,59.98248932659295,
Z,left,Distractor,0,2,2,2,2183.1557397243887,2185.1576478544157,left,1,4,1.383497562535922,H24R05,2022-11-15_09h07.27.124,t1_Paradigm,2021.1.4,59.98248932659295,
F,left,Distractor,0,3,3,3,2186.655598571524,2188.657733829328,left,1,4,0.8275513058615616,H24R05,2022-11-15_09h07.27.124,t1_Paradigm,2021.1.4,59.98248932659295,
J,right,Target,0,4,4,4,2190.1556207068643,2192.1570973582566,right,1,4,1.0241887881129514,H24R05,2022-11-15_09h07.27.124,t1_Paradigm,2021.1.4,59.98248932659295,
G,right,Target,0,5,5,5,2193.6557952231233,2195.6561994335934,right,1,4,0.6451266333606327,H24R05,2022-11-15_09h07.27.124,t1_Paradigm,2021.1.4,59.98248932659295,
H,left,Distractor,0,6,6,6,2197.1558398146008,2199.157745057397,left,1,4,0.6480363070877502,H24R05,2022-11-15_09h07.27.124,t1_Paradigm,2021.1.4,59.98248932659295,
P,left,Distractor,0,7,7,7,2200.655758010107,2202.657212846956,left,1,4,0.6518204869207693,H24R05,2022-11-15_09h07.27.124,t1_Paradigm,2021.1.4,59.98248932659295,
G,left,Lure,0,8,8,8,2204.1556345013523,2206.1570004760724,right,0,4,0.736191079908167,H24R05,2022-11-15_09h07.27.124,t1_Paradigm,2021.1.4,59.98248932659295,
S,left,Distractor,0,9,9,9,2207.655760255715,2209.6563643257978,left,1,4,0.8848298530647298,H24R05,2022-11-15_09h07.27.124,t1_Paradigm,2021.1.4,59.98248932659295,
R,left,Pretarget,0,10,10,10,2211.155851684278,2213.1571708219126,left,1,4,0.6963381740206387,H24R05,2022-11-15_09h07.27.124,t1_Paradigm,2021.1.4,59.98248932659295,
T,left,Pretarget,0,11,11,11,2214.655809980017,2216.657576636382,left,1,4,0.5715991464094259,H24R05,2022-11-15_09h07.27.124,t1_Paradigm,2021.1.4,59.98248932659295,
X,left,Distractor,0,12,12,12,2218.1555526968586,2220.157702711542,left,1,4,1.1355548654682934,H24R05,2022-11-15_09h07.27.124,t1_Paradigm,2021.1.4,59.98248932659295,
F,left,Pretarget,0,13,13,13,2221.655846872236,2223.668424554431,left,1,4,0.7606964995356975,H24R05,2022-11-15_09h07.27.124,t1_Paradigm,2021.1.4,59.98248932659295,
R,right,Target,0,14,14,14,2225.155772766986,2227.1570408971165,left,0,4,0.7763455396343488,H24R05,2022-11-15_09h07.27.124,t1_Paradigm,2021.1.4,59.98248932659295,
T,right,Target,0,15,15,15,2228.6556126868236,2230.657052445982,right,1,4,1.1160706380178453,H24R05,2022-11-15_09h07.27.124,t1_Paradigm,2021.1.4,59.98248932659295,
C,left,Distractor,0,16,16,16,2232.1556855088565,2234.1564682656317,left,1,4,0.5288481156749185,H24R05,2022-11-15_09h07.27.124,t1_Paradigm,2021.1.4,59.98248932659295,
F,right,Target,0,17,17,17,2235.655766030148,2237.6570992830675,left,0,4,0.7880066906509455,H24R05,2022-11-15_09h07.27.124,t1_Paradigm,2021.1.4,59.98248932659295,
M,left,Distractor,0,18,18,18,2239.155749669255,2241.1574377291254,left,1,4,0.5677536933799274,H24R05,2022-11-15_09h07.27.124,t1_Paradigm,2021.1.4,59.98248932659295,
N,left,Distractor,0,19,19,19,2242.655932205569,2244.65740853615,left,1,4,0.7637133211101172,H24R05,2022-11-15_09h07.27.124,t1_Paradigm,2021.1.4,59.98248932659295,
R,left,Lure,0,20,20,20,2246.1557791830273,2248.1548863911885,left,1,4,1.0264199656958226,H24R05,2022-11-15_09h07.27.124,t1_Paradigm,2021.1.4,59.98248932659295,
F,right,Target,0,21,21,21,2249.655531844721,2251.657422009841,right,1,4,0.8837529209122295,H24R05,2022-11-15_09h07.27.124,t1_Paradigm,2021.1.4,59.98248932659295,
P,left,Distractor,0,22,22,22,2253.1557413284027,2255.156819543772,left,1,4,0.6003638535767095,H24R05,2022-11-15_09h07.27.124,t1_Paradigm,2021.1.4,59.98248932659295,
L,left,Pretarget,0,23,23,23,2256.6550159951876,2258.6719042932236,left,1,4,0.6052807851228863,H24R05,2022-11-15_09h07.27.124,t1_Paradigm,2021.1.4,59.98248932659295,
T,left,Distractor,0,24,24,24,2260.155765709351,2262.157186541197,left,1,4,0.5920942208176712,H24R05,2022-11-15_09h07.27.124,t1_Paradigm,2021.1.4,59.98248932659295,
F,left,Distractor,0,25,25,25,2263.655790411096,2265.657696616312,left,1,4,0.5314912029716652,H24R05,2022-11-15_09h07.27.124,t1_Paradigm,2021.1.4,59.98248932659295,
V,left,Distractor,0,26,26,26,2267.155764105337,2269.156527613988,left,1,4,1.4647971184313064,H24R05,2022-11-15_09h07.27.124,t1_Paradigm,2021.1.4,59.98248932659295,
L,right,Target,0,27,27,27,2270.6557711629866,2272.655920015095,right,1,4,1.053232592967106,H24R05,2022-11-15_09h07.27.124,t1_Paradigm,2021.1.4,59.98248932659295,
S,left,Pretarget,0,28,28,28,2274.1557615389174,2276.1576462504017,left,1,4,0.5757060530158924,H24R05,2022-11-15_09h07.27.124,t1_Paradigm,2021.1.4,59.98248932659295,
W,left,Distractor,0,29,29,29,2277.6555353735457,2279.6561253283435,left,1,4,0.565150385547895,H24R05,2022-11-15_09h07.27.124,t1_Paradigm,2021.1.4,59.98248932659295,
Q,left,Distractor,0,30,30,30,2281.1559033333906,2283.157348225388,left,1,4,0.5837995655165287,H24R05,2022-11-15_09h07.27.124,t1_Paradigm,2021.1.4,59.98248932659295,
L,right,Target,0,31,31,31,2284.6556941705203,2286.6577623807098,right,1,4,0.5394878332590451,H24R05,2022-11-15_09h07.27.124,t1_Paradigm,2021.1.4,59.98248932659295,
S,right,Target,0,32,32,32,2288.1558298697346,2290.1574810374004,right,1,4,0.6237532032100717,H24R05,2022-11-15_09h07.27.124,t1_Paradigm,2021.1.4,59.98248932659295,
Z,left,Pretarget,0,33,33,33,2291.655586060253,2293.6687123137817,left,1,4,0.5367225204245187,H24R05,2022-11-15_09h07.27.124,t1_Paradigm,2021.1.4,59.98248932659295,
F,left,Distractor,0,34,34,34,2295.1555113133945,2297.156635724241,left,1,4,0.6004745302489027,H24R05,2022-11-15_09h07.27.124,t1_Paradigm,2021.1.4,59.98248932659295,
V,left,Distractor,0,35,35,35,2298.655812546436,2300.6576764057827,left,1,4,0.7160844966711011,H24R05,2022-11-15_09h07.27.124,t1_Paradigm,2021.1.4,59.98248932659295,
M,left,Distractor,0,36,36,36,2302.15591199504,2304.157600054925,left,1,4,0.5758686996123288,H24R05,2022-11-15_09h07.27.124,t1_Paradigm,2021.1.4,59.98248932659295,
Z,right,Target,0,37,37,37,2305.6558212080854,2307.657774891981,left,0,4,0.9635196850576904,H24R05,2022-11-15_09h07.27.124,t1_Paradigm,2021.1.4,59.98248932659295,
H,left,Pretarget,0,38,38,38,2309.1558189624775,2311.1574139897857,left,1,4,0.7118826326768612,H24R05,2022-11-15_09h07.27.124,t1_Paradigm,2021.1.4,59.98248932659295,
L,left,Distractor,0,39,39,39,2312.655793619124,2314.657119493597,left,1,4,0.6519786422868492,H24R05,2022-11-15_09h07.27.124,t1_Paradigm,2021.1.4,59.98248932659295,
G,left,Distractor,0,40,40,40,2316.1556678647466,2318.1571945612523,left,1,4,0.7839697188610444,H24R05,2022-11-15_09h07.27.124,t1_Paradigm,2021.1.4,59.98248932659295,
K,left,Distractor,0,41,41,41,2319.655779824636,2321.6561153834773,left,1,4,0.6292889617179753,H24R05,2022-11-15_09h07.27.124,t1_Paradigm,2021.1.4,59.98248932659295,
H,right,Target,0,42,42,42,2323.1557252883067,2325.1573918544455,right,1,4,0.7438114095130004,H24R05,2022-11-15_09h07.27.124,t1_Paradigm,2021.1.4,59.98248932659295,
B,left,Distractor,0,43,43,43,2326.655818320869,2328.6570745813224,left,1,4,0.4122093373880489,H24R05,2022-11-15_09h07.27.124,t1_Paradigm,2021.1.4,59.98248932659295,
Z,left,Distractor,0,44,44,44,2330.155479874811,2332.1574017993116,left,1,4,0.49601563974283636,H24R05,2022-11-15_09h07.27.124,t1_Paradigm,2021.1.4,59.98248932659295,
T,left,Pretarget,0,45,45,45,2333.6556393133797,2335.6576918042847,left,1,4,0.7392537761625135,H24R05,2022-11-15_09h07.27.124,t1_Paradigm,2021.1.4,59.98248932659295,
H,right,Target,0,46,46,46,2337.1555908722803,2339.1571801251557,left,0,4,0.7919422890117858,H24R05,2022-11-15_09h07.27.124,t1_Paradigm,2021.1.4,59.98248932659295,
F,left,Distractor,0,47,47,47,2340.6557875238796,2342.657811142606,left,1,4,0.715257148433011,H24R05,2022-11-15_09h07.27.124,t1_Paradigm,2021.1.4,59.98248932659295,
R,left,Distractor,0,48,48,48,2344.1555199750583,2346.1576860298374,left,1,4,0.6874936641543172,H24R05,2022-11-15_09h07.27.124,t1_Paradigm,2021.1.4,59.98248932659295,
T,right,Target,0,49,49,49,2347.6557365163753,2349.6575756739767,left,0,4,0.5636329922999721,H24R05,2022-11-15_09h07.27.124,t1_Paradigm,2021.1.4,59.98248932659295,
H,right,Target,0,50,50,50,2351.1558215288824,2353.1564830225107,right,1,4,0.952750363474479,H24R05,2022-11-15_09h07.27.124,t1_Paradigm,2021.1.4,59.98248932659295,
Y,left,Pretarget,0,51,51,51,2354.655509709395,2356.657152856991,left,1,4,0.6359648503712378,H24R05,2022-11-15_09h07.27.124,t1_Paradigm,2021.1.4,59.98248932659295,
H,left,Distractor,0,52,52,52,2358.1557207970764,2360.1571570274245,left,1,4,1.2159885768924141,H24R05,2022-11-15_09h07.27.124,t1_Paradigm,2021.1.4,59.98248932659295,
S,left,Distractor,0,53,53,53,2361.655802280773,2363.6573260900477,left,1,4,0.5799938919371925,H24R05,2022-11-15_09h07.27.124,t1_Paradigm,2021.1.4,59.98248932659295,
Q,left,Distractor,0,54,54,54,2365.1557573684986,2367.157117889583,left,1,4,0.840140536922263,H24R05,2022-11-15_09h07.27.124,t1_Paradigm,2021.1.4,59.98248932659295,
Y,right,Target,0,55,55,55,2368.6556588823005,2370.6576943706896,left,0,4,0.6354165998345707,H24R05,2022-11-15_09h07.27.124,t1_Paradigm,2021.1.4,59.98248932659295,
R,left,Distractor,0,56,56,56,2372.1558009975706,2374.1575955636945,left,1,4,0.879736801245599,H24R05,2022-11-15_09h07.27.124,t1_Paradigm,2021.1.4,59.98248932659295,
H,left,Pretarget,0,57,57,57,2375.655803884787,2377.657567012313,left,1,4,0.8515261190477759,H24R05,2022-11-15_09h07.27.124,t1_Paradigm,2021.1.4,59.98248932659295,
J,left,Distractor,0,58,58,58,2379.155712456224,2381.157661648889,left,1,4,0.8716009429044789,H24R05,2022-11-15_09h07.27.124,t1_Paradigm,2021.1.4,59.98248932659295,
V,left,Distractor,0,59,59,59,2382.6557993935567,2384.6564724360505,left,1,4,0.9087623203959083,H24R05,2022-11-15_09h07.27.124,t1_Paradigm,2021.1.4,59.98248932659295,
Y,left,Lure,0,60,60,60,2386.1554888572573,2388.154811002736,left,1,4,0.7543375632085372,H24R05,2022-11-15_09h07.27.124,t1_Paradigm,2021.1.4,59.98248932659295,
H,right,Target,0,61,61,61,2389.6557211178733,2391.6573472629825,right,1,4,0.8198286404367536,H24R05,2022-11-15_09h07.27.124,t1_Paradigm,2021.1.4,59.98248932659295,
L,left,Distractor,0,62,62,62,2393.155437528956,2395.1572519847978,left,1,4,0.5838589138729731,H24R05,2022-11-15_09h07.27.124,t1_Paradigm,2021.1.4,59.98248932659295,
P,left,Distractor,0,63,63,63,2396.6558651579544,2398.656615834523,left,1,4,0.6045307501481147,H24R05,2022-11-15_09h07.27.124,t1_Paradigm,2021.1.4,59.98248932659295,
