Letter,CorrAnswer,Stimulus,finaln_nback_run.thisRepN,finaln_nback_run.thisTrialN,finaln_nback_run.thisN,finaln_nback_run.thisIndex,finaln_fixcross.started,finaln_nback_trial.started,finaln_trial_resp.keys,finaln_trial_resp.corr,finaln_trial_resp.rt,finaln_level,finaln_money,Participant,date,expName,psychopyVersion,frameRate,
D,left,Distractor,0,0,0,0,3056.033376876847,3058.034188505786,left,1,0.4754766154801473,2,1.47,H25N04,2022-10-20_10h44.59.930,t1_Paradigm,2021.1.4,60.002117357428375,
M,left,Pretarget,0,1,1,1,3059.5343193929875,3061.5350960544893,left,1,0.6865027068997733,2,1.47,H25N04,2022-10-20_10h44.59.930,t1_Paradigm,2021.1.4,60.002117357428375,
T,left,Distractor,0,2,2,2,3063.034414029564,3065.0340746211004,left,1,0.41947935125790536,2,1.47,H25N04,2022-10-20_10h44.59.930,t1_Paradigm,2021.1.4,60.002117357428375,
G,left,Pretarget,0,3,3,3,3066.534249458171,3068.5349087061477,left,1,0.5024576637661085,2,1.47,H25N04,2022-10-20_10h44.59.930,t1_Paradigm,2021.1.4,60.002117357428375,
M,right,Target,0,4,4,4,3070.0344676034874,3072.034757929272,right,1,0.7629100329941139,2,1.47,H25N04,2022-10-20_10h44.59.930,t1_Paradigm,2021.1.4,60.002117357428375,
P,left,Distractor,0,5,5,5,3073.534436485672,3075.534528876655,left,1,0.7833188116783276,2,1.47,H25N04,2022-10-20_10h44.59.930,t1_Paradigm,2021.1.4,60.002117357428375,
G,right,Target,0,6,6,6,3077.034662971855,3079.0340204055537,right,1,0.7395848437445238,2,1.47,H25N04,2022-10-20_10h44.59.930,t1_Paradigm,2021.1.4,60.002117357428375,
J,left,Distractor,0,7,7,7,3080.53476979892,3082.5361511721276,left,1,0.6934451819979586,2,1.47,H25N04,2022-10-20_10h44.59.930,t1_Paradigm,2021.1.4,60.002117357428375,
M,left,Lure,0,8,8,8,3084.034639232501,3086.0348089367617,right,0,0.6188035498489626,2,1.47,H25N04,2022-10-20_10h44.59.930,t1_Paradigm,2021.1.4,60.002117357428375,
F,left,Pretarget,0,9,9,9,3087.534678691183,3089.5352208464756,left,1,0.5102560384548269,2,1.47,H25N04,2022-10-20_10h44.59.930,t1_Paradigm,2021.1.4,60.002117357428375,
R,left,Distractor,0,10,10,10,3091.034346661123,3093.035879132047,left,1,0.5936247669160366,2,1.47,H25N04,2022-10-20_10h44.59.930,t1_Paradigm,2021.1.4,60.002117357428375,
G,left,Distractor,0,11,11,11,3094.5343036736595,3096.535835182178,left,1,0.9819366043666378,2,1.47,H25N04,2022-10-20_10h44.59.930,t1_Paradigm,2021.1.4,60.002117357428375,
F,right,Target,0,12,12,12,3098.0344275032403,3100.035719051899,right,1,0.9857409947435372,2,1.47,H25N04,2022-10-20_10h44.59.930,t1_Paradigm,2021.1.4,60.002117357428375,
F,left,Lure,0,13,13,13,3101.5344454681617,3103.534811823978,left,1,0.9588873048196547,2,1.47,H25N04,2022-10-20_10h44.59.930,t1_Paradigm,2021.1.4,60.002117357428375,
S,left,Distractor,0,14,14,14,3105.034450921754,3107.035626019351,left,1,0.6260026664822362,2,1.47,H25N04,2022-10-20_10h44.59.930,t1_Paradigm,2021.1.4,60.002117357428375,
F,right,Target,0,15,15,15,3108.534287633607,3110.5349603552604,right,1,1.0148181630647741,2,1.47,H25N04,2022-10-20_10h44.59.930,t1_Paradigm,2021.1.4,60.002117357428375,
T,left,Pretarget,0,16,16,16,3112.034568335279,3114.0341580295935,left,1,0.49147404643008485,2,1.47,H25N04,2022-10-20_10h44.59.930,t1_Paradigm,2021.1.4,60.002117357428375,
Z,left,Distractor,0,17,17,17,3115.534474661108,3117.534243683738,left,1,0.8793758990941569,2,1.47,H25N04,2022-10-20_10h44.59.930,t1_Paradigm,2021.1.4,60.002117357428375,
W,left,Distractor,0,18,18,18,3119.0344862099737,3121.0340996436425,left,1,0.6114385786349885,2,1.47,H25N04,2022-10-20_10h44.59.930,t1_Paradigm,2021.1.4,60.002117357428375,
T,right,Target,0,19,19,19,3122.5343902902096,3124.534619663609,right,1,0.8389949531410821,2,1.47,H25N04,2022-10-20_10h44.59.930,t1_Paradigm,2021.1.4,60.002117357428375,
V,left,Distractor,0,20,20,20,3126.0344480345375,3128.0338718742714,left,1,0.4758031918318011,2,1.47,H25N04,2022-10-20_10h44.59.930,t1_Paradigm,2021.1.4,60.002117357428375,
N,left,Distractor,0,21,21,21,3129.534287633607,3131.534447072132,left,1,0.5912588525097817,2,1.47,H25N04,2022-10-20_10h44.59.930,t1_Paradigm,2021.1.4,60.002117357428375,
P,left,Pretarget,0,22,22,22,3133.0344355232664,3135.036057497957,left,1,0.6255612430395558,2,1.47,H25N04,2022-10-20_10h44.59.930,t1_Paradigm,2021.1.4,60.002117357428375,
T,left,Lure,0,23,23,23,3136.5345641648746,3138.5352667211555,right,0,0.662501587998122,2,1.47,H25N04,2022-10-20_10h44.59.930,t1_Paradigm,2021.1.4,60.002117357428375,
L,left,Pretarget,0,24,24,24,3140.0347242450225,3142.0346947312355,left,1,0.44302204420091584,2,1.47,H25N04,2022-10-20_10h44.59.930,t1_Paradigm,2021.1.4,60.002117357428375,
P,right,Target,0,25,25,25,3143.5347957838676,3145.536144114507,left,0,0.41360546747455373,2,1.47,H25N04,2022-10-20_10h44.59.930,t1_Paradigm,2021.1.4,60.002117357428375,
G,left,Pretarget,0,26,26,26,3147.034297257662,3149.0346604054794,left,1,0.7389214253635146,2,1.47,H25N04,2022-10-20_10h44.59.930,t1_Paradigm,2021.1.4,60.002117357428375,
L,right,Target,0,27,27,27,3150.53410445567,3152.534235022089,left,0,0.8713048427016474,2,1.47,H25N04,2022-10-20_10h44.59.930,t1_Paradigm,2021.1.4,60.002117357428375,
F,left,Distractor,0,28,28,28,3154.0342427213327,3156.0342209067894,left,1,0.33146637288155034,2,1.47,H25N04,2022-10-20_10h44.59.930,t1_Paradigm,2021.1.4,60.002117357428375,
G,right,Target,0,29,29,29,3157.53430912731,3159.53463730769,left,0,1.1508266424643807,2,1.47,H25N04,2022-10-20_10h44.59.930,t1_Paradigm,2021.1.4,60.002117357428375,
R,left,Pretarget,0,30,30,30,3161.034209357924,3163.034472736297,left,1,0.7551844803383574,2,1.47,H25N04,2022-10-20_10h44.59.930,t1_Paradigm,2021.1.4,60.002117357428375,
X,left,Distractor,0,31,31,31,3164.5345798841445,3166.5354444454424,left,1,0.6141467886627652,2,1.47,H25N04,2022-10-20_10h44.59.930,t1_Paradigm,2021.1.4,60.002117357428375,
W,left,Distractor,0,32,32,32,3168.034246250114,3170.034723282617,left,1,0.8429164362605661,2,1.47,H25N04,2022-10-20_10h44.59.930,t1_Paradigm,2021.1.4,60.002117357428375,
R,right,Target,0,33,33,33,3171.534124986967,3173.534716545779,right,1,0.8629376861499622,2,1.47,H25N04,2022-10-20_10h44.59.930,t1_Paradigm,2021.1.4,60.002117357428375,
S,left,Distractor,0,34,34,34,3175.0344977588393,3177.034157067188,left,1,0.7554023048724048,2,1.47,H25N04,2022-10-20_10h44.59.930,t1_Paradigm,2021.1.4,60.002117357428375,
D,left,Distractor,0,35,35,35,3178.5342760846834,3180.5356545707327,left,1,0.7921504894620739,2,1.47,H25N04,2022-10-20_10h44.59.930,t1_Paradigm,2021.1.4,60.002117357428375,
R,right,Target,0,36,36,36,3182.03479610465,3184.03412562859,right,1,0.8755124811432324,2,1.47,H25N04,2022-10-20_10h44.59.930,t1_Paradigm,2021.1.4,60.002117357428375,
T,left,Distractor,0,37,37,37,3185.534397027048,3187.5346658590715,left,1,0.7028029750217684,2,1.47,H25N04,2022-10-20_10h44.59.930,t1_Paradigm,2021.1.4,60.002117357428375,
G,left,Distractor,0,38,38,38,3189.034332866664,3191.034568335279,left,1,0.8831937630893663,2,1.47,H25N04,2022-10-20_10h44.59.930,t1_Paradigm,2021.1.4,60.002117357428375,
K,left,Pretarget,0,39,39,39,3192.534472736297,3194.5350614078925,left,1,0.8385179206379689,2,1.47,H25N04,2022-10-20_10h44.59.930,t1_Paradigm,2021.1.4,60.002117357428375,
R,left,Lure,0,40,40,40,3196.0344133879407,3198.034113117319,right,0,0.7156466019805521,2,1.47,H25N04,2022-10-20_10h44.59.930,t1_Paradigm,2021.1.4,60.002117357428375,
Q,left,Pretarget,0,41,41,41,3199.5346520646126,3201.535896134563,left,1,0.7336015665205196,2,1.47,H25N04,2022-10-20_10h44.59.930,t1_Paradigm,2021.1.4,60.002117357428375,
K,right,Target,0,42,42,42,3203.0343338290695,3205.036260886409,left,0,0.6254672480281442,2,1.47,H25N04,2022-10-20_10h44.59.930,t1_Paradigm,2021.1.4,60.002117357428375,
Z,left,Distractor,0,43,43,43,3206.534448355378,3208.5359981496003,left,1,0.5495247640064918,2,1.47,H25N04,2022-10-20_10h44.59.930,t1_Paradigm,2021.1.4,60.002117357428375,
Q,right,Target,0,44,44,44,3210.0344130671583,3212.0345763553632,right,1,0.6830399706377648,2,1.47,H25N04,2022-10-20_10h44.59.930,t1_Paradigm,2021.1.4,60.002117357428375,
W,left,Distractor,0,45,45,45,3213.534419483156,3215.5341416687006,left,1,0.5594481308362447,2,1.47,H25N04,2022-10-20_10h44.59.930,t1_Paradigm,2021.1.4,60.002117357428375,
X,left,Distractor,0,46,46,46,3217.034669387911,3219.034052806557,left,1,0.4353847121237777,2,1.47,H25N04,2022-10-20_10h44.59.930,t1_Paradigm,2021.1.4,60.002117357428375,
R,left,Distractor,0,47,47,47,3220.5343771373155,3222.534578921739,left,1,0.35903160157613456,2,1.47,H25N04,2022-10-20_10h44.59.930,t1_Paradigm,2021.1.4,60.002117357428375,
P,left,Pretarget,0,48,48,48,3224.034560636035,3226.0340990020195,left,1,0.6673681535758078,2,1.47,H25N04,2022-10-20_10h44.59.930,t1_Paradigm,2021.1.4,60.002117357428375,
Z,left,Pretarget,0,49,49,49,3227.5343418490957,3229.535005909158,left,1,0.9426223249756731,2,1.47,H25N04,2022-10-20_10h44.59.930,t1_Paradigm,2021.1.4,60.002117357428375,
V,left,Distractor,0,50,50,50,3231.0342918040114,3233.0358682248043,None,0,,2,1.47,H25N04,2022-10-20_10h44.59.930,t1_Paradigm,2021.1.4,60.002117357428375,
P,right,Target,0,51,51,51,3234.534406971885,3236.536053006712,right,1,0.8375282465713099,2,1.47,H25N04,2022-10-20_10h44.59.930,t1_Paradigm,2021.1.4,60.002117357428375,
Z,right,Target,0,52,52,52,3238.03442204959,3240.034675803967,left,0,0.5708632267196663,2,1.47,H25N04,2022-10-20_10h44.59.930,t1_Paradigm,2021.1.4,60.002117357428375,
H,left,Distractor,0,53,53,53,3241.5344695282984,3243.5358749616425,left,1,0.6856336544733495,2,1.47,H25N04,2022-10-20_10h44.59.930,t1_Paradigm,2021.1.4,60.002117357428375,
L,left,Distractor,0,54,54,54,3245.034380666155,3247.03490742296,left,1,0.8345890590571798,2,1.47,H25N04,2022-10-20_10h44.59.930,t1_Paradigm,2021.1.4,60.002117357428375,
Z,right,Target,0,55,55,55,3248.5343745709397,3250.5360344002256,right,1,1.1576581200934015,2,1.47,H25N04,2022-10-20_10h44.59.930,t1_Paradigm,2021.1.4,60.002117357428375,
Z,left,Lure,0,56,56,56,3252.0346940896707,3254.0343110521208,left,1,1.083129089383874,2,1.47,H25N04,2022-10-20_10h44.59.930,t1_Paradigm,2021.1.4,60.002117357428375,
B,left,Distractor,0,57,57,57,3255.5343437739066,3257.5345458791708,left,1,0.6550028423080221,2,1.47,H25N04,2022-10-20_10h44.59.930,t1_Paradigm,2021.1.4,60.002117357428375,
J,left,Distractor,0,58,58,58,3259.034353077179,3261.0342943704454,left,1,0.62730127281975,2,1.47,H25N04,2022-10-20_10h44.59.930,t1_Paradigm,2021.1.4,60.002117357428375,
X,left,Pretarget,0,59,59,59,3262.5342433628975,3264.534824976872,left,1,0.7748669634456746,2,1.47,H25N04,2022-10-20_10h44.59.930,t1_Paradigm,2021.1.4,60.002117357428375,
R,left,Distractor,0,60,60,60,3266.0344085759134,3268.0346552726114,left,1,0.6990053214831278,2,1.47,H25N04,2022-10-20_10h44.59.930,t1_Paradigm,2021.1.4,60.002117357428375,
F,left,Distractor,0,61,61,61,3269.534687031992,3271.5345923954155,left,1,0.8311025834991597,2,1.47,H25N04,2022-10-20_10h44.59.930,t1_Paradigm,2021.1.4,60.002117357428375,
X,right,Target,0,62,62,62,3273.034311693744,3275.0340492777177,right,1,0.6755543778417632,2,1.47,H25N04,2022-10-20_10h44.59.930,t1_Paradigm,2021.1.4,60.002117357428375,
T,left,Distractor,0,63,63,63,3276.5343193929875,3278.5342671022518,left,1,0.9994793384103104,2,1.47,H25N04,2022-10-20_10h44.59.930,t1_Paradigm,2021.1.4,60.002117357428375,
