Letter,CorrAnswer,Stimulus,nback_run.thisRepN,nback_run.thisTrialN,nback_run.thisN,nback_run.thisIndex,fixcross.started,nback_trial.started,trial_resp.keys,trial_resp.corr,currentlevel,trial_resp.rt,Participant,date,expName,psychopyVersion,frameRate,
H,left,Distractor,0,0,0,0,227.37197146913968,229.32046222424833,None,0,1,,H25N04,2022-10-20_10h44.59.930,t1_Paradigm,2021.1.4,60.002117357428375,
Q,left,Pretarget,0,1,1,1,230.81864744762424,232.81998904136708,left,1,1,0.5380961943883449,H25N04,2022-10-20_10h44.59.930,t1_Paradigm,2021.1.4,60.002117357428375,
Q,right,Target,0,2,2,2,234.3185293924762,236.3190548660932,right,1,1,1.15092544950312,H25N04,2022-10-20_10h44.59.930,t1_Paradigm,2021.1.4,60.002117357428375,
T,left,Distractor,0,3,3,3,237.81871481600683,239.8202960488852,left,1,1,0.6096760926884599,H25N04,2022-10-20_10h44.59.930,t1_Paradigm,2021.1.4,60.002117357428375,
Q,left,Lure,0,4,4,4,241.31900129216956,243.32033229945228,right,0,1,0.6298635179991834,H25N04,2022-10-20_10h44.59.930,t1_Paradigm,2021.1.4,60.002117357428375,
L,left,Distractor,0,5,5,5,244.81893777340883,246.81861344259232,left,1,1,1.4034758250345476,H25N04,2022-10-20_10h44.59.930,t1_Paradigm,2021.1.4,60.002117357428375,
V,left,Pretarget,0,6,6,6,248.31863846519263,250.31996337726014,left,1,1,1.0540888133691624,H25N04,2022-10-20_10h44.59.930,t1_Paradigm,2021.1.4,60.002117357428375,
V,right,Target,0,7,7,7,251.8188611016958,253.81892814935418,right,1,1,0.5312624711659737,H25N04,2022-10-20_10h44.59.930,t1_Paradigm,2021.1.4,60.002117357428375,
K,left,Distractor,0,8,8,8,255.31869909673696,257.31971411412815,left,1,1,0.6943033272400498,H25N04,2022-10-20_10h44.59.930,t1_Paradigm,2021.1.4,60.002117357428375,
G,left,Pretarget,0,9,9,9,258.81848063057987,260.8194494525087,left,1,1,0.6185844421270303,H25N04,2022-10-20_10h44.59.930,t1_Paradigm,2021.1.4,60.002117357428375,
G,right,Target,0,10,10,10,262.31847998901503,264.318813943828,right,1,1,0.671163561521098,H25N04,2022-10-20_10h44.59.930,t1_Paradigm,2021.1.4,60.002117357428375,
G,right,Target,0,11,11,11,265.81830418953905,267.8189737031935,right,1,1,0.7710824628011324,H25N04,2022-10-20_10h44.59.930,t1_Paradigm,2021.1.4,60.002117357428375,
P,left,Pretarget,0,12,12,12,269.3188973523211,271.319162976346,left,1,1,0.6790732544614002,H25N04,2022-10-20_10h44.59.930,t1_Paradigm,2021.1.4,60.002117357428375,
P,right,Target,0,13,13,13,272.81857687118463,274.8189781944384,right,1,1,0.6829953791457228,H25N04,2022-10-20_10h44.59.930,t1_Paradigm,2021.1.4,60.002117357428375,
G,left,Lure,0,14,14,14,276.3186365403817,278.3185935529182,left,1,1,0.6394702533725649,H25N04,2022-10-20_10h44.59.930,t1_Paradigm,2021.1.4,60.002117357428375,
Y,left,Distractor,0,15,15,15,279.81866958294995,281.83155170618556,left,1,1,0.8546192914946005,H25N04,2022-10-20_10h44.59.930,t1_Paradigm,2021.1.4,60.002117357428375,
B,left,Distractor,0,16,16,16,283.3190295227687,285.32018088095356,right,0,1,1.0140360478544608,H25N04,2022-10-20_10h44.59.930,t1_Paradigm,2021.1.4,60.002117357428375,
T,left,Pretarget,0,17,17,17,286.818989743304,288.81891724205343,left,1,1,0.875230175384786,H25N04,2022-10-20_10h44.59.930,t1_Paradigm,2021.1.4,60.002117357428375,
T,right,Target,0,18,18,18,290.31865354283946,292.31891627964796,right,1,1,0.5751100030029193,H25N04,2022-10-20_10h44.59.930,t1_Paradigm,2021.1.4,60.002117357428375,
S,left,Distractor,0,19,19,19,293.8185576230753,295.82064604380867,left,1,1,0.8013757912558503,H25N04,2022-10-20_10h44.59.930,t1_Paradigm,2021.1.4,60.002117357428375,
T,left,Lure,0,20,20,20,297.31856692634756,299.3190705854213,left,1,1,1.0949647566885687,H25N04,2022-10-20_10h44.59.930,t1_Paradigm,2021.1.4,60.002117357428375,
J,left,Distractor,0,21,21,21,300.81880752777215,302.81953927705763,left,1,1,0.8267980628297664,H25N04,2022-10-20_10h44.59.930,t1_Paradigm,2021.1.4,60.002117357428375,
P,left,Distractor,0,22,22,22,304.3187029463588,306.31883992877556,left,1,1,0.6391882683965378,H25N04,2022-10-20_10h44.59.930,t1_Paradigm,2021.1.4,60.002117357428375,
F,left,Distractor,0,23,23,23,307.81890408915933,309.8202944448567,left,1,1,0.6738582979305647,H25N04,2022-10-20_10h44.59.930,t1_Paradigm,2021.1.4,60.002117357428375,
L,left,Distractor,0,24,24,24,311.3184600992827,313.3199527907418,left,1,1,0.758114043797832,H25N04,2022-10-20_10h44.59.930,t1_Paradigm,2021.1.4,60.002117357428375,
W,left,Pretarget,0,25,25,25,314.8183420441346,316.8204192367848,left,1,1,0.6335764797986485,H25N04,2022-10-20_10h44.59.930,t1_Paradigm,2021.1.4,60.002117357428375,
W,right,Target,0,26,26,26,318.3186808110331,320.3186089514056,right,1,1,0.6234433085191995,H25N04,2022-10-20_10h44.59.930,t1_Paradigm,2021.1.4,60.002117357428375,
V,left,Distractor,0,27,27,27,321.8185409414,323.81931824452477,left,1,1,0.4987405315041542,H25N04,2022-10-20_10h44.59.930,t1_Paradigm,2021.1.4,60.002117357428375,
W,left,Lure,0,28,28,28,325.318479347392,327.31852137245005,left,1,1,0.5199112148839049,H25N04,2022-10-20_10h44.59.930,t1_Paradigm,2021.1.4,60.002117357428375,
R,left,Pretarget,0,29,29,29,328.8183917684364,330.8202652518521,left,1,1,0.5377692971960641,H25N04,2022-10-20_10h44.59.930,t1_Paradigm,2021.1.4,60.002117357428375,
R,right,Target,0,30,30,30,332.3190073873848,334.3188039989909,right,1,1,0.623218426364474,H25N04,2022-10-20_10h44.59.930,t1_Paradigm,2021.1.4,60.002117357428375,
G,left,Distractor,0,31,31,31,335.8185297133168,337.8188107358292,left,1,1,0.4511434664600529,H25N04,2022-10-20_10h44.59.930,t1_Paradigm,2021.1.4,60.002117357428375,
R,left,Lure,0,32,32,32,339.31856981356395,341.319016690657,left,1,1,0.7751101313042454,H25N04,2022-10-20_10h44.59.930,t1_Paradigm,2021.1.4,60.002117357428375,
S,left,Distractor,0,33,33,33,342.8187523498782,344.8187128911959,left,1,1,0.9393456538091414,H25N04,2022-10-20_10h44.59.930,t1_Paradigm,2021.1.4,60.002117357428375,
R,left,Lure,0,34,34,34,346.3185999689158,348.31881201901706,left,1,1,0.7671250498970039,H25N04,2022-10-20_10h44.59.930,t1_Paradigm,2021.1.4,60.002117357428375,
P,left,Pretarget,0,35,35,35,349.81854511180427,351.8189201292698,left,1,1,0.5632486715912819,H25N04,2022-10-20_10h44.59.930,t1_Paradigm,2021.1.4,60.002117357428375,
P,right,Target,0,36,36,36,353.3188688009395,355.31863589875866,right,1,1,1.0635499046184123,H25N04,2022-10-20_10h44.59.930,t1_Paradigm,2021.1.4,60.002117357428375,
Y,left,Pretarget,0,37,37,37,356.8186073473771,358.8191719588358,left,1,1,1.018847114755772,H25N04,2022-10-20_10h44.59.930,t1_Paradigm,2021.1.4,60.002117357428375,
Y,right,Target,0,38,38,38,360.3188790666172,362.31899070570944,right,1,1,0.6230121506960131,H25N04,2022-10-20_10h44.59.930,t1_Paradigm,2021.1.4,60.002117357428375,
J,left,Distractor,0,39,39,39,363.8185826456174,365.8190503748483,left,1,1,0.9471344045014121,H25N04,2022-10-20_10h44.59.930,t1_Paradigm,2021.1.4,60.002117357428375,
Y,left,Lure,0,40,40,40,367.3188739338075,369.3184190366301,right,0,1,0.9195505692623556,H25N04,2022-10-20_10h44.59.930,t1_Paradigm,2021.1.4,60.002117357428375,
T,left,Distractor,0,41,41,41,370.8186378235696,372.81911678088363,left,1,1,0.9069815487600863,H25N04,2022-10-20_10h44.59.930,t1_Paradigm,2021.1.4,60.002117357428375,
V,left,Distractor,0,42,42,42,374.31855922710383,376.31894707662286,left,1,1,0.7190538395079784,H25N04,2022-10-20_10h44.59.930,t1_Paradigm,2021.1.4,60.002117357428375,
N,left,Pretarget,0,43,43,43,377.8188758586184,379.8202623646357,left,1,1,0.7697553051402792,H25N04,2022-10-20_10h44.59.930,t1_Paradigm,2021.1.4,60.002117357428375,
N,right,Target,0,44,44,44,381.3186339739477,383.31895124708535,right,1,1,0.6949404398910701,H25N04,2022-10-20_10h44.59.930,t1_Paradigm,2021.1.4,60.002117357428375,
N,right,Target,0,45,45,45,384.8186259538634,386.81859483610606,right,1,1,0.715491654642392,H25N04,2022-10-20_10h44.59.930,t1_Paradigm,2021.1.4,60.002117357428375,
X,left,Distractor,0,46,46,46,388.3185675679124,390.32037432451034,left,1,1,0.5574954093317501,H25N04,2022-10-20_10h44.59.930,t1_Paradigm,2021.1.4,60.002117357428375,
Z,left,Distractor,0,47,47,47,391.81896022951696,393.8203002192895,left,1,1,1.1218425067490898,H25N04,2022-10-20_10h44.59.930,t1_Paradigm,2021.1.4,60.002117357428375,
H,left,Pretarget,0,48,48,48,395.31873823457863,397.31886751775164,left,1,1,0.7912086149444804,H25N04,2022-10-20_10h44.59.930,t1_Paradigm,2021.1.4,60.002117357428375,
H,right,Target,0,49,49,49,398.8186426355969,400.81859323207755,right,1,1,0.6358301135478541,H25N04,2022-10-20_10h44.59.930,t1_Paradigm,2021.1.4,60.002117357428375,
K,left,Distractor,0,50,50,50,402.3183750867611,404.318913713214,left,1,1,0.5750172912376001,H25N04,2022-10-20_10h44.59.930,t1_Paradigm,2021.1.4,60.002117357428375,
V,left,Pretarget,0,51,51,51,405.8189650415443,407.8196169111179,right,0,1,0.6103183381492272,H25N04,2022-10-20_10h44.59.930,t1_Paradigm,2021.1.4,60.002117357428375,
V,right,Target,0,52,52,52,409.3187391969841,411.31857590877917,right,1,1,0.7754822616116144,H25N04,2022-10-20_10h44.59.930,t1_Paradigm,2021.1.4,60.002117357428375,
R,left,Distractor,0,53,53,53,412.818552811048,414.82020141230896,left,1,1,0.6658728956826963,H25N04,2022-10-20_10h44.59.930,t1_Paradigm,2021.1.4,60.002117357428375,
V,left,Lure,0,54,54,54,416.3189653623267,418.31876069068676,left,1,1,1.0392905400367454,H25N04,2022-10-20_10h44.59.930,t1_Paradigm,2021.1.4,60.002117357428375,
Y,left,Distractor,0,55,55,55,419.81838663562667,421.81903208914446,left,1,1,0.6271822552662343,H25N04,2022-10-20_10h44.59.930,t1_Paradigm,2021.1.4,60.002117357428375,
Q,left,Distractor,0,56,56,56,423.31838631484425,425.31894515181193,left,1,1,0.5829744628863409,H25N04,2022-10-20_10h44.59.930,t1_Paradigm,2021.1.4,60.002117357428375,
Z,left,Pretarget,0,57,57,57,426.81861953786574,428.8188829162391,left,1,1,0.7312776771723293,H25N04,2022-10-20_10h44.59.930,t1_Paradigm,2021.1.4,60.002117357428375,
Z,right,Target,0,58,58,58,430.31850372836925,432.31863718194654,right,1,1,0.5276386922923848,H25N04,2022-10-20_10h44.59.930,t1_Paradigm,2021.1.4,60.002117357428375,
B,left,Distractor,0,59,59,59,433.818611196999,435.81874112179503,left,1,1,0.7874712721677497,H25N04,2022-10-20_10h44.59.930,t1_Paradigm,2021.1.4,60.002117357428375,
S,left,Pretarget,0,60,60,60,437.31904812925495,439.3190006505465,left,1,1,0.5829311546403915,H25N04,2022-10-20_10h44.59.930,t1_Paradigm,2021.1.4,60.002117357428375,
S,right,Target,0,61,61,61,440.8185573022929,442.81892911175964,right,1,1,0.6830043616355397,H25N04,2022-10-20_10h44.59.930,t1_Paradigm,2021.1.4,60.002117357428375,
T,left,Distractor,0,62,62,62,444.3184430967667,446.31856371829053,left,1,1,0.9595250590937212,H25N04,2022-10-20_10h44.59.930,t1_Paradigm,2021.1.4,60.002117357428375,
D,left,Distractor,0,63,63,63,447.81868433987256,449.83138264354784,left,1,1,0.6786953497794457,H25N04,2022-10-20_10h44.59.930,t1_Paradigm,2021.1.4,60.002117357428375,
R,left,Distractor,0,0,0,0,461.81540766870603,463.81950719683664,None,0,1,,H25N04,2022-10-20_10h44.59.930,t1_Paradigm,2021.1.4,60.002117357428375,
V,left,Distractor,0,1,1,1,465.3184841594193,467.3192688410054,left,1,1,0.838772316579707,H25N04,2022-10-20_10h44.59.930,t1_Paradigm,2021.1.4,60.002117357428375,
N,left,Pretarget,0,2,2,2,468.8184931418509,470.81857719196705,left,1,1,0.9394646713626571,H25N04,2022-10-20_10h44.59.930,t1_Paradigm,2021.1.4,60.002117357428375,
N,right,Target,0,3,3,3,472.3184809514205,474.3188742545899,right,1,1,0.8791949666920118,H25N04,2022-10-20_10h44.59.930,t1_Paradigm,2021.1.4,60.002117357428375,
S,left,Distractor,0,4,4,4,475.8189477182459,477.81873406417435,left,1,1,0.6593047964852303,H25N04,2022-10-20_10h44.59.930,t1_Paradigm,2021.1.4,60.002117357428375,
N,left,Lure,0,5,5,5,479.3185133524239,481.31842160306405,left,1,1,1.3674658057279885,H25N04,2022-10-20_10h44.59.930,t1_Paradigm,2021.1.4,60.002117357428375,
Z,left,Distractor,0,6,6,6,482.81851527723484,484.8192309863516,left,1,1,0.7309982586884871,H25N04,2022-10-20_10h44.59.930,t1_Paradigm,2021.1.4,60.002117357428375,
L,left,Pretarget,0,7,7,7,486.3185085403966,488.3187375929556,left,1,1,0.4314645122503862,H25N04,2022-10-20_10h44.59.930,t1_Paradigm,2021.1.4,60.002117357428375,
L,right,Target,0,8,8,8,489.81874465063447,491.8189846104942,right,1,1,0.9311786777107045,H25N04,2022-10-20_10h44.59.930,t1_Paradigm,2021.1.4,60.002117357428375,
H,left,Distractor,0,9,9,9,493.3184783849865,495.3184982747189,left,1,1,0.695575948629994,H25N04,2022-10-20_10h44.59.930,t1_Paradigm,2021.1.4,60.002117357428375,
L,left,Lure,0,10,10,10,496.8190266355523,498.8186083097826,left,1,1,0.8276343935285695,H25N04,2022-10-20_10h44.59.930,t1_Paradigm,2021.1.4,60.002117357428375,
X,left,Pretarget,0,11,11,11,500.3185957985115,502.3195832269266,left,1,1,0.8465309118037112,H25N04,2022-10-20_10h44.59.930,t1_Paradigm,2021.1.4,60.002117357428375,
X,right,Target,0,12,12,12,503.8184812722029,505.818511427613,right,1,1,0.7395582172321156,H25N04,2022-10-20_10h44.59.930,t1_Paradigm,2021.1.4,60.002117357428375,
X,right,Target,0,13,13,13,507.3187039087643,509.3185483198031,right,1,1,0.8714283514418639,H25N04,2022-10-20_10h44.59.930,t1_Paradigm,2021.1.4,60.002117357428375,
R,left,Distractor,0,14,14,14,510.8187497834442,512.8186904350878,left,1,1,0.6352263643057086,H25N04,2022-10-20_10h44.59.930,t1_Paradigm,2021.1.4,60.002117357428375,
T,left,Distractor,0,15,15,15,514.318403958925,516.3189316781354,left,1,1,0.7350249647861347,H25N04,2022-10-20_10h44.59.930,t1_Paradigm,2021.1.4,60.002117357428375,
V,left,Pretarget,0,16,16,16,517.8185274676653,519.8184857634478,left,1,1,0.6436025032890029,H25N04,2022-10-20_10h44.59.930,t1_Paradigm,2021.1.4,60.002117357428375,
V,right,Target,0,17,17,17,521.3186038185377,523.3185245804489,right,1,1,0.6635781993390992,H25N04,2022-10-20_10h44.59.930,t1_Paradigm,2021.1.4,60.002117357428375,
N,left,Distractor,0,18,18,18,524.8189140340546,526.8195492218947,left,1,1,0.762610083213076,H25N04,2022-10-20_10h44.59.930,t1_Paradigm,2021.1.4,60.002117357428375,
B,left,Distractor,0,19,19,19,528.3185990065103,530.318623066647,left,1,1,0.7672973205335438,H25N04,2022-10-20_10h44.59.930,t1_Paradigm,2021.1.4,60.002117357428375,
V,left,Lure,0,20,20,20,531.81846491131,533.8185162396403,left,1,1,1.0595764515455812,H25N04,2022-10-20_10h44.59.930,t1_Paradigm,2021.1.4,60.002117357428375,
P,left,Distractor,0,21,21,21,535.3186227458646,537.3182547860197,left,1,1,0.6478643572190776,H25N04,2022-10-20_10h44.59.930,t1_Paradigm,2021.1.4,60.002117357428375,
K,left,Pretarget,0,22,22,22,538.8183423649753,540.8188303047209,left,1,1,0.6191445623408072,H25N04,2022-10-20_10h44.59.930,t1_Paradigm,2021.1.4,60.002117357428375,
K,right,Target,0,23,23,23,542.3186955678975,544.3183571218397,right,1,1,0.8798397787031718,H25N04,2022-10-20_10h44.59.930,t1_Paradigm,2021.1.4,60.002117357428375,
J,left,Pretarget,0,24,24,24,545.8185467158328,547.8188765002415,left,1,1,0.4669984614592977,H25N04,2022-10-20_10h44.59.930,t1_Paradigm,2021.1.4,60.002117357428375,
J,right,Target,0,25,25,25,549.3183638586779,551.3185707759694,right,1,1,1.0475309798493981,H25N04,2022-10-20_10h44.59.930,t1_Paradigm,2021.1.4,60.002117357428375,
H,left,Distractor,0,26,26,26,552.8186913974932,554.8188110566116,left,1,1,0.7632722184062004,H25N04,2022-10-20_10h44.59.930,t1_Paradigm,2021.1.4,60.002117357428375,
J,left,Lure,0,27,27,27,556.318346856162,558.3202306052553,left,1,1,0.7336788798565976,H25N04,2022-10-20_10h44.59.930,t1_Paradigm,2021.1.4,60.002117357428375,
V,left,Distractor,0,28,28,28,559.8184222446289,561.8189493222744,left,1,1,1.0910978098982014,H25N04,2022-10-20_10h44.59.930,t1_Paradigm,2021.1.4,60.002117357428375,
Z,left,Pretarget,0,29,29,29,563.3185249012895,565.3184052421711,left,1,1,0.8236381636234,H25N04,2022-10-20_10h44.59.930,t1_Paradigm,2021.1.4,60.002117357428375,
Z,right,Target,0,30,30,30,566.8187504250673,568.8186044601607,right,1,1,0.7315202034660615,H25N04,2022-10-20_10h44.59.930,t1_Paradigm,2021.1.4,60.002117357428375,
T,left,Distractor,0,31,31,31,570.3182862246176,572.3192887307378,left,1,1,0.9747583398711868,H25N04,2022-10-20_10h44.59.930,t1_Paradigm,2021.1.4,60.002117357428375,
Z,left,Lure,0,32,32,32,573.8182968110777,575.8193259437685,left,1,1,1.0907481358153746,H25N04,2022-10-20_10h44.59.930,t1_Paradigm,2021.1.4,60.002117357428375,
F,left,Distractor,0,33,33,33,577.3184966706904,579.3184488711995,left,1,1,0.87152138404781,H25N04,2022-10-20_10h44.59.930,t1_Paradigm,2021.1.4,60.002117357428375,
Y,left,Pretarget,0,34,34,34,580.8185887408908,582.818872971402,left,1,1,0.7151573789888062,H25N04,2022-10-20_10h44.59.930,t1_Paradigm,2021.1.4,60.002117357428375,
Y,right,Target,0,35,35,35,584.3184001093032,586.3184886506642,right,1,1,1.2797694588662125,H25N04,2022-10-20_10h44.59.930,t1_Paradigm,2021.1.4,60.002117357428375,
Y,right,Target,0,36,36,36,587.8187366305501,589.8183949764934,right,1,1,1.2195289472001605,H25N04,2022-10-20_10h44.59.930,t1_Paradigm,2021.1.4,60.002117357428375,
W,left,Distractor,0,37,37,37,591.3188136230456,593.3209168006433,left,1,1,0.7891933370847255,H25N04,2022-10-20_10h44.59.930,t1_Paradigm,2021.1.4,60.002117357428375,
Q,left,Distractor,0,38,38,38,594.8186734325718,596.8184568912839,left,1,1,0.9715275434427895,H25N04,2022-10-20_10h44.59.930,t1_Paradigm,2021.1.4,60.002117357428375,
P,left,Pretarget,0,39,39,39,598.3188149062335,600.318785071664,left,1,1,1.0073251918074675,H25N04,2022-10-20_10h44.59.930,t1_Paradigm,2021.1.4,60.002117357428375,
P,right,Target,0,40,40,40,601.8184985955013,603.8184896130697,None,0,1,,H25N04,2022-10-20_10h44.59.930,t1_Paradigm,2021.1.4,60.002117357428375,
J,left,Distractor,0,41,41,41,605.3189259037026,607.3181745855254,left,1,1,1.064049072447233,H25N04,2022-10-20_10h44.59.930,t1_Paradigm,2021.1.4,60.002117357428375,
P,left,Lure,0,42,42,42,608.8189364901627,610.8186153674033,left,1,1,0.9874037113040686,H25N04,2022-10-20_10h44.59.930,t1_Paradigm,2021.1.4,60.002117357428375,
L,left,Distractor,0,43,43,43,612.3186737533542,614.3195450514904,left,1,1,1.1023958131554537,H25N04,2022-10-20_10h44.59.930,t1_Paradigm,2021.1.4,60.002117357428375,
Z,left,Distractor,0,44,44,44,615.8184424551437,617.8183045103215,left,1,1,0.8036137056769803,H25N04,2022-10-20_10h44.59.930,t1_Paradigm,2021.1.4,60.002117357428375,
F,left,Pretarget,0,45,45,45,619.318621141836,621.31935449515,left,1,1,0.7746128882863559,H25N04,2022-10-20_10h44.59.930,t1_Paradigm,2021.1.4,60.002117357428375,
F,right,Target,0,46,46,46,622.8183869564091,624.8187783348258,right,1,1,1.323271486966405,H25N04,2022-10-20_10h44.59.930,t1_Paradigm,2021.1.4,60.002117357428375,
G,left,Pretarget,0,47,47,47,626.3184815929853,628.3183766907896,left,1,1,1.039633477339521,H25N04,2022-10-20_10h44.59.930,t1_Paradigm,2021.1.4,60.002117357428375,
G,right,Target,0,48,48,48,629.8183843900333,631.8188845202676,right,1,1,0.8030320917023346,H25N04,2022-10-20_10h44.59.930,t1_Paradigm,2021.1.4,60.002117357428375,
V,left,Distractor,0,49,49,49,633.3184270566562,635.3196990364231,left,1,1,0.9824197321431711,H25N04,2022-10-20_10h44.59.930,t1_Paradigm,2021.1.4,60.002117357428375,
G,left,Lure,0,50,50,50,636.8186743949773,638.8181967208511,left,1,1,1.211782542464789,H25N04,2022-10-20_10h44.59.930,t1_Paradigm,2021.1.4,60.002117357428375,
Q,left,Pretarget,0,51,51,51,640.3187061543576,642.318714174442,left,1,1,1.3276032757712528,H25N04,2022-10-20_10h44.59.930,t1_Paradigm,2021.1.4,60.002117357428375,
Q,right,Target,0,52,52,52,643.8182881494286,645.8186962095206,right,1,1,0.7872755829594098,H25N04,2022-10-20_10h44.59.930,t1_Paradigm,2021.1.4,60.002117357428375,
Y,left,Distractor,0,53,53,53,647.3186910767108,649.318321192055,left,1,1,0.9355736644356512,H25N04,2022-10-20_10h44.59.930,t1_Paradigm,2021.1.4,60.002117357428375,
V,left,Distractor,0,54,54,54,650.8185739839682,652.8185893824557,left,1,1,1.1634947908460163,H25N04,2022-10-20_10h44.59.930,t1_Paradigm,2021.1.4,60.002117357428375,
B,left,Distractor,0,55,55,55,654.3184636281221,656.3182281594491,left,1,1,0.8001368540572003,H25N04,2022-10-20_10h44.59.930,t1_Paradigm,2021.1.4,60.002117357428375,
J,left,Pretarget,0,56,56,56,657.8186346155126,659.8186076681595,left,1,1,0.8834497630596161,H25N04,2022-10-20_10h44.59.930,t1_Paradigm,2021.1.4,60.002117357428375,
J,right,Target,0,57,57,57,661.3185909864842,663.318960229517,right,1,1,0.7108955251169391,H25N04,2022-10-20_10h44.59.930,t1_Paradigm,2021.1.4,60.002117357428375,
H,left,Distractor,0,58,58,58,664.8184636281221,666.8188870867016,left,1,1,0.731271902739536,H25N04,2022-10-20_10h44.59.930,t1_Paradigm,2021.1.4,60.002117357428375,
J,left,Lure,0,59,59,59,668.318555377482,670.3190474876319,left,1,1,0.7508539747796021,H25N04,2022-10-20_10h44.59.930,t1_Paradigm,2021.1.4,60.002117357428375,
D,left,Pretarget,0,60,60,60,671.8184883298236,673.8192200791091,left,1,1,0.8667090339004062,H25N04,2022-10-20_10h44.59.930,t1_Paradigm,2021.1.4,60.002117357428375,
D,right,Target,0,61,61,61,675.3187773724203,677.3184758185525,right,1,1,0.7755708029144444,H25N04,2022-10-20_10h44.59.930,t1_Paradigm,2021.1.4,60.002117357428375,
R,left,Distractor,0,62,62,62,678.8180969514651,680.8191940941615,left,1,1,0.6188401212566532,H25N04,2022-10-20_10h44.59.930,t1_Paradigm,2021.1.4,60.002117357428375,
F,left,Distractor,0,63,63,63,682.3184325103066,684.318279166997,left,1,1,1.119626727711875,H25N04,2022-10-20_10h44.59.930,t1_Paradigm,2021.1.4,60.002117357428375,
F,left,Distractor,0,0,0,0,844.3010989391478,846.3017819265369,None,0,2,,H25N04,2022-10-20_10h44.59.930,t1_Paradigm,2021.1.4,60.002117357428375,
N,left,Pretarget,0,1,1,1,847.8017421470722,849.8021376958932,left,1,2,0.5161555864033289,H25N04,2022-10-20_10h44.59.930,t1_Paradigm,2021.1.4,60.002117357428375,
V,left,Distractor,0,2,2,2,851.3017607535585,853.3014790894813,left,1,2,0.8084950282354839,H25N04,2022-10-20_10h44.59.930,t1_Paradigm,2021.1.4,60.002117357428375,
N,right,Target,0,3,3,3,854.8017646032386,856.8018191395677,right,1,2,0.5401717830100097,H25N04,2022-10-20_10h44.59.930,t1_Paradigm,2021.1.4,60.002117357428375,
N,left,Lure,0,4,4,4,858.3021232598112,860.3020369640435,right,0,2,1.0399103294475935,H25N04,2022-10-20_10h44.59.930,t1_Paradigm,2021.1.4,60.002117357428375,
X,left,Distractor,0,5,5,5,861.8017193701235,863.8016555305221,left,1,2,0.804208793269936,H25N04,2022-10-20_10h44.59.930,t1_Paradigm,2021.1.4,60.002117357428375,
G,left,Pretarget,0,6,6,6,865.3017402222613,867.3015223977272,left,1,2,0.7765591937350109,H25N04,2022-10-20_10h44.59.930,t1_Paradigm,2021.1.4,60.002117357428375,
H,left,Pretarget,0,7,7,7,868.8021758713294,870.8018014954287,left,1,2,0.6840960506233387,H25N04,2022-10-20_10h44.59.930,t1_Paradigm,2021.1.4,60.002117357428375,
G,right,Target,0,8,8,8,872.3018521821359,874.3009584278916,right,1,2,0.833049209730234,H25N04,2022-10-20_10h44.59.930,t1_Paradigm,2021.1.4,60.002117357428375,
H,right,Target,0,9,9,9,875.8016946683638,877.8015900869505,right,1,2,1.1244615339674056,H25N04,2022-10-20_10h44.59.930,t1_Paradigm,2021.1.4,60.002117357428375,
T,left,Pretarget,0,10,10,10,879.3021479615709,881.3021627184353,left,1,2,0.5357229015207849,H25N04,2022-10-20_10h44.59.930,t1_Paradigm,2021.1.4,60.002117357428375,
K,left,Distractor,0,11,11,11,882.8017382974504,884.8016603425494,left,1,2,0.7323639126261696,H25N04,2022-10-20_10h44.59.930,t1_Paradigm,2021.1.4,60.002117357428375,
T,right,Target,0,12,12,12,886.3018473701086,888.301615430275,right,1,2,0.7042841176153161,H25N04,2022-10-20_10h44.59.930,t1_Paradigm,2021.1.4,60.002117357428375,
T,left,Lure,0,13,13,13,889.8018582774093,891.8021591895958,left,1,2,0.9639033641433343,H25N04,2022-10-20_10h44.59.930,t1_Paradigm,2021.1.4,60.002117357428375,
J,left,Distractor,0,14,14,14,893.3018197811325,895.3020821971586,left,1,2,0.583917620650027,H25N04,2022-10-20_10h44.59.930,t1_Paradigm,2021.1.4,60.002117357428375,
Q,left,Pretarget,0,15,15,15,896.8018242723774,898.8020725731039,left,1,2,0.971884275204502,H25N04,2022-10-20_10h44.59.930,t1_Paradigm,2021.1.4,60.002117357428375,
M,left,Distractor,0,16,16,16,900.3018569941632,902.3037956003682,left,1,2,0.8942809994332492,H25N04,2022-10-20_10h44.59.930,t1_Paradigm,2021.1.4,60.002117357428375,
Q,right,Target,0,17,17,17,903.8017347686109,905.8018614854082,right,1,2,0.48405903013190255,H25N04,2022-10-20_10h44.59.930,t1_Paradigm,2021.1.4,60.002117357428375,
R,left,Distractor,0,18,18,18,907.3018162523513,909.301894207194,left,1,2,0.5679381545633078,H25N04,2022-10-20_10h44.59.930,t1_Paradigm,2021.1.4,60.002117357428375,
W,left,Distractor,0,19,19,19,910.8018361420254,912.8014752398594,left,1,2,0.732517255935818,H25N04,2022-10-20_10h44.59.930,t1_Paradigm,2021.1.4,60.002117357428375,
C,left,Pretarget,0,20,20,20,914.3017941169674,916.3147246813169,left,1,2,0.5472781879361719,H25N04,2022-10-20_10h44.59.930,t1_Paradigm,2021.1.4,60.002117357428375,
T,left,Distractor,0,21,21,21,917.80214603676,919.8019012648147,left,1,2,0.7240320442942902,H25N04,2022-10-20_10h44.59.930,t1_Paradigm,2021.1.4,60.002117357428375,
C,right,Target,0,22,22,22,921.3016022774391,923.3015429290826,right,1,2,0.7282890861970372,H25N04,2022-10-20_10h44.59.930,t1_Paradigm,2021.1.4,60.002117357428375,
F,left,Pretarget,0,23,23,23,924.8017841721303,926.8036913397373,left,1,2,0.6983354869880714,H25N04,2022-10-20_10h44.59.930,t1_Paradigm,2021.1.4,60.002117357428375,
C,right,Target,0,24,24,24,928.3017004427966,930.3017107084743,right,1,2,0.6080159426201135,H25N04,2022-10-20_10h44.59.930,t1_Paradigm,2021.1.4,60.002117357428375,
F,right,Target,0,25,25,25,931.8017966834013,933.8024681218667,right,1,2,0.49938117305282503,H25N04,2022-10-20_10h44.59.930,t1_Paradigm,2021.1.4,60.002117357428375,
H,left,Distractor,0,26,26,26,935.3016398112522,937.3022451645229,left,1,2,0.7276256677578203,H25N04,2022-10-20_10h44.59.930,t1_Paradigm,2021.1.4,60.002117357428375,
H,left,Lure,0,27,27,27,938.8018146483228,940.8015522322967,left,1,2,1.1805450938409194,H25N04,2022-10-20_10h44.59.930,t1_Paradigm,2021.1.4,60.002117357428375,
P,left,Distractor,0,28,28,28,942.3020876507508,944.3020908588078,None,0,2,,H25N04,2022-10-20_10h44.59.930,t1_Paradigm,2021.1.4,60.002117357428375,
G,left,Pretarget,0,29,29,29,945.8015063576167,947.8017062172294,left,1,2,0.9323200910585001,H25N04,2022-10-20_10h44.59.930,t1_Paradigm,2021.1.4,60.002117357428375,
K,left,Distractor,0,30,30,30,949.3018438412691,951.301745355071,left,1,2,0.6642862092703581,H25N04,2022-10-20_10h44.59.930,t1_Paradigm,2021.1.4,60.002117357428375,
G,right,Target,0,31,31,31,952.8018165731337,954.8016904979595,right,1,2,0.8603571552666835,H25N04,2022-10-20_10h44.59.930,t1_Paradigm,2021.1.4,60.002117357428375,
M,left,Pretarget,0,32,32,32,956.3019192297361,958.3038539863192,left,1,2,1.08601502381498,H25N04,2022-10-20_10h44.59.930,t1_Paradigm,2021.1.4,60.002117357428375,
B,left,Distractor,0,33,33,33,959.8015454954584,961.8027696757345,left,1,2,1.0758796068839729,H25N04,2022-10-20_10h44.59.930,t1_Paradigm,2021.1.4,60.002117357428375,
M,right,Target,0,34,34,34,963.3018983775983,965.3019628588227,right,1,2,0.6800651741214097,H25N04,2022-10-20_10h44.59.930,t1_Paradigm,2021.1.4,60.002117357428375,
M,left,Lure,0,35,35,35,966.8015201521339,968.8017434302601,left,1,2,1.0362150117289275,H25N04,2022-10-20_10h44.59.930,t1_Paradigm,2021.1.4,60.002117357428375,
T,left,Distractor,0,36,36,36,970.301657455333,972.3019291746314,left,1,2,0.9761881541926414,H25N04,2022-10-20_10h44.59.930,t1_Paradigm,2021.1.4,60.002117357428375,
F,left,Distractor,0,37,37,37,973.8017373350449,975.8017408638843,left,1,2,1.092238260898739,H25N04,2022-10-20_10h44.59.930,t1_Paradigm,2021.1.4,60.002117357428375,
X,left,Distractor,0,38,38,38,977.3016706082271,979.3019131345209,left,1,2,0.7443102565594018,H25N04,2022-10-20_10h44.59.930,t1_Paradigm,2021.1.4,60.002117357428375,
C,left,Distractor,0,39,39,39,980.802067440236,982.8023766933475,left,1,2,0.6835352888447233,H25N04,2022-10-20_10h44.59.930,t1_Paradigm,2021.1.4,60.002117357428375,
R,left,Distractor,0,40,40,40,984.3019744076882,986.301531380217,left,1,2,0.6563354536192492,H25N04,2022-10-20_10h44.59.930,t1_Paradigm,2021.1.4,60.002117357428375,
B,left,Pretarget,0,41,41,41,987.8018367836485,989.8015814253013,left,1,2,0.5644773430540226,H25N04,2022-10-20_10h44.59.930,t1_Paradigm,2021.1.4,60.002117357428375,
H,left,Distractor,0,42,42,42,991.3017947585904,993.3018226683489,left,1,2,0.98400128580397,H25N04,2022-10-20_10h44.59.930,t1_Paradigm,2021.1.4,60.002117357428375,
B,right,Target,0,43,43,43,994.8016969140153,996.8022156507359,left,0,2,0.8758281501941383,H25N04,2022-10-20_10h44.59.930,t1_Paradigm,2021.1.4,60.002117357428375,
W,left,Pretarget,0,44,44,44,998.3019031896256,1000.3018691846519,left,1,2,0.7680210497346707,H25N04,2022-10-20_10h44.59.930,t1_Paradigm,2021.1.4,60.002117357428375,
L,left,Pretarget,0,45,45,45,1001.8017835305072,1003.8026869088062,left,1,2,0.6592730371048674,H25N04,2022-10-20_10h44.59.930,t1_Paradigm,2021.1.4,60.002117357428375,
W,right,Target,0,46,46,46,1005.3015442122705,1007.302026698424,right,1,2,0.43991796451155096,H25N04,2022-10-20_10h44.59.930,t1_Paradigm,2021.1.4,60.002117357428375,
L,right,Target,0,47,47,47,1008.8014409140451,1010.8026997409179,right,1,2,1.2912763041676953,H25N04,2022-10-20_10h44.59.930,t1_Paradigm,2021.1.4,60.002117357428375,
W,right,Target,0,48,48,48,1012.3016407736577,1014.3015804628958,None,0,2,,H25N04,2022-10-20_10h44.59.930,t1_Paradigm,2021.1.4,60.002117357428375,
X,left,Distractor,0,49,49,49,1015.8016417360632,1017.8016327536316,left,1,2,0.7722315753344446,H25N04,2022-10-20_10h44.59.930,t1_Paradigm,2021.1.4,60.002117357428375,
R,left,Distractor,0,50,50,50,1019.301675099472,1021.3022326532518,left,1,2,1.2077731596655212,H25N04,2022-10-20_10h44.59.930,t1_Paradigm,2021.1.4,60.002117357428375,
V,left,Pretarget,0,51,51,51,1022.8017822473194,1024.8012141070794,left,1,2,0.7648232958745211,H25N04,2022-10-20_10h44.59.930,t1_Paradigm,2021.1.4,60.002117357428375,
Z,left,Distractor,0,52,52,52,1026.30192179617,1028.3017585079651,left,1,2,0.800058578432072,H25N04,2022-10-20_10h44.59.930,t1_Paradigm,2021.1.4,60.002117357428375,
V,right,Target,0,53,53,53,1029.8017588287476,1031.8018120818888,right,1,2,0.48402887472184375,H25N04,2022-10-20_10h44.59.930,t1_Paradigm,2021.1.4,60.002117357428375,
V,left,Lure,0,54,54,54,1033.301777435292,1035.3017517711269,left,1,2,0.9680606367182918,H25N04,2022-10-20_10h44.59.930,t1_Paradigm,2021.1.4,60.002117357428375,
N,left,Distractor,0,55,55,55,1036.8016417360632,1038.8014438012615,left,1,2,0.6524268026114441,H25N04,2022-10-20_10h44.59.930,t1_Paradigm,2021.1.4,60.002117357428375,
B,left,Distractor,0,56,56,56,1040.3016548889573,1042.3022387485253,left,1,2,0.5914558249060065,H25N04,2022-10-20_10h44.59.930,t1_Paradigm,2021.1.4,60.002117357428375,
V,left,Lure,0,57,57,57,1043.8017921921564,1045.802096954023,left,1,2,1.1558285865467042,H25N04,2022-10-20_10h44.59.930,t1_Paradigm,2021.1.4,60.002117357428375,
J,left,Distractor,0,58,58,58,1047.3016497560893,1049.3020212447736,left,1,2,1.287801377417054,H25N04,2022-10-20_10h44.59.930,t1_Paradigm,2021.1.4,60.002117357428375,
H,left,Distractor,0,59,59,59,1050.8016263375757,1052.8015939365723,left,1,2,0.9722711623762734,H25N04,2022-10-20_10h44.59.930,t1_Paradigm,2021.1.4,60.002117357428375,
X,left,Pretarget,0,60,60,60,1054.3021328838659,1056.3019516307395,left,1,2,0.6879883407382295,H25N04,2022-10-20_10h44.59.930,t1_Paradigm,2021.1.4,60.002117357428375,
P,left,Distractor,0,61,61,61,1057.8014713902376,1059.803512653045,left,1,2,0.7225053477450274,H25N04,2022-10-20_10h44.59.930,t1_Paradigm,2021.1.4,60.002117357428375,
X,right,Target,0,62,62,62,1061.3018393500824,1063.3023847133736,None,0,2,,H25N04,2022-10-20_10h44.59.930,t1_Paradigm,2021.1.4,60.002117357428375,
Q,left,Distractor,0,63,63,63,1064.8015644227853,1066.802988462674,left,1,2,0.7470900054904632,H25N04,2022-10-20_10h44.59.930,t1_Paradigm,2021.1.4,60.002117357428375,
B,left,Pretarget,0,0,0,0,1091.4667902609217,1093.4688119548373,left,1,2,1.0252115047187544,H25N04,2022-10-20_10h44.59.930,t1_Paradigm,2021.1.4,60.002117357428375,
F,left,Distractor,0,1,1,1,1094.9685960551724,1096.9681421204004,left,1,2,0.7897864998667501,H25N04,2022-10-20_10h44.59.930,t1_Paradigm,2021.1.4,60.002117357428375,
B,right,Target,0,2,2,2,1098.4682938596816,1100.468424746883,right,1,2,0.9854115311754867,H25N04,2022-10-20_10h44.59.930,t1_Paradigm,2021.1.4,60.002117357428375,
V,left,Distractor,0,3,3,3,1101.9684590726974,1103.9687545312918,left,1,2,0.7972817167174071,H25N04,2022-10-20_10h44.59.930,t1_Paradigm,2021.1.4,60.002117357428375,
G,left,Pretarget,0,4,4,4,1105.4683047669823,1107.4687109022634,left,1,2,1.4093112125410698,H25N04,2022-10-20_10h44.59.930,t1_Paradigm,2021.1.4,60.002117357428375,
B,left,Lure,0,5,5,5,1108.968737528834,1110.9681440452114,right,0,2,0.9177957825595513,H25N04,2022-10-20_10h44.59.930,t1_Paradigm,2021.1.4,60.002117357428375,
G,right,Target,0,6,6,6,1112.4681507820496,1114.4701243556337,left,0,2,1.1759986885590479,H25N04,2022-10-20_10h44.59.930,t1_Paradigm,2021.1.4,60.002117357428375,
Y,left,Pretarget,0,7,7,7,1115.9682938596816,1117.9683066917933,left,1,2,0.6215188176138327,H25N04,2022-10-20_10h44.59.930,t1_Paradigm,2021.1.4,60.002117357428375,
P,left,Distractor,0,8,8,8,1119.4682970677386,1121.4689165363088,left,1,2,0.673068804317154,H25N04,2022-10-20_10h44.59.930,t1_Paradigm,2021.1.4,60.002117357428375,
Y,right,Target,0,9,9,9,1122.968442391022,1124.987184603524,right,1,2,0.7547308664070442,H25N04,2022-10-20_10h44.59.930,t1_Paradigm,2021.1.4,60.002117357428375,
X,left,Distractor,0,10,10,10,1126.4681809374015,1128.4696267918334,left,1,2,0.3923533004708588,H25N04,2022-10-20_10h44.59.930,t1_Paradigm,2021.1.4,60.002117357428375,
Y,right,Target,0,11,11,11,1129.9683634737157,1131.9683917043149,left,0,2,0.8460070422734134,H25N04,2022-10-20_10h44.59.930,t1_Paradigm,2021.1.4,60.002117357428375,
N,left,Distractor,0,12,12,12,1133.4681847870233,1135.4686063207919,left,1,2,0.6253857643459924,H25N04,2022-10-20_10h44.59.930,t1_Paradigm,2021.1.4,60.002117357428375,
Y,right,Target,0,13,13,13,1136.968470621563,1138.968138591561,right,1,2,0.901653028326109,H25N04,2022-10-20_10h44.59.930,t1_Paradigm,2021.1.4,60.002117357428375,
Y,left,Lure,0,14,14,14,1140.468280386005,1142.4685687869787,left,1,2,1.0653505659429356,H25N04,2022-10-20_10h44.59.930,t1_Paradigm,2021.1.4,60.002117357428375,
K,left,Distractor,0,15,15,15,1143.9683920250973,1145.9696155637503,left,1,2,0.7001881182659417,H25N04,2022-10-20_10h44.59.930,t1_Paradigm,2021.1.4,60.002117357428375,
T,left,Pretarget,0,16,16,16,1147.468399724341,1149.4681138898013,left,1,2,0.5938644059933722,H25N04,2022-10-20_10h44.59.930,t1_Paradigm,2021.1.4,60.002117357428375,
J,left,Distractor,0,17,17,17,1150.9682996341144,1152.9684786416474,left,1,2,1.0135240479721688,H25N04,2022-10-20_10h44.59.930,t1_Paradigm,2021.1.4,60.002117357428375,
T,right,Target,0,18,18,18,1154.4684109524242,1156.4689531077165,right,1,2,0.4407315182616003,H25N04,2022-10-20_10h44.59.930,t1_Paradigm,2021.1.4,60.002117357428375,
S,left,Pretarget,0,19,19,19,1157.968211413594,1159.9681093985564,left,1,2,0.5738158879103139,H25N04,2022-10-20_10h44.59.930,t1_Paradigm,2021.1.4,60.002117357428375,
R,left,Distractor,0,20,20,20,1161.468375343422,1163.4681026617181,left,1,2,0.9617639359785244,H25N04,2022-10-20_10h44.59.930,t1_Paradigm,2021.1.4,60.002117357428375,
S,right,Target,0,21,21,21,1164.968404215586,1166.9680349725531,right,1,2,0.6139610443497077,H25N04,2022-10-20_10h44.59.930,t1_Paradigm,2021.1.4,60.002117357428375,
Q,left,Distractor,0,22,22,22,1168.4683086166042,1170.4698269722285,left,1,2,0.43982814002083614,H25N04,2022-10-20_10h44.59.930,t1_Paradigm,2021.1.4,60.002117357428375,
D,left,Distractor,0,23,23,23,1171.9683002757374,1173.9687202054774,left,1,2,0.7332368147326633,H25N04,2022-10-20_10h44.59.930,t1_Paradigm,2021.1.4,60.002117357428375,
F,left,Distractor,0,24,24,24,1175.4682123759994,1177.4680856592604,left,1,2,0.5139115767087787,H25N04,2022-10-20_10h44.59.930,t1_Paradigm,2021.1.4,60.002117357428375,
Z,left,Distractor,0,25,25,25,1178.9682085263776,1180.9687705714023,left,1,2,0.8050541064585559,H25N04,2022-10-20_10h44.59.930,t1_Paradigm,2021.1.4,60.002117357428375,
P,left,Distractor,0,26,26,26,1182.4682566466508,1184.4680917544756,left,1,2,0.7458138552610762,H25N04,2022-10-20_10h44.59.930,t1_Paradigm,2021.1.4,60.002117357428375,
H,left,Distractor,0,27,27,27,1185.9682316241087,1187.9688344110036,left,1,2,0.5890969681786373,H25N04,2022-10-20_10h44.59.930,t1_Paradigm,2021.1.4,60.002117357428375,
Z,left,Pretarget,0,28,28,28,1189.4681199850747,1191.4698054785258,left,1,2,0.7840008366620168,H25N04,2022-10-20_10h44.59.930,t1_Paradigm,2021.1.4,60.002117357428375,
J,left,Pretarget,0,29,29,29,1192.9682486266247,1194.9694532379508,left,1,2,0.6924616032047197,H25N04,2022-10-20_10h44.59.930,t1_Paradigm,2021.1.4,60.002117357428375,
Z,right,Target,0,30,30,30,1196.468195052701,1198.4690548019134,right,1,2,1.2249575579189695,H25N04,2022-10-20_10h44.59.930,t1_Paradigm,2021.1.4,60.002117357428375,
J,right,Target,0,31,31,31,1199.9683544912841,1201.9692594736116,left,0,2,0.9245752902934328,H25N04,2022-10-20_10h44.59.930,t1_Paradigm,2021.1.4,60.002117357428375,
V,left,Pretarget,0,32,32,32,1203.4683156742249,1205.4697868719813,left,1,2,0.6241866066702642,H25N04,2022-10-20_10h44.59.930,t1_Paradigm,2021.1.4,60.002117357428375,
Z,left,Lure,0,33,33,33,1206.968318882282,1208.9698346714722,left,1,2,1.0599652635282837,H25N04,2022-10-20_10h44.59.930,t1_Paradigm,2021.1.4,60.002117357428375,
V,right,Target,0,34,34,34,1210.4682951429277,1212.468183183053,right,1,2,1.161633497918956,H25N04,2022-10-20_10h44.59.930,t1_Paradigm,2021.1.4,60.002117357428375,
X,left,Distractor,0,35,35,35,1213.9684321253444,1215.9685960551724,left,1,2,1.1653179082786664,H25N04,2022-10-20_10h44.59.930,t1_Paradigm,2021.1.4,60.002117357428375,
S,left,Distractor,0,36,36,36,1217.4681934486725,1219.469638982322,left,1,2,1.0722176525741816,H25N04,2022-10-20_10h44.59.930,t1_Paradigm,2021.1.4,60.002117357428375,
Q,left,Distractor,0,37,37,37,1220.9683483960107,1222.9681754838093,left,1,2,1.1738047240069136,H25N04,2022-10-20_10h44.59.930,t1_Paradigm,2021.1.4,60.002117357428375,
P,left,Distractor,0,38,38,38,1224.4681937695132,1226.468617548875,left,1,2,0.6171119611826725,H25N04,2022-10-20_10h44.59.930,t1_Paradigm,2021.1.4,60.002117357428375,
S,left,Lure,0,39,39,39,1227.9682816692512,1229.9680032131146,left,1,2,1.0059309865464456,H25N04,2022-10-20_10h44.59.930,t1_Paradigm,2021.1.4,60.002117357428375,
K,left,Pretarget,0,40,40,40,1231.468380797014,1233.468663423555,left,1,2,0.6252670676331036,H25N04,2022-10-20_10h44.59.930,t1_Paradigm,2021.1.4,60.002117357428375,
L,left,Distractor,0,41,41,41,1234.968252797029,1236.9698491075542,left,1,2,0.7559592170873657,H25N04,2022-10-20_10h44.59.930,t1_Paradigm,2021.1.4,60.002117357428375,
K,right,Target,0,42,42,42,1238.4683711729595,1240.4699042855063,right,1,2,0.5040289517492056,H25N04,2022-10-20_10h44.59.930,t1_Paradigm,2021.1.4,60.002117357428375,
B,left,Distractor,0,43,43,43,1241.968603754416,1243.968504626595,left,1,2,0.9893060668837279,H25N04,2022-10-20_10h44.59.930,t1_Paradigm,2021.1.4,60.002117357428375,
N,left,Distractor,0,44,44,44,1245.4683111830382,1247.468697428587,left,1,2,1.1051960933837108,H25N04,2022-10-20_10h44.59.930,t1_Paradigm,2021.1.4,60.002117357428375,
S,left,Pretarget,0,45,45,45,1248.9682964261156,1250.9687359248055,left,1,2,0.8852314971154556,H25N04,2022-10-20_10h44.59.930,t1_Paradigm,2021.1.4,60.002117357428375,
Z,left,Distractor,0,46,46,46,1252.4682957844925,1254.4681777294027,left,1,2,0.7616524893674068,H25N04,2022-10-20_10h44.59.930,t1_Paradigm,2021.1.4,60.002117357428375,
S,right,Target,0,47,47,47,1255.9684472030494,1257.9684780000243,right,1,2,0.8453894984559156,H25N04,2022-10-20_10h44.59.930,t1_Paradigm,2021.1.4,60.002117357428375,
C,left,Distractor,0,48,48,48,1259.4680580702843,1261.468419293291,left,1,2,0.7534197488566861,H25N04,2022-10-20_10h44.59.930,t1_Paradigm,2021.1.4,60.002117357428375,
T,left,Pretarget,0,49,49,49,1262.968360265717,1264.968590601522,left,1,2,1.0933504812419415,H25N04,2022-10-20_10h44.59.930,t1_Paradigm,2021.1.4,60.002117357428375,
S,left,Lure,0,50,50,50,1266.4684661303763,1268.4685488972464,left,1,2,0.9372883508913219,H25N04,2022-10-20_10h44.59.930,t1_Paradigm,2021.1.4,60.002117357428375,
T,right,Target,0,51,51,51,1269.9683025213308,1271.9701269220677,right,1,2,0.7637255115550943,H25N04,2022-10-20_10h44.59.930,t1_Paradigm,2021.1.4,60.002117357428375,
N,left,Pretarget,0,52,52,52,1273.468254080275,1275.468578090251,left,1,2,0.6094046942307614,H25N04,2022-10-20_10h44.59.930,t1_Paradigm,2021.1.4,60.002117357428375,
B,left,Distractor,0,53,53,53,1276.9683474336052,1278.9682377193822,left,1,2,0.7736732593621127,H25N04,2022-10-20_10h44.59.930,t1_Paradigm,2021.1.4,60.002117357428375,
N,right,Target,0,54,54,54,1280.468606962415,1282.468793989974,right,1,2,1.0494561123778112,H25N04,2022-10-20_10h44.59.930,t1_Paradigm,2021.1.4,60.002117357428375,
N,left,Lure,0,55,55,55,1283.9683005965198,1285.9683474336052,left,1,2,1.0215492296265438,H25N04,2022-10-20_10h44.59.930,t1_Paradigm,2021.1.4,60.002117357428375,
X,left,Distractor,0,56,56,56,1287.4683336391463,1289.468695503776,left,1,2,1.1531011282932013,H25N04,2022-10-20_10h44.59.930,t1_Paradigm,2021.1.4,60.002117357428375,
W,left,Distractor,0,57,57,57,1290.9680064211716,1292.9681581604527,left,1,2,1.3176045204745606,H25N04,2022-10-20_10h44.59.930,t1_Paradigm,2021.1.4,60.002117357428375,
S,left,Distractor,0,58,58,58,1294.468170671782,1296.4686307017691,left,1,2,1.1133826384320855,H25N04,2022-10-20_10h44.59.930,t1_Paradigm,2021.1.4,60.002117357428375,
L,left,Distractor,0,59,59,59,1297.9682736491668,1299.968070260773,left,1,2,0.9897763625485823,H25N04,2022-10-20_10h44.59.930,t1_Paradigm,2021.1.4,60.002117357428375,
K,left,Pretarget,0,60,60,60,1301.4683496792568,1303.4686598947155,left,1,2,0.5933414988103323,H25N04,2022-10-20_10h44.59.930,t1_Paradigm,2021.1.4,60.002117357428375,
V,left,Pretarget,0,61,61,61,1304.968503984972,1306.9679592632456,left,1,2,0.6940697833779268,H25N04,2022-10-20_10h44.59.930,t1_Paradigm,2021.1.4,60.002117357428375,
K,right,Target,0,62,62,62,1308.4685286867316,1310.4689171778737,right,1,2,0.4247623177943751,H25N04,2022-10-20_10h44.59.930,t1_Paradigm,2021.1.4,60.002117357428375,
V,right,Target,0,63,63,63,1311.9682470225962,1313.9681164562353,left,0,2,0.41383484087418765,H25N04,2022-10-20_10h44.59.930,t1_Paradigm,2021.1.4,60.002117357428375,
R,left,Distractor,0,0,0,0,1575.3363749635755,1577.3353490389418,left,1,3,1.2864687660476193,H25N04,2022-10-20_10h44.59.930,t1_Paradigm,2021.1.4,60.002117357428375,
P,left,Lure,0,1,1,1,1578.834857249516,1580.8355790539063,left,1,3,0.6824410334229469,H25N04,2022-10-20_10h44.59.930,t1_Paradigm,2021.1.4,60.002117357428375,
V,left,Distractor,0,2,2,2,1582.3349034450366,1584.334642633039,left,1,3,0.8152925007743761,H25N04,2022-10-20_10h44.59.930,t1_Paradigm,2021.1.4,60.002117357428375,
P,left,Pretarget,0,3,3,3,1585.8348954249523,1587.8346240264946,right,0,3,0.8671100363135338,H25N04,2022-10-20_10h44.59.930,t1_Paradigm,2021.1.4,60.002117357428375,
Z,left,Distractor,0,4,4,4,1589.3347545929137,1591.3351286479738,left,1,3,0.7267954323324375,H25N04,2022-10-20_10h44.59.930,t1_Paradigm,2021.1.4,60.002117357428375,
L,left,Pretarget,0,5,5,5,1592.835267876042,1594.8349400164443,left,1,3,0.5228956353967078,H25N04,2022-10-20_10h44.59.930,t1_Paradigm,2021.1.4,60.002117357428375,
P,right,Target,0,6,6,6,1596.334933921171,1598.3346824124455,right,1,3,1.2312661283067428,H25N04,2022-10-20_10h44.59.930,t1_Paradigm,2021.1.4,60.002117357428375,
S,left,Distractor,0,7,7,7,1599.834935204417,1601.8344928185106,left,1,3,0.6115037014242262,H25N04,2022-10-20_10h44.59.930,t1_Paradigm,2021.1.4,60.002117357428375,
L,right,Target,0,8,8,8,1603.3349169187131,1605.3351626530057,right,1,3,0.9186125443666242,H25N04,2022-10-20_10h44.59.930,t1_Paradigm,2021.1.4,60.002117357428375,
D,left,Distractor,0,9,9,9,1606.8350121968542,1608.8366312843282,left,1,3,0.5691411618608981,H25N04,2022-10-20_10h44.59.930,t1_Paradigm,2021.1.4,60.002117357428375,
G,left,Distractor,0,10,10,10,1610.3347164174775,1612.3346461618203,left,1,3,0.4313612140249461,H25N04,2022-10-20_10h44.59.930,t1_Paradigm,2021.1.4,60.002117357428375,
M,left,Pretarget,0,11,11,11,1613.8346634851769,1615.8350721868337,left,1,3,0.4347116696299054,H25N04,2022-10-20_10h44.59.930,t1_Paradigm,2021.1.4,60.002117357428375,
Y,left,Distractor,0,12,12,12,1617.334922693146,1619.3351446880843,left,1,3,0.6147011345019564,H25N04,2022-10-20_10h44.59.930,t1_Paradigm,2021.1.4,60.002117357428375,
V,left,Distractor,0,13,13,13,1620.8348521167063,1622.8354282770306,right,0,3,1.066295969299972,H25N04,2022-10-20_10h44.59.930,t1_Paradigm,2021.1.4,60.002117357428375,
M,right,Target,0,14,14,14,1624.3346371793887,1626.337292457174,left,0,3,0.7165146921179257,H25N04,2022-10-20_10h44.59.930,t1_Paradigm,2021.1.4,60.002117357428375,
S,left,Pretarget,0,15,15,15,1627.8347350239637,1629.8350112344488,right,0,3,0.8667266779812053,H25N04,2022-10-20_10h44.59.930,t1_Paradigm,2021.1.4,60.002117357428375,
Q,left,Distractor,0,16,16,16,1631.3347847482655,1633.335195054009,left,1,3,0.4386305863154121,H25N04,2022-10-20_10h44.59.930,t1_Paradigm,2021.1.4,60.002117357428375,
R,left,Pretarget,0,17,17,17,1634.8349656806095,1636.835751324601,left,1,3,0.79398194787791,H25N04,2022-10-20_10h44.59.930,t1_Paradigm,2021.1.4,60.002117357428375,
S,right,Target,0,18,18,18,1638.3347138510435,1640.3347533097258,right,1,3,0.8631105984095484,H25N04,2022-10-20_10h44.59.930,t1_Paradigm,2021.1.4,60.002117357428375,
F,left,Distractor,0,19,19,19,1641.8348431342165,1643.8363165776245,left,1,3,0.6096786590642296,H25N04,2022-10-20_10h44.59.930,t1_Paradigm,2021.1.4,60.002117357428375,
R,right,Target,0,20,20,20,1645.3348261317587,1647.3350176505046,left,0,3,0.4867418968351558,H25N04,2022-10-20_10h44.59.930,t1_Paradigm,2021.1.4,60.002117357428375,
P,left,Distractor,0,21,21,21,1648.8349124274682,1650.8350311241811,left,1,3,0.9708137590787373,H25N04,2022-10-20_10h44.59.930,t1_Paradigm,2021.1.4,60.002117357428375,
L,left,Distractor,0,22,22,22,1652.3350936805946,1654.335689730593,left,1,3,0.6380952961626463,H25N04,2022-10-20_10h44.59.930,t1_Paradigm,2021.1.4,60.002117357428375,
R,right,Target,0,23,23,23,1655.8350827732938,1657.8348652696004,right,1,3,0.7708938312134705,H25N04,2022-10-20_10h44.59.930,t1_Paradigm,2021.1.4,60.002117357428375,
H,left,Pretarget,0,24,24,24,1659.3352319461992,1661.3349797958508,left,1,3,0.5989539289730601,H25N04,2022-10-20_10h44.59.930,t1_Paradigm,2021.1.4,60.002117357428375,
G,left,Pretarget,0,25,25,25,1662.834992948745,1664.8357580614393,left,1,3,0.9380871477769688,H25N04,2022-10-20_10h44.59.930,t1_Paradigm,2021.1.4,60.002117357428375,
T,left,Distractor,0,26,26,26,1666.3348649487598,1668.3358042569016,left,1,3,0.5737652012030594,H25N04,2022-10-20_10h44.59.930,t1_Paradigm,2021.1.4,60.002117357428375,
H,right,Target,0,27,27,27,1669.8348816304933,1671.8351212695125,None,0,3,,H25N04,2022-10-20_10h44.59.930,t1_Paradigm,2021.1.4,60.002117357428375,
G,right,Target,0,28,28,28,1673.3348915753304,1675.3357282268116,right,1,3,1.2061653002747335,H25N04,2022-10-20_10h44.59.930,t1_Paradigm,2021.1.4,60.002117357428375,
D,left,Distractor,0,29,29,29,1676.83519697882,1678.8478837336297,left,1,3,0.5899275243864395,H25N04,2022-10-20_10h44.59.930,t1_Paradigm,2021.1.4,60.002117357428375,
N,left,Pretarget,0,30,30,30,1680.3348797056824,1682.3360108533525,left,1,3,0.6377809102414176,H25N04,2022-10-20_10h44.59.930,t1_Paradigm,2021.1.4,60.002117357428375,
V,left,Distractor,0,31,31,31,1683.8348116956768,1685.8356098509394,left,1,3,0.6103561928030103,H25N04,2022-10-20_10h44.59.930,t1_Paradigm,2021.1.4,60.002117357428375,
R,left,Distractor,0,32,32,32,1687.3346987733385,1689.3351998660364,right,0,3,0.7266420889645815,H25N04,2022-10-20_10h44.59.930,t1_Paradigm,2021.1.4,60.002117357428375,
N,right,Target,0,33,33,33,1690.83470101899,1692.836387795629,left,0,3,0.3455142904422246,H25N04,2022-10-20_10h44.59.930,t1_Paradigm,2021.1.4,60.002117357428375,
Z,left,Distractor,0,34,34,34,1694.334991023934,1696.3359168583993,left,1,3,0.6698277421528473,H25N04,2022-10-20_10h44.59.930,t1_Paradigm,2021.1.4,60.002117357428375,
N,left,Lure,0,35,35,35,1697.8345601868932,1699.8352771793143,right,0,3,0.818445663258899,H25N04,2022-10-20_10h44.59.930,t1_Paradigm,2021.1.4,60.002117357428375,
Y,left,Pretarget,0,36,36,36,1701.3347873146995,1703.3353763070772,left,1,3,0.5343736085342243,H25N04,2022-10-20_10h44.59.930,t1_Paradigm,2021.1.4,60.002117357428375,
Y,left,Lure,0,37,37,37,1704.8350397858303,1706.834772557835,right,0,3,0.7633861030917615,H25N04,2022-10-20_10h44.59.930,t1_Paradigm,2021.1.4,60.002117357428375,
B,left,Distractor,0,38,38,38,1708.3347979011596,1710.3346836956916,left,1,3,0.49501602083910257,H25N04,2022-10-20_10h44.59.930,t1_Paradigm,2021.1.4,60.002117357428375,
Y,right,Target,0,39,39,39,1711.8349685678259,1713.835805219307,left,0,3,0.658132265380118,H25N04,2022-10-20_10h44.59.930,t1_Paradigm,2021.1.4,60.002117357428375,
J,left,Distractor,0,40,40,40,1715.3348989537917,1717.3347529888852,left,1,3,0.6312978235655464,H25N04,2022-10-20_10h44.59.930,t1_Paradigm,2021.1.4,60.002117357428375,
X,left,Distractor,0,41,41,41,1718.8348251693533,1720.8358142017387,left,1,3,0.47406637005042285,H25N04,2022-10-20_10h44.59.930,t1_Paradigm,2021.1.4,60.002117357428375,
W,left,Pretarget,0,42,42,42,1722.3348781016539,1724.3367631339352,left,1,3,0.5888939005089924,H25N04,2022-10-20_10h44.59.930,t1_Paradigm,2021.1.4,60.002117357428375,
S,left,Pretarget,0,43,43,43,1725.8351312144077,1727.8352220013621,left,1,3,0.8025441519566812,H25N04,2022-10-20_10h44.59.930,t1_Paradigm,2021.1.4,60.002117357428375,
R,left,Distractor,0,44,44,44,1729.3347542721312,1731.3352807080955,right,0,3,1.0306814988725819,H25N04,2022-10-20_10h44.59.930,t1_Paradigm,2021.1.4,60.002117357428375,
W,right,Target,0,45,45,45,1732.834596116736,1734.8346747132018,right,1,3,0.987137766496744,H25N04,2022-10-20_10h44.59.930,t1_Paradigm,2021.1.4,60.002117357428375,
S,right,Target,0,46,46,46,1736.3349143522792,1738.3364471439854,right,1,3,0.8454600749537349,H25N04,2022-10-20_10h44.59.930,t1_Paradigm,2021.1.4,60.002117357428375,
D,left,Distractor,0,47,47,47,1739.8349246179569,1741.8345011593774,left,1,3,0.4352762810885906,H25N04,2022-10-20_10h44.59.930,t1_Paradigm,2021.1.4,60.002117357428375,
T,left,Distractor,0,48,48,48,1743.3346891492838,1745.3346901116893,left,1,3,0.6153392096166499,H25N04,2022-10-20_10h44.59.930,t1_Paradigm,2021.1.4,60.002117357428375,
S,right,Target,0,49,49,49,1746.8349464325001,1748.8358372994699,right,1,3,1.146070432732813,H25N04,2022-10-20_10h44.59.930,t1_Paradigm,2021.1.4,60.002117357428375,
K,left,Distractor,0,50,50,50,1750.3349169187131,1752.3348405678407,left,1,3,0.7348866991815157,H25N04,2022-10-20_10h44.59.930,t1_Paradigm,2021.1.4,60.002117357428375,
S,left,Lure,0,51,51,51,1753.8348274149466,1755.8350978509989,left,1,3,1.1547006468754262,H25N04,2022-10-20_10h44.59.930,t1_Paradigm,2021.1.4,60.002117357428375,
T,left,Pretarget,0,52,52,52,1757.3347205878817,1759.3367288081208,right,0,3,1.2530732827144675,H25N04,2022-10-20_10h44.59.930,t1_Paradigm,2021.1.4,60.002117357428375,
V,left,Distractor,0,53,53,53,1760.8345242571086,1762.8352078860626,left,1,3,0.6504654194577597,H25N04,2022-10-20_10h44.59.930,t1_Paradigm,2021.1.4,60.002117357428375,
B,left,Distractor,0,54,54,54,1764.3344402069924,1766.3344443773967,left,1,3,0.959404437628109,H25N04,2022-10-20_10h44.59.930,t1_Paradigm,2021.1.4,60.002117357428375,
T,right,Target,0,55,55,55,1767.8346070239786,1769.8355078359018,left,0,3,0.8825027556740679,H25N04,2022-10-20_10h44.59.930,t1_Paradigm,2021.1.4,60.002117357428375,
Y,left,Pretarget,0,56,56,56,1771.3348671944113,1773.334844096622,left,1,3,0.5188740621670149,H25N04,2022-10-20_10h44.59.930,t1_Paradigm,2021.1.4,60.002117357428375,
T,left,Lure,0,57,57,57,1774.8346769588534,1776.8358068233356,right,0,3,0.8101243813289329,H25N04,2022-10-20_10h44.59.930,t1_Paradigm,2021.1.4,60.002117357428375,
P,left,Pretarget,0,58,58,58,1778.3347446480184,1780.3356525175623,left,1,3,0.5102521888329647,H25N04,2022-10-20_10h44.59.930,t1_Paradigm,2021.1.4,60.002117357428375,
Y,right,Target,0,59,59,59,1781.8347645377507,1783.8368064421811,right,1,3,0.8329173601232469,H25N04,2022-10-20_10h44.59.930,t1_Paradigm,2021.1.4,60.002117357428375,
R,left,Distractor,0,60,60,60,1785.3351902419818,1787.3354959661956,left,1,3,0.630550034227781,H25N04,2022-10-20_10h44.59.930,t1_Paradigm,2021.1.4,60.002117357428375,
P,right,Target,0,61,61,61,1788.8348700816277,1790.8357962368755,left,0,3,0.9539739020983689,H25N04,2022-10-20_10h44.59.930,t1_Paradigm,2021.1.4,60.002117357428375,
L,left,Distractor,0,62,62,62,1792.3349114650628,1794.3353535301285,left,1,3,0.8625344380852766,H25N04,2022-10-20_10h44.59.930,t1_Paradigm,2021.1.4,60.002117357428375,
V,left,Distractor,0,63,63,63,1795.8348235653248,1797.8347825026722,left,1,3,0.9471850912086666,H25N04,2022-10-20_10h44.59.930,t1_Paradigm,2021.1.4,60.002117357428375,
H,left,Lure,0,0,0,0,1807.0522365028737,1809.0513334453572,left,1,3,0.6264405611436814,H25N04,2022-10-20_10h44.59.930,t1_Paradigm,2021.1.4,60.002117357428375,
B,left,Distractor,0,1,1,1,1810.5514470092603,1812.5518874703557,left,1,3,0.501829212764278,H25N04,2022-10-20_10h44.59.930,t1_Paradigm,2021.1.4,60.002117357428375,
T,left,Distractor,0,2,2,2,1814.0515166232944,1816.051980182121,left,1,3,0.9857499771751463,H25N04,2022-10-20_10h44.59.930,t1_Paradigm,2021.1.4,60.002117357428375,
R,left,Distractor,0,3,3,3,1817.5515169440769,1819.5527581268689,left,1,3,0.8769467866513878,H25N04,2022-10-20_10h44.59.930,t1_Paradigm,2021.1.4,60.002117357428375,
H,left,Pretarget,0,4,4,4,1821.051444122044,1823.0516292247921,left,1,3,0.29019584314664826,H25N04,2022-10-20_10h44.59.930,t1_Paradigm,2021.1.4,60.002117357428375,
K,left,Distractor,0,5,5,5,1824.5511509091011,1826.5527590892743,left,1,3,0.3090577148832381,H25N04,2022-10-20_10h44.59.930,t1_Paradigm,2021.1.4,60.002117357428375,
G,left,Distractor,0,6,6,6,1828.0514883927535,1830.05121057824,left,1,3,0.6667207752470858,H25N04,2022-10-20_10h44.59.930,t1_Paradigm,2021.1.4,60.002117357428375,
H,right,Target,0,7,7,7,1831.5514097962296,1833.55132350052,right,1,3,0.5585874191601761,H25N04,2022-10-20_10h44.59.930,t1_Paradigm,2021.1.4,60.002117357428375,
Y,left,Pretarget,0,8,8,8,1835.0516571345506,1837.0528902972583,left,1,3,0.32090236456133425,H25N04,2022-10-20_10h44.59.930,t1_Paradigm,2021.1.4,60.002117357428375,
S,left,Distractor,0,9,9,9,1838.5516821570927,1840.552417114377,left,1,3,0.30937466718023643,H25N04,2022-10-20_10h44.59.930,t1_Paradigm,2021.1.4,60.002117357428375,
P,left,Distractor,0,10,10,10,1842.0516568137682,1844.051208011806,left,1,3,0.6344821037491783,H25N04,2022-10-20_10h44.59.930,t1_Paradigm,2021.1.4,60.002117357428375,
Y,right,Target,0,11,11,11,1845.5518784879241,1847.5518310092157,left,0,3,0.7018957471009344,H25N04,2022-10-20_10h44.59.930,t1_Paradigm,2021.1.4,60.002117357428375,
H,left,Lure,0,12,12,12,1849.0513283125474,1851.0525252246298,right,0,3,0.6892891927273013,H25N04,2022-10-20_10h44.59.930,t1_Paradigm,2021.1.4,60.002117357428375,
Q,left,Distractor,0,13,13,13,1852.551442197233,1854.551761715964,left,1,3,0.326078824873548,H25N04,2022-10-20_10h44.59.930,t1_Paradigm,2021.1.4,60.002117357428375,
V,left,Pretarget,0,14,14,14,1856.051244583272,1858.051713916473,left,1,3,0.6821580860996619,H25N04,2022-10-20_10h44.59.930,t1_Paradigm,2021.1.4,60.002117357428375,
G,left,Distractor,0,15,15,15,1859.5514726734255,1861.5517870593467,left,1,3,1.0859389937249944,H25N04,2022-10-20_10h44.59.930,t1_Paradigm,2021.1.4,60.002117357428375,
Z,left,Pretarget,0,16,16,16,1863.0514524629107,1865.0523699565092,left,1,3,0.8815486906678416,H25N04,2022-10-20_10h44.59.930,t1_Paradigm,2021.1.4,60.002117357428375,
V,right,Target,0,17,17,17,1866.5514412348275,1868.5516289040097,right,1,3,0.6942272972082719,H25N04,2022-10-20_10h44.59.930,t1_Paradigm,2021.1.4,60.002117357428375,
N,left,Distractor,0,18,18,18,1870.0514046634198,1872.051373866445,left,1,3,0.6183018155861646,H25N04,2022-10-20_10h44.59.930,t1_Paradigm,2021.1.4,60.002117357428375,
Z,right,Target,0,19,19,19,1873.5514306483674,1875.568103367521,right,1,3,0.7818251578137279,H25N04,2022-10-20_10h44.59.930,t1_Paradigm,2021.1.4,60.002117357428375,
R,left,Distractor,0,20,20,20,1877.0514190995018,1879.0510527436854,left,1,3,0.6268460548017174,H25N04,2022-10-20_10h44.59.930,t1_Paradigm,2021.1.4,60.002117357428375,
P,left,Distractor,0,21,21,21,1880.5515073200222,1882.5534738360438,left,1,3,0.8682662066421472,H25N04,2022-10-20_10h44.59.930,t1_Paradigm,2021.1.4,60.002117357428375,
Z,right,Target,0,22,22,22,1884.0515586483525,1886.0514806935098,right,1,3,1.1144512297469191,H25N04,2022-10-20_10h44.59.930,t1_Paradigm,2021.1.4,60.002117357428375,
D,left,Pretarget,0,23,23,23,1887.551165345183,1889.551209295052,left,1,3,0.7025148948305286,H25N04,2022-10-20_10h44.59.930,t1_Paradigm,2021.1.4,60.002117357428375,
K,left,Distractor,0,24,24,24,1891.0515804628958,1893.0519076808705,left,1,3,0.945981121447403,H25N04,2022-10-20_10h44.59.930,t1_Paradigm,2021.1.4,60.002117357428375,
W,left,Distractor,0,25,25,25,1894.5516924227704,1896.551720974152,left,1,3,0.6941326605738141,H25N04,2022-10-20_10h44.59.930,t1_Paradigm,2021.1.4,60.002117357428375,
D,right,Target,0,26,26,26,1898.0517905881861,1900.0511717611807,left,0,3,0.5545562218176201,H25N04,2022-10-20_10h44.59.930,t1_Paradigm,2021.1.4,60.002117357428375,
G,left,Pretarget,0,27,27,27,1901.5514729942079,1903.5515775756794,right,0,3,0.8143734032055363,H25N04,2022-10-20_10h44.59.930,t1_Paradigm,2021.1.4,60.002117357428375,
V,left,Distractor,0,28,28,28,1905.05155832757,1907.0524325128645,left,1,3,0.3692924520582892,H25N04,2022-10-20_10h44.59.930,t1_Paradigm,2021.1.4,60.002117357428375,
D,right,Target,0,29,29,29,1908.5512423376204,1910.5523545580218,left,0,3,0.38920302531914786,H25N04,2022-10-20_10h44.59.930,t1_Paradigm,2021.1.4,60.002117357428375,
G,right,Target,0,30,30,30,1912.051279550651,1914.0515971445711,left,0,3,0.95416285446845,H25N04,2022-10-20_10h44.59.930,t1_Paradigm,2021.1.4,60.002117357428375,
B,left,Pretarget,0,31,31,31,1915.5514964127797,1917.5524212847813,left,1,3,0.7815390024334192,H25N04,2022-10-20_10h44.59.930,t1_Paradigm,2021.1.4,60.002117357428375,
N,left,Distractor,0,32,32,32,1919.0514101170702,1921.052372522885,left,1,3,0.8332875656196848,H25N04,2022-10-20_10h44.59.930,t1_Paradigm,2021.1.4,60.002117357428375,
F,left,Distractor,0,33,33,33,1922.5516382072237,1924.552201214654,left,1,3,0.6775340467575006,H25N04,2022-10-20_10h44.59.930,t1_Paradigm,2021.1.4,60.002117357428375,
B,right,Target,0,34,34,34,1926.0517870593467,1928.0516266583581,right,1,3,0.87408651644364,H25N04,2022-10-20_10h44.59.930,t1_Paradigm,2021.1.4,60.002117357428375,
Q,left,Pretarget,0,35,35,35,1929.5511582875042,1931.5512048038072,left,1,3,0.5906525368918665,H25N04,2022-10-20_10h44.59.930,t1_Paradigm,2021.1.4,60.002117357428375,
S,left,Pretarget,0,36,36,36,1933.0514701069915,1935.0513251045486,left,1,3,0.6424918869743124,H25N04,2022-10-20_10h44.59.930,t1_Paradigm,2021.1.4,60.002117357428375,
W,left,Distractor,0,37,37,37,1936.5514665782102,1938.551658096956,left,1,3,0.7580739436089061,H25N04,2022-10-20_10h44.59.930,t1_Paradigm,2021.1.4,60.002117357428375,
Q,right,Target,0,38,38,38,1940.0511990293744,1942.0510456860065,left,0,3,0.7787724063964561,H25N04,2022-10-20_10h44.59.930,t1_Paradigm,2021.1.4,60.002117357428375,
S,right,Target,0,39,39,39,1943.551410758635,1945.5519083224935,left,0,3,0.33384351537097245,H25N04,2022-10-20_10h44.59.930,t1_Paradigm,2021.1.4,60.002117357428375,
T,left,Distractor,0,40,40,40,1947.0514922423754,1949.051730918989,left,1,3,0.6740992201957852,H25N04,2022-10-20_10h44.59.930,t1_Paradigm,2021.1.4,60.002117357428375,
G,left,Distractor,0,41,41,41,1950.5514069090132,1952.5515798212728,left,1,3,0.678121435106732,H25N04,2022-10-20_10h44.59.930,t1_Paradigm,2021.1.4,60.002117357428375,
D,left,Distractor,0,42,42,42,1954.0514883927535,1956.0516571345506,left,1,3,0.9218539273133501,H25N04,2022-10-20_10h44.59.930,t1_Paradigm,2021.1.4,60.002117357428375,
S,left,Lure,0,43,43,43,1957.5513167636818,1959.5526817759965,left,1,3,0.9092419193475507,H25N04,2022-10-20_10h44.59.930,t1_Paradigm,2021.1.4,60.002117357428375,
Z,left,Pretarget,0,44,44,44,1961.0515243225382,1963.0526172948303,left,1,3,0.721167282841634,H25N04,2022-10-20_10h44.59.930,t1_Paradigm,2021.1.4,60.002117357428375,
J,left,Distractor,0,45,45,45,1964.5513642423903,1966.5515939365723,left,1,3,1.2221823001746088,H25N04,2022-10-20_10h44.59.930,t1_Paradigm,2021.1.4,60.002117357428375,
M,left,Pretarget,0,46,46,46,1968.0514319315553,1970.0512035206193,left,1,3,0.5226335402112454,H25N04,2022-10-20_10h44.59.930,t1_Paradigm,2021.1.4,60.002117357428375,
Z,right,Target,0,47,47,47,1971.551457916561,1973.551789946563,right,1,3,0.7819525161758065,H25N04,2022-10-20_10h44.59.930,t1_Paradigm,2021.1.4,60.002117357428375,
P,left,Distractor,0,48,48,48,1975.0511778564542,1977.051165986748,left,1,3,1.122625584306661,H25N04,2022-10-20_10h44.59.930,t1_Paradigm,2021.1.4,60.002117357428375,
M,right,Target,0,49,49,49,1978.5511467386386,1980.5513369741966,right,1,3,0.5825667235767469,H25N04,2022-10-20_10h44.59.930,t1_Paradigm,2021.1.4,60.002117357428375,
K,left,Distractor,0,50,50,50,1982.0514399516396,1984.052400753484,left,1,3,0.921156183059793,H25N04,2022-10-20_10h44.59.930,t1_Paradigm,2021.1.4,60.002117357428375,
Y,left,Distractor,0,51,51,51,1985.5514633701532,1987.5516221671714,left,1,3,1.022176397498697,H25N04,2022-10-20_10h44.59.930,t1_Paradigm,2021.1.4,60.002117357428375,
X,left,Distractor,0,52,52,52,1989.0515076408628,1991.0518396708649,left,1,3,1.2820577392121777,H25N04,2022-10-20_10h44.59.930,t1_Paradigm,2021.1.4,60.002117357428375,
F,left,Pretarget,0,53,53,53,1992.5517806432908,1994.551731560612,left,1,3,0.8539706299779937,H25N04,2022-10-20_10h44.59.930,t1_Paradigm,2021.1.4,60.002117357428375,
M,left,Lure,0,54,54,54,1996.0514515005052,1998.0516128638992,left,1,3,1.0983254779712297,H25N04,2022-10-20_10h44.59.930,t1_Paradigm,2021.1.4,60.002117357428375,
V,left,Distractor,0,55,55,55,1999.5515377962147,2001.5517703776713,left,1,3,0.9581215505604632,H25N04,2022-10-20_10h44.59.930,t1_Paradigm,2021.1.4,60.002117357428375,
F,right,Target,0,56,56,56,2003.0517411846668,2005.0516038814094,right,1,3,1.0421501686796546,H25N04,2022-10-20_10h44.59.930,t1_Paradigm,2021.1.4,60.002117357428375,
S,left,Distractor,0,57,57,57,2006.5514582373435,2008.552668943943,left,1,3,0.6132318614982069,H25N04,2022-10-20_10h44.59.930,t1_Paradigm,2021.1.4,60.002117357428375,
D,left,Distractor,0,58,58,58,2010.0513097060611,2012.052823249658,left,1,3,0.8250166496145539,H25N04,2022-10-20_10h44.59.930,t1_Paradigm,2021.1.4,60.002117357428375,
F,right,Target,0,59,59,59,2013.5513847736875,2015.5532341969665,left,0,3,0.9725858690217137,H25N04,2022-10-20_10h44.59.930,t1_Paradigm,2021.1.4,60.002117357428375,
V,left,Pretarget,0,60,60,60,2017.0512574153254,2019.0516003526282,left,1,3,1.282243162742816,H25N04,2022-10-20_10h44.59.930,t1_Paradigm,2021.1.4,60.002117357428375,
J,left,Distractor,0,61,61,61,2020.5515086032683,2022.5522384276846,None,0,3,,H25N04,2022-10-20_10h44.59.930,t1_Paradigm,2021.1.4,60.002117357428375,
V,left,Lure,0,62,62,62,2024.051110808854,2026.0532290641568,right,0,3,1.096698049630504,H25N04,2022-10-20_10h44.59.930,t1_Paradigm,2021.1.4,60.002117357428375,
V,right,Target,0,63,63,63,2027.551677665906,2029.551705254824,left,0,3,0.9740872222464532,H25N04,2022-10-20_10h44.59.930,t1_Paradigm,2021.1.4,60.002117357428375,
R,left,Distractor,0,0,0,0,2136.7499801102676,2138.751816701435,left,1,4,0.861946408112999,H25N04,2022-10-20_10h44.59.930,t1_Paradigm,2021.1.4,60.002117357428375,
F,left,Distractor,0,1,1,1,2140.2510198294185,2142.2519896136946,left,1,4,0.4979112584842369,H25N04,2022-10-20_10h44.59.930,t1_Paradigm,2021.1.4,60.002117357428375,
P,left,Pretarget,0,2,2,2,2143.734643852047,2145.735965556116,left,1,4,0.533611703896895,H25N04,2022-10-20_10h44.59.930,t1_Paradigm,2021.1.4,60.002117357428375,
H,left,Distractor,0,3,3,3,2147.2513451225823,2149.2512139145983,left,1,4,0.8425285866833292,H25N04,2022-10-20_10h44.59.930,t1_Paradigm,2021.1.4,60.002117357428375,
Z,left,Distractor,0,4,4,4,2150.7512552980334,2152.751661754097,left,1,4,0.7340583885088563,H25N04,2022-10-20_10h44.59.930,t1_Paradigm,2021.1.4,60.002117357428375,
T,left,Distractor,0,5,5,5,2154.251414415776,2156.2504590675817,left,1,4,0.7871953824651428,H25N04,2022-10-20_10h44.59.930,t1_Paradigm,2021.1.4,60.002117357428375,
P,right,Target,0,6,6,6,2157.751211668947,2159.7517178944545,left,0,4,1.3339551544631831,H25N04,2022-10-20_10h44.59.930,t1_Paradigm,2021.1.4,60.002117357428375,
G,left,Distractor,0,7,7,7,2161.2513329320936,2163.251245994761,left,1,4,0.9864952001953498,H25N04,2022-10-20_10h44.59.930,t1_Paradigm,2021.1.4,60.002117357428375,
L,left,Distractor,0,8,8,8,2164.7513749571517,2166.7510782153695,left,1,4,0.8467724756919779,H25N04,2022-10-20_10h44.59.930,t1_Paradigm,2021.1.4,60.002117357428375,
P,left,Lure,0,9,9,9,2168.2512408619514,2170.251611388172,right,0,4,0.8982813997427002,H25N04,2022-10-20_10h44.59.930,t1_Paradigm,2021.1.4,60.002117357428375,
Q,left,Pretarget,0,10,10,10,2171.7516588668805,2173.7516883806675,left,1,4,1.0301553836325184,H25N04,2022-10-20_10h44.59.930,t1_Paradigm,2021.1.4,60.002117357428375,
D,left,Distractor,0,11,11,11,2175.250794626423,2177.252843909315,left,1,4,1.465104125905782,H25N04,2022-10-20_10h44.59.930,t1_Paradigm,2021.1.4,60.002117357428375,
M,left,Pretarget,0,12,12,12,2178.7514009420993,2180.751539207762,left,1,4,1.342262962658424,H25N04,2022-10-20_10h44.59.930,t1_Paradigm,2021.1.4,60.002117357428375,
C,left,Distractor,0,13,13,13,2182.251314967172,2184.2365234307363,left,1,4,1.2011749050579965,H25N04,2022-10-20_10h44.59.930,t1_Paradigm,2021.1.4,60.002117357428375,
Q,right,Target,0,14,14,14,2185.751276791736,2187.750693573791,right,1,4,1.3831591164926067,H25N04,2022-10-20_10h44.59.930,t1_Paradigm,2021.1.4,60.002117357428375,
R,left,Distractor,0,15,15,15,2189.251317212824,2191.2515991977416,left,1,4,1.2422600112622604,H25N04,2022-10-20_10h44.59.930,t1_Paradigm,2021.1.4,60.002117357428375,
M,right,Target,0,16,16,16,2192.73495150113,2194.734731751785,None,0,4,,H25N04,2022-10-20_10h44.59.930,t1_Paradigm,2021.1.4,60.002117357428375,
S,left,Distractor,0,17,17,17,2196.2346162631293,2198.2350390800857,left,1,4,0.7545714278239757,H25N04,2022-10-20_10h44.59.930,t1_Paradigm,2021.1.4,60.002117357428375,
Z,left,Distractor,0,18,18,18,2199.7346435312647,2201.7354317416903,left,1,4,0.8383260811096989,H25N04,2022-10-20_10h44.59.930,t1_Paradigm,2021.1.4,60.002117357428375,
L,left,Pretarget,0,19,19,19,2203.2350073207053,2205.234391701757,left,1,4,0.9393745259731077,H25N04,2022-10-20_10h44.59.930,t1_Paradigm,2021.1.4,60.002117357428375,
M,right,Target,0,20,20,20,2206.734753887169,2208.7349280826165,right,1,4,0.798982287873514,H25N04,2022-10-20_10h44.59.930,t1_Paradigm,2021.1.4,60.002117357428375,
P,left,Distractor,0,21,21,21,2210.2346932555665,2212.2363399320166,left,1,4,0.7853751521906815,H25N04,2022-10-20_10h44.59.930,t1_Paradigm,2021.1.4,60.002117357428375,
F,left,Distractor,0,22,22,22,2213.75137656118,2215.75110099226,left,1,4,0.6946860439493321,H25N04,2022-10-20_10h44.59.930,t1_Paradigm,2021.1.4,60.002117357428375,
L,right,Target,0,23,23,23,2217.2513047015527,2219.2367085334263,left,0,4,1.129165452963207,H25N04,2022-10-20_10h44.59.930,t1_Paradigm,2021.1.4,60.002117357428375,
L,left,Lure,0,24,24,24,2220.7512100649765,2222.7514894834603,left,1,4,1.1181430186261423,H25N04,2022-10-20_10h44.59.930,t1_Paradigm,2021.1.4,60.002117357428375,
V,left,Pretarget,0,25,25,25,2224.251296360686,2226.236089706479,right,0,4,0.9778316226438619,H25N04,2022-10-20_10h44.59.930,t1_Paradigm,2021.1.4,60.002117357428375,
Z,left,Distractor,0,26,26,26,2227.751264280465,2229.7525616035564,right,0,4,1.0452619476127438,H25N04,2022-10-20_10h44.59.930,t1_Paradigm,2021.1.4,60.002117357428375,
H,left,Distractor,0,27,27,27,2231.2512690924923,2233.2512540148455,left,1,4,0.9706488668452948,H25N04,2022-10-20_10h44.59.930,t1_Paradigm,2021.1.4,60.002117357428375,
X,left,Distractor,0,28,28,28,2234.7516922302893,2236.752391257731,left,1,4,1.1173070087679662,H25N04,2022-10-20_10h44.59.930,t1_Paradigm,2021.1.4,60.002117357428375,
V,right,Target,0,29,29,29,2238.2514057541266,2240.2521942853346,left,0,4,1.185543829924427,H25N04,2022-10-20_10h44.59.930,t1_Paradigm,2021.1.4,60.002117357428375,
C,left,Distractor,0,30,30,30,2241.7512427867623,2243.7529465659172,left,1,4,1.0288680054363795,H25N04,2022-10-20_10h44.59.930,t1_Paradigm,2021.1.4,60.002117357428375,
S,left,Pretarget,0,31,31,31,2245.2510191877955,2247.251656621287,left,1,4,0.7781497298274189,H25N04,2022-10-20_10h44.59.930,t1_Paradigm,2021.1.4,60.002117357428375,
D,left,Distractor,0,32,32,32,2248.7511991576757,2250.751642185205,left,1,4,0.7179660000838339,H25N04,2022-10-20_10h44.59.930,t1_Paradigm,2021.1.4,60.002117357428375,
V,left,Distractor,0,33,33,33,2252.2511202404276,2254.252387408109,right,0,4,0.8012994404416531,H25N04,2022-10-20_10h44.59.930,t1_Paradigm,2021.1.4,60.002117357428375,
R,left,Distractor,0,34,34,34,2255.751469593728,2257.7511112579377,left,1,4,0.9344880706630647,H25N04,2022-10-20_10h44.59.930,t1_Paradigm,2021.1.4,60.002117357428375,
S,right,Target,0,35,35,35,2259.267923525942,2261.2511301852646,left,0,4,0.6825966223259456,H25N04,2022-10-20_10h44.59.930,t1_Paradigm,2021.1.4,60.002117357428375,
Y,left,Distractor,0,36,36,36,2262.75140126294,2264.75317818491,left,1,4,0.6205583365517668,H25N04,2022-10-20_10h44.59.930,t1_Paradigm,2021.1.4,60.002117357428375,
N,left,Pretarget,0,37,37,37,2266.2515048819478,2268.2515446614125,left,1,4,0.8340266933082603,H25N04,2022-10-20_10h44.59.930,t1_Paradigm,2021.1.4,60.002117357428375,
Z,left,Pretarget,0,38,38,38,2269.7512338042725,2271.7511734935106,left,1,4,0.9504328901530243,H25N04,2022-10-20_10h44.59.930,t1_Paradigm,2021.1.4,60.002117357428375,
P,left,Pretarget,0,39,39,39,2273.2512607516837,2275.2517788468394,left,1,4,0.5698780438979156,H25N04,2022-10-20_10h44.59.930,t1_Paradigm,2021.1.4,60.002117357428375,
M,left,Distractor,0,40,40,40,2276.75171885686,2278.7513900348567,left,1,4,0.31826986372470856,H25N04,2022-10-20_10h44.59.930,t1_Paradigm,2021.1.4,60.002117357428375,
N,right,Target,0,41,41,41,2280.2513242704445,2282.251673623803,left,0,4,0.35403671517269686,H25N04,2022-10-20_10h44.59.930,t1_Paradigm,2021.1.4,60.002117357428375,
Z,right,Target,0,42,42,42,2283.7513820147724,2285.75308483158,right,1,4,1.092757960082963,H25N04,2022-10-20_10h44.59.930,t1_Paradigm,2021.1.4,60.002117357428375,
P,right,Target,0,43,43,43,2287.2515690423315,2289.251202044892,left,0,4,0.9544554258463904,H25N04,2022-10-20_10h44.59.930,t1_Paradigm,2021.1.4,60.002117357428375,
X,left,Pretarget,0,44,44,44,2290.751361483475,2292.752394465788,left,1,4,0.6854488725075498,H25N04,2022-10-20_10h44.59.930,t1_Paradigm,2021.1.4,60.002117357428375,
Z,left,Lure,0,45,45,45,2294.25135538826,2296.2515921400627,right,0,4,1.1700516619021073,H25N04,2022-10-20_10h44.59.930,t1_Paradigm,2021.1.4,60.002117357428375,
R,left,Pretarget,0,46,46,46,2297.7513557090424,2299.75150359876,left,1,4,0.6622924251132645,H25N04,2022-10-20_10h44.59.930,t1_Paradigm,2021.1.4,60.002117357428375,
K,left,Distractor,0,47,47,47,2301.251273583737,2303.2504850525293,left,1,4,0.6993569203768857,H25N04,2022-10-20_10h44.59.930,t1_Paradigm,2021.1.4,60.002117357428375,
X,right,Target,0,48,48,48,2304.7514070373727,2306.7519267364987,left,0,4,0.9419348463998176,H25N04,2022-10-20_10h44.59.930,t1_Paradigm,2021.1.4,60.002117357428375,
B,left,Distractor,0,49,49,49,2308.251335177687,2310.252667468216,left,1,4,0.8010091145988554,H25N04,2022-10-20_10h44.59.930,t1_Paradigm,2021.1.4,60.002117357428375,
R,right,Target,0,50,50,50,2311.7511314684525,2313.7529074280756,right,1,4,0.9969754791818559,H25N04,2022-10-20_10h44.59.930,t1_Paradigm,2021.1.4,60.002117357428375,
Y,left,Pretarget,0,51,51,51,2315.2513858644525,2317.2516877390444,left,1,4,0.7622520682634786,H25N04,2022-10-20_10h44.59.930,t1_Paradigm,2021.1.4,60.002117357428375,
W,left,Pretarget,0,52,52,52,2318.751375919557,2320.751488521055,left,1,4,0.6704375866684131,H25N04,2022-10-20_10h44.59.930,t1_Paradigm,2021.1.4,60.002117357428375,
Z,left,Distractor,0,53,53,53,2322.251571929548,2324.2516219746904,left,1,4,0.9142124247737229,H25N04,2022-10-20_10h44.59.930,t1_Paradigm,2021.1.4,60.002117357428375,
Q,left,Distractor,0,54,54,54,2325.7511510374025,2327.7526889619767,left,1,4,0.6451231045066379,H25N04,2022-10-20_10h44.59.930,t1_Paradigm,2021.1.4,60.002117357428375,
Y,right,Target,0,55,55,55,2329.25121776422,2331.2531862049946,left,0,4,0.45660127012524754,H25N04,2022-10-20_10h44.59.930,t1_Paradigm,2021.1.4,60.002117357428375,
W,right,Target,0,56,56,56,2332.73502753122,2334.7345023783855,right,1,4,1.295182388741523,H25N04,2022-10-20_10h44.59.930,t1_Paradigm,2021.1.4,60.002117357428375,
H,left,Pretarget,0,57,57,57,2336.2349123632885,2338.2354715210968,left,1,4,0.7061441273544915,H25N04,2022-10-20_10h44.59.930,t1_Paradigm,2021.1.4,60.002117357428375,
M,left,Distractor,0,58,58,58,2339.7510393983102,2341.752166375576,left,1,4,0.6136957411654294,H25N04,2022-10-20_10h44.59.930,t1_Paradigm,2021.1.4,60.002117357428375,
R,left,Pretarget,0,59,59,59,2343.2516758693964,2345.251684210263,left,1,4,0.5859964172705077,H25N04,2022-10-20_10h44.59.930,t1_Paradigm,2021.1.4,60.002117357428375,
J,left,Distractor,0,60,60,60,2346.750563648995,2348.7524265459506,left,1,4,0.5893035646295175,H25N04,2022-10-20_10h44.59.930,t1_Paradigm,2021.1.4,60.002117357428375,
H,right,Target,0,61,61,61,2350.2511378845084,2352.2517159696436,right,1,4,0.8498662897618487,H25N04,2022-10-20_10h44.59.930,t1_Paradigm,2021.1.4,60.002117357428375,
Z,left,Distractor,0,62,62,62,2353.7511523205903,2355.7517166112666,left,1,4,0.9178904191940092,H25N04,2022-10-20_10h44.59.930,t1_Paradigm,2021.1.4,60.002117357428375,
R,right,Target,0,63,63,63,2357.251036511094,2359.2676546939183,left,0,4,0.9219893057597801,H25N04,2022-10-20_10h44.59.930,t1_Paradigm,2021.1.4,60.002117357428375,
J,left,Pretarget,0,0,0,0,2392.2678869545343,2394.267799696361,left,1,4,0.3861242889543064,H25N04,2022-10-20_10h44.59.930,t1_Paradigm,2021.1.4,60.002117357428375,
G,left,Pretarget,0,1,1,1,2395.767980628705,2397.767794884334,left,1,4,0.389921942492947,H25N04,2022-10-20_10h44.59.930,t1_Paradigm,2021.1.4,60.002117357428375,
Z,left,Distractor,0,2,2,2,2399.267941170023,2401.268838773889,left,1,4,0.39289641816867515,H25N04,2022-10-20_10h44.59.930,t1_Paradigm,2021.1.4,60.002117357428375,
F,left,Distractor,0,3,3,3,2402.767953039729,2404.7687261723913,left,1,4,0.3492647860548459,H25N04,2022-10-20_10h44.59.930,t1_Paradigm,2021.1.4,60.002117357428375,
J,right,Target,0,4,4,4,2406.2678397966083,2408.2678943329374,right,1,4,0.9139105501235463,H25N04,2022-10-20_10h44.59.930,t1_Paradigm,2021.1.4,60.002117357428375,
G,right,Target,0,5,5,5,2409.767826643714,2411.768313941895,left,0,4,0.32530312571907416,H25N04,2022-10-20_10h44.59.930,t1_Paradigm,2021.1.4,60.002117357428375,
H,left,Distractor,0,6,6,6,2413.2679770998657,2415.268317149952,left,1,4,0.5853416604804806,H25N04,2022-10-20_10h44.59.930,t1_Paradigm,2021.1.4,60.002117357428375,
P,left,Distractor,0,7,7,7,2416.7682979017845,2418.7678064331994,left,1,4,0.49386049224995077,H25N04,2022-10-20_10h44.59.930,t1_Paradigm,2021.1.4,60.002117357428375,
G,left,Lure,0,8,8,8,2420.2680332402233,2422.2682295709965,right,0,4,0.6578072929987684,H25N04,2022-10-20_10h44.59.930,t1_Paradigm,2021.1.4,60.002117357428375,
S,left,Distractor,0,9,9,9,2423.768081039714,2425.7682006988325,left,1,4,0.30944235634524375,H25N04,2022-10-20_10h44.59.930,t1_Paradigm,2021.1.4,60.002117357428375,
R,left,Pretarget,0,10,10,10,2427.2681172903394,2429.2682565183495,left,1,4,0.3295370699488558,H25N04,2022-10-20_10h44.59.930,t1_Paradigm,2021.1.4,60.002117357428375,
T,left,Pretarget,0,11,11,11,2430.7680287489784,2432.7691874856246,left,1,4,0.524604226637166,H25N04,2022-10-20_10h44.59.930,t1_Paradigm,2021.1.4,60.002117357428375,
X,left,Distractor,0,12,12,12,2434.2679912151652,2436.2679847991094,left,1,4,0.3697008329327218,H25N04,2022-10-20_10h44.59.930,t1_Paradigm,2021.1.4,60.002117357428375,
F,left,Pretarget,0,13,13,13,2437.767998272786,2439.7685824531363,left,1,4,0.38912474957760423,H25N04,2022-10-20_10h44.59.930,t1_Paradigm,2021.1.4,60.002117357428375,
R,right,Target,0,14,14,14,2441.2680351650342,2443.269436427916,right,1,4,0.7284058580989949,H25N04,2022-10-20_10h44.59.930,t1_Paradigm,2021.1.4,60.002117357428375,
T,right,Target,0,15,15,15,2444.7679886487313,2446.767455155088,left,0,4,0.3505412570666522,H25N04,2022-10-20_10h44.59.930,t1_Paradigm,2021.1.4,60.002117357428375,
C,left,Distractor,0,16,16,16,2448.2681686186115,2450.2686908842297,left,1,4,0.5769876568228938,H25N04,2022-10-20_10h44.59.930,t1_Paradigm,2021.1.4,60.002117357428375,
F,right,Target,0,17,17,17,2451.7677993755788,2453.7697331697564,right,1,4,0.7240644452976994,H25N04,2022-10-20_10h44.59.930,t1_Paradigm,2021.1.4,60.002117357428375,
M,left,Distractor,0,18,18,18,2455.2678551950958,2457.2684316762025,left,1,4,0.6331247906782664,H25N04,2022-10-20_10h44.59.930,t1_Paradigm,2021.1.4,60.002117357428375,
N,left,Distractor,0,19,19,19,2458.768152578501,2460.7696917863213,left,1,4,0.3961403675493784,H25N04,2022-10-20_10h44.59.930,t1_Paradigm,2021.1.4,60.002117357428375,
R,left,Lure,0,20,20,20,2462.2682674256503,2464.267802904418,left,1,4,0.3538185697980225,H25N04,2022-10-20_10h44.59.930,t1_Paradigm,2021.1.4,60.002117357428375,
F,right,Target,0,21,21,21,2465.7677092302474,2467.768055375549,right,1,4,0.6937451318372041,H25N04,2022-10-20_10h44.59.930,t1_Paradigm,2021.1.4,60.002117357428375,
P,left,Distractor,0,22,22,22,2469.2677663329523,2471.2687178315828,left,1,4,0.3130834585754201,H25N04,2022-10-20_10h44.59.930,t1_Paradigm,2021.1.4,60.002117357428375,
L,left,Pretarget,0,23,23,23,2472.768201661238,2474.7691521974048,left,1,4,0.33261067350395024,H25N04,2022-10-20_10h44.59.930,t1_Paradigm,2021.1.4,60.002117357428375,
T,left,Distractor,0,24,24,24,2476.268334794033,2478.2683380020317,left,1,4,0.4654983915388584,H25N04,2022-10-20_10h44.59.930,t1_Paradigm,2021.1.4,60.002117357428375,
F,left,Distractor,0,25,25,25,2479.76776601217,2481.7693350545014,right,0,4,0.6602309517329559,H25N04,2022-10-20_10h44.59.930,t1_Paradigm,2021.1.4,60.002117357428375,
V,left,Distractor,0,26,26,26,2483.2679029945866,2485.2694983427064,left,1,4,0.584189981513191,H25N04,2022-10-20_10h44.59.930,t1_Paradigm,2021.1.4,60.002117357428375,
L,right,Target,0,27,27,27,2486.7681836963166,2488.768348588492,right,1,4,0.8453728167805821,H25N04,2022-10-20_10h44.59.930,t1_Paradigm,2021.1.4,60.002117357428375,
S,left,Pretarget,0,28,28,28,2490.267694473325,2492.268069811631,left,1,4,0.5616148271947168,H25N04,2022-10-20_10h44.59.930,t1_Paradigm,2021.1.4,60.002117357428375,
W,left,Distractor,0,29,29,29,2493.767778523441,2495.7697103928076,left,1,4,0.6121199619956315,H25N04,2022-10-20_10h44.59.930,t1_Paradigm,2021.1.4,60.002117357428375,
Q,left,Distractor,0,30,30,30,2497.267911656236,2499.268502252642,left,1,4,0.6170368934981525,H25N04,2022-10-20_10h44.59.930,t1_Paradigm,2021.1.4,60.002117357428375,
L,right,Target,0,31,31,31,2500.767867064802,2502.7682218717528,right,1,4,0.8613490748684853,H25N04,2022-10-20_10h44.59.930,t1_Paradigm,2021.1.4,60.002117357428375,
S,right,Target,0,32,32,32,2504.2676668843487,2506.2680791149032,left,0,4,0.6096420876565389,H25N04,2022-10-20_10h44.59.930,t1_Paradigm,2021.1.4,60.002117357428375,
Z,left,Pretarget,0,33,33,33,2507.767881500884,2509.769631154719,left,1,4,0.8200272168032825,H25N04,2022-10-20_10h44.59.930,t1_Paradigm,2021.1.4,60.002117357428375,
F,left,Distractor,0,34,34,34,2511.2678779720445,2513.2689369393047,left,1,4,1.2568375728442334,H25N04,2022-10-20_10h44.59.930,t1_Paradigm,2021.1.4,60.002117357428375,
V,left,Distractor,0,35,35,35,2514.768031636195,2516.767565190152,left,1,4,0.9102088164072484,H25N04,2022-10-20_10h44.59.930,t1_Paradigm,2021.1.4,60.002117357428375,
M,left,Distractor,0,36,36,36,2518.26799025276,2520.2683258116012,left,1,4,0.6892818142077886,H25N04,2022-10-20_10h44.59.930,t1_Paradigm,2021.1.4,60.002117357428375,
Z,right,Target,0,37,37,37,2521.767770824197,2523.768258122378,right,1,4,0.6934323499444872,H25N04,2022-10-20_10h44.59.930,t1_Paradigm,2021.1.4,60.002117357428375,
H,left,Pretarget,0,38,38,38,2525.268116327934,2527.268862513243,left,1,4,0.3129256240208633,H25N04,2022-10-20_10h44.59.930,t1_Paradigm,2021.1.4,60.002117357428375,
L,left,Distractor,0,39,39,39,2528.767747726466,2530.7694274454843,left,1,4,0.4282965929596685,H25N04,2022-10-20_10h44.59.930,t1_Paradigm,2021.1.4,60.002117357428375,
G,left,Distractor,0,40,40,40,2532.2678096412565,2534.2681022126344,left,1,4,0.6096513909287751,H25N04,2022-10-20_10h44.59.930,t1_Paradigm,2021.1.4,60.002117357428375,
K,left,Distractor,0,41,41,41,2535.7680412602494,2537.7688169593457,left,1,4,0.5168238168116659,H25N04,2022-10-20_10h44.59.930,t1_Paradigm,2021.1.4,60.002117357428375,
H,right,Target,0,42,42,42,2539.268025861762,2541.268052809115,left,0,4,0.6335004497668706,H25N04,2022-10-20_10h44.59.930,t1_Paradigm,2021.1.4,60.002117357428375,
B,left,Distractor,0,43,43,43,2542.768088738958,2544.769284688635,left,1,4,0.4924633997143246,H25N04,2022-10-20_10h44.59.930,t1_Paradigm,2021.1.4,60.002117357428375,
Z,left,Distractor,0,44,44,44,2546.2680155960843,2548.2682754456764,left,1,4,1.2173394739511423,H25N04,2022-10-20_10h44.59.930,t1_Paradigm,2021.1.4,60.002117357428375,
T,left,Pretarget,0,45,45,45,2549.7676332001574,2551.768320999574,left,1,4,0.6135237913113087,H25N04,2022-10-20_10h44.59.930,t1_Paradigm,2021.1.4,60.002117357428375,
H,right,Target,0,46,46,46,2553.2681718266685,2555.2681516160956,left,0,4,0.48959575104527175,H25N04,2022-10-20_10h44.59.930,t1_Paradigm,2021.1.4,60.002117357428375,
F,left,Distractor,0,47,47,47,2556.7680143128964,2558.768705641094,left,1,4,1.2294118930585682,H25N04,2022-10-20_10h44.59.930,t1_Paradigm,2021.1.4,60.002117357428375,
R,left,Distractor,0,48,48,48,2560.2681034958223,2562.2683376812492,right,0,4,0.9934633394004777,H25N04,2022-10-20_10h44.59.930,t1_Paradigm,2021.1.4,60.002117357428375,
T,right,Target,0,49,49,49,2563.76794598205,2565.769560578279,left,0,4,0.8200753370765597,H25N04,2022-10-20_10h44.59.930,t1_Paradigm,2021.1.4,60.002117357428375,
H,right,Target,0,50,50,50,2567.2678798968554,2569.2682100021048,right,1,4,0.6496740010916255,H25N04,2022-10-20_10h44.59.930,t1_Paradigm,2021.1.4,60.002117357428375,
Y,left,Pretarget,0,51,51,51,2570.767804187606,2572.7680675659794,left,1,4,0.7175178398028947,H25N04,2022-10-20_10h44.59.930,t1_Paradigm,2021.1.4,60.002117357428375,
H,left,Distractor,0,52,52,52,2574.2679889695137,2576.2696921071038,right,0,4,0.7197762855794281,H25N04,2022-10-20_10h44.59.930,t1_Paradigm,2021.1.4,60.002117357428375,
S,left,Distractor,0,53,53,53,2577.76792480913,2579.7696446283953,left,1,4,0.7080528989317827,H25N04,2022-10-20_10h44.59.930,t1_Paradigm,2021.1.4,60.002117357428375,
Q,left,Distractor,0,54,54,54,2581.2675821926678,2583.2682962978142,left,1,4,0.6493714848184027,H25N04,2022-10-20_10h44.59.930,t1_Paradigm,2021.1.4,60.002117357428375,
Y,right,Target,0,55,55,55,2584.7677993755788,2586.768705641094,left,0,4,0.7490831480245106,H25N04,2022-10-20_10h44.59.930,t1_Paradigm,2021.1.4,60.002117357428375,
R,left,Distractor,0,56,56,56,2588.267897220154,2590.2678320973646,left,1,4,0.657698220340535,H25N04,2022-10-20_10h44.59.930,t1_Paradigm,2021.1.4,60.002117357428375,
H,left,Pretarget,0,57,57,57,2591.7679363579955,2593.768755365396,right,0,4,0.6290310369222425,H25N04,2022-10-20_10h44.59.930,t1_Paradigm,2021.1.4,60.002117357428375,
J,left,Distractor,0,58,58,58,2595.268137500854,2597.269231756276,left,1,4,0.6486532092676498,H25N04,2022-10-20_10h44.59.930,t1_Paradigm,2021.1.4,60.002117357428375,
V,left,Distractor,0,59,59,59,2598.7681888291263,2600.7696500820457,left,1,4,0.7961714211851358,H25N04,2022-10-20_10h44.59.930,t1_Paradigm,2021.1.4,60.002117357428375,
Y,left,Lure,0,60,60,60,2602.2680964382016,2604.2682773704873,left,1,4,0.38531266001518816,H25N04,2022-10-20_10h44.59.930,t1_Paradigm,2021.1.4,60.002117357428375,
H,right,Target,0,61,61,61,2605.7679533605115,2607.7688490395667,left,0,4,1.365029314882122,H25N04,2022-10-20_10h44.59.930,t1_Paradigm,2021.1.4,60.002117357428375,
L,left,Distractor,0,62,62,62,2609.268115044688,2611.2679119770764,left,1,4,0.5858661716920324,H25N04,2022-10-20_10h44.59.930,t1_Paradigm,2021.1.4,60.002117357428375,
P,left,Distractor,0,63,63,63,2612.7679357164307,2614.7681323679863,left,1,4,0.6215659754816443,H25N04,2022-10-20_10h44.59.930,t1_Paradigm,2021.1.4,60.002117357428375,
