Letter,CorrAnswer,Stimulus,nback_run.thisRepN,nback_run.thisTrialN,nback_run.thisN,nback_run.thisIndex,fixcross.started,nback_trial.started,trial_resp.keys,trial_resp.corr,currentlevel,trial_resp.rt,Participant,date,expName,psychopyVersion,frameRate,
H,left,Distractor,0,0,0,0,249.56190565403085,251.5218849558878,None,0,1,,J04I08,2023-01-25_09h18.03.317,t1_Paradigm,2021.1.4,60.05434814123448,
Q,left,Pretarget,0,1,1,1,253.01155015722907,255.01218149568012,left,1,1,0.6094911854888778,J04I08,2023-01-25_09h18.03.317,t1_Paradigm,2021.1.4,60.05434814123448,
Q,right,Target,0,2,2,2,256.5088671292324,258.50889888864185,right,1,1,0.6647573597729206,J04I08,2023-01-25_09h18.03.317,t1_Paradigm,2021.1.4,60.05434814123448,
T,left,Distractor,0,3,3,3,260.0089407533087,262.0108565831906,left,1,1,0.8426539697393309,J04I08,2023-01-25_09h18.03.317,t1_Paradigm,2021.1.4,60.05434814123448,
Q,left,Lure,0,4,4,4,263.50890530468314,265.51070307940245,left,1,1,1.231192097227904,J04I08,2023-01-25_09h18.03.317,t1_Paradigm,2021.1.4,60.05434814123448,
L,left,Distractor,0,5,5,5,267.0088506079337,269.0111719316046,left,1,1,0.6423612057988066,J04I08,2023-01-25_09h18.03.317,t1_Paradigm,2021.1.4,60.05434814123448,
V,left,Pretarget,0,6,6,6,270.508940272106,272.5113049040665,left,1,1,0.5502204391377745,J04I08,2023-01-25_09h18.03.317,t1_Paradigm,2021.1.4,60.05434814123448,
V,right,Target,0,7,7,7,274.00886376081326,276.0088935954118,right,1,1,0.5246521944209235,J04I08,2023-01-25_09h18.03.317,t1_Paradigm,2021.1.4,60.05434814123448,
K,left,Distractor,0,8,8,8,277.50893257286225,279.5098625780229,left,1,1,0.5757408843346639,J04I08,2023-01-25_09h18.03.317,t1_Paradigm,2021.1.4,60.05434814123448,
G,left,Pretarget,0,9,9,9,281.0088688936521,283.0108273902006,left,1,1,0.5788709499902325,J04I08,2023-01-25_09h18.03.317,t1_Paradigm,2021.1.4,60.05434814123448,
G,right,Target,0,10,10,10,284.50885108913644,286.5089351392671,right,1,1,0.6167037781269755,J04I08,2023-01-25_09h18.03.317,t1_Paradigm,2021.1.4,60.05434814123448,
G,right,Target,0,11,11,11,288.0089112395217,290.00888910418143,right,1,1,0.6526162851223489,J04I08,2023-01-25_09h18.03.317,t1_Paradigm,2021.1.4,60.05434814123448,
P,left,Pretarget,0,12,12,12,291.50891428714385,293.51077782629,left,1,1,0.5427409391850233,J04I08,2023-01-25_09h18.03.317,t1_Paradigm,2021.1.4,60.05434814123448,
P,right,Target,0,13,13,13,295.0088445126894,297.00898534480075,right,1,1,0.4045365260390099,J04I08,2023-01-25_09h18.03.317,t1_Paradigm,2021.1.4,60.05434814123448,
G,left,Lure,0,14,14,14,298.5089271192264,300.5106963425642,left,1,1,0.6469923042895971,J04I08,2023-01-25_09h18.03.317,t1_Paradigm,2021.1.4,60.05434814123448,
Y,left,Distractor,0,15,15,15,302.0089413949172,304.01077894908667,left,1,1,0.6507395930966595,J04I08,2023-01-25_09h18.03.317,t1_Paradigm,2021.1.4,60.05434814123448,
B,left,Distractor,0,16,16,16,305.5089004926558,307.5108493651496,left,1,1,0.494774615712231,J04I08,2023-01-25_09h18.03.317,t1_Paradigm,2021.1.4,60.05434814123448,
T,left,Pretarget,0,17,17,17,309.00840597627393,311.0105251946661,left,1,1,0.6429970354656689,J04I08,2023-01-25_09h18.03.317,t1_Paradigm,2021.1.4,60.05434814123448,
T,right,Target,0,18,18,18,312.5088212545379,314.5089575954189,right,1,1,0.7286056306620594,J04I08,2023-01-25_09h18.03.317,t1_Paradigm,2021.1.4,60.05434814123448,
S,left,Distractor,0,19,19,19,316.0088660064357,318.01087101928715,left,1,1,0.5547357280738652,J04I08,2023-01-25_09h18.03.317,t1_Paradigm,2021.1.4,60.05434814123448,
T,left,Lure,0,20,20,20,319.5081142068084,321.5111156308558,left,1,1,1.0224917529849336,J04I08,2023-01-25_09h18.03.317,t1_Paradigm,2021.1.4,60.05434814123448,
J,left,Distractor,0,21,21,21,323.0088775553013,325.01211156083446,left,1,1,0.5136156412918353,J04I08,2023-01-25_09h18.03.317,t1_Paradigm,2021.1.4,60.05434814123448,
P,left,Distractor,0,22,22,22,326.5089033798722,328.51068479368405,left,1,1,0.4069662808178691,J04I08,2023-01-25_09h18.03.317,t1_Paradigm,2021.1.4,60.05434814123448,
F,left,Distractor,0,23,23,23,330.00792381078645,332.0107786282897,left,1,1,0.47491985562373884,J04I08,2023-01-25_09h18.03.317,t1_Paradigm,2021.1.4,60.05434814123448,
L,left,Distractor,0,24,24,24,333.5089316104568,335.5109417561325,left,1,1,0.5265673827088904,J04I08,2023-01-25_09h18.03.317,t1_Paradigm,2021.1.4,60.05434814123448,
W,left,Pretarget,0,25,25,25,337.00893048764556,339.01085626239365,left,1,1,0.4346633679670049,J04I08,2023-01-25_09h18.03.317,t1_Paradigm,2021.1.4,60.05434814123448,
W,right,Target,0,26,26,26,340.508893755803,342.50890113424975,right,1,1,0.7927153552300297,J04I08,2023-01-25_09h18.03.317,t1_Paradigm,2021.1.4,60.05434814123448,
V,left,Distractor,0,27,27,27,344.00889680342516,346.0107715706399,left,1,1,0.5068374146212591,J04I08,2023-01-25_09h18.03.317,t1_Paradigm,2021.1.4,60.05434814123448,
W,left,Lure,0,28,28,28,347.50877730465436,349.5216097077209,left,1,1,0.49998861152562313,J04I08,2023-01-25_09h18.03.317,t1_Paradigm,2021.1.4,60.05434814123448,
R,left,Pretarget,0,29,29,29,351.00890963550773,353.0113050644577,left,1,1,0.4182222625677241,J04I08,2023-01-25_09h18.03.317,t1_Paradigm,2021.1.4,60.05434814123448,
R,right,Target,0,30,30,30,354.50893128964526,356.5089120415214,right,1,1,0.472681940489565,J04I08,2023-01-25_09h18.03.317,t1_Paradigm,2021.1.4,60.05434814123448,
G,left,Distractor,0,31,31,31,358.00891508914356,360.00798636718537,left,1,1,0.4455478609306738,J04I08,2023-01-25_09h18.03.317,t1_Paradigm,2021.1.4,60.05434814123448,
R,left,Lure,0,32,32,32,361.507959259412,363.51047755556647,left,1,1,0.4952285506151384,J04I08,2023-01-25_09h18.03.317,t1_Paradigm,2021.1.4,60.05434814123448,
S,left,Distractor,0,33,33,33,365.0088470791088,367.0107006733888,left,1,1,0.5149142480076989,J04I08,2023-01-25_09h18.03.317,t1_Paradigm,2021.1.4,60.05434814123448,
R,left,Lure,0,34,34,34,368.50895246258005,370.51063988139504,left,1,1,0.47096981991489884,J04I08,2023-01-25_09h18.03.317,t1_Paradigm,2021.1.4,60.05434814123448,
P,left,Pretarget,0,35,35,35,372.0089189387654,374.0110497060232,left,1,1,0.4424774644576246,J04I08,2023-01-25_09h18.03.317,t1_Paradigm,2021.1.4,60.05434814123448,
P,right,Target,0,36,36,36,375.50894091371447,377.50893064803677,right,1,1,0.5926173181214835,J04I08,2023-01-25_09h18.03.317,t1_Paradigm,2021.1.4,60.05434814123448,
Y,left,Pretarget,0,37,37,37,379.00884611670335,381.0109865080158,left,1,1,0.46653729789250065,J04I08,2023-01-25_09h18.03.317,t1_Paradigm,2021.1.4,60.05434814123448,
Y,right,Target,0,38,38,38,382.5090400415502,384.50891428714385,left,0,1,0.6487047456466826,J04I08,2023-01-25_09h18.03.317,t1_Paradigm,2021.1.4,60.05434814123448,
J,left,Distractor,0,39,39,39,386.0088935954118,388.0107520017191,left,1,1,0.6027777608396718,J04I08,2023-01-25_09h18.03.317,t1_Paradigm,2021.1.4,60.05434814123448,
Y,left,Lure,0,40,40,40,389.50885461796133,391.5106751696294,left,1,1,0.5268775982985971,J04I08,2023-01-25_09h18.03.317,t1_Paradigm,2021.1.4,60.05434814123448,
T,left,Distractor,0,41,41,41,393.0090013848967,395.01065672350524,left,1,1,0.5951077044883277,J04I08,2023-01-25_09h18.03.317,t1_Paradigm,2021.1.4,60.05434814123448,
V,left,Distractor,0,42,42,42,396.5090470991854,398.51061582124385,left,1,1,0.45501472962496337,J04I08,2023-01-25_09h18.03.317,t1_Paradigm,2021.1.4,60.05434814123448,
N,left,Pretarget,0,43,43,43,400.00880056280585,402.0112720218458,left,1,1,0.8262420573446434,J04I08,2023-01-25_09h18.03.317,t1_Paradigm,2021.1.4,60.05434814123448,
N,right,Target,0,44,44,44,403.50893770568655,405.5088684124494,right,1,1,1.3767990178312175,J04I08,2023-01-25_09h18.03.317,t1_Paradigm,2021.1.4,60.05434814123448,
N,right,Target,0,45,45,45,407.0088605527999,409.00898149516433,right,1,1,0.46853589470265433,J04I08,2023-01-25_09h18.03.317,t1_Paradigm,2021.1.4,60.05434814123448,
X,left,Distractor,0,46,46,46,410.5088491643255,412.51114642784523,left,1,1,0.4704818799800705,J04I08,2023-01-25_09h18.03.317,t1_Paradigm,2021.1.4,60.05434814123448,
Z,left,Distractor,0,47,47,47,414.0089138059411,416.00803833712416,left,1,1,0.4614955727738561,J04I08,2023-01-25_09h18.03.317,t1_Paradigm,2021.1.4,60.05434814123448,
H,left,Pretarget,0,48,48,48,417.5088838109368,419.51091480876494,left,1,1,0.4947964302409673,J04I08,2023-01-25_09h18.03.317,t1_Paradigm,2021.1.4,60.05434814123448,
H,right,Target,0,49,49,49,421.0089134851296,423.0089182971715,right,1,1,0.6927258454379626,J04I08,2023-01-25_09h18.03.317,t1_Paradigm,2021.1.4,60.05434814123448,
K,left,Distractor,0,50,50,50,424.5088998510473,426.5080988083064,left,1,1,0.5694274998677429,J04I08,2023-01-25_09h18.03.317,t1_Paradigm,2021.1.4,60.05434814123448,
V,left,Pretarget,0,51,51,51,428.0089154099405,430.01055182123673,left,1,1,0.4111588428932009,J04I08,2023-01-25_09h18.03.317,t1_Paradigm,2021.1.4,60.05434814123448,
V,right,Target,0,52,52,52,431.50884820192005,433.5088972846279,right,1,1,0.6726587144075893,J04I08,2023-01-25_09h18.03.317,t1_Paradigm,2021.1.4,60.05434814123448,
R,left,Distractor,0,53,53,53,435.00885477835254,437.01078023230366,left,1,1,0.4827352353167953,J04I08,2023-01-25_09h18.03.317,t1_Paradigm,2021.1.4,60.05434814123448,
V,left,Lure,0,54,54,54,438.5088254249713,440.51077622227604,left,1,1,0.5507433464808855,J04I08,2023-01-25_09h18.03.317,t1_Paradigm,2021.1.4,60.05434814123448,
Y,left,Distractor,0,55,55,55,442.0088781969098,444.01081135010463,left,1,1,0.5707511291402625,J04I08,2023-01-25_09h18.03.317,t1_Paradigm,2021.1.4,60.05434814123448,
Q,left,Distractor,0,56,56,56,445.5088244625658,447.5106924929423,left,1,1,0.4950739240157418,J04I08,2023-01-25_09h18.03.317,t1_Paradigm,2021.1.4,60.05434814123448,
Z,left,Pretarget,0,57,57,57,449.00786670802336,451.0108091044822,left,1,1,0.4349354081059573,J04I08,2023-01-25_09h18.03.317,t1_Paradigm,2021.1.4,60.05434814123448,
Z,right,Target,0,58,58,58,452.5089611242438,454.5089213447791,left,0,1,0.936722435959382,J04I08,2023-01-25_09h18.03.317,t1_Paradigm,2021.1.4,60.05434814123448,
B,left,Distractor,0,59,59,59,456.00889616181666,458.01052134504425,left,1,1,0.5870283046824625,J04I08,2023-01-25_09h18.03.317,t1_Paradigm,2021.1.4,60.05434814123448,
S,left,Pretarget,0,60,60,60,459.5089123623329,461.51020904423785,left,1,1,0.5273087562527508,J04I08,2023-01-25_09h18.03.317,t1_Paradigm,2021.1.4,60.05434814123448,
S,right,Target,0,61,61,61,463.02551884118293,465.00882173574064,right,1,1,0.5808679428009782,J04I08,2023-01-25_09h18.03.317,t1_Paradigm,2021.1.4,60.05434814123448,
T,left,Distractor,0,62,62,62,466.50890498388617,468.51090197668236,left,1,1,0.3907600025268039,J04I08,2023-01-25_09h18.03.317,t1_Paradigm,2021.1.4,60.05434814123448,
D,left,Distractor,0,63,63,63,470.0088291141874,472.0117102374643,left,1,1,0.6178015627665445,J04I08,2023-01-25_09h18.03.317,t1_Paradigm,2021.1.4,60.05434814123448,
R,left,Distractor,0,0,0,0,482.65567192471644,484.66046470744186,None,0,1,,J04I08,2023-01-25_09h18.03.317,t1_Paradigm,2021.1.4,60.05434814123448,
V,left,Distractor,0,1,1,1,486.15889005054487,488.16046550944156,left,1,1,1.0930941903643543,J04I08,2023-01-25_09h18.03.317,t1_Paradigm,2021.1.4,60.05434814123448,
N,left,Pretarget,0,2,2,2,489.658833108173,491.6611525070475,left,1,1,0.8884792603057576,J04I08,2023-01-25_09h18.03.317,t1_Paradigm,2021.1.4,60.05434814123448,
N,right,Target,0,3,3,3,493.1588679152046,495.158825890132,right,1,1,0.9748221713962266,J04I08,2023-01-25_09h18.03.317,t1_Paradigm,2021.1.4,60.05434814123448,
S,left,Distractor,0,4,4,4,496.6589200455346,498.6605580608302,left,1,1,0.752993002985022,J04I08,2023-01-25_09h18.03.317,t1_Paradigm,2021.1.4,60.05434814123448,
N,left,Lure,0,5,5,5,500.15882621092896,502.160557900439,left,1,1,1.2529716696444666,J04I08,2023-01-25_09h18.03.317,t1_Paradigm,2021.1.4,60.05434814123448,
Z,left,Distractor,0,6,6,6,503.65885588512174,505.66047336909105,left,1,1,0.7292642372776754,J04I08,2023-01-25_09h18.03.317,t1_Paradigm,2021.1.4,60.05434814123448,
L,left,Pretarget,0,7,7,7,507.1589070530463,509.16073722878355,left,1,1,0.5889884052594425,J04I08,2023-01-25_09h18.03.317,t1_Paradigm,2021.1.4,60.05434814123448,
L,right,Target,0,8,8,8,510.6588517147029,512.65878755429,right,1,1,0.6107407094968949,J04I08,2023-01-25_09h18.03.317,t1_Paradigm,2021.1.4,60.05434814123448,
H,left,Distractor,0,9,9,9,514.1589404164697,516.1607821410726,left,1,1,0.5327264613879379,J04I08,2023-01-25_09h18.03.317,t1_Paradigm,2021.1.4,60.05434814123448,
L,left,Lure,0,10,10,10,517.6590393838997,519.6608355546196,left,1,1,0.9527057568193413,J04I08,2023-01-25_09h18.03.317,t1_Paradigm,2021.1.4,60.05434814123448,
X,left,Pretarget,0,11,11,11,521.1589570981741,523.1606987325358,left,1,1,0.5088077808613889,J04I08,2023-01-25_09h18.03.317,t1_Paradigm,2021.1.4,60.05434814123448,
X,right,Target,0,12,12,12,524.6588924565585,526.6588921357616,left,0,1,0.45064283919055015,J04I08,2023-01-25_09h18.03.317,t1_Paradigm,2021.1.4,60.05434814123448,
X,right,Target,0,13,13,13,528.1588637447712,530.1588826720981,right,1,1,0.5346634642046411,J04I08,2023-01-25_09h18.03.317,t1_Paradigm,2021.1.4,60.05434814123448,
R,left,Distractor,0,14,14,14,531.6588873237197,533.6603902813658,left,1,1,0.5371599458012497,J04I08,2023-01-25_09h18.03.317,t1_Paradigm,2021.1.4,60.05434814123448,
T,left,Distractor,0,15,15,15,535.1589076946548,537.1609589030122,left,1,1,0.4127551539277192,J04I08,2023-01-25_09h18.03.317,t1_Paradigm,2021.1.4,60.05434814123448,
V,left,Pretarget,0,16,16,16,538.6588674340019,540.6607733190176,left,1,1,0.3687754376005614,J04I08,2023-01-25_09h18.03.317,t1_Paradigm,2021.1.4,60.05434814123448,
V,right,Target,0,17,17,17,542.1589092986687,544.1589214891428,right,1,1,0.5829913316119928,J04I08,2023-01-25_09h18.03.317,t1_Paradigm,2021.1.4,60.05434814123448,
N,left,Distractor,0,18,18,18,545.6588051983999,547.6610007676791,left,1,1,0.48859532648930326,J04I08,2023-01-25_09h18.03.317,t1_Paradigm,2021.1.4,60.05434814123448,
B,left,Distractor,0,19,19,19,549.1588878049224,551.1608761360694,left,1,1,0.5248552621342242,J04I08,2023-01-25_09h18.03.317,t1_Paradigm,2021.1.4,60.05434814123448,
V,left,Lure,0,20,20,20,552.6589113838854,554.6609706122836,left,1,1,0.40060253042611293,J04I08,2023-01-25_09h18.03.317,t1_Paradigm,2021.1.4,60.05434814123448,
P,left,Distractor,0,21,21,21,556.1588730480289,558.1606063415384,left,1,1,0.4369628770946292,J04I08,2023-01-25_09h18.03.317,t1_Paradigm,2021.1.4,60.05434814123448,
K,left,Pretarget,0,22,22,22,559.6588308625651,561.6609048478567,left,1,1,0.44081827622721903,J04I08,2023-01-25_09h18.03.317,t1_Paradigm,2021.1.4,60.05434814123448,
K,right,Target,0,23,23,23,563.158992065597,565.1589099402772,right,1,1,0.8147826870845165,J04I08,2023-01-25_09h18.03.317,t1_Paradigm,2021.1.4,60.05434814123448,
J,left,Pretarget,0,24,24,24,566.6589595041878,568.6607569581101,left,1,1,0.4812091799394693,J04I08,2023-01-25_09h18.03.317,t1_Paradigm,2021.1.4,60.05434814123448,
J,right,Target,0,25,25,25,570.158872406435,572.1589057698438,right,1,1,0.6946711891214363,J04I08,2023-01-25_09h18.03.317,t1_Paradigm,2021.1.4,60.05434814123448,
H,left,Distractor,0,26,26,26,573.6588963061804,575.6606186924182,left,1,1,0.473022632257198,J04I08,2023-01-25_09h18.03.317,t1_Paradigm,2021.1.4,60.05434814123448,
J,left,Lure,0,27,27,27,577.1588817096927,579.1604616598197,right,0,1,1.0530930611421354,J04I08,2023-01-25_09h18.03.317,t1_Paradigm,2021.1.4,60.05434814123448,
V,left,Distractor,0,28,28,28,580.658921328737,582.660293078341,left,1,1,0.44922104448778555,J04I08,2023-01-25_09h18.03.317,t1_Paradigm,2021.1.4,60.05434814123448,
Z,left,Pretarget,0,29,29,29,584.1588614991633,586.1579533085314,left,1,1,0.5036018050886923,J04I08,2023-01-25_09h18.03.317,t1_Paradigm,2021.1.4,60.05434814123448,
Z,right,Target,0,30,30,30,587.6589168375212,589.6590178901679,left,0,1,0.4586462089064298,J04I08,2023-01-25_09h18.03.317,t1_Paradigm,2021.1.4,60.05434814123448,
T,left,Distractor,0,31,31,31,591.1589150731015,593.1607061109826,left,1,1,0.5569543950987281,J04I08,2023-01-25_09h18.03.317,t1_Paradigm,2021.1.4,60.05434814123448,
Z,left,Lure,0,32,32,32,594.6589145918988,596.6606536598556,left,1,1,0.6250699749507476,J04I08,2023-01-25_09h18.03.317,t1_Paradigm,2021.1.4,60.05434814123448,
F,left,Distractor,0,33,33,33,598.1589054490469,600.1607994643855,left,1,1,0.46882686216849834,J04I08,2023-01-25_09h18.03.317,t1_Paradigm,2021.1.4,60.05434814123448,
Y,left,Pretarget,0,34,34,34,601.6588722460292,603.6580760153302,left,1,1,0.45962882561434526,J04I08,2023-01-25_09h18.03.317,t1_Paradigm,2021.1.4,60.05434814123448,
Y,right,Target,0,35,35,35,605.1589038450329,607.1589044866414,right,1,1,0.5427573000924895,J04I08,2023-01-25_09h18.03.317,t1_Paradigm,2021.1.4,60.05434814123448,
Y,right,Target,0,36,36,36,608.6589530881465,610.6588857197203,right,1,1,0.4987759797659237,J04I08,2023-01-25_09h18.03.317,t1_Paradigm,2021.1.4,60.05434814123448,
W,left,Distractor,0,37,37,37,612.1588643863797,614.1608530383237,left,1,1,0.37279348335869145,J04I08,2023-01-25_09h18.03.317,t1_Paradigm,2021.1.4,60.05434814123448,
Q,left,Distractor,0,38,38,38,615.6588581307442,617.6604043966508,left,1,1,0.3453488674276741,J04I08,2023-01-25_09h18.03.317,t1_Paradigm,2021.1.4,60.05434814123448,
P,left,Pretarget,0,39,39,39,619.1590087473014,621.1606085871608,left,1,1,0.5730538463103585,J04I08,2023-01-25_09h18.03.317,t1_Paradigm,2021.1.4,60.05434814123448,
P,right,Target,0,40,40,40,622.6588866821257,624.658952446538,left,0,1,0.6587256394996075,J04I08,2023-01-25_09h18.03.317,t1_Paradigm,2021.1.4,60.05434814123448,
J,left,Distractor,0,41,41,41,626.1578570679267,628.1580059200787,left,1,1,0.5676319707417861,J04I08,2023-01-25_09h18.03.317,t1_Paradigm,2021.1.4,60.05434814123448,
P,left,Lure,0,42,42,42,629.6588696796098,631.6607685069903,left,1,1,0.552646985888714,J04I08,2023-01-25_09h18.03.317,t1_Paradigm,2021.1.4,60.05434814123448,
L,left,Distractor,0,43,43,43,633.1588980706001,635.1604590934003,left,1,1,0.4292600989283528,J04I08,2023-01-25_09h18.03.317,t1_Paradigm,2021.1.4,60.05434814123448,
Z,left,Distractor,0,44,44,44,636.6588375994033,638.6607348227699,left,1,1,0.4487828288692981,J04I08,2023-01-25_09h18.03.317,t1_Paradigm,2021.1.4,60.05434814123448,
F,left,Pretarget,0,45,45,45,640.158929829995,642.1606746723846,left,1,1,0.48506265424657613,J04I08,2023-01-25_09h18.03.317,t1_Paradigm,2021.1.4,60.05434814123448,
F,right,Target,0,46,46,46,643.6588683964073,645.6588921357616,right,1,1,0.5226673920988105,J04I08,2023-01-25_09h18.03.317,t1_Paradigm,2021.1.4,60.05434814123448,
G,left,Pretarget,0,47,47,47,647.1589352836309,649.1608719656506,left,1,1,0.4450843019585591,J04I08,2023-01-25_09h18.03.317,t1_Paradigm,2021.1.4,60.05434814123448,
G,right,Target,0,48,48,48,650.6588529979053,652.6589909427857,right,1,1,0.5147532053815667,J04I08,2023-01-25_09h18.03.317,t1_Paradigm,2021.1.4,60.05434814123448,
V,left,Distractor,0,49,49,49,654.1589465116995,656.1608969882072,left,1,1,0.4047501802124316,J04I08,2023-01-25_09h18.03.317,t1_Paradigm,2021.1.4,60.05434814123448,
G,left,Lure,0,50,50,50,657.6588815492869,659.6611284468963,left,1,1,0.696534086659085,J04I08,2023-01-25_09h18.03.317,t1_Paradigm,2021.1.4,60.05434814123448,
Q,left,Pretarget,0,51,51,51,661.1588502710947,663.1755422436836,left,1,1,0.5581205105845584,J04I08,2023-01-25_09h18.03.317,t1_Paradigm,2021.1.4,60.05434814123448,
Q,right,Target,0,52,52,52,664.6588988725998,666.6589312736032,right,1,1,0.7226621309528127,J04I08,2023-01-25_09h18.03.317,t1_Paradigm,2021.1.4,60.05434814123448,
Y,left,Distractor,0,53,53,53,668.1588310229708,670.1579869927518,left,1,1,0.615781793007045,J04I08,2023-01-25_09h18.03.317,t1_Paradigm,2021.1.4,60.05434814123448,
V,left,Distractor,0,54,54,54,671.6586662911141,673.6598372186127,left,1,1,0.7139244453428546,J04I08,2023-01-25_09h18.03.317,t1_Paradigm,2021.1.4,60.05434814123448,
B,left,Distractor,0,55,55,55,675.1589009578165,677.160919444359,left,1,1,0.8128424762544455,J04I08,2023-01-25_09h18.03.317,t1_Paradigm,2021.1.4,60.05434814123448,
J,left,Pretarget,0,56,56,56,678.6589639954182,680.6606385821506,left,1,1,0.6569570577557897,J04I08,2023-01-25_09h18.03.317,t1_Paradigm,2021.1.4,60.05434814123448,
J,right,Target,0,57,57,57,682.1589680054458,684.1589789127174,right,1,1,0.6626506526517915,J04I08,2023-01-25_09h18.03.317,t1_Paradigm,2021.1.4,60.05434814123448,
H,left,Distractor,0,58,58,58,685.6589251783735,687.6604829931603,left,1,1,0.8572042678279104,J04I08,2023-01-25_09h18.03.317,t1_Paradigm,2021.1.4,60.05434814123448,
J,left,Lure,0,59,59,59,689.1579853887379,691.1608530383237,left,1,1,1.0847950411698548,J04I08,2023-01-25_09h18.03.317,t1_Paradigm,2021.1.4,60.05434814123448,
D,left,Pretarget,0,60,60,60,692.6589277447783,694.6603440858598,left,1,1,0.6092367894598283,J04I08,2023-01-25_09h18.03.317,t1_Paradigm,2021.1.4,60.05434814123448,
D,right,Target,0,61,61,61,696.1588271733344,698.1588252485235,left,0,1,0.37485559898777865,J04I08,2023-01-25_09h18.03.317,t1_Paradigm,2021.1.4,60.05434814123448,
R,left,Distractor,0,62,62,62,699.659089108216,701.6579839451297,left,1,1,0.4916682893963298,J04I08,2023-01-25_09h18.03.317,t1_Paradigm,2021.1.4,60.05434814123448,
F,left,Distractor,0,63,63,63,703.1588942209637,705.1608697200281,left,1,1,0.5728357009065803,J04I08,2023-01-25_09h18.03.317,t1_Paradigm,2021.1.4,60.05434814123448,
F,left,Distractor,0,0,0,0,818.6735300127912,820.675615546963,None,0,2,,J04I08,2023-01-25_09h18.03.317,t1_Paradigm,2021.1.4,60.05434814123448,
N,left,Pretarget,0,1,1,1,822.1756278978428,824.177700599932,left,1,2,1.4120368781295838,J04I08,2023-01-25_09h18.03.317,t1_Paradigm,2021.1.4,60.05434814123448,
V,left,Distractor,0,2,2,2,825.6755170607357,827.676908058449,left,1,2,0.6325061666138936,J04I08,2023-01-25_09h18.03.317,t1_Paradigm,2021.1.4,60.05434814123448,
N,right,Target,0,3,3,3,829.175513692302,831.1881330828037,None,0,2,,J04I08,2023-01-25_09h18.03.317,t1_Paradigm,2021.1.4,60.05434814123448,
N,left,Lure,0,4,4,4,832.6755032662477,834.6755167399242,None,0,2,,J04I08,2023-01-25_09h18.03.317,t1_Paradigm,2021.1.4,60.05434814123448,
X,left,Distractor,0,5,5,5,836.1755104842887,838.1776139833673,left,1,2,1.0281086761824554,J04I08,2023-01-25_09h18.03.317,t1_Paradigm,2021.1.4,60.05434814123448,
G,left,Pretarget,0,6,6,6,839.6755937324197,841.6772509958391,left,1,2,0.6161811915662838,J04I08,2023-01-25_09h18.03.317,t1_Paradigm,2021.1.4,60.05434814123448,
H,left,Pretarget,0,7,7,7,843.1755146547075,845.1773355271871,left,1,2,0.7162550722860033,J04I08,2023-01-25_09h18.03.317,t1_Paradigm,2021.1.4,60.05434814123448,
G,right,Target,0,8,8,8,846.6921862563904,848.677948098717,right,1,2,0.7036276617291151,J04I08,2023-01-25_09h18.03.317,t1_Paradigm,2021.1.4,60.05434814123448,
H,right,Target,0,9,9,9,850.1754880281369,852.1775273668172,right,1,2,0.5160826091014314,J04I08,2023-01-25_09h18.03.317,t1_Paradigm,2021.1.4,60.05434814123448,
T,left,Pretarget,0,10,10,10,853.675584749959,855.6773344043759,left,1,2,0.7284753850108245,J04I08,2023-01-25_09h18.03.317,t1_Paradigm,2021.1.4,60.05434814123448,
K,left,Distractor,0,11,11,11,857.1755550757662,859.1777981237537,left,1,2,1.083797667582985,J04I08,2023-01-25_09h18.03.317,t1_Paradigm,2021.1.4,60.05434814123448,
T,right,Target,0,12,12,12,860.6755754467013,862.6777398981794,right,1,2,0.8318634717725217,J04I08,2023-01-25_09h18.03.317,t1_Paradigm,2021.1.4,60.05434814123448,
T,left,Lure,0,13,13,13,864.1755932512169,866.1755971008388,left,1,2,0.8859885531419422,J04I08,2023-01-25_09h18.03.317,t1_Paradigm,2021.1.4,60.05434814123448,
J,left,Distractor,0,14,14,14,867.6755260431819,869.6775547953876,left,1,2,0.5358818704116857,J04I08,2023-01-25_09h18.03.317,t1_Paradigm,2021.1.4,60.05434814123448,
Q,left,Pretarget,0,15,15,15,871.1755842687562,873.177051938168,left,1,2,0.620519076983328,J04I08,2023-01-25_09h18.03.317,t1_Paradigm,2021.1.4,60.05434814123448,
M,left,Distractor,0,16,16,16,874.6755135319108,876.6778980535892,left,1,2,0.47974856817745604,J04I08,2023-01-25_09h18.03.317,t1_Paradigm,2021.1.4,60.05434814123448,
Q,right,Target,0,17,17,17,878.1755489805364,880.1775164595456,right,1,2,0.4682866314979037,J04I08,2023-01-25_09h18.03.317,t1_Paradigm,2021.1.4,60.05434814123448,
R,left,Distractor,0,18,18,18,881.6754978126119,883.6777610711142,left,1,2,0.5356627626024419,J04I08,2023-01-25_09h18.03.317,t1_Paradigm,2021.1.4,60.05434814123448,
W,left,Distractor,0,19,19,19,885.1754944441782,887.1776887302549,left,1,2,0.6039419515000191,J04I08,2023-01-25_09h18.03.317,t1_Paradigm,2021.1.4,60.05434814123448,
C,left,Pretarget,0,20,20,20,888.6755164191272,890.6777633167221,left,1,2,0.6879442907957127,J04I08,2023-01-25_09h18.03.317,t1_Paradigm,2021.1.4,60.05434814123448,
T,left,Distractor,0,21,21,21,892.1756243690179,894.1778520185035,left,1,2,0.54774192244804,J04I08,2023-01-25_09h18.03.317,t1_Paradigm,2021.1.4,60.05434814123448,
C,right,Target,0,22,22,22,895.6755956572306,897.6767909656919,right,1,2,1.08093996286334,J04I08,2023-01-25_09h18.03.317,t1_Paradigm,2021.1.4,60.05434814123448,
F,left,Pretarget,0,23,23,23,899.1745464741107,901.1775883192022,left,1,2,0.7480257039424032,J04I08,2023-01-25_09h18.03.317,t1_Paradigm,2021.1.4,60.05434814123448,
C,right,Target,0,24,24,24,902.6755754467013,904.6779051112389,right,1,2,0.5758794708235655,J04I08,2023-01-25_09h18.03.317,t1_Paradigm,2021.1.4,60.05434814123448,
F,right,Target,0,25,25,25,906.1754947649897,908.1777509658423,right,1,2,0.46793695726955775,J04I08,2023-01-25_09h18.03.317,t1_Paradigm,2021.1.4,60.05434814123448,
H,left,Distractor,0,26,26,26,909.6755815419456,911.6777325197327,left,1,2,0.5838979182153707,J04I08,2023-01-25_09h18.03.317,t1_Paradigm,2021.1.4,60.05434814123448,
H,left,Lure,0,27,27,27,913.1756237274094,915.1754931609757,right,0,2,0.9102280357328709,J04I08,2023-01-25_09h18.03.317,t1_Paradigm,2021.1.4,60.05434814123448,
P,left,Distractor,0,28,28,28,916.6755491409276,918.6746986946819,left,1,2,0.7389550257939845,J04I08,2023-01-25_09h18.03.317,t1_Paradigm,2021.1.4,60.05434814123448,
G,left,Pretarget,0,29,29,29,920.1755351860484,922.1777330009354,left,1,2,0.6920178353029769,J04I08,2023-01-25_09h18.03.317,t1_Paradigm,2021.1.4,60.05434814123448,
K,left,Distractor,0,30,30,30,923.6755571609829,925.6776933818765,left,1,2,0.5998825222777668,J04I08,2023-01-25_09h18.03.317,t1_Paradigm,2021.1.4,60.05434814123448,
G,right,Target,0,31,31,31,927.1755836271623,929.1769303541951,right,1,2,0.7006849444733234,J04I08,2023-01-25_09h18.03.317,t1_Paradigm,2021.1.4,60.05434814123448,
M,left,Pretarget,0,32,32,32,930.675506474261,932.6774389858474,left,1,2,0.6241758996184217,J04I08,2023-01-25_09h18.03.317,t1_Paradigm,2021.1.4,60.05434814123448,
B,left,Distractor,0,33,33,33,934.1754921985703,936.1776428555604,left,1,2,0.8839444024342811,J04I08,2023-01-25_09h18.03.317,t1_Paradigm,2021.1.4,60.05434814123448,
M,right,Target,0,34,34,34,937.6753922687349,939.6776484695874,right,1,2,1.2081488855183125,J04I08,2023-01-25_09h18.03.317,t1_Paradigm,2021.1.4,60.05434814123448,
M,left,Lure,0,35,35,35,941.1755570005917,943.1753789554496,left,1,2,0.7984025340847438,J04I08,2023-01-25_09h18.03.317,t1_Paradigm,2021.1.4,60.05434814123448,
T,left,Distractor,0,36,36,36,944.6755937324197,946.692121775166,left,1,2,0.7854588127083844,J04I08,2023-01-25_09h18.03.317,t1_Paradigm,2021.1.4,60.05434814123448,
F,left,Distractor,0,37,37,37,948.1755797775259,950.1776566500484,left,1,2,0.5480511756177293,J04I08,2023-01-25_09h18.03.317,t1_Paradigm,2021.1.4,60.05434814123448,
X,left,Distractor,0,38,38,38,951.6756043188943,953.6775769307278,left,1,2,0.5517949356290046,J04I08,2023-01-25_09h18.03.317,t1_Paradigm,2021.1.4,60.05434814123448,
C,left,Distractor,0,39,39,39,955.1755624542129,957.1746593964344,left,1,2,0.5750902977597434,J04I08,2023-01-25_09h18.03.317,t1_Paradigm,2021.1.4,60.05434814123448,
R,left,Distractor,0,40,40,40,958.6755792963231,960.6777909056982,left,1,2,0.44786725981975906,J04I08,2023-01-25_09h18.03.317,t1_Paradigm,2021.1.4,60.05434814123448,
B,left,Pretarget,0,41,41,41,962.1756112161383,964.177671406942,left,1,2,0.4519603732478572,J04I08,2023-01-25_09h18.03.317,t1_Paradigm,2021.1.4,60.05434814123448,
H,left,Distractor,0,42,42,42,965.6755045494501,967.6779753668816,left,1,2,0.4716864916990744,J04I08,2023-01-25_09h18.03.317,t1_Paradigm,2021.1.4,60.05434814123448,
B,right,Target,0,43,43,43,969.175605120894,971.1775693918898,right,1,2,0.5561077984602889,J04I08,2023-01-25_09h18.03.317,t1_Paradigm,2021.1.4,60.05434814123448,
W,left,Pretarget,0,44,44,44,972.6755751259043,974.6778098330251,left,1,2,0.7198252783564385,J04I08,2023-01-25_09h18.03.317,t1_Paradigm,2021.1.4,60.05434814123448,
L,left,Pretarget,0,45,45,45,976.1755855519732,978.1775017026521,left,1,2,0.8201551591337193,J04I08,2023-01-25_09h18.03.317,t1_Paradigm,2021.1.4,60.05434814123448,
W,right,Target,0,46,46,46,979.6754782436765,981.6779811413289,right,1,2,0.45575834879127797,J04I08,2023-01-25_09h18.03.317,t1_Paradigm,2021.1.4,60.05434814123448,
L,right,Target,0,47,47,47,983.1755784943234,985.1777387753682,right,1,2,0.7158765258500353,J04I08,2023-01-25_09h18.03.317,t1_Paradigm,2021.1.4,60.05434814123448,
W,right,Target,0,48,48,48,986.6754862637317,988.6777168004337,None,0,2,,J04I08,2023-01-25_09h18.03.317,t1_Paradigm,2021.1.4,60.05434814123448,
X,left,Distractor,0,49,49,49,990.1755223539658,992.1775007402466,left,1,2,0.9645154429308604,J04I08,2023-01-25_09h18.03.317,t1_Paradigm,2021.1.4,60.05434814123448,
R,left,Distractor,0,50,50,50,993.6756229254097,995.6777966801455,left,1,2,0.8879107990651391,J04I08,2023-01-25_09h18.03.317,t1_Paradigm,2021.1.4,60.05434814123448,
V,left,Pretarget,0,51,51,51,997.1755493013334,999.1779489007167,left,1,2,0.507736943589407,J04I08,2023-01-25_09h18.03.317,t1_Paradigm,2021.1.4,60.05434814123448,
Z,left,Distractor,0,52,52,52,1000.6755141735048,1002.6775753267284,left,1,2,0.4801810093485983,J04I08,2023-01-25_09h18.03.317,t1_Paradigm,2021.1.4,60.05434814123448,
V,right,Target,0,53,53,53,1004.1755707950797,1006.1746818525717,left,0,2,0.5349733589828247,J04I08,2023-01-25_09h18.03.317,t1_Paradigm,2021.1.4,60.05434814123448,
V,left,Lure,0,54,54,54,1007.6754978126119,1009.6755449705088,left,1,2,0.970219303490012,J04I08,2023-01-25_09h18.03.317,t1_Paradigm,2021.1.4,60.05434814123448,
N,left,Distractor,0,55,55,55,1011.1755711158767,1013.1778722290328,left,1,2,0.7640276313322829,J04I08,2023-01-25_09h18.03.317,t1_Paradigm,2021.1.4,60.05434814123448,
B,left,Distractor,0,56,56,56,1014.6755311760207,1016.6773129106441,left,1,2,0.7522808224166511,J04I08,2023-01-25_09h18.03.317,t1_Paradigm,2021.1.4,60.05434814123448,
V,left,Lure,0,57,57,57,1018.1755586045911,1020.1778388656094,None,0,2,,J04I08,2023-01-25_09h18.03.317,t1_Paradigm,2021.1.4,60.05434814123448,
J,left,Distractor,0,58,58,58,1021.6756133013405,1023.6777440685983,left,1,2,0.7120147106907098,J04I08,2023-01-25_09h18.03.317,t1_Paradigm,2021.1.4,60.05434814123448,
H,left,Distractor,0,59,59,59,1025.1756118577323,1027.177939276662,left,1,2,0.57177673332626,J04I08,2023-01-25_09h18.03.317,t1_Paradigm,2021.1.4,60.05434814123448,
X,left,Pretarget,0,60,60,60,1028.6755799379316,1030.6778640485718,left,1,2,0.5437691097758943,J04I08,2023-01-25_09h18.03.317,t1_Paradigm,2021.1.4,60.05434814123448,
P,left,Distractor,0,61,61,61,1032.1755570005917,1034.1777230560692,left,1,2,0.8039116677973652,J04I08,2023-01-25_09h18.03.317,t1_Paradigm,2021.1.4,60.05434814123448,
X,right,Target,0,62,62,62,1035.6756527599937,1037.67773733176,right,1,2,1.1919153390626889,J04I08,2023-01-25_09h18.03.317,t1_Paradigm,2021.1.4,60.05434814123448,
Q,left,Distractor,0,63,63,63,1039.175593251217,1041.1774208605348,left,1,2,0.6042338813713286,J04I08,2023-01-25_09h18.03.317,t1_Paradigm,2021.1.4,60.05434814123448,
B,left,Pretarget,0,0,0,0,1050.8337128956337,1052.8444302507269,None,0,2,,J04I08,2023-01-25_09h18.03.317,t1_Paradigm,2021.1.4,60.05434814123448,
F,left,Distractor,0,1,1,1,1054.3422643556405,1056.3444409975928,None,0,2,,J04I08,2023-01-25_09h18.03.317,t1_Paradigm,2021.1.4,60.05434814123448,
B,right,Target,0,2,2,2,1057.84224398472,1059.8443734687608,right,1,2,0.6253497143479763,J04I08,2023-01-25_09h18.03.317,t1_Paradigm,2021.1.4,60.05434814123448,
V,left,Distractor,0,3,3,3,1061.342251523558,1063.3444855890848,left,1,2,0.5012657245097216,J04I08,2023-01-25_09h18.03.317,t1_Paradigm,2021.1.4,60.05434814123448,
G,left,Pretarget,0,4,4,4,1064.84224398472,1066.844064857185,left,1,2,0.9375706365972292,J04I08,2023-01-25_09h18.03.317,t1_Paradigm,2021.1.4,60.05434814123448,
B,left,Lure,0,5,5,5,1068.3413516737928,1070.3446068522608,right,0,2,0.9571238427452045,J04I08,2023-01-25_09h18.03.317,t1_Paradigm,2021.1.4,60.05434814123448,
G,right,Target,0,6,6,6,1071.842215112527,1073.8443753935717,right,1,2,0.6893824464204954,J04I08,2023-01-25_09h18.03.317,t1_Paradigm,2021.1.4,60.05434814123448,
Y,left,Pretarget,0,7,7,7,1075.3423647666932,1077.3446222507628,left,1,2,0.6451281235349597,J04I08,2023-01-25_09h18.03.317,t1_Paradigm,2021.1.4,60.05434814123448,
P,left,Distractor,0,8,8,8,1078.8421823907265,1080.8442400151107,left,1,2,0.4733097501011798,J04I08,2023-01-25_09h18.03.317,t1_Paradigm,2021.1.4,60.05434814123448,
Y,right,Target,0,9,9,9,1082.342237408273,1084.3440278045455,right,1,2,0.65363579406403,J04I08,2023-01-25_09h18.03.317,t1_Paradigm,2021.1.4,60.05434814123448,
X,left,Distractor,0,10,10,10,1085.8422465511248,1087.8446333184256,left,1,2,0.46520821496960707,J04I08,2023-01-25_09h18.03.317,t1_Paradigm,2021.1.4,60.05434814123448,
Y,right,Target,0,11,11,11,1089.3423625210708,1091.341273077298,right,1,2,0.48846347685321234,J04I08,2023-01-25_09h18.03.317,t1_Paradigm,2021.1.4,60.05434814123448,
N,left,Distractor,0,12,12,12,1092.84227221529,1094.8444430828094,left,1,2,0.5691711790132103,J04I08,2023-01-25_09h18.03.317,t1_Paradigm,2021.1.4,60.05434814123448,
Y,right,Target,0,13,13,13,1096.3420327365602,1098.3445035540062,None,0,2,,J04I08,2023-01-25_09h18.03.317,t1_Paradigm,2021.1.4,60.05434814123448,
Y,left,Lure,0,14,14,14,1099.8421904107672,1101.8421762954822,left,1,2,0.5636742357892217,J04I08,2023-01-25_09h18.03.317,t1_Paradigm,2021.1.4,60.05434814123448,
K,left,Distractor,0,15,15,15,1103.3422572980053,1105.344118270732,left,1,2,0.5175566945545143,J04I08,2023-01-25_09h18.03.317,t1_Paradigm,2021.1.4,60.05434814123448,
T,left,Pretarget,0,16,16,16,1106.8422003556334,1108.8446782307146,left,1,2,0.9050210975401569,J04I08,2023-01-25_09h18.03.317,t1_Paradigm,2021.1.4,60.05434814123448,
J,left,Distractor,0,17,17,17,1110.342265318046,1112.3444875138957,left,1,2,0.5091802320530405,J04I08,2023-01-25_09h18.03.317,t1_Paradigm,2021.1.4,60.05434814123448,
T,right,Target,0,18,18,18,1113.8422844057786,1115.8442425815301,right,1,2,1.2176240950648207,J04I08,2023-01-25_09h18.03.317,t1_Paradigm,2021.1.4,60.05434814123448,
S,left,Pretarget,0,19,19,19,1117.3420943305537,1119.344024917329,left,1,2,0.7577081516064936,J04I08,2023-01-25_09h18.03.317,t1_Paradigm,2021.1.4,60.05434814123448,
R,left,Distractor,0,20,20,20,1120.842225057393,1122.841416957017,left,1,2,1.3081756083265645,J04I08,2023-01-25_09h18.03.317,t1_Paradigm,2021.1.4,60.05434814123448,
S,right,Target,0,21,21,21,1124.3422085360944,1126.3549504729745,right,1,2,0.4028192726254929,J04I08,2023-01-25_09h18.03.317,t1_Paradigm,2021.1.4,60.05434814123448,
Q,left,Distractor,0,22,22,22,1127.8422850473726,1129.8441899699828,left,1,2,0.8174318704550387,J04I08,2023-01-25_09h18.03.317,t1_Paradigm,2021.1.4,60.05434814123448,
D,left,Distractor,0,23,23,23,1131.3422983606579,1133.344374912369,left,1,2,0.5013071079738438,J04I08,2023-01-25_09h18.03.317,t1_Paradigm,2021.1.4,60.05434814123448,
F,left,Distractor,0,24,24,24,1134.8419915135019,1136.8440154536656,left,1,2,0.4736238153127488,J04I08,2023-01-25_09h18.03.317,t1_Paradigm,2021.1.4,60.05434814123448,
Z,left,Distractor,0,25,25,25,1138.3422412578948,1140.3439267518988,left,1,2,0.6377175960224122,J04I08,2023-01-25_09h18.03.317,t1_Paradigm,2021.1.4,60.05434814123448,
P,left,Distractor,0,26,26,26,1141.8421769370907,1143.8413152627618,left,1,2,1.0763553806609707,J04I08,2023-01-25_09h18.03.317,t1_Paradigm,2021.1.4,60.05434814123448,
H,left,Distractor,0,27,27,27,1145.341899924504,1147.3446674838488,left,1,2,0.4850514261634089,J04I08,2023-01-25_09h18.03.317,t1_Paradigm,2021.1.4,60.05434814123448,
Z,left,Pretarget,0,28,28,28,1148.8421705210494,1150.8441460201138,right,0,2,0.7136238538078032,J04I08,2023-01-25_09h18.03.317,t1_Paradigm,2021.1.4,60.05434814123448,
J,left,Pretarget,0,29,29,29,1152.3422207265685,1154.344642782089,left,1,2,0.541182162007317,J04I08,2023-01-25_09h18.03.317,t1_Paradigm,2021.1.4,60.05434814123448,
Z,right,Target,0,30,30,30,1155.842275102521,1157.8446349224396,right,1,2,1.2973780527245253,J04I08,2023-01-25_09h18.03.317,t1_Paradigm,2021.1.4,60.05434814123448,
J,right,Target,0,31,31,31,1159.3421847967402,1161.3444275239162,right,1,2,0.6775531913881423,J04I08,2023-01-25_09h18.03.317,t1_Paradigm,2021.1.4,60.05434814123448,
V,left,Pretarget,0,32,32,32,1162.842164746602,1164.8441918948083,left,1,2,0.4894887602131348,J04I08,2023-01-25_09h18.03.317,t1_Paradigm,2021.1.4,60.05434814123448,
Z,left,Lure,0,33,33,33,1166.3421957040118,1168.3437849573966,None,0,2,,J04I08,2023-01-25_09h18.03.317,t1_Paradigm,2021.1.4,60.05434814123448,
V,right,Target,0,34,34,34,1169.8422648368432,1171.8446368472505,right,1,2,0.8973112617240986,J04I08,2023-01-25_09h18.03.317,t1_Paradigm,2021.1.4,60.05434814123448,
X,left,Distractor,0,35,35,35,1173.3419923155016,1175.3442959950626,left,1,2,0.6777286701108096,J04I08,2023-01-25_09h18.03.317,t1_Paradigm,2021.1.4,60.05434814123448,
S,left,Distractor,0,36,36,36,1176.842275102521,1178.8412591224042,None,0,2,,J04I08,2023-01-25_09h18.03.317,t1_Paradigm,2021.1.4,60.05434814123448,
Q,left,Distractor,0,37,37,37,1180.3422550523828,1182.3447265114228,left,1,2,0.7809053483215393,J04I08,2023-01-25_09h18.03.317,t1_Paradigm,2021.1.4,60.05434814123448,
P,left,Distractor,0,38,38,38,1183.8421705210494,1185.8442044060794,left,1,2,0.5296576689142967,J04I08,2023-01-25_09h18.03.317,t1_Paradigm,2021.1.4,60.05434814123448,
S,left,Lure,0,39,39,39,1187.342248957153,1189.3414389319514,left,1,2,1.2083404043369228,J04I08,2023-01-25_09h18.03.317,t1_Paradigm,2021.1.4,60.05434814123448,
K,left,Pretarget,0,40,40,40,1190.8411830923142,1192.8444395539846,None,0,2,,J04I08,2023-01-25_09h18.03.317,t1_Paradigm,2021.1.4,60.05434814123448,
L,left,Distractor,0,41,41,41,1194.3422252177988,1196.3440027819888,left,1,2,0.8938328050280688,J04I08,2023-01-25_09h18.03.317,t1_Paradigm,2021.1.4,60.05434814123448,
K,right,Target,0,42,42,42,1197.8422959546442,1199.8444668221637,right,1,2,0.7852307224529795,J04I08,2023-01-25_09h18.03.317,t1_Paradigm,2021.1.4,60.05434814123448,
B,left,Distractor,0,43,43,43,1201.3422701300879,1203.3440685464157,left,1,2,0.6779798581264913,J04I08,2023-01-25_09h18.03.317,t1_Paradigm,2021.1.4,60.05434814123448,
N,left,Distractor,0,44,44,44,1204.84216795463,1206.841327132439,left,1,2,1.1807453322544461,J04I08,2023-01-25_09h18.03.317,t1_Paradigm,2021.1.4,60.05434814123448,
S,left,Pretarget,0,45,45,45,1208.3422880949947,1210.3436255187698,left,1,2,0.46223149269644637,J04I08,2023-01-25_09h18.03.317,t1_Paradigm,2021.1.4,60.05434814123448,
Z,left,Distractor,0,46,46,46,1211.8422686864797,1213.8445082056278,left,1,2,0.4649923151882831,J04I08,2023-01-25_09h18.03.317,t1_Paradigm,2021.1.4,60.05434814123448,
S,right,Target,0,47,47,47,1215.3422194433515,1217.3446376492648,left,0,2,0.9489652048505377,J04I08,2023-01-25_09h18.03.317,t1_Paradigm,2021.1.4,60.05434814123448,
C,left,Distractor,0,48,48,48,1218.8414519244398,1220.8440122456523,left,1,2,0.6336446931236424,J04I08,2023-01-25_09h18.03.317,t1_Paradigm,2021.1.4,60.05434814123448,
T,left,Pretarget,0,49,49,49,1222.3425854785019,1224.3442738597223,left,1,2,1.197738217189908,J04I08,2023-01-25_09h18.03.317,t1_Paradigm,2021.1.4,60.05434814123448,
S,left,Lure,0,50,50,50,1225.8421692378324,1227.84428941863,left,1,2,0.8173375546612078,J04I08,2023-01-25_09h18.03.317,t1_Paradigm,2021.1.4,60.05434814123448,
T,right,Target,0,51,51,51,1229.342266601263,1231.3548644980183,right,1,2,0.6828137035045074,J04I08,2023-01-25_09h18.03.317,t1_Paradigm,2021.1.4,60.05434814123448,
N,left,Pretarget,0,52,52,52,1232.8424034233321,1234.8443580702733,left,1,2,0.4412728527386207,J04I08,2023-01-25_09h18.03.317,t1_Paradigm,2021.1.4,60.05434814123448,
B,left,Distractor,0,53,53,53,1236.3422829621704,1238.3446238547767,left,1,2,0.42920844980108086,J04I08,2023-01-25_09h18.03.317,t1_Paradigm,2021.1.4,60.05434814123448,
N,right,Target,0,54,54,54,1239.8422725361015,1241.8442785113584,right,1,2,0.5615341652592178,J04I08,2023-01-25_09h18.03.317,t1_Paradigm,2021.1.4,60.05434814123448,
N,left,Lure,0,55,55,55,1243.3422155937296,1245.3422114233108,left,1,2,0.5998520460852887,J04I08,2023-01-25_09h18.03.317,t1_Paradigm,2021.1.4,60.05434814123448,
X,left,Distractor,0,56,56,56,1246.8423732679512,1248.8431714234612,left,1,2,0.6024784525361611,J04I08,2023-01-25_09h18.03.317,t1_Paradigm,2021.1.4,60.05434814123448,
W,left,Distractor,0,57,57,57,1250.3421828719293,1252.343926110305,left,1,2,0.6058407788950717,J04I08,2023-01-25_09h18.03.317,t1_Paradigm,2021.1.4,60.05434814123448,
S,left,Distractor,0,58,58,58,1253.8422340398538,1255.8444302507269,left,1,2,0.753217885227059,J04I08,2023-01-25_09h18.03.317,t1_Paradigm,2021.1.4,60.05434814123448,
L,left,Distractor,0,59,59,59,1257.3421511125198,1259.3439761554182,left,1,2,0.5817023489362327,J04I08,2023-01-25_09h18.03.317,t1_Paradigm,2021.1.4,60.05434814123448,
K,left,Pretarget,0,60,60,60,1260.8422690072766,1262.8444504612562,left,1,2,0.6332061567081837,J04I08,2023-01-25_09h18.03.317,t1_Paradigm,2021.1.4,60.05434814123448,
V,left,Pretarget,0,61,61,61,1264.3422640348435,1266.3413205559918,left,1,2,0.6404899673943873,J04I08,2023-01-25_09h18.03.317,t1_Paradigm,2021.1.4,60.05434814123448,
K,right,Target,0,62,62,62,1267.8422311526374,1269.8437007468601,left,0,2,0.4178260720218532,J04I08,2023-01-25_09h18.03.317,t1_Paradigm,2021.1.4,60.05434814123448,
V,right,Target,0,63,63,63,1271.342206290472,1273.3442876542103,right,1,2,0.4693423910648562,J04I08,2023-01-25_09h18.03.317,t1_Paradigm,2021.1.4,60.05434814123448,
R,left,Distractor,0,0,0,0,1432.155478641478,1434.160861058379,None,0,3,,J04I08,2023-01-25_09h18.03.317,t1_Paradigm,2021.1.4,60.05434814123448,
P,left,Lure,0,1,1,1,1435.658786271073,1437.6610854594182,None,0,3,,J04I08,2023-01-25_09h18.03.317,t1_Paradigm,2021.1.4,60.05434814123448,
V,left,Distractor,0,2,2,2,1439.1589349628339,1441.1714840976783,None,0,3,,J04I08,2023-01-25_09h18.03.317,t1_Paradigm,2021.1.4,60.05434814123448,
P,left,Pretarget,0,3,3,3,1442.658938331253,1444.6608721260563,left,1,3,0.49690153333358467,J04I08,2023-01-25_09h18.03.317,t1_Paradigm,2021.1.4,60.05434814123448,
Z,left,Distractor,0,4,4,4,1446.158842892648,1448.160966602256,left,1,3,0.6449702889221953,J04I08,2023-01-25_09h18.03.317,t1_Paradigm,2021.1.4,60.05434814123448,
L,left,Pretarget,0,5,5,5,1449.6588943813695,1451.6606318453123,left,1,3,0.7770374379178975,J04I08,2023-01-25_09h18.03.317,t1_Paradigm,2021.1.4,60.05434814123448,
P,right,Target,0,6,6,6,1453.158992065597,1455.1611699907517,right,1,3,0.7484963205497479,J04I08,2023-01-25_09h18.03.317,t1_Paradigm,2021.1.4,60.05434814123448,
S,left,Distractor,0,7,7,7,1456.6589296696038,1458.660492296418,left,1,3,1.393198739766376,J04I08,2023-01-25_09h18.03.317,t1_Paradigm,2021.1.4,60.05434814123448,
L,right,Target,0,8,8,8,1460.1588512335002,1462.1601305920922,None,0,3,,J04I08,2023-01-25_09h18.03.317,t1_Paradigm,2021.1.4,60.05434814123448,
D,left,Distractor,0,9,9,9,1463.658984847556,1465.6612240459071,left,1,3,0.6804670364654157,J04I08,2023-01-25_09h18.03.317,t1_Paradigm,2021.1.4,60.05434814123448,
G,left,Distractor,0,10,10,10,1467.1587832234654,1469.1612457000447,left,1,3,0.5885492272354895,J04I08,2023-01-25_09h18.03.317,t1_Paradigm,2021.1.4,60.05434814123448,
M,left,Pretarget,0,11,11,11,1470.6588590931497,1472.6611249180714,left,1,3,0.6885579851368675,J04I08,2023-01-25_09h18.03.317,t1_Paradigm,2021.1.4,60.05434814123448,
Y,left,Distractor,0,12,12,12,1474.1588740104344,1476.1609268228058,left,1,3,0.5967996145336656,J04I08,2023-01-25_09h18.03.317,t1_Paradigm,2021.1.4,60.05434814123448,
V,left,Distractor,0,13,13,13,1477.65891042148,1479.6606616798963,left,1,3,1.1770349356665974,J04I08,2023-01-25_09h18.03.317,t1_Paradigm,2021.1.4,60.05434814123448,
M,right,Target,0,14,14,14,1481.1589493989304,1483.1610933190677,None,0,3,,J04I08,2023-01-25_09h18.03.317,t1_Paradigm,2021.1.4,60.05434814123448,
S,left,Pretarget,0,15,15,15,1484.6588375994033,1486.661214421838,None,0,3,,J04I08,2023-01-25_09h18.03.317,t1_Paradigm,2021.1.4,60.05434814123448,
Q,left,Distractor,0,16,16,16,1488.1588422510395,1490.1611395145592,left,1,3,0.9165391745773377,J04I08,2023-01-25_09h18.03.317,t1_Paradigm,2021.1.4,60.05434814123448,
R,left,Pretarget,0,17,17,17,1491.65891042148,1493.6602600357292,right,0,3,1.369483447735547,J04I08,2023-01-25_09h18.03.317,t1_Paradigm,2021.1.4,60.05434814123448,
S,right,Target,0,18,18,18,1495.1589413788752,1497.1602403064026,right,1,3,1.0374677553772926,J04I08,2023-01-25_09h18.03.317,t1_Paradigm,2021.1.4,60.05434814123448,
F,left,Distractor,0,19,19,19,1498.65884497785,1500.660622221243,left,1,3,0.6571379901142791,J04I08,2023-01-25_09h18.03.317,t1_Paradigm,2021.1.4,60.05434814123448,
R,right,Target,0,20,20,20,1502.1588056796027,1504.1611594042915,left,0,3,1.2045482032408472,J04I08,2023-01-25_09h18.03.317,t1_Paradigm,2021.1.4,60.05434814123448,
P,left,Distractor,0,21,21,21,1505.6588225217129,1507.660521489408,left,1,3,1.033184727129992,J04I08,2023-01-25_09h18.03.317,t1_Paradigm,2021.1.4,60.05434814123448,
L,left,Distractor,0,22,22,22,1509.1588804264757,1511.1608880057465,left,1,3,0.7811372881988063,J04I08,2023-01-25_09h18.03.317,t1_Paradigm,2021.1.4,60.05434814123448,
R,right,Target,0,23,23,23,1512.658850110689,1514.6610206573969,right,1,3,0.8326754217705457,J04I08,2023-01-25_09h18.03.317,t1_Paradigm,2021.1.4,60.05434814123448,
H,left,Pretarget,0,24,24,24,1516.1588178700767,1518.1612979907804,left,1,3,0.6924169130652444,J04I08,2023-01-25_09h18.03.317,t1_Paradigm,2021.1.4,60.05434814123448,
G,left,Pretarget,0,25,25,25,1519.6589723362704,1521.6612686373846,left,1,3,1.144641948005301,J04I08,2023-01-25_09h18.03.317,t1_Paradigm,2021.1.4,60.05434814123448,
T,left,Distractor,0,26,26,26,1523.1588685567986,1525.161022101005,left,1,3,0.7646746890677605,J04I08,2023-01-25_09h18.03.317,t1_Paradigm,2021.1.4,60.05434814123448,
H,right,Target,0,27,27,27,1526.658938331253,1528.6606956849137,left,0,3,0.5932255588122644,J04I08,2023-01-25_09h18.03.317,t1_Paradigm,2021.1.4,60.05434814123448,
G,right,Target,0,28,28,28,1530.1586950028868,1532.1609204067645,right,1,3,1.1087865437730215,J04I08,2023-01-25_09h18.03.317,t1_Paradigm,2021.1.4,60.05434814123448,
D,left,Distractor,0,29,29,29,1533.65893865205,1535.661210251419,left,1,3,0.5843409458611859,J04I08,2023-01-25_09h18.03.317,t1_Paradigm,2021.1.4,60.05434814123448,
N,left,Pretarget,0,30,30,30,1537.1589359252393,1539.1612303015427,left,1,3,0.5085014149080962,J04I08,2023-01-25_09h18.03.317,t1_Paradigm,2021.1.4,60.05434814123448,
V,left,Distractor,0,31,31,31,1540.658891173356,1542.6603578803479,left,1,3,0.3853413350007031,J04I08,2023-01-25_09h18.03.317,t1_Paradigm,2021.1.4,60.05434814123448,
R,left,Distractor,0,32,32,32,1544.158857007933,1546.1612944619555,left,1,3,0.5644499351474224,J04I08,2023-01-25_09h18.03.317,t1_Paradigm,2021.1.4,60.05434814123448,
N,right,Target,0,33,33,33,1547.6588982309913,1549.6608689180284,left,0,3,0.3769459451723378,J04I08,2023-01-25_09h18.03.317,t1_Paradigm,2021.1.4,60.05434814123448,
Z,left,Distractor,0,34,34,34,1551.1588448174589,1553.160679484412,left,1,3,0.6689104631805094,J04I08,2023-01-25_09h18.03.317,t1_Paradigm,2021.1.4,60.05434814123448,
N,left,Lure,0,35,35,35,1554.6588613387576,1556.6607235947013,left,1,3,0.432974986746558,J04I08,2023-01-25_09h18.03.317,t1_Paradigm,2021.1.4,60.05434814123448,
Y,left,Pretarget,0,36,36,36,1558.1589320756175,1560.1609297100222,left,1,3,0.5487713762413478,J04I08,2023-01-25_09h18.03.317,t1_Paradigm,2021.1.4,60.05434814123448,
Y,left,Lure,0,37,37,37,1561.658922611954,1563.6588315041736,left,1,3,0.34706612084119115,J04I08,2023-01-25_09h18.03.317,t1_Paradigm,2021.1.4,60.05434814123448,
B,left,Distractor,0,38,38,38,1565.159022862601,1567.1610888278374,left,1,3,0.50864385101886,J04I08,2023-01-25_09h18.03.317,t1_Paradigm,2021.1.4,60.05434814123448,
Y,right,Target,0,39,39,39,1568.6579326167994,1570.6610161661665,left,0,3,0.49674979396513663,J04I08,2023-01-25_09h18.03.317,t1_Paradigm,2021.1.4,60.05434814123448,
J,left,Distractor,0,40,40,40,1572.1589481157134,1574.1610888278374,left,1,3,0.48475725068419706,J04I08,2023-01-25_09h18.03.317,t1_Paradigm,2021.1.4,60.05434814123448,
X,left,Distractor,0,41,41,41,1575.659100977893,1577.6607736398146,left,1,3,0.600686131438124,J04I08,2023-01-25_09h18.03.317,t1_Paradigm,2021.1.4,60.05434814123448,
W,left,Pretarget,0,42,42,42,1579.1589320756175,1581.161011835342,left,1,3,0.7969185037654825,J04I08,2023-01-25_09h18.03.317,t1_Paradigm,2021.1.4,60.05434814123448,
S,left,Pretarget,0,43,43,43,1582.6588282961457,1584.6609372488601,left,1,3,0.6087687392428052,J04I08,2023-01-25_09h18.03.317,t1_Paradigm,2021.1.4,60.05434814123448,
R,left,Distractor,0,44,44,44,1586.159051093171,1588.1610522564006,left,1,3,0.581013907736633,J04I08,2023-01-25_09h18.03.317,t1_Paradigm,2021.1.4,60.05434814123448,
W,right,Target,0,45,45,45,1589.658896626992,1591.6606020107138,left,0,3,0.6491205051279394,J04I08,2023-01-25_09h18.03.317,t1_Paradigm,2021.1.4,60.05434814123448,
S,right,Target,0,46,46,46,1593.1589128274936,1595.1607664217736,left,0,3,0.4775754550501006,J04I08,2023-01-25_09h18.03.317,t1_Paradigm,2021.1.4,60.05434814123448,
D,left,Distractor,0,47,47,47,1596.6587092785776,1598.660895865396,left,1,3,0.3848030291410396,J04I08,2023-01-25_09h18.03.317,t1_Paradigm,2021.1.4,60.05434814123448,
T,left,Distractor,0,48,48,48,1600.1589352836309,1602.1605537300056,left,1,3,0.45315119047882035,J04I08,2023-01-25_09h18.03.317,t1_Paradigm,2021.1.4,60.05434814123448,
S,right,Target,0,49,49,49,1603.65891042148,1605.6613382514333,left,0,3,0.3445654688111972,J04I08,2023-01-25_09h18.03.317,t1_Paradigm,2021.1.4,60.05434814123448,
K,left,Distractor,0,50,50,50,1607.1588496294862,1609.1610946022702,left,1,3,0.5247099388070637,J04I08,2023-01-25_09h18.03.317,t1_Paradigm,2021.1.4,60.05434814123448,
S,left,Lure,0,51,51,51,1610.6589408976724,1612.6610286774521,left,1,3,0.3367038936121389,J04I08,2023-01-25_09h18.03.317,t1_Paradigm,2021.1.4,60.05434814123448,
T,left,Pretarget,0,52,52,52,1614.1588502710947,1616.161250512072,left,1,3,0.38857277409988455,J04I08,2023-01-25_09h18.03.317,t1_Paradigm,2021.1.4,60.05434814123448,
V,left,Distractor,0,53,53,53,1617.6588385618088,1619.6609619506198,left,1,3,0.5048044919967651,J04I08,2023-01-25_09h18.03.317,t1_Paradigm,2021.1.4,60.05434814123448,
B,left,Distractor,0,54,54,54,1621.158919243535,1623.161383324128,left,1,3,0.8764591280487366,J04I08,2023-01-25_09h18.03.317,t1_Paradigm,2021.1.4,60.05434814123448,
T,right,Target,0,55,55,55,1624.6588558851217,1626.6611496198311,right,1,3,0.8005689103738405,J04I08,2023-01-25_09h18.03.317,t1_Paradigm,2021.1.4,60.05434814123448,
Y,left,Pretarget,0,56,56,56,1628.158856687136,1630.1606592738826,left,1,3,0.613250664784573,J04I08,2023-01-25_09h18.03.317,t1_Paradigm,2021.1.4,60.05434814123448,
T,left,Lure,0,57,57,57,1631.6588722460292,1633.6579836243327,left,1,3,0.3957513617206132,J04I08,2023-01-25_09h18.03.317,t1_Paradigm,2021.1.4,60.05434814123448,
P,left,Pretarget,0,58,58,58,1635.1589205267373,1637.1601398953499,left,1,3,0.36584555241279304,J04I08,2023-01-25_09h18.03.317,t1_Paradigm,2021.1.4,60.05434814123448,
Y,right,Target,0,59,59,59,1638.6588539603108,1640.6608984318154,left,0,3,0.3049249210889684,J04I08,2023-01-25_09h18.03.317,t1_Paradigm,2021.1.4,60.05434814123448,
R,left,Distractor,0,60,60,60,1642.1589153938985,1644.16087453207,left,1,3,0.3409224406495923,J04I08,2023-01-25_09h18.03.317,t1_Paradigm,2021.1.4,60.05434814123448,
P,right,Target,0,61,61,61,1645.6588212384959,1647.661184587254,left,0,3,0.408527945226524,J04I08,2023-01-25_09h18.03.317,t1_Paradigm,2021.1.4,60.05434814123448,
L,left,Distractor,0,62,62,62,1649.158822361307,1651.1612479456526,left,1,3,0.3646874569967622,J04I08,2023-01-25_09h18.03.317,t1_Paradigm,2021.1.4,60.05434814123448,
V,left,Distractor,0,63,63,63,1652.6588475442695,1654.6606700207485,left,1,3,0.337048435016186,J04I08,2023-01-25_09h18.03.317,t1_Paradigm,2021.1.4,60.05434814123448,
H,left,Lure,0,0,0,0,1669.1738984539552,1671.1777541738702,None,0,3,,J04I08,2023-01-25_09h18.03.317,t1_Paradigm,2021.1.4,60.05434814123448,
B,left,Distractor,0,1,1,1,1672.6756530808052,1674.6777742239938,None,0,3,,J04I08,2023-01-25_09h18.03.317,t1_Paradigm,2021.1.4,60.05434814123448,
T,left,Distractor,0,2,2,2,1676.175546734914,1678.1750209403544,None,0,3,,J04I08,2023-01-25_09h18.03.317,t1_Paradigm,2021.1.4,60.05434814123448,
R,left,Distractor,0,3,3,3,1679.6755561985774,1681.6779891613696,left,1,3,0.6475598031101981,J04I08,2023-01-25_09h18.03.317,t1_Paradigm,2021.1.4,60.05434814123448,
H,left,Pretarget,0,4,4,4,1683.1754963689891,1685.1779065548471,None,0,3,,J04I08,2023-01-25_09h18.03.317,t1_Paradigm,2021.1.4,60.05434814123448,
K,left,Distractor,0,5,5,5,1686.6756254918291,1688.6778422340285,left,1,3,0.5440199769800529,J04I08,2023-01-25_09h18.03.317,t1_Paradigm,2021.1.4,60.05434814123448,
G,left,Distractor,0,6,6,6,1690.1755958176363,1692.1779620535963,left,1,3,0.3398917036392959,J04I08,2023-01-25_09h18.03.317,t1_Paradigm,2021.1.4,60.05434814123448,
H,right,Target,0,7,7,7,1693.675596298839,1695.677285642465,right,1,3,0.7764574277971406,J04I08,2023-01-25_09h18.03.317,t1_Paradigm,2021.1.4,60.05434814123448,
Y,left,Pretarget,0,8,8,8,1697.1756080081104,1699.1779360686342,left,1,3,0.5079967932542786,J04I08,2023-01-25_09h18.03.317,t1_Paradigm,2021.1.4,60.05434814123448,
S,left,Distractor,0,9,9,9,1700.6756065645022,1702.677756259087,left,1,3,0.496136420435505,J04I08,2023-01-25_09h18.03.317,t1_Paradigm,2021.1.4,60.05434814123448,
P,left,Distractor,0,10,10,10,1704.175482574501,1706.1777647603449,left,1,3,0.46795877179829404,J04I08,2023-01-25_09h18.03.317,t1_Paradigm,2021.1.4,60.05434814123448,
Y,right,Target,0,11,11,11,1707.6755561985774,1709.6773430660396,left,0,3,0.42451992773567326,J04I08,2023-01-25_09h18.03.317,t1_Paradigm,2021.1.4,60.05434814123448,
H,left,Lure,0,12,12,12,1711.1756038376916,1713.176783426854,left,1,3,0.445128893450601,J04I08,2023-01-25_09h18.03.317,t1_Paradigm,2021.1.4,60.05434814123448,
Q,left,Distractor,0,13,13,13,1714.6755347048456,1716.6776718881447,left,1,3,0.5442031549609965,J04I08,2023-01-25_09h18.03.317,t1_Paradigm,2021.1.4,60.05434814123448,
V,left,Pretarget,0,14,14,14,1718.1754844993266,1720.1779177829158,left,1,3,0.4198682979331352,J04I08,2023-01-25_09h18.03.317,t1_Paradigm,2021.1.4,60.05434814123448,
G,left,Distractor,0,15,15,15,1721.6754663739994,1723.677979216518,left,1,3,0.39164284979051445,J04I08,2023-01-25_09h18.03.317,t1_Paradigm,2021.1.4,60.05434814123448,
Z,left,Pretarget,0,16,16,16,1725.1755104842887,1727.1777275472996,left,1,3,0.7160051674873102,J04I08,2023-01-25_09h18.03.317,t1_Paradigm,2021.1.4,60.05434814123448,
V,right,Target,0,17,17,17,1728.6758988151705,1730.6921554593864,left,0,3,0.7215858400595607,J04I08,2023-01-25_09h18.03.317,t1_Paradigm,2021.1.4,60.05434814123448,
N,left,Distractor,0,18,18,18,1732.1755162587215,1734.1776739733614,left,1,3,0.5643835291266441,J04I08,2023-01-25_09h18.03.317,t1_Paradigm,2021.1.4,60.05434814123448,
Z,right,Target,0,19,19,19,1735.675539196076,1737.6746695016918,left,0,3,0.6190626356401481,J04I08,2023-01-25_09h18.03.317,t1_Paradigm,2021.1.4,60.05434814123448,
R,left,Distractor,0,20,20,20,1739.175503426639,1741.1778074270114,left,1,3,0.44429577051778324,J04I08,2023-01-25_09h18.03.317,t1_Paradigm,2021.1.4,60.05434814123448,
P,left,Distractor,0,21,21,21,1742.6756014316634,1744.6745107046736,left,1,3,0.8513554047240177,J04I08,2023-01-25_09h18.03.317,t1_Paradigm,2021.1.4,60.05434814123448,
Z,right,Target,0,22,22,22,1746.1756169905711,1748.1778388656094,left,0,3,1.091883483401034,J04I08,2023-01-25_09h18.03.317,t1_Paradigm,2021.1.4,60.05434814123448,
D,left,Pretarget,0,23,23,23,1749.6754987750173,1751.6779201889294,left,1,3,0.9358501751703443,J04I08,2023-01-25_09h18.03.317,t1_Paradigm,2021.1.4,60.05434814123448,
K,left,Distractor,0,24,24,24,1753.17559293042,1755.1774105948716,left,1,3,0.9723292186245089,J04I08,2023-01-25_09h18.03.317,t1_Paradigm,2021.1.4,60.05434814123448,
W,left,Distractor,0,25,25,25,1756.674501401416,1758.6776718881447,left,1,3,0.6880533634976018,J04I08,2023-01-25_09h18.03.317,t1_Paradigm,2021.1.4,60.05434814123448,
D,right,Target,0,26,26,26,1760.1755377524678,1762.1881593885773,right,1,3,1.2415934622986242,J04I08,2023-01-25_09h18.03.317,t1_Paradigm,2021.1.4,60.05434814123448,
G,left,Pretarget,0,27,27,27,1763.6753502436623,1765.6777010811347,left,1,3,0.34420103767479304,J04I08,2023-01-25_09h18.03.317,t1_Paradigm,2021.1.4,60.05434814123448,
V,left,Distractor,0,28,28,28,1767.1755021434365,1769.1777259432856,left,1,3,0.34824474759807345,J04I08,2023-01-25_09h18.03.317,t1_Paradigm,2021.1.4,60.05434814123448,
D,right,Target,0,29,29,29,1770.6756210005988,1772.678398504795,left,0,3,0.38348068307095673,J04I08,2023-01-25_09h18.03.317,t1_Paradigm,2021.1.4,60.05434814123448,
G,right,Target,0,30,30,30,1774.175513692302,1776.177621361814,left,0,3,0.564461804824532,J04I08,2023-01-25_09h18.03.317,t1_Paradigm,2021.1.4,60.05434814123448,
B,left,Pretarget,0,31,31,31,1777.6755696722685,1779.6881380552368,left,1,3,0.5096264677122235,J04I08,2023-01-25_09h18.03.317,t1_Paradigm,2021.1.4,60.05434814123448,
N,left,Distractor,0,32,32,32,1781.1756221233954,1783.177112569756,left,1,3,1.4046305210504215,J04I08,2023-01-25_09h18.03.317,t1_Paradigm,2021.1.4,60.05434814123448,
F,left,Distractor,0,33,33,33,1784.6755250807764,1786.6775361888722,left,1,3,0.8001768902613549,J04I08,2023-01-25_09h18.03.317,t1_Paradigm,2021.1.4,60.05434814123448,
B,right,Target,0,34,34,34,1788.1754921985703,1790.177552389374,left,0,3,0.46837260645406786,J04I08,2023-01-25_09h18.03.317,t1_Paradigm,2021.1.4,60.05434814123448,
Q,left,Pretarget,0,35,35,35,1791.675541441684,1793.677828760352,left,1,3,0.5677179456979502,J04I08,2023-01-25_09h18.03.317,t1_Paradigm,2021.1.4,60.05434814123448,
S,left,Pretarget,0,36,36,36,1795.175546414117,1797.177955316758,left,1,3,0.6198226156993769,J04I08,2023-01-25_09h18.03.317,t1_Paradigm,2021.1.4,60.05434814123448,
W,left,Distractor,0,37,37,37,1798.6756832362007,1800.677588479608,left,1,3,0.43213865578582045,J04I08,2023-01-25_09h18.03.317,t1_Paradigm,2021.1.4,60.05434814123448,
Q,right,Target,0,38,38,38,1802.1755278076016,1804.1777503242483,right,1,3,0.6919822262861999,J04I08,2023-01-25_09h18.03.317,t1_Paradigm,2021.1.4,60.05434814123448,
S,right,Target,0,39,39,39,1805.6756094517186,1807.677481331717,right,1,3,0.8562928691826528,J04I08,2023-01-25_09h18.03.317,t1_Paradigm,2021.1.4,60.05434814123448,
T,left,Distractor,0,40,40,40,1809.1745118274848,1811.1778411112318,left,1,3,0.4440827579528559,J04I08,2023-01-25_09h18.03.317,t1_Paradigm,2021.1.4,60.05434814123448,
G,left,Distractor,0,41,41,41,1812.6755930908112,1814.6777726199944,left,1,3,0.5761807039525593,J04I08,2023-01-25_09h18.03.317,t1_Paradigm,2021.1.4,60.05434814123448,
D,left,Distractor,0,42,42,42,1816.1755390356702,1818.1779540335556,left,1,3,0.4198233856295701,J04I08,2023-01-25_09h18.03.317,t1_Paradigm,2021.1.4,60.05434814123448,
S,left,Lure,0,43,43,43,1819.6755699930654,1821.6778505748807,right,0,3,0.6958886329375673,J04I08,2023-01-25_09h18.03.317,t1_Paradigm,2021.1.4,60.05434814123448,
Z,left,Pretarget,0,44,44,44,1823.1755493013334,1825.1779591663799,left,1,3,0.49177543727273587,J04I08,2023-01-25_09h18.03.317,t1_Paradigm,2021.1.4,60.05434814123448,
J,left,Distractor,0,45,45,45,1826.6755180231412,1828.6775361888722,left,1,3,0.4484039616509108,J04I08,2023-01-25_09h18.03.317,t1_Paradigm,2021.1.4,60.05434814123448,
M,left,Pretarget,0,46,46,46,1830.17542322613,1832.1775992264738,left,1,3,0.5483206493663602,J04I08,2023-01-25_09h18.03.317,t1_Paradigm,2021.1.4,60.05434814123448,
Z,right,Target,0,47,47,47,1833.6755436873063,1835.6774056224385,left,0,3,0.34459498259820975,J04I08,2023-01-25_09h18.03.317,t1_Paradigm,2021.1.4,60.05434814123448,
P,left,Distractor,0,48,48,48,1837.175486103326,1839.1777801588323,left,1,3,0.44418028177460656,J04I08,2023-01-25_09h18.03.317,t1_Paradigm,2021.1.4,60.05434814123448,
M,right,Target,0,49,49,49,1840.6755600481993,1842.6778589157475,left,0,3,0.3998804049915634,J04I08,2023-01-25_09h18.03.317,t1_Paradigm,2021.1.4,60.05434814123448,
K,left,Distractor,0,50,50,50,1844.1755945344194,1846.1773470760672,left,1,3,0.48435432330006734,J04I08,2023-01-25_09h18.03.317,t1_Paradigm,2021.1.4,60.05434814123448,
Y,left,Distractor,0,51,51,51,1847.6755732010934,1849.6778589157475,left,1,3,0.40807785994547885,J04I08,2023-01-25_09h18.03.317,t1_Paradigm,2021.1.4,60.05434814123448,
X,left,Distractor,0,52,52,52,1851.1755996672582,1853.1746606796369,left,1,3,0.36751853514579125,J04I08,2023-01-25_09h18.03.317,t1_Paradigm,2021.1.4,60.05434814123448,
F,left,Pretarget,0,53,53,53,1854.6755446497118,1856.6780359984696,left,1,3,0.30375335198186804,J04I08,2023-01-25_09h18.03.317,t1_Paradigm,2021.1.4,60.05434814123448,
M,left,Lure,0,54,54,54,1858.1755810607428,1860.1769951562019,left,1,3,0.3567626837902935,J04I08,2023-01-25_09h18.03.317,t1_Paradigm,2021.1.4,60.05434814123448,
V,left,Distractor,0,55,55,55,1861.6745835267502,1863.6769048504211,left,1,3,0.5686344771675067,J04I08,2023-01-25_09h18.03.317,t1_Paradigm,2021.1.4,60.05434814123448,
F,right,Target,0,56,56,56,1865.175591005609,1867.1774125196825,left,0,3,0.6843150571221486,J04I08,2023-01-25_09h18.03.317,t1_Paradigm,2021.1.4,60.05434814123448,
S,left,Distractor,0,57,57,57,1868.6756011108664,1870.6763020633662,right,0,3,0.673384689464001,J04I08,2023-01-25_09h18.03.317,t1_Paradigm,2021.1.4,60.05434814123448,
D,left,Distractor,0,58,58,58,1872.1755579629971,1874.177413482088,left,1,3,0.548484579208889,J04I08,2023-01-25_09h18.03.317,t1_Paradigm,2021.1.4,60.05434814123448,
F,right,Target,0,59,59,59,1875.6755157775187,1877.6776048405154,left,0,3,0.36062481976114213,J04I08,2023-01-25_09h18.03.317,t1_Paradigm,2021.1.4,60.05434814123448,
V,left,Pretarget,0,60,60,60,1879.1755698326742,1881.1777018831344,left,1,3,0.6521264203911414,J04I08,2023-01-25_09h18.03.317,t1_Paradigm,2021.1.4,60.05434814123448,
J,left,Distractor,0,61,61,61,1882.6755581233883,1884.6775682690786,left,1,3,0.7043244437954854,J04I08,2023-01-25_09h18.03.317,t1_Paradigm,2021.1.4,60.05434814123448,
V,left,Lure,0,62,62,62,1886.1755262035877,1888.1778552265168,right,0,3,0.740007256550598,J04I08,2023-01-25_09h18.03.317,t1_Paradigm,2021.1.4,60.05434814123448,
V,right,Target,0,63,63,63,1889.675508078275,1891.675610414124,right,1,3,0.8422754233179148,J04I08,2023-01-25_09h18.03.317,t1_Paradigm,2021.1.4,60.05434814123448,
R,left,Distractor,0,0,0,0,1954.0385408382572,1956.044419535945,None,0,4,,J04I08,2023-01-25_09h18.03.317,t1_Paradigm,2021.1.4,60.05434814123448,
F,left,Distractor,0,1,1,1,1957.5422279766935,1959.5439959168289,None,0,4,,J04I08,2023-01-25_09h18.03.317,t1_Paradigm,2021.1.4,60.05434814123448,
P,left,Pretarget,0,2,2,2,1961.0421857912152,1963.0444127990922,None,0,4,,J04I08,2023-01-25_09h18.03.317,t1_Paradigm,2021.1.4,60.05434814123448,
H,left,Distractor,0,3,3,3,1964.5421991045005,1966.5437825834524,None,0,4,,J04I08,2023-01-25_09h18.03.317,t1_Paradigm,2021.1.4,60.05434814123448,
Z,left,Distractor,0,4,4,4,1968.0422111345833,1970.0442177514487,left,1,4,0.521645637563779,J04I08,2023-01-25_09h18.03.317,t1_Paradigm,2021.1.4,60.05434814123448,
T,left,Distractor,0,5,5,5,1971.5422475456144,1973.5413576407154,left,1,4,0.8165718001546338,J04I08,2023-01-25_09h18.03.317,t1_Paradigm,2021.1.4,60.05434814123448,
P,right,Target,0,6,6,6,1975.042222041855,1977.0445177013753,right,1,4,0.7692413063341519,J04I08,2023-01-25_09h18.03.317,t1_Paradigm,2021.1.4,60.05434814123448,
G,left,Distractor,0,7,7,7,1978.542217069422,1980.5444533805567,left,1,4,0.5814793915196788,J04I08,2023-01-25_09h18.03.317,t1_Paradigm,2021.1.4,60.05434814123448,
L,left,Distractor,0,8,8,8,1982.0422768990102,1984.0444435960962,left,1,4,0.6814932822453557,J04I08,2023-01-25_09h18.03.317,t1_Paradigm,2021.1.4,60.05434814123448,
P,left,Lure,0,9,9,9,1985.542258773683,1987.5441322576953,left,1,4,1.1176384349091677,J04I08,2023-01-25_09h18.03.317,t1_Paradigm,2021.1.4,60.05434814123448,
Q,left,Pretarget,0,10,10,10,1989.0422127385973,1991.0549100839853,left,1,4,0.8068341745238286,J04I08,2023-01-25_09h18.03.317,t1_Paradigm,2021.1.4,60.05434814123448,
D,left,Distractor,0,11,11,11,1992.5422090493666,1994.5446384833485,left,1,4,0.8050453822652344,J04I08,2023-01-25_09h18.03.317,t1_Paradigm,2021.1.4,60.05434814123448,
M,left,Pretarget,0,12,12,12,1996.0422101721779,1998.0443861725216,left,1,4,0.48948779780766927,J04I08,2023-01-25_09h18.03.317,t1_Paradigm,2021.1.4,60.05434814123448,
C,left,Distractor,0,13,13,13,1999.5423142724467,2001.5446590146748,left,1,4,0.4293848909292137,J04I08,2023-01-25_09h18.03.317,t1_Paradigm,2021.1.4,60.05434814123448,
Q,right,Target,0,14,14,14,2003.0421591646445,2005.044514814159,right,1,4,1.0092384576128097,J04I08,2023-01-25_09h18.03.317,t1_Paradigm,2021.1.4,60.05434814123448,
R,left,Distractor,0,15,15,15,2006.5421923676622,2008.543812738848,left,1,4,0.39002921544306446,J04I08,2023-01-25_09h18.03.317,t1_Paradigm,2021.1.4,60.05434814123448,
M,right,Target,0,16,16,16,2010.0423202072852,2012.0413517058769,left,0,4,0.3646242589893518,J04I08,2023-01-25_09h18.03.317,t1_Paradigm,2021.1.4,60.05434814123448,
S,left,Distractor,0,17,17,17,2013.5421737611468,2015.5427656409447,left,1,4,0.3670081390591804,J04I08,2023-01-25_09h18.03.317,t1_Paradigm,2021.1.4,60.05434814123448,
Z,left,Distractor,0,18,18,18,2017.0423625531548,2019.0438690396113,right,0,4,0.8338800335041014,J04I08,2023-01-25_09h18.03.317,t1_Paradigm,2021.1.4,60.05434814123448,
L,left,Pretarget,0,19,19,19,2020.5422350343433,2022.5437944531295,left,1,4,0.598365770172677,J04I08,2023-01-25_09h18.03.317,t1_Paradigm,2021.1.4,60.05434814123448,
M,right,Target,0,20,20,20,2024.042324056907,2026.0444605985977,right,1,4,0.9212129397346871,J04I08,2023-01-25_09h18.03.317,t1_Paradigm,2021.1.4,60.05434814123448,
P,left,Distractor,0,21,21,21,2027.5425417211081,2029.54422946072,right,0,4,1.0216586300375639,J04I08,2023-01-25_09h18.03.317,t1_Paradigm,2021.1.4,60.05434814123448,
F,left,Distractor,0,22,22,22,2031.0421585230506,2033.044194653703,left,1,4,0.7057032510492718,J04I08,2023-01-25_09h18.03.317,t1_Paradigm,2021.1.4,60.05434814123448,
L,right,Target,0,23,23,23,2034.5422302223014,2036.544427074783,left,0,4,0.5014485816791421,J04I08,2023-01-25_09h18.03.317,t1_Paradigm,2021.1.4,60.05434814123448,
L,left,Lure,0,24,24,24,2038.042249310034,2040.0422159466107,right,0,4,0.6836898139154073,J04I08,2023-01-25_09h18.03.317,t1_Paradigm,2021.1.4,60.05434814123448,
V,left,Pretarget,0,25,25,25,2041.5422173902189,2043.5446737715683,left,1,4,0.5732383074937388,J04I08,2023-01-25_09h18.03.317,t1_Paradigm,2021.1.4,60.05434814123448,
Z,left,Distractor,0,26,26,26,2045.0421716759301,2047.0440239870077,left,1,4,0.8020805296546314,J04I08,2023-01-25_09h18.03.317,t1_Paradigm,2021.1.4,60.05434814123448,
H,left,Distractor,0,27,27,27,2048.542242733587,2050.544112047166,left,1,4,1.0138576864410425,J04I08,2023-01-25_09h18.03.317,t1_Paradigm,2021.1.4,60.05434814123448,
X,left,Distractor,0,28,28,28,2052.0422509140335,2054.044622282847,left,1,4,0.5691740662441589,J04I08,2023-01-25_09h18.03.317,t1_Paradigm,2021.1.4,60.05434814123448,
V,right,Target,0,29,29,29,2055.5423453902476,2057.5443186436896,left,0,4,0.3813823168165982,J04I08,2023-01-25_09h18.03.317,t1_Paradigm,2021.1.4,60.05434814123448,
C,left,Distractor,0,30,30,30,2059.042227495491,2061.0440785233513,left,1,4,0.753728281299118,J04I08,2023-01-25_09h18.03.317,t1_Paradigm,2021.1.4,60.05434814123448,
S,left,Pretarget,0,31,31,31,2062.542258132089,2064.5444758367084,left,1,4,0.40543156377680134,J04I08,2023-01-25_09h18.03.317,t1_Paradigm,2021.1.4,60.05434814123448,
D,left,Distractor,0,32,32,32,2066.042227174694,2068.044517380564,left,1,4,0.3292330553231295,J04I08,2023-01-25_09h18.03.317,t1_Paradigm,2021.1.4,60.05434814123448,
V,left,Distractor,0,33,33,33,2069.54215483382,2071.544572077313,left,1,4,0.6690166486660019,J04I08,2023-01-25_09h18.03.317,t1_Paradigm,2021.1.4,60.05434814123448,
R,left,Distractor,0,34,34,34,2073.0422127385973,2075.0443935509684,left,1,4,0.38540196657413617,J04I08,2023-01-25_09h18.03.317,t1_Paradigm,2021.1.4,60.05434814123448,
S,right,Target,0,35,35,35,2076.54222027745,2078.5437543528824,right,1,4,0.6142547752242535,J04I08,2023-01-25_09h18.03.317,t1_Paradigm,2021.1.4,60.05434814123448,
Y,left,Distractor,0,36,36,36,2080.0421983025008,2082.0448667340097,left,1,4,0.5849276928202016,J04I08,2023-01-25_09h18.03.317,t1_Paradigm,2021.1.4,60.05434814123448,
N,left,Pretarget,0,37,37,37,2083.54224850802,2085.5442785434425,left,1,4,0.3495016500528436,J04I08,2023-01-25_09h18.03.317,t1_Paradigm,2021.1.4,60.05434814123448,
Z,left,Pretarget,0,38,38,38,2087.042291014295,2089.042638763727,left,1,4,0.40314456592022907,J04I08,2023-01-25_09h18.03.317,t1_Paradigm,2021.1.4,60.05434814123448,
P,left,Pretarget,0,39,39,39,2090.542213540597,2092.5442977915664,left,1,4,0.3095322802255396,J04I08,2023-01-25_09h18.03.317,t1_Paradigm,2021.1.4,60.05434814123448,
M,left,Distractor,0,40,40,40,2094.0421915656625,2096.0445196261862,left,1,4,0.4412901760370005,J04I08,2023-01-25_09h18.03.317,t1_Paradigm,2021.1.4,60.05434814123448,
N,right,Target,0,41,41,41,2097.542226693491,2099.5441492602113,left,0,4,0.3817502767778933,J04I08,2023-01-25_09h18.03.317,t1_Paradigm,2021.1.4,60.05434814123448,
Z,right,Target,0,42,42,42,2101.0421832248103,2103.044421460756,left,0,4,0.32133843751216773,J04I08,2023-01-25_09h18.03.317,t1_Paradigm,2021.1.4,60.05434814123448,
P,right,Target,0,43,43,43,2104.5421991045005,2106.5443324381777,left,0,4,0.3735730323387543,J04I08,2023-01-25_09h18.03.317,t1_Paradigm,2021.1.4,60.05434814123448,
X,left,Pretarget,0,44,44,44,2108.0422627837106,2110.0446405685652,left,1,4,0.3453392433584668,J04I08,2023-01-25_09h18.03.317,t1_Paradigm,2021.1.4,60.05434814123448,
Z,left,Lure,0,45,45,45,2111.5421618914697,2113.5443221725145,left,1,4,0.47765982599230483,J04I08,2023-01-25_09h18.03.317,t1_Paradigm,2021.1.4,60.05434814123448,
R,left,Pretarget,0,46,46,46,2115.0423474754643,2117.04366372629,left,1,4,0.32218086371722165,J04I08,2023-01-25_09h18.03.317,t1_Paradigm,2021.1.4,60.05434814123448,
K,left,Distractor,0,47,47,47,2118.542304969189,2120.5445178617665,left,1,4,0.3092595984635409,J04I08,2023-01-25_09h18.03.317,t1_Paradigm,2021.1.4,60.05434814123448,
X,right,Target,0,48,48,48,2122.04224770602,2124.0445799369627,left,0,4,0.5213052665785654,J04I08,2023-01-25_09h18.03.317,t1_Paradigm,2021.1.4,60.05434814123448,
B,left,Distractor,0,49,49,49,2125.542234392735,2127.544031846657,left,1,4,0.3337509106786456,J04I08,2023-01-25_09h18.03.317,t1_Paradigm,2021.1.4,60.05434814123448,
R,right,Target,0,50,50,50,2129.0422582924803,2131.044597581087,left,0,4,0.40126819469151087,J04I08,2023-01-25_09h18.03.317,t1_Paradigm,2021.1.4,60.05434814123448,
Y,left,Pretarget,0,51,51,51,2132.5419854503416,2134.5443324381777,right,0,4,0.8214252144680358,J04I08,2023-01-25_09h18.03.317,t1_Paradigm,2021.1.4,60.05434814123448,
W,left,Pretarget,0,52,52,52,2136.0422422523843,2138.0440746737295,left,1,4,0.32993176220043097,J04I08,2023-01-25_09h18.03.317,t1_Paradigm,2021.1.4,60.05434814123448,
Z,left,Distractor,0,53,53,53,2139.5422321471124,2141.5444806487358,left,1,4,0.33325976273044944,J04I08,2023-01-25_09h18.03.317,t1_Paradigm,2021.1.4,60.05434814123448,
Q,left,Distractor,0,54,54,54,2143.0422903726867,2145.044210052205,left,1,4,0.3695954076538328,J04I08,2023-01-25_09h18.03.317,t1_Paradigm,2021.1.4,60.05434814123448,
Y,right,Target,0,55,55,55,2146.542169911525,2148.5441040271253,left,0,4,0.3418206864007516,J04I08,2023-01-25_09h18.03.317,t1_Paradigm,2021.1.4,60.05434814123448,
W,right,Target,0,56,56,56,2150.0421546734287,2152.0444753555057,left,0,4,0.4416815545555437,J04I08,2023-01-25_09h18.03.317,t1_Paradigm,2021.1.4,60.05434814123448,
H,left,Pretarget,0,57,57,57,2153.5422331095324,2155.5442066837713,left,1,4,0.3335914720519213,J04I08,2023-01-25_09h18.03.317,t1_Paradigm,2021.1.4,60.05434814123448,
M,left,Distractor,0,58,58,58,2157.0412833750306,2159.0442511148576,left,1,4,0.369567177069257,J04I08,2023-01-25_09h18.03.317,t1_Paradigm,2021.1.4,60.05434814123448,
R,left,Pretarget,0,59,59,59,2160.5422555656696,2162.544296829161,left,1,4,0.6296927325893193,J04I08,2023-01-25_09h18.03.317,t1_Paradigm,2021.1.4,60.05434814123448,
J,left,Distractor,0,60,60,60,2164.0421488989814,2166.0446145835886,left,1,4,0.37760070218064357,J04I08,2023-01-25_09h18.03.317,t1_Paradigm,2021.1.4,60.05434814123448,
H,right,Target,0,61,61,61,2167.542170232322,2169.544609931967,left,0,4,0.3651753969170386,J04I08,2023-01-25_09h18.03.317,t1_Paradigm,2021.1.4,60.05434814123448,
Z,left,Distractor,0,62,62,62,2171.04226535013,2173.0441118867748,left,1,4,0.3376849062915426,J04I08,2023-01-25_09h18.03.317,t1_Paradigm,2021.1.4,60.05434814123448,
R,right,Target,0,63,63,63,2174.54227064336,2176.54389710979,left,0,4,0.3099374532175716,J04I08,2023-01-25_09h18.03.317,t1_Paradigm,2021.1.4,60.05434814123448,
J,left,Pretarget,0,0,0,0,2186.3412037840462,2188.344184035159,left,1,4,0.7656242631492205,J04I08,2023-01-25_09h18.03.317,t1_Paradigm,2021.1.4,60.05434814123448,
G,left,Pretarget,0,1,1,1,2189.8422674032627,2191.8440484962775,None,0,4,,J04I08,2023-01-25_09h18.03.317,t1_Paradigm,2021.1.4,60.05434814123448,
Z,left,Distractor,0,2,2,2,2193.342225859393,2195.344628666804,None,0,4,,J04I08,2023-01-25_09h18.03.317,t1_Paradigm,2021.1.4,60.05434814123448,
F,left,Distractor,0,3,3,3,2196.8422276238125,2198.844409077792,None,0,4,,J04I08,2023-01-25_09h18.03.317,t1_Paradigm,2021.1.4,60.05434814123448,
J,right,Target,0,4,4,4,2200.342192816781,2202.354888878981,right,1,4,0.9147606479818933,J04I08,2023-01-25_09h18.03.317,t1_Paradigm,2021.1.4,60.05434814123448,
G,right,Target,0,5,5,5,2203.8422157541354,2205.84452809536,right,1,4,0.4330632073106244,J04I08,2023-01-25_09h18.03.317,t1_Paradigm,2021.1.4,60.05434814123448,
H,left,Distractor,0,6,6,6,2207.342335252906,2209.3446953936364,left,1,4,0.549105651982245,J04I08,2023-01-25_09h18.03.317,t1_Paradigm,2021.1.4,60.05434814123448,
P,left,Distractor,0,7,7,7,2210.8422568168025,2212.8443545414484,left,1,4,1.001652772189118,J04I08,2023-01-25_09h18.03.317,t1_Paradigm,2021.1.4,60.05434814123448,
G,left,Lure,0,8,8,8,2214.3422332378395,2216.3442796341697,left,1,4,1.2617427186778514,J04I08,2023-01-25_09h18.03.317,t1_Paradigm,2021.1.4,60.05434814123448,
S,left,Distractor,0,9,9,9,2217.842277027332,2219.844426401105,left,1,4,0.6894645717402454,J04I08,2023-01-25_09h18.03.317,t1_Paradigm,2021.1.4,60.05434814123448,
R,left,Pretarget,0,10,10,10,2221.342178380699,2223.3445086868305,left,1,4,0.3252894356410252,J04I08,2023-01-25_09h18.03.317,t1_Paradigm,2021.1.4,60.05434814123448,
T,left,Pretarget,0,11,11,11,2224.841262651229,2226.8443975289265,left,1,4,0.3615917171409819,J04I08,2023-01-25_09h18.03.317,t1_Paradigm,2021.1.4,60.05434814123448,
X,left,Distractor,0,12,12,12,2228.342136997235,2230.3441298195976,left,1,4,0.4297891015157802,J04I08,2023-01-25_09h18.03.317,t1_Paradigm,2021.1.4,60.05434814123448,
F,left,Pretarget,0,13,13,13,2231.8422343606508,2233.8436818195332,left,1,4,0.3860339466336882,J04I08,2023-01-25_09h18.03.317,t1_Paradigm,2021.1.4,60.05434814123448,
R,right,Target,0,14,14,14,2235.342230029826,2237.3444910427206,left,0,4,0.6775092415045947,J04I08,2023-01-25_09h18.03.317,t1_Paradigm,2021.1.4,60.05434814123448,
T,right,Target,0,15,15,15,2238.842289538603,2240.8445755740686,right,1,4,0.9372649122378789,J04I08,2023-01-25_09h18.03.317,t1_Paradigm,2021.1.4,60.05434814123448,
C,left,Distractor,0,16,16,16,2242.3422422203002,2244.344630270818,left,1,4,0.5251821594283683,J04I08,2023-01-25_09h18.03.317,t1_Paradigm,2021.1.4,60.05434814123448,
F,right,Target,0,17,17,17,2245.8421878443623,2247.861174514066,left,0,4,0.3845043624169193,J04I08,2023-01-25_09h18.03.317,t1_Paradigm,2021.1.4,60.05434814123448,
M,left,Distractor,0,18,18,18,2249.3422499195585,2251.344344756988,right,0,4,0.8215426280075917,J04I08,2023-01-25_09h18.03.317,t1_Paradigm,2021.1.4,60.05434814123448,
N,left,Distractor,0,19,19,19,2252.8422202453658,2254.8440571579413,left,1,4,0.4102304417465348,J04I08,2023-01-25_09h18.03.317,t1_Paradigm,2021.1.4,60.05434814123448,
R,left,Lure,0,20,20,20,2256.3422152729327,2258.344012406058,left,1,4,0.413900738072698,J04I08,2023-01-25_09h18.03.317,t1_Paradigm,2021.1.4,60.05434814123448,
F,right,Target,0,21,21,21,2259.842275102521,2261.844674060296,left,0,4,0.33715975332597736,J04I08,2023-01-25_09h18.03.317,t1_Paradigm,2021.1.4,60.05434814123448,
P,left,Distractor,0,22,22,22,2263.342004826787,2265.3440435238444,left,1,4,0.3418970373022603,J04I08,2023-01-25_09h18.03.317,t1_Paradigm,2021.1.4,60.05434814123448,
L,left,Pretarget,0,23,23,23,2266.8422436639084,2268.8442233334063,left,1,4,0.4573838528012857,J04I08,2023-01-25_09h18.03.317,t1_Paradigm,2021.1.4,60.05434814123448,
T,left,Distractor,0,24,24,24,2270.342183192726,2272.34460492745,left,1,4,0.6692056010797387,J04I08,2023-01-25_09h18.03.317,t1_Paradigm,2021.1.4,60.05434814123448,
F,left,Distractor,0,25,25,25,2273.842188806768,2275.8445393234288,left,1,4,1.3294556919427123,J04I08,2023-01-25_09h18.03.317,t1_Paradigm,2021.1.4,60.05434814123448,
V,left,Distractor,0,26,26,26,2277.34218030551,2279.344372345964,left,1,4,1.0456122780014994,J04I08,2023-01-25_09h18.03.317,t1_Paradigm,2021.1.4,60.05434814123448,
L,right,Target,0,27,27,27,2280.8421326663956,2282.8434479548305,left,0,4,0.4581399832677562,J04I08,2023-01-25_09h18.03.317,t1_Paradigm,2021.1.4,60.05434814123448,
S,left,Pretarget,0,28,28,28,2284.342185438334,2286.3445981906116,left,1,4,0.5252046155801509,J04I08,2023-01-25_09h18.03.317,t1_Paradigm,2021.1.4,60.05434814123448,
W,left,Distractor,0,29,29,29,2287.842169558644,2289.84479147385,left,1,4,0.353031114267651,J04I08,2023-01-25_09h18.03.317,t1_Paradigm,2021.1.4,60.05434814123448,
Q,left,Distractor,0,30,30,30,2291.3422451075166,2293.34421868177,left,1,4,0.43769109777349513,J04I08,2023-01-25_09h18.03.317,t1_Paradigm,2021.1.4,60.05434814123448,
L,right,Target,0,31,31,31,2294.8422712528845,2296.844619844749,left,0,4,0.4093735794449458,J04I08,2023-01-25_09h18.03.317,t1_Paradigm,2021.1.4,60.05434814123448,
S,right,Target,0,32,32,32,2298.342292907022,2300.3445728472434,left,0,4,0.3813066075381357,J04I08,2023-01-25_09h18.03.317,t1_Paradigm,2021.1.4,60.05434814123448,
Z,left,Pretarget,0,33,33,33,2301.84199825034,2303.8446695690654,left,1,4,0.6892897346260725,J04I08,2023-01-25_09h18.03.317,t1_Paradigm,2021.1.4,60.05434814123448,
F,left,Distractor,0,34,34,34,2305.342273338101,2307.343863874703,left,1,4,0.5821335069049383,J04I08,2023-01-25_09h18.03.317,t1_Paradigm,2021.1.4,60.05434814123448,
V,left,Distractor,0,35,35,35,2308.842373909545,2310.8440552331303,left,1,4,0.3778618350479519,J04I08,2023-01-25_09h18.03.317,t1_Paradigm,2021.1.4,60.05434814123448,
M,left,Distractor,0,36,36,36,2312.342192816781,2314.344707263299,left,1,4,0.33310674015956465,J04I08,2023-01-25_09h18.03.317,t1_Paradigm,2021.1.4,60.05434814123448,
Z,right,Target,0,37,37,37,2315.842124967152,2317.84279640585,left,0,4,0.38689305454317946,J04I08,2023-01-25_09h18.03.317,t1_Paradigm,2021.1.4,60.05434814123448,
H,left,Pretarget,0,38,38,38,2319.3422152729327,2321.3442488371657,left,1,4,0.32557559106498957,J04I08,2023-01-25_09h18.03.317,t1_Paradigm,2021.1.4,60.05434814123448,
L,left,Distractor,0,39,39,39,2322.8422625912353,2324.844681117931,left,1,4,0.36123755168227945,J04I08,2023-01-25_09h18.03.317,t1_Paradigm,2021.1.4,60.05434814123448,
G,left,Distractor,0,40,40,40,2326.3422601852217,2328.3442215689865,left,1,4,0.34959468264423776,J04I08,2023-01-25_09h18.03.317,t1_Paradigm,2021.1.4,60.05434814123448,
K,left,Distractor,0,41,41,41,2329.8421515937225,2331.8417554031766,left,1,4,0.29219389148056507,J04I08,2023-01-25_09h18.03.317,t1_Paradigm,2021.1.4,60.05434814123448,
H,right,Target,0,42,42,42,2333.3421780598874,2335.3440104812325,left,0,4,0.325810097361682,J04I08,2023-01-25_09h18.03.317,t1_Paradigm,2021.1.4,60.05434814123448,
B,left,Distractor,0,43,43,43,2336.8417996738717,2338.8443490878126,left,1,4,0.5054553993686568,J04I08,2023-01-25_09h18.03.317,t1_Paradigm,2021.1.4,60.05434814123448,
Z,left,Distractor,0,44,44,44,2340.342221688974,2342.344113137893,left,1,4,0.36562933183449786,J04I08,2023-01-25_09h18.03.317,t1_Paradigm,2021.1.4,60.05434814123448,
T,left,Pretarget,0,45,45,45,2343.8422571375995,2345.844206651702,left,1,4,0.30573943752096966,J04I08,2023-01-25_09h18.03.317,t1_Paradigm,2021.1.4,60.05434814123448,
H,right,Target,0,46,46,46,2347.3420356237766,2349.3446193635464,left,0,4,0.3573292202199809,J04I08,2023-01-25_09h18.03.317,t1_Paradigm,2021.1.4,60.05434814123448,
F,left,Distractor,0,47,47,47,2350.8421531977365,2352.8446005966252,left,1,4,0.6013489084871253,J04I08,2023-01-25_09h18.03.317,t1_Paradigm,2021.1.4,60.05434814123448,
R,left,Distractor,0,48,48,48,2354.3423461601633,2356.3443810076133,left,1,4,0.333424975789967,J04I08,2023-01-25_09h18.03.317,t1_Paradigm,2021.1.4,60.05434814123448,
T,right,Target,0,49,49,49,2357.8422192829603,2359.844530020171,left,0,4,0.33732368316850625,J04I08,2023-01-25_09h18.03.317,t1_Paradigm,2021.1.4,60.05434814123448,
H,right,Target,0,50,50,50,2361.342200836836,2363.3547124378383,left,0,4,0.4271533918217756,J04I08,2023-01-25_09h18.03.317,t1_Paradigm,2021.1.4,60.05434814123448,
Y,left,Pretarget,0,51,51,51,2364.8423110323492,2366.8445069224254,left,1,4,0.37743452671566047,J04I08,2023-01-25_09h18.03.317,t1_Paradigm,2021.1.4,60.05434814123448,
H,left,Distractor,0,52,52,52,2368.342240937098,2370.3439703809854,left,1,4,0.3178558103827527,J04I08,2023-01-25_09h18.03.317,t1_Paradigm,2021.1.4,60.05434814123448,
S,left,Distractor,0,53,53,53,2371.8421823907265,2373.844119393543,left,1,4,0.4334959692787379,J04I08,2023-01-25_09h18.03.317,t1_Paradigm,2021.1.4,60.05434814123448,
Q,left,Distractor,0,54,54,54,2375.342187042348,2377.3443344913103,left,1,4,0.3254934657452395,J04I08,2023-01-25_09h18.03.317,t1_Paradigm,2021.1.4,60.05434814123448,
Y,right,Target,0,55,55,55,2378.8422497591528,2380.844263433668,left,0,4,0.3773780655465089,J04I08,2023-01-25_09h18.03.317,t1_Paradigm,2021.1.4,60.05434814123448,
R,left,Distractor,0,56,56,56,2382.3422149521357,2384.344436506377,left,1,4,0.3015330809575971,J04I08,2023-01-25_09h18.03.317,t1_Paradigm,2021.1.4,60.05434814123448,
H,left,Pretarget,0,57,57,57,2385.8422394934896,2387.8445239249268,left,1,4,0.3373050766531378,J04I08,2023-01-25_09h18.03.317,t1_Paradigm,2021.1.4,60.05434814123448,
J,left,Distractor,0,58,58,58,2389.3421864007396,2391.344590812165,left,1,4,0.3092137237836141,J04I08,2023-01-25_09h18.03.317,t1_Paradigm,2021.1.4,60.05434814123448,
V,left,Distractor,0,59,59,59,2392.842183673929,2394.844139283261,left,1,4,0.4255484191380674,J04I08,2023-01-25_09h18.03.317,t1_Paradigm,2021.1.4,60.05434814123448,
Y,left,Lure,0,60,60,60,2396.341254470768,2398.3444236742944,left,1,4,0.3816129734914284,J04I08,2023-01-25_09h18.03.317,t1_Paradigm,2021.1.4,60.05434814123448,
H,right,Target,0,61,61,61,2399.8421631426027,2401.8443840552354,left,0,4,0.6576082859246526,J04I08,2023-01-25_09h18.03.317,t1_Paradigm,2021.1.4,60.05434814123448,
L,left,Distractor,0,62,62,62,2403.3422714132903,2405.344659784605,left,1,4,0.3892605737055419,J04I08,2023-01-25_09h18.03.317,t1_Paradigm,2021.1.4,60.05434814123448,
P,left,Distractor,0,63,63,63,2406.84219714762,2408.844221087784,left,1,4,0.23360484949080274,J04I08,2023-01-25_09h18.03.317,t1_Paradigm,2021.1.4,60.05434814123448,
