Letter,CorrAnswer,Stimulus,finaln_nback_run.thisRepN,finaln_nback_run.thisTrialN,finaln_nback_run.thisN,finaln_nback_run.thisIndex,finaln_fixcross.started,finaln_nback_trial.started,finaln_trial_resp.keys,finaln_trial_resp.corr,finaln_level,finaln_money,finaln_trial_resp.rt,Participant,date,expName,psychopyVersion,frameRate,
F,left,Distractor,0,0,0,0,3175.232109321817,3177.2279886127917,None,0,1,3.0,,J17T08,2022-11-28_15h04.22.855,t1_Paradigm,2021.1.4,60.107172331818326,
T,left,Pretarget,0,1,1,1,3178.726093952808,3180.7266345051394,None,0,1,3.0,,J17T08,2022-11-28_15h04.22.855,t1_Paradigm,2021.1.4,60.107172331818326,
B,left,Distractor,0,2,2,2,3182.225518432995,3184.2274981056607,left,1,1,3.0,0.9087717688598786,J17T08,2022-11-28_15h04.22.855,t1_Paradigm,2021.1.4,60.107172331818326,
T,right,Target,0,3,3,3,3185.725119033794,3187.7255190746,right,1,1,3.0,1.00514984367328,J17T08,2022-11-28_15h04.22.855,t1_Paradigm,2021.1.4,60.107172331818326,
Z,left,Distractor,0,4,4,4,3189.224393699181,3191.2255489092395,left,1,1,3.0,0.9562964241422378,J17T08,2022-11-28_15h04.22.855,t1_Paradigm,2021.1.4,60.107172331818326,
T,right,Target,0,5,5,5,3192.7239355931097,3194.7259928999974,right,1,1,3.0,0.6169620509808738,J17T08,2022-11-28_15h04.22.855,t1_Paradigm,2021.1.4,60.107172331818326,
L,left,Distractor,0,6,6,6,3196.2235169457545,3198.2250863119316,left,1,1,3.0,0.4386740973095584,J17T08,2022-11-28_15h04.22.855,t1_Paradigm,2021.1.4,60.107172331818326,
T,right,Target,0,7,7,7,3199.7226924831466,3201.7243532780567,right,1,1,3.0,0.6764051633808776,J17T08,2022-11-28_15h04.22.855,t1_Paradigm,2021.1.4,60.107172331818326,
Z,left,Lure,0,8,8,8,3203.2221313994505,3205.2236670813572,left,1,1,3.0,0.9873991958120314,J17T08,2022-11-28_15h04.22.855,t1_Paradigm,2021.1.4,60.107172331818326,
J,left,Distractor,0,9,9,9,3206.7215144961056,3208.7227900071284,left,1,1,3.0,1.1108937495464488,J17T08,2022-11-28_15h04.22.855,t1_Paradigm,2021.1.4,60.107172331818326,
D,left,Pretarget,0,10,10,10,3210.221112530485,3212.2225211745736,left,1,1,3.0,0.744350827125345,J17T08,2022-11-28_15h04.22.855,t1_Paradigm,2021.1.4,60.107172331818326,
H,left,Distractor,0,11,11,11,3213.7203031455974,3215.7216726517736,left,1,1,3.0,0.8676009293012612,J17T08,2022-11-28_15h04.22.855,t1_Paradigm,2021.1.4,60.107172331818326,
D,right,Target,0,12,12,12,3217.219771254935,3219.2209434675297,right,1,1,3.0,0.6975819827011946,J17T08,2022-11-28_15h04.22.855,t1_Paradigm,2021.1.4,60.107172331818326,
S,left,Distractor,0,13,13,13,3220.7192060008047,3222.718153126767,left,1,1,3.0,0.875646657782454,J17T08,2022-11-28_15h04.22.855,t1_Paradigm,2021.1.4,60.107172331818326,
R,left,Pretarget,0,14,14,14,3224.218870762118,3226.2190314842064,left,1,1,3.0,0.9850130662889569,J17T08,2022-11-28_15h04.22.855,t1_Paradigm,2021.1.4,60.107172331818326,
Z,left,Distractor,0,15,15,15,3227.717907391997,3229.716958137189,left,1,1,3.0,1.2037147654518776,J17T08,2022-11-28_15h04.22.855,t1_Paradigm,2021.1.4,60.107172331818326,
R,right,Target,0,16,16,16,3231.2175009351395,3233.21899074228,right,1,1,3.0,0.46732016289115563,J17T08,2022-11-28_15h04.22.855,t1_Paradigm,2021.1.4,60.107172331818326,
T,left,Distractor,0,17,17,17,3234.7169013551347,3236.718412656047,left,1,1,3.0,0.7702367073852656,J17T08,2022-11-28_15h04.22.855,t1_Paradigm,2021.1.4,60.107172331818326,
M,left,Distractor,0,18,18,18,3238.2162488427048,3240.217398919922,left,1,1,3.0,0.9146376438720836,J17T08,2022-11-28_15h04.22.855,t1_Paradigm,2021.1.4,60.107172331818326,
R,left,Lure,0,19,19,19,3241.715327497721,3243.716897826306,left,1,1,3.0,0.9395341690023997,J17T08,2022-11-28_15h04.22.855,t1_Paradigm,2021.1.4,60.107172331818326,
J,left,Distractor,0,20,20,20,3245.215401923917,3247.2168067183757,left,1,1,3.0,1.0296026988471567,J17T08,2022-11-28_15h04.22.855,t1_Paradigm,2021.1.4,60.107172331818326,
K,left,Distractor,0,21,21,21,3248.7147535819213,3250.716539810637,left,1,1,3.0,0.8017032691705026,J17T08,2022-11-28_15h04.22.855,t1_Paradigm,2021.1.4,60.107172331818326,
Z,left,Distractor,0,22,22,22,3252.213899284675,3254.2161070479688,left,1,1,3.0,0.8596001131791127,J17T08,2022-11-28_15h04.22.855,t1_Paradigm,2021.1.4,60.107172331818326,
W,left,Pretarget,0,23,23,23,3255.713427384093,3257.7149598579745,left,1,1,3.0,0.9586886489141762,J17T08,2022-11-28_15h04.22.855,t1_Paradigm,2021.1.4,60.107172331818326,
Q,left,Distractor,0,24,24,24,3259.212887152563,3261.211772042826,left,1,1,3.0,0.762478097204621,J17T08,2022-11-28_15h04.22.855,t1_Paradigm,2021.1.4,60.107172331818326,
W,right,Target,0,25,25,25,3262.712119151208,3264.7131020902852,right,1,1,3.0,0.4511417684307162,J17T08,2022-11-28_15h04.22.855,t1_Paradigm,2021.1.4,60.107172331818326,
D,left,Pretarget,0,26,26,26,3266.2112484930303,3268.212295271819,left,1,1,3.0,0.5258412887023951,J17T08,2022-11-28_15h04.22.855,t1_Paradigm,2021.1.4,60.107172331818326,
W,right,Target,0,27,27,27,3269.710851339447,3271.712206088705,right,1,1,3.0,0.6236382732859056,J17T08,2022-11-28_15h04.22.855,t1_Paradigm,2021.1.4,60.107172331818326,
D,right,Target,0,28,28,28,3273.210553955464,3275.2116873509476,right,1,1,3.0,0.534789434816048,J17T08,2022-11-28_15h04.22.855,t1_Paradigm,2021.1.4,60.107172331818326,
L,left,Pretarget,0,29,29,29,3276.7266252018653,3278.728089023997,left,1,1,3.0,0.697955717696459,J17T08,2022-11-28_15h04.22.855,t1_Paradigm,2021.1.4,60.107172331818326,
P,left,Distractor,0,30,30,30,3280.225657019706,3282.2271307867168,left,1,1,3.0,0.719619836120728,J17T08,2022-11-28_15h04.22.855,t1_Paradigm,2021.1.4,60.107172331818326,
L,right,Target,0,31,31,31,3283.725488919159,3285.727031658723,right,1,1,3.0,0.4585670647402367,J17T08,2022-11-28_15h04.22.855,t1_Paradigm,2021.1.4,60.107172331818326,
R,left,Distractor,0,32,32,32,3287.2248543716732,3289.226926435479,left,1,1,3.0,0.7570052053424661,J17T08,2022-11-28_15h04.22.855,t1_Paradigm,2021.1.4,60.107172331818326,
V,left,Distractor,0,33,33,33,3290.724279814268,3292.725774754249,None,0,1,3.0,,J17T08,2022-11-28_15h04.22.855,t1_Paradigm,2021.1.4,60.107172331818326,
L,left,Lure,0,34,34,34,3294.2236690061727,3296.2249910335686,left,1,1,3.0,0.9391036519527916,J17T08,2022-11-28_15h04.22.855,t1_Paradigm,2021.1.4,60.107172331818326,
H,left,Distractor,0,35,35,35,3297.723118188159,3299.7241081848924,left,1,1,3.0,1.070803052244628,J17T08,2022-11-28_15h04.22.855,t1_Paradigm,2021.1.4,60.107172331818326,
K,left,Pretarget,0,36,36,36,3301.2225243825997,3303.2235753318228,None,0,1,3.0,,J17T08,2022-11-28_15h04.22.855,t1_Paradigm,2021.1.4,60.107172331818326,
F,left,Distractor,0,37,37,37,3304.721906196045,3306.723478449446,left,1,1,3.0,1.4312317984640686,J17T08,2022-11-28_15h04.22.855,t1_Paradigm,2021.1.4,60.107172331818326,
K,right,Target,0,38,38,38,3308.2213887414982,3310.2231441731665,None,0,1,3.0,,J17T08,2022-11-28_15h04.22.855,t1_Paradigm,2021.1.4,60.107172331818326,
S,left,Pretarget,0,39,39,39,3311.7207837078495,3313.7230790502454,left,1,1,3.0,1.2884127394554525,J17T08,2022-11-28_15h04.22.855,t1_Paradigm,2021.1.4,60.107172331818326,
W,left,Distractor,0,40,40,40,3315.2202954463364,3317.220253100397,left,1,1,3.0,0.9893467882211553,J17T08,2022-11-28_15h04.22.855,t1_Paradigm,2021.1.4,60.107172331818326,
S,right,Target,0,41,41,41,3318.719526482573,3320.7215741653845,right,1,1,3.0,0.4745144813487059,J17T08,2022-11-28_15h04.22.855,t1_Paradigm,2021.1.4,60.107172331818326,
F,left,Pretarget,0,42,42,42,3322.21904816594,3324.2209068960365,left,1,1,3.0,1.1199214546986695,J17T08,2022-11-28_15h04.22.855,t1_Paradigm,2021.1.4,60.107172331818326,
Y,left,Distractor,0,43,43,43,3325.7184835534144,3327.7199380722723,left,1,1,3.0,0.8604441447432691,J17T08,2022-11-28_15h04.22.855,t1_Paradigm,2021.1.4,60.107172331818326,
F,right,Target,0,44,44,44,3329.217746990712,3331.219449489956,None,0,1,3.0,,J17T08,2022-11-28_15h04.22.855,t1_Paradigm,2021.1.4,60.107172331818326,
F,left,Lure,0,45,45,45,3332.7172484635166,3334.716984443,left,1,1,3.0,1.1366420055037452,J17T08,2022-11-28_15h04.22.855,t1_Paradigm,2021.1.4,60.107172331818326,
B,left,Pretarget,0,46,46,46,3336.2167881118266,3338.2184116936387,left,1,1,3.0,0.8907051304677225,J17T08,2022-11-28_15h04.22.855,t1_Paradigm,2021.1.4,60.107172331818326,
W,left,Distractor,0,47,47,47,3339.7160531531363,3341.7169408138507,left,1,1,3.0,0.8840366074227859,J17T08,2022-11-28_15h04.22.855,t1_Paradigm,2021.1.4,60.107172331818326,
B,right,Target,0,48,48,48,3343.215382034158,3345.2163338553864,right,1,1,3.0,0.7667091623134183,J17T08,2022-11-28_15h04.22.855,t1_Paradigm,2021.1.4,60.107172331818326,
R,left,Pretarget,0,49,49,49,3346.7149755773007,3348.715213612808,left,1,1,3.0,0.7391008930499083,J17T08,2022-11-28_15h04.22.855,t1_Paradigm,2021.1.4,60.107172331818326,
N,left,Distractor,0,50,50,50,3350.214421872063,3352.2161237297023,left,1,1,3.0,0.46145942072053003,J17T08,2022-11-28_15h04.22.855,t1_Paradigm,2021.1.4,60.107172331818326,
R,right,Target,0,51,51,51,3353.7137096903552,3355.715530565748,right,1,1,3.0,0.5028676541824098,J17T08,2022-11-28_15h04.22.855,t1_Paradigm,2021.1.4,60.107172331818326,
V,left,Distractor,0,52,52,52,3357.2133860005606,3359.2141924982243,left,1,1,3.0,0.9288787116056483,J17T08,2022-11-28_15h04.22.855,t1_Paradigm,2021.1.4,60.107172331818326,
G,left,Distractor,0,53,53,53,3360.712678630892,3362.714180628529,left,1,1,3.0,0.8802136031836199,J17T08,2022-11-28_15h04.22.855,t1_Paradigm,2021.1.4,60.107172331818326,
H,left,Distractor,0,54,54,54,3364.212011361544,3366.2135868229707,left,1,1,3.0,0.6156897479841064,J17T08,2022-11-28_15h04.22.855,t1_Paradigm,2021.1.4,60.107172331818326,
V,left,Lure,0,55,55,55,3367.7114935861946,3369.7116982582347,left,1,1,3.0,0.858771159335447,J17T08,2022-11-28_15h04.22.855,t1_Paradigm,2021.1.4,60.107172331818326,
L,left,Distractor,0,56,56,56,3371.2108837405067,3373.2123350513384,left,1,1,3.0,0.5811755617742165,J17T08,2022-11-28_15h04.22.855,t1_Paradigm,2021.1.4,60.107172331818326,
K,left,Distractor,0,57,57,57,3374.7101994686227,3376.7120793716895,left,1,1,3.0,0.564927232352602,J17T08,2022-11-28_15h04.22.855,t1_Paradigm,2021.1.4,60.107172331818326,
D,left,Pretarget,0,58,58,58,3378.226382354319,3380.227419188229,left,1,1,3.0,0.6563431329959712,J17T08,2022-11-28_15h04.22.855,t1_Paradigm,2021.1.4,60.107172331818326,
T,left,Pretarget,0,59,59,59,3381.7254395155624,3383.725020868207,left,1,1,3.0,0.5407945381439276,J17T08,2022-11-28_15h04.22.855,t1_Paradigm,2021.1.4,60.107172331818326,
D,right,Target,0,60,60,60,3385.2252752646464,3387.226697703246,right,1,1,3.0,0.7269970120451035,J17T08,2022-11-28_15h04.22.855,t1_Paradigm,2021.1.4,60.107172331818326,
T,right,Target,0,61,61,61,3388.7246384715427,3390.7237812870726,right,1,1,3.0,0.5910373536098632,J17T08,2022-11-28_15h04.22.855,t1_Paradigm,2021.1.4,60.107172331818326,
T,left,Lure,0,62,62,62,3392.224202500849,3394.2238120841193,left,1,1,3.0,0.9095577351599786,J17T08,2022-11-28_15h04.22.855,t1_Paradigm,2021.1.4,60.107172331818326,
F,left,Distractor,0,63,63,63,3395.723577898243,3397.7245460804024,left,1,1,3.0,0.6479506169353044,J17T08,2022-11-28_15h04.22.855,t1_Paradigm,2021.1.4,60.107172331818326,
