Letter,CorrAnswer,Stimulus,nback_run.thisRepN,nback_run.thisTrialN,nback_run.thisN,nback_run.thisIndex,fixcross.started,nback_trial.started,trial_resp.keys,trial_resp.corr,currentlevel,trial_resp.rt,Participant,date,expName,psychopyVersion,frameRate,
H,left,Distractor,0,0,0,0,326.3858372722541,328.3669134493912,None,0,1,,J17T08,2022-11-28_15h04.22.855,t1_Paradigm,2021.1.4,60.107172331818326,
Q,left,Pretarget,0,1,1,1,329.8697875196251,331.86680726374016,left,1,1,0.5355154110347939,J17T08,2022-11-28_15h04.22.855,t1_Paradigm,2021.1.4,60.107172331818326,
Q,right,Target,0,2,2,2,333.36477177142683,335.3647903779761,left,0,1,0.5928001637375928,J17T08,2022-11-28_15h04.22.855,t1_Paradigm,2021.1.4,60.107172331818326,
T,left,Distractor,0,3,3,3,336.86417572024993,338.8666911332093,left,1,1,0.801371238509546,J17T08,2022-11-28_15h04.22.855,t1_Paradigm,2021.1.4,60.107172331818326,
Q,left,Lure,0,4,4,4,340.36374809042263,342.36534247920076,left,1,1,0.6259146883305675,J17T08,2022-11-28_15h04.22.855,t1_Paradigm,2021.1.4,60.107172331818326,
L,left,Distractor,0,5,5,5,343.8630480992126,345.865503842894,left,1,1,0.6898955530989497,J17T08,2022-11-28_15h04.22.855,t1_Paradigm,2021.1.4,60.107172331818326,
V,left,Pretarget,0,6,6,6,347.3626265646344,349.3618787738412,left,1,1,0.573664611177719,J17T08,2022-11-28_15h04.22.855,t1_Paradigm,2021.1.4,60.107172331818326,
V,right,Target,0,7,7,7,350.86201832295956,352.8614549936449,right,1,1,0.6135422955735521,J17T08,2022-11-28_15h04.22.855,t1_Paradigm,2021.1.4,60.107172331818326,
K,left,Distractor,0,8,8,8,354.3608592632704,356.36297559783156,left,1,1,0.7287774663141136,J17T08,2022-11-28_15h04.22.855,t1_Paradigm,2021.1.4,60.107172331818326,
G,left,Pretarget,0,9,9,9,357.85993631427345,359.8629377431282,left,1,1,0.6301419038090899,J17T08,2022-11-28_15h04.22.855,t1_Paradigm,2021.1.4,60.107172331818326,
G,right,Target,0,10,10,10,361.3601644049015,363.3600989611771,right,1,1,0.38665307319229214,J17T08,2022-11-28_15h04.22.855,t1_Paradigm,2021.1.4,60.107172331818326,
G,right,Target,0,11,11,11,364.8597746297778,366.85949360672544,right,1,1,0.459335066094809,J17T08,2022-11-28_15h04.22.855,t1_Paradigm,2021.1.4,60.107172331818326,
P,left,Pretarget,0,12,12,12,368.35889210190476,370.36067063135874,left,1,1,0.5633347683901775,J17T08,2022-11-28_15h04.22.855,t1_Paradigm,2021.1.4,60.107172331818326,
P,right,Target,0,13,13,13,371.85798583464157,373.85818633624854,right,1,1,0.5723788344728291,J17T08,2022-11-28_15h04.22.855,t1_Paradigm,2021.1.4,60.107172331818326,
G,left,Lure,0,14,14,14,375.3573747057437,377.35961390768966,left,1,1,0.5778575007811924,J17T08,2022-11-28_15h04.22.855,t1_Paradigm,2021.1.4,60.107172331818326,
Y,left,Distractor,0,15,15,15,378.8566490503281,380.85679148666964,left,1,1,0.4448899679262013,J17T08,2022-11-28_15h04.22.855,t1_Paradigm,2021.1.4,60.107172331818326,
B,left,Distractor,0,16,16,16,382.3566759977441,384.35804774953795,left,1,1,0.42624620570768457,J17T08,2022-11-28_15h04.22.855,t1_Paradigm,2021.1.4,60.107172331818326,
T,left,Pretarget,0,17,17,17,385.85623649822173,387.8580772633743,left,1,1,0.43316335074428025,J17T08,2022-11-28_15h04.22.855,t1_Paradigm,2021.1.4,60.107172331818326,
T,right,Target,0,18,18,18,389.3553270229329,391.35518266177587,right,1,1,0.4062213884205903,J17T08,2022-11-28_15h04.22.855,t1_Paradigm,2021.1.4,60.107172331818326,
S,left,Distractor,0,19,19,19,392.8547672224463,394.8540714016699,left,1,1,0.42239593325007263,J17T08,2022-11-28_15h04.22.855,t1_Paradigm,2021.1.4,60.107172331818326,
T,left,Lure,0,20,20,20,396.35438642979466,398.35469824989354,left,1,1,0.5831616504908652,J17T08,2022-11-28_15h04.22.855,t1_Paradigm,2021.1.4,60.107172331818326,
J,left,Distractor,0,21,21,21,399.85378203775076,401.85536199041303,left,1,1,0.6383416175251568,J17T08,2022-11-28_15h04.22.855,t1_Paradigm,2021.1.4,60.107172331818326,
P,left,Distractor,0,22,22,22,403.3530721016609,405.35532092768403,left,1,1,0.41692336219057324,J17T08,2022-11-28_15h04.22.855,t1_Paradigm,2021.1.4,60.107172331818326,
F,left,Distractor,0,23,23,23,406.85285074788703,408.8544871618019,left,1,1,0.49019659423152007,J17T08,2022-11-28_15h04.22.855,t1_Paradigm,2021.1.4,60.107172331818326,
L,left,Distractor,0,24,24,24,410.3520375133694,412.3511883489639,left,1,1,0.4149529927990443,J17T08,2022-11-28_15h04.22.855,t1_Paradigm,2021.1.4,60.107172331818326,
W,left,Pretarget,0,25,25,25,413.851640038984,415.85284721905873,left,1,1,0.44473951152031077,J17T08,2022-11-28_15h04.22.855,t1_Paradigm,2021.1.4,60.107172331818326,
W,right,Target,0,26,26,26,417.35042515964733,419.35047680886123,right,1,1,0.33968661438439085,J17T08,2022-11-28_15h04.22.855,t1_Paradigm,2021.1.4,60.107172331818326,
V,left,Distractor,0,27,27,27,420.8499972090176,422.8516496630609,left,1,1,0.386278696591944,J17T08,2022-11-28_15h04.22.855,t1_Paradigm,2021.1.4,60.107172331818326,
W,left,Lure,0,28,28,28,424.36629911246746,426.3674459816591,left,1,1,0.4630964762404801,J17T08,2022-11-28_15h04.22.855,t1_Paradigm,2021.1.4,60.107172331818326,
R,left,Pretarget,0,29,29,29,427.865730329509,429.86761536541644,left,1,1,0.44095147476150487,J17T08,2022-11-28_15h04.22.855,t1_Paradigm,2021.1.4,60.107172331818326,
R,right,Target,0,30,30,30,431.3650813459078,433.3648500472541,right,1,1,0.422244835238871,J17T08,2022-11-28_15h04.22.855,t1_Paradigm,2021.1.4,60.107172331818326,
G,left,Distractor,0,31,31,31,434.8637910779671,436.8644089437189,left,1,1,0.4175229421957738,J17T08,2022-11-28_15h04.22.855,t1_Paradigm,2021.1.4,60.107172331818326,
R,left,Lure,0,32,32,32,438.364346066415,440.3639056044851,left,1,1,0.47809367563399974,J17T08,2022-11-28_15h04.22.855,t1_Paradigm,2021.1.4,60.107172331818326,
S,left,Distractor,0,33,33,33,441.86360950371204,443.86443685354266,left,1,1,0.5741923314069481,J17T08,2022-11-28_15h04.22.855,t1_Paradigm,2021.1.4,60.107172331818326,
R,left,Lure,0,34,34,34,445.3624645593359,447.36442530465024,right,0,1,1.3068065964707785,J17T08,2022-11-28_15h04.22.855,t1_Paradigm,2021.1.4,60.107172331818326,
P,left,Pretarget,0,35,35,35,448.8620369295088,450.86457961068686,left,1,1,0.5875178286028131,J17T08,2022-11-28_15h04.22.855,t1_Paradigm,2021.1.4,60.107172331818326,
P,right,Target,0,36,36,36,452.3616468335824,454.36151498372556,right,1,1,0.8829850165950575,J17T08,2022-11-28_15h04.22.855,t1_Paradigm,2021.1.4,60.107172331818326,
Y,left,Pretarget,0,37,37,37,455.8611675545412,457.8732313352252,left,1,1,0.33958491996918383,J17T08,2022-11-28_15h04.22.855,t1_Paradigm,2021.1.4,60.107172331818326,
Y,right,Target,0,38,38,38,459.36019071071246,461.3601230213699,left,0,1,0.44110385598264656,J17T08,2022-11-28_15h04.22.855,t1_Paradigm,2021.1.4,60.107172331818326,
J,left,Distractor,0,39,39,39,462.8599590912561,464.86227753143703,left,1,1,0.44942643708327523,J17T08,2022-11-28_15h04.22.855,t1_Paradigm,2021.1.4,60.107172331818326,
Y,left,Lure,0,40,40,40,466.35929214271096,468.35922990701215,left,1,1,0.9978365074609883,J17T08,2022-11-28_15h04.22.855,t1_Paradigm,2021.1.4,60.107172331818326,
T,left,Distractor,0,41,41,41,469.85898160582224,471.8594570352325,left,1,1,0.5235513999502928,J17T08,2022-11-28_15h04.22.855,t1_Paradigm,2021.1.4,60.107172331818326,
V,left,Distractor,0,42,42,42,473.35891808691304,475.3579961003238,left,1,1,0.46646490323610124,J17T08,2022-11-28_15h04.22.855,t1_Paradigm,2021.1.4,60.107172331818326,
N,left,Pretarget,0,43,43,43,476.85773977906956,478.85894086389567,left,1,1,0.5012960423871391,J17T08,2022-11-28_15h04.22.855,t1_Paradigm,2021.1.4,60.107172331818326,
N,right,Target,0,44,44,44,480.35709400349424,482.3563301725726,right,1,1,0.6251697847608284,J17T08,2022-11-28_15h04.22.855,t1_Paradigm,2021.1.4,60.107172331818326,
N,right,Target,0,45,45,45,483.8563712353016,485.85609245786736,right,1,1,0.40744140059837264,J17T08,2022-11-28_15h04.22.855,t1_Paradigm,2021.1.4,60.107172331818326,
X,left,Distractor,0,46,46,46,487.3555631336251,489.3572868058393,left,1,1,0.4587053306479447,J17T08,2022-11-28_15h04.22.855,t1_Paradigm,2021.1.4,60.107172331818326,
Z,left,Distractor,0,47,47,47,490.8549083755777,492.8581131932624,left,1,1,0.464409200360933,J17T08,2022-11-28_15h04.22.855,t1_Paradigm,2021.1.4,60.107172331818326,
H,left,Pretarget,0,48,48,48,494.35464371345665,496.35661632846586,left,1,1,0.4240612193962079,J17T08,2022-11-28_15h04.22.855,t1_Paradigm,2021.1.4,60.107172331818326,
H,right,Target,0,49,49,49,497.85445636475515,499.85368996741295,right,1,1,0.6336206868895715,J17T08,2022-11-28_15h04.22.855,t1_Paradigm,2021.1.4,60.107172331818326,
K,left,Distractor,0,50,50,50,501.35357062885646,503.35519517307625,left,1,1,0.4186643577434097,J17T08,2022-11-28_15h04.22.855,t1_Paradigm,2021.1.4,60.107172331818326,
V,left,Pretarget,0,51,51,51,504.85293351495034,506.85417085046674,left,1,1,0.5736463254311275,J17T08,2022-11-28_15h04.22.855,t1_Paradigm,2021.1.4,60.107172331818326,
V,right,Target,0,52,52,52,508.35225854634086,510.35161148755515,left,0,1,0.448562836561905,J17T08,2022-11-28_15h04.22.855,t1_Paradigm,2021.1.4,60.107172331818326,
R,left,Distractor,0,53,53,53,511.85209654104256,513.853505185132,left,1,1,0.6857966586487692,J17T08,2022-11-28_15h04.22.855,t1_Paradigm,2021.1.4,60.107172331818326,
V,left,Lure,0,54,54,54,515.3510844089308,517.3529258156886,left,1,1,0.7587667322600282,J17T08,2022-11-28_15h04.22.855,t1_Paradigm,2021.1.4,60.107172331818326,
Y,left,Distractor,0,55,55,55,518.8504620519429,520.8513981538454,left,1,1,0.49016708039516743,J17T08,2022-11-28_15h04.22.855,t1_Paradigm,2021.1.4,60.107172331818326,
Q,left,Distractor,0,56,56,56,522.3667299503204,524.3685062341563,left,1,1,0.4841943781275404,J17T08,2022-11-28_15h04.22.855,t1_Paradigm,2021.1.4,60.107172331818326,
Z,left,Pretarget,0,57,57,57,525.8661614881646,527.8680741130931,left,1,1,0.48327399555114425,J17T08,2022-11-28_15h04.22.855,t1_Paradigm,2021.1.4,60.107172331818326,
Z,right,Target,0,58,58,58,529.3650884035644,531.3654528352852,right,1,1,0.3707993309342328,J17T08,2022-11-28_15h04.22.855,t1_Paradigm,2021.1.4,60.107172331818326,
B,left,Distractor,0,59,59,59,532.865162829761,534.8671550137271,left,1,1,0.46993662866020713,J17T08,2022-11-28_15h04.22.855,t1_Paradigm,2021.1.4,60.107172331818326,
S,left,Pretarget,0,60,60,60,536.3641529432673,538.3635450223951,left,1,1,0.6025217648505077,J17T08,2022-11-28_15h04.22.855,t1_Paradigm,2021.1.4,60.107172331818326,
S,right,Target,0,61,61,61,539.8634372327313,541.8634561600829,right,1,1,0.3486777480429737,J17T08,2022-11-28_15h04.22.855,t1_Paradigm,2021.1.4,60.107172331818326,
T,left,Distractor,0,62,62,62,543.362474183413,545.3648692954084,left,1,1,0.37046633786553684,J17T08,2022-11-28_15h04.22.855,t1_Paradigm,2021.1.4,60.107172331818326,
D,left,Distractor,0,63,63,63,546.8625563088713,548.8639995996384,left,1,1,0.5413732659819743,J17T08,2022-11-28_15h04.22.855,t1_Paradigm,2021.1.4,60.107172331818326,
R,left,Distractor,0,0,0,0,564.2221968431743,566.2097455329845,None,0,1,,J17T08,2022-11-28_15h04.22.855,t1_Paradigm,2021.1.4,60.107172331818326,
V,left,Distractor,0,1,1,1,567.7092482889996,569.7080542618301,left,1,1,0.5570393387361037,J17T08,2022-11-28_15h04.22.855,t1_Paradigm,2021.1.4,60.107172331818326,
N,left,Pretarget,0,2,2,2,571.2087619523018,573.2096088710894,left,1,1,0.6849025818830796,J17T08,2022-11-28_15h04.22.855,t1_Paradigm,2021.1.4,60.107172331818326,
N,right,Target,0,3,3,3,574.7080308432423,576.7077456497566,left,0,1,0.8083095565161784,J17T08,2022-11-28_15h04.22.855,t1_Paradigm,2021.1.4,60.107172331818326,
S,left,Distractor,0,4,4,4,578.2074466617605,580.209372760397,left,1,1,0.5121799112148437,J17T08,2022-11-28_15h04.22.855,t1_Paradigm,2021.1.4,60.107172331818326,
N,left,Lure,0,5,5,5,581.7068557434247,583.7085415609354,left,1,1,0.6381924443294338,J17T08,2022-11-28_15h04.22.855,t1_Paradigm,2021.1.4,60.107172331818326,
Z,left,Distractor,0,6,6,6,585.2063126246719,587.2066639034872,left,1,1,0.565479975182825,J17T08,2022-11-28_15h04.22.855,t1_Paradigm,2021.1.4,60.107172331818326,
L,left,Pretarget,0,7,7,7,588.7056585082296,590.7179831014037,left,1,1,0.9399794429712074,J17T08,2022-11-28_15h04.22.855,t1_Paradigm,2021.1.4,60.107172331818326,
L,right,Target,0,8,8,8,592.2047724515282,594.2049527425731,left,0,1,0.4707351062595535,J17T08,2022-11-28_15h04.22.855,t1_Paradigm,2021.1.4,60.107172331818326,
H,left,Distractor,0,9,9,9,595.7041449616993,597.7056742275554,left,1,1,0.6483237103254851,J17T08,2022-11-28_15h04.22.855,t1_Paradigm,2021.1.4,60.107172331818326,
L,left,Lure,0,10,10,10,599.2038459737032,601.2031305839698,left,1,1,0.44582927785427273,J17T08,2022-11-28_15h04.22.855,t1_Paradigm,2021.1.4,60.107172331818326,
X,left,Pretarget,0,11,11,11,602.7033051005683,604.7037866252274,left,1,1,0.4525385428248683,J17T08,2022-11-28_15h04.22.855,t1_Paradigm,2021.1.4,60.107172331818326,
X,right,Target,0,12,12,12,606.2020408176359,608.2024338007855,right,1,1,0.3834431226664492,J17T08,2022-11-28_15h04.22.855,t1_Paradigm,2021.1.4,60.107172331818326,
X,right,Target,0,13,13,13,609.7022698706717,611.7022618506073,right,1,1,0.4108990107090449,J17T08,2022-11-28_15h04.22.855,t1_Paradigm,2021.1.4,60.107172331818326,
R,left,Distractor,0,14,14,14,613.2008195222479,615.2036701738941,left,1,1,0.3393475260666037,J17T08,2022-11-28_15h04.22.855,t1_Paradigm,2021.1.4,60.107172331818326,
T,left,Distractor,0,15,15,15,616.7010723146739,618.7026644578341,left,1,1,0.4368051015308083,J17T08,2022-11-28_15h04.22.855,t1_Paradigm,2021.1.4,60.107172331818326,
V,left,Pretarget,0,16,16,16,620.2005449152471,622.2020514041208,left,1,1,0.411744004681168,J17T08,2022-11-28_15h04.22.855,t1_Paradigm,2021.1.4,60.107172331818326,
V,right,Target,0,17,17,17,623.700140383205,625.6995895651905,right,1,1,0.5596323859176664,J17T08,2022-11-28_15h04.22.855,t1_Paradigm,2021.1.4,60.107172331818326,
N,left,Distractor,0,18,18,18,627.1992783866967,629.2006786899192,left,1,1,0.407038793371612,J17T08,2022-11-28_15h04.22.855,t1_Paradigm,2021.1.4,60.107172331818326,
B,left,Distractor,0,19,19,19,630.6988225262432,632.7006308903362,left,1,1,0.4798244055048144,J17T08,2022-11-28_15h04.22.855,t1_Paradigm,2021.1.4,60.107172331818326,
V,left,Lure,0,20,20,20,634.1982107557403,636.1999899267992,left,1,1,0.7852120922038921,J17T08,2022-11-28_15h04.22.855,t1_Paradigm,2021.1.4,60.107172331818326,
P,left,Distractor,0,21,21,21,637.6978078277111,639.6965380911349,left,1,1,0.4411619212480673,J17T08,2022-11-28_15h04.22.855,t1_Paradigm,2021.1.4,60.107172331818326,
K,left,Pretarget,0,22,22,22,641.1969102221171,643.1976823939058,left,1,1,0.45948359768544833,J17T08,2022-11-28_15h04.22.855,t1_Paradigm,2021.1.4,60.107172331818326,
K,right,Target,0,23,23,23,644.696893861186,646.6960062004721,right,1,1,0.4680843146149982,J17T08,2022-11-28_15h04.22.855,t1_Paradigm,2021.1.4,60.107172331818326,
J,left,Pretarget,0,24,24,24,648.1959895187383,650.1977629153512,left,1,1,0.44896223576301963,J17T08,2022-11-28_15h04.22.855,t1_Paradigm,2021.1.4,60.107172331818326,
J,right,Target,0,25,25,25,651.6952757330178,653.6948015868179,right,1,1,0.41053201256795546,J17T08,2022-11-28_15h04.22.855,t1_Paradigm,2021.1.4,60.107172331818326,
H,left,Distractor,0,26,26,26,655.1946225789832,657.1965021612468,left,1,1,0.37055872900577924,J17T08,2022-11-28_15h04.22.855,t1_Paradigm,2021.1.4,60.107172331818326,
J,left,Lure,0,27,27,27,658.7107685723836,660.7100262352342,left,1,1,0.571683013696429,J17T08,2022-11-28_15h04.22.855,t1_Paradigm,2021.1.4,60.107172331818326,
V,left,Distractor,0,28,28,28,662.2101279296492,664.2115824485063,left,1,1,0.4428458139434497,J17T08,2022-11-28_15h04.22.855,t1_Paradigm,2021.1.4,60.107172331818326,
Z,left,Pretarget,0,29,29,29,665.7095296328544,667.7117582483152,left,1,1,0.42560363815778146,J17T08,2022-11-28_15h04.22.855,t1_Paradigm,2021.1.4,60.107172331818326,
Z,right,Target,0,30,30,30,669.2083096206766,671.2087359672935,right,1,1,0.39085975730654354,J17T08,2022-11-28_15h04.22.855,t1_Paradigm,2021.1.4,60.107172331818326,
T,left,Distractor,0,31,31,31,672.7087484785939,674.7104471282075,left,1,1,0.3637294838736125,J17T08,2022-11-28_15h04.22.855,t1_Paradigm,2021.1.4,60.107172331818326,
Z,left,Lure,0,32,32,32,676.2080395049118,678.2090102534917,left,1,1,0.40450766108619973,J17T08,2022-11-28_15h04.22.855,t1_Paradigm,2021.1.4,60.107172331818326,
F,left,Distractor,0,33,33,33,679.7075704915528,681.7077863916832,left,1,1,0.4206777146796412,J17T08,2022-11-28_15h04.22.855,t1_Paradigm,2021.1.4,60.107172331818326,
Y,left,Pretarget,0,34,34,34,683.2066709611438,685.2079961965646,left,1,1,0.4317046614537503,J17T08,2022-11-28_15h04.22.855,t1_Paradigm,2021.1.4,60.107172331818326,
Y,right,Target,0,35,35,35,686.7061214263395,688.7055147886776,right,1,1,0.5593247362521652,J17T08,2022-11-28_15h04.22.855,t1_Paradigm,2021.1.4,60.107172331818326,
Y,right,Target,0,36,36,36,690.2055856860459,692.2052796403932,right,1,1,0.41631030847725015,J17T08,2022-11-28_15h04.22.855,t1_Paradigm,2021.1.4,60.107172331818326,
W,left,Distractor,0,37,37,37,693.7051933445016,695.7065102390557,left,1,1,0.32387233084227773,J17T08,2022-11-28_15h04.22.855,t1_Paradigm,2021.1.4,60.107172331818326,
Q,left,Distractor,0,38,38,38,697.2039999589372,699.2062895268868,left,1,1,0.6165180602222335,J17T08,2022-11-28_15h04.22.855,t1_Paradigm,2021.1.4,60.107172331818326,
P,left,Pretarget,0,39,39,39,700.7037625650346,702.7051609434418,left,1,1,0.45355901580342106,J17T08,2022-11-28_15h04.22.855,t1_Paradigm,2021.1.4,60.107172331818326,
P,right,Target,0,40,40,40,704.2032444688825,706.2028569393767,right,1,1,0.38969620638135893,J17T08,2022-11-28_15h04.22.855,t1_Paradigm,2021.1.4,60.107172331818326,
J,left,Distractor,0,41,41,41,707.7027353552021,709.7021011285192,left,1,1,0.3731674955135986,J17T08,2022-11-28_15h04.22.855,t1_Paradigm,2021.1.4,60.107172331818326,
P,left,Lure,0,42,42,42,711.2019253287103,713.20383185839,left,1,1,0.6521601882725463,J17T08,2022-11-28_15h04.22.855,t1_Paradigm,2021.1.4,60.107172331818326,
L,left,Distractor,0,43,43,43,714.7009196126501,716.7004172358238,left,1,1,0.4101107987919477,J17T08,2022-11-28_15h04.22.855,t1_Paradigm,2021.1.4,60.107172331818326,
Z,left,Distractor,0,44,44,44,718.2008288255224,720.2009677330357,left,1,1,0.46592082207575913,J17T08,2022-11-28_15h04.22.855,t1_Paradigm,2021.1.4,60.107172331818326,
F,left,Pretarget,0,45,45,45,721.7003723234639,723.7019243663026,left,1,1,0.4309867053000289,J17T08,2022-11-28_15h04.22.855,t1_Paradigm,2021.1.4,60.107172331818326,
F,right,Target,0,46,46,46,725.1999815859324,727.1993143165846,right,1,1,0.36715661773996544,J17T08,2022-11-28_15h04.22.855,t1_Paradigm,2021.1.4,60.107172331818326,
G,left,Pretarget,0,47,47,47,728.6992305871136,730.7114425785853,left,1,1,0.3870608132601774,J17T08,2022-11-28_15h04.22.855,t1_Paradigm,2021.1.4,60.107172331818326,
G,right,Target,0,48,48,48,732.1978431159939,734.1982848611342,left,0,1,0.4071562071128483,J17T08,2022-11-28_15h04.22.855,t1_Paradigm,2021.1.4,60.107172331818326,
V,left,Distractor,0,49,49,49,735.6978216222217,737.6990939252182,left,1,1,0.551518326488349,J17T08,2022-11-28_15h04.22.855,t1_Paradigm,2021.1.4,60.107172331818326,
G,left,Lure,0,50,50,50,739.1975081981097,741.1993608329574,left,1,1,0.5950573306274691,J17T08,2022-11-28_15h04.22.855,t1_Paradigm,2021.1.4,60.107172331818326,
Q,left,Pretarget,0,51,51,51,742.6969172797737,744.6988222054406,left,1,1,0.5292722721997052,J17T08,2022-11-28_15h04.22.855,t1_Paradigm,2021.1.4,60.107172331818326,
Q,right,Target,0,52,52,52,746.1962169677613,748.1957672025567,right,1,1,0.40045688702161897,J17T08,2022-11-28_15h04.22.855,t1_Paradigm,2021.1.4,60.107172331818326,
Y,left,Distractor,0,53,53,53,749.695910601306,751.6967819010888,left,1,1,0.4884819044893902,J17T08,2022-11-28_15h04.22.855,t1_Paradigm,2021.1.4,60.107172331818326,
V,left,Distractor,0,54,54,54,753.1943585584672,755.1968502320365,left,1,1,0.5565382451200094,J17T08,2022-11-28_15h04.22.855,t1_Paradigm,2021.1.4,60.107172331818326,
B,left,Distractor,0,55,55,55,756.6941558112424,758.6943614456904,left,1,1,0.6353655320735925,J17T08,2022-11-28_15h04.22.855,t1_Paradigm,2021.1.4,60.107172331818326,
J,left,Pretarget,0,56,56,56,760.1939402319147,762.2059882932726,left,1,1,0.4967335882217867,J17T08,2022-11-28_15h04.22.855,t1_Paradigm,2021.1.4,60.107172331818326,
J,right,Target,0,57,57,57,763.7102867269218,765.7099729820075,right,1,1,0.5688868984871078,J17T08,2022-11-28_15h04.22.855,t1_Paradigm,2021.1.4,60.107172331818326,
H,left,Distractor,0,58,58,58,767.2090904541344,769.2105334240991,left,1,1,0.38386209082455025,J17T08,2022-11-28_15h04.22.855,t1_Paradigm,2021.1.4,60.107172331818326,
J,left,Lure,0,59,59,59,770.7088899525277,772.7082371192955,left,1,1,1.3395496316866229,J17T08,2022-11-28_15h04.22.855,t1_Paradigm,2021.1.4,60.107172331818326,
D,left,Pretarget,0,60,60,60,774.2082916557326,776.2205639580877,left,1,1,0.7062394816857704,J17T08,2022-11-28_15h04.22.855,t1_Paradigm,2021.1.4,60.107172331818326,
D,right,Target,0,61,61,61,777.7073748019845,779.7074360752756,right,1,1,0.5878941300188671,J17T08,2022-11-28_15h04.22.855,t1_Paradigm,2021.1.4,60.107172331818326,
R,left,Distractor,0,62,62,62,781.2071656387081,783.2077421209285,left,1,1,0.5787175724740337,J17T08,2022-11-28_15h04.22.855,t1_Paradigm,2021.1.4,60.107172331818326,
F,left,Distractor,0,63,63,63,784.7064544194084,786.7079121462912,left,1,1,0.5977427689495016,J17T08,2022-11-28_15h04.22.855,t1_Paradigm,2021.1.4,60.107172331818326,
F,left,Distractor,0,0,0,0,995.899352684572,997.8874833102461,None,0,2,,J17T08,2022-11-28_15h04.22.855,t1_Paradigm,2021.1.4,60.107172331818326,
N,left,Pretarget,0,1,1,1,999.3877595212598,1001.3892589524769,None,0,2,,J17T08,2022-11-28_15h04.22.855,t1_Paradigm,2021.1.4,60.107172331818326,
V,left,Distractor,0,2,2,2,1002.8867913391005,1004.8880623588868,left,1,2,0.4935553971504305,J17T08,2022-11-28_15h04.22.855,t1_Paradigm,2021.1.4,60.107172331818326,
N,right,Target,0,3,3,3,1006.3863608220502,1008.385579346987,right,1,2,0.6421566016999805,J17T08,2022-11-28_15h04.22.855,t1_Paradigm,2021.1.4,60.107172331818326,
N,left,Lure,0,4,4,4,1009.8857679788989,1011.8854266449632,left,1,2,0.8371882039612046,J17T08,2022-11-28_15h04.22.855,t1_Paradigm,2021.1.4,60.107172331818326,
X,left,Distractor,0,5,5,5,1013.3853701837108,1015.3975363004149,left,1,2,1.3300872390511813,J17T08,2022-11-28_15h04.22.855,t1_Paradigm,2021.1.4,60.107172331818326,
G,left,Pretarget,0,6,6,6,1016.884717029676,1018.8865324514256,left,1,2,0.8830411570449996,J17T08,2022-11-28_15h04.22.855,t1_Paradigm,2021.1.4,60.107172331818326,
H,left,Pretarget,0,7,7,7,1020.3840032439555,1022.3851305441901,left,1,2,0.5984969757942054,J17T08,2022-11-28_15h04.22.855,t1_Paradigm,2021.1.4,60.107172331818326,
G,right,Target,0,8,8,8,1023.8836423410633,1025.8852351258283,right,1,2,0.7977035027149668,J17T08,2022-11-28_15h04.22.855,t1_Paradigm,2021.1.4,60.107172331818326,
H,right,Target,0,9,9,9,1027.3830110016033,1029.382693407058,right,1,2,1.1177043881300506,J17T08,2022-11-28_15h04.22.855,t1_Paradigm,2021.1.4,60.107172331818326,
T,left,Pretarget,0,10,10,10,1030.8823318625605,1032.883747885109,left,1,2,0.838177559090127,J17T08,2022-11-28_15h04.22.855,t1_Paradigm,2021.1.4,60.107172331818326,
K,left,Distractor,0,11,11,11,1034.3819651852218,1036.3833520147361,left,1,2,0.9602868873234911,J17T08,2022-11-28_15h04.22.855,t1_Paradigm,2021.1.4,60.107172331818326,
T,right,Target,0,12,12,12,1037.8810425570275,1039.8803800997182,right,1,2,1.3824685244558168,J17T08,2022-11-28_15h04.22.855,t1_Paradigm,2021.1.4,60.107172331818326,
T,left,Lure,0,13,13,13,1041.380615889608,1043.3802354177585,left,1,2,0.7861190010721657,J17T08,2022-11-28_15h04.22.855,t1_Paradigm,2021.1.4,60.107172331818326,
J,left,Distractor,0,14,14,14,1044.8801593875494,1046.8820145888178,left,1,2,0.6614281745501103,J17T08,2022-11-28_15h04.22.855,t1_Paradigm,2021.1.4,60.107172331818326,
Q,left,Pretarget,0,15,15,15,1048.37933717056,1050.380899158278,left,1,2,0.9553539061885203,J17T08,2022-11-28_15h04.22.855,t1_Paradigm,2021.1.4,60.107172331818326,
M,left,Distractor,0,16,16,16,1051.8787048686925,1053.8805664860122,left,1,2,1.0526738573494185,J17T08,2022-11-28_15h04.22.855,t1_Paradigm,2021.1.4,60.107172331818326,
Q,right,Target,0,17,17,17,1055.3774883853428,1057.3800926606148,None,0,2,,J17T08,2022-11-28_15h04.22.855,t1_Paradigm,2021.1.4,60.107172331818326,
R,left,Distractor,0,18,18,18,1058.8780308624907,1060.8796961486366,left,1,2,0.5749244028743306,J17T08,2022-11-28_15h04.22.855,t1_Paradigm,2021.1.4,60.107172331818326,
W,left,Distractor,0,19,19,19,1062.3771258784375,1064.377037978533,left,1,2,0.9684949419056466,J17T08,2022-11-28_15h04.22.855,t1_Paradigm,2021.1.4,60.107172331818326,
C,left,Pretarget,0,20,20,20,1065.8762481626034,1067.8767020982411,left,1,2,0.5520649740692534,J17T08,2022-11-28_15h04.22.855,t1_Paradigm,2021.1.4,60.107172331818326,
T,left,Distractor,0,21,21,21,1069.3759616859072,1071.377465287558,left,1,2,0.9258769619482337,J17T08,2022-11-28_15h04.22.855,t1_Paradigm,2021.1.4,60.107172331818326,
C,right,Target,0,22,22,22,1072.87534189534,1074.8753505570096,right,1,2,1.1719392707900624,J17T08,2022-11-28_15h04.22.855,t1_Paradigm,2021.1.4,60.107172331818326,
F,left,Pretarget,0,23,23,23,1076.3747561098455,1078.386991519905,left,1,2,1.0045595669421346,J17T08,2022-11-28_15h04.22.855,t1_Paradigm,2021.1.4,60.107172331818326,
C,right,Target,0,24,24,24,1079.873984579662,1081.8757836404804,right,1,2,0.6524370408915274,J17T08,2022-11-28_15h04.22.855,t1_Paradigm,2021.1.4,60.107172331818326,
F,right,Target,0,25,25,25,1083.3736817420347,1085.3752902461263,right,1,2,1.2805254874433558,J17T08,2022-11-28_15h04.22.855,t1_Paradigm,2021.1.4,60.107172331818326,
H,left,Distractor,0,26,26,26,1086.8724514641751,1088.8745296232303,left,1,2,0.6195493237160008,J17T08,2022-11-28_15h04.22.855,t1_Paradigm,2021.1.4,60.107172331818326,
H,left,Lure,0,27,27,27,1090.3887594628738,1092.3720199847169,left,1,2,0.6662296266304111,J17T08,2022-11-28_15h04.22.855,t1_Paradigm,2021.1.4,60.107172331818326,
P,left,Distractor,0,28,28,28,1093.8720167766912,1095.8740282088118,left,1,2,0.8021761321601844,J17T08,2022-11-28_15h04.22.855,t1_Paradigm,2021.1.4,60.107172331818326,
G,left,Pretarget,0,29,29,29,1097.3882458579576,1099.3902816710736,left,1,2,0.7770659525176598,J17T08,2022-11-28_15h04.22.855,t1_Paradigm,2021.1.4,60.107172331818326,
K,left,Distractor,0,30,30,30,1100.8874576460405,1102.8888050168391,left,1,2,0.8591355910566563,J17T08,2022-11-28_15h04.22.855,t1_Paradigm,2021.1.4,60.107172331818326,
G,right,Target,0,31,31,31,1104.3868773141896,1106.3887565756506,right,1,2,0.38523159700025644,J17T08,2022-11-28_15h04.22.855,t1_Paradigm,2021.1.4,60.107172331818326,
M,left,Pretarget,0,32,32,32,1107.886271959738,1109.887666809317,left,1,2,1.2139477258629086,J17T08,2022-11-28_15h04.22.855,t1_Paradigm,2021.1.4,60.107172331818326,
B,left,Distractor,0,33,33,33,1111.385852349975,1113.3879773462056,left,1,2,0.7808353827272185,J17T08,2022-11-28_15h04.22.855,t1_Paradigm,2021.1.4,60.107172331818326,
M,right,Target,0,34,34,34,1114.8849072656005,1116.8861628868638,right,1,2,0.8757509186179959,J17T08,2022-11-28_15h04.22.855,t1_Paradigm,2021.1.4,60.107172331818326,
M,left,Lure,0,35,35,35,1118.3843907734615,1120.3841658908589,left,1,2,0.9341334577193265,J17T08,2022-11-28_15h04.22.855,t1_Paradigm,2021.1.4,60.107172331818326,
T,left,Distractor,0,36,36,36,1121.8838864718198,1123.8857519387705,left,1,2,0.5937378696530686,J17T08,2022-11-28_15h04.22.855,t1_Paradigm,2021.1.4,60.107172331818326,
F,left,Distractor,0,37,37,37,1125.3827222792895,1127.3849287593732,left,1,2,1.0586125545441973,J17T08,2022-11-28_15h04.22.855,t1_Paradigm,2021.1.4,60.107172331818326,
X,left,Distractor,0,38,38,38,1128.8828406554383,1130.8849605188277,left,1,2,1.1313336853604596,J17T08,2022-11-28_15h04.22.855,t1_Paradigm,2021.1.4,60.107172331818326,
C,left,Distractor,0,39,39,39,1132.3828980790984,1134.383249678716,left,1,2,0.626320182780546,J17T08,2022-11-28_15h04.22.855,t1_Paradigm,2021.1.4,60.107172331818326,
R,left,Distractor,0,40,40,40,1135.8818452050602,1137.8826584395777,left,1,2,0.7080950037566254,J17T08,2022-11-28_15h04.22.855,t1_Paradigm,2021.1.4,60.107172331818326,
B,left,Pretarget,0,41,41,41,1139.3808561707335,1141.382808575181,left,1,2,0.8172288303990172,J17T08,2022-11-28_15h04.22.855,t1_Paradigm,2021.1.4,60.107172331818326,
H,left,Distractor,0,42,42,42,1142.8800394073876,1144.8824268201213,left,1,2,1.172235371563147,J17T08,2022-11-28_15h04.22.855,t1_Paradigm,2021.1.4,60.107172331818326,
B,right,Target,0,43,43,43,1146.3798020134852,1148.3812639108016,right,1,2,0.4016188339337532,J17T08,2022-11-28_15h04.22.855,t1_Paradigm,2021.1.4,60.107172331818326,
W,left,Pretarget,0,44,44,44,1149.8792932206077,1151.8783924069883,left,1,2,0.7467417686871158,J17T08,2022-11-28_15h04.22.855,t1_Paradigm,2021.1.4,60.107172331818326,
L,left,Pretarget,0,45,45,45,1153.3788845181318,1155.379912690372,left,1,2,0.7485636064880055,J17T08,2022-11-28_15h04.22.855,t1_Paradigm,2021.1.4,60.107172331818326,
W,right,Target,0,46,46,46,1156.8777366865327,1158.8793047695,right,1,2,0.5444407801660418,J17T08,2022-11-28_15h04.22.855,t1_Paradigm,2021.1.4,60.107172331818326,
L,right,Target,0,47,47,47,1160.3774996134327,1162.379879006102,right,1,2,0.8858821846142746,J17T08,2022-11-28_15h04.22.855,t1_Paradigm,2021.1.4,60.107172331818326,
W,right,Target,0,48,48,48,1163.8761304280595,1165.8784260912582,right,1,2,0.6176395860106823,J17T08,2022-11-28_15h04.22.855,t1_Paradigm,2021.1.4,60.107172331818326,
X,left,Distractor,0,49,49,49,1167.3763065486712,1169.3779917245768,left,1,2,0.71126966599968,J17T08,2022-11-28_15h04.22.855,t1_Paradigm,2021.1.4,60.107172331818326,
R,left,Distractor,0,50,50,50,1170.8760457361811,1172.87643615291,left,1,2,0.9524063721655693,J17T08,2022-11-28_15h04.22.855,t1_Paradigm,2021.1.4,60.107172331818326,
V,left,Pretarget,0,51,51,51,1174.3751744363979,1176.376885597312,None,0,2,,J17T08,2022-11-28_15h04.22.855,t1_Paradigm,2021.1.4,60.107172331818326,
Z,left,Distractor,0,52,52,52,1177.8746066158471,1179.8766498074222,left,1,2,0.979353788132812,J17T08,2022-11-28_15h04.22.855,t1_Paradigm,2021.1.4,60.107172331818326,
V,right,Target,0,53,53,53,1181.3736807796274,1183.375855821059,right,1,2,0.351231015706162,J17T08,2022-11-28_15h04.22.855,t1_Paradigm,2021.1.4,60.107172331818326,
V,left,Lure,0,54,54,54,1184.8735883884867,1186.8730090190436,left,1,2,1.0268684985348955,J17T08,2022-11-28_15h04.22.855,t1_Paradigm,2021.1.4,60.107172331818326,
N,left,Distractor,0,55,55,55,1188.3731546634106,1190.3742553370319,left,1,2,0.7800901583545965,J17T08,2022-11-28_15h04.22.855,t1_Paradigm,2021.1.4,60.107172331818326,
B,left,Distractor,0,56,56,56,1191.872313839872,1193.873900850191,left,1,2,0.5554340426706403,J17T08,2022-11-28_15h04.22.855,t1_Paradigm,2021.1.4,60.107172331818326,
V,left,Lure,0,57,57,57,1195.3719808468034,1197.373029550408,left,1,2,0.7836927712273791,J17T08,2022-11-28_15h04.22.855,t1_Paradigm,2021.1.4,60.107172331818326,
J,left,Distractor,0,58,58,58,1198.887810208066,1200.8901748438172,left,1,2,1.0108501845579667,J17T08,2022-11-28_15h04.22.855,t1_Paradigm,2021.1.4,60.107172331818326,
H,left,Distractor,0,59,59,59,1202.3873142472914,1204.3866582060334,left,1,2,1.0337920596234653,J17T08,2022-11-28_15h04.22.855,t1_Paradigm,2021.1.4,60.107172331818326,
X,left,Pretarget,0,60,60,60,1205.8866928527111,1207.8873873902774,left,1,2,0.9994841494658431,J17T08,2022-11-28_15h04.22.855,t1_Paradigm,2021.1.4,60.107172331818326,
P,left,Distractor,0,61,61,61,1209.386188230267,1211.3878701981469,left,1,2,0.8026435415063133,J17T08,2022-11-28_15h04.22.855,t1_Paradigm,2021.1.4,60.107172331818326,
X,right,Target,0,62,62,62,1212.8851491507392,1214.8877110800715,right,1,2,0.5455501154569902,J17T08,2022-11-28_15h04.22.855,t1_Paradigm,2021.1.4,60.107172331818326,
Q,left,Distractor,0,63,63,63,1216.3848790349746,1218.3972613726116,left,1,2,0.8616349638873544,J17T08,2022-11-28_15h04.22.855,t1_Paradigm,2021.1.4,60.107172331818326,
B,left,Pretarget,0,0,0,0,1258.2216633484989,1260.2132368273653,None,0,2,,J17T08,2022-11-28_15h04.22.855,t1_Paradigm,2021.1.4,60.107172331818326,
F,left,Distractor,0,1,1,1,1261.7108545474728,1263.7119927549945,None,0,2,,J17T08,2022-11-28_15h04.22.855,t1_Paradigm,2021.1.4,60.107172331818326,
B,right,Target,0,2,2,2,1265.2106341561064,1267.2115157215715,right,1,2,1.0421733475941437,J17T08,2022-11-28_15h04.22.855,t1_Paradigm,2021.1.4,60.107172331818326,
V,left,Distractor,0,3,3,3,1268.709440770542,1270.7114554106881,left,1,2,0.8531548687242321,J17T08,2022-11-28_15h04.22.855,t1_Paradigm,2021.1.4,60.107172331818326,
G,left,Pretarget,0,4,4,4,1272.20894641378,1274.2108205424,left,1,2,0.9554822272166348,J17T08,2022-11-28_15h04.22.855,t1_Paradigm,2021.1.4,60.107172331818326,
B,left,Lure,0,5,5,5,1275.7085252000045,1277.7098167511551,left,1,2,1.4251551561637825,J17T08,2022-11-28_15h04.22.855,t1_Paradigm,2021.1.4,60.107172331818326,
G,right,Target,0,6,6,6,1279.2080404673195,1281.2090805092546,right,1,2,0.39307393665148993,J17T08,2022-11-28_15h04.22.855,t1_Paradigm,2021.1.4,60.107172331818326,
Y,left,Pretarget,0,7,7,7,1282.7075406569136,1284.708004858234,left,1,2,0.7282484628744896,J17T08,2022-11-28_15h04.22.855,t1_Paradigm,2021.1.4,60.107172331818326,
P,left,Distractor,0,8,8,8,1286.2067402544992,1288.2079230535785,left,1,2,0.5971534546265502,J17T08,2022-11-28_15h04.22.855,t1_Paradigm,2021.1.4,60.107172331818326,
Y,right,Target,0,9,9,9,1289.7061268799832,1291.7073273232043,right,1,2,0.7440495935111358,J17T08,2022-11-28_15h04.22.855,t1_Paradigm,2021.1.4,60.107172331818326,
X,left,Distractor,0,10,10,10,1293.2054146982757,1295.2075066518412,left,1,2,0.9180256398249185,J17T08,2022-11-28_15h04.22.855,t1_Paradigm,2021.1.4,60.107172331818326,
Y,right,Target,0,11,11,11,1296.7050092038255,1298.7063283439977,right,1,2,0.6982553472976178,J17T08,2022-11-28_15h04.22.855,t1_Paradigm,2021.1.4,60.107172331818326,
N,left,Distractor,0,12,12,12,1300.2044247015413,1302.2054788587895,left,1,2,0.7474302110049393,J17T08,2022-11-28_15h04.22.855,t1_Paradigm,2021.1.4,60.107172331818326,
Y,right,Target,0,13,13,13,1303.7038687506858,1305.705531149609,right,1,2,0.5261123668751679,J17T08,2022-11-28_15h04.22.855,t1_Paradigm,2021.1.4,60.107172331818326,
Y,left,Lure,0,14,14,14,1307.2030622530222,1309.2029053805647,left,1,2,1.062546235670652,J17T08,2022-11-28_15h04.22.855,t1_Paradigm,2021.1.4,60.107172331818326,
K,left,Distractor,0,15,15,15,1310.7026891596317,1312.7040384552458,left,1,2,0.6366246821648929,J17T08,2022-11-28_15h04.22.855,t1_Paradigm,2021.1.4,60.107172331818326,
T,left,Pretarget,0,16,16,16,1314.2018804163501,1316.203622374311,left,1,2,0.7507736153997939,J17T08,2022-11-28_15h04.22.855,t1_Paradigm,2021.1.4,60.107172331818326,
J,left,Distractor,0,17,17,17,1317.7015233630889,1319.7028360872093,left,1,2,0.938698799107442,J17T08,2022-11-28_15h04.22.855,t1_Paradigm,2021.1.4,60.107172331818326,
T,right,Target,0,18,18,18,1321.2009119133884,1323.2030000173233,right,1,2,0.8477454957715054,J17T08,2022-11-28_15h04.22.855,t1_Paradigm,2021.1.4,60.107172331818326,
S,left,Pretarget,0,19,19,19,1324.7005192510417,1326.7011775379171,left,1,2,0.6984009916650393,J17T08,2022-11-28_15h04.22.855,t1_Paradigm,2021.1.4,60.107172331818326,
R,left,Distractor,0,20,20,20,1328.1998949692381,1330.1989973636444,left,1,2,1.1570007782670473,J17T08,2022-11-28_15h04.22.855,t1_Paradigm,2021.1.4,60.107172331818326,
S,right,Target,0,21,21,21,1331.6991596897453,1333.7002321327402,right,1,2,0.4165955019630019,J17T08,2022-11-28_15h04.22.855,t1_Paradigm,2021.1.4,60.107172331818326,
Q,left,Distractor,0,22,22,22,1335.1987352679437,1337.1998080317414,left,1,2,0.6936935347375766,J17T08,2022-11-28_15h04.22.855,t1_Paradigm,2021.1.4,60.107172331818326,
D,left,Distractor,0,23,23,23,1338.6979521888682,1340.699444241626,left,1,2,0.6483891540501645,J17T08,2022-11-28_15h04.22.855,t1_Paradigm,2021.1.4,60.107172331818326,
F,left,Distractor,0,24,24,24,1342.1973089797132,1344.1989883811723,left,1,2,1.154578718855646,J17T08,2022-11-28_15h04.22.855,t1_Paradigm,2021.1.4,60.107172331818326,
Z,left,Distractor,0,25,25,25,1345.6968483072212,1347.696149920024,left,1,2,0.9290131278826266,J17T08,2022-11-28_15h04.22.855,t1_Paradigm,2021.1.4,60.107172331818326,
P,left,Distractor,0,26,26,26,1349.1961778298476,1351.1975450904054,left,1,2,1.0735411021878463,J17T08,2022-11-28_15h04.22.855,t1_Paradigm,2021.1.4,60.107172331818326,
H,left,Distractor,0,27,27,27,1352.7122320737128,1354.7137921366154,left,1,2,1.056533753884196,J17T08,2022-11-28_15h04.22.855,t1_Paradigm,2021.1.4,60.107172331818326,
Z,left,Pretarget,0,28,28,28,1356.211772684431,1358.2129721652443,left,1,2,1.0242183484956513,J17T08,2022-11-28_15h04.22.855,t1_Paradigm,2021.1.4,60.107172331818326,
J,left,Pretarget,0,29,29,29,1359.7112289240729,1361.713102411088,left,1,2,1.031696256426585,J17T08,2022-11-28_15h04.22.855,t1_Paradigm,2021.1.4,60.107172331818326,
Z,right,Target,0,30,30,30,1363.2108263168464,1365.2106729732175,right,1,2,0.4464676749703358,J17T08,2022-11-28_15h04.22.855,t1_Paradigm,2021.1.4,60.107172331818326,
J,right,Target,0,31,31,31,1366.710001854239,1368.711862509151,right,1,2,0.4893371641437625,J17T08,2022-11-28_15h04.22.855,t1_Paradigm,2021.1.4,60.107172331818326,
V,left,Pretarget,0,32,32,32,1370.209464830735,1372.2086939421567,left,1,2,0.671104863302844,J17T08,2022-11-28_15h04.22.855,t1_Paradigm,2021.1.4,60.107172331818326,
Z,left,Lure,0,33,33,33,1373.708099815795,1375.710406386281,left,1,2,1.1663002031964425,J17T08,2022-11-28_15h04.22.855,t1_Paradigm,2021.1.4,60.107172331818326,
V,right,Target,0,34,34,34,1377.2082817108528,1379.2097041494528,right,1,2,0.6525114670876064,J17T08,2022-11-28_15h04.22.855,t1_Paradigm,2021.1.4,60.107172331818326,
X,left,Distractor,0,35,35,35,1380.7074052782289,1382.7085595258793,left,1,2,0.8406740446980621,J17T08,2022-11-28_15h04.22.855,t1_Paradigm,2021.1.4,60.107172331818326,
S,left,Distractor,0,36,36,36,1384.2067614274686,1386.2085258416093,left,1,2,0.7827961280413547,J17T08,2022-11-28_15h04.22.855,t1_Paradigm,2021.1.4,60.107172331818326,
Q,left,Distractor,0,37,37,37,1387.7065304496175,1389.708398482989,left,1,2,0.8765035214496493,J17T08,2022-11-28_15h04.22.855,t1_Paradigm,2021.1.4,60.107172331818326,
P,left,Distractor,0,38,38,38,1391.2059950301266,1393.205228953587,left,1,2,0.6181127698027922,J17T08,2022-11-28_15h04.22.855,t1_Paradigm,2021.1.4,60.107172331818326,
S,left,Lure,0,39,39,39,1394.7055147886779,1396.7062657874965,left,1,2,0.6982874275549875,J17T08,2022-11-28_15h04.22.855,t1_Paradigm,2021.1.4,60.107172331818326,
K,left,Pretarget,0,40,40,40,1398.2049360608396,1400.2068169263136,left,1,2,0.9171155229305441,J17T08,2022-11-28_15h04.22.855,t1_Paradigm,2021.1.4,60.107172331818326,
L,left,Distractor,0,41,41,41,1401.704274565938,1403.7061721131456,left,1,2,0.5864694458009581,J17T08,2022-11-28_15h04.22.855,t1_Paradigm,2021.1.4,60.107172331818326,
K,right,Target,0,42,42,42,1405.203146624098,1407.204651508959,right,1,2,0.44894234600360505,J17T08,2022-11-28_15h04.22.855,t1_Paradigm,2021.1.4,60.107172331818326,
B,left,Distractor,0,43,43,43,1408.7026593249927,1410.7052145174714,left,1,2,0.802783090624871,J17T08,2022-11-28_15h04.22.855,t1_Paradigm,2021.1.4,60.107172331818326,
N,left,Distractor,0,44,44,44,1412.202410061395,1414.2039726907185,left,1,2,0.974868647387666,J17T08,2022-11-28_15h04.22.855,t1_Paradigm,2021.1.4,60.107172331818326,
S,left,Pretarget,0,45,45,45,1415.7018502609087,1417.704017282276,left,1,2,1.0188173164092404,J17T08,2022-11-28_15h04.22.855,t1_Paradigm,2021.1.4,60.107172331818326,
Z,left,Distractor,0,46,46,46,1419.2012288663284,1421.2031434160724,left,1,2,0.9295950637465467,J17T08,2022-11-28_15h04.22.855,t1_Paradigm,2021.1.4,60.107172331818326,
S,right,Target,0,47,47,47,1422.7006533465162,1424.7022374696119,right,1,2,0.8604848866698376,J17T08,2022-11-28_15h04.22.855,t1_Paradigm,2021.1.4,60.107172331818326,
C,left,Distractor,0,48,48,48,1426.2001532153079,1428.2011631018015,left,1,2,0.7672458650154113,J17T08,2022-11-28_15h04.22.855,t1_Paradigm,2021.1.4,60.107172331818326,
T,left,Pretarget,0,49,49,49,1429.6994994196682,1431.7003203534475,left,1,2,0.7022310535608085,J17T08,2022-11-28_15h04.22.855,t1_Paradigm,2021.1.4,60.107172331818326,
S,left,Lure,0,50,50,50,1433.1992084517362,1435.2005429904318,left,1,2,0.7831127601789376,J17T08,2022-11-28_15h04.22.855,t1_Paradigm,2021.1.4,60.107172331818326,
T,right,Target,0,51,51,51,1436.6985087813289,1438.6976442183998,right,1,2,0.5329047197119507,J17T08,2022-11-28_15h04.22.855,t1_Paradigm,2021.1.4,60.107172331818326,
N,left,Pretarget,0,52,52,52,1440.1970706234026,1442.1985562601092,left,1,2,0.68603309014361,J17T08,2022-11-28_15h04.22.855,t1_Paradigm,2021.1.4,60.107172331818326,
B,left,Distractor,0,53,53,53,1443.6975030652686,1445.6963276446484,left,1,2,0.5696314812544188,J17T08,2022-11-28_15h04.22.855,t1_Paradigm,2021.1.4,60.107172331818326,
N,right,Target,0,54,54,54,1447.196942623177,1449.1988690426158,right,1,2,0.7099261448320249,J17T08,2022-11-28_15h04.22.855,t1_Paradigm,2021.1.4,60.107172331818326,
N,left,Lure,0,55,55,55,1450.6961245766208,1452.6960536792524,None,0,2,,J17T08,2022-11-28_15h04.22.855,t1_Paradigm,2021.1.4,60.107172331818326,
X,left,Distractor,0,56,56,56,1454.1953071716696,1456.1974334511108,left,1,2,1.4237699306618197,J17T08,2022-11-28_15h04.22.855,t1_Paradigm,2021.1.4,60.107172331818326,
W,left,Distractor,0,57,57,57,1457.711646288218,1459.712072634835,left,1,2,0.6705498748547143,J17T08,2022-11-28_15h04.22.855,t1_Paradigm,2021.1.4,60.107172331818326,
S,left,Distractor,0,58,58,58,1461.210611058321,1463.2104163311608,left,1,2,0.6636792461908954,J17T08,2022-11-28_15h04.22.855,t1_Paradigm,2021.1.4,60.107172331818326,
L,left,Distractor,0,59,59,59,1464.7106630283376,1466.7226408339327,left,1,2,0.9039876401184301,J17T08,2022-11-28_15h04.22.855,t1_Paradigm,2021.1.4,60.107172331818326,
K,left,Pretarget,0,60,60,60,1468.2099020846392,1470.2117425289891,left,1,2,0.6899574679951002,J17T08,2022-11-28_15h04.22.855,t1_Paradigm,2021.1.4,60.107172331818326,
V,left,Pretarget,0,61,61,61,1471.7092893517286,1473.7110723724184,left,1,2,0.5836633857120432,J17T08,2022-11-28_15h04.22.855,t1_Paradigm,2021.1.4,60.107172331818326,
K,right,Target,0,62,62,62,1475.208655445848,1477.2077857500783,right,1,2,0.47268462348347384,J17T08,2022-11-28_15h04.22.855,t1_Paradigm,2021.1.4,60.107172331818326,
V,right,Target,0,63,63,63,1478.7080613194864,1480.7084225431815,right,1,2,0.973440113538345,J17T08,2022-11-28_15h04.22.855,t1_Paradigm,2021.1.4,60.107172331818326,
R,left,Distractor,0,0,0,0,1629.5082321147754,1631.5017393915402,None,0,3,,J17T08,2022-11-28_15h04.22.855,t1_Paradigm,2021.1.4,60.107172331818326,
P,left,Lure,0,1,1,1,1632.9994353874752,1635.0007169937464,None,0,3,,J17T08,2022-11-28_15h04.22.855,t1_Paradigm,2021.1.4,60.107172331818326,
V,left,Distractor,0,2,2,2,1636.4986320978371,1638.498060106853,None,0,3,,J17T08,2022-11-28_15h04.22.855,t1_Paradigm,2021.1.4,60.107172331818326,
P,left,Pretarget,0,3,3,3,1639.9979093296445,1641.9988409403106,None,0,3,,J17T08,2022-11-28_15h04.22.855,t1_Paradigm,2021.1.4,60.107172331818326,
Z,left,Distractor,0,4,4,4,1643.4969514131674,1645.499095015947,None,0,3,,J17T08,2022-11-28_15h04.22.855,t1_Paradigm,2021.1.4,60.107172331818326,
L,left,Pretarget,0,5,5,5,1646.9970592028315,1648.998464638895,left,1,3,0.4776240206701914,J17T08,2022-11-28_15h04.22.855,t1_Paradigm,2021.1.4,60.107172331818326,
P,right,Target,0,6,6,6,1650.4964384498564,1652.4963155824714,None,0,3,,J17T08,2022-11-28_15h04.22.855,t1_Paradigm,2021.1.4,60.107172331818326,
S,left,Distractor,0,7,7,7,1653.9956880926427,1655.9974223513416,left,1,3,0.963132085325924,J17T08,2022-11-28_15h04.22.855,t1_Paradigm,2021.1.4,60.107172331818326,
L,right,Target,0,8,8,8,1657.4951488235208,1659.4961038527747,left,0,3,0.5887416904115526,J17T08,2022-11-28_15h04.22.855,t1_Paradigm,2021.1.4,60.107172331818326,
D,left,Distractor,0,9,9,9,1660.9947808629715,1662.9963592116212,left,1,3,0.5144973889882749,J17T08,2022-11-28_15h04.22.855,t1_Paradigm,2021.1.4,60.107172331818326,
G,left,Distractor,0,10,10,10,1664.4939320193687,1666.4942637292272,left,1,3,0.21842163851852092,J17T08,2022-11-28_15h04.22.855,t1_Paradigm,2021.1.4,60.107172331818326,
M,left,Pretarget,0,11,11,11,1667.9934492114992,1669.9949181664722,left,1,3,0.5111283203864332,J17T08,2022-11-28_15h04.22.855,t1_Paradigm,2021.1.4,60.107172331818326,
Y,left,Distractor,0,12,12,12,1671.4929676868403,1673.4950294849643,left,1,3,0.6694209706074616,J17T08,2022-11-28_15h04.22.855,t1_Paradigm,2021.1.4,60.107172331818326,
V,left,Distractor,0,13,13,13,1674.9924460618597,1676.9948437402757,left,1,3,0.8814182168380285,J17T08,2022-11-28_15h04.22.855,t1_Paradigm,2021.1.4,60.107172331818326,
M,right,Target,0,14,14,14,1678.491526000086,1680.492946193068,right,1,3,1.364806418104763,J17T08,2022-11-28_15h04.22.855,t1_Paradigm,2021.1.4,60.107172331818326,
S,left,Pretarget,0,15,15,15,1681.9913415386075,1683.9918249880823,left,1,3,1.2182913926744732,J17T08,2022-11-28_15h04.22.855,t1_Paradigm,2021.1.4,60.107172331818326,
Q,left,Distractor,0,16,16,16,1685.4904792212967,1687.4924797461297,left,1,3,0.48305103776419855,J17T08,2022-11-28_15h04.22.855,t1_Paradigm,2021.1.4,60.107172331818326,
R,left,Pretarget,0,17,17,17,1688.9899142879692,1690.9920110535734,left,1,3,0.7812540300824367,J17T08,2022-11-28_15h04.22.855,t1_Paradigm,2021.1.4,60.107172331818326,
S,right,Target,0,18,18,18,1692.4889489930326,1694.4908750916695,right,1,3,0.34185876859328346,J17T08,2022-11-28_15h04.22.855,t1_Paradigm,2021.1.4,60.107172331818326,
F,left,Distractor,0,19,19,19,1695.9888829077033,1697.9881540442618,left,1,3,0.816953581792859,J17T08,2022-11-28_15h04.22.855,t1_Paradigm,2021.1.4,60.107172331818326,
R,right,Target,0,20,20,20,1699.4878951565868,1701.4886605915215,right,1,3,0.47332526621812576,J17T08,2022-11-28_15h04.22.855,t1_Paradigm,2021.1.4,60.107172331818326,
P,left,Distractor,0,21,21,21,1702.9876622539202,1704.9894969238242,left,1,3,0.6148672101917327,J17T08,2022-11-28_15h04.22.855,t1_Paradigm,2021.1.4,60.107172331818326,
L,left,Distractor,0,22,22,22,1706.4870719771895,1708.4870155159372,left,1,3,0.9108200932764703,J17T08,2022-11-28_15h04.22.855,t1_Paradigm,2021.1.4,60.107172331818326,
R,right,Target,0,23,23,23,1709.9864849084845,1711.9883118791265,None,0,3,,J17T08,2022-11-28_15h04.22.855,t1_Paradigm,2021.1.4,60.107172331818326,
H,left,Pretarget,0,24,24,24,1713.485136896081,1715.4870732603997,left,1,3,0.43679419424324806,J17T08,2022-11-28_15h04.22.855,t1_Paradigm,2021.1.4,60.107172331818326,
G,left,Pretarget,0,25,25,25,1716.9854269016053,1718.9851988109774,left,1,3,0.4628866713592288,J17T08,2022-11-28_15h04.22.855,t1_Paradigm,2021.1.4,60.107172331818326,
T,left,Distractor,0,26,26,26,1720.4849797028212,1722.4850823596441,left,1,3,0.597038286503448,J17T08,2022-11-28_15h04.22.855,t1_Paradigm,2021.1.4,60.107172331818326,
H,right,Target,0,27,27,27,1723.9841853956552,1725.985789087708,right,1,3,0.9340080239135204,J17T08,2022-11-28_15h04.22.855,t1_Paradigm,2021.1.4,60.107172331818326,
G,right,Target,0,28,28,28,1727.483613725474,1729.4854047662277,right,1,3,0.8360355603231255,J17T08,2022-11-28_15h04.22.855,t1_Paradigm,2021.1.4,60.107172331818326,
D,left,Distractor,0,29,29,29,1730.9995168713278,1733.0012238618085,left,1,3,0.526105630020993,J17T08,2022-11-28_15h04.22.855,t1_Paradigm,2021.1.4,60.107172331818326,
N,left,Pretarget,0,30,30,30,1734.4990510659948,1736.4997257138018,left,1,3,0.8130866276014785,J17T08,2022-11-28_15h04.22.855,t1_Paradigm,2021.1.4,60.107172331818326,
V,left,Distractor,0,31,31,31,1737.9984620724742,1739.999926536211,left,1,3,1.1146217962245828,J17T08,2022-11-28_15h04.22.855,t1_Paradigm,2021.1.4,60.107172331818326,
R,left,Distractor,0,32,32,32,1741.4980373298702,1743.4977540612,left,1,3,1.0265942123364766,J17T08,2022-11-28_15h04.22.855,t1_Paradigm,2021.1.4,60.107172331818326,
N,right,Target,0,33,33,33,1744.9973873838615,1746.9990087200556,right,1,3,0.971989765114813,J17T08,2022-11-28_15h04.22.855,t1_Paradigm,2021.1.4,60.107172331818326,
Z,left,Distractor,0,34,34,34,1748.4967143400675,1750.4959235617296,left,1,3,0.6321873410024637,J17T08,2022-11-28_15h04.22.855,t1_Paradigm,2021.1.4,60.107172331818326,
N,left,Lure,0,35,35,35,1751.9960275017627,1753.9976985623555,left,1,3,1.2948737032356803,J17T08,2022-11-28_15h04.22.855,t1_Paradigm,2021.1.4,60.107172331818326,
Y,left,Pretarget,0,36,36,36,1755.4955661876654,1757.4975092888383,left,1,3,0.7235403643421705,J17T08,2022-11-28_15h04.22.855,t1_Paradigm,2021.1.4,60.107172331818326,
Y,left,Lure,0,37,37,37,1758.9951462571,1760.9947144568393,left,1,3,1.1173912848207692,J17T08,2022-11-28_15h04.22.855,t1_Paradigm,2021.1.4,60.107172331818326,
B,left,Distractor,0,38,38,38,1762.4946589579947,1764.4954199016931,left,1,3,0.6596525323188871,J17T08,2022-11-28_15h04.22.855,t1_Paradigm,2021.1.4,60.107172331818326,
Y,right,Target,0,39,39,39,1765.9937507659163,1767.9956101376176,right,1,3,0.39413033951814214,J17T08,2022-11-28_15h04.22.855,t1_Paradigm,2021.1.4,60.107172331818326,
J,left,Distractor,0,40,40,40,1769.493179416537,1771.4954182976805,left,1,3,1.2748504899618638,J17T08,2022-11-28_15h04.22.855,t1_Paradigm,2021.1.4,60.107172331818326,
X,left,Distractor,0,41,41,41,1772.9927071951527,1774.9939708364798,left,1,3,1.1005674355874362,J17T08,2022-11-28_15h04.22.855,t1_Paradigm,2021.1.4,60.107172331818326,
W,left,Pretarget,0,42,42,42,1776.4916318649346,1778.490931232119,left,1,3,0.7201135512782457,J17T08,2022-11-28_15h04.22.855,t1_Paradigm,2021.1.4,60.107172331818326,
S,left,Pretarget,0,43,43,43,1779.9915054687215,1781.9905719332398,left,1,3,0.7282439716382214,J17T08,2022-11-28_15h04.22.855,t1_Paradigm,2021.1.4,60.107172331818326,
R,left,Distractor,0,44,44,44,1783.4908616179612,1785.5035275450712,left,1,3,1.0533645452851488,J17T08,2022-11-28_15h04.22.855,t1_Paradigm,2021.1.4,60.107172331818326,
W,right,Target,0,45,45,45,1786.9902947598182,1788.9915641755917,right,1,3,1.1423221358263618,J17T08,2022-11-28_15h04.22.855,t1_Paradigm,2021.1.4,60.107172331818326,
S,right,Target,0,46,46,46,1790.4899829397193,1792.4896656659764,right,1,3,1.4132700625114012,J17T08,2022-11-28_15h04.22.855,t1_Paradigm,2021.1.4,60.107172331818326,
D,left,Distractor,0,47,47,47,1793.9887998198371,1795.9908099687475,left,1,3,0.7672914189802214,J17T08,2022-11-28_15h04.22.855,t1_Paradigm,2021.1.4,60.107172331818326,
T,left,Distractor,0,48,48,48,1797.4884527114552,1799.4899287240848,left,1,3,0.8087413567764088,J17T08,2022-11-28_15h04.22.855,t1_Paradigm,2021.1.4,60.107172331818326,
S,right,Target,0,49,49,49,1800.987914404741,1802.9894465578207,None,0,3,,J17T08,2022-11-28_15h04.22.855,t1_Paradigm,2021.1.4,60.107172331818326,
K,left,Distractor,0,50,50,50,1804.487679577259,1806.4887914789704,left,1,3,0.690941048678269,J17T08,2022-11-28_15h04.22.855,t1_Paradigm,2021.1.4,60.107172331818326,
S,left,Lure,0,51,51,51,1807.986179504437,1809.9874354465026,right,0,3,1.3731286784022814,J17T08,2022-11-28_15h04.22.855,t1_Paradigm,2021.1.4,60.107172331818326,
T,left,Pretarget,0,52,52,52,1811.4859979301816,1813.487236228106,left,1,3,0.47144247592859756,J17T08,2022-11-28_15h04.22.855,t1_Paradigm,2021.1.4,60.107172331818326,
V,left,Distractor,0,53,53,53,1814.9857034334216,1816.9873045590537,left,1,3,0.8217543922683035,J17T08,2022-11-28_15h04.22.855,t1_Paradigm,2021.1.4,60.107172331818326,
B,left,Distractor,0,54,54,54,1818.4853094878642,1820.4850069710399,right,0,3,0.5829335598627949,J17T08,2022-11-28_15h04.22.855,t1_Paradigm,2021.1.4,60.107172331818326,
T,right,Target,0,55,55,55,1821.9848096774588,1823.984762519481,right,1,3,1.4024525998161153,J17T08,2022-11-28_15h04.22.855,t1_Paradigm,2021.1.4,60.107172331818326,
Y,left,Pretarget,0,56,56,56,1825.4840227487518,1827.4962267201593,left,1,3,0.6689147441502428,J17T08,2022-11-28_15h04.22.855,t1_Paradigm,2021.1.4,60.107172331818326,
T,left,Lure,0,57,57,57,1828.9834918204967,1830.9851352920684,right,0,3,1.0221013723294163,J17T08,2022-11-28_15h04.22.855,t1_Paradigm,2021.1.4,60.107172331818326,
P,left,Pretarget,0,58,58,58,1832.4993981743767,1834.501391641553,left,1,3,0.5081156634423678,J17T08,2022-11-28_15h04.22.855,t1_Paradigm,2021.1.4,60.107172331818326,
Y,right,Target,0,59,59,59,1835.9987793462171,1838.000355449249,left,0,3,1.1037218872684207,J17T08,2022-11-28_15h04.22.855,t1_Paradigm,2021.1.4,60.107172331818326,
R,left,Distractor,0,60,60,60,1839.498291084704,1841.4983151448967,left,1,3,0.9379256649112904,J17T08,2022-11-28_15h04.22.855,t1_Paradigm,2021.1.4,60.107172331818326,
P,right,Target,0,61,61,61,1842.9977142816813,1844.9990869958826,right,1,3,1.0832893299143507,J17T08,2022-11-28_15h04.22.855,t1_Paradigm,2021.1.4,60.107172331818326,
L,left,Distractor,0,62,62,62,1846.4967768965687,1848.4988836070527,left,1,3,0.4796964052789008,J17T08,2022-11-28_15h04.22.855,t1_Paradigm,2021.1.4,60.107172331818326,
V,left,Distractor,0,63,63,63,1849.9966405554762,1851.9988743037782,left,1,3,0.756926608712547,J17T08,2022-11-28_15h04.22.855,t1_Paradigm,2021.1.4,60.107172331818326,
H,left,Lure,0,0,0,0,1897.0738230876475,1899.073092299391,None,0,3,,J17T08,2022-11-28_15h04.22.855,t1_Paradigm,2021.1.4,60.107172331818326,
B,left,Distractor,0,1,1,1,1900.5715364069213,1902.57254565181,None,0,3,,J17T08,2022-11-28_15h04.22.855,t1_Paradigm,2021.1.4,60.107172331818326,
T,left,Distractor,0,2,2,2,1904.070912766723,1906.0723207692074,None,0,3,,J17T08,2022-11-28_15h04.22.855,t1_Paradigm,2021.1.4,60.107172331818326,
R,left,Distractor,0,3,3,3,1907.570323773203,1909.5714879657332,left,1,3,0.6187598285887361,J17T08,2022-11-28_15h04.22.855,t1_Paradigm,2021.1.4,60.107172331818326,
H,left,Pretarget,0,4,4,4,1911.0693401925198,1913.0699994418035,left,1,3,0.5829050084339542,J17T08,2022-11-28_15h04.22.855,t1_Paradigm,2021.1.4,60.107172331818326,
K,left,Distractor,0,5,5,5,1914.5693960121673,1916.5707915033515,left,1,3,0.6835751008443367,J17T08,2022-11-28_15h04.22.855,t1_Paradigm,2021.1.4,60.107172331818326,
G,left,Distractor,0,6,6,6,1918.0688102266724,1920.0701062690598,left,1,3,1.3695321607783626,J17T08,2022-11-28_15h04.22.855,t1_Paradigm,2021.1.4,60.107172331818326,
H,right,Target,0,7,7,7,1921.5677467661496,1923.569348533387,right,1,3,0.8476803728494815,J17T08,2022-11-28_15h04.22.855,t1_Paradigm,2021.1.4,60.107172331818326,
Y,left,Pretarget,0,8,8,8,1925.0666441677129,1927.0674230763555,left,1,3,0.7351287156157014,J17T08,2022-11-28_15h04.22.855,t1_Paradigm,2021.1.4,60.107172331818326,
S,left,Distractor,0,9,9,9,1928.5669803688072,1930.5678523101953,left,1,3,0.5795984963342562,J17T08,2022-11-28_15h04.22.855,t1_Paradigm,2021.1.4,60.107172331818326,
P,left,Distractor,0,10,10,10,1932.065914983469,1934.0676113874645,left,1,3,0.6530180143472535,J17T08,2022-11-28_15h04.22.855,t1_Paradigm,2021.1.4,60.107172331818326,
Y,right,Target,0,11,11,11,1935.5659185122975,1937.5668838072336,left,0,3,1.306190976336893,J17T08,2022-11-28_15h04.22.855,t1_Paradigm,2021.1.4,60.107172331818326,
H,left,Lure,0,12,12,12,1939.0650597238148,1941.0668401780838,right,0,3,1.1671342898812327,J17T08,2022-11-28_15h04.22.855,t1_Paradigm,2021.1.4,60.107172331818326,
Q,left,Distractor,0,13,13,13,1942.5644457076935,1944.5655688374948,left,1,3,0.8288896830536032,J17T08,2022-11-28_15h04.22.855,t1_Paradigm,2021.1.4,60.107172331818326,
V,left,Pretarget,0,14,14,14,1946.0637550197582,1948.065837990852,left,1,3,0.5264460015487202,J17T08,2022-11-28_15h04.22.855,t1_Paradigm,2021.1.4,60.107172331818326,
G,left,Distractor,0,15,15,15,1949.5635214754864,1951.5651286963673,left,1,3,0.6815056034588451,J17T08,2022-11-28_15h04.22.855,t1_Paradigm,2021.1.4,60.107172331818326,
Z,left,Pretarget,0,16,16,16,1953.0628477900875,1955.0642737575156,left,1,3,0.5768062307556647,J17T08,2022-11-28_15h04.22.855,t1_Paradigm,2021.1.4,60.107172331818326,
V,right,Target,0,17,17,17,1956.5622209418636,1958.5621179642383,right,1,3,0.8963884688155304,J17T08,2022-11-28_15h04.22.855,t1_Paradigm,2021.1.4,60.107172331818326,
N,left,Distractor,0,18,18,18,1960.0615421236232,1962.0630149282267,left,1,3,0.6912467735282917,J17T08,2022-11-28_15h04.22.855,t1_Paradigm,2021.1.4,60.107172331818326,
Z,right,Target,0,19,19,19,1963.5610391051916,1965.5619665454249,left,0,3,1.20143129275084,J17T08,2022-11-28_15h04.22.855,t1_Paradigm,2021.1.4,60.107172331818326,
R,left,Distractor,0,20,20,20,1967.0604533196972,1969.06184496125,left,1,3,0.8505534806758988,J17T08,2022-11-28_15h04.22.855,t1_Paradigm,2021.1.4,60.107172331818326,
P,left,Distractor,0,21,21,21,1970.559512726559,1972.5611023032982,left,1,3,0.5411897669114296,J17T08,2022-11-28_15h04.22.855,t1_Paradigm,2021.1.4,60.107172331818326,
Z,right,Target,0,22,22,22,1974.0593911423841,1976.0610743934747,right,1,3,0.8308485035522608,J17T08,2022-11-28_15h04.22.855,t1_Paradigm,2021.1.4,60.107172331818326,
D,left,Pretarget,0,23,23,23,1977.5587723142246,1979.5585663589743,left,1,3,1.1470244599127,J17T08,2022-11-28_15h04.22.855,t1_Paradigm,2021.1.4,60.107172331818326,
K,left,Distractor,0,24,24,24,1981.0581393707523,1983.059241006781,left,1,3,0.611979666249681,J17T08,2022-11-28_15h04.22.855,t1_Paradigm,2021.1.4,60.107172331818326,
W,left,Distractor,0,25,25,25,1984.557581495081,1986.5595204258204,left,1,3,0.590948491297695,J17T08,2022-11-28_15h04.22.855,t1_Paradigm,2021.1.4,60.107172331818326,
D,right,Target,0,26,26,26,1988.0571240306147,1990.057713986543,right,1,3,0.9471420019744983,J17T08,2022-11-28_15h04.22.855,t1_Paradigm,2021.1.4,60.107172331818326,
G,left,Pretarget,0,27,27,27,1991.5564041496452,1993.557965174956,left,1,3,0.8646559616990999,J17T08,2022-11-28_15h04.22.855,t1_Paradigm,2021.1.4,60.107172331818326,
V,left,Distractor,0,28,28,28,1995.0727230556315,1997.0740649727861,left,1,3,1.3057190757549506,J17T08,2022-11-28_15h04.22.855,t1_Paradigm,2021.1.4,60.107172331818326,
D,right,Target,0,29,29,29,1998.5719229740196,2000.573826616476,None,0,3,,J17T08,2022-11-28_15h04.22.855,t1_Paradigm,2021.1.4,60.107172331818326,
G,right,Target,0,30,30,30,2002.0711151931457,2004.0720673351764,right,1,3,0.9238138806140341,J17T08,2022-11-28_15h04.22.855,t1_Paradigm,2021.1.4,60.107172331818326,
B,left,Pretarget,0,31,31,31,2005.5708149219392,2007.5720015706495,left,1,3,1.0463704076310023,J17T08,2022-11-28_15h04.22.855,t1_Paradigm,2021.1.4,60.107172331818326,
N,left,Distractor,0,32,32,32,2009.070145086171,2011.0715258204366,left,1,3,1.1036481026776528,J17T08,2022-11-28_15h04.22.855,t1_Paradigm,2021.1.4,60.107172331818326,
F,left,Distractor,0,33,33,33,2012.5695958721692,2014.5694091650728,left,1,3,0.6121025336346975,J17T08,2022-11-28_15h04.22.855,t1_Paradigm,2021.1.4,60.107172331818326,
B,right,Target,0,34,34,34,2016.0691640719085,2018.0698833112726,left,0,3,0.5906392376191434,J17T08,2022-11-28_15h04.22.855,t1_Paradigm,2021.1.4,60.107172331818326,
Q,left,Pretarget,0,35,35,35,2019.568420130746,2021.5682773736023,left,1,3,0.5999896701573562,J17T08,2022-11-28_15h04.22.855,t1_Paradigm,2021.1.4,60.107172331818326,
S,left,Pretarget,0,36,36,36,2023.0677615230677,2025.0693575158587,left,1,3,0.913089450663847,J17T08,2022-11-28_15h04.22.855,t1_Paradigm,2021.1.4,60.107172331818326,
W,left,Distractor,0,37,37,37,2026.5672668455034,2028.5693982577852,left,1,3,0.9658804009518462,J17T08,2022-11-28_15h04.22.855,t1_Paradigm,2021.1.4,60.107172331818326,
Q,right,Target,0,38,38,38,2030.0669280779882,2032.0678600094573,right,1,3,0.8203630715179315,J17T08,2022-11-28_15h04.22.855,t1_Paradigm,2021.1.4,60.107172331818326,
S,right,Target,0,39,39,39,2033.5661113146423,2035.5679212827483,right,1,3,1.02393604223289,J17T08,2022-11-28_15h04.22.855,t1_Paradigm,2021.1.4,60.107172331818326,
T,left,Distractor,0,40,40,40,2037.065133508406,2039.0652672830781,right,0,3,1.1895163644599052,J17T08,2022-11-28_15h04.22.855,t1_Paradigm,2021.1.4,60.107172331818326,
G,left,Distractor,0,41,41,41,2040.5648130266375,2042.5659056801944,left,1,3,0.45002377147056905,J17T08,2022-11-28_15h04.22.855,t1_Paradigm,2021.1.4,60.107172331818326,
D,left,Distractor,0,42,42,42,2044.0639811855706,2046.065189648856,left,1,3,0.5811293662031858,J17T08,2022-11-28_15h04.22.855,t1_Paradigm,2021.1.4,60.107172331818326,
S,left,Lure,0,43,43,43,2047.5638836615892,2049.565404265776,right,0,3,1.371846751328576,J17T08,2022-11-28_15h04.22.855,t1_Paradigm,2021.1.4,60.107172331818326,
Z,left,Pretarget,0,44,44,44,2051.063382888776,2053.0631317003626,left,1,3,0.5335290015150349,J17T08,2022-11-28_15h04.22.855,t1_Paradigm,2021.1.4,60.107172331818326,
J,left,Distractor,0,45,45,45,2054.5625914688326,2056.563284723189,left,1,3,0.45971136751086306,J17T08,2022-11-28_15h04.22.855,t1_Paradigm,2021.1.4,60.107172331818326,
M,left,Pretarget,0,46,46,46,2058.061686805583,2060.0638012153286,left,1,3,0.3737834364496848,J17T08,2022-11-28_15h04.22.855,t1_Paradigm,2021.1.4,60.107172331818326,
Z,right,Target,0,47,47,47,2061.561522554666,2063.5627820255604,left,0,3,0.9212782570921263,J17T08,2022-11-28_15h04.22.855,t1_Paradigm,2021.1.4,60.107172331818326,
P,left,Distractor,0,48,48,48,2065.0609755862824,2067.0604873247694,left,1,3,0.5891064429347352,J17T08,2022-11-28_15h04.22.855,t1_Paradigm,2021.1.4,60.107172331818326,
M,right,Target,0,49,49,49,2068.5604632645764,2070.5607542325088,left,0,3,0.4542942952962221,J17T08,2022-11-28_15h04.22.855,t1_Paradigm,2021.1.4,60.107172331818326,
K,left,Distractor,0,50,50,50,2072.0597154737834,2074.061750966097,left,1,3,0.7876309435891926,J17T08,2022-11-28_15h04.22.855,t1_Paradigm,2021.1.4,60.107172331818326,
Y,left,Distractor,0,51,51,51,2075.559320565819,2077.5610099121577,left,1,3,0.6211645646612851,J17T08,2022-11-28_15h04.22.855,t1_Paradigm,2021.1.4,60.107172331818326,
X,left,Distractor,0,52,52,52,2079.0584717222155,2081.060752949298,left,1,3,0.6699740342401128,J17T08,2022-11-28_15h04.22.855,t1_Paradigm,2021.1.4,60.107172331818326,
F,left,Pretarget,0,53,53,53,2082.5578487236226,2084.558416223371,left,1,3,0.5949100822472246,J17T08,2022-11-28_15h04.22.855,t1_Paradigm,2021.1.4,60.107172331818326,
M,left,Lure,0,54,54,54,2086.0575869487247,2088.0589025600684,left,1,3,0.508478170347189,J17T08,2022-11-28_15h04.22.855,t1_Paradigm,2021.1.4,60.107172331818326,
V,left,Distractor,0,55,55,55,2089.556751899632,2091.557280261467,left,1,3,0.8768342689008932,J17T08,2022-11-28_15h04.22.855,t1_Paradigm,2021.1.4,60.107172331818326,
F,right,Target,0,56,56,56,2093.072813521957,2095.0719226532165,right,1,3,0.7600711155141653,J17T08,2022-11-28_15h04.22.855,t1_Paradigm,2021.1.4,60.107172331818326,
S,left,Distractor,0,57,57,57,2096.5723233356284,2098.5711832032903,right,0,3,1.4010526173960898,J17T08,2022-11-28_15h04.22.855,t1_Paradigm,2021.1.4,60.107172331818326,
D,left,Distractor,0,58,58,58,2100.0717353045156,2102.072515175566,left,1,3,0.5426609675023428,J17T08,2022-11-28_15h04.22.855,t1_Paradigm,2021.1.4,60.107172331818326,
F,right,Target,0,59,59,59,2103.5710433333697,2105.583396477973,right,1,3,1.363603729265833,J17T08,2022-11-28_15h04.22.855,t1_Paradigm,2021.1.4,60.107172331818326,
V,left,Pretarget,0,60,60,60,2107.071121929999,2109.0719762272465,right,0,3,0.9260043205690636,J17T08,2022-11-28_15h04.22.855,t1_Paradigm,2021.1.4,60.107172331818326,
J,left,Distractor,0,61,61,61,2110.570068735159,2112.5697915617375,left,1,3,0.48343696325719065,J17T08,2022-11-28_15h04.22.855,t1_Paradigm,2021.1.4,60.107172331818326,
V,left,Lure,0,62,62,62,2114.069088362502,2116.0715700911915,left,1,3,0.37511765434283006,J17T08,2022-11-28_15h04.22.855,t1_Paradigm,2021.1.4,60.107172331818326,
V,right,Target,0,63,63,63,2117.568872783174,2119.568762106287,right,1,3,0.6715357011557899,J17T08,2022-11-28_15h04.22.855,t1_Paradigm,2021.1.4,60.107172331818326,
R,left,Distractor,0,0,0,0,2247.404680894475,2249.396593461659,None,0,4,,J17T08,2022-11-28_15h04.22.855,t1_Paradigm,2021.1.4,60.107172331818326,
F,left,Distractor,0,1,1,1,2250.896629712349,2252.897860631814,None,0,4,,J17T08,2022-11-28_15h04.22.855,t1_Paradigm,2021.1.4,60.107172331818326,
P,left,Pretarget,0,2,2,2,2254.395995164864,2256.3961892504194,None,0,4,,J17T08,2022-11-28_15h04.22.855,t1_Paradigm,2021.1.4,60.107172331818326,
H,left,Distractor,0,3,3,3,2257.8953811487427,2259.897179247153,left,1,4,0.6377930451285465,J17T08,2022-11-28_15h04.22.855,t1_Paradigm,2021.1.4,60.107172331818326,
Z,left,Distractor,0,4,4,4,2261.394883263152,2263.396166473436,left,1,4,0.7611345760369659,J17T08,2022-11-28_15h04.22.855,t1_Paradigm,2021.1.4,60.107172331818326,
T,left,Distractor,0,5,5,5,2264.894473277466,2266.8963759575154,left,1,4,0.6872970522736068,J17T08,2022-11-28_15h04.22.855,t1_Paradigm,2021.1.4,60.107172331818326,
P,right,Target,0,6,6,6,2268.393781947926,2270.3949028321094,left,0,4,1.1370831090389402,J17T08,2022-11-28_15h04.22.855,t1_Paradigm,2021.1.4,60.107172331818326,
G,left,Distractor,0,7,7,7,2271.893178839093,2273.8930097761377,left,1,4,1.0247046851932282,J17T08,2022-11-28_15h04.22.855,t1_Paradigm,2021.1.4,60.107172331818326,
L,left,Distractor,0,8,8,8,2275.392823069041,2277.3947764358963,left,1,4,0.7208501139812142,J17T08,2022-11-28_15h04.22.855,t1_Paradigm,2021.1.4,60.107172331818326,
P,left,Lure,0,9,9,9,2278.892084581523,2280.8920842607204,None,0,4,,J17T08,2022-11-28_15h04.22.855,t1_Paradigm,2021.1.4,60.107172331818326,
Q,left,Pretarget,0,10,10,10,2282.391278083859,2284.392945615623,left,1,4,0.5875245654569881,J17T08,2022-11-28_15h04.22.855,t1_Paradigm,2021.1.4,60.107172331818326,
D,left,Distractor,0,11,11,11,2285.8909357875154,2287.892879851096,right,0,4,1.1264225188006094,J17T08,2022-11-28_15h04.22.855,t1_Paradigm,2021.1.4,60.107172331818326,
M,left,Pretarget,0,12,12,12,2289.3902656309447,2291.3901555956627,left,1,4,0.5168119795375787,J17T08,2022-11-28_15h04.22.855,t1_Paradigm,2021.1.4,60.107172331818326,
C,left,Distractor,0,13,13,13,2292.889784747891,2294.8916277586613,left,1,4,0.6373128036798335,J17T08,2022-11-28_15h04.22.855,t1_Paradigm,2021.1.4,60.107172331818326,
Q,right,Target,0,14,14,14,2296.38913833071,2298.3904414307535,right,1,4,0.6709175146011148,J17T08,2022-11-28_15h04.22.855,t1_Paradigm,2021.1.4,60.107172331818326,
R,left,Distractor,0,15,15,15,2299.888584946275,2301.887713325689,left,1,4,0.3387338307484242,J17T08,2022-11-28_15h04.22.855,t1_Paradigm,2021.1.4,60.107172331818326,
M,right,Target,0,16,16,16,2303.3882638229015,2305.3878538372155,left,0,4,1.036329287157514,J17T08,2022-11-28_15h04.22.855,t1_Paradigm,2021.1.4,60.107172331818326,
S,left,Distractor,0,17,17,17,2306.8866944567244,2308.889004235236,left,1,4,0.6110827022607737,J17T08,2022-11-28_15h04.22.855,t1_Paradigm,2021.1.4,60.107172331818326,
Z,left,Distractor,0,18,18,18,2310.3860627964614,2312.3880877022902,left,1,4,0.5464320017244972,J17T08,2022-11-28_15h04.22.855,t1_Paradigm,2021.1.4,60.107172331818326,
L,left,Pretarget,0,19,19,19,2313.8863155888876,2315.887820794551,left,1,4,0.6566016998685882,J17T08,2022-11-28_15h04.22.855,t1_Paradigm,2021.1.4,60.107172331818326,
M,right,Target,0,20,20,20,2317.38568200381,2319.3874602124615,right,1,4,1.424012457405297,J17T08,2022-11-28_15h04.22.855,t1_Paradigm,2021.1.4,60.107172331818326,
P,left,Distractor,0,21,21,21,2320.8849986943333,2322.8858792973906,left,1,4,0.4911991022663642,J17T08,2022-11-28_15h04.22.855,t1_Paradigm,2021.1.4,60.107172331818326,
F,left,Distractor,0,22,22,22,2324.384518773687,2326.3859017535706,left,1,4,0.613558014899354,J17T08,2022-11-28_15h04.22.855,t1_Paradigm,2021.1.4,60.107172331818326,
L,right,Target,0,23,23,23,2327.884028266556,2329.8849630852483,left,0,4,0.5817626304783516,J17T08,2022-11-28_15h04.22.855,t1_Paradigm,2021.1.4,60.107172331818326,
L,left,Lure,0,24,24,24,2331.38327887175,2333.382912194412,left,1,4,1.261013954270311,J17T08,2022-11-28_15h04.22.855,t1_Paradigm,2021.1.4,60.107172331818326,
V,left,Pretarget,0,25,25,25,2334.882721637684,2336.8829041743475,left,1,4,1.0081830319822984,J17T08,2022-11-28_15h04.22.855,t1_Paradigm,2021.1.4,60.107172331818326,
Z,left,Distractor,0,26,26,26,2338.3821794813393,2340.3826359833974,left,1,4,1.2366287884378835,J17T08,2022-11-28_15h04.22.855,t1_Paradigm,2021.1.4,60.107172331818326,
H,left,Distractor,0,27,27,27,2341.881893325446,2343.8820271001177,left,1,4,1.1105562652419394,J17T08,2022-11-28_15h04.22.855,t1_Paradigm,2021.1.4,60.107172331818326,
X,left,Distractor,0,28,28,28,2345.381366246822,2347.3824383690144,left,1,4,0.9834991989559967,J17T08,2022-11-28_15h04.22.855,t1_Paradigm,2021.1.4,60.107172331818326,
V,right,Target,0,29,29,29,2348.8971340139906,2350.8989372452425,right,1,4,0.7065500185744895,J17T08,2022-11-28_15h04.22.855,t1_Paradigm,2021.1.4,60.107172331818326,
C,left,Distractor,0,30,30,30,2352.39655624856,2354.396323666696,left,1,4,0.9289727067589411,J17T08,2022-11-28_15h04.22.855,t1_Paradigm,2021.1.4,60.107172331818326,
S,left,Pretarget,0,31,31,31,2355.8960506637086,2357.8968876376166,left,1,4,0.838200656875415,J17T08,2022-11-28_15h04.22.855,t1_Paradigm,2021.1.4,60.107172331818326,
D,left,Distractor,0,32,32,32,2359.3955389836074,2361.3947587917546,left,1,4,0.8076326630912263,J17T08,2022-11-28_15h04.22.855,t1_Paradigm,2021.1.4,60.107172331818326,
V,left,Distractor,0,33,33,33,2362.894779964725,2364.8953083265587,left,1,4,1.1819938649714459,J17T08,2022-11-28_15h04.22.855,t1_Paradigm,2021.1.4,60.107172331818326,
R,left,Distractor,0,34,34,34,2366.3939340083443,2368.3945146609985,left,1,4,1.0033777302705857,J17T08,2022-11-28_15h04.22.855,t1_Paradigm,2021.1.4,60.107172331818326,
S,right,Target,0,35,35,35,2369.893582729529,2371.8946718542584,right,1,4,0.4562033913966843,J17T08,2022-11-28_15h04.22.855,t1_Paradigm,2021.1.4,60.107172331818326,
Y,left,Distractor,0,36,36,36,2373.3929244426536,2375.391979999885,left,1,4,0.6344117860298866,J17T08,2022-11-28_15h04.22.855,t1_Paradigm,2021.1.4,60.107172331818326,
N,left,Pretarget,0,37,37,37,2376.8925045120877,2378.8942246554743,left,1,4,0.8318349714581927,J17T08,2022-11-28_15h04.22.855,t1_Paradigm,2021.1.4,60.107172331818326,
Z,left,Pretarget,0,38,38,38,2380.3915488412295,2382.3917705158055,left,1,4,0.7568066285507484,J17T08,2022-11-28_15h04.22.855,t1_Paradigm,2021.1.4,60.107172331818326,
P,left,Pretarget,0,39,39,39,2383.8912947655926,2385.893084523136,left,1,4,1.265460919510133,J17T08,2022-11-28_15h04.22.855,t1_Paradigm,2021.1.4,60.107172331818326,
M,left,Distractor,0,40,40,40,2387.390848850019,2389.3915658437654,left,1,4,0.757214689421744,J17T08,2022-11-28_15h04.22.855,t1_Paradigm,2021.1.4,60.107172331818326,
N,right,Target,0,41,41,41,2390.8900455603807,2392.891482435097,right,1,4,1.3730112646617272,J17T08,2022-11-28_15h04.22.855,t1_Paradigm,2021.1.4,60.107172331818326,
Z,right,Target,0,42,42,42,2394.3895813590607,2396.3899448283737,None,0,4,,J17T08,2022-11-28_15h04.22.855,t1_Paradigm,2021.1.4,60.107172331818326,
P,right,Target,0,43,43,43,2397.888701076806,2399.888779352633,left,0,4,0.9229284655175434,J17T08,2022-11-28_15h04.22.855,t1_Paradigm,2021.1.4,60.107172331818326,
X,left,Pretarget,0,44,44,44,2401.3883979183765,2403.388462720495,left,1,4,0.6375344782563843,J17T08,2022-11-28_15h04.22.855,t1_Paradigm,2021.1.4,60.107172331818326,
Z,left,Lure,0,45,45,45,2404.887216402507,2406.889392406347,left,1,4,1.0199558447343406,J17T08,2022-11-28_15h04.22.855,t1_Paradigm,2021.1.4,60.107172331818326,
R,left,Pretarget,0,46,46,46,2408.3869911991023,2410.388415241715,left,1,4,0.6783283747950009,J17T08,2022-11-28_15h04.22.855,t1_Paradigm,2021.1.4,60.107172331818326,
K,left,Distractor,0,47,47,47,2411.886509674443,2413.885859407632,left,1,4,0.7702822613500757,J17T08,2022-11-28_15h04.22.855,t1_Paradigm,2021.1.4,60.107172331818326,
X,right,Target,0,48,48,48,2415.386029112192,2417.387242708318,left,0,4,0.7525867915314848,J17T08,2022-11-28_15h04.22.855,t1_Paradigm,2021.1.4,60.107172331818326,
B,left,Distractor,0,49,49,49,2418.8855094120263,2420.8880042936216,left,1,4,0.4902777572820014,J17T08,2022-11-28_15h04.22.855,t1_Paradigm,2021.1.4,60.107172331818326,
R,right,Target,0,50,50,50,2422.3849499323424,2424.3858109664434,right,1,4,1.2266508660709405,J17T08,2022-11-28_15h04.22.855,t1_Paradigm,2021.1.4,60.107172331818326,
Y,left,Pretarget,0,51,51,51,2425.8844539715683,2427.8857182545007,left,1,4,0.6638723693386055,J17T08,2022-11-28_15h04.22.855,t1_Paradigm,2021.1.4,60.107172331818326,
W,left,Pretarget,0,52,52,52,2429.3837536595556,2431.3839435746777,left,1,4,0.7062782987968603,J17T08,2022-11-28_15h04.22.855,t1_Paradigm,2021.1.4,60.107172331818326,
Z,left,Distractor,0,53,53,53,2432.8827745701083,2434.8851648700656,left,1,4,0.6807667951375151,J17T08,2022-11-28_15h04.22.855,t1_Paradigm,2021.1.4,60.107172331818326,
Q,left,Distractor,0,54,54,54,2436.3826375874105,2438.384353881166,left,1,4,0.5668453109251459,J17T08,2022-11-28_15h04.22.855,t1_Paradigm,2021.1.4,60.107172331818326,
Y,right,Target,0,55,55,55,2439.8819626188015,2441.883021588088,right,1,4,1.0655736495332349,J17T08,2022-11-28_15h04.22.855,t1_Paradigm,2021.1.4,60.107172331818326,
W,right,Target,0,56,56,56,2443.3814098759713,2445.3807483810697,right,1,4,1.11276755736435,J17T08,2022-11-28_15h04.22.855,t1_Paradigm,2021.1.4,60.107172331818326,
H,left,Pretarget,0,57,57,57,2446.880886646978,2448.8822227896862,left,1,4,0.44981717461496373,J17T08,2022-11-28_15h04.22.855,t1_Paradigm,2021.1.4,60.107172331818326,
M,left,Distractor,0,58,58,58,2450.3968308555613,2452.3973348364007,left,1,4,0.8753088526750616,J17T08,2022-11-28_15h04.22.855,t1_Paradigm,2021.1.4,60.107172331818326,
R,left,Pretarget,0,59,59,59,2453.8960147338203,2455.8979469277056,left,1,4,0.63051210997628,J17T08,2022-11-28_15h04.22.855,t1_Paradigm,2021.1.4,60.107172331818326,
J,left,Distractor,0,60,60,60,2457.396118353051,2459.3972450116808,left,1,4,0.7287748998933239,J17T08,2022-11-28_15h04.22.855,t1_Paradigm,2021.1.4,60.107172331818326,
H,right,Target,0,61,61,61,2460.894811082574,2462.8964070753646,right,1,4,0.43576505959572387,J17T08,2022-11-28_15h04.22.855,t1_Paradigm,2021.1.4,60.107172331818326,
Z,left,Distractor,0,62,62,62,2464.3945775383017,2466.39623929562,left,1,4,0.5218193868690832,J17T08,2022-11-28_15h04.22.855,t1_Paradigm,2021.1.4,60.107172331818326,
R,right,Target,0,63,63,63,2467.8940122841723,2469.8963907144334,left,0,4,1.0888398559982306,J17T08,2022-11-28_15h04.22.855,t1_Paradigm,2021.1.4,60.107172331818326,
J,left,Pretarget,0,0,0,0,2519.1431969644373,2521.13749630275,None,0,4,,J17T08,2022-11-28_15h04.22.855,t1_Paradigm,2021.1.4,60.107172331818326,
G,left,Pretarget,0,1,1,1,2522.634989230658,2524.6363821554214,None,0,4,,J17T08,2022-11-28_15h04.22.855,t1_Paradigm,2021.1.4,60.107172331818326,
Z,left,Distractor,0,2,2,2,2526.1343999163346,2528.1351602184277,None,0,4,,J17T08,2022-11-28_15h04.22.855,t1_Paradigm,2021.1.4,60.107172331818326,
F,left,Distractor,0,3,3,3,2529.633663353631,2531.6345991347316,None,0,4,,J17T08,2022-11-28_15h04.22.855,t1_Paradigm,2021.1.4,60.107172331818326,
J,right,Target,0,4,4,4,2533.1331475030975,2535.134763064845,None,0,4,,J17T08,2022-11-28_15h04.22.855,t1_Paradigm,2021.1.4,60.107172331818326,
G,right,Target,0,5,5,5,2536.632486970603,2538.6331747713157,right,1,4,1.1692021832536739,J17T08,2022-11-28_15h04.22.855,t1_Paradigm,2021.1.4,60.107172331818326,
H,left,Distractor,0,6,6,6,2540.132138899814,2542.132541827843,left,1,4,0.9169140589160634,J17T08,2022-11-28_15h04.22.855,t1_Paradigm,2021.1.4,60.107172331818326,
P,left,Distractor,0,7,7,7,2543.631375710497,2545.633009237189,left,1,4,0.5329088901448813,J17T08,2022-11-28_15h04.22.855,t1_Paradigm,2021.1.4,60.107172331818326,
G,left,Lure,0,8,8,8,2547.131052341506,2549.1305615135725,None,0,4,,J17T08,2022-11-28_15h04.22.855,t1_Paradigm,2021.1.4,60.107172331818326,
S,left,Distractor,0,9,9,9,2550.6300726104537,2552.6293456718277,left,1,4,0.48774341697071577,J17T08,2022-11-28_15h04.22.855,t1_Paradigm,2021.1.4,60.107172331818326,
R,left,Pretarget,0,10,10,10,2554.1295849905455,2556.131346838266,left,1,4,0.9381662668397439,J17T08,2022-11-28_15h04.22.855,t1_Paradigm,2021.1.4,60.107172331818326,
T,left,Pretarget,0,11,11,11,2557.628450953457,2559.6303732024626,left,1,4,0.4860085166665158,J17T08,2022-11-28_15h04.22.855,t1_Paradigm,2021.1.4,60.107172331818326,
X,left,Distractor,0,12,12,12,2561.1284150235697,2563.130127146891,left,1,4,0.531424857451384,J17T08,2022-11-28_15h04.22.855,t1_Paradigm,2021.1.4,60.107172331818326,
F,left,Pretarget,0,13,13,13,2564.6280916545775,2566.630013903583,left,1,4,0.7228884935175302,J17T08,2022-11-28_15h04.22.855,t1_Paradigm,2021.1.4,60.107172331818326,
R,right,Target,0,14,14,14,2568.1274429917794,2570.1288218012296,left,0,4,0.9608470086122907,J17T08,2022-11-28_15h04.22.855,t1_Paradigm,2021.1.4,60.107172331818326,
T,right,Target,0,15,15,15,2571.6261799920567,2573.6282860609354,right,1,4,0.48030143892810884,J17T08,2022-11-28_15h04.22.855,t1_Paradigm,2021.1.4,60.107172331818326,
C,left,Distractor,0,16,16,16,2575.1262403029405,2577.1263044634543,left,1,4,0.5267805986304666,J17T08,2022-11-28_15h04.22.855,t1_Paradigm,2021.1.4,60.107172331818326,
F,right,Target,0,17,17,17,2578.625704241844,2580.6272254876358,left,0,4,0.49343285056784225,J17T08,2022-11-28_15h04.22.855,t1_Paradigm,2021.1.4,60.107172331818326,
M,left,Distractor,0,18,18,18,2582.12516721834,2584.1265543686577,left,1,4,0.6043076727632979,J17T08,2022-11-28_15h04.22.855,t1_Paradigm,2021.1.4,60.107172331818326,
N,left,Distractor,0,19,19,19,2585.6246128714974,2587.62589961061,left,1,4,0.49064603863371303,J17T08,2022-11-28_15h04.22.855,t1_Paradigm,2021.1.4,60.107172331818326,
R,left,Lure,0,20,20,20,2589.1237572910404,2591.1259111595027,left,1,4,0.7275641909905062,J17T08,2022-11-28_15h04.22.855,t1_Paradigm,2021.1.4,60.107172331818326,
F,right,Target,0,21,21,21,2592.6232093602493,2594.625038576509,right,1,4,0.47547496424658675,J17T08,2022-11-28_15h04.22.855,t1_Paradigm,2021.1.4,60.107172331818326,
P,left,Distractor,0,22,22,22,2596.1229042770037,2598.1239651711066,left,1,4,0.5378280767695287,J17T08,2022-11-28_15h04.22.855,t1_Paradigm,2021.1.4,60.107172331818326,
L,left,Pretarget,0,23,23,23,2599.6222662006903,2601.6238169603184,left,1,4,0.6483333344026505,J17T08,2022-11-28_15h04.22.855,t1_Paradigm,2021.1.4,60.107172331818326,
T,left,Distractor,0,24,24,24,2603.1216842648264,2605.1226941513196,right,0,4,1.269365086799553,J17T08,2022-11-28_15h04.22.855,t1_Paradigm,2021.1.4,60.107172331818326,
F,left,Distractor,0,25,25,25,2606.6209813863934,2608.622450341366,left,1,4,1.1314183772392425,J17T08,2022-11-28_15h04.22.855,t1_Paradigm,2021.1.4,60.107172331818326,
V,left,Distractor,0,26,26,26,2610.120428643563,2612.122376877577,left,1,4,1.0290512392284654,J17T08,2022-11-28_15h04.22.855,t1_Paradigm,2021.1.4,60.107172331818326,
L,right,Target,0,27,27,27,2613.6364774337844,2615.638075030589,left,0,4,0.4914948822365659,J17T08,2022-11-28_15h04.22.855,t1_Paradigm,2021.1.4,60.107172331818326,
S,left,Pretarget,0,28,28,28,2617.1360000795594,2619.1374292550126,left,1,4,0.48393998168830876,J17T08,2022-11-28_15h04.22.855,t1_Paradigm,2021.1.4,60.107172331818326,
W,left,Distractor,0,29,29,29,2620.6349901930653,2622.6360247813573,left,1,4,0.5958128206825677,J17T08,2022-11-28_15h04.22.855,t1_Paradigm,2021.1.4,60.107172331818326,
Q,left,Distractor,0,30,30,30,2624.134910313225,2626.134902293161,left,1,4,0.5272730305769073,J17T08,2022-11-28_15h04.22.855,t1_Paradigm,2021.1.4,60.107172331818326,
L,right,Target,0,31,31,31,2627.634214171646,2629.633343834271,right,1,4,0.4147986867628788,J17T08,2022-11-28_15h04.22.855,t1_Paradigm,2021.1.4,60.107172331818326,
S,right,Target,0,32,32,32,2631.133612987628,2633.1340024419487,None,0,4,,J17T08,2022-11-28_15h04.22.855,t1_Paradigm,2021.1.4,60.107172331818326,
Z,left,Pretarget,0,33,33,33,2634.6334853082044,2636.6332334781864,left,1,4,0.5087668926616971,J17T08,2022-11-28_15h04.22.855,t1_Paradigm,2021.1.4,60.107172331818326,
F,left,Distractor,0,34,34,34,2638.1324731760933,2640.1338798953666,left,1,4,1.0587376675471205,J17T08,2022-11-28_15h04.22.855,t1_Paradigm,2021.1.4,60.107172331818326,
V,left,Distractor,0,35,35,35,2641.631849215092,2643.6332771073357,left,1,4,0.5534710517385975,J17T08,2022-11-28_15h04.22.855,t1_Paradigm,2021.1.4,60.107172331818326,
M,left,Distractor,0,36,36,36,2645.1313952794544,2647.1330025003354,left,1,4,0.614881325504939,J17T08,2022-11-28_15h04.22.855,t1_Paradigm,2021.1.4,60.107172331818326,
Z,right,Target,0,37,37,37,2648.6307591279556,2650.6323538375364,right,1,4,0.440306661593695,J17T08,2022-11-28_15h04.22.855,t1_Paradigm,2021.1.4,60.107172331818326,
H,left,Pretarget,0,38,38,38,2652.12987371286,2654.1294200980246,left,1,4,0.6184695022616324,J17T08,2022-11-28_15h04.22.855,t1_Paradigm,2021.1.4,60.107172331818326,
L,left,Distractor,0,39,39,39,2655.6288564479073,2657.631023790077,left,1,4,0.4822862444348175,J17T08,2022-11-28_15h04.22.855,t1_Paradigm,2021.1.4,60.107172331818326,
G,left,Distractor,0,40,40,40,2659.128933761327,2661.130729934922,left,1,4,0.6988998396627721,J17T08,2022-11-28_15h04.22.855,t1_Paradigm,2021.1.4,60.107172331818326,
K,left,Distractor,0,41,41,41,2662.6284666727834,2664.6303792977114,left,1,4,0.6991038700980425,J17T08,2022-11-28_15h04.22.855,t1_Paradigm,2021.1.4,60.107172331818326,
H,right,Target,0,42,42,42,2666.1278901905634,2668.129728710098,left,0,4,0.6760461853045854,J17T08,2022-11-28_15h04.22.855,t1_Paradigm,2021.1.4,60.107172331818326,
B,left,Distractor,0,43,43,43,2669.627303763463,2671.6282251084476,left,1,4,0.5958558082270429,J17T08,2022-11-28_15h04.22.855,t1_Paradigm,2021.1.4,60.107172331818326,
Z,left,Distractor,0,44,44,44,2673.1266294364586,2675.126737546925,left,1,4,0.5564384755202809,J17T08,2022-11-28_15h04.22.855,t1_Paradigm,2021.1.4,60.107172331818326,
T,left,Pretarget,0,45,45,45,2676.6261293052503,2678.627069898389,left,1,4,0.40913972940961685,J17T08,2022-11-28_15h04.22.855,t1_Paradigm,2021.1.4,60.107172331818326,
H,right,Target,0,46,46,46,2680.1256179459524,2682.126752303843,right,1,4,0.8421503781300999,J17T08,2022-11-28_15h04.22.855,t1_Paradigm,2021.1.4,60.107172331818326,
F,left,Distractor,0,47,47,47,2683.624963508708,2685.6267734768135,left,1,4,0.6415778738619338,J17T08,2022-11-28_15h04.22.855,t1_Paradigm,2021.1.4,60.107172331818326,
R,left,Distractor,0,48,48,48,2687.1243151667113,2689.125885174494,left,1,4,0.9199398687660505,J17T08,2022-11-28_15h04.22.855,t1_Paradigm,2021.1.4,60.107172331818326,
T,right,Target,0,49,49,49,2690.623479476014,2692.625003929831,left,0,4,0.8433328564069598,J17T08,2022-11-28_15h04.22.855,t1_Paradigm,2021.1.4,60.107172331818326,
H,right,Target,0,50,50,50,2694.1231403876964,2696.1246872976935,right,1,4,1.1862339125532344,J17T08,2022-11-28_15h04.22.855,t1_Paradigm,2021.1.4,60.107172331818326,
Y,left,Pretarget,0,51,51,51,2697.6225908528922,2699.6242093018627,left,1,4,0.575066839216106,J17T08,2022-11-28_15h04.22.855,t1_Paradigm,2021.1.4,60.107172331818326,
H,left,Distractor,0,52,52,52,2701.1220631326623,2703.122462852666,left,1,4,0.8462053226280659,J17T08,2022-11-28_15h04.22.855,t1_Paradigm,2021.1.4,60.107172331818326,
S,left,Distractor,0,53,53,53,2704.6211186898936,2706.6229860816593,left,1,4,0.544059987514629,J17T08,2022-11-28_15h04.22.855,t1_Paradigm,2021.1.4,60.107172331818326,
Q,left,Distractor,0,54,54,54,2708.1208992609354,2710.122676827981,left,1,4,0.5772858305995214,J17T08,2022-11-28_15h04.22.855,t1_Paradigm,2021.1.4,60.107172331818326,
Y,right,Target,0,55,55,55,2711.6369936051215,2713.637942539127,right,1,4,0.4274383080619373,J17T08,2022-11-28_15h04.22.855,t1_Paradigm,2021.1.4,60.107172331818326,
R,left,Distractor,0,56,56,56,2715.1361932027066,2717.1379746193834,left,1,4,1.3616641569210515,J17T08,2022-11-28_15h04.22.855,t1_Paradigm,2021.1.4,60.107172331818326,
H,left,Pretarget,0,57,57,57,2718.6357806506003,2720.6369663369032,left,1,4,1.1705575741166285,J17T08,2022-11-28_15h04.22.855,t1_Paradigm,2021.1.4,60.107172331818326,
J,left,Distractor,0,58,58,58,2722.1352818026025,2724.136608962839,left,1,4,0.7634013670040076,J17T08,2022-11-28_15h04.22.855,t1_Paradigm,2021.1.4,60.107172331818326,
V,left,Distractor,0,59,59,59,2725.6347810297893,2727.6360340846313,left,1,4,0.5435508738341923,J17T08,2022-11-28_15h04.22.855,t1_Paradigm,2021.1.4,60.107172331818326,
Y,left,Lure,0,60,60,60,2729.1340271437475,2731.13547364254,left,1,4,0.9812580721945778,J17T08,2022-11-28_15h04.22.855,t1_Paradigm,2021.1.4,60.107172331818326,
H,right,Target,0,61,61,61,2732.6335427318645,2734.6348307541875,right,1,4,0.6632368594455329,J17T08,2022-11-28_15h04.22.855,t1_Paradigm,2021.1.4,60.107172331818326,
L,left,Distractor,0,62,62,62,2736.1329656080397,2738.13219086983,left,1,4,0.5599400355831676,J17T08,2022-11-28_15h04.22.855,t1_Paradigm,2021.1.4,60.107172331818326,
P,left,Distractor,0,63,63,63,2739.632418639656,2741.634358532803,left,1,4,0.8064970219897987,J17T08,2022-11-28_15h04.22.855,t1_Paradigm,2021.1.4,60.107172331818326,
