Letter,CorrAnswer,Stimulus,finaln_nback_run.thisRepN,finaln_nback_run.thisTrialN,finaln_nback_run.thisN,finaln_nback_run.thisIndex,finaln_fixcross.started,finaln_nback_trial.started,finaln_trial_resp.keys,finaln_trial_resp.corr,finaln_level,finaln_money,finaln_trial_resp.rt,Participant,date,expName,psychopyVersion,frameRate,
F,left,Distractor,0,0,0,0,2691.631418006029,2693.6195114377188,None,0,3,3.0,,K10M08,2022-11-28_12h07.35.988,t1_Paradigm,2021.1.4,59.956165570491834,
P,left,Pretarget,0,1,1,1,2695.119463156996,2697.1197079289705,left,1,3,3.0,0.6724213208945002,K10M08,2022-11-28_12h07.35.988,t1_Paradigm,2021.1.4,59.956165570491834,
B,left,Distractor,0,2,2,2,2698.619426425168,2700.6213127412484,left,1,3,3.0,0.5468988546344917,K10M08,2022-11-28_12h07.35.988,t1_Paradigm,2021.1.4,59.956165570491834,
K,left,Pretarget,0,3,3,3,2702.1192504652427,2704.1214248615725,left,1,3,3.0,0.470723764738068,K10M08,2022-11-28_12h07.35.988,t1_Paradigm,2021.1.4,59.956165570491834,
H,left,Distractor,0,4,4,4,2705.6191813324112,2707.6210249818105,left,1,3,3.0,0.5072008833813015,K10M08,2022-11-28_12h07.35.988,t1_Paradigm,2021.1.4,59.956165570491834,
P,right,Target,0,5,5,5,2709.119601422688,2711.1193970717723,left,0,3,3.0,0.4331286509113852,K10M08,2022-11-28_12h07.35.988,t1_Paradigm,2021.1.4,59.956165570491834,
L,left,Distractor,0,6,6,6,2712.6192137334147,2714.619736319961,left,1,3,3.0,0.5002779749920592,K10M08,2022-11-28_12h07.35.988,t1_Paradigm,2021.1.4,59.956165570491834,
K,right,Target,0,7,7,7,2716.1191587158537,2718.1193823148787,left,0,3,3.0,0.5367182013869751,K10M08,2022-11-28_12h07.35.988,t1_Paradigm,2021.1.4,59.956165570491834,
Z,left,Pretarget,0,8,8,8,2719.6195688612934,2721.6195021344465,left,1,3,3.0,0.6366528540092986,K10M08,2022-11-28_12h07.35.988,t1_Paradigm,2021.1.4,59.956165570491834,
S,left,Pretarget,0,9,9,9,2723.119642164558,2725.119422415155,left,1,3,3.0,0.43303818473941647,K10M08,2022-11-28_12h07.35.988,t1_Paradigm,2021.1.4,59.956165570491834,
N,left,Distractor,0,10,10,10,2726.6193783048657,2728.6217551273003,left,1,3,3.0,0.4503072802326642,K10M08,2022-11-28_12h07.35.988,t1_Paradigm,2021.1.4,59.956165570491834,
M,left,Distractor,0,11,11,11,2730.119486575568,2732.119436851237,left,1,3,3.0,0.5206659080577083,K10M08,2022-11-28_12h07.35.988,t1_Paradigm,2021.1.4,59.956165570491834,
Z,right,Target,0,12,12,12,2733.6190122697153,2735.620167157118,left,0,3,3.0,0.4920378533715848,K10M08,2022-11-28_12h07.35.988,t1_Paradigm,2021.1.4,59.956165570491834,
S,right,Target,0,13,13,13,2737.1192347459437,2739.120120480424,left,0,3,3.0,0.41607545522856526,K10M08,2022-11-28_12h07.35.988,t1_Paradigm,2021.1.4,59.956165570491834,
Q,left,Distractor,0,14,14,14,2740.619317673263,2742.6198011219676,left,1,3,3.0,0.37244412989821285,K10M08,2022-11-28_12h07.35.988,t1_Paradigm,2021.1.4,59.956165570491834,
V,left,Lure,0,15,15,15,2744.1192511068366,2746.121543237532,left,1,3,3.0,0.4226878272020258,K10M08,2022-11-28_12h07.35.988,t1_Paradigm,2021.1.4,59.956165570491834,
Z,right,Target,0,16,16,16,2747.6195467259386,2749.61883101656,left,0,3,3.0,0.46159919182537124,K10M08,2022-11-28_12h07.35.988,t1_Paradigm,2021.1.4,59.956165570491834,
X,left,Distractor,0,17,17,17,2751.119105141901,2753.119984139543,left,1,3,3.0,0.5440963278815616,K10M08,2022-11-28_12h07.35.988,t1_Paradigm,2021.1.4,59.956165570491834,
V,left,Pretarget,0,18,18,18,2754.619431558007,2756.619732470339,left,1,3,3.0,0.8363428308803122,K10M08,2022-11-28_12h07.35.988,t1_Paradigm,2021.1.4,59.956165570491834,
E,left,Distractor,0,19,19,19,2758.1193585755245,2760.120837152208,left,1,3,3.0,0.45531339634908363,K10M08,2022-11-28_12h07.35.988,t1_Paradigm,2021.1.4,59.956165570491834,
R,left,Distractor,0,20,20,20,2761.6193003499648,2763.621275207406,left,1,3,3.0,0.5229131264786702,K10M08,2022-11-28_12h07.35.988,t1_Paradigm,2021.1.4,59.956165570491834,
G,left,Distractor,0,21,21,21,2765.119170585531,2767.121676370385,left,1,3,3.0,0.49458534247241914,K10M08,2022-11-28_12h07.35.988,t1_Paradigm,2021.1.4,59.956165570491834,
V,right,Target,0,22,22,22,2768.6190190065536,2770.621757052111,left,0,3,3.0,0.38641570109757595,K10M08,2022-11-28_12h07.35.988,t1_Paradigm,2021.1.4,59.956165570491834,
T,left,Pretarget,0,23,23,23,2772.119136580499,2774.1194961996225,left,1,3,3.0,0.47273743923869915,K10M08,2022-11-28_12h07.35.988,t1_Paradigm,2021.1.4,59.956165570491834,
B,left,Distractor,0,24,24,24,2775.619483527931,2777.621050325164,left,1,3,3.0,0.4911851614888292,K10M08,2022-11-28_12h07.35.988,t1_Paradigm,2021.1.4,59.956165570491834,
S,left,Pretarget,0,25,25,25,2779.119122786011,2781.121434485627,left,1,3,3.0,0.3826796403445769,K10M08,2022-11-28_12h07.35.988,t1_Paradigm,2021.1.4,59.956165570491834,
G,left,Lure,0,26,26,26,2782.619548329938,2784.6218096636585,left,1,3,3.0,0.41831240797182545,K10M08,2022-11-28_12h07.35.988,t1_Paradigm,2021.1.4,59.956165570491834,
T,right,Target,0,27,27,27,2786.1195382246806,2788.121620550839,left,0,3,3.0,0.35853864398086444,K10M08,2022-11-28_12h07.35.988,t1_Paradigm,2021.1.4,59.956165570491834,
H,left,Distractor,0,28,28,28,2789.6194771119044,2791.620459407801,left,1,3,3.0,0.5717263674014248,K10M08,2022-11-28_12h07.35.988,t1_Paradigm,2021.1.4,59.956165570491834,
S,right,Target,0,29,29,29,2793.1192806206236,2795.121983698773,left,0,3,3.0,0.4141920263355132,K10M08,2022-11-28_12h07.35.988,t1_Paradigm,2021.1.4,59.956165570491834,
D,left,Distractor,0,30,30,30,2796.619263136934,2798.632048061292,left,1,3,3.0,0.47202493785880506,K10M08,2022-11-28_12h07.35.988,t1_Paradigm,2021.1.4,59.956165570491834,
Z,left,Distractor,0,31,31,31,2800.119236349943,2802.1214563001704,left,1,3,3.0,0.6788088106259238,K10M08,2022-11-28_12h07.35.988,t1_Paradigm,2021.1.4,59.956165570491834,
J,left,Pretarget,0,32,32,32,2803.6191973724926,2805.6207612825383,left,1,3,3.0,0.33172215847298503,K10M08,2022-11-28_12h07.35.988,t1_Paradigm,2021.1.4,59.956165570491834,
C,left,Pretarget,0,33,33,33,2807.119363387552,2809.121416841517,left,1,3,3.0,0.31883233186090365,K10M08,2022-11-28_12h07.35.988,t1_Paradigm,2021.1.4,59.956165570491834,
H,left,Distractor,0,34,34,34,2810.6192092421697,2812.621490144811,left,1,3,3.0,0.37074644543463364,K10M08,2022-11-28_12h07.35.988,t1_Paradigm,2021.1.4,59.956165570491834,
B,left,Pretarget,0,35,35,35,2814.1200604904443,2816.1213815532974,left,1,3,3.0,0.2949357866309583,K10M08,2022-11-28_12h07.35.988,t1_Paradigm,2021.1.4,59.956165570491834,
J,right,Target,0,36,36,36,2817.61937734246,2819.621131488093,left,0,3,3.0,0.3631707048625685,K10M08,2022-11-28_12h07.35.988,t1_Paradigm,2021.1.4,59.956165570491834,
C,right,Target,0,37,37,37,2821.1193505554693,2823.119353442715,left,0,3,3.0,0.35275618691230193,K10M08,2022-11-28_12h07.35.988,t1_Paradigm,2021.1.4,59.956165570491834,
H,left,Distractor,0,38,38,38,2824.619581051753,2826.6201536834415,left,1,3,3.0,0.3560691097518429,K10M08,2022-11-28_12h07.35.988,t1_Paradigm,2021.1.4,59.956165570491834,
B,right,Target,0,39,39,39,2828.119451928942,2830.121570826508,left,0,3,3.0,0.3267314408731181,K10M08,2022-11-28_12h07.35.988,t1_Paradigm,2021.1.4,59.956165570491834,
F,left,Pretarget,0,40,40,40,2831.6194463149004,2833.620540249918,left,1,3,3.0,0.36375135657726787,K10M08,2022-11-28_12h07.35.988,t1_Paradigm,2021.1.4,59.956165570491834,
M,left,Distractor,0,41,41,41,2835.1192963399226,2837.12087115724,left,1,3,3.0,0.3672176228137687,K10M08,2022-11-28_12h07.35.988,t1_Paradigm,2021.1.4,59.956165570491834,
W,left,Pretarget,0,42,42,42,2838.6193741344323,2840.6202043701487,left,1,3,3.0,0.32401520988787524,K10M08,2022-11-28_12h07.35.988,t1_Paradigm,2021.1.4,59.956165570491834,
Z,left,Distractor,0,43,43,43,2842.119295377517,2844.121891949384,left,1,3,3.0,0.11829768313327804,K10M08,2022-11-28_12h07.35.988,t1_Paradigm,2021.1.4,59.956165570491834,
F,right,Target,0,44,44,44,2845.6193420542404,2847.620461653394,left,0,3,3.0,0.1876717694394756,K10M08,2022-11-28_12h07.35.988,t1_Paradigm,2021.1.4,59.956165570491834,
B,left,Lure,0,45,45,45,2849.1194390968594,2851.1214046510577,left,1,3,3.0,0.3826603922061622,K10M08,2022-11-28_12h07.35.988,t1_Paradigm,2021.1.4,59.956165570491834,
W,right,Target,0,46,46,46,2852.619388249732,2854.6208835081197,left,0,3,3.0,0.29131200662232004,K10M08,2022-11-28_12h07.35.988,t1_Paradigm,2021.1.4,59.956165570491834,
X,left,Distractor,0,47,47,47,2856.119484650728,2858.120267407765,left,1,3,3.0,0.3282417769660242,K10M08,2022-11-28_12h07.35.988,t1_Paradigm,2021.1.4,59.956165570491834,
T,left,Distractor,0,48,48,48,2859.619482886337,2861.6216694731556,left,1,3,3.0,0.3946510106616188,K10M08,2022-11-28_12h07.35.988,t1_Paradigm,2021.1.4,59.956165570491834,
L,left,Pretarget,0,49,49,49,2863.1191696231253,2865.1202218538674,left,1,3,3.0,0.4640975982474629,K10M08,2022-11-28_12h07.35.988,t1_Paradigm,2021.1.4,59.956165570491834,
J,left,Distractor,0,50,50,50,2866.6194844903366,2868.6207449216163,left,1,3,3.0,0.33954780382919125,K10M08,2022-11-28_12h07.35.988,t1_Paradigm,2021.1.4,59.956165570491834,
Z,left,Distractor,0,51,51,51,2870.119294735923,2872.12095071614,left,1,3,3.0,0.37515554891433567,K10M08,2022-11-28_12h07.35.988,t1_Paradigm,2021.1.4,59.956165570491834,
P,left,Pretarget,0,52,52,52,2873.6190773925337,2875.6215068265155,left,1,3,3.0,0.41080243181204423,K10M08,2022-11-28_12h07.35.988,t1_Paradigm,2021.1.4,59.956165570491834,
L,right,Target,0,53,53,53,2877.119434926426,2879.1214014430298,left,0,3,3.0,0.3666937530506402,K10M08,2022-11-28_12h07.35.988,t1_Paradigm,2021.1.4,59.956165570491834,
V,left,Distractor,0,54,54,54,2880.61927821461,2882.619508229691,left,1,3,3.0,0.10054642215254717,K10M08,2022-11-28_12h07.35.988,t1_Paradigm,2021.1.4,59.956165570491834,
F,left,Distractor,0,55,55,55,2884.1191632070695,2886.1203630067757,left,1,3,3.0,0.5677076800202485,K10M08,2022-11-28_12h07.35.988,t1_Paradigm,2021.1.4,59.956165570491834,
P,right,Target,0,56,56,56,2887.6191585554625,2889.620899548201,left,0,3,3.0,0.4114010484481696,K10M08,2022-11-28_12h07.35.988,t1_Paradigm,2021.1.4,59.956165570491834,
T,left,Pretarget,0,57,57,57,2891.119200099318,2893.1202417435998,None,0,3,3.0,,K10M08,2022-11-28_12h07.35.988,t1_Paradigm,2021.1.4,59.956165570491834,
D,left,Distractor,0,58,58,58,2894.6192069965764,2896.6208912073635,left,1,3,3.0,0.6273588976182509,K10M08,2022-11-28_12h07.35.988,t1_Paradigm,2021.1.4,59.956165570491834,
V,left,Distractor,0,59,59,59,2898.11916160307,2900.1205384854984,left,1,3,3.0,0.39157034852541983,K10M08,2022-11-28_12h07.35.988,t1_Paradigm,2021.1.4,59.956165570491834,
Z,left,Distractor,0,60,60,60,2901.619159517868,2903.619511758501,left,1,3,3.0,0.26853666463284753,K10M08,2022-11-28_12h07.35.988,t1_Paradigm,2021.1.4,59.956165570491834,
T,right,Target,0,61,61,61,2905.119270996569,2907.1210950770765,left,0,3,3.0,0.2708557427104097,K10M08,2022-11-28_12h07.35.988,t1_Paradigm,2021.1.4,59.956165570491834,
B,left,Distractor,0,62,62,62,2908.6194386156567,2910.6212694329733,left,1,3,3.0,0.30697484622942284,K10M08,2022-11-28_12h07.35.988,t1_Paradigm,2021.1.4,59.956165570491834,
J,left,Distractor,0,63,63,63,2912.1192931319238,2914.1208368313964,left,1,3,3.0,0.3275693758332636,K10M08,2022-11-28_12h07.35.988,t1_Paradigm,2021.1.4,59.956165570491834,
