Letter,CorrAnswer,Stimulus,nback_run.thisRepN,nback_run.thisTrialN,nback_run.thisN,nback_run.thisIndex,fixcross.started,nback_trial.started,trial_resp.keys,trial_resp.corr,currentlevel,trial_resp.rt,Participant,date,expName,psychopyVersion,frameRate,
H,left,Distractor,0,0,0,0,271.70476811303524,273.638136884314,None,0,1,,K10M08,2022-11-28_12h07.35.988,t1_Paradigm,2021.1.4,59.956165570491834,
Q,left,Pretarget,0,1,1,1,275.14055557141546,277.13919055866427,left,1,1,0.7969008596555796,K10M08,2022-11-28_12h07.35.988,t1_Paradigm,2021.1.4,59.956165570491834,
Q,right,Target,0,2,2,2,278.63609465843183,280.63608471356565,right,1,1,0.5318635038565844,K10M08,2022-11-28_12h07.35.988,t1_Paradigm,2021.1.4,59.956165570491834,
T,left,Distractor,0,3,3,3,282.1362555406522,284.138281726453,left,1,1,0.45353358655120246,K10M08,2022-11-28_12h07.35.988,t1_Paradigm,2021.1.4,59.956165570491834,
Q,left,Lure,0,4,4,4,285.6365675206471,287.6382802828157,right,0,1,0.6976331545156427,K10M08,2022-11-28_12h07.35.988,t1_Paradigm,2021.1.4,59.956165570491834,
L,left,Distractor,0,5,5,5,289.13623115970404,291.1385194407485,left,1,1,0.49329251021845266,K10M08,2022-11-28_12h07.35.988,t1_Paradigm,2021.1.4,59.956165570491834,
V,left,Pretarget,0,6,6,6,292.6360593701829,294.6356484227581,left,1,1,0.6921798403491266,K10M08,2022-11-28_12h07.35.988,t1_Paradigm,2021.1.4,59.956165570491834,
V,right,Target,0,7,7,7,296.1360752499022,298.13607172106276,left,0,1,0.3917682833853178,K10M08,2022-11-28_12h07.35.988,t1_Paradigm,2021.1.4,59.956165570491834,
K,left,Distractor,0,8,8,8,299.6358534152678,301.637533776433,left,1,1,0.7784951624635141,K10M08,2022-11-28_12h07.35.988,t1_Paradigm,2021.1.4,59.956165570491834,
G,left,Pretarget,0,9,9,9,303.1362690143287,305.13791633289657,left,1,1,0.6059306034585461,K10M08,2022-11-28_12h07.35.988,t1_Paradigm,2021.1.4,59.956165570491834,
G,right,Target,0,10,10,10,306.6361017160525,308.63615336519433,right,1,1,0.38767998199909925,K10M08,2022-11-28_12h07.35.988,t1_Paradigm,2021.1.4,59.956165570491834,
G,right,Target,0,11,11,11,310.13611535014934,312.1361673200736,right,1,1,0.3916989901626948,K10M08,2022-11-28_12h07.35.988,t1_Paradigm,2021.1.4,59.956165570491834,
P,left,Pretarget,0,12,12,12,313.63615496919374,315.6388878819125,left,1,1,0.6488234424323309,K10M08,2022-11-28_12h07.35.988,t1_Paradigm,2021.1.4,59.956165570491834,
P,right,Target,0,13,13,13,317.13630334014306,319.1360983476334,left,0,1,0.4477934753522277,K10M08,2022-11-28_12h07.35.988,t1_Paradigm,2021.1.4,59.956165570491834,
G,left,Lure,0,14,14,14,320.6361559315992,322.63823152091936,left,1,1,0.44943309464724734,K10M08,2022-11-28_12h07.35.988,t1_Paradigm,2021.1.4,59.956165570491834,
Y,left,Distractor,0,15,15,15,324.13606594662997,326.13837187181343,left,1,1,0.5333314940507989,K10M08,2022-11-28_12h07.35.988,t1_Paradigm,2021.1.4,59.956165570491834,
B,left,Distractor,0,16,16,16,327.63614053311176,329.6380573254137,left,1,1,0.6337123823468573,K10M08,2022-11-28_12h07.35.988,t1_Paradigm,2021.1.4,59.956165570491834,
T,left,Pretarget,0,17,17,17,331.13596040275297,333.13790895443526,left,1,1,0.6378436712257098,K10M08,2022-11-28_12h07.35.988,t1_Paradigm,2021.1.4,59.956165570491834,
T,right,Target,0,18,18,18,334.63606386142783,336.6361540067883,right,1,1,0.5156828897306696,K10M08,2022-11-28_12h07.35.988,t1_Paradigm,2021.1.4,59.956165570491834,
S,left,Distractor,0,19,19,19,338.1359401922382,340.13890119519783,left,1,1,0.693012321688002,K10M08,2022-11-28_12h07.35.988,t1_Paradigm,2021.1.4,59.956165570491834,
T,left,Lure,0,20,20,20,341.636086959159,343.6377846436517,left,1,1,0.7301259115920402,K10M08,2022-11-28_12h07.35.988,t1_Paradigm,2021.1.4,59.956165570491834,
J,left,Distractor,0,21,21,21,345.13594692907645,347.13887360622175,left,1,1,0.6209900144021958,K10M08,2022-11-28_12h07.35.988,t1_Paradigm,2021.1.4,59.956165570491834,
P,left,Distractor,0,22,22,22,348.63605552056106,350.63843202221324,left,1,1,0.49757650087121874,K10M08,2022-11-28_12h07.35.988,t1_Paradigm,2021.1.4,59.956165570491834,
F,left,Distractor,0,23,23,23,352.1360001822177,354.1382685735589,left,1,1,0.5977867224719375,K10M08,2022-11-28_12h07.35.988,t1_Paradigm,2021.1.4,59.956165570491834,
L,left,Distractor,0,24,24,24,355.6360542373732,357.6377060471568,left,1,1,0.4901884295104537,K10M08,2022-11-28_12h07.35.988,t1_Paradigm,2021.1.4,59.956165570491834,
W,left,Pretarget,0,25,25,25,359.13624623737996,361.13850564626046,left,1,1,0.5893595732341055,K10M08,2022-11-28_12h07.35.988,t1_Paradigm,2021.1.4,59.956165570491834,
W,right,Target,0,26,26,26,362.636102678458,364.6361174353515,right,1,1,0.563847789686406,K10M08,2022-11-28_12h07.35.988,t1_Paradigm,2021.1.4,59.956165570491834,
V,left,Distractor,0,27,27,27,366.13612850304344,368.13805363618303,left,1,1,0.4857151656469796,K10M08,2022-11-28_12h07.35.988,t1_Paradigm,2021.1.4,59.956165570491834,
W,left,Lure,0,28,28,28,369.63578380123363,371.63853339565685,left,1,1,0.809219658607617,K10M08,2022-11-28_12h07.35.988,t1_Paradigm,2021.1.4,59.956165570491834,
R,left,Pretarget,0,29,29,29,373.136111821339,375.1388245235139,left,1,1,0.6210169617843349,K10M08,2022-11-28_12h07.35.988,t1_Paradigm,2021.1.4,59.956165570491834,
R,right,Target,0,30,30,30,376.6360256859625,378.6361517611949,left,0,1,0.9317987660178915,K10M08,2022-11-28_12h07.35.988,t1_Paradigm,2021.1.4,59.956165570491834,
G,left,Distractor,0,31,31,31,380.1361554503965,382.1363014153321,left,1,1,0.5673291336279362,K10M08,2022-11-28_12h07.35.988,t1_Paradigm,2021.1.4,59.956165570491834,
R,left,Lure,0,32,32,32,383.6527600044501,385.637578367925,right,0,1,1.2102183795941528,K10M08,2022-11-28_12h07.35.988,t1_Paradigm,2021.1.4,59.956165570491834,
S,left,Distractor,0,33,33,33,387.1360752499022,389.13797022763174,left,1,1,0.47801655787043273,K10M08,2022-11-28_12h07.35.988,t1_Paradigm,2021.1.4,59.956165570491834,
R,left,Lure,0,34,34,34,390.63608182634925,392.6379476111033,left,1,1,0.8819573544897139,K10M08,2022-11-28_12h07.35.988,t1_Paradigm,2021.1.4,59.956165570491834,
P,left,Pretarget,0,35,35,35,394.1361586584244,396.13883126035216,left,1,1,0.6291063064127229,K10M08,2022-11-28_12h07.35.988,t1_Paradigm,2021.1.4,59.956165570491834,
P,right,Target,0,36,36,36,397.6360545581556,399.6360016258259,right,1,1,0.619890625734115,K10M08,2022-11-28_12h07.35.988,t1_Paradigm,2021.1.4,59.956165570491834,
Y,left,Pretarget,0,37,37,37,401.1360925732006,403.1378143178299,left,1,1,0.478202943893848,K10M08,2022-11-28_12h07.35.988,t1_Paradigm,2021.1.4,59.956165570491834,
Y,right,Target,0,38,38,38,404.6360763726989,406.63616363087203,right,1,1,0.5156777568918187,K10M08,2022-11-28_12h07.35.988,t1_Paradigm,2021.1.4,59.956165570491834,
J,left,Distractor,0,39,39,39,408.13605985138565,410.1361426183139,left,1,1,0.5355739004444331,K10M08,2022-11-28_12h07.35.988,t1_Paradigm,2021.1.4,59.956165570491834,
Y,left,Lure,0,40,40,40,411.6360118914745,413.6369839217223,left,1,1,0.49074726668186486,K10M08,2022-11-28_12h07.35.988,t1_Paradigm,2021.1.4,59.956165570491834,
T,left,Distractor,0,41,41,41,415.1360441320867,417.1381575760315,left,1,1,0.5418147836462595,K10M08,2022-11-28_12h07.35.988,t1_Paradigm,2021.1.4,59.956165570491834,
V,left,Distractor,0,42,42,42,418.63615079878946,420.63788409228437,left,1,1,0.5301237943058368,K10M08,2022-11-28_12h07.35.988,t1_Paradigm,2021.1.4,59.956165570491834,
N,left,Pretarget,0,43,43,43,422.1360851947684,424.13913730552304,left,1,1,0.4526363031764049,K10M08,2022-11-28_12h07.35.988,t1_Paradigm,2021.1.4,59.956165570491834,
N,right,Target,0,44,44,44,425.6361116609187,427.6361132649472,right,1,1,0.603609921381576,K10M08,2022-11-28_12h07.35.988,t1_Paradigm,2021.1.4,59.956165570491834,
N,right,Target,0,45,45,45,429.13612593660946,431.136126257421,right,1,1,0.5438162676873617,K10M08,2022-11-28_12h07.35.988,t1_Paradigm,2021.1.4,59.956165570491834,
X,left,Distractor,0,46,46,46,432.63606001180597,434.6381795509951,left,1,1,0.4495235608192161,K10M08,2022-11-28_12h07.35.988,t1_Paradigm,2021.1.4,59.956165570491834,
Z,left,Distractor,0,47,47,47,436.1360675506585,438.13800230785273,left,1,1,0.43779022560920566,K10M08,2022-11-28_12h07.35.988,t1_Paradigm,2021.1.4,59.956165570491834,
H,left,Pretarget,0,48,48,48,439.636328843917,441.63808491438976,left,1,1,0.5057511788618285,K10M08,2022-11-28_12h07.35.988,t1_Paradigm,2021.1.4,59.956165570491834,
H,right,Target,0,49,49,49,443.13601108948933,445.13616507448023,right,1,1,0.38352046252111904,K10M08,2022-11-28_12h07.35.988,t1_Paradigm,2021.1.4,59.956165570491834,
K,left,Distractor,0,50,50,50,446.6358418664022,448.63853756609024,left,1,1,0.6573744212219026,K10M08,2022-11-28_12h07.35.988,t1_Paradigm,2021.1.4,59.956165570491834,
V,left,Pretarget,0,51,51,51,450.13613171104225,452.1369260169449,left,1,1,0.454862348648021,K10M08,2022-11-28_12h07.35.988,t1_Paradigm,2021.1.4,59.956165570491834,
V,right,Target,0,52,52,52,453.636120322597,455.63617421733215,right,1,1,0.49170518163009547,K10M08,2022-11-28_12h07.35.988,t1_Paradigm,2021.1.4,59.956165570491834,
R,left,Distractor,0,53,53,53,457.13593088896596,459.1378771950549,left,1,1,0.4620418986596633,K10M08,2022-11-28_12h07.35.988,t1_Paradigm,2021.1.4,59.956165570491834,
V,left,Lure,0,54,54,54,460.63611679375754,462.63658773119096,left,1,1,0.4831657516770065,K10M08,2022-11-28_12h07.35.988,t1_Paradigm,2021.1.4,59.956165570491834,
Y,left,Distractor,0,55,55,55,464.1361057260947,466.1383789294632,left,1,1,0.46940879710018635,K10M08,2022-11-28_12h07.35.988,t1_Paradigm,2021.1.4,59.956165570491834,
Q,left,Distractor,0,56,56,56,467.6361601020326,469.63763771631056,left,1,1,0.49027889568242244,K10M08,2022-11-28_12h07.35.988,t1_Paradigm,2021.1.4,59.956165570491834,
Z,left,Pretarget,0,57,57,57,471.1360534353589,473.1378627589438,left,1,1,0.4620277833600994,K10M08,2022-11-28_12h07.35.988,t1_Paradigm,2021.1.4,59.956165570491834,
Z,right,Target,0,58,58,58,474.63589255310944,476.6361658764654,right,1,1,0.4036520747758914,K10M08,2022-11-28_12h07.35.988,t1_Paradigm,2021.1.4,59.956165570491834,
B,left,Distractor,0,59,59,59,478.13616539526265,480.1378858567041,left,1,1,0.6460096875671297,K10M08,2022-11-28_12h07.35.988,t1_Paradigm,2021.1.4,59.956165570491834,
S,left,Pretarget,0,60,60,60,481.6359140468703,483.65233269610326,left,1,1,0.5234799837053288,K10M08,2022-11-28_12h07.35.988,t1_Paradigm,2021.1.4,59.956165570491834,
S,right,Target,0,61,61,61,485.1359738764586,487.1361047636892,right,1,1,0.5917550021840725,K10M08,2022-11-28_12h07.35.988,t1_Paradigm,2021.1.4,59.956165570491834,
T,left,Distractor,0,62,62,62,488.63608054313227,490.6365344780497,left,1,1,0.6111981732246932,K10M08,2022-11-28_12h07.35.988,t1_Paradigm,2021.1.4,59.956165570491834,
D,left,Distractor,0,63,63,63,492.1361554503965,494.13765359600075,left,1,1,0.48615209804847836,K10M08,2022-11-28_12h07.35.988,t1_Paradigm,2021.1.4,59.956165570491834,
R,left,Distractor,0,0,0,0,507.1806394675805,509.171148538735,None,0,1,,K10M08,2022-11-28_12h07.35.988,t1_Paradigm,2021.1.4,59.956165570491834,
V,left,Distractor,0,1,1,1,510.66936600211193,512.6711817417527,left,1,1,0.5447469144419301,K10M08,2022-11-28_12h07.35.988,t1_Paradigm,2021.1.4,59.956165570491834,
N,left,Pretarget,0,2,2,2,514.1691168993129,516.1716268546006,left,1,1,0.4202314458671026,K10M08,2022-11-28_12h07.35.988,t1_Paradigm,2021.1.4,59.956165570491834,
N,right,Target,0,3,3,3,517.6696126988681,519.6694426737959,right,1,1,0.6180700740660541,K10M08,2022-11-28_12h07.35.988,t1_Paradigm,2021.1.4,59.956165570491834,
S,left,Distractor,0,4,4,4,521.1693100221455,523.171012197854,left,1,1,0.4929152469849214,K10M08,2022-11-28_12h07.35.988,t1_Paradigm,2021.1.4,59.956165570491834,
N,left,Lure,0,5,5,5,524.6695533505117,526.670840408362,left,1,1,0.4488726534473244,K10M08,2022-11-28_12h07.35.988,t1_Paradigm,2021.1.4,59.956165570491834,
Z,left,Distractor,0,6,6,6,528.1694357765373,530.171315034997,left,1,1,0.9966774531058036,K10M08,2022-11-28_12h07.35.988,t1_Paradigm,2021.1.4,59.956165570491834,
L,left,Pretarget,0,7,7,7,531.6695559169166,533.6856082102167,left,1,1,0.554158925981028,K10M08,2022-11-28_12h07.35.988,t1_Paradigm,2021.1.4,59.956165570491834,
L,right,Target,0,8,8,8,535.1693536512321,537.169383806613,right,1,1,0.4145349637256004,K10M08,2022-11-28_12h07.35.988,t1_Paradigm,2021.1.4,59.956165570491834,
H,left,Distractor,0,9,9,9,538.6693618316785,540.6705760674668,left,1,1,0.46532338290126063,K10M08,2022-11-28_12h07.35.988,t1_Paradigm,2021.1.4,59.956165570491834,
L,left,Lure,0,10,10,10,542.1693613504758,544.1711873557651,left,1,1,0.46852755383588374,K10M08,2022-11-28_12h07.35.988,t1_Paradigm,2021.1.4,59.956165570491834,
X,left,Pretarget,0,11,11,11,545.6693916662771,547.6709097015846,left,1,1,0.5368888680532109,K10M08,2022-11-28_12h07.35.988,t1_Paradigm,2021.1.4,59.956165570491834,
X,right,Target,0,12,12,12,549.1693661625031,551.169549661281,right,1,1,0.6222716186020989,K10M08,2022-11-28_12h07.35.988,t1_Paradigm,2021.1.4,59.956165570491834,
X,right,Target,0,13,13,13,552.6694192552532,554.6695671449997,right,1,1,0.6422412258107215,K10M08,2022-11-28_12h07.35.988,t1_Paradigm,2021.1.4,59.956165570491834,
R,left,Distractor,0,14,14,14,556.1695628141752,558.1708139421826,left,1,1,0.5169163736281916,K10M08,2022-11-28_12h07.35.988,t1_Paradigm,2021.1.4,59.956165570491834,
T,left,Distractor,0,15,15,15,559.6694747539877,561.6709045687749,left,1,1,0.48899247945519164,K10M08,2022-11-28_12h07.35.988,t1_Paradigm,2021.1.4,59.956165570491834,
V,left,Pretarget,0,16,16,16,563.1694928793004,565.1711167793255,left,1,1,0.5567907860386185,K10M08,2022-11-28_12h07.35.988,t1_Paradigm,2021.1.4,59.956165570491834,
V,right,Target,0,17,17,17,566.6694436362013,568.6691776913067,right,1,1,0.6746515367703978,K10M08,2022-11-28_12h07.35.988,t1_Paradigm,2021.1.4,59.956165570491834,
N,left,Distractor,0,18,18,18,570.1691698316426,572.1699185836478,left,1,1,0.566050416615326,K10M08,2022-11-28_12h07.35.988,t1_Paradigm,2021.1.4,59.956165570491834,
B,left,Distractor,0,19,19,19,573.6691610095731,575.6712940224679,left,1,1,0.6003913143358659,K10M08,2022-11-28_12h07.35.988,t1_Paradigm,2021.1.4,59.956165570491834,
V,left,Lure,0,20,20,20,577.1694896713016,579.1710753958614,left,1,1,0.49271121688070707,K10M08,2022-11-28_12h07.35.988,t1_Paradigm,2021.1.4,59.956165570491834,
P,left,Distractor,0,21,21,21,580.6691263629764,582.6700297415664,left,1,1,0.46587002961314283,K10M08,2022-11-28_12h07.35.988,t1_Paradigm,2021.1.4,59.956165570491834,
K,left,Pretarget,0,22,22,22,584.169474914408,586.1704819120641,left,1,1,0.581501206062967,K10M08,2022-11-28_12h07.35.988,t1_Paradigm,2021.1.4,59.956165570491834,
K,right,Target,0,23,23,23,587.6694798868266,589.6686243077565,right,1,1,0.555324399843812,K10M08,2022-11-28_12h07.35.988,t1_Paradigm,2021.1.4,59.956165570491834,
J,left,Pretarget,0,24,24,24,591.1691855509416,593.1713615512999,left,1,1,0.42863293091068044,K10M08,2022-11-28_12h07.35.988,t1_Paradigm,2021.1.4,59.956165570491834,
J,right,Target,0,25,25,25,594.6692845183716,596.6693855710328,right,1,1,0.8023583442263771,K10M08,2022-11-28_12h07.35.988,t1_Paradigm,2021.1.4,59.956165570491834,
H,left,Distractor,0,26,26,26,598.1694996161677,600.1713817618147,left,1,1,0.4843626641377341,K10M08,2022-11-28_12h07.35.988,t1_Paradigm,2021.1.4,59.956165570491834,
J,left,Lure,0,27,27,27,601.6694349745521,603.6695998668147,left,1,1,0.7465291623375379,K10M08,2022-11-28_12h07.35.988,t1_Paradigm,2021.1.4,59.956165570491834,
V,left,Distractor,0,28,28,28,605.1694659319473,607.1710125186655,left,1,1,0.572853345045587,K10M08,2022-11-28_12h07.35.988,t1_Paradigm,2021.1.4,59.956165570491834,
Z,left,Pretarget,0,29,29,29,608.6692684782902,610.6710001677857,left,1,1,0.5289618492533918,K10M08,2022-11-28_12h07.35.988,t1_Paradigm,2021.1.4,59.956165570491834,
Z,right,Target,0,30,30,30,612.1693966386956,614.1692246887833,right,1,1,0.6147189757903107,K10M08,2022-11-28_12h07.35.988,t1_Paradigm,2021.1.4,59.956165570491834,
T,left,Distractor,0,31,31,31,615.6695934507588,617.671049571305,left,1,1,0.47288404576829635,K10M08,2022-11-28_12h07.35.988,t1_Paradigm,2021.1.4,59.956165570491834,
Z,left,Lure,0,32,32,32,619.1694091499667,621.170878423407,left,1,1,0.41306665271986276,K10M08,2022-11-28_12h07.35.988,t1_Paradigm,2021.1.4,59.956165570491834,
F,left,Distractor,0,33,33,33,622.6693971198983,624.6712847191957,left,1,1,0.4807228440186009,K10M08,2022-11-28_12h07.35.988,t1_Paradigm,2021.1.4,59.956165570491834,
Y,left,Pretarget,0,34,34,34,626.1692169895396,628.1705492804758,left,1,1,0.5331784714944661,K10M08,2022-11-28_12h07.35.988,t1_Paradigm,2021.1.4,59.956165570491834,
Y,right,Target,0,35,35,35,629.6691189845151,631.6694000071147,right,1,1,0.906435193028301,K10M08,2022-11-28_12h07.35.988,t1_Paradigm,2021.1.4,59.956165570491834,
Y,right,Target,0,36,36,36,633.1692323880561,635.1693526888266,right,1,1,0.5585705958656035,K10M08,2022-11-28_12h07.35.988,t1_Paradigm,2021.1.4,59.956165570491834,
W,left,Distractor,0,37,37,37,636.6694506938511,638.6713421427703,left,1,1,0.608220488531515,K10M08,2022-11-28_12h07.35.988,t1_Paradigm,2021.1.4,59.956165570491834,
Q,left,Distractor,0,38,38,38,640.1693523680151,642.1701306338073,left,1,1,0.5657158200629056,K10M08,2022-11-28_12h07.35.988,t1_Paradigm,2021.1.4,59.956165570491834,
P,left,Pretarget,0,39,39,39,643.669137270248,645.6695501424838,left,1,1,0.6660110541852191,K10M08,2022-11-28_12h07.35.988,t1_Paradigm,2021.1.4,59.956165570491834,
P,right,Target,0,40,40,40,647.1691310145834,649.1694261524826,right,1,1,0.5424878263729624,K10M08,2022-11-28_12h07.35.988,t1_Paradigm,2021.1.4,59.956165570491834,
J,left,Distractor,0,41,41,41,650.6694747539877,652.6697159971518,left,1,1,0.5780054260394536,K10M08,2022-11-28_12h07.35.988,t1_Paradigm,2021.1.4,59.956165570491834,
P,left,Lure,0,42,42,42,654.1692458617326,656.1705967591843,left,1,1,1.2212327973975334,K10M08,2022-11-28_12h07.35.988,t1_Paradigm,2021.1.4,59.956165570491834,
L,left,Distractor,0,43,43,43,657.6694923980976,659.6697410196939,left,1,1,0.8261718016874511,K10M08,2022-11-28_12h07.35.988,t1_Paradigm,2021.1.4,59.956165570491834,
Z,left,Distractor,0,44,44,44,661.168691515777,663.171253440989,left,1,1,0.5885902899026405,K10M08,2022-11-28_12h07.35.988,t1_Paradigm,2021.1.4,59.956165570491834,
F,left,Pretarget,0,45,45,45,664.6692620622343,666.6706995762361,left,1,1,0.5931678144552279,K10M08,2022-11-28_12h07.35.988,t1_Paradigm,2021.1.4,59.956165570491834,
F,right,Target,0,46,46,46,668.169084819092,670.1694948041404,right,1,1,0.5022480204061139,K10M08,2022-11-28_12h07.35.988,t1_Paradigm,2021.1.4,59.956165570491834,
G,left,Pretarget,0,47,47,47,671.669497851748,673.6712712455192,left,1,1,0.4406751985079609,K10M08,2022-11-28_12h07.35.988,t1_Paradigm,2021.1.4,59.956165570491834,
G,right,Target,0,48,48,48,675.1694258316711,677.1694482878374,right,1,1,0.654362410743488,K10M08,2022-11-28_12h07.35.988,t1_Paradigm,2021.1.4,59.956165570491834,
V,left,Distractor,0,49,49,49,678.6694096311694,680.6707993456803,left,1,1,0.5930956339871045,K10M08,2022-11-28_12h07.35.988,t1_Paradigm,2021.1.4,59.956165570491834,
G,left,Lure,0,50,50,50,682.1693751449639,684.171027917153,left,1,1,0.7888718257891014,K10M08,2022-11-28_12h07.35.988,t1_Paradigm,2021.1.4,59.956165570491834,
Q,left,Pretarget,0,51,51,51,685.6693361675134,687.6696553655493,left,1,1,0.6179834575159475,K10M08,2022-11-28_12h07.35.988,t1_Paradigm,2021.1.4,59.956165570491834,
Q,right,Target,0,52,52,52,689.1685211698932,691.1691659820208,right,1,1,0.5267515230807476,K10M08,2022-11-28_12h07.35.988,t1_Paradigm,2021.1.4,59.956165570491834,
Y,left,Distractor,0,53,53,53,692.6693746637611,694.6713860926393,left,1,1,0.4808155558130238,K10M08,2022-11-28_12h07.35.988,t1_Paradigm,2021.1.4,59.956165570491834,
V,left,Distractor,0,54,54,54,696.1692728091148,698.1712787843717,left,1,1,0.5164666091441177,K10M08,2022-11-28_12h07.35.988,t1_Paradigm,2021.1.4,59.956165570491834,
B,left,Distractor,0,55,55,55,699.6692967088602,701.6707432053227,left,1,1,0.505163148714928,K10M08,2022-11-28_12h07.35.988,t1_Paradigm,2021.1.4,59.956165570491834,
J,left,Pretarget,0,56,56,56,703.169174002076,705.1691845885362,left,1,1,0.5426103727659211,K10M08,2022-11-28_12h07.35.988,t1_Paradigm,2021.1.4,59.956165570491834,
J,right,Target,0,57,57,57,706.6691157764872,708.6692527589621,right,1,1,0.6746021332510281,K10M08,2022-11-28_12h07.35.988,t1_Paradigm,2021.1.4,59.956165570491834,
H,left,Distractor,0,58,58,58,710.1692468241381,712.1704001075414,left,1,1,0.4694052682898473,K10M08,2022-11-28_12h07.35.988,t1_Paradigm,2021.1.4,59.956165570491834,
J,left,Lure,0,59,59,59,713.669106473244,715.6709918269189,None,0,1,,K10M08,2022-11-28_12h07.35.988,t1_Paradigm,2021.1.4,59.956165570491834,
D,left,Pretarget,0,60,60,60,717.1694030547515,719.1694319269154,left,1,1,0.7022825387248304,K10M08,2022-11-28_12h07.35.988,t1_Paradigm,2021.1.4,59.956165570491834,
D,right,Target,0,61,61,61,720.6692521173682,722.6692043178773,right,1,1,0.38667458834243007,K10M08,2022-11-28_12h07.35.988,t1_Paradigm,2021.1.4,59.956165570491834,
R,left,Distractor,0,62,62,62,724.1694027339399,726.1699885184935,left,1,1,0.405828716699034,K10M08,2022-11-28_12h07.35.988,t1_Paradigm,2021.1.4,59.956165570491834,
F,left,Distractor,0,63,63,63,727.6694686587725,729.6707342228619,left,1,1,0.681217392499093,K10M08,2022-11-28_12h07.35.988,t1_Paradigm,2021.1.4,59.956165570491834,
F,left,Distractor,0,0,0,0,852.0929074835731,854.0859762343462,None,0,2,,K10M08,2022-11-28_12h07.35.988,t1_Paradigm,2021.1.4,59.956165570491834,
N,left,Pretarget,0,1,1,1,855.5860944498854,857.5880330567306,left,1,2,0.5079355200577993,K10M08,2022-11-28_12h07.35.988,t1_Paradigm,2021.1.4,59.956165570491834,
V,left,Distractor,0,2,2,2,859.0861523546628,861.0878394526953,left,1,2,0.44837541025481187,K10M08,2022-11-28_12h07.35.988,t1_Paradigm,2021.1.4,59.956165570491834,
N,right,Target,0,3,3,3,862.5860989411303,864.588066740951,left,0,2,0.5640046618937049,K10M08,2022-11-28_12h07.35.988,t1_Paradigm,2021.1.4,59.956165570491834,
N,left,Lure,0,4,4,4,866.0853054372419,868.0861632619344,right,0,2,0.5696225475112442,K10M08,2022-11-28_12h07.35.988,t1_Paradigm,2021.1.4,59.956165570491834,
X,left,Distractor,0,5,5,5,869.5860604448826,871.5867549813411,left,1,2,0.5891606759396382,K10M08,2022-11-28_12h07.35.988,t1_Paradigm,2021.1.4,59.956165570491834,
G,left,Pretarget,0,6,6,6,873.0859781591571,875.0867076630238,left,1,2,0.5292617991799489,K10M08,2022-11-28_12h07.35.988,t1_Paradigm,2021.1.4,59.956165570491834,
H,left,Pretarget,0,7,7,7,876.5859080638911,878.5867970063991,left,1,2,0.5009478096908424,K10M08,2022-11-28_12h07.35.988,t1_Paradigm,2021.1.4,59.956165570491834,
G,right,Target,0,8,8,8,880.0860788910068,882.0874965152761,left,0,2,0.7924866233661305,K10M08,2022-11-28_12h07.35.988,t1_Paradigm,2021.1.4,59.956165570491834,
H,right,Target,0,9,9,9,883.5855818082055,885.5878242145991,left,0,2,0.47594064779696055,K10M08,2022-11-28_12h07.35.988,t1_Paradigm,2021.1.4,59.956165570491834,
T,left,Pretarget,0,10,10,10,887.086162299529,889.0884922848782,left,1,2,0.6074743029603269,K10M08,2022-11-28_12h07.35.988,t1_Paradigm,2021.1.4,59.956165570491834,
K,left,Distractor,0,11,11,11,890.5860277230677,892.5878136281099,left,1,2,0.6599418000841979,K10M08,2022-11-28_12h07.35.988,t1_Paradigm,2021.1.4,59.956165570491834,
T,right,Target,0,12,12,12,894.0861462594185,896.0869524349982,left,0,2,0.568829845637083,K10M08,2022-11-28_12h07.35.988,t1_Paradigm,2021.1.4,59.956165570491834,
T,left,Lure,0,13,13,13,897.5861403245945,899.5857864799327,right,0,2,0.4619671518157702,K10M08,2022-11-28_12h07.35.988,t1_Paradigm,2021.1.4,59.956165570491834,
J,left,Distractor,0,14,14,14,901.0861010263325,903.0877926155808,left,1,2,0.43221500667277724,K10M08,2022-11-28_12h07.35.988,t1_Paradigm,2021.1.4,59.956165570491834,
Q,left,Pretarget,0,15,15,15,904.5861509110546,906.5868419187027,left,1,2,0.4209731401933823,K10M08,2022-11-28_12h07.35.988,t1_Paradigm,2021.1.4,59.956165570491834,
M,left,Distractor,0,16,16,16,908.0860955727112,910.0887906307762,left,1,2,0.43917929849703796,K10M08,2022-11-28_12h07.35.988,t1_Paradigm,2021.1.4,59.956165570491834,
Q,right,Target,0,17,17,17,911.5862198834948,913.5880224702705,left,0,2,0.45981039956677705,K10M08,2022-11-28_12h07.35.988,t1_Paradigm,2021.1.4,59.956165570491834,
R,left,Distractor,0,18,18,18,915.0859467205591,917.0885217986652,left,1,2,0.5273918439925183,K10M08,2022-11-28_12h07.35.988,t1_Paradigm,2021.1.4,59.956165570491834,
W,left,Distractor,0,19,19,19,918.5857967455813,920.5877744902682,left,1,2,0.43603415513643995,K10M08,2022-11-28_12h07.35.988,t1_Paradigm,2021.1.4,59.956165570491834,
C,left,Pretarget,0,20,20,20,922.085424775607,924.0892561145592,left,1,2,0.45467115062638186,K10M08,2022-11-28_12h07.35.988,t1_Paradigm,2021.1.4,59.956165570491834,
T,left,Distractor,0,21,21,21,925.5860694273433,927.5882508813229,left,1,2,0.4277208906423766,K10M08,2022-11-28_12h07.35.988,t1_Paradigm,2021.1.4,59.956165570491834,
C,right,Target,0,22,22,22,929.0861491466349,931.0875844150432,left,0,2,0.4964248214964755,K10M08,2022-11-28_12h07.35.988,t1_Paradigm,2021.1.4,59.956165570491834,
F,left,Pretarget,0,23,23,23,932.5859048558923,934.5874347608769,left,1,2,0.516296263289405,K10M08,2022-11-28_12h07.35.988,t1_Paradigm,2021.1.4,59.956165570491834,
C,right,Target,0,24,24,24,936.0860766453843,938.0883296382381,left,0,2,0.40764092752942815,K10M08,2022-11-28_12h07.35.988,t1_Paradigm,2021.1.4,59.956165570491834,
F,right,Target,0,25,25,25,939.5859208959737,941.5880972171435,left,0,2,0.4119082365068607,K10M08,2022-11-28_12h07.35.988,t1_Paradigm,2021.1.4,59.956165570491834,
H,left,Distractor,0,26,26,26,943.0860609260853,945.0885994327546,left,1,2,0.5114755707618315,K10M08,2022-11-28_12h07.35.988,t1_Paradigm,2021.1.4,59.956165570491834,
H,left,Lure,0,27,27,27,946.5861611767323,948.586185878492,right,0,2,0.5501880381198134,K10M08,2022-11-28_12h07.35.988,t1_Paradigm,2021.1.4,59.956165570491834,
P,left,Distractor,0,28,28,28,950.0859842544014,952.0875719037722,left,1,2,0.44040091274655424,K10M08,2022-11-28_12h07.35.988,t1_Paradigm,2021.1.4,59.956165570491834,
G,left,Pretarget,0,29,29,29,953.5858698884549,955.5865339487209,left,1,2,0.5574349566013552,K10M08,2022-11-28_12h07.35.988,t1_Paradigm,2021.1.4,59.956165570491834,
K,left,Distractor,0,30,30,30,957.0860513020307,959.087381026533,left,1,2,0.46460382390068844,K10M08,2022-11-28_12h07.35.988,t1_Paradigm,2021.1.4,59.956165570491834,
G,right,Target,0,31,31,31,960.5861534774886,962.5869728059333,right,1,2,0.6290607525443193,K10M08,2022-11-28_12h07.35.988,t1_Paradigm,2021.1.4,59.956165570491834,
M,left,Pretarget,0,32,32,32,964.0860641341133,966.0871317633428,left,1,2,0.45682309081894346,K10M08,2022-11-28_12h07.35.988,t1_Paradigm,2021.1.4,59.956165570491834,
B,left,Distractor,0,33,33,33,967.586138078972,969.5876715127961,left,1,2,0.49244366795755923,K10M08,2022-11-28_12h07.35.988,t1_Paradigm,2021.1.4,59.956165570491834,
M,right,Target,0,34,34,34,971.0860612468969,973.0884492973855,left,0,2,0.4635971470561344,K10M08,2022-11-28_12h07.35.988,t1_Paradigm,2021.1.4,59.956165570491834,
M,left,Lure,0,35,35,35,974.586062048882,976.5861528358655,right,0,2,0.501644912554184,K10M08,2022-11-28_12h07.35.988,t1_Paradigm,2021.1.4,59.956165570491834,
T,left,Distractor,0,36,36,36,978.0861340689589,980.0876267609128,left,1,2,0.5042944167216774,K10M08,2022-11-28_12h07.35.988,t1_Paradigm,2021.1.4,59.956165570491834,
F,left,Distractor,0,37,37,37,981.5857890463376,983.5867822495056,left,1,2,0.4770400364068337,K10M08,2022-11-28_12h07.35.988,t1_Paradigm,2021.1.4,59.956165570491834,
X,left,Distractor,0,38,38,38,985.0857744498353,987.0880550316651,left,1,2,0.3997328360565007,K10M08,2022-11-28_12h07.35.988,t1_Paradigm,2021.1.4,59.956165570491834,
C,left,Distractor,0,39,39,39,988.5862516429042,990.5876490566588,left,1,2,0.612424278690014,K10M08,2022-11-28_12h07.35.988,t1_Paradigm,2021.1.4,59.956165570491834,
R,left,Distractor,0,40,40,40,992.0861728859891,994.0864231116138,left,1,2,0.5853841941279825,K10M08,2022-11-28_12h07.35.988,t1_Paradigm,2021.1.4,59.956165570491834,
B,left,Pretarget,0,41,41,41,995.5861031115637,997.5867617181793,left,1,2,0.6690512952918652,K10M08,2022-11-28_12h07.35.988,t1_Paradigm,2021.1.4,59.956165570491834,
H,left,Distractor,0,42,42,42,999.0861706403957,1001.0873620992352,left,1,2,0.4327568413282279,K10M08,2022-11-28_12h07.35.988,t1_Paradigm,2021.1.4,59.956165570491834,
B,right,Target,0,43,43,43,1002.586020023824,1004.5988309331296,left,0,2,0.5691727830271702,K10M08,2022-11-28_12h07.35.988,t1_Paradigm,2021.1.4,59.956165570491834,
W,left,Pretarget,0,44,44,44,1006.0858694072522,1008.0879215780005,left,1,2,0.6158812416542787,K10M08,2022-11-28_12h07.35.988,t1_Paradigm,2021.1.4,59.956165570491834,
L,left,Pretarget,0,45,45,45,1009.5861884448968,1011.5875508912432,left,1,2,0.6202393375569955,K10M08,2022-11-28_12h07.35.988,t1_Paradigm,2021.1.4,59.956165570491834,
W,right,Target,0,46,46,46,1013.086159091501,1015.0874323548633,left,0,2,0.7204364062927198,K10M08,2022-11-28_12h07.35.988,t1_Paradigm,2021.1.4,59.956165570491834,
L,right,Target,0,47,47,47,1016.5861627807317,1018.5877241243434,left,0,2,0.6281827173079364,K10M08,2022-11-28_12h07.35.988,t1_Paradigm,2021.1.4,59.956165570491834,
W,right,Target,0,48,48,48,1020.0858774273074,1022.087970339926,left,0,2,0.6158504446502775,K10M08,2022-11-28_12h07.35.988,t1_Paradigm,2021.1.4,59.956165570491834,
X,left,Distractor,0,49,49,49,1023.5862692870141,1025.586999432504,left,1,2,0.6368347487587016,K10M08,2022-11-28_12h07.35.988,t1_Paradigm,2021.1.4,59.956165570491834,
R,left,Distractor,0,50,50,50,1027.0858960338228,1029.0869174675609,left,1,2,0.6250539348402526,K10M08,2022-11-28_12h07.35.988,t1_Paradigm,2021.1.4,59.956165570491834,
V,left,Pretarget,0,51,51,51,1030.5860723145597,1032.586890039005,left,1,2,0.5328717847005464,K10M08,2022-11-28_12h07.35.988,t1_Paradigm,2021.1.4,59.956165570491834,
Z,left,Distractor,0,52,52,52,1034.0860638133017,1036.0881272121333,left,1,2,0.5518953466671519,K10M08,2022-11-28_12h07.35.988,t1_Paradigm,2021.1.4,59.956165570491834,
V,right,Target,0,53,53,53,1037.5861595727038,1039.587536455132,left,0,2,0.5404507333005313,K10M08,2022-11-28_12h07.35.988,t1_Paradigm,2021.1.4,59.956165570491834,
V,left,Lure,0,54,54,54,1041.0862040038046,1043.0859489661525,right,0,2,0.5300763155973982,K10M08,2022-11-28_12h07.35.988,t1_Paradigm,2021.1.4,59.956165570491834,
N,left,Distractor,0,55,55,55,1044.5861547606764,1046.5870013573149,left,1,2,0.4368640700704418,K10M08,2022-11-28_12h07.35.988,t1_Paradigm,2021.1.4,59.956165570491834,
B,left,Distractor,0,56,56,56,1048.086056114058,1050.0869543598092,left,1,2,0.5688343368528876,K10M08,2022-11-28_12h07.35.988,t1_Paradigm,2021.1.4,59.956165570491834,
V,left,Lure,0,57,57,57,1051.5861714423809,1053.5874562546378,left,1,2,0.5084808835526928,K10M08,2022-11-28_12h07.35.988,t1_Paradigm,2021.1.4,59.956165570491834,
J,left,Distractor,0,58,58,58,1055.0858209661383,1057.0872857483337,left,1,2,0.5605669470678549,K10M08,2022-11-28_12h07.35.988,t1_Paradigm,2021.1.4,59.956165570491834,
H,left,Distractor,0,59,59,59,1058.5860726353712,1060.58719672577,left,1,2,0.5968198250629939,K10M08,2022-11-28_12h07.35.988,t1_Paradigm,2021.1.4,59.956165570491834,
X,left,Pretarget,0,60,60,60,1062.0861507506634,1064.0863923146098,left,1,2,0.4735740910109598,K10M08,2022-11-28_12h07.35.988,t1_Paradigm,2021.1.4,59.956165570491834,
P,left,Distractor,0,61,61,61,1065.5861005451297,1067.5876044651668,left,1,2,0.5723628386913333,K10M08,2022-11-28_12h07.35.988,t1_Paradigm,2021.1.4,59.956165570491834,
X,right,Target,0,62,62,62,1069.0860936479003,1071.0873537583684,left,0,2,0.6406468396016862,K10M08,2022-11-28_12h07.35.988,t1_Paradigm,2021.1.4,59.956165570491834,
Q,left,Distractor,0,63,63,63,1072.5858917029982,1074.5875467208098,left,1,2,0.6284663063124754,K10M08,2022-11-28_12h07.35.988,t1_Paradigm,2021.1.4,59.956165570491834,
B,left,Pretarget,0,0,0,0,1088.061079107545,1090.0543695325323,None,0,2,,K10M08,2022-11-28_12h07.35.988,t1_Paradigm,2021.1.4,59.956165570491834,
F,left,Distractor,0,1,1,1,1091.5524471262179,1093.5528362590994,left,1,2,0.6070694507507142,K10M08,2022-11-28_12h07.35.988,t1_Paradigm,2021.1.4,59.956165570491834,
B,right,Target,0,2,2,2,1095.0527238179639,1097.053596399579,left,0,2,0.9788421419798397,K10M08,2022-11-28_12h07.35.988,t1_Paradigm,2021.1.4,59.956165570491834,
V,left,Distractor,0,3,3,3,1098.5527814019588,1100.5551293522003,left,1,2,0.4847251705068629,K10M08,2022-11-28_12h07.35.988,t1_Paradigm,2021.1.4,59.956165570491834,
G,left,Pretarget,0,4,4,4,1102.0524453617982,1104.0540917179605,left,1,2,0.6819754477182869,K10M08,2022-11-28_12h07.35.988,t1_Paradigm,2021.1.4,59.956165570491834,
B,left,Lure,0,5,5,5,1105.5527371312492,1107.5533065549098,left,1,2,0.9266909556754399,K10M08,2022-11-28_12h07.35.988,t1_Paradigm,2021.1.4,59.956165570491834,
G,right,Target,0,6,6,6,1109.0527722590778,1111.0528322490864,left,0,2,0.8189685122924857,K10M08,2022-11-28_12h07.35.988,t1_Paradigm,2021.1.4,59.956165570491834,
Y,left,Pretarget,0,7,7,7,1112.5528144445561,1114.55479154762,left,1,2,0.5329968975274824,K10M08,2022-11-28_12h07.35.988,t1_Paradigm,2021.1.4,59.956165570491834,
P,left,Distractor,0,8,8,8,1116.0524540234474,1118.0535261439218,left,1,2,0.4424992789863609,K10M08,2022-11-28_12h07.35.988,t1_Paradigm,2021.1.4,59.956165570491834,
Y,right,Target,0,9,9,9,1119.552821502206,1121.5541794573073,left,0,2,0.42985967796994373,K10M08,2022-11-28_12h07.35.988,t1_Paradigm,2021.1.4,59.956165570491834,
X,left,Distractor,0,10,10,10,1123.052660299174,1125.0539624347293,left,1,2,0.5301109622232616,K10M08,2022-11-28_12h07.35.988,t1_Paradigm,2021.1.4,59.956165570491834,
Y,right,Target,0,11,11,11,1126.552742264088,1128.553469843173,left,0,2,0.7741797331837006,K10M08,2022-11-28_12h07.35.988,t1_Paradigm,2021.1.4,59.956165570491834,
N,left,Distractor,0,12,12,12,1130.052761351806,1132.0534664747247,left,1,2,0.5703754699206911,K10M08,2022-11-28_12h07.35.988,t1_Paradigm,2021.1.4,59.956165570491834,
Y,right,Target,0,13,13,13,1133.552275497117,1135.554657131579,left,0,2,0.6372643026988953,K10M08,2022-11-28_12h07.35.988,t1_Paradigm,2021.1.4,59.956165570491834,
Y,left,Lure,0,14,14,14,1137.0526862841507,1139.0527754671057,right,0,2,0.6432408450345974,K10M08,2022-11-28_12h07.35.988,t1_Paradigm,2021.1.4,59.956165570491834,
K,left,Distractor,0,15,15,15,1140.5528895122407,1142.5545480588626,left,1,2,0.45331287471344694,K10M08,2022-11-28_12h07.35.988,t1_Paradigm,2021.1.4,59.956165570491834,
T,left,Pretarget,0,16,16,16,1144.0525788154628,1146.0535017629736,left,1,2,0.6825089415651746,K10M08,2022-11-28_12h07.35.988,t1_Paradigm,2021.1.4,59.956165570491834,
J,left,Distractor,0,17,17,17,1147.5526007903973,1149.5545762894617,left,1,2,0.5573586056707427,K10M08,2022-11-28_12h07.35.988,t1_Paradigm,2021.1.4,59.956165570491834,
T,right,Target,0,18,18,18,1151.052721893153,1153.0534963093232,left,0,2,0.43429155836929567,K10M08,2022-11-28_12h07.35.988,t1_Paradigm,2021.1.4,59.956165570491834,
S,left,Pretarget,0,19,19,19,1154.5526049608306,1156.565574346343,left,1,2,0.5382327078841627,K10M08,2022-11-28_12h07.35.988,t1_Paradigm,2021.1.4,59.956165570491834,
R,left,Distractor,0,20,20,20,1158.0525319783483,1160.0542354372737,left,1,2,0.48977299084072,K10M08,2022-11-28_12h07.35.988,t1_Paradigm,2021.1.4,59.956165570491834,
S,right,Target,0,21,21,21,1161.5527111463016,1163.5530210410943,left,0,2,1.1028276455472223,K10M08,2022-11-28_12h07.35.988,t1_Paradigm,2021.1.4,59.956165570491834,
Q,left,Distractor,0,22,22,22,1165.052677943284,1167.053218815563,left,1,2,0.5787445539608598,K10M08,2022-11-28_12h07.35.988,t1_Paradigm,2021.1.4,59.956165570491834,
D,left,Distractor,0,23,23,23,1168.5523778329662,1170.5544646503404,left,1,2,0.4533821679360699,K10M08,2022-11-28_12h07.35.988,t1_Paradigm,2021.1.4,59.956165570491834,
F,left,Distractor,0,24,24,24,1172.0527177227486,1174.0530195974861,left,1,2,0.6347877108200919,K10M08,2022-11-28_12h07.35.988,t1_Paradigm,2021.1.4,59.956165570491834,
Z,left,Distractor,0,25,25,25,1175.552546254039,1177.5553247206553,left,1,2,0.3806082214578055,K10M08,2022-11-28_12h07.35.988,t1_Paradigm,2021.1.4,59.956165570491834,
P,left,Distractor,0,26,26,26,1179.0525281287264,1181.0551301542146,left,1,2,0.4487100068363361,K10M08,2022-11-28_12h07.35.988,t1_Paradigm,2021.1.4,59.956165570491834,
H,left,Distractor,0,27,27,27,1182.5527650410368,1184.5543597480573,left,1,2,0.45354032338946126,K10M08,2022-11-28_12h07.35.988,t1_Paradigm,2021.1.4,59.956165570491834,
Z,left,Pretarget,0,28,28,28,1186.0527584645897,1188.0518390459183,left,1,2,0.4441129133629147,K10M08,2022-11-28_12h07.35.988,t1_Paradigm,2021.1.4,59.956165570491834,
J,left,Pretarget,0,29,29,29,1189.5525497828494,1191.5544989761547,left,1,2,0.5575286308012437,K10M08,2022-11-28_12h07.35.988,t1_Paradigm,2021.1.4,59.956165570491834,
Z,right,Target,0,30,30,30,1193.0527353668585,1195.0535213318944,left,0,2,0.6744603387487587,K10M08,2022-11-28_12h07.35.988,t1_Paradigm,2021.1.4,59.956165570491834,
J,right,Target,0,31,31,31,1196.5526322289952,1198.5530672365858,left,0,2,0.9347414832736831,K10M08,2022-11-28_12h07.35.988,t1_Paradigm,2021.1.4,59.956165570491834,
V,left,Pretarget,0,32,32,32,1200.0525756074348,1202.0544789260312,left,1,2,0.569304632692365,K10M08,2022-11-28_12h07.35.988,t1_Paradigm,2021.1.4,59.956165570491834,
Z,left,Lure,0,33,33,33,1203.5525209106854,1205.5544652919343,left,1,2,0.429592449858319,K10M08,2022-11-28_12h07.35.988,t1_Paradigm,2021.1.4,59.956165570491834,
V,right,Target,0,34,34,34,1207.0527080986649,1209.0535274271388,left,0,2,0.49848661629948765,K10M08,2022-11-28_12h07.35.988,t1_Paradigm,2021.1.4,59.956165570491834,
X,left,Distractor,0,35,35,35,1210.5527576626046,1212.5532808907446,left,1,2,0.7105233019392472,K10M08,2022-11-28_12h07.35.988,t1_Paradigm,2021.1.4,59.956165570491834,
S,left,Distractor,0,36,36,36,1214.052762635023,1216.0531325197953,left,1,2,0.5869009462767281,K10M08,2022-11-28_12h07.35.988,t1_Paradigm,2021.1.4,59.956165570491834,
Q,left,Distractor,0,37,37,37,1217.5527490009263,1219.554279547563,left,1,2,0.5258503901131917,K10M08,2022-11-28_12h07.35.988,t1_Paradigm,2021.1.4,59.956165570491834,
P,left,Distractor,0,38,38,38,1221.052551547269,1223.053020880674,left,1,2,0.5470101729733869,K10M08,2022-11-28_12h07.35.988,t1_Paradigm,2021.1.4,59.956165570491834,
S,left,Lure,0,39,39,39,1224.5525128906302,1226.554689853394,left,1,2,0.6932182766031474,K10M08,2022-11-28_12h07.35.988,t1_Paradigm,2021.1.4,59.956165570491834,
K,left,Pretarget,0,40,40,40,1228.0527058530715,1230.0542540437891,left,1,2,0.5696716302190907,K10M08,2022-11-28_12h07.35.988,t1_Paradigm,2021.1.4,59.956165570491834,
L,left,Distractor,0,41,41,41,1231.552773061092,1233.553618053702,left,1,2,0.7024211251991801,K10M08,2022-11-28_12h07.35.988,t1_Paradigm,2021.1.4,59.956165570491834,
K,right,Target,0,42,42,42,1235.0526429758465,1237.0544933621131,left,0,2,0.6575508623500355,K10M08,2022-11-28_12h07.35.988,t1_Paradigm,2021.1.4,59.956165570491834,
B,left,Distractor,0,43,43,43,1238.5527223743557,1240.5543802793836,left,1,2,0.5816446045937482,K10M08,2022-11-28_12h07.35.988,t1_Paradigm,2021.1.4,59.956165570491834,
N,left,Distractor,0,44,44,44,1242.0526837177167,1244.053355156415,left,1,2,0.6987604529422242,K10M08,2022-11-28_12h07.35.988,t1_Paradigm,2021.1.4,59.956165570491834,
S,left,Pretarget,0,45,45,45,1245.552771136281,1247.5535372115846,left,1,2,0.5905269719369244,K10M08,2022-11-28_12h07.35.988,t1_Paradigm,2021.1.4,59.956165570491834,
Z,left,Distractor,0,46,46,46,1249.0528187753807,1251.055054444907,left,1,2,0.5769644233805593,K10M08,2022-11-28_12h07.35.988,t1_Paradigm,2021.1.4,59.956165570491834,
S,right,Target,0,47,47,47,1252.5526899733522,1254.5543745049508,left,0,2,0.6934665773878805,K10M08,2022-11-28_12h07.35.988,t1_Paradigm,2021.1.4,59.956165570491834,
C,left,Distractor,0,48,48,48,1256.052721893153,1258.0547230563825,left,1,2,0.5371933092246763,K10M08,2022-11-28_12h07.35.988,t1_Paradigm,2021.1.4,59.956165570491834,
T,left,Pretarget,0,49,49,49,1259.552729111223,1261.5656054641586,left,1,2,0.4503967840282712,K10M08,2022-11-28_12h07.35.988,t1_Paradigm,2021.1.4,59.956165570491834,
S,left,Lure,0,50,50,50,1263.0527247803984,1265.0545819035033,left,1,2,0.8012810909422114,K10M08,2022-11-28_12h07.35.988,t1_Paradigm,2021.1.4,59.956165570491834,
T,right,Target,0,51,51,51,1266.5526142640738,1268.5545297731587,left,0,2,0.6134537324833218,K10M08,2022-11-28_12h07.35.988,t1_Paradigm,2021.1.4,59.956165570491834,
N,left,Pretarget,0,52,52,52,1270.0525576425134,1272.0547301140323,left,1,2,0.7613142875197809,K10M08,2022-11-28_12h07.35.988,t1_Paradigm,2021.1.4,59.956165570491834,
B,left,Distractor,0,53,53,53,1273.552837221505,1275.5535542141006,left,1,2,0.5584031371690799,K10M08,2022-11-28_12h07.35.988,t1_Paradigm,2021.1.4,59.956165570491834,
N,right,Target,0,54,54,54,1277.0525140134268,1279.0542527605721,left,0,2,0.513787911972031,K10M08,2022-11-28_12h07.35.988,t1_Paradigm,2021.1.4,59.956165570491834,
N,left,Lure,0,55,55,55,1280.5526023943967,1282.5528128405567,right,0,2,0.6795790563628543,K10M08,2022-11-28_12h07.35.988,t1_Paradigm,2021.1.4,59.956165570491834,
X,left,Distractor,0,56,56,56,1284.0524036575225,1286.0528200585977,left,1,2,0.6030587834538892,K10M08,2022-11-28_12h07.35.988,t1_Paradigm,2021.1.4,59.956165570491834,
W,left,Distractor,0,57,57,57,1287.552774344309,1289.5542872468068,left,1,2,0.6376524732331745,K10M08,2022-11-28_12h07.35.988,t1_Paradigm,2021.1.4,59.956165570491834,
S,left,Distractor,0,58,58,58,1291.052676018473,1293.0542033570528,left,1,2,0.7217959653935395,K10M08,2022-11-28_12h07.35.988,t1_Paradigm,2021.1.4,59.956165570491834,
L,left,Distractor,0,59,59,59,1294.552506153792,1296.5541839485522,left,1,2,0.6298659656895325,K10M08,2022-11-28_12h07.35.988,t1_Paradigm,2021.1.4,59.956165570491834,
K,left,Pretarget,0,60,60,60,1298.0525643793517,1300.054603397235,left,1,2,0.5373097603733186,K10M08,2022-11-28_12h07.35.988,t1_Paradigm,2021.1.4,59.956165570491834,
V,left,Pretarget,0,61,61,61,1301.5528080285294,1303.5550963095739,left,1,2,0.5409476556815207,K10M08,2022-11-28_12h07.35.988,t1_Paradigm,2021.1.4,59.956165570491834,
K,right,Target,0,62,62,62,1305.0527478781296,1307.0539374121581,left,0,2,0.5301257191167679,K10M08,2022-11-28_12h07.35.988,t1_Paradigm,2021.1.4,59.956165570491834,
V,right,Target,0,63,63,63,1308.5525080786028,1310.553553893289,left,0,2,0.4064295789867174,K10M08,2022-11-28_12h07.35.988,t1_Paradigm,2021.1.4,59.956165570491834,
R,left,Distractor,0,0,0,0,1400.0446633454994,1402.0365794544923,None,0,3,,K10M08,2022-11-28_12h07.35.988,t1_Paradigm,2021.1.4,59.956165570491834,
P,left,Lure,0,1,1,1,1403.536204918084,1405.5381849083642,left,1,3,0.7336377316969447,K10M08,2022-11-28_12h07.35.988,t1_Paradigm,2021.1.4,59.956165570491834,
V,left,Distractor,0,2,2,2,1407.0362041160697,1409.0362025120703,left,1,3,1.011675590852974,K10M08,2022-11-28_12h07.35.988,t1_Paradigm,2021.1.4,59.956165570491834,
P,left,Pretarget,0,3,3,3,1410.5360900709347,1412.5378021915385,left,1,3,1.0145268795313314,K10M08,2022-11-28_12h07.35.988,t1_Paradigm,2021.1.4,59.956165570491834,
Z,left,Distractor,0,4,4,4,1414.0358438553812,1416.038875113998,left,1,3,1.0971289178414736,K10M08,2022-11-28_12h07.35.988,t1_Paradigm,2021.1.4,59.956165570491834,
L,left,Pretarget,0,5,5,5,1417.5357731185213,1419.5381271640072,left,1,3,0.701794277963927,K10M08,2022-11-28_12h07.35.988,t1_Paradigm,2021.1.4,59.956165570491834,
P,right,Target,0,6,6,6,1421.0360863817332,1423.0356754342793,right,1,3,0.48429144610418007,K10M08,2022-11-28_12h07.35.988,t1_Paradigm,2021.1.4,59.956165570491834,
S,left,Distractor,0,7,7,7,1424.5360538203095,1426.5369366675732,left,1,3,1.031108496215893,K10M08,2022-11-28_12h07.35.988,t1_Paradigm,2021.1.4,59.956165570491834,
L,right,Target,0,8,8,8,1428.0358342312975,1430.0379884171125,right,1,3,0.794381280313246,K10M08,2022-11-28_12h07.35.988,t1_Paradigm,2021.1.4,59.956165570491834,
D,left,Distractor,0,9,9,9,1431.536238923116,1433.538127805601,left,1,3,0.9257866146508604,K10M08,2022-11-28_12h07.35.988,t1_Paradigm,2021.1.4,59.956165570491834,
G,left,Distractor,0,10,10,10,1435.0363122263807,1437.0366243667668,left,1,3,0.7074221084476449,K10M08,2022-11-28_12h07.35.988,t1_Paradigm,2021.1.4,59.956165570491834,
M,left,Pretarget,0,11,11,11,1438.5360708228254,1440.5374201162776,left,1,3,0.8225618161668535,K10M08,2022-11-28_12h07.35.988,t1_Paradigm,2021.1.4,59.956165570491834,
Y,left,Distractor,0,12,12,12,1442.0361515045515,1444.0377099609468,left,1,3,0.7146154529764317,K10M08,2022-11-28_12h07.35.988,t1_Paradigm,2021.1.4,59.956165570491834,
V,left,Distractor,0,13,13,13,1445.5360092288174,1447.5379799158545,left,1,3,0.653974881832255,K10M08,2022-11-28_12h07.35.988,t1_Paradigm,2021.1.4,59.956165570491834,
M,right,Target,0,14,14,14,1449.0361425220908,1451.0363513642224,left,0,3,1.171582904731622,K10M08,2022-11-28_12h07.35.988,t1_Paradigm,2021.1.4,59.956165570491834,
S,left,Pretarget,0,15,15,15,1452.5358959856967,1454.5367021612765,left,1,3,0.8392066308297217,K10M08,2022-11-28_12h07.35.988,t1_Paradigm,2021.1.4,59.956165570491834,
Q,left,Distractor,0,16,16,16,1456.0360219005088,1458.0378437353938,left,1,3,0.8742080600350164,K10M08,2022-11-28_12h07.35.988,t1_Paradigm,2021.1.4,59.956165570491834,
R,left,Pretarget,0,17,17,17,1459.5360913541517,1461.5385743620864,left,1,3,0.9092136596154887,K10M08,2022-11-28_12h07.35.988,t1_Paradigm,2021.1.4,59.956165570491834,
S,right,Target,0,18,18,18,1463.0358566874638,1465.0383281465038,right,1,3,0.8495499307755381,K10M08,2022-11-28_12h07.35.988,t1_Paradigm,2021.1.4,59.956165570491834,
F,left,Distractor,0,19,19,19,1466.5360971285845,1468.538612216711,left,1,3,0.709302008501254,K10M08,2022-11-28_12h07.35.988,t1_Paradigm,2021.1.4,59.956165570491834,
R,right,Target,0,20,20,20,1470.0359798754507,1472.036844757793,right,1,3,0.6350299164187163,K10M08,2022-11-28_12h07.35.988,t1_Paradigm,2021.1.4,59.956165570491834,
P,left,Distractor,0,21,21,21,1473.5359232538904,1475.5379988431814,left,1,3,0.9900605898874346,K10M08,2022-11-28_12h07.35.988,t1_Paradigm,2021.1.4,59.956165570491834,
L,left,Distractor,0,22,22,22,1477.0360976097872,1479.0378023519297,left,1,3,0.7701575170212891,K10M08,2022-11-28_12h07.35.988,t1_Paradigm,2021.1.4,59.956165570491834,
R,right,Target,0,23,23,23,1480.5361346624268,1482.53759206619,right,1,3,0.6147083893010858,K10M08,2022-11-28_12h07.35.988,t1_Paradigm,2021.1.4,59.956165570491834,
H,left,Pretarget,0,24,24,24,1484.0358987125219,1486.0384846978995,left,1,3,0.6174153170723002,K10M08,2022-11-28_12h07.35.988,t1_Paradigm,2021.1.4,59.956165570491834,
G,left,Pretarget,0,25,25,25,1487.536056065932,1489.538121710386,left,1,3,0.669828919460997,K10M08,2022-11-28_12h07.35.988,t1_Paradigm,2021.1.4,59.956165570491834,
T,left,Distractor,0,26,26,26,1491.036121028359,1493.0378302617173,left,1,3,0.7701206247729715,K10M08,2022-11-28_12h07.35.988,t1_Paradigm,2021.1.4,59.956165570491834,
H,right,Target,0,27,27,27,1494.536133379239,1496.5377624120738,right,1,3,0.8542022021720186,K10M08,2022-11-28_12h07.35.988,t1_Paradigm,2021.1.4,59.956165570491834,
G,right,Target,0,28,28,28,1498.0360950433824,1500.036012918048,right,1,3,1.0358688779524527,K10M08,2022-11-28_12h07.35.988,t1_Paradigm,2021.1.4,59.956165570491834,
D,left,Distractor,0,29,29,29,1501.5361022614234,1503.5377312942583,left,1,3,1.166183485329384,K10M08,2022-11-28_12h07.35.988,t1_Paradigm,2021.1.4,59.956165570491834,
N,left,Pretarget,0,30,30,30,1505.0360818904883,1507.0361781311221,left,1,3,0.8836842319578864,K10M08,2022-11-28_12h07.35.988,t1_Paradigm,2021.1.4,59.956165570491834,
V,left,Distractor,0,31,31,31,1508.5359537300828,1510.5380302817794,left,1,3,0.8219198912556749,K10M08,2022-11-28_12h07.35.988,t1_Paradigm,2021.1.4,59.956165570491834,
R,left,Distractor,0,32,32,32,1512.035907374171,1514.0379345223773,left,1,3,0.9062680551433004,K10M08,2022-11-28_12h07.35.988,t1_Paradigm,2021.1.4,59.956165570491834,
N,right,Target,0,33,33,33,1515.5362703617138,1517.5365395146364,right,1,3,0.9754987429478206,K10M08,2022-11-28_12h07.35.988,t1_Paradigm,2021.1.4,59.956165570491834,
Z,left,Distractor,0,34,34,34,1519.0358367977315,1521.0366327076335,left,1,3,0.7553197802917566,K10M08,2022-11-28_12h07.35.988,t1_Paradigm,2021.1.4,59.956165570491834,
N,left,Lure,0,35,35,35,1522.5360137200623,1524.5379564973118,left,1,3,0.6621049683599267,K10M08,2022-11-28_12h07.35.988,t1_Paradigm,2021.1.4,59.956165570491834,
Y,left,Pretarget,0,36,36,36,1526.036048847891,1528.0379682065977,left,1,3,0.8580900022934657,K10M08,2022-11-28_12h07.35.988,t1_Paradigm,2021.1.4,59.956165570491834,
Y,left,Lure,0,37,37,37,1529.5361247175606,1531.536055424338,left,1,3,0.7996571909170598,K10M08,2022-11-28_12h07.35.988,t1_Paradigm,2021.1.4,59.956165570491834,
B,left,Distractor,0,38,38,38,1533.0358111335663,1535.0379688481917,left,1,3,0.785983003268484,K10M08,2022-11-28_12h07.35.988,t1_Paradigm,2021.1.4,59.956165570491834,
Y,right,Target,0,39,39,39,1536.5361404368596,1538.5384178106615,right,1,3,0.7418791365344077,K10M08,2022-11-28_12h07.35.988,t1_Paradigm,2021.1.4,59.956165570491834,
J,left,Distractor,0,40,40,40,1540.0358505922195,1542.0377853494138,left,1,3,0.7623918616154697,K10M08,2022-11-28_12h07.35.988,t1_Paradigm,2021.1.4,59.956165570491834,
X,left,Distractor,0,41,41,41,1543.5360297601728,1545.5383498006267,left,1,3,0.7334962580061983,K10M08,2022-11-28_12h07.35.988,t1_Paradigm,2021.1.4,59.956165570491834,
W,left,Pretarget,0,42,42,42,1547.0358538002474,1549.0379399759986,left,1,3,0.7860012890014332,K10M08,2022-11-28_12h07.35.988,t1_Paradigm,2021.1.4,59.956165570491834,
S,left,Pretarget,0,43,43,43,1550.5357622112497,1552.5374265323044,left,1,3,0.6627270035678521,K10M08,2022-11-28_12h07.35.988,t1_Paradigm,2021.1.4,59.956165570491834,
R,left,Distractor,0,44,44,44,1554.0358024719171,1556.03823190587,left,1,3,0.6336588084232062,K10M08,2022-11-28_12h07.35.988,t1_Paradigm,2021.1.4,59.956165570491834,
W,right,Target,0,45,45,45,1557.5362305822491,1559.5489856720087,right,1,3,0.8987985000421759,K10M08,2022-11-28_12h07.35.988,t1_Paradigm,2021.1.4,59.956165570491834,
S,right,Target,0,46,46,46,1561.0359009581443,1563.0376416301006,right,1,3,0.5464984936697874,K10M08,2022-11-28_12h07.35.988,t1_Paradigm,2021.1.4,59.956165570491834,
D,left,Distractor,0,47,47,47,1564.5361003366124,1566.537676116306,left,1,3,0.758133535127854,K10M08,2022-11-28_12h07.35.988,t1_Paradigm,2021.1.4,59.956165570491834,
T,left,Distractor,0,48,48,48,1568.0362480659678,1570.0383271840983,left,1,3,0.9217489999718964,K10M08,2022-11-28_12h07.35.988,t1_Paradigm,2021.1.4,59.956165570491834,
S,right,Target,0,49,49,49,1571.5357994242804,1573.5361933692184,right,1,3,0.8158872085623443,K10M08,2022-11-28_12h07.35.988,t1_Paradigm,2021.1.4,59.956165570491834,
K,left,Distractor,0,50,50,50,1575.0360976097872,1577.0368463617924,left,1,3,1.091208836704027,K10M08,2022-11-28_12h07.35.988,t1_Paradigm,2021.1.4,59.956165570491834,
S,left,Lure,0,51,51,51,1578.5360737100418,1580.537546191481,left,1,3,0.8384360643103719,K10M08,2022-11-28_12h07.35.988,t1_Paradigm,2021.1.4,59.956165570491834,
T,left,Pretarget,0,52,52,52,1582.03529367983,1584.0351457900833,left,1,3,1.1809031668817624,K10M08,2022-11-28_12h07.35.988,t1_Paradigm,2021.1.4,59.956165570491834,
V,left,Distractor,0,53,53,53,1585.5360448378487,1587.5371285072179,left,1,3,0.7666225991561078,K10M08,2022-11-28_12h07.35.988,t1_Paradigm,2021.1.4,59.956165570491834,
B,left,Distractor,0,54,54,54,1589.03620956972,1591.036359063466,left,1,3,0.916006001556525,K10M08,2022-11-28_12h07.35.988,t1_Paradigm,2021.1.4,59.956165570491834,
T,right,Target,0,55,55,55,1592.5358308628784,1594.5380225825356,right,1,3,0.6780568506219424,K10M08,2022-11-28_12h07.35.988,t1_Paradigm,2021.1.4,59.956165570491834,
Y,left,Pretarget,0,56,56,56,1596.0363828028203,1598.037145028502,left,1,3,0.5868108008871786,K10M08,2022-11-28_12h07.35.988,t1_Paradigm,2021.1.4,59.956165570491834,
T,left,Lure,0,57,57,57,1599.5359062513744,1601.5380184121022,left,1,3,0.9740586625121068,K10M08,2022-11-28_12h07.35.988,t1_Paradigm,2021.1.4,59.956165570491834,
P,left,Pretarget,0,58,58,58,1603.0359933491272,1605.038054181554,left,1,3,0.6740147447271738,K10M08,2022-11-28_12h07.35.988,t1_Paradigm,2021.1.4,59.956165570491834,
Y,right,Target,0,59,59,59,1606.5361365872377,1608.536850051023,right,1,3,0.5349977399455383,K10M08,2022-11-28_12h07.35.988,t1_Paradigm,2021.1.4,59.956165570491834,
R,left,Distractor,0,60,60,60,1610.035868557141,1612.0375588631723,left,1,3,0.8103546563070267,K10M08,2022-11-28_12h07.35.988,t1_Paradigm,2021.1.4,59.956165570491834,
P,right,Target,0,61,61,61,1613.5360634443641,1615.5386414097156,left,0,3,0.6533547714643646,K10M08,2022-11-28_12h07.35.988,t1_Paradigm,2021.1.4,59.956165570491834,
L,left,Distractor,0,62,62,62,1617.0358419305703,1619.038108076289,left,1,3,0.6578861004963983,K10M08,2022-11-28_12h07.35.988,t1_Paradigm,2021.1.4,59.956165570491834,
V,left,Distractor,0,63,63,63,1620.5358382413397,1622.5367522063898,left,1,3,1.2871951538254507,K10M08,2022-11-28_12h07.35.988,t1_Paradigm,2021.1.4,59.956165570491834,
H,left,Lure,0,0,0,0,1630.9275401186896,1632.9203252804582,None,0,3,,K10M08,2022-11-28_12h07.35.988,t1_Paradigm,2021.1.4,59.956165570491834,
B,left,Distractor,0,1,1,1,1634.4193957565003,1636.4212929798523,None,0,3,,K10M08,2022-11-28_12h07.35.988,t1_Paradigm,2021.1.4,59.956165570491834,
T,left,Distractor,0,2,2,2,1637.9194032953528,1639.921126964793,None,0,3,,K10M08,2022-11-28_12h07.35.988,t1_Paradigm,2021.1.4,59.956165570491834,
R,left,Distractor,0,3,3,3,1641.4194024933386,1643.4212474259548,left,1,3,0.7707914218772203,K10M08,2022-11-28_12h07.35.988,t1_Paradigm,2021.1.4,59.956165570491834,
H,left,Pretarget,0,4,4,4,1644.9195867941307,1646.9214188946644,left,1,3,0.5664748377166688,K10M08,2022-11-28_12h07.35.988,t1_Paradigm,2021.1.4,59.956165570491834,
K,left,Distractor,0,5,5,5,1648.4195471750572,1650.4203158167948,left,1,3,0.5556962094269693,K10M08,2022-11-28_12h07.35.988,t1_Paradigm,2021.1.4,59.956165570491834,
G,left,Distractor,0,6,6,6,1651.9193099419354,1653.9197921074228,left,1,3,0.6722246692224871,K10M08,2022-11-28_12h07.35.988,t1_Paradigm,2021.1.4,59.956165570491834,
H,right,Target,0,7,7,7,1655.4194833354559,1657.4211890399747,right,1,3,0.5949389625748154,K10M08,2022-11-28_12h07.35.988,t1_Paradigm,2021.1.4,59.956165570491834,
Y,left,Pretarget,0,8,8,8,1658.9194520572491,1660.9218741127697,left,1,3,0.6462717828690074,K10M08,2022-11-28_12h07.35.988,t1_Paradigm,2021.1.4,59.956165570491834,
S,left,Distractor,0,9,9,9,1662.4194403479923,1664.420794453472,left,1,3,0.9069539299234748,K10M08,2022-11-28_12h07.35.988,t1_Paradigm,2021.1.4,59.956165570491834,
P,left,Distractor,0,10,10,10,1665.9194934407133,1667.9359268468688,left,1,3,0.7199799049412832,K10M08,2022-11-28_12h07.35.988,t1_Paradigm,2021.1.4,59.956165570491834,
Y,right,Target,0,11,11,11,1669.4193826036062,1671.4217809197726,right,1,3,0.578384614083916,K10M08,2022-11-28_12h07.35.988,t1_Paradigm,2021.1.4,59.956165570491834,
H,left,Lure,0,12,12,12,1672.9193583830493,1674.9212511151854,left,1,3,0.6948261365178041,K10M08,2022-11-28_12h07.35.988,t1_Paradigm,2021.1.4,59.956165570491834,
Q,left,Distractor,0,13,13,13,1676.4192003880453,1678.4208839572384,left,1,3,0.49118163267849013,K10M08,2022-11-28_12h07.35.988,t1_Paradigm,2021.1.4,59.956165570491834,
V,left,Pretarget,0,14,14,14,1679.919398804108,1681.9212527191848,left,1,3,0.6228012628271244,K10M08,2022-11-28_12h07.35.988,t1_Paradigm,2021.1.4,59.956165570491834,
G,left,Distractor,0,15,15,15,1683.4193816412007,1685.4214492104657,left,1,3,0.8504289283882827,K10M08,2022-11-28_12h07.35.988,t1_Paradigm,2021.1.4,59.956165570491834,
Z,left,Pretarget,0,16,16,16,1686.919384368026,1688.9201353656244,left,1,3,0.6480188708519563,K10M08,2022-11-28_12h07.35.988,t1_Paradigm,2021.1.4,59.956165570491834,
V,right,Target,0,17,17,17,1690.419465049723,1692.4212795061758,right,1,3,0.41119862234336324,K10M08,2022-11-28_12h07.35.988,t1_Paradigm,2021.1.4,59.956165570491834,
N,left,Distractor,0,18,18,18,1693.9194449995994,1695.9205475962663,left,1,3,0.9115766875620466,K10M08,2022-11-28_12h07.35.988,t1_Paradigm,2021.1.4,59.956165570491834,
Z,right,Target,0,19,19,19,1697.4194980923494,1699.4199430448061,left,0,3,0.692112792719854,K10M08,2022-11-28_12h07.35.988,t1_Paradigm,2021.1.4,59.956165570491834,
R,left,Distractor,0,20,20,20,1700.9192659920664,1702.9199159370328,left,1,3,0.5359569381107576,K10M08,2022-11-28_12h07.35.988,t1_Paradigm,2021.1.4,59.956165570491834,
P,left,Distractor,0,21,21,21,1704.4194371399644,1706.4199780122144,left,1,3,0.6838880696159322,K10M08,2022-11-28_12h07.35.988,t1_Paradigm,2021.1.4,59.956165570491834,
Z,right,Target,0,22,22,22,1707.9192011900304,1709.9203156563744,right,1,3,0.448079309950117,K10M08,2022-11-28_12h07.35.988,t1_Paradigm,2021.1.4,59.956165570491834,
D,left,Pretarget,0,23,23,23,1711.4192940622452,1713.420741521113,left,1,3,0.5474355564801954,K10M08,2022-11-28_12h07.35.988,t1_Paradigm,2021.1.4,59.956165570491834,
K,left,Distractor,0,24,24,24,1714.9193933504866,1716.9212822329719,left,1,3,0.5346480656880885,K10M08,2022-11-28_12h07.35.988,t1_Paradigm,2021.1.4,59.956165570491834,
W,left,Distractor,0,25,25,25,1718.4195035459707,1720.4205868945282,left,1,3,0.571396262064809,K10M08,2022-11-28_12h07.35.988,t1_Paradigm,2021.1.4,59.956165570491834,
D,right,Target,0,26,26,26,1721.919452698843,1723.9204532804724,left,0,3,0.5598358391725924,K10M08,2022-11-28_12h07.35.988,t1_Paradigm,2021.1.4,59.956165570491834,
G,left,Pretarget,0,27,27,27,1725.4191978216113,1727.4213350049104,left,1,3,0.850568798079621,K10M08,2022-11-28_12h07.35.988,t1_Paradigm,2021.1.4,59.956165570491834,
V,left,Distractor,0,28,28,28,1728.9193965584855,1730.921581862116,left,1,3,0.7263683571072761,K10M08,2022-11-28_12h07.35.988,t1_Paradigm,2021.1.4,59.956165570491834,
D,right,Target,0,29,29,29,1732.4194371399644,1734.4201028042298,right,1,3,0.4919948658789508,K10M08,2022-11-28_12h07.35.988,t1_Paradigm,2021.1.4,59.956165570491834,
G,right,Target,0,30,30,30,1735.9194071449747,1737.9202572704235,left,0,3,0.9600161940907128,K10M08,2022-11-28_12h07.35.988,t1_Paradigm,2021.1.4,59.956165570491834,
B,left,Pretarget,0,31,31,31,1739.419251395564,1741.4209330399462,left,1,3,1.0270064003416337,K10M08,2022-11-28_12h07.35.988,t1_Paradigm,2021.1.4,59.956165570491834,
N,left,Distractor,0,32,32,32,1742.919231666252,1744.9208934209018,left,1,3,0.47108210061560385,K10M08,2022-11-28_12h07.35.988,t1_Paradigm,2021.1.4,59.956165570491834,
F,left,Distractor,0,33,33,33,1746.4195513454906,1748.421136749239,left,1,3,0.7312118265836034,K10M08,2022-11-28_12h07.35.988,t1_Paradigm,2021.1.4,59.956165570491834,
B,right,Target,0,34,34,34,1749.9193814808095,1751.921565501194,right,1,3,0.574539801425999,K10M08,2022-11-28_12h07.35.988,t1_Paradigm,2021.1.4,59.956165570491834,
Q,left,Pretarget,0,35,35,35,1753.419433611125,1755.421239726711,left,1,3,0.5469007794454228,K10M08,2022-11-28_12h07.35.988,t1_Paradigm,2021.1.4,59.956165570491834,
S,left,Pretarget,0,36,36,36,1756.9194225434621,1758.932321352564,left,1,3,0.779799543612171,K10M08,2022-11-28_12h07.35.988,t1_Paradigm,2021.1.4,59.956165570491834,
W,left,Distractor,0,37,37,37,1760.4193893404445,1762.4207639772503,left,1,3,0.6990780469786841,K10M08,2022-11-28_12h07.35.988,t1_Paradigm,2021.1.4,59.956165570491834,
Q,right,Target,0,38,38,38,1763.919486703875,1765.921881491231,left,0,3,1.2622803829144686,K10M08,2022-11-28_12h07.35.988,t1_Paradigm,2021.1.4,59.956165570491834,
S,right,Target,0,39,39,39,1767.419228297833,1769.4207607692515,right,1,3,1.0431440269458108,K10M08,2022-11-28_12h07.35.988,t1_Paradigm,2021.1.4,59.956165570491834,
T,left,Distractor,0,40,40,40,1770.919128047186,1772.9214682981838,left,1,3,0.6466644445899874,K10M08,2022-11-28_12h07.35.988,t1_Paradigm,2021.1.4,59.956165570491834,
G,left,Distractor,0,41,41,41,1774.4193983229052,1776.4214899523067,left,1,3,0.6985952398681547,K10M08,2022-11-28_12h07.35.988,t1_Paradigm,2021.1.4,59.956165570491834,
D,left,Distractor,0,42,42,42,1777.91919766122,1779.921442954801,left,1,3,0.9265058528690133,K10M08,2022-11-28_12h07.35.988,t1_Paradigm,2021.1.4,59.956165570491834,
S,left,Lure,0,43,43,43,1781.4192398466985,1783.4202275962161,left,1,3,1.0758982377301436,K10M08,2022-11-28_12h07.35.988,t1_Paradigm,2021.1.4,59.956165570491834,
Z,left,Pretarget,0,44,44,44,1784.9194636061147,1786.9196227239445,left,1,3,0.6485263797221705,K10M08,2022-11-28_12h07.35.988,t1_Paradigm,2021.1.4,59.956165570491834,
J,left,Distractor,0,45,45,45,1788.4193585434405,1790.42119706003,left,1,3,0.7789000146731269,K10M08,2022-11-28_12h07.35.988,t1_Paradigm,2021.1.4,59.956165570491834,
M,left,Pretarget,0,46,46,46,1791.919441470789,1793.9212103733153,left,1,3,0.542738372751046,K10M08,2022-11-28_12h07.35.988,t1_Paradigm,2021.1.4,59.956165570491834,
Z,right,Target,0,47,47,47,1795.4194621625065,1797.420913150214,right,1,3,1.059489854145795,K10M08,2022-11-28_12h07.35.988,t1_Paradigm,2021.1.4,59.956165570491834,
P,left,Distractor,0,48,48,48,1798.9194950447418,1800.9215035864036,left,1,3,1.0786135063681286,K10M08,2022-11-28_12h07.35.988,t1_Paradigm,2021.1.4,59.956165570491834,
M,right,Target,0,49,49,49,1802.4194554256683,1804.4213035663124,right,1,3,0.6027062219800428,K10M08,2022-11-28_12h07.35.988,t1_Paradigm,2021.1.4,59.956165570491834,
K,left,Distractor,0,50,50,50,1805.9194796462252,1807.9214124786085,left,1,3,0.6386421475617681,K10M08,2022-11-28_12h07.35.988,t1_Paradigm,2021.1.4,59.956165570491834,
Y,left,Distractor,0,51,51,51,1809.4193396161427,1811.4214620425482,left,1,3,1.2824668523098808,K10M08,2022-11-28_12h07.35.988,t1_Paradigm,2021.1.4,59.956165570491834,
X,left,Distractor,0,52,52,52,1812.9193388141284,1814.9202030548768,left,1,3,0.6799043496721424,K10M08,2022-11-28_12h07.35.988,t1_Paradigm,2021.1.4,59.956165570491834,
F,left,Pretarget,0,53,53,53,1816.419208728883,1818.421679546329,left,1,3,0.9703755340888165,K10M08,2022-11-28_12h07.35.988,t1_Paradigm,2021.1.4,59.956165570491834,
M,left,Lure,0,54,54,54,1819.9194449995994,1821.9217579824326,left,1,3,0.8144233888015151,K10M08,2022-11-28_12h07.35.988,t1_Paradigm,2021.1.4,59.956165570491834,
V,left,Distractor,0,55,55,55,1823.4194313655316,1825.420137771638,left,1,3,1.0438655108155217,K10M08,2022-11-28_12h07.35.988,t1_Paradigm,2021.1.4,59.956165570491834,
F,right,Target,0,56,56,56,1826.919393671269,1828.9201215711364,left,0,3,0.48780743664246984,K10M08,2022-11-28_12h07.35.988,t1_Paradigm,2021.1.4,59.956165570491834,
S,left,Distractor,0,57,57,57,1830.4193521274137,1832.4213141528016,left,1,3,0.8265814658952877,K10M08,2022-11-28_12h07.35.988,t1_Paradigm,2021.1.4,59.956165570491834,
D,left,Distractor,0,58,58,58,1833.9192521975783,1835.9206563481712,left,1,3,0.7992866645508911,K10M08,2022-11-28_12h07.35.988,t1_Paradigm,2021.1.4,59.956165570491834,
F,right,Target,0,59,59,59,1837.419377149985,1839.420819476014,left,0,3,0.4191384732548613,K10M08,2022-11-28_12h07.35.988,t1_Paradigm,2021.1.4,59.956165570491834,
V,left,Pretarget,0,60,60,60,1840.9193554958329,1842.9213787944173,left,1,3,1.1589817999338266,K10M08,2022-11-28_12h07.35.988,t1_Paradigm,2021.1.4,59.956165570491834,
J,left,Distractor,0,61,61,61,1844.4194233454764,1846.421994253149,left,1,3,0.601988908572821,K10M08,2022-11-28_12h07.35.988,t1_Paradigm,2021.1.4,59.956165570491834,
V,left,Lure,0,62,62,62,1847.9196349144331,1849.9209832454799,left,1,3,0.5752474907785654,K10M08,2022-11-28_12h07.35.988,t1_Paradigm,2021.1.4,59.956165570491834,
V,right,Target,0,63,63,63,1851.419422383071,1853.4191015810065,right,1,3,0.7569892342144158,K10M08,2022-11-28_12h07.35.988,t1_Paradigm,2021.1.4,59.956165570491834,
R,left,Distractor,0,0,0,0,1925.4695868422277,1927.470712536655,None,0,4,,K10M08,2022-11-28_12h07.35.988,t1_Paradigm,2021.1.4,59.956165570491834,
F,left,Distractor,0,1,1,1,1928.9693236241583,1930.9712150730775,None,0,4,,K10M08,2022-11-28_12h07.35.988,t1_Paradigm,2021.1.4,59.956165570491834,
P,left,Pretarget,0,2,2,2,1932.4695034337055,1934.4699772583263,None,0,4,,K10M08,2022-11-28_12h07.35.988,t1_Paradigm,2021.1.4,59.956165570491834,
H,left,Distractor,0,3,3,3,1935.9692870527215,1937.9712554941361,None,0,4,,K10M08,2022-11-28_12h07.35.988,t1_Paradigm,2021.1.4,59.956165570491834,
Z,left,Distractor,0,4,4,4,1939.4694027018559,1941.4708713336731,left,1,4,0.6892364814702887,K10M08,2022-11-28_12h07.35.988,t1_Paradigm,2021.1.4,59.956165570491834,
T,left,Distractor,0,5,5,5,1942.9692498396907,1944.970577639382,left,1,4,0.8693889715359546,K10M08,2022-11-28_12h07.35.988,t1_Paradigm,2021.1.4,59.956165570491834,
P,right,Target,0,6,6,6,1946.4692804762744,1948.469658381102,left,0,4,0.6985121521574911,K10M08,2022-11-28_12h07.35.988,t1_Paradigm,2021.1.4,59.956165570491834,
G,left,Distractor,0,7,7,7,1949.9694134487363,1951.9707916143525,left,1,4,0.7331331100722309,K10M08,2022-11-28_12h07.35.988,t1_Paradigm,2021.1.4,59.956165570491834,
L,left,Distractor,0,8,8,8,1953.4692410176212,1955.469337899849,left,1,4,0.5308045362762641,K10M08,2022-11-28_12h07.35.988,t1_Paradigm,2021.1.4,59.956165570491834,
P,left,Lure,0,9,9,9,1956.9693387018342,1958.9706703511765,left,1,4,1.0454842779727187,K10M08,2022-11-28_12h07.35.988,t1_Paradigm,2021.1.4,59.956165570491834,
Q,left,Pretarget,0,10,10,10,1960.4692240151053,1962.470269509009,left,1,4,0.9218728295818437,K10M08,2022-11-28_12h07.35.988,t1_Paradigm,2021.1.4,59.956165570491834,
D,left,Distractor,0,11,11,11,1963.969256576529,1965.9704214087978,left,1,4,0.5736928840051405,K10M08,2022-11-28_12h07.35.988,t1_Paradigm,2021.1.4,59.956165570491834,
M,left,Pretarget,0,12,12,12,1967.4691637043143,1969.4707712434174,left,1,4,0.48163167625898495,K10M08,2022-11-28_12h07.35.988,t1_Paradigm,2021.1.4,59.956165570491834,
C,left,Distractor,0,13,13,13,1970.9693832933262,1972.969498461258,left,1,4,0.8706773125741165,K10M08,2022-11-28_12h07.35.988,t1_Paradigm,2021.1.4,59.956165570491834,
Q,right,Target,0,14,14,14,1974.4694764863234,1976.470137659373,right,1,4,1.049838524282677,K10M08,2022-11-28_12h07.35.988,t1_Paradigm,2021.1.4,59.956165570491834,
R,left,Distractor,0,15,15,15,1977.9694920452312,1979.971516947815,right,0,4,1.2286211895407178,K10M08,2022-11-28_12h07.35.988,t1_Paradigm,2021.1.4,59.956165570491834,
M,right,Target,0,16,16,16,1981.4694325364544,1983.4707465416577,None,0,4,,K10M08,2022-11-28_12h07.35.988,t1_Paradigm,2021.1.4,59.956165570491834,
S,left,Distractor,0,17,17,17,1984.9694269224128,1986.9700884162448,left,1,4,1.0624675388389733,K10M08,2022-11-28_12h07.35.988,t1_Paradigm,2021.1.4,59.956165570491834,
Z,left,Distractor,0,18,18,18,1988.469487393595,1990.4700667621219,left,1,4,0.730084528127918,K10M08,2022-11-28_12h07.35.988,t1_Paradigm,2021.1.4,59.956165570491834,
L,left,Pretarget,0,19,19,19,1991.969194982521,1993.9711236445,left,1,4,1.036943564802641,K10M08,2022-11-28_12h07.35.988,t1_Paradigm,2021.1.4,59.956165570491834,
M,right,Target,0,20,20,20,1995.4694402356981,1997.4696824412385,right,1,4,0.8182547277247068,K10M08,2022-11-28_12h07.35.988,t1_Paradigm,2021.1.4,59.956165570491834,
P,left,Distractor,0,21,21,21,1998.9694522657664,2000.9714386721025,left,1,4,0.6925676900427788,K10M08,2022-11-28_12h07.35.988,t1_Paradigm,2021.1.4,59.956165570491834,
F,left,Distractor,0,22,22,22,2002.4694845063786,2004.4695252482488,left,1,4,1.1784599384118337,K10M08,2022-11-28_12h07.35.988,t1_Paradigm,2021.1.4,59.956165570491834,
L,right,Target,0,23,23,23,2005.9693637244054,2007.969885348546,left,0,4,0.6860538042674307,K10M08,2022-11-28_12h07.35.988,t1_Paradigm,2021.1.4,59.956165570491834,
L,left,Lure,0,24,24,24,2009.4692098998348,2011.4691730075865,left,1,4,0.7228530081920326,K10M08,2022-11-28_12h07.35.988,t1_Paradigm,2021.1.4,59.956165570491834,
V,left,Pretarget,0,25,25,25,2012.9694756843382,2014.971381248528,left,1,4,0.8365722043672577,K10M08,2022-11-28_12h07.35.988,t1_Paradigm,2021.1.4,59.956165570491834,
Z,left,Distractor,0,26,26,26,2016.4693600351748,2018.4719694391242,left,1,4,0.4881705845473334,K10M08,2022-11-28_12h07.35.988,t1_Paradigm,2021.1.4,59.956165570491834,
H,left,Distractor,0,27,27,27,2019.969176055194,2021.970538180729,left,1,4,0.4296639887325,K10M08,2022-11-28_12h07.35.988,t1_Paradigm,2021.1.4,59.956165570491834,
X,left,Distractor,0,28,28,28,2023.4694556341856,2025.4715931382962,left,1,4,0.6885169224697165,K10M08,2022-11-28_12h07.35.988,t1_Paradigm,2021.1.4,59.956165570491834,
V,right,Target,0,29,29,29,2026.969333248213,2028.9705859802489,right,1,4,0.869495157035999,K10M08,2022-11-28_12h07.35.988,t1_Paradigm,2021.1.4,59.956165570491834,
C,left,Distractor,0,30,30,30,2030.4694155339384,2032.4718661408406,left,1,4,0.840189247566741,K10M08,2022-11-28_12h07.35.988,t1_Paradigm,2021.1.4,59.956165570491834,
S,left,Pretarget,0,31,31,31,2033.96942114798,2035.9709876244306,left,1,4,0.8611244689673185,K10M08,2022-11-28_12h07.35.988,t1_Paradigm,2021.1.4,59.956165570491834,
D,left,Distractor,0,32,32,32,2037.4692195238895,2039.4709351732745,left,1,4,1.0410915354150347,K10M08,2022-11-28_12h07.35.988,t1_Paradigm,2021.1.4,59.956165570491834,
V,left,Distractor,0,33,33,33,2040.968980686739,2042.9708573787939,left,1,4,0.8051576629804913,K10M08,2022-11-28_12h07.35.988,t1_Paradigm,2021.1.4,59.956165570491834,
R,left,Distractor,0,34,34,34,2044.4692772682465,2046.4695335890865,left,1,4,0.6827870769193396,K10M08,2022-11-28_12h07.35.988,t1_Paradigm,2021.1.4,59.956165570491834,
S,right,Target,0,35,35,35,2047.9691728471953,2049.9701211380598,left,0,4,1.2621052250033244,K10M08,2022-11-28_12h07.35.988,t1_Paradigm,2021.1.4,59.956165570491834,
Y,left,Distractor,0,36,36,36,2051.469413929939,2053.471136636974,left,1,4,1.2008345986250788,K10M08,2022-11-28_12h07.35.988,t1_Paradigm,2021.1.4,59.956165570491834,
N,left,Pretarget,0,37,37,37,2054.96943879209,2056.9711881256953,left,1,4,0.5007023960934021,K10M08,2022-11-28_12h07.35.988,t1_Paradigm,2021.1.4,59.956165570491834,
Z,left,Pretarget,0,38,38,38,2058.4695550828474,2060.47018481727,left,1,4,0.7621615257521626,K10M08,2022-11-28_12h07.35.988,t1_Paradigm,2021.1.4,59.956165570491834,
P,left,Pretarget,0,39,39,39,2061.969501027692,2063.9706081155746,left,1,4,0.7493705061497167,K10M08,2022-11-28_12h07.35.988,t1_Paradigm,2021.1.4,59.956165570491834,
M,left,Distractor,0,40,40,40,2065.469550912414,2067.471013448987,left,1,4,0.9451431691704784,K10M08,2022-11-28_12h07.35.988,t1_Paradigm,2021.1.4,59.956165570491834,
N,right,Target,0,41,41,41,2068.969211985037,2070.970747985266,left,0,4,0.8692641795496456,K10M08,2022-11-28_12h07.35.988,t1_Paradigm,2021.1.4,59.956165570491834,
Z,right,Target,0,42,42,42,2072.469360676798,2074.471007032931,left,0,4,0.5050986674614251,K10M08,2022-11-28_12h07.35.988,t1_Paradigm,2021.1.4,59.956165570491834,
P,right,Target,0,43,43,43,2075.9694593234162,2077.9700765465677,left,0,4,0.4140797456202563,K10M08,2022-11-28_12h07.35.988,t1_Paradigm,2021.1.4,59.956165570491834,
X,left,Pretarget,0,44,44,44,2079.469198992563,2081.470017037791,left,1,4,0.7380109053628985,K10M08,2022-11-28_12h07.35.988,t1_Paradigm,2021.1.4,59.956165570491834,
Z,left,Lure,0,45,45,45,2082.9693913133815,2084.9857554262853,left,1,4,0.7264219310600311,K10M08,2022-11-28_12h07.35.988,t1_Paradigm,2021.1.4,59.956165570491834,
R,left,Pretarget,0,46,46,46,2086.469120075257,2088.470130601723,left,1,4,0.7300065732561052,K10M08,2022-11-28_12h07.35.988,t1_Paradigm,2021.1.4,59.956165570491834,
K,left,Distractor,0,47,47,47,2089.9694711930933,2091.970164446335,left,1,4,0.5739915507147089,K10M08,2022-11-28_12h07.35.988,t1_Paradigm,2021.1.4,59.956165570491834,
X,right,Target,0,48,48,48,2093.4694411981036,2095.4711632635444,left,0,4,0.880990136298351,K10M08,2022-11-28_12h07.35.988,t1_Paradigm,2021.1.4,59.956165570491834,
B,left,Distractor,0,49,49,49,2096.9692838446936,2098.9702231531264,left,1,4,0.40563046105671674,K10M08,2022-11-28_12h07.35.988,t1_Paradigm,2021.1.4,59.956165570491834,
R,right,Target,0,50,50,50,2100.4693350126327,2102.4707083662215,left,0,4,0.23328533064341173,K10M08,2022-11-28_12h07.35.988,t1_Paradigm,2021.1.4,59.956165570491834,
Y,left,Pretarget,0,51,51,51,2103.9691292181087,2105.971043764788,left,1,4,0.49281643994618207,K10M08,2022-11-28_12h07.35.988,t1_Paradigm,2021.1.4,59.956165570491834,
W,left,Pretarget,0,52,52,52,2107.4693164061173,2109.4715584916703,left,1,4,0.592444726586109,K10M08,2022-11-28_12h07.35.988,t1_Paradigm,2021.1.4,59.956165570491834,
Z,left,Distractor,0,53,53,53,2110.969224496308,2112.970824656979,left,1,4,0.6133975921256933,K10M08,2022-11-28_12h07.35.988,t1_Paradigm,2021.1.4,59.956165570491834,
Q,left,Distractor,0,54,54,54,2114.469427082804,2116.4699204763747,left,1,4,0.4422307676868513,K10M08,2022-11-28_12h07.35.988,t1_Paradigm,2021.1.4,59.956165570491834,
Y,right,Target,0,55,55,55,2117.96907628575,2119.97073290759,right,1,4,0.7492579046229366,K10M08,2022-11-28_12h07.35.988,t1_Paradigm,2021.1.4,59.956165570491834,
W,right,Target,0,56,56,56,2121.469396927423,2123.471321739751,right,1,4,0.8325246448221151,K10M08,2022-11-28_12h07.35.988,t1_Paradigm,2021.1.4,59.956165570491834,
H,left,Pretarget,0,57,57,57,2124.9693310025905,2126.9706401957956,left,1,4,0.8373892871895805,K10M08,2022-11-28_12h07.35.988,t1_Paradigm,2021.1.4,59.956165570491834,
M,left,Distractor,0,58,58,58,2128.469224335917,2130.4700770277705,left,1,4,0.6018320363946259,K10M08,2022-11-28_12h07.35.988,t1_Paradigm,2021.1.4,59.956165570491834,
R,left,Pretarget,0,59,59,59,2131.969192416116,2133.982143836736,left,1,4,0.4819056412088685,K10M08,2022-11-28_12h07.35.988,t1_Paradigm,2021.1.4,59.956165570491834,
J,left,Distractor,0,60,60,60,2135.46943349886,2137.4702592433605,left,1,4,0.6418594713904895,K10M08,2022-11-28_12h07.35.988,t1_Paradigm,2021.1.4,59.956165570491834,
H,right,Target,0,61,61,61,2138.9691827920324,2140.970818882546,right,1,4,0.7412567805731669,K10M08,2022-11-28_12h07.35.988,t1_Paradigm,2021.1.4,59.956165570491834,
Z,left,Distractor,0,62,62,62,2142.4694036642613,2144.4819900121365,left,1,4,0.8619396269787103,K10M08,2022-11-28_12h07.35.988,t1_Paradigm,2021.1.4,59.956165570491834,
R,right,Target,0,63,63,63,2145.9693906717876,2147.970150010253,left,0,4,0.7497888320649508,K10M08,2022-11-28_12h07.35.988,t1_Paradigm,2021.1.4,59.956165570491834,
J,left,Pretarget,0,0,0,0,2159.6610800057824,2161.6534343303647,None,0,4,,K10M08,2022-11-28_12h07.35.988,t1_Paradigm,2021.1.4,59.956165570491834,
G,left,Pretarget,0,1,1,1,2163.152504164813,2165.1530225809256,None,0,4,,K10M08,2022-11-28_12h07.35.988,t1_Paradigm,2021.1.4,59.956165570491834,
Z,left,Distractor,0,2,2,2,2166.6526968064427,2168.65344235042,None,0,4,,K10M08,2022-11-28_12h07.35.988,t1_Paradigm,2021.1.4,59.956165570491834,
F,left,Distractor,0,3,3,3,2170.152521167329,2172.1541062502656,None,0,4,,K10M08,2022-11-28_12h07.35.988,t1_Paradigm,2021.1.4,59.956165570491834,
J,right,Target,0,4,4,4,2173.6528658691386,2175.6544390824274,right,1,4,0.6339600415085442,K10M08,2022-11-28_12h07.35.988,t1_Paradigm,2021.1.4,59.956165570491834,
G,right,Target,0,5,5,5,2177.152713327756,2179.1545990022423,right,1,4,0.6374753904528916,K10M08,2022-11-28_12h07.35.988,t1_Paradigm,2021.1.4,59.956165570491834,
H,left,Distractor,0,6,6,6,2180.652728565852,2182.654161588638,left,1,4,0.514030759135494,K10M08,2022-11-28_12h07.35.988,t1_Paradigm,2021.1.4,59.956165570491834,
P,left,Distractor,0,7,7,7,2184.152690550807,2186.153926280327,left,1,4,0.6303122013632674,K10M08,2022-11-28_12h07.35.988,t1_Paradigm,2021.1.4,59.956165570491834,
G,left,Lure,0,8,8,8,2187.6524966259603,2189.654788115062,left,1,4,0.7293582322599832,K10M08,2022-11-28_12h07.35.988,t1_Paradigm,2021.1.4,59.956165570491834,
S,left,Distractor,0,9,9,9,2191.1529497588635,2193.153379954427,left,1,4,0.6067788040963933,K10M08,2022-11-28_12h07.35.988,t1_Paradigm,2021.1.4,59.956165570491834,
R,left,Pretarget,0,10,10,10,2194.652675954305,2196.6531183403567,left,1,4,0.6272273687645793,K10M08,2022-11-28_12h07.35.988,t1_Paradigm,2021.1.4,59.956165570491834,
T,left,Pretarget,0,11,11,11,2198.152804435522,2200.1544129370595,left,1,4,0.7417973320116289,K10M08,2022-11-28_12h07.35.988,t1_Paradigm,2021.1.4,59.956165570491834,
X,left,Distractor,0,12,12,12,2201.6525832425104,2203.653932856774,left,1,4,0.5381672642542981,K10M08,2022-11-28_12h07.35.988,t1_Paradigm,2021.1.4,59.956165570491834,
F,left,Pretarget,0,13,13,13,2205.1526305608277,2207.16558935988,left,1,4,0.6424645040533505,K10M08,2022-11-28_12h07.35.988,t1_Paradigm,2021.1.4,59.956165570491834,
R,right,Target,0,14,14,14,2208.6528658691386,2210.6533576586808,left,0,4,1.1547173782018945,K10M08,2022-11-28_12h07.35.988,t1_Paradigm,2021.1.4,59.956165570491834,
T,right,Target,0,15,15,15,2212.1524906911363,2214.1552489472087,right,1,4,1.0289940898655914,K10M08,2022-11-28_12h07.35.988,t1_Paradigm,2021.1.4,59.956165570491834,
C,left,Distractor,0,16,16,16,2215.652813578403,2217.6529569769045,left,1,4,0.6350530141498893,K10M08,2022-11-28_12h07.35.988,t1_Paradigm,2021.1.4,59.956165570491834,
F,right,Target,0,17,17,17,2219.152737708704,2221.1547276438505,right,1,4,1.0213827402621973,K10M08,2022-11-28_12h07.35.988,t1_Paradigm,2021.1.4,59.956165570491834,
M,left,Distractor,0,18,18,18,2222.6528299392958,2224.6536486261466,left,1,4,0.5465998671425041,K10M08,2022-11-28_12h07.35.988,t1_Paradigm,2021.1.4,59.956165570491834,
N,left,Distractor,0,19,19,19,2226.152891052101,2228.1533324757183,left,1,4,0.7908511744753923,K10M08,2022-11-28_12h07.35.988,t1_Paradigm,2021.1.4,59.956165570491834,
R,left,Lure,0,20,20,20,2229.652630079625,2231.6542523756216,left,1,4,0.8737839597160928,K10M08,2022-11-28_12h07.35.988,t1_Paradigm,2021.1.4,59.956165570491834,
F,right,Target,0,21,21,21,2233.152820796444,2235.1536051574803,left,0,4,1.0544920788961463,K10M08,2022-11-28_12h07.35.988,t1_Paradigm,2021.1.4,59.956165570491834,
P,left,Distractor,0,22,22,22,2236.6518319241004,2238.654753468436,left,1,4,0.7210924465034623,K10M08,2022-11-28_12h07.35.988,t1_Paradigm,2021.1.4,59.956165570491834,
L,left,Pretarget,0,23,23,23,2240.152670019481,2242.154780255398,left,1,4,0.61347554702661,K10M08,2022-11-28_12h07.35.988,t1_Paradigm,2021.1.4,59.956165570491834,
T,left,Distractor,0,24,24,24,2243.6527490971785,2245.6535639344074,left,1,4,0.9704833235882688,K10M08,2022-11-28_12h07.35.988,t1_Paradigm,2021.1.4,59.956165570491834,
F,left,Distractor,0,25,25,25,2247.152822079661,2249.1533186812303,right,0,4,0.7991609101300128,K10M08,2022-11-28_12h07.35.988,t1_Paradigm,2021.1.4,59.956165570491834,
V,left,Distractor,0,26,26,26,2250.652708034526,2252.654152285366,left,1,4,1.0261581996746827,K10M08,2022-11-28_12h07.35.988,t1_Paradigm,2021.1.4,59.956165570491834,
L,right,Target,0,27,27,27,2254.152502881596,2256.1544613781443,left,0,4,0.8855978162318934,K10M08,2022-11-28_12h07.35.988,t1_Paradigm,2021.1.4,59.956165570491834,
S,left,Pretarget,0,28,28,28,2257.652626230003,2259.6541978392634,left,1,4,0.6821012021391653,K10M08,2022-11-28_12h07.35.988,t1_Paradigm,2021.1.4,59.956165570491834,
W,left,Distractor,0,29,29,29,2261.1528047563334,2263.1546240248135,left,1,4,0.7817089574818965,K10M08,2022-11-28_12h07.35.988,t1_Paradigm,2021.1.4,59.956165570491834,
Q,left,Distractor,0,30,30,30,2264.652761929261,2266.654662360641,left,1,4,0.6572736893722322,K10M08,2022-11-28_12h07.35.988,t1_Paradigm,2021.1.4,59.956165570491834,
L,right,Target,0,31,31,31,2268.152654941776,2270.1540109720663,left,0,4,1.2061839729140047,K10M08,2022-11-28_12h07.35.988,t1_Paradigm,2021.1.4,59.956165570491834,
S,right,Target,0,32,32,32,2271.6528591322713,2273.6532078441232,right,1,4,0.714988866558997,K10M08,2022-11-28_12h07.35.988,t1_Paradigm,2021.1.4,59.956165570491834,
Z,left,Pretarget,0,33,33,33,2275.1528114931716,2277.1531845859718,left,1,4,0.7188263007556088,K10M08,2022-11-28_12h07.35.988,t1_Paradigm,2021.1.4,59.956165570491834,
F,left,Distractor,0,34,34,34,2278.6527715533157,2280.653067974432,left,1,4,0.5793200728658121,K10M08,2022-11-28_12h07.35.988,t1_Paradigm,2021.1.4,59.956165570491834,
V,left,Distractor,0,35,35,35,2282.15281823001,2284.154679523548,left,1,4,0.9493200119177345,K10M08,2022-11-28_12h07.35.988,t1_Paradigm,2021.1.4,59.956165570491834,
M,left,Distractor,0,36,36,36,2285.6528061999416,2287.653118019545,left,1,4,0.8109183055057656,K10M08,2022-11-28_12h07.35.988,t1_Paradigm,2021.1.4,59.956165570491834,
Z,right,Target,0,37,37,37,2289.152544906683,2291.1534556637052,right,1,4,0.8627073062816635,K10M08,2022-11-28_12h07.35.988,t1_Paradigm,2021.1.4,59.956165570491834,
H,left,Pretarget,0,38,38,38,2292.6527968966984,2294.652815503214,left,1,4,0.8672088007442653,K10M08,2022-11-28_12h07.35.988,t1_Paradigm,2021.1.4,59.956165570491834,
L,left,Distractor,0,39,39,39,2296.152781658602,2298.153403052158,left,1,4,0.8227546181879006,K10M08,2022-11-28_12h07.35.988,t1_Paradigm,2021.1.4,59.956165570491834,
G,left,Distractor,0,40,40,40,2299.6524449768185,2301.6546828919672,left,1,4,0.6651763272529934,K10M08,2022-11-28_12h07.35.988,t1_Paradigm,2021.1.4,59.956165570491834,
K,left,Distractor,0,41,41,41,2303.1524810670526,2305.1545951526205,left,1,4,0.4456242118321825,K10M08,2022-11-28_12h07.35.988,t1_Paradigm,2021.1.4,59.956165570491834,
H,right,Target,0,42,42,42,2306.6526640846278,2308.6536229619815,left,0,4,0.6902133237454109,K10M08,2022-11-28_12h07.35.988,t1_Paradigm,2021.1.4,59.956165570491834,
B,left,Distractor,0,43,43,43,2310.1527174981893,2312.154499874392,left,1,4,0.6777588255063165,K10M08,2022-11-28_12h07.35.988,t1_Paradigm,2021.1.4,59.956165570491834,
Z,left,Distractor,0,44,44,44,2313.652539613424,2315.6541872528032,left,1,4,1.4018863802484702,K10M08,2022-11-28_12h07.35.988,t1_Paradigm,2021.1.4,59.956165570491834,
T,left,Pretarget,0,45,45,45,2317.1525609467644,2319.155037217861,left,1,4,0.7649820174265187,K10M08,2022-11-28_12h07.35.988,t1_Paradigm,2021.1.4,59.956165570491834,
H,right,Target,0,46,46,46,2320.652764495666,2322.6536033930606,right,1,4,1.2503670777659863,K10M08,2022-11-28_12h07.35.988,t1_Paradigm,2021.1.4,59.956165570491834,
F,left,Distractor,0,47,47,47,2324.152522771328,2326.154741117556,left,1,4,0.42136548113194294,K10M08,2022-11-28_12h07.35.988,t1_Paradigm,2021.1.4,59.956165570491834,
R,left,Distractor,0,48,48,48,2327.6526939192263,2329.654733899515,left,1,4,1.017298288497841,K10M08,2022-11-28_12h07.35.988,t1_Paradigm,2021.1.4,59.956165570491834,
T,right,Target,0,49,49,49,2331.1527608064644,2333.154761969694,right,1,4,0.4773765577701852,K10M08,2022-11-28_12h07.35.988,t1_Paradigm,2021.1.4,59.956165570491834,
H,right,Target,0,50,50,50,2334.652576505672,2336.653677177528,None,0,4,,K10M08,2022-11-28_12h07.35.988,t1_Paradigm,2021.1.4,59.956165570491834,
Y,left,Pretarget,0,51,51,51,2338.152661678614,2340.154585849348,left,1,4,0.5653642209945247,K10M08,2022-11-28_12h07.35.988,t1_Paradigm,2021.1.4,59.956165570491834,
H,left,Distractor,0,52,52,52,2341.6528764555987,2343.6533759443846,left,1,4,1.162874091300182,K10M08,2022-11-28_12h07.35.988,t1_Paradigm,2021.1.4,59.956165570491834,
S,left,Distractor,0,53,53,53,2345.152714610973,2347.1532432927343,left,1,4,0.8310098175134044,K10M08,2022-11-28_12h07.35.988,t1_Paradigm,2021.1.4,59.956165570491834,
Q,left,Distractor,0,54,54,54,2348.6529078941967,2350.6550332078186,left,1,4,0.7528489628748503,K10M08,2022-11-28_12h07.35.988,t1_Paradigm,2021.1.4,59.956165570491834,
Y,right,Target,0,55,55,55,2352.152983443084,2354.153283713793,left,0,4,0.6629489985643886,K10M08,2022-11-28_12h07.35.988,t1_Paradigm,2021.1.4,59.956165570491834,
R,left,Distractor,0,56,56,56,2355.6527314530686,2357.6545991626335,left,1,4,0.4415593289886601,K10M08,2022-11-28_12h07.35.988,t1_Paradigm,2021.1.4,59.956165570491834,
H,left,Pretarget,0,57,57,57,2359.152504164813,2361.1535416386614,left,1,4,0.5268127962772269,K10M08,2022-11-28_12h07.35.988,t1_Paradigm,2021.1.4,59.956165570491834,
J,left,Distractor,0,58,58,58,2362.6526528565737,2364.6539440848283,left,1,4,0.4021019592473749,K10M08,2022-11-28_12h07.35.988,t1_Paradigm,2021.1.4,59.956165570491834,
V,left,Distractor,0,59,59,59,2366.1526873427792,2368.1544928167714,left,1,4,0.5174225992814172,K10M08,2022-11-28_12h07.35.988,t1_Paradigm,2021.1.4,59.956165570491834,
Y,left,Lure,0,60,60,60,2369.652601849026,2371.654289909464,left,1,4,0.5378320261079352,K10M08,2022-11-28_12h07.35.988,t1_Paradigm,2021.1.4,59.956165570491834,
H,right,Target,0,61,61,61,2373.1527293678664,2375.154316375614,left,0,4,0.3980470212409273,K10M08,2022-11-28_12h07.35.988,t1_Paradigm,2021.1.4,59.956165570491834,
L,left,Distractor,0,62,62,62,2376.652716054581,2378.6545998042566,left,1,4,0.4333734228857793,K10M08,2022-11-28_12h07.35.988,t1_Paradigm,2021.1.4,59.956165570491834,
P,left,Distractor,0,63,63,63,2380.1526048966625,2382.1546785611426,left,1,4,0.3257250848109834,K10M08,2022-11-28_12h07.35.988,t1_Paradigm,2021.1.4,59.956165570491834,
