Letter,CorrAnswer,Stimulus,nback_run.thisRepN,nback_run.thisTrialN,nback_run.thisN,nback_run.thisIndex,fixcross.started,nback_trial.started,trial_resp.keys,trial_resp.corr,currentlevel,trial_resp.rt,Participant,date,expName,psychopyVersion,frameRate,
H,left,Distractor,0,0,0,0,2189.482002357254,2191.4164743457804,None,0,1,,K13R08,2022-11-30_17h18.45.815,t1_Paradigm,2021.1.4,60.0054284631568,
Q,left,Pretarget,0,1,1,1,2192.918903138925,2194.917376762256,left,1,1,0.4719326982740313,K13R08,2022-11-30_17h18.45.815,t1_Paradigm,2021.1.4,60.0054284631568,
Q,right,Target,0,2,2,2,2196.4151035581453,2198.414931929001,left,0,1,0.4943551652104361,K13R08,2022-11-30_17h18.45.815,t1_Paradigm,2021.1.4,60.0054284631568,
T,left,Distractor,0,3,3,3,2199.9146913273726,2201.9174781357287,left,1,1,0.9118827044585487,K13R08,2022-11-30_17h18.45.815,t1_Paradigm,2021.1.4,60.0054284631568,
Q,left,Lure,0,4,4,4,2203.4150448513537,2205.4172946368926,left,1,1,0.8359109786833869,K13R08,2022-11-30_17h18.45.815,t1_Paradigm,2021.1.4,60.0054284631568,
L,left,Distractor,0,5,5,5,2206.914997051834,2208.9165715488343,left,1,1,0.7607611480343621,K13R08,2022-11-30_17h18.45.815,t1_Paradigm,2021.1.4,60.0054284631568,
V,left,Pretarget,0,6,6,6,2210.414835046744,2212.4164865362545,left,1,1,0.7167349012888735,K13R08,2022-11-30_17h18.45.815,t1_Paradigm,2021.1.4,60.0054284631568,
V,right,Target,0,7,7,7,2213.9149380242307,2215.9149502147193,right,1,1,0.5144357763783773,K13R08,2022-11-30_17h18.45.815,t1_Paradigm,2021.1.4,60.0054284631568,
K,left,Distractor,0,8,8,8,2217.414636149406,2219.41654684706,left,1,1,0.7408200858044438,K13R08,2022-11-30_17h18.45.815,t1_Paradigm,2021.1.4,60.0054284631568,
G,left,Pretarget,0,9,9,9,2220.9151356383663,2222.9165641703876,left,1,1,0.7128300974145532,K13R08,2022-11-30_17h18.45.815,t1_Paradigm,2021.1.4,60.0054284631568,
G,right,Target,0,10,10,10,2224.4151487912604,2226.4149948062113,right,1,1,0.8944131020834902,K13R08,2022-11-30_17h18.45.815,t1_Paradigm,2021.1.4,60.0054284631568,
G,right,Target,0,11,11,11,2227.915190816333,2229.914740089298,right,1,1,0.7230457213736372,K13R08,2022-11-30_17h18.45.815,t1_Paradigm,2021.1.4,60.0054284631568,
P,left,Pretarget,0,12,12,12,2231.4149835781427,2233.417971208648,left,1,1,0.6436920992273372,K13R08,2022-11-30_17h18.45.815,t1_Paradigm,2021.1.4,60.0054284631568,
P,right,Target,0,13,13,13,2234.9149858237506,2236.9149178137013,right,1,1,0.6985614589648321,K13R08,2022-11-30_17h18.45.815,t1_Paradigm,2021.1.4,60.0054284631568,
G,left,Lure,0,14,14,14,2238.4149316081894,2240.4161480899784,left,1,1,0.8617461389803793,K13R08,2022-11-30_17h18.45.815,t1_Paradigm,2021.1.4,60.0054284631568,
Y,left,Distractor,0,15,15,15,2241.9150596082472,2243.9174373938586,left,1,1,0.8641714033146854,K13R08,2022-11-30_17h18.45.815,t1_Paradigm,2021.1.4,60.0054284631568,
B,left,Distractor,0,16,16,16,2245.415030415257,2247.4174258449784,left,1,1,0.6919827690726379,K13R08,2022-11-30_17h18.45.815,t1_Paradigm,2021.1.4,60.0054284631568,
T,left,Pretarget,0,17,17,17,2248.914993202212,2250.9169677394966,left,1,1,0.9524263229832286,K13R08,2022-11-30_17h18.45.815,t1_Paradigm,2021.1.4,60.0054284631568,
T,right,Target,0,18,18,18,2252.4149944854144,2254.414978124507,right,1,1,0.6063013243256137,K13R08,2022-11-30_17h18.45.815,t1_Paradigm,2021.1.4,60.0054284631568,
S,left,Distractor,0,19,19,19,2255.9151099741866,2257.917023238275,left,1,1,0.816196402782225,K13R08,2022-11-30_17h18.45.815,t1_Paradigm,2021.1.4,60.0054284631568,
T,left,Lure,0,20,20,20,2259.41497780371,2261.416836531411,left,1,1,0.6607096913794521,K13R08,2022-11-30_17h18.45.815,t1_Paradigm,2021.1.4,60.0054284631568,
J,left,Distractor,0,21,21,21,2262.915037793704,2264.916446435993,left,1,1,0.840848765525152,K13R08,2022-11-30_17h18.45.815,t1_Paradigm,2021.1.4,60.0054284631568,
P,left,Distractor,0,22,22,22,2266.4147285404324,2268.415086876441,left,1,1,0.7181364859134192,K13R08,2022-11-30_17h18.45.815,t1_Paradigm,2021.1.4,60.0054284631568,
F,left,Distractor,0,23,23,23,2269.9150615330727,2271.9164175637998,left,1,1,0.7208472641650587,K13R08,2022-11-30_17h18.45.815,t1_Paradigm,2021.1.4,60.0054284631568,
L,left,Distractor,0,24,24,24,2273.4149774828984,2275.416185303038,left,1,1,0.7731867780676112,K13R08,2022-11-30_17h18.45.815,t1_Paradigm,2021.1.4,60.0054284631568,
W,left,Pretarget,0,25,25,25,2276.9150454929622,2278.9172404213314,left,1,1,0.6961990718555171,K13R08,2022-11-30_17h18.45.815,t1_Paradigm,2021.1.4,60.0054284631568,
W,right,Target,0,26,26,26,2280.4151353175694,2282.415010846322,right,1,1,0.6543202747561736,K13R08,2022-11-30_17h18.45.815,t1_Paradigm,2021.1.4,60.0054284631568,
V,left,Distractor,0,27,27,27,2283.9150637786806,2285.9149104352546,left,1,1,0.6103822486184072,K13R08,2022-11-30_17h18.45.815,t1_Paradigm,2021.1.4,60.0054284631568,
W,left,Lure,0,28,28,28,2287.415001863861,2289.416618385949,left,1,1,0.7247761282196734,K13R08,2022-11-30_17h18.45.815,t1_Paradigm,2021.1.4,60.0054284631568,
R,left,Pretarget,0,29,29,29,2290.915165472965,2292.9166241603816,left,1,1,0.8567031290294835,K13R08,2022-11-30_17h18.45.815,t1_Paradigm,2021.1.4,60.0054284631568,
R,right,Target,0,30,30,30,2294.414903377605,2296.4147577334224,right,1,1,0.7185002755722962,K13R08,2022-11-30_17h18.45.815,t1_Paradigm,2021.1.4,60.0054284631568,
G,left,Distractor,0,31,31,31,2297.9151593777206,2299.9166161403264,left,1,1,0.6887086622300558,K13R08,2022-11-30_17h18.45.815,t1_Paradigm,2021.1.4,60.0054284631568,
R,left,Lure,0,32,32,32,2301.4149219841347,2303.4159796688473,left,1,1,1.045520543208113,K13R08,2022-11-30_17h18.45.815,t1_Paradigm,2021.1.4,60.0054284631568,
S,left,Distractor,0,33,33,33,2304.915056079437,2306.9167194386246,left,1,1,0.6806866834376706,K13R08,2022-11-30_17h18.45.815,t1_Paradigm,2021.1.4,60.0054284631568,
R,left,Lure,0,34,34,34,2308.4151099741866,2310.416366235455,left,1,1,0.7329267486638855,K13R08,2022-11-30_17h18.45.815,t1_Paradigm,2021.1.4,60.0054284631568,
P,left,Pretarget,0,35,35,35,2311.915144941624,2313.91722245641,left,1,1,0.672090789565118,K13R08,2022-11-30_17h18.45.815,t1_Paradigm,2021.1.4,60.0054284631568,
P,right,Target,0,36,36,36,2315.4150669867086,2317.41517349302,right,1,1,1.2221522873442154,K13R08,2022-11-30_17h18.45.815,t1_Paradigm,2021.1.4,60.0054284631568,
Y,left,Pretarget,0,37,37,37,2318.9148517284484,2320.9161137641495,left,1,1,0.6335573174001183,K13R08,2022-11-30_17h18.45.815,t1_Paradigm,2021.1.4,60.0054284631568,
Y,right,Target,0,38,38,38,2322.415228670987,2324.4151863251027,right,1,1,0.7020909243146889,K13R08,2022-11-30_17h18.45.815,t1_Paradigm,2021.1.4,60.0054284631568,
J,left,Distractor,0,39,39,39,2325.9151074077818,2327.916516050056,left,1,1,0.672803611974814,K13R08,2022-11-30_17h18.45.815,t1_Paradigm,2021.1.4,60.0054284631568,
Y,left,Lure,0,40,40,40,2329.4151436584216,2331.4163723306847,left,1,1,0.7570395221846411,K13R08,2022-11-30_17h18.45.815,t1_Paradigm,2021.1.4,60.0054284631568,
T,left,Distractor,0,41,41,41,2332.9149566307606,2334.916796751946,left,1,1,0.7605930477147922,K13R08,2022-11-30_17h18.45.815,t1_Paradigm,2021.1.4,60.0054284631568,
V,left,Distractor,0,42,42,42,2336.4150162999576,2338.4166350676533,left,1,1,0.7006255000451347,K13R08,2022-11-30_17h18.45.815,t1_Paradigm,2021.1.4,60.0054284631568,
N,left,Pretarget,0,43,43,43,2339.9150785355887,2341.916514125245,left,1,1,0.6728546195226954,K13R08,2022-11-30_17h18.45.815,t1_Paradigm,2021.1.4,60.0054284631568,
N,right,Target,0,44,44,44,2343.41514430003,2345.4151818338723,right,1,1,0.6302883433963871,K13R08,2022-11-30_17h18.45.815,t1_Paradigm,2021.1.4,60.0054284631568,
N,right,Target,0,45,45,45,2346.915054475423,2348.9141911968036,right,1,1,0.5231221364520025,K13R08,2022-11-30_17h18.45.815,t1_Paradigm,2021.1.4,60.0054284631568,
X,left,Distractor,0,46,46,46,2350.4149948062113,2352.416452852034,left,1,1,0.5889144889079034,K13R08,2022-11-30_17h18.45.815,t1_Paradigm,2021.1.4,60.0054284631568,
Z,left,Distractor,0,47,47,47,2353.9150454929622,2355.916548451074,left,1,1,0.6728514115093276,K13R08,2022-11-30_17h18.45.815,t1_Paradigm,2021.1.4,60.0054284631568,
H,left,Pretarget,0,48,48,48,2357.4148475580296,2359.4164300750854,left,1,1,0.6451215936394874,K13R08,2022-11-30_17h18.45.815,t1_Paradigm,2021.1.4,60.0054284631568,
H,right,Target,0,49,49,49,2360.9150615330727,2362.914799437698,right,1,1,0.6668017243791837,K13R08,2022-11-30_17h18.45.815,t1_Paradigm,2021.1.4,60.0054284631568,
K,left,Distractor,0,50,50,50,2364.4150615330727,2366.416670676699,left,1,1,0.7005703220784198,K13R08,2022-11-30_17h18.45.815,t1_Paradigm,2021.1.4,60.0054284631568,
V,left,Pretarget,0,51,51,51,2367.914976520493,2369.916231819341,left,1,1,0.8010471624002093,K13R08,2022-11-30_17h18.45.815,t1_Paradigm,2021.1.4,60.0054284631568,
V,right,Target,0,52,52,52,2371.414981653332,2373.415083347616,right,1,1,0.6465671281766845,K13R08,2022-11-30_17h18.45.815,t1_Paradigm,2021.1.4,60.0054284631568,
R,left,Distractor,0,53,53,53,2374.9150939340907,2376.916393503634,left,1,1,0.5689018877892522,K13R08,2022-11-30_17h18.45.815,t1_Paradigm,2021.1.4,60.0054284631568,
V,left,Lure,0,54,54,54,2378.4150079591054,2380.4162138544198,left,1,1,0.8132511181465816,K13R08,2022-11-30_17h18.45.815,t1_Paradigm,2021.1.4,60.0054284631568,
Y,left,Distractor,0,55,55,55,2381.914989673387,2383.916132049868,left,1,1,0.7373788410477573,K13R08,2022-11-30_17h18.45.815,t1_Paradigm,2021.1.4,60.0054284631568,
Q,left,Distractor,0,56,56,56,2385.4149922398065,2387.417190055392,left,1,1,0.8201287956617307,K13R08,2022-11-30_17h18.45.815,t1_Paradigm,2021.1.4,60.0054284631568,
Z,left,Pretarget,0,57,57,57,2388.915101954146,2390.9166071578657,left,1,1,0.6486154499580152,K13R08,2022-11-30_17h18.45.815,t1_Paradigm,2021.1.4,60.0054284631568,
Z,right,Target,0,58,58,58,2392.415100350132,2394.414882846264,right,1,1,0.6544165154191433,K13R08,2022-11-30_17h18.45.815,t1_Paradigm,2021.1.4,60.0054284631568,
B,left,Distractor,0,59,59,59,2395.915032019271,2397.9152135932964,left,1,1,0.8983201515802648,K13R08,2022-11-30_17h18.45.815,t1_Paradigm,2021.1.4,60.0054284631568,
S,left,Pretarget,0,60,60,60,2399.4150076383085,2401.417386707122,left,1,1,0.7081627467850922,K13R08,2022-11-30_17h18.45.815,t1_Paradigm,2021.1.4,60.0054284631568,
S,right,Target,0,61,61,61,2402.915092971685,2404.915024320013,right,1,1,0.6342646861594403,K13R08,2022-11-30_17h18.45.815,t1_Paradigm,2021.1.4,60.0054284631568,
T,left,Distractor,0,62,62,62,2406.4150146959582,2408.416638275681,left,1,1,0.6527374369034078,K13R08,2022-11-30_17h18.45.815,t1_Paradigm,2021.1.4,60.0054284631568,
D,left,Distractor,0,63,63,63,2409.9151054829563,2411.9164884610655,left,1,1,0.5929989419964841,K13R08,2022-11-30_17h18.45.815,t1_Paradigm,2021.1.4,60.0054284631568,
R,left,Distractor,0,0,0,0,2428.096611495115,2430.0998698826443,left,1,1,0.9534881781291915,K13R08,2022-11-30_17h18.45.815,t1_Paradigm,2021.1.4,60.0054284631568,
V,left,Distractor,0,1,1,1,2431.598335806717,2433.5997059527435,left,1,1,1.2137928246811498,K13R08,2022-11-30_17h18.45.815,t1_Paradigm,2021.1.4,60.0054284631568,
N,left,Pretarget,0,2,2,2,2435.098314954579,2437.1000116772047,left,1,1,0.6734500283200759,K13R08,2022-11-30_17h18.45.815,t1_Paradigm,2021.1.4,60.0054284631568,
N,right,Target,0,3,3,3,2438.5982876864,2440.5983649997215,right,1,1,0.775059941894142,K13R08,2022-11-30_17h18.45.815,t1_Paradigm,2021.1.4,60.0054284631568,
S,left,Distractor,0,4,4,4,2442.097505249927,2444.099582123119,left,1,1,0.682025390851777,K13R08,2022-11-30_17h18.45.815,t1_Paradigm,2021.1.4,60.0054284631568,
N,left,Lure,0,5,5,5,2445.5983736613707,2447.6000222636794,left,1,1,0.7014733801479451,K13R08,2022-11-30_17h18.45.815,t1_Paradigm,2021.1.4,60.0054284631568,
Z,left,Distractor,0,6,6,6,2449.0981648191664,2451.1001922888245,left,1,1,0.7212351139751263,K13R08,2022-11-30_17h18.45.815,t1_Paradigm,2021.1.4,60.0054284631568,
L,left,Pretarget,0,7,7,7,2452.5981086787942,2454.6000479278446,left,1,1,0.6135312426049495,K13R08,2022-11-30_17h18.45.815,t1_Paradigm,2021.1.4,60.0054284631568,
L,right,Target,0,8,8,8,2456.097951164935,2458.097632608391,right,1,1,0.5876251850131666,K13R08,2022-11-30_17h18.45.815,t1_Paradigm,2021.1.4,60.0054284631568,
H,left,Distractor,0,9,9,9,2459.5984179320803,2461.5992157670407,left,1,1,0.7021303829824319,K13R08,2022-11-30_17h18.45.815,t1_Paradigm,2021.1.4,60.0054284631568,
L,left,Lure,0,10,10,10,2463.098461561167,2465.1004085094755,left,1,1,1.008874350140104,K13R08,2022-11-30_17h18.45.815,t1_Paradigm,2021.1.4,60.0054284631568,
X,left,Pretarget,0,11,11,11,2466.598160007139,2468.6002028752846,left,1,1,0.7252862036402803,K13R08,2022-11-30_17h18.45.815,t1_Paradigm,2021.1.4,60.0054284631568,
X,right,Target,0,12,12,12,2470.098339335542,2472.0983226538374,right,1,1,0.6990314341092017,K13R08,2022-11-30_17h18.45.815,t1_Paradigm,2021.1.4,60.0054284631568,
X,right,Target,0,13,13,13,2473.598179255263,2475.5984298017574,right,1,1,0.5430317600548733,K13R08,2022-11-30_17h18.45.815,t1_Paradigm,2021.1.4,60.0054284631568,
R,left,Distractor,0,14,14,14,2477.098457390748,2479.1001679078618,left,1,1,0.5936277142318431,K13R08,2022-11-30_17h18.45.815,t1_Paradigm,2021.1.4,60.0054284631568,
T,left,Distractor,0,15,15,15,2480.5985353456635,2482.6000091107853,left,1,1,0.5492594923707657,K13R08,2022-11-30_17h18.45.815,t1_Paradigm,2021.1.4,60.0054284631568,
V,left,Pretarget,0,16,16,16,2484.0984666940058,2486.0974369190662,left,1,1,0.6517647647560807,K13R08,2022-11-30_17h18.45.815,t1_Paradigm,2021.1.4,60.0054284631568,
V,right,Target,0,17,17,17,2487.5983787942096,2489.598678744238,right,1,1,0.6546754027513089,K13R08,2022-11-30_17h18.45.815,t1_Paradigm,2021.1.4,60.0054284631568,
N,left,Distractor,0,18,18,18,2491.0984673356143,2493.1001435268845,left,1,1,0.5453668789705262,K13R08,2022-11-30_17h18.45.815,t1_Paradigm,2021.1.4,60.0054284631568,
B,left,Distractor,0,19,19,19,2494.5981250397017,2496.599505772203,left,1,1,0.6784105921105947,K13R08,2022-11-30_17h18.45.815,t1_Paradigm,2021.1.4,60.0054284631568,
V,left,Lure,0,20,20,20,2498.0984028543753,2500.097539254959,left,1,1,0.811978495985386,K13R08,2022-11-30_17h18.45.815,t1_Paradigm,2021.1.4,60.0054284631568,
P,left,Distractor,0,21,21,21,2501.597455204799,2503.597574864005,left,1,1,0.6397940321912756,K13R08,2022-11-30_17h18.45.815,t1_Paradigm,2021.1.4,60.0054284631568,
K,left,Pretarget,0,22,22,22,2505.098368207735,2507.0993572408042,left,1,1,0.6259777247760212,K13R08,2022-11-30_17h18.45.815,t1_Paradigm,2021.1.4,60.0054284631568,
K,right,Target,0,23,23,23,2508.5975190444296,2510.5984570699366,right,1,1,0.5668416963308118,K13R08,2022-11-30_17h18.45.815,t1_Paradigm,2021.1.4,60.0054284631568,
J,left,Pretarget,0,24,24,24,2512.0983248994453,2514.1000527398865,left,1,1,0.6012894322047941,K13R08,2022-11-30_17h18.45.815,t1_Paradigm,2021.1.4,60.0054284631568,
J,right,Target,0,25,25,25,2515.598412157633,2517.598549140166,right,1,1,0.7829789431852987,K13R08,2022-11-30_17h18.45.815,t1_Paradigm,2021.1.4,60.0054284631568,
H,left,Distractor,0,26,26,26,2519.097746813961,2521.098539836894,left,1,1,0.6587704423145624,K13R08,2022-11-30_17h18.45.815,t1_Paradigm,2021.1.4,60.0054284631568,
J,left,Lure,0,27,27,27,2522.5985295712308,2524.6000476070476,left,1,1,0.5174218028696487,K13R08,2022-11-30_17h18.45.815,t1_Paradigm,2021.1.4,60.0054284631568,
V,left,Distractor,0,28,28,28,2526.0983861726563,2528.0977134505374,left,1,1,0.5716408966254676,K13R08,2022-11-30_17h18.45.815,t1_Paradigm,2021.1.4,60.0054284631568,
Z,left,Pretarget,0,29,29,29,2529.597501721102,2531.6110629907926,left,1,1,0.6743226101971231,K13R08,2022-11-30_17h18.45.815,t1_Paradigm,2021.1.4,60.0054284631568,
Z,right,Target,0,30,30,30,2533.0981895209407,2535.0983479972056,right,1,1,0.5471620878524845,K13R08,2022-11-30_17h18.45.815,t1_Paradigm,2021.1.4,60.0054284631568,
T,left,Distractor,0,31,31,31,2536.5984057415917,2538.60033664979,left,1,1,0.5170057224750053,K13R08,2022-11-30_17h18.45.815,t1_Paradigm,2021.1.4,60.0054284631568,
Z,left,Lure,0,32,32,32,2540.0983765486017,2542.097649610907,left,1,1,0.5078388007677859,K13R08,2022-11-30_17h18.45.815,t1_Paradigm,2021.1.4,60.0054284631568,
F,left,Distractor,0,33,33,33,2543.598253360571,2545.600411396692,left,1,1,0.6209809103456791,K13R08,2022-11-30_17h18.45.815,t1_Paradigm,2021.1.4,60.0054284631568,
Y,left,Pretarget,0,34,34,34,2547.0984702228307,2549.0992276367324,left,1,1,0.7382158138789237,K13R08,2022-11-30_17h18.45.815,t1_Paradigm,2021.1.4,60.0054284631568,
Y,right,Target,0,35,35,35,2550.598595656469,2552.5985850699944,right,1,1,0.6309305893082637,K13R08,2022-11-30_17h18.45.815,t1_Paradigm,2021.1.4,60.0054284631568,
Y,right,Target,0,36,36,36,2554.0984567491396,2556.0982937816443,right,1,1,0.5551994651614223,K13R08,2022-11-30_17h18.45.815,t1_Paradigm,2021.1.4,60.0054284631568,
W,left,Distractor,0,37,37,37,2557.5983419019612,2559.5999555368326,left,1,1,0.7655276265140856,K13R08,2022-11-30_17h18.45.815,t1_Paradigm,2021.1.4,60.0054284631568,
Q,left,Distractor,0,38,38,38,2561.0984028543753,2563.10002675491,left,1,1,0.8013676437694812,K13R08,2022-11-30_17h18.45.815,t1_Paradigm,2021.1.4,60.0054284631568,
P,left,Pretarget,0,39,39,39,2564.598386493468,2566.6006301837624,left,1,1,0.6449884607427521,K13R08,2022-11-30_17h18.45.815,t1_Paradigm,2021.1.4,60.0054284631568,
P,right,Target,0,40,40,40,2568.0975071747525,2570.098209089876,right,1,1,0.6351096790458541,K13R08,2022-11-30_17h18.45.815,t1_Paradigm,2021.1.4,60.0054284631568,
J,left,Distractor,0,41,41,41,2571.5974821521813,2573.5998714866582,left,1,1,0.6375670236011501,K13R08,2022-11-30_17h18.45.815,t1_Paradigm,2021.1.4,60.0054284631568,
P,left,Lure,0,42,42,42,2575.0974718865036,2577.10046240424,left,1,1,0.6409428247134201,K13R08,2022-11-30_17h18.45.815,t1_Paradigm,2021.1.4,60.0054284631568,
L,left,Distractor,0,43,43,43,2578.598386814265,2580.597629400363,left,1,1,0.68009993628948,K13R08,2022-11-30_17h18.45.815,t1_Paradigm,2021.1.4,60.0054284631568,
Z,left,Distractor,0,44,44,44,2582.098438784218,2584.100280188606,left,1,1,0.7292673584452132,K13R08,2022-11-30_17h18.45.815,t1_Paradigm,2021.1.4,60.0054284631568,
F,left,Pretarget,0,45,45,45,2585.5977253202145,2587.597646402879,left,1,1,0.5439043419319205,K13R08,2022-11-30_17h18.45.815,t1_Paradigm,2021.1.4,60.0054284631568,
F,right,Target,0,46,46,46,2589.0984853005357,2591.098500378226,right,1,1,0.6589616403944092,K13R08,2022-11-30_17h18.45.815,t1_Paradigm,2021.1.4,60.0054284631568,
G,left,Pretarget,0,47,47,47,2592.5981000171305,2594.5999597072514,left,1,1,0.8694534108653897,K13R08,2022-11-30_17h18.45.815,t1_Paradigm,2021.1.4,60.0054284631568,
G,right,Target,0,48,48,48,2596.098406703997,2598.098306934524,right,1,1,0.6994831235642778,K13R08,2022-11-30_17h18.45.815,t1_Paradigm,2021.1.4,60.0054284631568,
V,left,Distractor,0,49,49,49,2599.5981680271943,2601.6000902737287,left,1,1,0.6857563199591823,K13R08,2022-11-30_17h18.45.815,t1_Paradigm,2021.1.4,60.0054284631568,
G,left,Lure,0,50,50,50,2603.098541440908,2605.1006548855366,left,1,1,0.8968325919558993,K13R08,2022-11-30_17h18.45.815,t1_Paradigm,2021.1.4,60.0054284631568,
Q,left,Pretarget,0,51,51,51,2606.59829474405,2608.5976508941094,left,1,1,0.6799058509786846,K13R08,2022-11-30_17h18.45.815,t1_Paradigm,2021.1.4,60.0054284631568,
Q,right,Target,0,52,52,52,2610.0984047791862,2612.098457711545,right,1,1,0.6830413712887093,K13R08,2022-11-30_17h18.45.815,t1_Paradigm,2021.1.4,60.0054284631568,
Y,left,Distractor,0,53,53,53,2613.5983919471037,2615.6002131409623,left,1,1,0.7492106662975857,K13R08,2022-11-30_17h18.45.815,t1_Paradigm,2021.1.4,60.0054284631568,
V,left,Distractor,0,54,54,54,2617.098624207865,2619.0989379523817,left,1,1,0.7384769468335435,K13R08,2022-11-30_17h18.45.815,t1_Paradigm,2021.1.4,60.0054284631568,
B,left,Distractor,0,55,55,55,2620.5983614708966,2622.6003575019276,left,1,1,0.629210127342958,K13R08,2022-11-30_17h18.45.815,t1_Paradigm,2021.1.4,60.0054284631568,
J,left,Pretarget,0,56,56,56,2624.098503907051,2626.0981388342043,left,1,1,0.6834683589549968,K13R08,2022-11-30_17h18.45.815,t1_Paradigm,2021.1.4,60.0054284631568,
J,right,Target,0,57,57,57,2627.59745712961,2629.598410232822,right,1,1,0.7350013762334129,K13R08,2022-11-30_17h18.45.815,t1_Paradigm,2021.1.4,60.0054284631568,
H,left,Distractor,0,58,58,58,2631.0984981326183,2633.100319647274,left,1,1,0.8971761710708961,K13R08,2022-11-30_17h18.45.815,t1_Paradigm,2021.1.4,60.0054284631568,
J,left,Lure,0,59,59,59,2634.5986017517134,2636.599973822551,left,1,1,1.0135904626804404,K13R08,2022-11-30_17h18.45.815,t1_Paradigm,2021.1.4,60.0054284631568,
D,left,Pretarget,0,60,60,60,2638.0986133005936,2640.099883997944,left,1,1,0.7457520982134156,K13R08,2022-11-30_17h18.45.815,t1_Paradigm,2021.1.4,60.0054284631568,
D,right,Target,0,61,61,61,2641.598469581222,2643.5985728795204,right,1,1,0.5909772467857692,K13R08,2022-11-30_17h18.45.815,t1_Paradigm,2021.1.4,60.0054284631568,
R,left,Distractor,0,62,62,62,2645.097590262507,2647.1004505345627,left,1,1,0.7690038387227105,K13R08,2022-11-30_17h18.45.815,t1_Paradigm,2021.1.4,60.0054284631568,
F,left,Distractor,0,63,63,63,2648.5984468042734,2650.5997380329645,left,1,1,0.709835088433465,K13R08,2022-11-30_17h18.45.815,t1_Paradigm,2021.1.4,60.0054284631568,
F,left,Distractor,0,0,0,0,2750.614327473566,2752.6152061506873,left,1,2,0.7583346005121712,K13R08,2022-11-30_17h18.45.815,t1_Paradigm,2021.1.4,60.0054284631568,
N,left,Pretarget,0,1,1,1,2754.1151378198265,2756.1159003665525,left,1,2,0.6175521768600447,K13R08,2022-11-30_17h18.45.815,t1_Paradigm,2021.1.4,60.0054284631568,
V,left,Distractor,0,2,2,2,2757.614188245425,2759.6168310136127,left,1,2,0.7326207034057006,K13R08,2022-11-30_17h18.45.815,t1_Paradigm,2021.1.4,60.0054284631568,
N,right,Target,0,3,3,3,2761.1151038147946,2763.11650828665,right,1,2,1.361260123710963,K13R08,2022-11-30_17h18.45.815,t1_Paradigm,2021.1.4,60.0054284631568,
N,left,Lure,0,4,4,4,2764.615110230836,2766.6151227421215,left,1,2,1.0628675991756609,K13R08,2022-11-30_17h18.45.815,t1_Paradigm,2021.1.4,60.0054284631568,
X,left,Distractor,0,5,5,5,2768.114965228262,2770.1162837251322,left,1,2,1.3212499991932418,K13R08,2022-11-30_17h18.45.815,t1_Paradigm,2021.1.4,60.0054284631568,
G,left,Pretarget,0,6,6,6,2771.6152831431973,2773.617134813263,left,1,2,0.9244931165449088,K13R08,2022-11-30_17h18.45.815,t1_Paradigm,2021.1.4,60.0054284631568,
H,left,Pretarget,0,7,7,7,2775.1151073436195,2777.116772306821,left,1,2,0.8490096516470658,K13R08,2022-11-30_17h18.45.815,t1_Paradigm,2021.1.4,60.0054284631568,
G,right,Target,0,8,8,8,2778.6153168274323,2780.6166885774583,right,1,2,0.7888656628056196,K13R08,2022-11-30_17h18.45.815,t1_Paradigm,2021.1.4,60.0054284631568,
H,right,Target,0,9,9,9,2782.1151638047886,2784.116700767947,right,1,2,0.5845461258868454,K13R08,2022-11-30_17h18.45.815,t1_Paradigm,2021.1.4,60.0054284631568,
T,left,Pretarget,0,10,10,10,2785.6151532183285,2787.6169635049155,left,1,2,0.6045866368076531,K13R08,2022-11-30_17h18.45.815,t1_Paradigm,2021.1.4,60.0054284631568,
K,left,Distractor,0,11,11,11,2789.1152831431973,2791.1163087477034,left,1,2,0.9293183018162381,K13R08,2022-11-30_17h18.45.815,t1_Paradigm,2021.1.4,60.0054284631568,
T,right,Target,0,12,12,12,2792.6149950628605,2794.6142687667743,right,1,2,0.9835540773055982,K13R08,2022-11-30_17h18.45.815,t1_Paradigm,2021.1.4,60.0054284631568,
T,left,Lure,0,13,13,13,2796.1152507421793,2798.1150155942014,left,1,2,0.9545458628417691,K13R08,2022-11-30_17h18.45.815,t1_Paradigm,2021.1.4,60.0054284631568,
J,left,Distractor,0,14,14,14,2799.615310732188,2801.616394401877,left,1,2,1.3892112950561568,K13R08,2022-11-30_17h18.45.815,t1_Paradigm,2021.1.4,60.0054284631568,
Q,left,Pretarget,0,15,15,15,2803.115067243343,2805.116995264325,left,1,2,0.8004969867033651,K13R08,2022-11-30_17h18.45.815,t1_Paradigm,2021.1.4,60.0054284631568,
M,left,Distractor,0,16,16,16,2806.61512338373,2808.6170385726145,left,1,2,0.7405868626374286,K13R08,2022-11-30_17h18.45.815,t1_Paradigm,2021.1.4,60.0054284631568,
Q,right,Target,0,17,17,17,2810.114400295657,2812.11662249222,right,1,2,0.6810321873635985,K13R08,2022-11-30_17h18.45.815,t1_Paradigm,2021.1.4,60.0054284631568,
R,left,Distractor,0,18,18,18,2813.6151445566647,2815.6166985223244,left,1,2,0.7970185289013898,K13R08,2022-11-30_17h18.45.815,t1_Paradigm,2021.1.4,60.0054284631568,
W,left,Distractor,0,19,19,19,2817.1318365346233,2819.116385740228,left,1,2,0.9612066780828172,K13R08,2022-11-30_17h18.45.815,t1_Paradigm,2021.1.4,60.0054284631568,
C,left,Pretarget,0,20,20,20,2820.6151634839916,2822.6179422722926,left,1,2,1.0596034371992573,K13R08,2022-11-30_17h18.45.815,t1_Paradigm,2021.1.4,60.0054284631568,
T,left,Distractor,0,21,21,21,2824.1150787922234,2826.11672258249,left,1,2,0.9047968263621442,K13R08,2022-11-30_17h18.45.815,t1_Paradigm,2021.1.4,60.0054284631568,
C,right,Target,0,22,22,22,2827.615220586784,2829.615930201151,right,1,2,0.5736327572376467,K13R08,2022-11-30_17h18.45.815,t1_Paradigm,2021.1.4,60.0054284631568,
F,left,Pretarget,0,23,23,23,2831.115196526618,2833.1167440762365,left,1,2,1.024928252605605,K13R08,2022-11-30_17h18.45.815,t1_Paradigm,2021.1.4,60.0054284631568,
C,right,Target,0,24,24,24,2834.6152398349077,2836.6171088282863,left,0,2,1.0125770486483816,K13R08,2022-11-30_17h18.45.815,t1_Paradigm,2021.1.4,60.0054284631568,
F,right,Target,0,25,25,25,2838.1152472133545,2840.1166369283164,right,1,2,0.6649218237143941,K13R08,2022-11-30_17h18.45.815,t1_Paradigm,2021.1.4,60.0054284631568,
H,left,Distractor,0,26,26,26,2841.61535532368,2843.616365208887,left,1,2,0.7170909916749224,K13R08,2022-11-30_17h18.45.815,t1_Paradigm,2021.1.4,60.0054284631568,
H,left,Lure,0,27,27,27,2845.1149219199724,2847.115185298535,left,1,2,1.0104899098078022,K13R08,2022-11-30_17h18.45.815,t1_Paradigm,2021.1.4,60.0054284631568,
P,left,Distractor,0,28,28,28,2848.615169258439,2850.617005529988,left,1,2,1.0446810039575212,K13R08,2022-11-30_17h18.45.815,t1_Paradigm,2021.1.4,60.0054284631568,
G,left,Pretarget,0,29,29,29,2852.1143669322337,2854.1163337702747,left,1,2,1.0492623795871623,K13R08,2022-11-30_17h18.45.815,t1_Paradigm,2021.1.4,60.0054284631568,
K,left,Distractor,0,30,30,30,2855.6152318148525,2857.614260425922,left,1,2,1.0553034050681163,K13R08,2022-11-30_17h18.45.815,t1_Paradigm,2021.1.4,60.0054284631568,
G,right,Target,0,31,31,31,2859.115200697037,2861.1160030232422,right,1,2,0.8335104161233176,K13R08,2022-11-30_17h18.45.815,t1_Paradigm,2021.1.4,60.0054284631568,
M,left,Pretarget,0,32,32,32,2862.614945017718,2864.6165827127406,left,1,2,1.2369595526251942,K13R08,2022-11-30_17h18.45.815,t1_Paradigm,2021.1.4,60.0054284631568,
B,left,Distractor,0,33,33,33,2866.1151384614204,2868.116520477124,left,1,2,0.9530310350382933,K13R08,2022-11-30_17h18.45.815,t1_Paradigm,2021.1.4,60.0054284631568,
M,right,Target,0,34,34,34,2869.615250100571,2871.6167036551633,right,1,2,0.5409600197017426,K13R08,2022-11-30_17h18.45.815,t1_Paradigm,2021.1.4,60.0054284631568,
M,left,Lure,0,35,35,35,2873.1153139402013,2875.115127554149,left,1,2,0.8343226871947991,K13R08,2022-11-30_17h18.45.815,t1_Paradigm,2021.1.4,60.0054284631568,
T,left,Distractor,0,36,36,36,2876.6152109627146,2878.6169670337404,left,1,2,1.1886242912587477,K13R08,2022-11-30_17h18.45.815,t1_Paradigm,2021.1.4,60.0054284631568,
F,left,Distractor,0,37,37,37,2880.115328376298,2882.1167392641946,left,1,2,0.8409225500217872,K13R08,2022-11-30_17h18.45.815,t1_Paradigm,2021.1.4,60.0054284631568,
X,left,Distractor,0,38,38,38,2883.615142311057,2885.6162625521974,left,1,2,1.0372926094278228,K13R08,2022-11-30_17h18.45.815,t1_Paradigm,2021.1.4,60.0054284631568,
C,left,Distractor,0,39,39,39,2887.115168296019,2889.116172406779,left,1,2,0.8654055292281555,K13R08,2022-11-30_17h18.45.815,t1_Paradigm,2021.1.4,60.0054284631568,
R,left,Distractor,0,40,40,40,2890.614928015202,2892.61664462756,left,1,2,1.1730336271284614,K13R08,2022-11-30_17h18.45.815,t1_Paradigm,2021.1.4,60.0054284631568,
B,left,Pretarget,0,41,41,41,2894.1150560152746,2896.1170485174807,left,1,2,1.1606904432410374,K13R08,2022-11-30_17h18.45.815,t1_Paradigm,2021.1.4,60.0054284631568,
H,left,Distractor,0,42,42,42,2897.615147123084,2899.616176898009,left,1,2,1.293501254011062,K13R08,2022-11-30_17h18.45.815,t1_Paradigm,2021.1.4,60.0054284631568,
B,right,Target,0,43,43,43,2901.1152231531887,2903.1162285471655,right,1,2,0.8493859525769949,K13R08,2022-11-30_17h18.45.815,t1_Paradigm,2021.1.4,60.0054284631568,
W,left,Pretarget,0,44,44,44,2904.615259403843,2906.616454391886,left,1,2,1.3171703581465408,K13R08,2022-11-30_17h18.45.815,t1_Paradigm,2021.1.4,60.0054284631568,
L,left,Pretarget,0,45,45,45,2908.1143775187084,2910.1168223519635,left,1,2,1.0007493938464904,K13R08,2022-11-30_17h18.45.815,t1_Paradigm,2021.1.4,60.0054284631568,
W,right,Target,0,46,46,46,2911.6152491381654,2913.61648968012,right,1,2,0.6212362688675057,K13R08,2022-11-30_17h18.45.815,t1_Paradigm,2021.1.4,60.0054284631568,
L,right,Target,0,47,47,47,2915.1151307621767,2917.1173449386843,right,1,2,0.768653522754903,K13R08,2022-11-30_17h18.45.815,t1_Paradigm,2021.1.4,60.0054284631568,
W,right,Target,0,48,48,48,2918.6151804865076,2920.6167004471354,right,1,2,0.6450641700503184,K13R08,2022-11-30_17h18.45.815,t1_Paradigm,2021.1.4,60.0054284631568,
X,left,Distractor,0,49,49,49,2922.115096757145,2924.1164553542912,left,1,2,0.6329455476807198,K13R08,2022-11-30_17h18.45.815,t1_Paradigm,2021.1.4,60.0054284631568,
R,left,Distractor,0,50,50,50,2925.615200055443,2927.6144888370472,left,1,2,0.7992904497805284,K13R08,2022-11-30_17h18.45.815,t1_Paradigm,2021.1.4,60.0054284631568,
V,left,Pretarget,0,51,51,51,2929.115099323564,2931.116993981108,left,1,2,1.1046511180175003,K13R08,2022-11-30_17h18.45.815,t1_Paradigm,2021.1.4,60.0054284631568,
Z,left,Distractor,0,52,52,52,2932.614980305967,2934.6170822017157,left,1,2,0.8524765605980065,K13R08,2022-11-30_17h18.45.815,t1_Paradigm,2021.1.4,60.0054284631568,
V,right,Target,0,53,53,53,2936.1144711929373,2938.116548066115,right,1,2,0.921015300336876,K13R08,2022-11-30_17h18.45.815,t1_Paradigm,2021.1.4,60.0054284631568,
V,left,Lure,0,54,54,54,2939.6149684362754,2941.615230852447,left,1,2,0.7504425465886015,K13R08,2022-11-30_17h18.45.815,t1_Paradigm,2021.1.4,60.0054284631568,
N,left,Distractor,0,55,55,55,2943.1152321356494,2945.115969339022,left,1,2,1.0576946643559495,K13R08,2022-11-30_17h18.45.815,t1_Paradigm,2021.1.4,60.0054284631568,
B,left,Distractor,0,56,56,56,2946.615203905065,2948.616773910835,left,1,2,0.7729291739524342,K13R08,2022-11-30_17h18.45.815,t1_Paradigm,2021.1.4,60.0054284631568,
V,left,Lure,0,57,57,57,2950.1151994138345,2952.1167219408817,left,1,2,0.8409796527994331,K13R08,2022-11-30_17h18.45.815,t1_Paradigm,2021.1.4,60.0054284631568,
J,left,Distractor,0,58,58,58,2953.615215453945,2955.615965810197,left,1,2,1.3577383576048305,K13R08,2022-11-30_17h18.45.815,t1_Paradigm,2021.1.4,60.0054284631568,
H,left,Distractor,0,59,59,59,2957.11537393021,2959.116755304305,left,1,2,0.94497858005343,K13R08,2022-11-30_17h18.45.815,t1_Paradigm,2021.1.4,60.0054284631568,
X,left,Pretarget,0,60,60,60,2960.615377459035,2962.6167954045814,left,1,2,0.9809379356884165,K13R08,2022-11-30_17h18.45.815,t1_Paradigm,2021.1.4,60.0054284631568,
P,left,Distractor,0,61,61,61,2964.115223794797,2966.1167235448956,left,1,2,0.9688924562069587,K13R08,2022-11-30_17h18.45.815,t1_Paradigm,2021.1.4,60.0054284631568,
X,right,Target,0,62,62,62,2967.6152539502073,2969.6168242767744,right,1,2,0.7969389699574094,K13R08,2022-11-30_17h18.45.815,t1_Paradigm,2021.1.4,60.0054284631568,
Q,left,Distractor,0,63,63,63,2971.1149780603446,2973.1169384823443,left,1,2,0.928793469487573,K13R08,2022-11-30_17h18.45.815,t1_Paradigm,2021.1.4,60.0054284631568,
B,left,Pretarget,0,0,0,0,2993.3406473017676,2995.3337600002124,left,1,2,0.4558675677253632,K13R08,2022-11-30_17h18.45.815,t1_Paradigm,2021.1.4,60.0054284631568,
F,left,Distractor,0,1,1,1,2996.8317726308305,2998.8332730225375,left,1,2,0.492418803361943,K13R08,2022-11-30_17h18.45.815,t1_Paradigm,2021.1.4,60.0054284631568,
B,right,Target,0,2,2,2,3000.3318778539397,3002.333467749442,right,1,2,0.7361251461989013,K13R08,2022-11-30_17h18.45.815,t1_Paradigm,2021.1.4,60.0054284631568,
V,left,Distractor,0,3,3,3,3003.831956771275,3005.8335100953263,left,1,2,0.7881618228711886,K13R08,2022-11-30_17h18.45.815,t1_Paradigm,2021.1.4,60.0054284631568,
G,left,Pretarget,0,4,4,4,3007.3319731321826,3009.333774115512,left,1,2,0.8719319283554796,K13R08,2022-11-30_17h18.45.815,t1_Paradigm,2021.1.4,60.0054284631568,
B,left,Lure,0,5,5,5,3010.831941372773,3012.8334565213736,left,1,2,0.9401720012829173,K13R08,2022-11-30_17h18.45.815,t1_Paradigm,2021.1.4,60.0054284631568,
G,right,Target,0,6,6,6,3014.331659066869,3016.333295799486,right,1,2,0.7523295048886212,K13R08,2022-11-30_17h18.45.815,t1_Paradigm,2021.1.4,60.0054284631568,
Y,left,Pretarget,0,7,7,7,3017.832072901656,3019.8340102258953,left,1,2,0.8834705404151464,K13R08,2022-11-30_17h18.45.815,t1_Paradigm,2021.1.4,60.0054284631568,
P,left,Distractor,0,8,8,8,3021.3318999892945,3023.3319388063537,left,1,2,0.8896597764833132,K13R08,2022-11-30_17h18.45.815,t1_Paradigm,2021.1.4,60.0054284631568,
Y,right,Target,0,9,9,9,3024.831902555714,3026.832297142362,right,1,2,0.8454657502006739,K13R08,2022-11-30_17h18.45.815,t1_Paradigm,2021.1.4,60.0054284631568,
X,left,Distractor,0,10,10,10,3028.3317492122733,3030.3336226968822,left,1,2,0.7839939612313174,K13R08,2022-11-30_17h18.45.815,t1_Paradigm,2021.1.4,60.0054284631568,
Y,right,Target,0,11,11,11,3031.8317604403564,3033.833666005172,right,1,2,0.8199671113688964,K13R08,2022-11-30_17h18.45.815,t1_Paradigm,2021.1.4,60.0054284631568,
N,left,Distractor,0,12,12,12,3035.331907688538,3037.333182235525,left,1,2,1.336430678187753,K13R08,2022-11-30_17h18.45.815,t1_Paradigm,2021.1.4,60.0054284631568,
Y,right,Target,0,13,13,13,3038.8317415130296,3040.8339017947583,right,1,2,0.6037220749858534,K13R08,2022-11-30_17h18.45.815,t1_Paradigm,2021.1.4,60.0054284631568,
Y,left,Lure,0,14,14,14,3042.3316789566015,3044.3320924705913,left,1,2,0.7215379512199434,K13R08,2022-11-30_17h18.45.815,t1_Paradigm,2021.1.4,60.0054284631568,
K,left,Distractor,0,15,15,15,3045.8319663953444,3047.8335043208936,left,1,2,1.156217498719343,K13R08,2022-11-30_17h18.45.815,t1_Paradigm,2021.1.4,60.0054284631568,
T,left,Pretarget,0,16,16,16,3049.3318813827645,3051.3330940149317,left,1,2,0.9365151774691185,K13R08,2022-11-30_17h18.45.815,t1_Paradigm,2021.1.4,60.0054284631568,
J,left,Distractor,0,17,17,17,3052.8318849115894,3054.8311021543195,left,1,2,0.8946982951893006,K13R08,2022-11-30_17h18.45.815,t1_Paradigm,2021.1.4,60.0054284631568,
T,right,Target,0,18,18,18,3056.331904480525,3058.3337240703695,right,1,2,0.9920665625977563,K13R08,2022-11-30_17h18.45.815,t1_Paradigm,2021.1.4,60.0054284631568,
S,left,Pretarget,0,19,19,19,3059.8319917387125,3061.8338863962563,left,1,2,0.9157435584493214,K13R08,2022-11-30_17h18.45.815,t1_Paradigm,2021.1.4,60.0054284631568,
R,left,Distractor,0,20,20,20,3063.331968961749,3065.334436251156,left,1,2,0.9991829169011908,K13R08,2022-11-30_17h18.45.815,t1_Paradigm,2021.1.4,60.0054284631568,
S,right,Target,0,21,21,21,3066.8316805606155,3068.8334927720134,right,1,2,0.9881441145989811,K13R08,2022-11-30_17h18.45.815,t1_Paradigm,2021.1.4,60.0054284631568,
Q,left,Distractor,0,22,22,22,3070.3319862850767,3072.3332768721593,left,1,2,0.9924826429923996,K13R08,2022-11-30_17h18.45.815,t1_Paradigm,2021.1.4,60.0054284631568,
D,left,Distractor,0,23,23,23,3073.8317703852226,3075.832654836777,left,1,2,1.0613030470412923,K13R08,2022-11-30_17h18.45.815,t1_Paradigm,2021.1.4,60.0054284631568,
F,left,Distractor,0,24,24,24,3077.332070976845,3079.333163308198,left,1,2,1.0164921182004036,K13R08,2022-11-30_17h18.45.815,t1_Paradigm,2021.1.4,60.0054284631568,
Z,left,Distractor,0,25,25,25,3080.8319615833025,3082.8338921707036,left,1,2,0.7156749709538417,K13R08,2022-11-30_17h18.45.815,t1_Paradigm,2021.1.4,60.0054284631568,
P,left,Distractor,0,26,26,26,3084.331949072017,3086.3326827465644,left,1,2,0.9290546024421928,K13R08,2022-11-30_17h18.45.815,t1_Paradigm,2021.1.4,60.0054284631568,
H,left,Distractor,0,27,27,27,3087.8316603500716,3089.832642325491,left,1,2,1.0769921974570025,K13R08,2022-11-30_17h18.45.815,t1_Paradigm,2021.1.4,60.0054284631568,
Z,left,Pretarget,0,28,28,28,3091.3319189166214,3093.334451328861,left,1,2,0.7437608792097308,K13R08,2022-11-30_17h18.45.815,t1_Paradigm,2021.1.4,60.0054284631568,
J,left,Pretarget,0,29,29,29,3094.8320841297245,3096.8334719198756,left,1,2,0.6681728327966994,K13R08,2022-11-30_17h18.45.815,t1_Paradigm,2021.1.4,60.0054284631568,
Z,right,Target,0,30,30,30,3098.3316943551035,3100.3339024363668,right,1,2,0.6877578046260169,K13R08,2022-11-30_17h18.45.815,t1_Paradigm,2021.1.4,60.0054284631568,
J,right,Target,0,31,31,31,3101.831948430423,3103.83333365414,right,1,2,0.596491194301052,K13R08,2022-11-30_17h18.45.815,t1_Paradigm,2021.1.4,60.0054284631568,
V,left,Pretarget,0,32,32,32,3105.3319920595095,3107.332338205044,left,1,2,0.7133735362585867,K13R08,2022-11-30_17h18.45.815,t1_Paradigm,2021.1.4,60.0054284631568,
Z,left,Lure,0,33,33,33,3108.8318034278345,3110.83350720811,left,1,2,1.0201665861532092,K13R08,2022-11-30_17h18.45.815,t1_Paradigm,2021.1.4,60.0054284631568,
V,right,Target,0,34,34,34,3112.3320517287066,3114.3335158697737,right,1,2,0.6241908567462815,K13R08,2022-11-30_17h18.45.815,t1_Paradigm,2021.1.4,60.0054284631568,
X,left,Distractor,0,35,35,35,3115.8318595682213,3117.8333057443524,left,1,2,0.7562776170525467,K13R08,2022-11-30_17h18.45.815,t1_Paradigm,2021.1.4,60.0054284631568,
S,left,Distractor,0,36,36,36,3119.3318999892945,3121.3339213636937,left,1,2,0.9357468562957365,K13R08,2022-11-30_17h18.45.815,t1_Paradigm,2021.1.4,60.0054284631568,
Q,left,Distractor,0,37,37,37,3122.83207450567,3124.833364130347,left,1,2,1.1804807284643175,K13R08,2022-11-30_17h18.45.815,t1_Paradigm,2021.1.4,60.0054284631568,
P,left,Distractor,0,38,38,38,3126.3320113076334,3128.3335158697737,left,1,2,0.9122208299377235,K13R08,2022-11-30_17h18.45.815,t1_Paradigm,2021.1.4,60.0054284631568,
S,left,Lure,0,39,39,39,3129.8317251521075,3131.8335274186393,left,1,2,0.9642764339369023,K13R08,2022-11-30_17h18.45.815,t1_Paradigm,2021.1.4,60.0054284631568,
K,left,Pretarget,0,40,40,40,3133.3318117687013,3135.3332069372846,left,1,2,0.8724564398871735,K13R08,2022-11-30_17h18.45.815,t1_Paradigm,2021.1.4,60.0054284631568,
L,left,Distractor,0,41,41,41,3136.8319769818045,3138.833811649354,left,1,2,0.5719408466393361,K13R08,2022-11-30_17h18.45.815,t1_Paradigm,2021.1.4,60.0054284631568,
K,right,Target,0,42,42,42,3140.3320016835787,3142.3337600002124,right,1,2,0.9121159276401158,K13R08,2022-11-30_17h18.45.815,t1_Paradigm,2021.1.4,60.0054284631568,
B,left,Distractor,0,43,43,43,3143.8320398590295,3145.833471278267,left,1,2,0.7883854219835484,K13R08,2022-11-30_17h18.45.815,t1_Paradigm,2021.1.4,60.0054284631568,
N,left,Distractor,0,44,44,44,3147.3320838089276,3149.33374716813,left,1,2,1.192069064854877,K13R08,2022-11-30_17h18.45.815,t1_Paradigm,2021.1.4,60.0054284631568,
S,left,Pretarget,0,45,45,45,3150.8320174028777,3152.832392099808,left,1,2,1.133336284707184,K13R08,2022-11-30_17h18.45.815,t1_Paradigm,2021.1.4,60.0054284631568,
Z,left,Distractor,0,46,46,46,3154.331884269981,3156.3340731031203,left,1,2,0.9441451360326027,K13R08,2022-11-30_17h18.45.815,t1_Paradigm,2021.1.4,60.0054284631568,
S,right,Target,0,47,47,47,3157.8319330319064,3159.8331353984104,right,1,2,0.5966939412610373,K13R08,2022-11-30_17h18.45.815,t1_Paradigm,2021.1.4,60.0054284631568,
C,left,Distractor,0,48,48,48,3161.332069052034,3163.333098506162,left,1,2,0.7127822978800396,K13R08,2022-11-30_17h18.45.815,t1_Paradigm,2021.1.4,60.0054284631568,
T,left,Pretarget,0,49,49,49,3164.8319577336806,3166.832879077483,left,1,2,1.1969789419090375,K13R08,2022-11-30_17h18.45.815,t1_Paradigm,2021.1.4,60.0054284631568,
S,left,Lure,0,50,50,50,3168.332006495606,3170.332690125011,left,1,2,0.7689961394644342,K13R08,2022-11-30_17h18.45.815,t1_Paradigm,2021.1.4,60.0054284631568,
T,right,Target,0,51,51,51,3171.8319461848005,3173.83397910808,right,1,2,0.723809872099082,K13R08,2022-11-30_17h18.45.815,t1_Paradigm,2021.1.4,60.0054284631568,
N,left,Pretarget,0,52,52,52,3175.3320193276886,3177.333494055216,left,1,2,0.8882973297149874,K13R08,2022-11-30_17h18.45.815,t1_Paradigm,2021.1.4,60.0054284631568,
B,left,Distractor,0,53,53,53,3178.8319952675374,3180.833957935145,left,1,2,1.0997158976097126,K13R08,2022-11-30_17h18.45.815,t1_Paradigm,2021.1.4,60.0054284631568,
N,right,Target,0,54,54,54,3182.332033122191,3184.33308920289,right,1,2,0.5448324225726537,K13R08,2022-11-30_17h18.45.815,t1_Paradigm,2021.1.4,60.0054284631568,
N,left,Lure,0,55,55,55,3185.831950355234,3187.8317928413744,left,1,2,1.1100171757570934,K13R08,2022-11-30_17h18.45.815,t1_Paradigm,2021.1.4,60.0054284631568,
X,left,Distractor,0,56,56,56,3189.3319442599895,3191.333473523875,left,1,2,1.0162406093149912,K13R08,2022-11-30_17h18.45.815,t1_Paradigm,2021.1.4,60.0054284631568,
W,left,Distractor,0,57,57,57,3192.831996871537,3194.833871318566,left,1,2,0.9075951836130116,K13R08,2022-11-30_17h18.45.815,t1_Paradigm,2021.1.4,60.0054284631568,
S,left,Distractor,0,58,58,58,3196.3318104854843,3198.3309966104134,left,1,2,0.7546899671724532,K13R08,2022-11-30_17h18.45.815,t1_Paradigm,2021.1.4,60.0054284631568,
L,left,Distractor,0,59,59,59,3199.831928540676,3201.833535759506,left,1,2,0.9481006266578333,K13R08,2022-11-30_17h18.45.815,t1_Paradigm,2021.1.4,60.0054284631568,
K,left,Pretarget,0,60,60,60,3203.332164651074,3205.333362526333,left,1,2,0.680667756110779,K13R08,2022-11-30_17h18.45.815,t1_Paradigm,2021.1.4,60.0054284631568,
V,left,Pretarget,0,61,61,61,3206.831800540618,3208.8334128922725,left,1,2,0.9402605426876107,K13R08,2022-11-30_17h18.45.815,t1_Paradigm,2021.1.4,60.0054284631568,
K,right,Target,0,62,62,62,3210.3317164904583,3212.3331110174477,left,0,2,1.3605829103616998,K13R08,2022-11-30_17h18.45.815,t1_Paradigm,2021.1.4,60.0054284631568,
V,right,Target,0,63,63,63,3213.8319869266707,3215.8334401604516,right,1,2,0.692235561175039,K13R08,2022-11-30_17h18.45.815,t1_Paradigm,2021.1.4,60.0054284631568,
R,left,Distractor,0,0,0,0,3311.659511816106,3313.650336874358,left,1,3,0.5075285850762157,K13R08,2022-11-30_17h18.45.815,t1_Paradigm,2021.1.4,60.0054284631568,
P,left,Lure,0,1,1,1,3315.1487232394866,3317.148651379801,left,1,3,0.6411455716734054,K13R08,2022-11-30_17h18.45.815,t1_Paradigm,2021.1.4,60.0054284631568,
V,left,Distractor,0,2,2,2,3318.6486295652576,3320.6493702974403,left,1,3,0.6288091246387921,K13R08,2022-11-30_17h18.45.815,t1_Paradigm,2021.1.4,60.0054284631568,
P,left,Pretarget,0,3,3,3,3322.148615129161,3324.15057811758,left,1,3,0.983320854124031,K13R08,2022-11-30_17h18.45.815,t1_Paradigm,2021.1.4,60.0054284631568,
Z,left,Distractor,0,4,4,4,3325.648664532695,3327.6498668991844,left,1,3,1.1483652242750395,K13R08,2022-11-30_17h18.45.815,t1_Paradigm,2021.1.4,60.0054284631568,
L,left,Pretarget,0,5,5,5,3329.148669986331,3331.150802999895,left,1,3,1.455107908215723,K13R08,2022-11-30_17h18.45.815,t1_Paradigm,2021.1.4,60.0054284631568,
P,right,Target,0,6,6,6,3332.648431309528,3334.650129315356,right,1,3,1.3797970348969102,K13R08,2022-11-30_17h18.45.815,t1_Paradigm,2021.1.4,60.0054284631568,
S,left,Distractor,0,7,7,7,3336.148661324667,3338.1505213355995,left,1,3,0.7592469618393807,K13R08,2022-11-30_17h18.45.815,t1_Paradigm,2021.1.4,60.0054284631568,
L,right,Target,0,8,8,8,3339.6488717708853,3341.6505842128245,right,1,3,1.4031851163163083,K13R08,2022-11-30_17h18.45.815,t1_Paradigm,2021.1.4,60.0054284631568,
D,left,Distractor,0,9,9,9,3343.148819480135,3345.149168512886,left,1,3,0.8166734355909284,K13R08,2022-11-30_17h18.45.815,t1_Paradigm,2021.1.4,60.0054284631568,
G,left,Distractor,0,10,10,10,3346.648632452474,3348.649846688655,left,1,3,0.9640910102898488,K13R08,2022-11-30_17h18.45.815,t1_Paradigm,2021.1.4,60.0054284631568,
M,left,Pretarget,0,11,11,11,3350.1487947783753,3352.1496567737777,left,1,3,1.016193772200495,K13R08,2022-11-30_17h18.45.815,t1_Paradigm,2021.1.4,60.0054284631568,
Y,left,Distractor,0,12,12,12,3353.6486863472383,3355.6507337066287,left,1,3,1.1792138807213632,K13R08,2022-11-30_17h18.45.815,t1_Paradigm,2021.1.4,60.0054284631568,
V,left,Distractor,0,13,13,13,3357.148635339705,3359.1503564432787,left,1,3,0.8155836706573609,K13R08,2022-11-30_17h18.45.815,t1_Paradigm,2021.1.4,60.0054284631568,
M,right,Target,0,14,14,14,3360.6486638910865,3362.649065856196,right,1,3,0.5968928385991603,K13R08,2022-11-30_17h18.45.815,t1_Paradigm,2021.1.4,60.0054284631568,
S,left,Pretarget,0,15,15,15,3364.1487011041463,3366.1508386089263,left,1,3,0.7589377085678279,K13R08,2022-11-30_17h18.45.815,t1_Paradigm,2021.1.4,60.0054284631568,
Q,left,Distractor,0,16,16,16,3367.6487011041463,3369.6498851849174,left,1,3,0.9080250584956957,K13R08,2022-11-30_17h18.45.815,t1_Paradigm,2021.1.4,60.0054284631568,
R,left,Pretarget,0,17,17,17,3371.148739279597,3373.1507141376933,left,1,3,0.89525424533349,K13R08,2022-11-30_17h18.45.815,t1_Paradigm,2021.1.4,60.0054284631568,
S,right,Target,0,18,18,18,3374.64864239734,3376.6500876110804,right,1,3,1.0282260987878544,K13R08,2022-11-30_17h18.45.815,t1_Paradigm,2021.1.4,60.0054284631568,
F,left,Distractor,0,19,19,19,3378.148761735749,3380.1507128544763,left,1,3,0.8551523713977076,K13R08,2022-11-30_17h18.45.815,t1_Paradigm,2021.1.4,60.0054284631568,
R,right,Target,0,20,20,20,3381.64880536485,3383.6500616261037,right,1,3,1.291853614122374,K13R08,2022-11-30_17h18.45.815,t1_Paradigm,2021.1.4,60.0054284631568,
P,left,Distractor,0,21,21,21,3385.148751149274,3387.149042758436,left,1,3,1.008868896504282,K13R08,2022-11-30_17h18.45.815,t1_Paradigm,2021.1.4,60.0054284631568,
L,left,Distractor,0,22,22,22,3388.648660683073,3390.6501812853094,left,1,3,1.395807949869777,K13R08,2022-11-30_17h18.45.815,t1_Paradigm,2021.1.4,60.0054284631568,
R,right,Target,0,23,23,23,3392.1488258961763,3394.150663450957,None,0,3,,K13R08,2022-11-30_17h18.45.815,t1_Paradigm,2021.1.4,60.0054284631568,
H,left,Pretarget,0,24,24,24,3395.648812422485,3397.6512210051005,left,1,3,0.9546905446186429,K13R08,2022-11-30_17h18.45.815,t1_Paradigm,2021.1.4,60.0054284631568,
G,left,Pretarget,0,25,25,25,3399.148617053972,3401.150714779302,left,1,3,0.9111961878370494,K13R08,2022-11-30_17h18.45.815,t1_Paradigm,2021.1.4,60.0054284631568,
T,left,Distractor,0,26,26,26,3402.648644001354,3404.6502614858473,left,1,3,0.6281290240731323,K13R08,2022-11-30_17h18.45.815,t1_Paradigm,2021.1.4,60.0054284631568,
H,right,Target,0,27,27,27,3406.148820763352,3408.150050718832,right,1,3,0.695885327339056,K13R08,2022-11-30_17h18.45.815,t1_Paradigm,2021.1.4,60.0054284631568,
G,right,Target,0,28,28,28,3409.6486196203914,3411.650499841853,right,1,3,1.2914401001326041,K13R08,2022-11-30_17h18.45.815,t1_Paradigm,2021.1.4,60.0054284631568,
D,left,Distractor,0,29,29,29,3413.1487148986344,3415.1506374659803,left,1,3,0.6391277260991046,K13R08,2022-11-30_17h18.45.815,t1_Paradigm,2021.1.4,60.0054284631568,
N,left,Pretarget,0,30,30,30,3416.648689234469,3418.6500462276017,left,1,3,0.8037736599653726,K13R08,2022-11-30_17h18.45.815,t1_Paradigm,2021.1.4,60.0054284631568,
V,left,Distractor,0,31,31,31,3420.14859459782,3422.151094288245,left,1,3,0.6307756418827921,K13R08,2022-11-30_17h18.45.815,t1_Paradigm,2021.1.4,60.0054284631568,
R,left,Distractor,0,32,32,32,3423.6488162721216,3425.6499945784453,left,1,3,0.5718093177565606,K13R08,2022-11-30_17h18.45.815,t1_Paradigm,2021.1.4,60.0054284631568,
N,right,Target,0,33,33,33,3427.148735750772,3429.1500911399053,right,1,3,0.7677151764510199,K13R08,2022-11-30_17h18.45.815,t1_Paradigm,2021.1.4,60.0054284631568,
Z,left,Distractor,0,34,34,34,3430.6487453748414,3432.651143370982,left,1,3,0.7067794478789438,K13R08,2022-11-30_17h18.45.815,t1_Paradigm,2021.1.4,60.0054284631568,
N,left,Lure,0,35,35,35,3434.148674798358,3436.1504860473506,left,1,3,0.983265355360345,K13R08,2022-11-30_17h18.45.815,t1_Paradigm,2021.1.4,60.0054284631568,
Y,left,Pretarget,0,36,36,36,3437.6486991793354,3439.6497385783296,left,1,3,0.7324343173531815,K13R08,2022-11-30_17h18.45.815,t1_Paradigm,2021.1.4,60.0054284631568,
Y,left,Lure,0,37,37,37,3441.148723560298,3443.148470126587,left,1,3,1.0414412229438312,K13R08,2022-11-30_17h18.45.815,t1_Paradigm,2021.1.4,60.0054284631568,
B,left,Distractor,0,38,38,38,3444.648732542759,3446.650308002165,left,1,3,1.0594404697039863,K13R08,2022-11-30_17h18.45.815,t1_Paradigm,2021.1.4,60.0054284631568,
Y,right,Target,0,39,39,39,3448.148737033989,3450.1501200120983,right,1,3,0.5834807419305434,K13R08,2022-11-30_17h18.45.815,t1_Paradigm,2021.1.4,60.0054284631568,
J,left,Distractor,0,40,40,40,3451.648824292177,3453.650015430583,left,1,3,0.6198061328468611,K13R08,2022-11-30_17h18.45.815,t1_Paradigm,2021.1.4,60.0054284631568,
X,left,Distractor,0,41,41,41,3455.1488695252774,3457.149865936779,left,1,3,0.7199227123346645,K13R08,2022-11-30_17h18.45.815,t1_Paradigm,2021.1.4,60.0054284631568,
W,left,Pretarget,0,42,42,42,3458.64864239734,3460.649995220054,left,1,3,0.8038442364340881,K13R08,2022-11-30_17h18.45.815,t1_Paradigm,2021.1.4,60.0054284631568,
S,left,Pretarget,0,43,43,43,3462.1487880415225,3464.1614776917413,left,1,3,0.9243837230169447,K13R08,2022-11-30_17h18.45.815,t1_Paradigm,2021.1.4,60.0054284631568,
R,left,Distractor,0,44,44,44,3465.6484665977623,3467.6503025485144,left,1,3,1.0354544130532304,K13R08,2022-11-30_17h18.45.815,t1_Paradigm,2021.1.4,60.0054284631568,
W,right,Target,0,45,45,45,3469.148426176689,3471.150288112418,right,1,3,0.8155361919343704,K13R08,2022-11-30_17h18.45.815,t1_Paradigm,2021.1.4,60.0054284631568,
S,right,Target,0,46,46,46,3472.648676402372,3474.648763339763,right,1,3,1.2050955573358806,K13R08,2022-11-30_17h18.45.815,t1_Paradigm,2021.1.4,60.0054284631568,
D,left,Distractor,0,47,47,47,3476.148635339705,3478.150748142725,left,1,3,0.7430259214597754,K13R08,2022-11-30_17h18.45.815,t1_Paradigm,2021.1.4,60.0054284631568,
T,left,Distractor,0,48,48,48,3479.6486709487363,3481.6504995210416,left,1,3,1.019295929087093,K13R08,2022-11-30_17h18.45.815,t1_Paradigm,2021.1.4,60.0054284631568,
S,right,Target,0,49,49,49,3483.1484643521544,3485.1507067592465,right,1,3,0.8475317161064595,K13R08,2022-11-30_17h18.45.815,t1_Paradigm,2021.1.4,60.0054284631568,
K,left,Distractor,0,50,50,50,3486.648798627997,3488.650742368278,left,1,3,0.8511179634515429,K13R08,2022-11-30_17h18.45.815,t1_Paradigm,2021.1.4,60.0054284631568,
S,left,Lure,0,51,51,51,3490.148933364908,3492.14943670349,left,1,3,1.1603766987245763,K13R08,2022-11-30_17h18.45.815,t1_Paradigm,2021.1.4,60.0054284631568,
T,left,Pretarget,0,52,52,52,3493.6485050940246,3495.6503327039245,left,1,3,1.4356005705194548,K13R08,2022-11-30_17h18.45.815,t1_Paradigm,2021.1.4,60.0054284631568,
V,left,Distractor,0,53,53,53,3497.1487440916244,3499.150333987127,left,1,3,1.1834709253744222,K13R08,2022-11-30_17h18.45.815,t1_Paradigm,2021.1.4,60.0054284631568,
B,left,Distractor,0,54,54,54,3500.6484579360986,3502.6507151000988,left,1,3,1.3954056639486225,K13R08,2022-11-30_17h18.45.815,t1_Paradigm,2021.1.4,60.0054284631568,
T,right,Target,0,55,55,55,3504.148519209324,3506.1507205537346,right,1,3,0.7912245210900437,K13R08,2022-11-30_17h18.45.815,t1_Paradigm,2021.1.4,60.0054284631568,
Y,left,Pretarget,0,56,56,56,3507.648689234469,3509.650556303037,left,1,3,0.7956403628195403,K13R08,2022-11-30_17h18.45.815,t1_Paradigm,2021.1.4,60.0054284631568,
T,left,Lure,0,57,57,57,3511.1487575653155,3513.1494751997525,right,0,3,0.9765567405993352,K13R08,2022-11-30_17h18.45.815,t1_Paradigm,2021.1.4,60.0054284631568,
P,left,Pretarget,0,58,58,58,3514.648689876063,3516.6498993002024,left,1,3,0.8679324878321495,K13R08,2022-11-30_17h18.45.815,t1_Paradigm,2021.1.4,60.0054284631568,
Y,right,Target,0,59,59,59,3518.148899039079,3520.1486061467003,right,1,3,1.145133463316597,K13R08,2022-11-30_17h18.45.815,t1_Paradigm,2021.1.4,60.0054284631568,
R,left,Distractor,0,60,60,60,3521.6486651743035,3523.65067371662,left,1,3,1.1475276098353788,K13R08,2022-11-30_17h18.45.815,t1_Paradigm,2021.1.4,60.0054284631568,
P,right,Target,0,61,61,61,3525.1488573347888,3527.149718688597,left,0,3,1.0562276360869873,K13R08,2022-11-30_17h18.45.815,t1_Paradigm,2021.1.4,60.0054284631568,
L,left,Distractor,0,62,62,62,3528.6486802520085,3530.650587100041,left,1,3,0.883185026483261,K13R08,2022-11-30_17h18.45.815,t1_Paradigm,2021.1.4,60.0054284631568,
V,left,Distractor,0,63,63,63,3532.1484479912324,3534.1504414558585,left,1,3,0.7915475688641891,K13R08,2022-11-30_17h18.45.815,t1_Paradigm,2021.1.4,60.0054284631568,
H,left,Lure,0,0,0,0,3550.52440213706,3552.5172171310987,left,1,3,0.4887497890740633,K13R08,2022-11-30_17h18.45.815,t1_Paradigm,2021.1.4,60.0054284631568,
B,left,Distractor,0,1,1,1,3554.0153089998494,3556.0168363389384,left,1,3,0.5571624535659794,K13R08,2022-11-30_17h18.45.815,t1_Paradigm,2021.1.4,60.0054284631568,
T,left,Distractor,0,2,2,2,3557.51540299489,3559.5168822136475,left,1,3,0.4490306321240496,K13R08,2022-11-30_17h18.45.815,t1_Paradigm,2021.1.4,60.0054284631568,
R,left,Distractor,0,3,3,3,3561.0153965788486,3563.0167477975338,left,1,3,0.7890706553880591,K13R08,2022-11-30_17h18.45.815,t1_Paradigm,2021.1.4,60.0054284631568,
H,left,Pretarget,0,4,4,4,3564.515270503587,3566.5168979329464,left,1,3,0.8092051613202784,K13R08,2022-11-30_17h18.45.815,t1_Paradigm,2021.1.4,60.0054284631568,
K,left,Distractor,0,5,5,5,3568.0156233859743,3570.015988458821,left,1,3,1.117812347409199,K13R08,2022-11-30_17h18.45.815,t1_Paradigm,2021.1.4,60.0054284631568,
G,left,Distractor,0,6,6,6,3571.5151569396257,3573.5170252914104,left,1,3,1.3928517579624895,K13R08,2022-11-30_17h18.45.815,t1_Paradigm,2021.1.4,60.0054284631568,
H,right,Target,0,7,7,7,3575.015476458575,3577.0168895920942,right,1,3,0.8849674032826442,K13R08,2022-11-30_17h18.45.815,t1_Paradigm,2021.1.4,60.0054284631568,
Y,left,Pretarget,0,8,8,8,3578.515215646432,3580.516944449264,left,1,3,0.8890544228052022,K13R08,2022-11-30_17h18.45.815,t1_Paradigm,2021.1.4,60.0054284631568,
S,left,Distractor,0,9,9,9,3582.0152785236423,3584.0158800276986,left,1,3,0.6858766207733424,K13R08,2022-11-30_17h18.45.815,t1_Paradigm,2021.1.4,60.0054284631568,
P,left,Distractor,0,10,10,10,3585.515404919701,3587.5169720382546,left,1,3,0.7690968713577604,K13R08,2022-11-30_17h18.45.815,t1_Paradigm,2021.1.4,60.0054284631568,
Y,right,Target,0,11,11,11,3589.015535486178,3591.017603056098,right,1,3,0.756333757439279,K13R08,2022-11-30_17h18.45.815,t1_Paradigm,2021.1.4,60.0054284631568,
H,left,Lure,0,12,12,12,3592.5151928694686,3594.516719246152,left,1,3,0.7133376064302865,K13R08,2022-11-30_17h18.45.815,t1_Paradigm,2021.1.4,60.0054284631568,
Q,left,Distractor,0,13,13,13,3596.015346533706,3598.015378613927,left,1,3,0.6864412325667217,K13R08,2022-11-30_17h18.45.815,t1_Paradigm,2021.1.4,60.0054284631568,
V,left,Pretarget,0,14,14,14,3599.5155162380543,3601.5167696120916,left,1,3,1.1052378651802428,K13R08,2022-11-30_17h18.45.815,t1_Paradigm,2021.1.4,60.0054284631568,
G,left,Distractor,0,15,15,15,3603.015389521199,3605.0169707550376,left,1,3,0.9813639609492384,K13R08,2022-11-30_17h18.45.815,t1_Paradigm,2021.1.4,60.0054284631568,
Z,left,Pretarget,0,16,16,16,3606.5155755864544,3608.516395235958,left,1,3,1.1455870775826043,K13R08,2022-11-30_17h18.45.815,t1_Paradigm,2021.1.4,60.0054284631568,
V,right,Target,0,17,17,17,3610.0154908946715,3612.016658293738,right,1,3,0.5892490855621872,K13R08,2022-11-30_17h18.45.815,t1_Paradigm,2021.1.4,60.0054284631568,
N,left,Distractor,0,18,18,18,3613.5153131702828,3615.5167567799945,left,1,3,0.7052104045142187,K13R08,2022-11-30_17h18.45.815,t1_Paradigm,2021.1.4,60.0054284631568,
Z,right,Target,0,19,19,19,3617.015448869599,3619.0170236873964,right,1,3,0.9487704615748953,K13R08,2022-11-30_17h18.45.815,t1_Paradigm,2021.1.4,60.0054284631568,
R,left,Distractor,0,20,20,20,3620.5154873658466,3622.516616589448,left,1,3,0.8734114679100458,K13R08,2022-11-30_17h18.45.815,t1_Paradigm,2021.1.4,60.0054284631568,
P,left,Distractor,0,21,21,21,3624.0154312254745,3626.0282482341427,left,1,3,0.8178013759898022,K13R08,2022-11-30_17h18.45.815,t1_Paradigm,2021.1.4,60.0054284631568,
Z,right,Target,0,22,22,22,3627.515261841938,3629.516469341266,right,1,3,0.5934403657738585,K13R08,2022-11-30_17h18.45.815,t1_Paradigm,2021.1.4,60.0054284631568,
D,left,Pretarget,0,23,23,23,3631.015552809491,3633.0153106038633,left,1,3,0.7424045276857214,K13R08,2022-11-30_17h18.45.815,t1_Paradigm,2021.1.4,60.0054284631568,
K,left,Distractor,0,24,24,24,3634.515259917127,3636.517670424553,left,1,3,0.6964345406304346,K13R08,2022-11-30_17h18.45.815,t1_Paradigm,2021.1.4,60.0054284631568,
W,left,Distractor,0,25,25,25,3638.015452398424,3640.017041331521,left,1,3,1.0209294536762172,K13R08,2022-11-30_17h18.45.815,t1_Paradigm,2021.1.4,60.0054284631568,
D,right,Target,0,26,26,26,3641.515370593872,3643.5159618322505,right,1,3,0.6899832092167344,K13R08,2022-11-30_17h18.45.815,t1_Paradigm,2021.1.4,60.0054284631568,
G,left,Pretarget,0,27,27,27,3645.0154084485257,3647.0168995369604,left,1,3,0.7407787023403216,K13R08,2022-11-30_17h18.45.815,t1_Paradigm,2021.1.4,60.0054284631568,
V,left,Distractor,0,28,28,28,3648.5154565688426,3650.5161966594314,left,1,3,0.8578214453737019,K13R08,2022-11-30_17h18.45.815,t1_Paradigm,2021.1.4,60.0054284631568,
D,right,Target,0,29,29,29,3652.015489932266,3654.0167564591975,right,1,3,0.5572006290312856,K13R08,2022-11-30_17h18.45.815,t1_Paradigm,2021.1.4,60.0054284631568,
G,right,Target,0,30,30,30,3655.515459135262,3657.5168924793106,right,1,3,0.7050666851428105,K13R08,2022-11-30_17h18.45.815,t1_Paradigm,2021.1.4,60.0054284631568,
B,left,Pretarget,0,31,31,31,3659.01537733071,3661.0173355070874,left,1,3,0.7083388671599096,K13R08,2022-11-30_17h18.45.815,t1_Paradigm,2021.1.4,60.0054284631568,
N,left,Distractor,0,32,32,32,3662.5151980023074,3664.5165861132555,left,1,3,0.873460229835473,K13R08,2022-11-30_17h18.45.815,t1_Paradigm,2021.1.4,60.0054284631568,
F,left,Distractor,0,33,33,33,3666.015412939756,3668.0174509958742,left,1,3,0.748424700985197,K13R08,2022-11-30_17h18.45.815,t1_Paradigm,2021.1.4,60.0054284631568,
B,right,Target,0,34,34,34,3669.515448869599,3671.515898313417,right,1,3,0.5461836412723642,K13R08,2022-11-30_17h18.45.815,t1_Paradigm,2021.1.4,60.0054284631568,
Q,left,Pretarget,0,35,35,35,3673.015472608953,3675.015596759389,left,1,3,0.7100959005911136,K13R08,2022-11-30_17h18.45.815,t1_Paradigm,2021.1.4,60.0054284631568,
S,left,Pretarget,0,36,36,36,3676.515498273133,3678.5169200683013,left,1,3,0.7131935662473552,K13R08,2022-11-30_17h18.45.815,t1_Paradigm,2021.1.4,60.0054284631568,
W,left,Distractor,0,37,37,37,3680.015185491022,3682.014489350331,left,1,3,0.7515377651579911,K13R08,2022-11-30_17h18.45.815,t1_Paradigm,2021.1.4,60.0054284631568,
Q,right,Target,0,38,38,38,3683.515404919701,3685.517431426939,right,1,3,0.8646875739796087,K13R08,2022-11-30_17h18.45.815,t1_Paradigm,2021.1.4,60.0054284631568,
S,right,Target,0,39,39,39,3687.015438603921,3689.016419296124,right,1,3,0.9976273472275352,K13R08,2022-11-30_17h18.45.815,t1_Paradigm,2021.1.4,60.0054284631568,
T,left,Distractor,0,40,40,40,3690.515314132688,3692.517006043272,left,1,3,0.7451165891252458,K13R08,2022-11-30_17h18.45.815,t1_Paradigm,2021.1.4,60.0054284631568,
G,left,Distractor,0,41,41,41,3694.0153914460097,3696.0168693815504,left,1,3,0.8611228203953942,K13R08,2022-11-30_17h18.45.815,t1_Paradigm,2021.1.4,60.0054284631568,
D,left,Distractor,0,42,42,42,3697.5154844786302,3699.528133386979,left,1,3,0.8377697063988307,K13R08,2022-11-30_17h18.45.815,t1_Paradigm,2021.1.4,60.0054284631568,
S,left,Lure,0,43,43,43,3701.015405240498,3703.0170368402905,left,1,3,1.0451134452596307,K13R08,2022-11-30_17h18.45.815,t1_Paradigm,2021.1.4,60.0054284631568,
Z,left,Pretarget,0,44,44,44,3704.5155056515796,3706.515886764537,left,1,3,1.0180107956257416,K13R08,2022-11-30_17h18.45.815,t1_Paradigm,2021.1.4,60.0054284631568,
J,left,Distractor,0,45,45,45,3708.015619536338,3710.0167638376442,left,1,3,0.7168959439732134,K13R08,2022-11-30_17h18.45.815,t1_Paradigm,2021.1.4,60.0054284631568,
M,left,Pretarget,0,46,46,46,3711.5154212806083,3713.517381702608,left,1,3,0.7525428383087274,K13R08,2022-11-30_17h18.45.815,t1_Paradigm,2021.1.4,60.0054284631568,
Z,right,Target,0,47,47,47,3715.0151752253587,3717.0170564092114,right,1,3,0.8368753099784954,K13R08,2022-11-30_17h18.45.815,t1_Paradigm,2021.1.4,60.0054284631568,
P,left,Distractor,0,48,48,48,3718.515586814523,3720.5168729103752,left,1,3,1.0170596172247315,K13R08,2022-11-30_17h18.45.815,t1_Paradigm,2021.1.4,60.0054284631568,
M,right,Target,0,49,49,49,3722.0154411703406,3724.0168725895783,right,1,3,0.6051149979466572,K13R08,2022-11-30_17h18.45.815,t1_Paradigm,2021.1.4,60.0054284631568,
K,left,Distractor,0,50,50,50,3725.515388237982,3727.5168706647673,left,1,3,0.7850295105890837,K13R08,2022-11-30_17h18.45.815,t1_Paradigm,2021.1.4,60.0054284631568,
Y,left,Distractor,0,51,51,51,3729.015330814407,3731.0165402385464,left,1,3,1.301404856829322,K13R08,2022-11-30_17h18.45.815,t1_Paradigm,2021.1.4,60.0054284631568,
X,left,Distractor,0,52,52,52,3732.5154225638107,3734.5316657395597,left,1,3,0.778278229146963,K13R08,2022-11-30_17h18.45.815,t1_Paradigm,2021.1.4,60.0054284631568,
F,left,Pretarget,0,53,53,53,3736.0153917668067,3738.0160609601153,left,1,3,0.958027207874693,K13R08,2022-11-30_17h18.45.815,t1_Paradigm,2021.1.4,60.0054284631568,
M,left,Lure,0,54,54,54,3739.515418393392,3741.5167699328886,left,1,3,1.1052160506224027,K13R08,2022-11-30_17h18.45.815,t1_Paradigm,2021.1.4,60.0054284631568,
V,left,Distractor,0,55,55,55,3743.015458814465,3745.016796559459,left,1,3,1.2212174698652234,K13R08,2022-11-30_17h18.45.815,t1_Paradigm,2021.1.4,60.0054284631568,
F,right,Target,0,56,56,56,3746.515523937298,3748.5175648806326,right,1,3,0.7445333708019461,K13R08,2022-11-30_17h18.45.815,t1_Paradigm,2021.1.4,60.0054284631568,
S,left,Distractor,0,57,57,57,3750.0155800776847,3752.0167891810124,left,1,3,0.7012090391799575,K13R08,2022-11-30_17h18.45.815,t1_Paradigm,2021.1.4,60.0054284631568,
D,left,Distractor,0,58,58,58,3753.51549859393,3755.51724215367,left,1,3,0.8646667218417861,K13R08,2022-11-30_17h18.45.815,t1_Paradigm,2021.1.4,60.0054284631568,
F,right,Target,0,59,59,59,3757.0156586742087,3759.0172639682132,right,1,3,0.5968809689366026,K13R08,2022-11-30_17h18.45.815,t1_Paradigm,2021.1.4,60.0054284631568,
V,left,Pretarget,0,60,60,60,3760.5156509749504,3762.516509441528,left,1,3,0.7296205616294174,K13R08,2022-11-30_17h18.45.815,t1_Paradigm,2021.1.4,60.0054284631568,
J,left,Distractor,0,61,61,61,3764.0153240775544,3766.0168889504857,left,1,3,1.1490247935143998,K13R08,2022-11-30_17h18.45.815,t1_Paradigm,2021.1.4,60.0054284631568,
V,left,Lure,0,62,62,62,3767.5153439672868,3769.516871306376,right,0,3,1.233054748736322,K13R08,2022-11-30_17h18.45.815,t1_Paradigm,2021.1.4,60.0054284631568,
V,right,Target,0,63,63,63,3771.0154533608293,3773.0155072555935,right,1,3,1.2065067660296336,K13R08,2022-11-30_17h18.45.815,t1_Paradigm,2021.1.4,60.0054284631568,
R,left,Distractor,0,0,0,0,3863.295947049686,3865.300388876378,left,1,4,0.8416754726931686,K13R08,2022-11-30_17h18.45.815,t1_Paradigm,2021.1.4,60.0054284631568,
F,left,Distractor,0,1,1,1,3866.7990129559184,3868.797854860124,left,1,4,0.7843869438656839,K13R08,2022-11-30_17h18.45.815,t1_Paradigm,2021.1.4,60.0054284631568,
P,left,Pretarget,0,2,2,2,3870.2988448555843,3872.299990119296,left,1,4,0.7863627643673681,K13R08,2022-11-30_17h18.45.815,t1_Paradigm,2021.1.4,60.0054284631568,
H,left,Distractor,0,3,3,3,3873.7989564947347,3875.800209227178,left,1,4,0.43784297761158086,K13R08,2022-11-30_17h18.45.815,t1_Paradigm,2021.1.4,60.0054284631568,
Z,left,Distractor,0,4,4,4,3877.298980875712,3879.3006804855395,left,1,4,0.8256863722635899,K13R08,2022-11-30_17h18.45.815,t1_Paradigm,2021.1.4,60.0054284631568,
T,left,Distractor,0,5,5,5,3880.7989728556568,3882.8008075232065,left,1,4,1.1012955274345586,K13R08,2022-11-30_17h18.45.815,t1_Paradigm,2021.1.4,60.0054284631568,
P,right,Target,0,6,6,6,3884.298904845593,3886.300034389991,right,1,4,0.8179576066322625,K13R08,2022-11-30_17h18.45.815,t1_Paradigm,2021.1.4,60.0054284631568,
G,left,Distractor,0,7,7,7,3887.798764975858,3889.800683051959,left,1,4,0.789443106710678,K13R08,2022-11-30_17h18.45.815,t1_Paradigm,2021.1.4,60.0054284631568,
L,left,Distractor,0,8,8,8,3891.29880956735,3893.2995230313536,left,1,4,0.6024356583075132,K13R08,2022-11-30_17h18.45.815,t1_Paradigm,2021.1.4,60.0054284631568,
P,left,Lure,0,9,9,9,3894.7988602540863,3896.800543182224,left,1,4,1.0055238923814613,K13R08,2022-11-30_17h18.45.815,t1_Paradigm,2021.1.4,60.0054284631568,
Q,left,Pretarget,0,10,10,10,3898.2988952215237,3900.30080367357,None,0,4,,K13R08,2022-11-30_17h18.45.815,t1_Paradigm,2021.1.4,60.0054284631568,
D,left,Distractor,0,11,11,11,3901.798926660136,3903.8004552824277,left,1,4,1.0776565787091386,K13R08,2022-11-30_17h18.45.815,t1_Paradigm,2021.1.4,60.0054284631568,
M,left,Pretarget,0,12,12,12,3905.2986927953607,3907.3009355232643,left,1,4,0.8254672643815866,K13R08,2022-11-30_17h18.45.815,t1_Paradigm,2021.1.4,60.0054284631568,
C,left,Distractor,0,13,13,13,3908.79897606367,3910.7991810562526,left,1,4,0.7347177871270105,K13R08,2022-11-30_17h18.45.815,t1_Paradigm,2021.1.4,60.0054284631568,
Q,right,Target,0,14,14,14,3912.2988323442987,3914.3008351121825,right,1,4,1.0893154915975174,K13R08,2022-11-30_17h18.45.815,t1_Paradigm,2021.1.4,60.0054284631568,
R,left,Distractor,0,15,15,15,3915.7988509508286,3917.800675673512,left,1,4,1.0295773174875649,K13R08,2022-11-30_17h18.45.815,t1_Paradigm,2021.1.4,60.0054284631568,
M,right,Target,0,16,16,16,3919.2988698781555,3921.3010340095207,left,0,4,1.1775996042561019,K13R08,2022-11-30_17h18.45.815,t1_Paradigm,2021.1.4,60.0054284631568,
S,left,Distractor,0,17,17,17,3922.7988580084784,3924.800281407661,left,1,4,0.8299321888334816,K13R08,2022-11-30_17h18.45.815,t1_Paradigm,2021.1.4,60.0054284631568,
Z,left,Distractor,0,18,18,18,3926.29865461991,3928.300876495661,left,1,4,1.0892962434736546,K13R08,2022-11-30_17h18.45.815,t1_Paradigm,2021.1.4,60.0054284631568,
L,left,Pretarget,0,19,19,19,3929.7988583292754,3931.800048184494,left,1,4,0.9658470813155873,K13R08,2022-11-30_17h18.45.815,t1_Paradigm,2021.1.4,60.0054284631568,
M,right,Target,0,20,20,20,3933.298930188961,3935.3007048665168,right,1,4,0.7933196800004225,K13R08,2022-11-30_17h18.45.815,t1_Paradigm,2021.1.4,60.0054284631568,
P,left,Distractor,0,21,21,21,3936.7989728556568,3938.8002364953572,left,1,4,1.0857985375187127,K13R08,2022-11-30_17h18.45.815,t1_Paradigm,2021.1.4,60.0054284631568,
F,left,Distractor,0,22,22,22,3940.2988791814278,3942.299527843381,None,0,4,,K13R08,2022-11-30_17h18.45.815,t1_Paradigm,2021.1.4,60.0054284631568,
L,right,Target,0,23,23,23,3943.7989632315875,3945.811675658755,left,0,4,1.2264484698680462,K13R08,2022-11-30_17h18.45.815,t1_Paradigm,2021.1.4,60.0054284631568,
L,left,Lure,0,24,24,24,3947.298931472178,3949.298823361838,right,0,4,1.1633794069348369,K13R08,2022-11-30_17h18.45.815,t1_Paradigm,2021.1.4,60.0054284631568,
V,left,Pretarget,0,25,25,25,3950.7988307402993,3952.800478700985,left,1,4,1.101545111523592,K13R08,2022-11-30_17h18.45.815,t1_Paradigm,2021.1.4,60.0054284631568,
Z,left,Distractor,0,26,26,26,3954.2990030110523,3956.300464906497,left,1,4,1.3935844700899906,K13R08,2022-11-30_17h18.45.815,t1_Paradigm,2021.1.4,60.0054284631568,
H,left,Distractor,0,27,27,27,3957.799078399563,3959.8002544602787,left,1,4,0.7098036498355214,K13R08,2022-11-30_17h18.45.815,t1_Paradigm,2021.1.4,60.0054284631568,
X,left,Distractor,0,28,28,28,3961.298841647571,3963.2997017181624,left,1,4,1.0023267780488823,K13R08,2022-11-30_17h18.45.815,t1_Paradigm,2021.1.4,60.0054284631568,
V,right,Target,0,29,29,29,3964.7989362842054,3966.800245157021,right,1,4,0.8940284602867905,K13R08,2022-11-30_17h18.45.815,t1_Paradigm,2021.1.4,60.0054284631568,
C,left,Distractor,0,30,30,30,3968.29906107625,3970.30083382898,left,1,4,0.9293994647741783,K13R08,2022-11-30_17h18.45.815,t1_Paradigm,2021.1.4,60.0054284631568,
S,left,Pretarget,0,31,31,31,3971.7988544796535,3973.7994344899635,left,1,4,1.1746738885703962,K13R08,2022-11-30_17h18.45.815,t1_Paradigm,2021.1.4,60.0054284631568,
D,left,Distractor,0,32,32,32,3975.298807321742,3977.29962248003,left,1,4,0.842576926748734,K13R08,2022-11-30_17h18.45.815,t1_Paradigm,2021.1.4,60.0054284631568,
V,left,Distractor,0,33,33,33,3978.7987011362275,3980.8003231119365,left,1,4,0.6377816402236931,K13R08,2022-11-30_17h18.45.815,t1_Paradigm,2021.1.4,60.0054284631568,
R,left,Distractor,0,34,34,34,3982.2989192816895,3984.3005319541408,left,1,4,1.441675921814749,K13R08,2022-11-30_17h18.45.815,t1_Paradigm,2021.1.4,60.0054284631568,
S,right,Target,0,35,35,35,3985.7987665798573,3987.8008864405274,right,1,4,0.5975411797699053,K13R08,2022-11-30_17h18.45.815,t1_Paradigm,2021.1.4,60.0054284631568,
Y,left,Distractor,0,36,36,36,3989.2990177679603,3991.2997751818475,left,1,4,0.9865850161004346,K13R08,2022-11-30_17h18.45.815,t1_Paradigm,2021.1.4,60.0054284631568,
N,left,Pretarget,0,37,37,37,3992.798058890301,3994.799630820882,left,1,4,0.8465741216641618,K13R08,2022-11-30_17h18.45.815,t1_Paradigm,2021.1.4,60.0054284631568,
Z,left,Pretarget,0,38,38,38,3996.2990177679603,3998.2995685852657,left,1,4,1.2824284466769313,K13R08,2022-11-30_17h18.45.815,t1_Paradigm,2021.1.4,60.0054284631568,
P,left,Pretarget,0,39,39,39,3999.798576023386,4001.8005733376194,left,1,4,1.061587277756189,K13R08,2022-11-30_17h18.45.815,t1_Paradigm,2021.1.4,60.0054284631568,
M,left,Distractor,0,40,40,40,4003.2990976476867,4005.300852756307,left,1,4,0.8893373703031102,K13R08,2022-11-30_17h18.45.815,t1_Paradigm,2021.1.4,60.0054284631568,
N,right,Target,0,41,41,41,4006.7989295473526,4008.799702680568,left,0,4,0.7502378748031333,K13R08,2022-11-30_17h18.45.815,t1_Paradigm,2021.1.4,60.0054284631568,
Z,right,Target,0,42,42,42,4010.298991462172,4012.300659954213,right,1,4,0.8333913985261461,K13R08,2022-11-30_17h18.45.815,t1_Paradigm,2021.1.4,60.0054284631568,
P,right,Target,0,43,43,43,4013.7987229507708,4015.799166940953,right,1,4,0.6630605295940768,K13R08,2022-11-30_17h18.45.815,t1_Paradigm,2021.1.4,60.0054284631568,
X,left,Pretarget,0,44,44,44,4017.2986389005964,4019.3004912122706,left,1,4,0.9856091359251877,K13R08,2022-11-30_17h18.45.815,t1_Paradigm,2021.1.4,60.0054284631568,
Z,left,Lure,0,45,45,45,4020.7989192816895,4022.8004033124744,right,0,4,1.1978476741642226,K13R08,2022-11-30_17h18.45.815,t1_Paradigm,2021.1.4,60.0054284631568,
R,left,Pretarget,0,46,46,46,4024.298961948385,4026.300886761339,left,1,4,1.1212426849087933,K13R08,2022-11-30_17h18.45.815,t1_Paradigm,2021.1.4,60.0054284631568,
K,left,Distractor,0,47,47,47,4027.7990514521807,4029.800714811383,left,1,4,1.029468244756572,K13R08,2022-11-30_17h18.45.815,t1_Paradigm,2021.1.4,60.0054284631568,
X,right,Target,0,48,48,48,4031.2990014070383,4033.3011007363675,left,0,4,0.985029446441331,K13R08,2022-11-30_17h18.45.815,t1_Paradigm,2021.1.4,60.0054284631568,
B,left,Distractor,0,49,49,49,4034.815578537833,4036.7996016278776,left,1,4,0.8306806202745065,K13R08,2022-11-30_17h18.45.815,t1_Paradigm,2021.1.4,60.0054284631568,
R,right,Target,0,50,50,50,4038.298948474694,4040.299471382212,left,0,4,1.3148358808248304,K13R08,2022-11-30_17h18.45.815,t1_Paradigm,2021.1.4,60.0054284631568,
Y,left,Pretarget,0,51,51,51,4041.798961948385,4043.8007225106267,left,1,4,0.9818265576759586,K13R08,2022-11-30_17h18.45.815,t1_Paradigm,2021.1.4,60.0054284631568,
W,left,Pretarget,0,52,52,52,4045.298918319284,4047.3007375883317,left,1,4,0.8734473977528978,K13R08,2022-11-30_17h18.45.815,t1_Paradigm,2021.1.4,60.0054284631568,
Z,left,Distractor,0,53,53,53,4048.798265486883,4050.8000542797236,left,1,4,1.0860654449206777,K13R08,2022-11-30_17h18.45.815,t1_Paradigm,2021.1.4,60.0054284631568,
Q,left,Distractor,0,54,54,54,4052.298912865648,4054.3000440140604,left,1,4,1.346201991153066,K13R08,2022-11-30_17h18.45.815,t1_Paradigm,2021.1.4,60.0054284631568,
Y,right,Target,0,55,55,55,4055.7987511813553,4057.8008498690906,right,1,4,1.2693291321047582,K13R08,2022-11-30_17h18.45.815,t1_Paradigm,2021.1.4,60.0054284631568,
W,right,Target,0,56,56,56,4059.298862178912,4061.3006246659643,None,0,4,,K13R08,2022-11-30_17h18.45.815,t1_Paradigm,2021.1.4,60.0054284631568,
H,left,Pretarget,0,57,57,57,4062.798863782911,4064.800689468,left,1,4,0.8455533291999018,K13R08,2022-11-30_17h18.45.815,t1_Paradigm,2021.1.4,60.0054284631568,
M,left,Distractor,0,58,58,58,4066.2990896276315,4068.3004026708804,left,1,4,0.6578651386225829,K13R08,2022-11-30_17h18.45.815,t1_Paradigm,2021.1.4,60.0054284631568,
R,left,Pretarget,0,59,59,59,4069.798651411882,4071.800762610903,left,1,4,0.5173393567092717,K13R08,2022-11-30_17h18.45.815,t1_Paradigm,2021.1.4,60.0054284631568,
J,left,Distractor,0,60,60,60,4073.298952645113,4075.3008761748642,left,1,4,0.5692287851998117,K13R08,2022-11-30_17h18.45.815,t1_Paradigm,2021.1.4,60.0054284631568,
H,right,Target,0,61,61,61,4076.798943662652,4078.799212494865,right,1,4,0.654915683568106,K13R08,2022-11-30_17h18.45.815,t1_Paradigm,2021.1.4,60.0054284631568,
Z,left,Distractor,0,62,62,62,4080.2990184095543,4082.3007090369356,left,1,4,0.9455483246711083,K13R08,2022-11-30_17h18.45.815,t1_Paradigm,2021.1.4,60.0054284631568,
R,right,Target,0,63,63,63,4083.798912865648,4085.800887402933,right,1,4,0.8692548343387898,K13R08,2022-11-30_17h18.45.815,t1_Paradigm,2021.1.4,60.0054284631568,
J,left,Pretarget,0,0,0,0,4100.76386138011,4102.76656734632,left,1,4,0.8637190722656669,K13R08,2022-11-30_17h18.45.815,t1_Paradigm,2021.1.4,60.0054284631568,
G,left,Pretarget,0,1,1,1,4104.265629000001,4106.265537571395,left,1,4,0.7406814992864383,K13R08,2022-11-30_17h18.45.815,t1_Paradigm,2021.1.4,60.0054284631568,
Z,left,Distractor,0,2,2,2,4107.765544629045,4109.767423888086,left,1,4,0.646809654601384,K13R08,2022-11-30_17h18.45.815,t1_Paradigm,2021.1.4,60.0054284631568,
F,left,Distractor,0,3,3,3,4111.264643816568,4113.267179116039,left,1,4,0.6189810296782525,K13R08,2022-11-30_17h18.45.815,t1_Paradigm,2021.1.4,60.0054284631568,
J,right,Target,0,4,4,4,4114.76574833841,4116.767300700056,right,1,4,0.7347710402827943,K13R08,2022-11-30_17h18.45.815,t1_Paradigm,2021.1.4,60.0054284631568,
G,right,Target,0,5,5,5,4118.265726203055,4120.26647174728,right,1,4,0.5637998502497794,K13R08,2022-11-30_17h18.45.815,t1_Paradigm,2021.1.4,60.0054284631568,
H,left,Distractor,0,6,6,6,4121.765232167731,4123.766735767451,left,1,4,0.7273730216838885,K13R08,2022-11-30_17h18.45.815,t1_Paradigm,2021.1.4,60.0054284631568,
P,left,Distractor,0,7,7,7,4125.265607185458,4127.267148639832,left,1,4,0.9550065347430063,K13R08,2022-11-30_17h18.45.815,t1_Paradigm,2021.1.4,60.0054284631568,
G,left,Lure,0,8,8,8,4128.765525380906,4130.767480670067,right,0,4,0.9904516445385525,K13R08,2022-11-30_17h18.45.815,t1_Paradigm,2021.1.4,60.0054284631568,
S,left,Distractor,0,9,9,9,4132.265646323329,4134.267545151306,left,1,4,0.7546928543888498,K13R08,2022-11-30_17h18.45.815,t1_Paradigm,2021.1.4,60.0054284631568,
R,left,Pretarget,0,10,10,10,4135.7655006791465,4137.767688549866,left,1,4,0.6464753787586233,K13R08,2022-11-30_17h18.45.815,t1_Paradigm,2021.1.4,60.0054284631568,
T,left,Pretarget,0,11,11,11,4139.265507736796,4141.268009031221,left,1,4,0.6181309039675398,K13R08,2022-11-30_17h18.45.815,t1_Paradigm,2021.1.4,60.0054284631568,
X,left,Distractor,0,12,12,12,4142.7654365187045,4144.767744690253,left,1,4,0.8143803417478921,K13R08,2022-11-30_17h18.45.815,t1_Paradigm,2021.1.4,60.0054284631568,
F,left,Pretarget,0,13,13,13,4146.26565530579,4148.267375126161,left,1,4,0.7228766586340498,K13R08,2022-11-30_17h18.45.815,t1_Paradigm,2021.1.4,60.0054284631568,
R,right,Target,0,14,14,14,4149.765547837058,4151.767017752558,left,0,4,1.1431422443274641,K13R08,2022-11-30_17h18.45.815,t1_Paradigm,2021.1.4,60.0054284631568,
T,right,Target,0,15,15,15,4153.265559065141,4155.267793452178,right,1,4,0.6023275479819858,K13R08,2022-11-30_17h18.45.815,t1_Paradigm,2021.1.4,60.0054284631568,
C,left,Distractor,0,16,16,16,4156.7655789548735,4158.766643055627,left,1,4,0.5598729110060958,K13R08,2022-11-30_17h18.45.815,t1_Paradigm,2021.1.4,60.0054284631568,
F,right,Target,0,17,17,17,4160.2656081478635,4162.267137090952,right,1,4,0.8349896348809125,K13R08,2022-11-30_17h18.45.815,t1_Paradigm,2021.1.4,60.0054284631568,
M,left,Distractor,0,18,18,18,4163.765610714283,4165.767504409436,left,1,4,0.6628670858917758,K13R08,2022-11-30_17h18.45.815,t1_Paradigm,2021.1.4,60.0054284631568,
N,left,Distractor,0,19,19,19,4167.265663967439,4169.267198684975,left,1,4,0.9390764619020047,K13R08,2022-11-30_17h18.45.815,t1_Paradigm,2021.1.4,60.0054284631568,
R,left,Lure,0,20,20,20,4170.765641511287,4172.767131316519,left,1,4,0.9907734090957092,K13R08,2022-11-30_17h18.45.815,t1_Paradigm,2021.1.4,60.0054284631568,
F,right,Target,0,21,21,21,4174.2657643785205,4176.267648128793,left,0,4,1.2025179119955283,K13R08,2022-11-30_17h18.45.815,t1_Paradigm,2021.1.4,60.0054284631568,
P,left,Distractor,0,22,22,22,4177.7656556265865,4179.7674254921,left,1,4,0.774812603413011,K13R08,2022-11-30_17h18.45.815,t1_Paradigm,2021.1.4,60.0054284631568,
L,left,Pretarget,0,23,23,23,4181.265599486214,4183.267611878153,left,1,4,0.8745124609267805,K13R08,2022-11-30_17h18.45.815,t1_Paradigm,2021.1.4,60.0054284631568,
T,left,Distractor,0,24,24,24,4184.765411496148,4186.766274774753,left,1,4,0.7202845771680586,K13R08,2022-11-30_17h18.45.815,t1_Paradigm,2021.1.4,60.0054284631568,
F,left,Distractor,0,25,25,25,4188.265632208029,4190.267830665223,right,0,4,1.3305747555568814,K13R08,2022-11-30_17h18.45.815,t1_Paradigm,2021.1.4,60.0054284631568,
V,left,Distractor,0,26,26,26,4191.765644398518,4193.767593913231,left,1,4,0.7746765833144309,K13R08,2022-11-30_17h18.45.815,t1_Paradigm,2021.1.4,60.0054284631568,
L,right,Target,0,27,27,27,4195.265513832026,4197.2675287903985,right,1,4,1.1787846474471735,K13R08,2022-11-30_17h18.45.815,t1_Paradigm,2021.1.4,60.0054284631568,
S,left,Pretarget,0,28,28,28,4198.765624508771,4200.767108218759,left,1,4,0.7350398725102423,K13R08,2022-11-30_17h18.45.815,t1_Paradigm,2021.1.4,60.0054284631568,
W,left,Distractor,0,29,29,29,4202.26564824814,4204.267121371653,left,1,4,0.6911724228266394,K13R08,2022-11-30_17h18.45.815,t1_Paradigm,2021.1.4,60.0054284631568,
Q,left,Distractor,0,30,30,30,4205.765650814559,4207.767755276713,left,1,4,0.7745302975235973,K13R08,2022-11-30_17h18.45.815,t1_Paradigm,2021.1.4,60.0054284631568,
L,right,Target,0,31,31,31,4209.265654343384,4211.267597442056,right,1,4,0.5865437609463697,K13R08,2022-11-30_17h18.45.815,t1_Paradigm,2021.1.4,60.0054284631568,
S,right,Target,0,32,32,32,4212.765739355949,4214.767800509828,right,1,4,0.7183809371636016,K13R08,2022-11-30_17h18.45.815,t1_Paradigm,2021.1.4,60.0054284631568,
Z,left,Pretarget,0,33,33,33,4216.265685461185,4218.281838491515,left,1,4,1.1084500572032994,K13R08,2022-11-30_17h18.45.815,t1_Paradigm,2021.1.4,60.0054284631568,
F,left,Distractor,0,34,34,34,4219.765446784382,4221.767198684975,left,1,4,1.1269279407861177,K13R08,2022-11-30_17h18.45.815,t1_Paradigm,2021.1.4,60.0054284631568,
V,left,Distractor,0,35,35,35,4223.265460258073,4225.267695607516,right,0,4,1.0984156864578836,K13R08,2022-11-30_17h18.45.815,t1_Paradigm,2021.1.4,60.0054284631568,
M,left,Distractor,0,36,36,36,4226.765480789414,4228.767329251452,left,1,4,0.7987322540284367,K13R08,2022-11-30_17h18.45.815,t1_Paradigm,2021.1.4,60.0054284631568,
Z,right,Target,0,37,37,37,4230.2655465538555,4232.26711110599,left,0,4,1.123197974069626,K13R08,2022-11-30_17h18.45.815,t1_Paradigm,2021.1.4,60.0054284631568,
H,left,Pretarget,0,38,38,38,4233.765769832156,4235.767502163813,left,1,4,0.7748283227265347,K13R08,2022-11-30_17h18.45.815,t1_Paradigm,2021.1.4,60.0054284631568,
L,left,Distractor,0,39,39,39,4237.265602052619,4239.267109822773,left,1,4,1.0991140727564925,K13R08,2022-11-30_17h18.45.815,t1_Paradigm,2021.1.4,60.0054284631568,
G,left,Distractor,0,40,40,40,4240.765632849638,4242.778545457346,left,1,4,1.1716477617883356,K13R08,2022-11-30_17h18.45.815,t1_Paradigm,2021.1.4,60.0054284631568,
K,left,Distractor,0,41,41,41,4244.2656097518775,4246.267227877965,left,1,4,1.1551007864181884,K13R08,2022-11-30_17h18.45.815,t1_Paradigm,2021.1.4,60.0054284631568,
H,right,Target,0,42,42,42,4247.765745130382,4249.767115276409,left,0,4,1.271549724653596,K13R08,2022-11-30_17h18.45.815,t1_Paradigm,2021.1.4,60.0054284631568,
B,left,Distractor,0,43,43,43,4251.265208749173,4253.267344329157,left,1,4,0.7950930743245408,K13R08,2022-11-30_17h18.45.815,t1_Paradigm,2021.1.4,60.0054284631568,
Z,left,Distractor,0,44,44,44,4254.7656880276045,4256.766417852516,right,0,4,1.1037971426849253,K13R08,2022-11-30_17h18.45.815,t1_Paradigm,2021.1.4,60.0054284631568,
T,left,Pretarget,0,45,45,45,4258.26560493985,4260.266385772295,left,1,4,0.8678144326404436,K13R08,2022-11-30_17h18.45.815,t1_Paradigm,2021.1.4,60.0054284631568,
H,right,Target,0,46,46,46,4261.7657509048295,4263.767698494732,right,1,4,0.6308657872868935,K13R08,2022-11-30_17h18.45.815,t1_Paradigm,2021.1.4,60.0054284631568,
F,left,Distractor,0,47,47,47,4265.265384227954,4267.266402454014,left,1,4,0.6197823934780899,K13R08,2022-11-30_17h18.45.815,t1_Paradigm,2021.1.4,60.0054284631568,
R,left,Distractor,0,48,48,48,4268.765663646642,4270.766522434016,left,1,4,0.639735646196641,K13R08,2022-11-30_17h18.45.815,t1_Paradigm,2021.1.4,60.0054284631568,
T,right,Target,0,49,49,49,4272.265393852023,4274.2679182442225,right,1,4,0.5301181899267249,K13R08,2022-11-30_17h18.45.815,t1_Paradigm,2021.1.4,60.0054284631568,
H,right,Target,0,50,50,50,4275.765533400961,4277.767588138799,right,1,4,0.774719570792513,K13R08,2022-11-30_17h18.45.815,t1_Paradigm,2021.1.4,60.0054284631568,
Y,left,Pretarget,0,51,51,51,4279.265413100147,4281.266332198342,left,1,4,0.6838497927383287,K13R08,2022-11-30_17h18.45.815,t1_Paradigm,2021.1.4,60.0054284631568,
H,left,Distractor,0,52,52,52,4282.765558102736,4284.767703306774,left,1,4,1.1984831832378404,K13R08,2022-11-30_17h18.45.815,t1_Paradigm,2021.1.4,60.0054284631568,
S,left,Distractor,0,53,53,53,4286.265401872079,4288.267612840558,None,0,4,,K13R08,2022-11-30_17h18.45.815,t1_Paradigm,2021.1.4,60.0054284631568,
Q,left,Distractor,0,54,54,54,4289.765569010007,4291.767615727775,left,1,4,0.9666099488531472,K13R08,2022-11-30_17h18.45.815,t1_Paradigm,2021.1.4,60.0054284631568,
Y,right,Target,0,55,55,55,4293.265567085196,4295.267508259058,right,1,4,1.034660427700146,K13R08,2022-11-30_17h18.45.815,t1_Paradigm,2021.1.4,60.0054284631568,
R,left,Distractor,0,56,56,56,4296.764696748927,4298.76758043954,right,0,4,1.2310583968937863,K13R08,2022-11-30_17h18.45.815,t1_Paradigm,2021.1.4,60.0054284631568,
H,left,Pretarget,0,57,57,57,4300.26552249369,4302.267276960702,left,1,4,0.5950575294555165,K13R08,2022-11-30_17h18.45.815,t1_Paradigm,2021.1.4,60.0054284631568,
J,left,Distractor,0,58,58,58,4303.765762774507,4305.7676699433505,left,1,4,0.7265318784193369,K13R08,2022-11-30_17h18.45.815,t1_Paradigm,2021.1.4,60.0054284631568,
V,left,Distractor,0,59,59,59,4307.265527305717,4309.266382243484,left,1,4,1.1161114543792792,K13R08,2022-11-30_17h18.45.815,t1_Paradigm,2021.1.4,60.0054284631568,
Y,left,Lure,0,60,60,60,4310.765648889748,4312.767674755378,right,0,4,0.5746978204115294,K13R08,2022-11-30_17h18.45.815,t1_Paradigm,2021.1.4,60.0054284631568,
H,right,Target,0,61,61,61,4314.265671666697,4316.264787856751,right,1,4,0.533580286835786,K13R08,2022-11-30_17h18.45.815,t1_Paradigm,2021.1.4,60.0054284631568,
L,left,Distractor,0,62,62,62,4317.765521531284,4319.767640108737,left,1,4,0.7266364599345252,K13R08,2022-11-30_17h18.45.815,t1_Paradigm,2021.1.4,60.0054284631568,
P,left,Distractor,0,63,63,63,4321.265642794504,4323.267042775129,left,1,4,0.8115049920015736,K13R08,2022-11-30_17h18.45.815,t1_Paradigm,2021.1.4,60.0054284631568,
