Letter,CorrAnswer,Stimulus,finaln_nback_run.thisRepN,finaln_nback_run.thisTrialN,finaln_nback_run.thisN,finaln_nback_run.thisIndex,finaln_fixcross.started,finaln_nback_trial.started,finaln_trial_resp.keys,finaln_trial_resp.corr,finaln_trial_resp.rt,finaln_level,finaln_money,Participant,date,expName,psychopyVersion,frameRate,
T,left,Distractor,0,0,0,0,4660.445664455066,4662.434326985953,left,1,0.46007873766939156,0,1.47,K13R08,2022-11-30_17h18.45.815,t1_Paradigm,2021.1.4,60.0054284631568,
F,left,Distractor,0,1,1,1,4663.93256353648,4665.933172098172,left,1,0.641519306198461,0,1.47,K13R08,2022-11-30_17h18.45.815,t1_Paradigm,2021.1.4,60.0054284631568,
G,left,Distractor,0,2,2,2,4667.432145852072,4669.43446910131,left,1,0.580145041065407,0,1.47,K13R08,2022-11-30_17h18.45.815,t1_Paradigm,2021.1.4,60.0054284631568,
V,left,Distractor,0,3,3,3,4670.93244483968,4672.9341168605315,left,1,0.6322532566264272,0,1.47,K13R08,2022-11-30_17h18.45.815,t1_Paradigm,2021.1.4,60.0054284631568,
H,left,Distractor,0,4,4,4,4674.432593050282,4676.43433179798,left,1,0.588127240393078,0,1.47,K13R08,2022-11-30_17h18.45.815,t1_Paradigm,2021.1.4,60.0054284631568,
C,left,Pretarget,0,5,5,5,4677.932405381012,4679.934155998402,left,1,0.7680943645973457,0,1.47,K13R08,2022-11-30_17h18.45.815,t1_Paradigm,2021.1.4,60.0054284631568,
C,right,Target,0,6,6,6,4681.432442273261,4683.432327426082,right,1,0.7263028256857069,0,1.47,K13R08,2022-11-30_17h18.45.815,t1_Paradigm,2021.1.4,60.0054284631568,
C,right,Target,0,7,7,7,4684.932331596516,4686.932487506361,right,1,0.6018880490300944,0,1.47,K13R08,2022-11-30_17h18.45.815,t1_Paradigm,2021.1.4,60.0054284631568,
W,left,Distractor,0,8,8,8,4688.432358864695,4690.433577592106,left,1,0.6368259706068784,0,1.47,K13R08,2022-11-30_17h18.45.815,t1_Paradigm,2021.1.4,60.0054284631568,
R,left,Pretarget,0,9,9,9,4691.932565461291,4693.934323457128,left,1,0.6881443712336477,0,1.47,K13R08,2022-11-30_17h18.45.815,t1_Paradigm,2021.1.4,60.0054284631568,
R,right,Target,0,10,10,10,4695.432436498828,4697.432442594058,right,1,0.5663880820648046,0,1.47,K13R08,2022-11-30_17h18.45.815,t1_Paradigm,2021.1.4,60.0054284631568,
Z,left,Distractor,0,11,11,11,4698.932532097868,4700.93448225419,left,1,0.6799995252222288,0,1.47,K13R08,2022-11-30_17h18.45.815,t1_Paradigm,2021.1.4,60.0054284631568,
R,left,Lure,0,12,12,12,4702.432486864767,4704.433589461783,left,1,0.6367881159530953,0,1.47,K13R08,2022-11-30_17h18.45.815,t1_Paradigm,2021.1.4,60.0054284631568,
H,left,Pretarget,0,13,13,13,4705.932345391004,4707.9338512363465,left,1,0.672597656986909,0,1.47,K13R08,2022-11-30_17h18.45.815,t1_Paradigm,2021.1.4,60.0054284631568,
H,right,Target,0,14,14,14,4709.432457030154,4711.432487185564,right,1,0.7740612847555894,0,1.47,K13R08,2022-11-30_17h18.45.815,t1_Paradigm,2021.1.4,60.0054284631568,
K,left,Distractor,0,15,15,15,4712.932412759459,4714.933198403945,left,1,0.6973943807097385,0,1.47,K13R08,2022-11-30_17h18.45.815,t1_Paradigm,2021.1.4,60.0054284631568,
J,left,Distractor,0,16,16,16,4716.432374584008,4718.433241712235,left,1,0.6212102838908322,0,1.47,K13R08,2022-11-30_17h18.45.815,t1_Paradigm,2021.1.4,60.0054284631568,
H,left,Lure,0,17,17,17,4719.93241019304,4721.933698855326,left,1,0.8324780747789191,0,1.47,K13R08,2022-11-30_17h18.45.815,t1_Paradigm,2021.1.4,60.0054284631568,
S,left,Distractor,0,18,18,18,4723.432451576518,4725.433650734994,left,1,0.724924018009915,0,1.47,K13R08,2022-11-30_17h18.45.815,t1_Paradigm,2021.1.4,60.0054284631568,
T,left,Pretarget,0,19,19,19,4726.932396077755,4728.933720028261,left,1,0.7128410046716454,0,1.47,K13R08,2022-11-30_17h18.45.815,t1_Paradigm,2021.1.4,60.0054284631568,
T,right,Target,0,20,20,20,4730.432514453743,4732.432349882234,right,1,0.8461452091723913,0,1.47,K13R08,2022-11-30_17h18.45.815,t1_Paradigm,2021.1.4,60.0054284631568,
X,left,Pretarget,0,21,21,21,4733.932514453743,4735.933894544636,left,1,0.7045351159613347,0,1.47,K13R08,2022-11-30_17h18.45.815,t1_Paradigm,2021.1.4,60.0054284631568,
X,right,Target,0,22,22,22,4737.432422062731,4739.432453822141,right,1,0.6943089055275777,0,1.47,K13R08,2022-11-30_17h18.45.815,t1_Paradigm,2021.1.4,60.0054284631568,
W,left,Distractor,0,23,23,23,4740.932512208135,4742.933593953014,left,1,0.5847360407642554,0,1.47,K13R08,2022-11-30_17h18.45.815,t1_Paradigm,2021.1.4,60.0054284631568,
K,left,Distractor,0,24,24,24,4744.432431045192,4746.432989561741,left,1,0.6534906803717604,0,1.47,K13R08,2022-11-30_17h18.45.815,t1_Paradigm,2021.1.4,60.0054284631568,
F,left,Pretarget,0,25,25,25,4747.932435536422,4749.945049477319,left,1,0.6934347196511226,0,1.47,K13R08,2022-11-30_17h18.45.815,t1_Paradigm,2021.1.4,60.0054284631568,
F,right,Target,0,26,26,26,4751.4323598271,4753.4323389749625,right,1,0.6944266399368644,0,1.47,K13R08,2022-11-30_17h18.45.815,t1_Paradigm,2021.1.4,60.0054284631568,
Z,left,Distractor,0,27,27,27,4754.932496488822,4756.933232729774,left,1,0.5851505171594908,0,1.47,K13R08,2022-11-30_17h18.45.815,t1_Paradigm,2021.1.4,60.0054284631568,
F,left,Lure,0,28,28,28,4758.43248814797,4760.434150865563,left,1,0.9723840669030324,0,1.47,K13R08,2022-11-30_17h18.45.815,t1_Paradigm,2021.1.4,60.0054284631568,
P,left,Distractor,0,29,29,29,4761.932346995018,4763.932908398798,left,1,0.657612667317153,0,1.47,K13R08,2022-11-30_17h18.45.815,t1_Paradigm,2021.1.4,60.0054284631568,
F,left,Lure,0,30,30,30,4765.432382924861,4767.434104670057,left,1,0.740465920229326,0,1.47,K13R08,2022-11-30_17h18.45.815,t1_Paradigm,2021.1.4,60.0054284631568,
R,left,Distractor,0,31,31,31,4768.931535365555,4770.933801512016,left,1,0.7288769422157202,0,1.47,K13R08,2022-11-30_17h18.45.815,t1_Paradigm,2021.1.4,60.0054284631568,
V,left,Distractor,0,32,32,32,4772.432457350966,4774.433326404018,left,1,0.6210954367124941,0,1.47,K13R08,2022-11-30_17h18.45.815,t1_Paradigm,2021.1.4,60.0054284631568,
M,left,Pretarget,0,33,33,33,4775.93249713043,4777.93398725646,left,1,0.7045052813773509,0,1.47,K13R08,2022-11-30_17h18.45.815,t1_Paradigm,2021.1.4,60.0054284631568,
M,right,Target,0,34,34,34,4779.432486864767,4781.432488789578,right,1,0.7579878133692546,0,1.47,K13R08,2022-11-30_17h18.45.815,t1_Paradigm,2021.1.4,60.0054284631568,
M,right,Target,0,35,35,35,4782.932441952464,4784.932377792022,right,1,0.7623311538045527,0,1.47,K13R08,2022-11-30_17h18.45.815,t1_Paradigm,2021.1.4,60.0054284631568,
D,left,Distractor,0,36,36,36,4786.432608448784,4788.43357470489,left,1,0.525046307782759,0,1.47,K13R08,2022-11-30_17h18.45.815,t1_Paradigm,2021.1.4,60.0054284631568,
M,left,Lure,0,37,37,37,4789.932535626693,4791.9335400582495,left,1,0.7208915348746814,0,1.47,K13R08,2022-11-30_17h18.45.815,t1_Paradigm,2021.1.4,60.0054284631568,
F,left,Distractor,0,38,38,38,4793.432417571501,4795.433752429279,left,1,0.6448184355976991,0,1.47,K13R08,2022-11-30_17h18.45.815,t1_Paradigm,2021.1.4,60.0054284631568,
T,left,Pretarget,0,39,39,39,4796.932441310855,4798.934727988642,left,1,0.7599158343509771,0,1.47,K13R08,2022-11-30_17h18.45.815,t1_Paradigm,2021.1.4,60.0054284631568,
T,right,Target,0,40,40,40,4800.432428478773,4802.432508037702,right,1,0.5899647951737279,0,1.47,K13R08,2022-11-30_17h18.45.815,t1_Paradigm,2021.1.4,60.0054284631568,
Z,left,Distractor,0,41,41,41,4803.932364639142,4805.933555777563,left,1,0.7369194523489568,0,1.47,K13R08,2022-11-30_17h18.45.815,t1_Paradigm,2021.1.4,60.0054284631568,
S,left,Distractor,0,42,42,42,4807.432640849802,4809.434080930689,left,1,0.6926773057493847,0,1.47,K13R08,2022-11-30_17h18.45.815,t1_Paradigm,2021.1.4,60.0054284631568,
D,left,Distractor,0,43,43,43,4810.932531777056,4812.933218293678,left,1,0.6814213203906547,0,1.47,K13R08,2022-11-30_17h18.45.815,t1_Paradigm,2021.1.4,60.0054284631568,
Y,left,Pretarget,0,44,44,44,4814.432520869785,4816.43399623892,left,1,0.7649071951454971,0,1.47,K13R08,2022-11-30_17h18.45.815,t1_Paradigm,2021.1.4,60.0054284631568,
Y,right,Target,0,45,45,45,4817.932502904863,4819.932221240568,right,1,0.5623369923996506,0,1.47,K13R08,2022-11-30_17h18.45.815,t1_Paradigm,2021.1.4,60.0054284631568,
Z,left,Pretarget,0,46,46,46,4821.432324218069,4823.434609933451,left,1,0.6119288358167978,0,1.47,K13R08,2022-11-30_17h18.45.815,t1_Paradigm,2021.1.4,60.0054284631568,
Z,right,Target,0,47,47,47,4824.932582784604,4826.932734524031,right,1,0.6016769612178905,0,1.47,K13R08,2022-11-30_17h18.45.815,t1_Paradigm,2021.1.4,60.0054284631568,
H,left,Pretarget,0,48,48,48,4828.432534343476,4830.433736068371,left,1,0.6367367875936907,0,1.47,K13R08,2022-11-30_17h18.45.815,t1_Paradigm,2021.1.4,60.0054284631568,
H,right,Target,0,49,49,49,4831.9325260026235,4833.932500338458,right,1,0.6418535820412217,0,1.47,K13R08,2022-11-30_17h18.45.815,t1_Paradigm,2021.1.4,60.0054284631568,
Z,left,Lure,0,50,50,50,4835.449287915457,4837.433981161215,left,1,0.7246189351571957,0,1.47,K13R08,2022-11-30_17h18.45.815,t1_Paradigm,2021.1.4,60.0054284631568,
R,left,Distractor,0,51,51,51,4838.932436498828,4840.933144829993,left,1,0.7135018571279943,0,1.47,K13R08,2022-11-30_17h18.45.815,t1_Paradigm,2021.1.4,60.0054284631568,
H,left,Lure,0,52,52,52,4842.432469862251,4844.434471026121,left,1,0.6360477045673179,0,1.47,K13R08,2022-11-30_17h18.45.815,t1_Paradigm,2021.1.4,60.0054284631568,
L,left,Distractor,0,53,53,53,4845.9325260026235,4847.933874013295,left,1,0.6567009475984378,0,1.47,K13R08,2022-11-30_17h18.45.815,t1_Paradigm,2021.1.4,60.0054284631568,
N,left,Pretarget,0,54,54,54,4849.432456709357,4851.433923416829,left,1,0.7247177422250388,0,1.47,K13R08,2022-11-30_17h18.45.815,t1_Paradigm,2021.1.4,60.0054284631568,
N,right,Target,0,55,55,55,4852.932461200588,4854.932513491338,right,1,0.7141562935285037,0,1.47,K13R08,2022-11-30_17h18.45.815,t1_Paradigm,2021.1.4,60.0054284631568,
W,left,Distractor,0,56,56,56,4856.432523757016,4858.434463326863,left,1,0.5880746288457885,0,1.47,K13R08,2022-11-30_17h18.45.815,t1_Paradigm,2021.1.4,60.0054284631568,
R,left,Pretarget,0,57,57,57,4859.932509320919,4861.934262183917,left,1,0.6883615543047199,0,1.47,K13R08,2022-11-30_17h18.45.815,t1_Paradigm,2021.1.4,60.0054284631568,
R,right,Target,0,58,58,58,4863.432547175573,4865.432465050209,right,1,1.0301823503687046,0,1.47,K13R08,2022-11-30_17h18.45.815,t1_Paradigm,2021.1.4,60.0054284631568,
Q,left,Distractor,0,59,59,59,4866.932523115407,4868.933293361391,left,1,0.7294062657892937,0,1.47,K13R08,2022-11-30_17h18.45.815,t1_Paradigm,2021.1.4,60.0054284631568,
R,left,Lure,0,60,60,60,4870.432512849729,4872.433230804963,left,1,0.9253374678228283,0,1.47,K13R08,2022-11-30_17h18.45.815,t1_Paradigm,2021.1.4,60.0054284631568,
Z,left,Distractor,0,61,61,61,4873.932626092894,4875.933899677475,left,1,0.7525232693878934,0,1.47,K13R08,2022-11-30_17h18.45.815,t1_Paradigm,2021.1.4,60.0054284631568,
K,left,Pretarget,0,62,62,62,4877.432611656797,4879.434505672747,left,1,0.7241463935788488,0,1.47,K13R08,2022-11-30_17h18.45.815,t1_Paradigm,2021.1.4,60.0054284631568,
K,right,Target,0,63,63,63,4880.9327422232745,4882.932348919829,left,0,0.5381655121018412,0,1.47,K13R08,2022-11-30_17h18.45.815,t1_Paradigm,2021.1.4,60.0054284631568,
