Letter,CorrAnswer,Stimulus,finaln_nback_run.thisRepN,finaln_nback_run.thisTrialN,finaln_nback_run.thisN,finaln_nback_run.thisIndex,finaln_fixcross.started,finaln_nback_trial.started,finaln_trial_resp.keys,finaln_trial_resp.corr,finaln_trial_resp.rt,finaln_level,finaln_money,Participant,date,expName,psychopyVersion,frameRate,
T,left,Distractor,0,0,0,0,3407.1335685663353,3409.1268567586285,left,1,0.449480670590674,0,1.65,K15V08,2022-11-18_16h14.11.074,t1_Paradigm,2021.1.4,59.97427634170212,
F,left,Distractor,0,1,1,1,3410.6246648827973,3412.625080641462,left,1,0.40741878991775593,0,1.65,K15V08,2022-11-18_16h14.11.074,t1_Paradigm,2021.1.4,59.97427634170212,
G,left,Distractor,0,2,2,2,3414.1248427671953,3416.1376311957583,left,1,0.558750131929628,0,1.65,K15V08,2022-11-18_16h14.11.074,t1_Paradigm,2021.1.4,59.97427634170212,
V,left,Distractor,0,3,3,3,3417.624719419042,3419.626936798588,left,1,0.5575516177541431,0,1.65,K15V08,2022-11-18_16h14.11.074,t1_Paradigm,2021.1.4,59.97427634170212,
H,left,Distractor,0,4,4,4,3421.124394928386,3423.1274396548433,left,1,0.46484256829717197,0,1.65,K15V08,2022-11-18_16h14.11.074,t1_Paradigm,2021.1.4,59.97427634170212,
C,left,Pretarget,0,5,5,5,3424.6242500865364,3426.6268537110154,left,1,0.5654786213108309,0,1.65,K15V08,2022-11-18_16h14.11.074,t1_Paradigm,2021.1.4,59.97427634170212,
C,right,Target,0,6,6,6,3428.1247635292393,3430.1246557399563,right,1,0.6676862805734345,0,1.65,K15V08,2022-11-18_16h14.11.074,t1_Paradigm,2021.1.4,59.97427634170212,
C,right,Target,0,7,7,7,3431.6247819753225,3433.6247794089104,right,1,0.7195557028389885,0,1.65,K15V08,2022-11-18_16h14.11.074,t1_Paradigm,2021.1.4,59.97427634170212,
W,left,Distractor,0,8,8,8,3435.124682366475,3437.126759555793,left,1,0.6584603519904704,0,1.65,K15V08,2022-11-18_16h14.11.074,t1_Paradigm,2021.1.4,59.97427634170212,
R,left,Pretarget,0,9,9,9,3438.6247502159795,3440.626817460453,left,1,0.5654799045169057,0,1.65,K15V08,2022-11-18_16h14.11.074,t1_Paradigm,2021.1.4,59.97427634170212,
R,right,Target,0,10,10,10,3442.124768341261,3444.1246679304104,right,1,0.8437748320366154,0,1.65,K15V08,2022-11-18_16h14.11.074,t1_Paradigm,2021.1.4,59.97427634170212,
Z,left,Distractor,0,11,11,11,3445.6245753791954,3447.6250065363292,left,1,0.43147119860714156,0,1.65,K15V08,2022-11-18_16h14.11.074,t1_Paradigm,2021.1.4,59.97427634170212,
R,left,Lure,0,12,12,12,3449.1247324115,3451.1264445287798,left,1,1.0258777688777627,0,1.65,K15V08,2022-11-18_16h14.11.074,t1_Paradigm,2021.1.4,59.97427634170212,
H,left,Pretarget,0,13,13,13,3452.624591098466,3454.6266185635604,left,1,0.6298487132498849,0,1.65,K15V08,2022-11-18_16h14.11.074,t1_Paradigm,2021.1.4,59.97427634170212,
H,right,Target,0,14,14,14,3456.1246432287,3458.1246236598117,right,1,0.6196494730993436,0,1.65,K15V08,2022-11-18_16h14.11.074,t1_Paradigm,2021.1.4,59.97427634170212,
K,left,Distractor,0,15,15,15,3459.6245609431307,3461.6265242479376,left,1,0.9418727040647354,0,1.65,K15V08,2022-11-18_16h14.11.074,t1_Paradigm,2021.1.4,59.97427634170212,
J,left,Distractor,0,16,16,16,3463.1245784268094,3465.126271616804,left,1,0.609949399989091,0,1.65,K15V08,2022-11-18_16h14.11.074,t1_Paradigm,2021.1.4,59.97427634170212,
H,left,Lure,0,17,17,17,3466.624637293873,3468.627061911149,left,1,0.5332239614299397,0,1.65,K15V08,2022-11-18_16h14.11.074,t1_Paradigm,2021.1.4,59.97427634170212,
S,left,Distractor,0,18,18,18,3470.124380813123,3472.12663412243,left,1,0.5696256215132962,0,1.65,K15V08,2022-11-18_16h14.11.074,t1_Paradigm,2021.1.4,59.97427634170212,
T,left,Pretarget,0,19,19,19,3473.624343118954,3475.626637811647,left,1,0.5096780982121345,0,1.65,K15V08,2022-11-18_16h14.11.074,t1_Paradigm,2021.1.4,59.97427634170212,
T,right,Target,0,20,20,20,3477.1245145873227,3479.124615318975,right,1,0.41941259331724723,0,1.65,K15V08,2022-11-18_16h14.11.074,t1_Paradigm,2021.1.4,59.97427634170212,
X,left,Pretarget,0,21,21,21,3480.6245766624015,3482.626326634251,None,0,,0,1.65,K15V08,2022-11-18_16h14.11.074,t1_Paradigm,2021.1.4,59.97427634170212,
X,right,Target,0,22,22,22,3484.124643870303,3486.1245765020003,right,1,0.571634159322457,0,1.65,K15V08,2022-11-18_16h14.11.074,t1_Paradigm,2021.1.4,59.97427634170212,
W,left,Distractor,0,23,23,23,3487.6245243717667,3489.6252801799574,left,1,0.8471788561055291,0,1.65,K15V08,2022-11-18_16h14.11.074,t1_Paradigm,2021.1.4,59.97427634170212,
K,left,Distractor,0,24,24,24,3491.1244748079444,3493.126367857236,left,1,0.609849630741337,0,1.65,K15V08,2022-11-18_16h14.11.074,t1_Paradigm,2021.1.4,59.97427634170212,
F,left,Pretarget,0,25,25,25,3494.624640822689,3496.6260776923345,left,1,0.6946015213043211,0,1.65,K15V08,2022-11-18_16h14.11.074,t1_Paradigm,2021.1.4,59.97427634170212,
F,right,Target,0,26,26,26,3498.124510416904,3500.1245303065934,right,1,0.42753400254605367,0,1.65,K15V08,2022-11-18_16h14.11.074,t1_Paradigm,2021.1.4,59.97427634170212,
Z,left,Distractor,0,27,27,27,3501.624505765283,3503.626218524166,left,1,0.49402491279761307,0,1.65,K15V08,2022-11-18_16h14.11.074,t1_Paradigm,2021.1.4,59.97427634170212,
F,left,Lure,0,28,28,28,3505.124576181199,3507.1256117282446,left,1,0.9148653933198148,0,1.65,K15V08,2022-11-18_16h14.11.074,t1_Paradigm,2021.1.4,59.97427634170212,
P,left,Distractor,0,29,29,29,3508.624671940429,3510.624742516745,left,1,0.47146294759386365,0,1.65,K15V08,2022-11-18_16h14.11.074,t1_Paradigm,2021.1.4,59.97427634170212,
F,left,Lure,0,30,30,30,3512.1245335146077,3514.12654943085,left,1,0.4576312727504046,0,1.65,K15V08,2022-11-18_16h14.11.074,t1_Paradigm,2021.1.4,59.97427634170212,
R,left,Distractor,0,31,31,31,3515.624504482078,3517.6264119674333,left,1,0.5899031596700297,0,1.65,K15V08,2022-11-18_16h14.11.074,t1_Paradigm,2021.1.4,59.97427634170212,
V,left,Distractor,0,32,32,32,3519.1245274193807,3521.1264743633137,left,1,0.5939523154329436,0,1.65,K15V08,2022-11-18_16h14.11.074,t1_Paradigm,2021.1.4,59.97427634170212,
M,left,Pretarget,0,33,33,33,3522.62458532404,3524.6260783339376,left,1,0.5821288575971266,0,1.65,K15V08,2022-11-18_16h14.11.074,t1_Paradigm,2021.1.4,59.97427634170212,
M,right,Target,0,34,34,34,3526.1246380958773,3528.1242707782294,right,1,0.5879190027690129,0,1.65,K15V08,2022-11-18_16h14.11.074,t1_Paradigm,2021.1.4,59.97427634170212,
M,right,Target,0,35,35,35,3529.624456361862,3531.6244987076516,right,1,0.6876763806412782,0,1.65,K15V08,2022-11-18_16h14.11.074,t1_Paradigm,2021.1.4,59.97427634170212,
D,left,Distractor,0,36,36,36,3533.124452672645,3535.126365611626,left,1,1.02577511241725,0,1.65,K15V08,2022-11-18_16h14.11.074,t1_Paradigm,2021.1.4,59.97427634170212,
M,left,Lure,0,37,37,37,3536.6243145676253,3538.626505641454,left,1,0.965654677141174,0,1.65,K15V08,2022-11-18_16h14.11.074,t1_Paradigm,2021.1.4,59.97427634170212,
F,left,Distractor,0,38,38,38,3540.1244863567963,3542.1267111147754,left,1,0.6654547857642683,0,1.65,K15V08,2022-11-18_16h14.11.074,t1_Paradigm,2021.1.4,59.97427634170212,
T,left,Pretarget,0,39,39,39,3543.624440000988,3545.626120679727,left,1,0.5901553096009593,0,1.65,K15V08,2022-11-18_16h14.11.074,t1_Paradigm,2021.1.4,59.97427634170212,
T,right,Target,0,40,40,40,3547.1245777852064,3549.1244982264498,right,1,0.6917877718833552,0,1.65,K15V08,2022-11-18_16h14.11.074,t1_Paradigm,2021.1.4,59.97427634170212,
Z,left,Distractor,0,41,41,41,3550.6244127328664,3552.6268463325823,left,1,0.6134772534132935,0,1.65,K15V08,2022-11-18_16h14.11.074,t1_Paradigm,2021.1.4,59.97427634170212,
S,left,Distractor,0,42,42,42,3554.124561103532,3556.125977441885,left,1,0.5061794377179467,0,1.65,K15V08,2022-11-18_16h14.11.074,t1_Paradigm,2021.1.4,59.97427634170212,
D,left,Distractor,0,43,43,43,3557.6244255649235,3559.6261145845,left,1,0.8779998543559486,0,1.65,K15V08,2022-11-18_16h14.11.074,t1_Paradigm,2021.1.4,59.97427634170212,
Y,left,Pretarget,0,44,44,44,3561.124550196283,3563.1267823326953,left,1,0.5774701791006009,0,1.65,K15V08,2022-11-18_16h14.11.074,t1_Paradigm,2021.1.4,59.97427634170212,
Y,right,Target,0,45,45,45,3564.624407600043,3566.6245619055353,right,1,0.42359006965489243,0,1.65,K15V08,2022-11-18_16h14.11.074,t1_Paradigm,2021.1.4,59.97427634170212,
Z,left,Pretarget,0,46,46,46,3568.1245351186153,3570.1258449508905,left,1,0.554292275132866,0,1.65,K15V08,2022-11-18_16h14.11.074,t1_Paradigm,2021.1.4,59.97427634170212,
Z,right,Target,0,47,47,47,3571.6243537054015,3573.624409524851,right,1,0.7998494158046014,0,1.65,K15V08,2022-11-18_16h14.11.074,t1_Paradigm,2021.1.4,59.97427634170212,
H,left,Pretarget,0,48,48,48,3575.1410660167658,3577.126230875021,left,1,0.4978552819793549,0,1.65,K15V08,2022-11-18_16h14.11.074,t1_Paradigm,2021.1.4,59.97427634170212,
H,right,Target,0,49,49,49,3578.6245490734773,3580.6245583767195,right,1,0.4076619574088909,0,1.65,K15V08,2022-11-18_16h14.11.074,t1_Paradigm,2021.1.4,59.97427634170212,
Z,left,Lure,0,50,50,50,3582.1243365425244,3584.126338664305,left,1,0.45772687157932523,0,1.65,K15V08,2022-11-18_16h14.11.074,t1_Paradigm,2021.1.4,59.97427634170212,
R,left,Distractor,0,51,51,51,3585.624377765509,3587.6249025966636,left,1,0.4155703544820426,0,1.65,K15V08,2022-11-18_16h14.11.074,t1_Paradigm,2021.1.4,59.97427634170212,
H,left,Lure,0,52,52,52,3589.124382096328,3591.1258597077567,left,1,0.6743509304687905,0,1.65,K15V08,2022-11-18_16h14.11.074,t1_Paradigm,2021.1.4,59.97427634170212,
L,left,Distractor,0,53,53,53,3592.624414978476,3594.6264482179968,left,1,0.614058224819928,0,1.65,K15V08,2022-11-18_16h14.11.074,t1_Paradigm,2021.1.4,59.97427634170212,
N,left,Pretarget,0,54,54,54,3596.124456201461,3598.1264278471053,left,1,0.6496043074657791,0,1.65,K15V08,2022-11-18_16h14.11.074,t1_Paradigm,2021.1.4,59.97427634170212,
N,right,Target,0,55,55,55,3599.6244451338116,3601.624455720259,right,1,0.4317435590292007,0,1.65,K15V08,2022-11-18_16h14.11.074,t1_Paradigm,2021.1.4,59.97427634170212,
W,left,Distractor,0,56,56,56,3603.1244077604433,3605.125932850485,left,1,0.6101187831491188,0,1.65,K15V08,2022-11-18_16h14.11.074,t1_Paradigm,2021.1.4,59.97427634170212,
R,left,Pretarget,0,57,57,57,3606.6244640610967,3608.6256738033226,left,1,0.8061711289610685,0,1.65,K15V08,2022-11-18_16h14.11.074,t1_Paradigm,2021.1.4,59.97427634170212,
R,right,Target,0,58,58,58,3610.1240234403194,3612.1242688534203,right,1,0.379877344777924,0,1.65,K15V08,2022-11-18_16h14.11.074,t1_Paradigm,2021.1.4,59.97427634170212,
Q,left,Distractor,0,59,59,59,3613.624272221836,3615.626157251091,left,1,0.5098708998766597,0,1.65,K15V08,2022-11-18_16h14.11.074,t1_Paradigm,2021.1.4,59.97427634170212,
R,left,Lure,0,60,60,60,3617.124430216544,3619.125659527659,left,1,1.4103477070557346,0,1.65,K15V08,2022-11-18_16h14.11.074,t1_Paradigm,2021.1.4,59.97427634170212,
Z,left,Distractor,0,61,61,61,3620.6243171340375,3622.626072559511,left,1,0.4379674277470258,0,1.65,K15V08,2022-11-18_16h14.11.074,t1_Paradigm,2021.1.4,59.97427634170212,
K,left,Pretarget,0,62,62,62,3624.124276552655,3626.125737482408,left,1,0.7943463879209958,0,1.65,K15V08,2022-11-18_16h14.11.074,t1_Paradigm,2021.1.4,59.97427634170212,
K,right,Target,0,63,63,63,3627.6244204321,3629.624291790724,right,1,0.39985942480961967,0,1.65,K15V08,2022-11-18_16h14.11.074,t1_Paradigm,2021.1.4,59.97427634170212,
