Letter,CorrAnswer,Stimulus,nback_run.thisRepN,nback_run.thisTrialN,nback_run.thisN,nback_run.thisIndex,fixcross.started,nback_trial.started,trial_resp.keys,trial_resp.corr,currentlevel,trial_resp.rt,Participant,date,expName,psychopyVersion,frameRate,
H,left,Distractor,0,0,0,0,361.33068308571205,363.2650150311513,None,0,1,,K15V08,2022-11-18_16h14.11.074,t1_Paradigm,2021.1.4,59.97427634170212,
Q,left,Pretarget,0,1,1,1,364.76854529058687,366.7654120229324,left,1,1,1.0404755175572973,K15V08,2022-11-18_16h14.11.074,t1_Paradigm,2021.1.4,59.97427634170212,
Q,right,Target,0,2,2,2,368.2638511635307,370.2640705917149,right,1,1,0.8216693672798101,K15V08,2022-11-18_16h14.11.074,t1_Paradigm,2021.1.4,59.97427634170212,
T,left,Distractor,0,3,3,3,371.76380865733995,373.7657395612016,left,1,1,0.8081649099044625,K15V08,2022-11-18_16h14.11.074,t1_Paradigm,2021.1.4,59.97427634170212,
Q,left,Lure,0,4,4,4,375.26391821103175,377.2655244638365,right,0,1,1.0362300313136075,K15V08,2022-11-18_16h14.11.074,t1_Paradigm,2021.1.4,59.97427634170212,
L,left,Distractor,0,5,5,5,378.7639145218152,380.7659952399483,left,1,1,0.6558047576777426,K15V08,2022-11-18_16h14.11.074,t1_Paradigm,2021.1.4,59.97427634170212,
V,left,Pretarget,0,6,6,6,382.263902491761,384.2663919109275,right,0,1,0.5795229875079713,K15V08,2022-11-18_16h14.11.074,t1_Paradigm,2021.1.4,59.97427634170212,
V,right,Target,0,7,7,7,385.7629511550938,387.76382116859645,right,1,1,0.7301168070116546,K15V08,2022-11-18_16h14.11.074,t1_Paradigm,2021.1.4,59.97427634170212,
K,left,Distractor,0,8,8,8,389.2639717848717,391.2653608551025,left,1,1,0.5724791503125743,K15V08,2022-11-18_16h14.11.074,t1_Paradigm,2021.1.4,59.97427634170212,
G,left,Pretarget,0,9,9,9,392.7638445871014,394.7657947390487,left,1,1,0.8319927575867041,K15V08,2022-11-18_16h14.11.074,t1_Paradigm,2021.1.4,59.97427634170212,
G,right,Target,0,10,10,10,396.26384538910474,398.26382293300435,right,1,1,0.6942483189204722,K15V08,2022-11-18_16h14.11.074,t1_Paradigm,2021.1.4,59.97427634170212,
G,right,Target,0,11,11,11,399.7640110830482,401.763875704841,right,1,1,0.5218181870673106,K15V08,2022-11-18_16h14.11.074,t1_Paradigm,2021.1.4,59.97427634170212,
P,left,Pretarget,0,12,12,12,403.26382646182014,405.26571598229543,left,1,1,0.6524129240633556,K15V08,2022-11-18_16h14.11.074,t1_Paradigm,2021.1.4,59.97427634170212,
P,right,Target,0,13,13,13,406.763954621995,408.76395975481796,left,0,1,0.5617390389365937,K15V08,2022-11-18_16h14.11.074,t1_Paradigm,2021.1.4,59.97427634170212,
G,left,Lure,0,14,14,14,410.2638643163898,412.2658436612685,left,1,1,0.5800048312698891,K15V08,2022-11-18_16h14.11.074,t1_Paradigm,2021.1.4,59.97427634170212,
Y,left,Distractor,0,15,15,15,413.7640033838136,415.7661845127975,left,1,1,0.5674768934741223,K15V08,2022-11-18_16h14.11.074,t1_Paradigm,2021.1.4,59.97427634170212,
B,left,Distractor,0,16,16,16,417.26391821103175,419.2659052551446,left,1,1,0.6197553375745883,K15V08,2022-11-18_16h14.11.074,t1_Paradigm,2021.1.4,59.97427634170212,
T,left,Pretarget,0,17,17,17,420.7638237350077,422.7660260368864,right,0,1,0.6077817446657718,K15V08,2022-11-18_16h14.11.074,t1_Paradigm,2021.1.4,59.97427634170212,
T,right,Target,0,18,18,18,424.2637199557423,426.2638110633509,right,1,1,0.6300302868635299,K15V08,2022-11-18_16h14.11.074,t1_Paradigm,2021.1.4,59.97427634170212,
S,left,Distractor,0,19,19,19,427.7637958252824,429.7669688723156,left,1,1,0.5666938171616493,K15V08,2022-11-18_16h14.11.074,t1_Paradigm,2021.1.4,59.97427634170212,
T,left,Lure,0,20,20,20,431.26377577519247,433.2661442522169,left,1,1,0.8277103791774607,K15V08,2022-11-18_16h14.11.074,t1_Paradigm,2021.1.4,59.97427634170212,
J,left,Distractor,0,21,21,21,434.7637614995285,436.76628620685347,left,1,1,0.5915389262067947,K15V08,2022-11-18_16h14.11.074,t1_Paradigm,2021.1.4,59.97427634170212,
P,left,Distractor,0,22,22,22,438.2637664719507,440.26574677923395,left,1,1,0.5480372886759142,K15V08,2022-11-18_16h14.11.074,t1_Paradigm,2021.1.4,59.97427634170212,
F,left,Distractor,0,23,23,23,441.76374096823633,443.7657947390487,left,1,1,0.5358125082407241,K15V08,2022-11-18_16h14.11.074,t1_Paradigm,2021.1.4,59.97427634170212,
L,left,Distractor,0,24,24,24,445.26379021125763,447.2655844537055,left,1,1,0.5401532725113611,K15V08,2022-11-18_16h14.11.074,t1_Paradigm,2021.1.4,59.97427634170212,
W,left,Pretarget,0,25,25,25,448.7636999056524,450.7665165422866,left,1,1,0.479282803471051,K15V08,2022-11-18_16h14.11.074,t1_Paradigm,2021.1.4,59.97427634170212,
W,right,Target,0,26,26,26,452.2637812288169,454.26370808608885,right,1,1,0.8698899939786315,K15V08,2022-11-18_16h14.11.074,t1_Paradigm,2021.1.4,59.97427634170212,
V,left,Distractor,0,27,27,27,455.76368097836735,457.76569978182283,left,1,1,0.6640509586668486,K15V08,2022-11-18_16h14.11.074,t1_Paradigm,2021.1.4,59.97427634170212,
W,left,Lure,0,28,28,28,459.2637209181464,461.26553665429105,left,1,1,0.6840272642725722,K15V08,2022-11-18_16h14.11.074,t1_Paradigm,2021.1.4,59.97427634170212,
R,left,Pretarget,0,29,29,29,462.76365916386953,464.76697175952836,left,1,1,0.6383448185592897,K15V08,2022-11-18_16h14.11.074,t1_Paradigm,2021.1.4,59.97427634170212,
R,right,Target,0,30,30,30,466.2637462614605,468.26385790036124,right,1,1,0.581976476913951,K15V08,2022-11-18_16h14.11.074,t1_Paradigm,2021.1.4,59.97427634170212,
G,left,Distractor,0,31,31,31,469.7636440862018,471.765310328876,left,1,1,0.568259007382494,K15V08,2022-11-18_16h14.11.074,t1_Paradigm,2021.1.4,59.97427634170212,
R,left,Lure,0,32,32,32,473.2637571687094,475.26562038346697,left,1,1,1.035920457924476,K15V08,2022-11-18_16h14.11.074,t1_Paradigm,2021.1.4,59.97427634170212,
S,left,Distractor,0,33,33,33,476.76360976044793,478.765093146302,left,1,1,0.5928224527647217,K15V08,2022-11-18_16h14.11.074,t1_Paradigm,2021.1.4,59.97427634170212,
R,left,Lure,0,34,34,34,480.2637003868547,482.26541956176584,left,1,1,0.8681246236596962,K15V08,2022-11-18_16h14.11.074,t1_Paradigm,2021.1.4,59.97427634170212,
P,left,Pretarget,0,35,35,35,483.76367359993424,485.76601801685024,left,1,1,0.6958106219281035,K15V08,2022-11-18_16h14.11.074,t1_Paradigm,2021.1.4,59.97427634170212,
P,right,Target,0,36,36,36,487.2636663819019,489.2804834349365,right,1,1,0.8295039800232189,K15V08,2022-11-18_16h14.11.074,t1_Paradigm,2021.1.4,59.97427634170212,
Y,left,Pretarget,0,37,37,37,490.7635889083542,492.76524456458105,left,1,1,0.560324304590722,K15V08,2022-11-18_16h14.11.074,t1_Paradigm,2021.1.4,59.97427634170212,
Y,right,Target,0,38,38,38,494.2636644570932,496.2636894796058,right,1,1,0.9177946312597669,K15V08,2022-11-18_16h14.11.074,t1_Paradigm,2021.1.4,59.97427634170212,
J,left,Distractor,0,39,39,39,497.7636357453646,499.7647264702571,left,1,1,0.6486787953135718,K15V08,2022-11-18_16h14.11.074,t1_Paradigm,2021.1.4,59.97427634170212,
Y,left,Lure,0,40,40,40,501.2636872339956,503.2655549399731,left,1,1,0.796133572736835,K15V08,2022-11-18_16h14.11.074,t1_Paradigm,2021.1.4,59.97427634170212,
T,left,Distractor,0,41,41,41,504.76372941938484,506.76561541104434,left,1,1,0.7838763913559887,K15V08,2022-11-18_16h14.11.074,t1_Paradigm,2021.1.4,59.97427634170212,
V,left,Distractor,0,42,42,42,508.26364745461683,510.2655770752724,left,1,1,0.7560487913324323,K15V08,2022-11-18_16h14.11.074,t1_Paradigm,2021.1.4,59.97427634170212,
N,left,Pretarget,0,43,43,43,511.76374032663375,513.7663060965426,left,1,1,0.6471591588970114,K15V08,2022-11-18_16h14.11.074,t1_Paradigm,2021.1.4,59.97427634170212,
N,right,Target,0,44,44,44,515.2635515349868,517.2637661511496,right,1,1,0.7017525061810375,K15V08,2022-11-18_16h14.11.074,t1_Paradigm,2021.1.4,59.97427634170212,
N,right,Target,0,45,45,45,518.7636415197906,520.763580567517,right,1,1,0.6417350481669928,K15V08,2022-11-18_16h14.11.074,t1_Paradigm,2021.1.4,59.97427634170212,
X,left,Distractor,0,46,46,46,522.2634357256673,524.2655632808107,left,1,1,0.5480850880903745,K15V08,2022-11-18_16h14.11.074,t1_Paradigm,2021.1.4,59.97427634170212,
Z,left,Distractor,0,47,47,47,525.7635391841316,527.7654434614731,left,1,1,0.7760244553355733,K15V08,2022-11-18_16h14.11.074,t1_Paradigm,2021.1.4,59.97427634170212,
H,left,Pretarget,0,48,48,48,529.2627094312095,531.2655530151644,left,1,1,0.6199333823728921,K15V08,2022-11-18_16h14.11.074,t1_Paradigm,2021.1.4,59.97427634170212,
H,right,Target,0,49,49,49,532.7635587530192,534.7636049484265,right,1,1,0.6259557877870066,K15V08,2022-11-18_16h14.11.074,t1_Paradigm,2021.1.4,59.97427634170212,
K,left,Distractor,0,50,50,50,536.2636994244501,538.2650240135915,left,1,1,0.5484873730952131,K15V08,2022-11-18_16h14.11.074,t1_Paradigm,2021.1.4,59.97427634170212,
V,left,Pretarget,0,51,51,51,539.7635953243832,541.7656516616073,left,1,1,0.6479675785235486,K15V08,2022-11-18_16h14.11.074,t1_Paradigm,2021.1.4,59.97427634170212,
V,right,Target,0,52,52,52,543.2634928283235,545.2636875547971,right,1,1,0.4617317567435748,K15V08,2022-11-18_16h14.11.074,t1_Paradigm,2021.1.4,59.97427634170212,
R,left,Distractor,0,53,53,53,546.7632876758032,548.7655608747998,left,1,1,0.6079264261147728,K15V08,2022-11-18_16h14.11.074,t1_Paradigm,2021.1.4,59.97427634170212,
V,left,Lure,0,54,54,54,550.2636577202632,552.26522868491,right,0,1,0.788256614203874,K15V08,2022-11-18_16h14.11.074,t1_Paradigm,2021.1.4,59.97427634170212,
Y,left,Distractor,0,55,55,55,553.7636174596826,555.7655753108645,left,1,1,0.6480025458799901,K15V08,2022-11-18_16h14.11.074,t1_Paradigm,2021.1.4,59.97427634170212,
Q,left,Distractor,0,56,56,56,557.2634248184183,559.2655591103919,left,1,1,0.6838373498208057,K15V08,2022-11-18_16h14.11.074,t1_Paradigm,2021.1.4,59.97427634170212,
Z,left,Pretarget,0,57,57,57,560.7636848279847,562.7646821996584,left,1,1,0.49691982498370635,K15V08,2022-11-18_16h14.11.074,t1_Paradigm,2021.1.4,59.97427634170212,
Z,right,Target,0,58,58,58,564.2635512141853,566.2635345325104,right,1,1,0.8058621971754292,K15V08,2022-11-18_16h14.11.074,t1_Paradigm,2021.1.4,59.97427634170212,
B,left,Distractor,0,59,59,59,567.763465720602,569.7653363137927,left,1,1,0.5360389940565256,K15V08,2022-11-18_16h14.11.074,t1_Paradigm,2021.1.4,59.97427634170212,
S,left,Pretarget,0,60,60,60,571.2636811387681,573.2652197024697,left,1,1,0.49250399317588744,K15V08,2022-11-18_16h14.11.074,t1_Paradigm,2021.1.4,59.97427634170212,
S,right,Target,0,61,61,61,574.7634955551355,576.7635411089402,right,1,1,0.6416407325436921,K15V08,2022-11-18_16h14.11.074,t1_Paradigm,2021.1.4,59.97427634170212,
T,left,Distractor,0,62,62,62,578.2635326077018,580.2653278125547,left,1,1,0.6122033508995628,K15V08,2022-11-18_16h14.11.074,t1_Paradigm,2021.1.4,59.97427634170212,
D,left,Distractor,0,63,63,63,581.763448397324,583.7649272919577,left,1,1,0.6004424493448823,K15V08,2022-11-18_16h14.11.074,t1_Paradigm,2021.1.4,59.97427634170212,
R,left,Distractor,0,0,0,0,601.8033448682838,603.7984568167578,left,1,1,1.0473031345832169,K15V08,2022-11-18_16h14.11.074,t1_Paradigm,2021.1.4,59.97427634170212,
V,left,Distractor,0,1,1,1,605.2966970604646,607.2986154530697,left,1,1,0.6188054445137823,K15V08,2022-11-18_16h14.11.074,t1_Paradigm,2021.1.4,59.97427634170212,
N,left,Pretarget,0,2,2,2,608.7966644991182,610.7987064002775,left,1,1,0.6065078421515864,K15V08,2022-11-18_16h14.11.074,t1_Paradigm,2021.1.4,59.97427634170212,
N,right,Target,0,3,3,3,612.2967528799147,614.2967933008961,right,1,1,0.6926529733641473,K15V08,2022-11-18_16h14.11.074,t1_Paradigm,2021.1.4,59.97427634170212,
S,left,Distractor,0,4,4,4,615.7964771510781,617.7976140713779,left,1,1,0.7276883401191299,K15V08,2022-11-18_16h14.11.074,t1_Paradigm,2021.1.4,59.97427634170212,
N,left,Lure,0,5,5,5,619.2967272157996,621.2990738783258,left,1,1,0.9223352548269759,K15V08,2022-11-18_16h14.11.074,t1_Paradigm,2021.1.4,59.97427634170212,
Z,left,Distractor,0,6,6,6,622.7967761380189,624.7988517233291,left,1,1,0.6544820933449955,K15V08,2022-11-18_16h14.11.074,t1_Paradigm,2021.1.4,59.97427634170212,
L,left,Pretarget,0,7,7,7,626.2966277673534,628.298643041993,left,1,1,0.5310072234860854,K15V08,2022-11-18_16h14.11.074,t1_Paradigm,2021.1.4,59.97427634170212,
L,right,Target,0,8,8,8,629.796765872373,631.7967748548133,right,1,1,0.6329386727097699,K15V08,2022-11-18_16h14.11.074,t1_Paradigm,2021.1.4,59.97427634170212,
H,left,Distractor,0,9,9,9,633.2964410609159,635.2987052774722,left,1,1,0.6505959047131,K15V08,2022-11-18_16h14.11.074,t1_Paradigm,2021.1.4,59.97427634170212,
L,left,Lure,0,10,10,10,636.7967260929947,638.7982219901044,left,1,1,0.8313687987879348,K15V08,2022-11-18_16h14.11.074,t1_Paradigm,2021.1.4,59.97427634170212,
X,left,Pretarget,0,11,11,11,640.2968792756817,642.2987851570308,left,1,1,0.6746104588328308,K15V08,2022-11-18_16h14.11.074,t1_Paradigm,2021.1.4,59.97427634170212,
X,right,Target,0,12,12,12,643.796494153554,645.7965204592722,left,0,1,0.7767793011212234,K15V08,2022-11-18_16h14.11.074,t1_Paradigm,2021.1.4,59.97427634170212,
X,right,Target,0,13,13,13,647.2968266642458,649.2964157176023,right,1,1,1.004835440090119,K15V08,2022-11-18_16h14.11.074,t1_Paradigm,2021.1.4,59.97427634170212,
R,left,Distractor,0,14,14,14,650.7967074865112,652.7987936582688,left,1,1,0.7505258737592158,K15V08,2022-11-18_16h14.11.074,t1_Paradigm,2021.1.4,59.97427634170212,
T,left,Distractor,0,15,15,15,654.296665301122,656.2986042250193,left,1,1,0.5788018258735974,K15V08,2022-11-18_16h14.11.074,t1_Paradigm,2021.1.4,59.97427634170212,
V,left,Pretarget,0,16,16,16,657.7967822332464,659.7962307755727,left,1,1,0.5690318180490976,K15V08,2022-11-18_16h14.11.074,t1_Paradigm,2021.1.4,59.97427634170212,
V,right,Target,0,17,17,17,661.2966627347103,663.2967114965293,right,1,1,0.9885371229820521,K15V08,2022-11-18_16h14.11.074,t1_Paradigm,2021.1.4,59.97427634170212,
N,left,Distractor,0,18,18,18,664.7968021229356,666.7986772073466,left,1,1,0.5588479763682699,K15V08,2022-11-18_16h14.11.074,t1_Paradigm,2021.1.4,59.97427634170212,
B,left,Distractor,0,19,19,19,668.296448439349,670.2977964469958,left,1,1,0.8834204362706259,K15V08,2022-11-18_16h14.11.074,t1_Paradigm,2021.1.4,59.97427634170212,
V,left,Lure,0,20,20,20,671.7966436470249,673.7985001249524,left,1,1,1.3666956136498811,K15V08,2022-11-18_16h14.11.074,t1_Paradigm,2021.1.4,59.97427634170212,
P,left,Distractor,0,21,21,21,675.2966701131434,677.2984694884146,left,1,1,0.8427046384358619,K15V08,2022-11-18_16h14.11.074,t1_Paradigm,2021.1.4,59.97427634170212,
K,left,Pretarget,0,22,22,22,678.7964325596779,680.7984366062672,left,1,1,0.6707608415649702,K15V08,2022-11-18_16h14.11.074,t1_Paradigm,2021.1.4,59.97427634170212,
K,right,Target,0,23,23,23,682.2964109055808,684.2963592565491,right,1,1,0.4368208834039251,K15V08,2022-11-18_16h14.11.074,t1_Paradigm,2021.1.4,59.97427634170212,
J,left,Pretarget,0,24,24,24,685.7964187652162,687.7992626699727,left,1,1,0.6299398208584535,K15V08,2022-11-18_16h14.11.074,t1_Paradigm,2021.1.4,59.97427634170212,
J,right,Target,0,25,25,25,689.2964952763593,691.2964375321001,right,1,1,0.5248715751640702,K15V08,2022-11-18_16h14.11.074,t1_Paradigm,2021.1.4,59.97427634170212,
H,left,Distractor,0,26,26,26,692.796523346485,694.8095568673482,left,1,1,0.6436611400067704,K15V08,2022-11-18_16h14.11.074,t1_Paradigm,2021.1.4,59.97427634170212,
J,left,Lure,0,27,27,27,696.2964651210239,698.2984066113329,left,1,1,1.0589838357777808,K15V08,2022-11-18_16h14.11.074,t1_Paradigm,2021.1.4,59.97427634170212,
V,left,Distractor,0,28,28,28,699.7966343437831,701.7986066310298,left,1,1,0.7589055281464425,K15V08,2022-11-18_16h14.11.074,t1_Paradigm,2021.1.4,59.97427634170212,
Z,left,Pretarget,0,29,29,29,703.2966855116126,705.298558029612,left,1,1,0.522701674230575,K15V08,2022-11-18_16h14.11.074,t1_Paradigm,2021.1.4,59.97427634170212,
Z,right,Target,0,30,30,30,706.7966138124909,708.7966006596318,left,0,1,0.5766656090909237,K15V08,2022-11-18_16h14.11.074,t1_Paradigm,2021.1.4,59.97427634170212,
T,left,Distractor,0,31,31,31,710.2965366597448,712.2987591721142,left,1,1,0.6264081178160268,K15V08,2022-11-18_16h14.11.074,t1_Paradigm,2021.1.4,59.97427634170212,
Z,left,Lure,0,32,32,32,713.7963837978593,715.7984844056816,left,1,1,0.7426646344961227,K15V08,2022-11-18_16h14.11.074,t1_Paradigm,2021.1.4,59.97427634170212,
F,left,Distractor,0,33,33,33,717.2964930307492,719.2983244861646,left,1,1,0.826855122541474,K15V08,2022-11-18_16h14.11.074,t1_Paradigm,2021.1.4,59.97427634170212,
Y,left,Pretarget,0,34,34,34,720.7964283892591,722.7987984702906,left,1,1,0.7344768193693199,K15V08,2022-11-18_16h14.11.074,t1_Paradigm,2021.1.4,59.97427634170212,
Y,right,Target,0,35,35,35,724.2964837275074,726.2966155768988,right,1,1,0.7246201951566036,K15V08,2022-11-18_16h14.11.074,t1_Paradigm,2021.1.4,59.97427634170212,
Y,right,Target,0,36,36,36,727.7965178928605,729.7965570306362,right,1,1,0.504524423095063,K15V08,2022-11-18_16h14.11.074,t1_Paradigm,2021.1.4,59.97427634170212,
W,left,Distractor,0,37,37,37,731.2966377121982,733.2985054181761,left,1,1,0.6186120012462197,K15V08,2022-11-18_16h14.11.074,t1_Paradigm,2021.1.4,59.97427634170212,
Q,left,Distractor,0,38,38,38,734.7965531810189,736.7985148818182,left,1,1,0.6866417960004583,K15V08,2022-11-18_16h14.11.074,t1_Paradigm,2021.1.4,59.97427634170212,
P,left,Pretarget,0,39,39,39,738.2966508650572,740.2985025309629,left,1,1,0.5948030808485782,K15V08,2022-11-18_16h14.11.074,t1_Paradigm,2021.1.4,59.97427634170212,
P,right,Target,0,40,40,40,741.7964726598577,743.7964681686378,right,1,1,0.47272530125655976,K15V08,2022-11-18_16h14.11.074,t1_Paradigm,2021.1.4,59.97427634170212,
J,left,Distractor,0,41,41,41,745.296641241014,747.2985070221832,left,1,1,0.9386743137174562,K15V08,2022-11-18_16h14.11.074,t1_Paradigm,2021.1.4,59.97427634170212,
P,left,Lure,0,42,42,42,748.7966147748955,750.7970270047442,None,0,1,,K15V08,2022-11-18_16h14.11.074,t1_Paradigm,2021.1.4,59.97427634170212,
L,left,Distractor,0,43,43,43,752.2965279981061,754.2984710924218,left,1,1,0.8025627543756855,K15V08,2022-11-18_16h14.11.074,t1_Paradigm,2021.1.4,59.97427634170212,
Z,left,Distractor,0,44,44,44,755.7956578242026,757.7983323457995,left,1,1,0.5826989217539449,K15V08,2022-11-18_16h14.11.074,t1_Paradigm,2021.1.4,59.97427634170212,
F,left,Pretarget,0,45,45,45,759.2965838175562,761.2983562455067,left,1,1,0.522801443478329,K15V08,2022-11-18_16h14.11.074,t1_Paradigm,2021.1.4,59.97427634170212,
F,right,Target,0,46,46,46,762.7964014419383,764.7965002487815,right,1,1,0.49673055213452244,K15V08,2022-11-18_16h14.11.074,t1_Paradigm,2021.1.4,59.97427634170212,
G,left,Pretarget,0,47,47,47,766.2965241484887,768.2984698092162,left,1,1,0.4665999185808687,K15V08,2022-11-18_16h14.11.074,t1_Paradigm,2021.1.4,59.97427634170212,
G,right,Target,0,48,48,48,769.7965589554449,771.7965021735902,right,1,1,0.74452528284246,K15V08,2022-11-18_16h14.11.074,t1_Paradigm,2021.1.4,59.97427634170212,
V,left,Distractor,0,49,49,49,773.2964439481291,775.2982401153861,left,1,1,0.6507948016051159,K15V08,2022-11-18_16h14.11.074,t1_Paradigm,2021.1.4,59.97427634170212,
G,left,Lure,0,50,50,50,776.7965586346434,778.798397789293,left,1,1,0.9906614701108083,K15V08,2022-11-18_16h14.11.074,t1_Paradigm,2021.1.4,59.97427634170212,
Q,left,Pretarget,0,51,51,51,780.2965228652831,782.2983575287124,left,1,1,0.7866474741858838,K15V08,2022-11-18_16h14.11.074,t1_Paradigm,2021.1.4,59.97427634170212,
Q,right,Target,0,52,52,52,783.796512118435,785.7964309556708,right,1,1,0.7285737520901421,K15V08,2022-11-18_16h14.11.074,t1_Paradigm,2021.1.4,59.97427634170212,
Y,left,Distractor,0,53,53,53,787.2965693814915,789.298347583868,left,1,1,0.570807774815421,K15V08,2022-11-18_16h14.11.074,t1_Paradigm,2021.1.4,59.97427634170212,
V,left,Distractor,0,54,54,54,790.7963183543654,792.7982694687178,left,1,1,0.6547830050944867,K15V08,2022-11-18_16h14.11.074,t1_Paradigm,2021.1.4,59.97427634170212,
B,left,Distractor,0,55,55,55,794.2964442689306,796.2984130273614,left,1,1,0.7865964667571461,K15V08,2022-11-18_16h14.11.074,t1_Paradigm,2021.1.4,59.97427634170212,
J,left,Pretarget,0,56,56,56,797.7965634466652,799.7983538394958,left,1,1,0.6947901525509224,K15V08,2022-11-18_16h14.11.074,t1_Paradigm,2021.1.4,59.97427634170212,
J,right,Target,0,57,57,57,801.2963422540727,803.2962906050413,right,1,1,0.6687067499510704,K15V08,2022-11-18_16h14.11.074,t1_Paradigm,2021.1.4,59.97427634170212,
H,left,Distractor,0,58,58,58,804.7963690409931,806.7983021904645,left,1,1,0.5747776926227743,K15V08,2022-11-18_16h14.11.074,t1_Paradigm,2021.1.4,59.97427634170212,
J,left,Lure,0,59,59,59,808.2963894118845,810.2983668319541,left,1,1,1.1387055597774633,K15V08,2022-11-18_16h14.11.074,t1_Paradigm,2021.1.4,59.97427634170212,
D,left,Pretarget,0,60,60,60,811.7965230256839,813.7982146116717,left,1,1,0.7268215346307443,K15V08,2022-11-18_16h14.11.074,t1_Paradigm,2021.1.4,59.97427634170212,
D,right,Target,0,61,61,61,815.296455496981,817.2965466045896,right,1,1,0.63640910267668,K15V08,2022-11-18_16h14.11.074,t1_Paradigm,2021.1.4,59.97427634170212,
R,left,Distractor,0,62,62,62,818.7964659230277,820.7981498097809,left,1,1,0.6070095756017508,K15V08,2022-11-18_16h14.11.074,t1_Paradigm,2021.1.4,59.97427634170212,
F,left,Distractor,0,63,63,63,822.2963364796472,824.2983527166909,left,1,1,0.5468493609473626,K15V08,2022-11-18_16h14.11.074,t1_Paradigm,2021.1.4,59.97427634170212,
F,left,Distractor,0,0,0,0,998.7538298077791,1000.7459897414117,left,1,2,1.4109447185337558,K15V08,2022-11-18_16h14.11.074,t1_Paradigm,2021.1.4,59.97427634170212,
N,left,Pretarget,0,1,1,1,1002.2461230344095,1004.2477536681238,left,1,2,0.9812796320279631,K15V08,2022-11-18_16h14.11.074,t1_Paradigm,2021.1.4,59.97427634170212,
V,left,Distractor,0,2,2,2,1005.7458922177741,1007.7481760032185,left,1,2,0.7767167448405417,K15V08,2022-11-18_16h14.11.074,t1_Paradigm,2021.1.4,59.97427634170212,
N,right,Target,0,3,3,3,1009.2451542140636,1011.2463440666008,right,1,2,0.6862292453497503,K15V08,2022-11-18_16h14.11.074,t1_Paradigm,2021.1.4,59.97427634170212,
N,left,Lure,0,4,4,4,1012.7459749845455,1014.7460134807181,None,0,2,,K15V08,2022-11-18_16h14.11.074,t1_Paradigm,2021.1.4,59.97427634170212,
X,left,Distractor,0,5,5,5,1016.2460585533202,1018.2477761242246,left,1,2,1.2208939260422085,K15V08,2022-11-18_16h14.11.074,t1_Paradigm,2021.1.4,59.97427634170212,
G,left,Pretarget,0,6,6,6,1019.7461119667598,1021.7484980878633,left,1,2,1.1122596515519945,K15V08,2022-11-18_16h14.11.074,t1_Paradigm,2021.1.4,59.97427634170212,
H,left,Pretarget,0,7,7,7,1023.2460251899709,1025.2480683743354,left,1,2,0.5886212371196962,K15V08,2022-11-18_16h14.11.074,t1_Paradigm,2021.1.4,59.97427634170212,
G,right,Target,0,8,8,8,1026.74593809238,1028.7477628109648,right,1,2,0.800725845335819,K15V08,2022-11-18_16h14.11.074,t1_Paradigm,2021.1.4,59.97427634170212,
H,right,Target,0,9,9,9,1030.2459626336902,1032.247937166547,right,1,2,0.8526315181638893,K15V08,2022-11-18_16h14.11.074,t1_Paradigm,2021.1.4,59.97427634170212,
T,left,Pretarget,0,10,10,10,1033.7459894206102,1035.7477801342427,left,1,2,0.5368406768525347,K15V08,2022-11-18_16h14.11.074,t1_Paradigm,2021.1.4,59.97427634170212,
K,left,Distractor,0,11,11,11,1037.246093520677,1039.2483089754148,left,1,2,0.6522647137985587,K15V08,2022-11-18_16h14.11.074,t1_Paradigm,2021.1.4,59.97427634170212,
T,right,Target,0,12,12,12,1040.7460231047614,1042.7482061585536,right,1,2,0.8645361387630146,K15V08,2022-11-18_16h14.11.074,t1_Paradigm,2021.1.4,59.97427634170212,
T,left,Lure,0,13,13,13,1044.245918683893,1046.246038663631,left,1,2,0.710699979115816,K15V08,2022-11-18_16h14.11.074,t1_Paradigm,2021.1.4,59.97427634170212,
J,left,Distractor,0,14,14,14,1047.7459698517225,1049.747180556353,left,1,2,0.7933750011629854,K15V08,2022-11-18_16h14.11.074,t1_Paradigm,2021.1.4,59.97427634170212,
Q,left,Pretarget,0,15,15,15,1051.2459818817763,1053.2479355625399,None,0,2,,K15V08,2022-11-18_16h14.11.074,t1_Paradigm,2021.1.4,59.97427634170212,
M,left,Distractor,0,16,16,16,1054.7459313555498,1056.7484172459006,left,1,2,0.864175557946055,K15V08,2022-11-18_16h14.11.074,t1_Paradigm,2021.1.4,59.97427634170212,
Q,right,Target,0,17,17,17,1058.2458801877203,1060.2472792027954,right,1,2,0.5492951511182582,K15V08,2022-11-18_16h14.11.074,t1_Paradigm,2021.1.4,59.97427634170212,
R,left,Distractor,0,18,18,18,1061.745976267751,1063.747730730821,left,1,2,0.6966684449762397,K15V08,2022-11-18_16h14.11.074,t1_Paradigm,2021.1.4,59.97427634170212,
W,left,Distractor,0,19,19,19,1065.2458923781749,1067.247159543859,left,1,2,0.6533416442293856,K15V08,2022-11-18_16h14.11.074,t1_Paradigm,2021.1.4,59.97427634170212,
C,left,Pretarget,0,20,20,20,1068.745836719125,1070.7481346198326,left,1,2,0.46450829319837794,K15V08,2022-11-18_16h14.11.074,t1_Paradigm,2021.1.4,59.97427634170212,
T,left,Distractor,0,21,21,21,1072.245923816716,1074.2475451471885,left,1,2,0.6933545661113385,K15V08,2022-11-18_16h14.11.074,t1_Paradigm,2021.1.4,59.97427634170212,
C,right,Target,0,22,22,22,1075.7457979021513,1077.7479957128096,right,1,2,0.5205166956297944,K15V08,2022-11-18_16h14.11.074,t1_Paradigm,2021.1.4,59.97427634170212,
F,left,Pretarget,0,23,23,23,1079.24582885949,1081.2478861591183,left,1,2,1.260681966115044,K15V08,2022-11-18_16h14.11.074,t1_Paradigm,2021.1.4,59.97427634170212,
C,right,Target,0,24,24,24,1082.7459105034561,1084.7477673021851,right,1,2,0.5448661664518113,K15V08,2022-11-18_16h14.11.074,t1_Paradigm,2021.1.4,59.97427634170212,
F,right,Target,0,25,25,25,1086.245883074933,1088.2473959745196,left,0,2,0.5814955955565893,K15V08,2022-11-18_16h14.11.074,t1_Paradigm,2021.1.4,59.97427634170212,
H,left,Distractor,0,26,26,26,1089.7626463937265,1091.7470868823332,left,1,2,0.8097082856274938,K15V08,2022-11-18_16h14.11.074,t1_Paradigm,2021.1.4,59.97427634170212,
H,left,Lure,0,27,27,27,1093.2458744132944,1095.2460155659276,left,1,2,0.4944567115353493,K15V08,2022-11-18_16h14.11.074,t1_Paradigm,2021.1.4,59.97427634170212,
P,left,Distractor,0,28,28,28,1096.7458319071036,1098.74765245527,left,1,2,0.5450118103049135,K15V08,2022-11-18_16h14.11.074,t1_Paradigm,2021.1.4,59.97427634170212,
G,left,Pretarget,0,29,29,29,1100.245850673988,1102.2478024299428,left,1,2,0.5006648609823969,K15V08,2022-11-18_16h14.11.074,t1_Paradigm,2021.1.4,59.97427634170212,
K,left,Distractor,0,30,30,30,1103.7457725588376,1105.747337749058,left,1,2,0.4252457258821778,K15V08,2022-11-18_16h14.11.074,t1_Paradigm,2021.1.4,59.97427634170212,
G,right,Target,0,31,31,31,1107.245972257733,1109.2462645078442,right,1,2,0.5104329439982394,K15V08,2022-11-18_16h14.11.074,t1_Paradigm,2021.1.4,59.97427634170212,
M,left,Pretarget,0,32,32,32,1110.74581330062,1112.7475998438338,left,1,2,0.8650183033259964,K15V08,2022-11-18_16h14.11.074,t1_Paradigm,2021.1.4,59.97427634170212,
B,left,Distractor,0,33,33,33,1114.2457387142856,1116.2471492782126,left,1,2,0.5012759877236022,K15V08,2022-11-18_16h14.11.074,t1_Paradigm,2021.1.4,59.97427634170212,
M,right,Target,0,34,34,34,1117.7458213206562,1119.7475504404122,right,1,2,0.42500801201595095,K15V08,2022-11-18_16h14.11.074,t1_Paradigm,2021.1.4,59.97427634170212,
M,left,Lure,0,35,35,35,1121.245754433556,1123.2457095213547,left,1,2,0.7187142406646672,K15V08,2022-11-18_16h14.11.074,t1_Paradigm,2021.1.4,59.97427634170212,
T,left,Distractor,0,36,36,36,1124.74575972678,1126.7477640941709,left,1,2,0.8166571655974622,K15V08,2022-11-18_16h14.11.074,t1_Paradigm,2021.1.4,59.97427634170212,
F,left,Distractor,0,37,37,37,1128.2457768896568,1130.2476080242707,None,0,2,,K15V08,2022-11-18_16h14.11.074,t1_Paradigm,2021.1.4,59.97427634170212,
X,left,Distractor,0,38,38,38,1131.7456994161091,1133.7472081452768,left,1,2,0.9372063263326709,K15V08,2022-11-18_16h14.11.074,t1_Paradigm,2021.1.4,59.97427634170212,
C,left,Distractor,0,39,39,39,1135.24568834846,1137.246514412165,left,1,2,0.5740090523750041,K15V08,2022-11-18_16h14.11.074,t1_Paradigm,2021.1.4,59.97427634170212,
R,left,Distractor,0,40,40,40,1138.7456413510488,1140.7476017686424,left,1,2,0.5289001996347906,K15V08,2022-11-18_16h14.11.074,t1_Paradigm,2021.1.4,59.97427634170212,
B,left,Pretarget,0,41,41,41,1142.2457573207691,1144.247141258177,left,1,2,0.6616269829937664,K15V08,2022-11-18_16h14.11.074,t1_Paradigm,2021.1.4,59.97427634170212,
H,left,Distractor,0,42,42,42,1145.7458177918404,1147.7586883455726,left,1,2,0.4777545054157599,K15V08,2022-11-18_16h14.11.074,t1_Paradigm,2021.1.4,59.97427634170212,
B,right,Target,0,43,43,43,1149.2457723984369,1151.2475977586244,right,1,2,0.492797205691204,K15V08,2022-11-18_16h14.11.074,t1_Paradigm,2021.1.4,59.97427634170212,
W,left,Pretarget,0,44,44,44,1152.745992949426,1154.7470281756698,left,1,2,0.625387006836263,K15V08,2022-11-18_16h14.11.074,t1_Paradigm,2021.1.4,59.97427634170212,
L,left,Pretarget,0,45,45,45,1156.245647606677,1158.247508255023,left,1,2,0.5812806585922772,K15V08,2022-11-18_16h14.11.074,t1_Paradigm,2021.1.4,59.97427634170212,
W,right,Target,0,46,46,46,1159.7457266842318,1161.7471266617115,right,1,2,0.8733572159312644,K15V08,2022-11-18_16h14.11.074,t1_Paradigm,2021.1.4,59.97427634170212,
L,right,Target,0,47,47,47,1163.2457297318454,1165.2474825909078,right,1,2,0.7008597157764598,K15V08,2022-11-18_16h14.11.074,t1_Paradigm,2021.1.4,59.97427634170212,
W,right,Target,0,48,48,48,1166.7456291605943,1168.747667853739,right,1,2,0.9128254169695538,K15V08,2022-11-18_16h14.11.074,t1_Paradigm,2021.1.4,59.97427634170212,
X,left,Distractor,0,49,49,49,1170.245676799608,1172.2473581199495,left,1,2,0.5009872664286377,K15V08,2022-11-18_16h14.11.074,t1_Paradigm,2021.1.4,59.97427634170212,
R,left,Distractor,0,50,50,50,1173.7456958872933,1175.7480986900716,left,1,2,0.5842532047263376,K15V08,2022-11-18_16h14.11.074,t1_Paradigm,2021.1.4,59.97427634170212,
V,left,Pretarget,0,51,51,51,1177.2456427946552,1179.246424587762,left,1,2,0.46193257844515756,K15V08,2022-11-18_16h14.11.074,t1_Paradigm,2021.1.4,59.97427634170212,
Z,left,Distractor,0,52,52,52,1180.7457658220071,1182.7478106103792,left,1,2,0.464562187840329,K15V08,2022-11-18_16h14.11.074,t1_Paradigm,2021.1.4,59.97427634170212,
V,right,Target,0,53,53,53,1184.245713370972,1186.2476474828475,right,1,2,0.5647645173075944,K15V08,2022-11-18_16h14.11.074,t1_Paradigm,2021.1.4,59.97427634170212,
V,left,Lure,0,54,54,54,1187.7456432758574,1189.7456846592434,left,1,2,0.8426122476212186,K15V08,2022-11-18_16h14.11.074,t1_Paradigm,2021.1.4,59.97427634170212,
N,left,Distractor,0,55,55,55,1191.2456630051458,1193.24763015957,left,1,2,1.1968341389192574,K15V08,2022-11-18_16h14.11.074,t1_Paradigm,2021.1.4,59.97427634170212,
B,left,Distractor,0,56,56,56,1194.7456419926518,1196.7471722155158,left,1,2,0.705233201793817,K15V08,2022-11-18_16h14.11.074,t1_Paradigm,2021.1.4,59.97427634170212,
V,left,Lure,0,57,57,57,1198.2454378025357,1200.2474643052258,left,1,2,0.5487597335168175,K15V08,2022-11-18_16h14.11.074,t1_Paradigm,2021.1.4,59.97427634170212,
J,left,Distractor,0,58,58,58,1201.7456134413235,1203.7476864602224,left,1,2,0.4406788415089977,K15V08,2022-11-18_16h14.11.074,t1_Paradigm,2021.1.4,59.97427634170212,
H,left,Distractor,0,59,59,59,1205.245551045444,1207.2471271429138,left,1,2,0.6051691377465431,K15V08,2022-11-18_16h14.11.074,t1_Paradigm,2021.1.4,59.97427634170212,
X,left,Pretarget,0,60,60,60,1208.7456689399726,1210.7475068114165,left,1,2,0.784755708099965,K15V08,2022-11-18_16h14.11.074,t1_Paradigm,2021.1.4,59.97427634170212,
P,left,Distractor,0,61,61,61,1212.245682574034,1214.2474004657395,left,1,2,0.4688907616564393,K15V08,2022-11-18_16h14.11.074,t1_Paradigm,2021.1.4,59.97427634170212,
X,right,Target,0,62,62,62,1215.745600609266,1217.7475934278052,right,1,2,0.45680007622240737,K15V08,2022-11-18_16h14.11.074,t1_Paradigm,2021.1.4,59.97427634170212,
Q,left,Distractor,0,63,63,63,1219.2453303340537,1221.2584389224537,left,1,2,0.5299687892279508,K15V08,2022-11-18_16h14.11.074,t1_Paradigm,2021.1.4,59.97427634170212,
B,left,Pretarget,0,0,0,0,1245.198231229186,1247.197810337698,left,1,2,0.4625478756047414,K15V08,2022-11-18_16h14.11.074,t1_Paradigm,2021.1.4,59.97427634170212,
F,left,Distractor,0,1,1,1,1248.695451645118,1250.6973527144453,left,1,2,0.5950478523463971,K15V08,2022-11-18_16h14.11.074,t1_Paradigm,2021.1.4,59.97427634170212,
B,right,Target,0,2,2,2,1252.1955570283906,1254.1973458172145,right,1,2,0.40706013390854423,K15V08,2022-11-18_16h14.11.074,t1_Paradigm,2021.1.4,59.97427634170212,
V,left,Distractor,0,3,3,3,1255.695564246423,1257.697374528943,left,1,2,0.4428400808033075,K15V08,2022-11-18_16h14.11.074,t1_Paradigm,2021.1.4,59.97427634170212,
G,left,Pretarget,0,4,4,4,1259.1955194946224,1261.1972659376563,left,1,2,0.43124792080561747,K15V08,2022-11-18_16h14.11.074,t1_Paradigm,2021.1.4,59.97427634170212,
B,left,Lure,0,5,5,5,1262.6955937601554,1264.697299782208,left,1,2,0.5469885887719101,K15V08,2022-11-18_16h14.11.074,t1_Paradigm,2021.1.4,59.97427634170212,
G,right,Target,0,6,6,6,1266.1955502915605,1268.1974937066777,right,1,2,0.710805843590606,K15V08,2022-11-18_16h14.11.074,t1_Paradigm,2021.1.4,59.97427634170212,
Y,left,Pretarget,0,7,7,7,1269.695487574879,1271.6976427189463,left,1,2,0.39470125847219606,K15V08,2022-11-18_16h14.11.074,t1_Paradigm,2021.1.4,59.97427634170212,
P,left,Distractor,0,8,8,8,1273.1954684871937,1275.1976014959612,left,1,2,0.5108836700196662,K15V08,2022-11-18_16h14.11.074,t1_Paradigm,2021.1.4,59.97427634170212,
Y,right,Target,0,9,9,9,1276.695476026027,1278.6960095188203,right,1,2,0.6441099412195399,K15V08,2022-11-18_16h14.11.074,t1_Paradigm,2021.1.4,59.97427634170212,
X,left,Distractor,0,10,10,10,1280.1954688079948,1282.1980653748421,left,1,2,0.43815413418406024,K15V08,2022-11-18_16h14.11.074,t1_Paradigm,2021.1.4,59.97427634170212,
Y,right,Target,0,11,11,11,1283.6954917452979,1285.6959610778028,right,1,2,0.5722173763379033,K15V08,2022-11-18_16h14.11.074,t1_Paradigm,2021.1.4,59.97427634170212,
N,left,Distractor,0,12,12,12,1287.1954864520742,1289.1976287640834,left,1,2,0.3984841490405415,K15V08,2022-11-18_16h14.11.074,t1_Paradigm,2021.1.4,59.97427634170212,
Y,right,Target,0,13,13,13,1290.695727213554,1292.6973777369578,right,1,2,0.514865778282001,K15V08,2022-11-18_16h14.11.074,t1_Paradigm,2021.1.4,59.97427634170212,
Y,left,Lure,0,14,14,14,1294.1954489183056,1296.195437369454,left,1,2,0.6167969067041668,K15V08,2022-11-18_16h14.11.074,t1_Paradigm,2021.1.4,59.97427634170212,
K,left,Distractor,0,15,15,15,1297.69543207623,1299.6974127043143,left,1,2,0.5867901025058018,K15V08,2022-11-18_16h14.11.074,t1_Paradigm,2021.1.4,59.97427634170212,
T,left,Pretarget,0,16,16,16,1301.1954681663922,1303.1973134162693,left,1,2,0.574938093342098,K15V08,2022-11-18_16h14.11.074,t1_Paradigm,2021.1.4,59.97427634170212,
J,left,Distractor,0,17,17,17,1304.6954657603812,1306.697619942044,left,1,2,0.6105942108815725,K15V08,2022-11-18_16h14.11.074,t1_Paradigm,2021.1.4,59.97427634170212,
T,right,Target,0,18,18,18,1308.195157630599,1310.1973002634102,right,1,2,0.37493668181605244,K15V08,2022-11-18_16h14.11.074,t1_Paradigm,2021.1.4,59.97427634170212,
S,left,Pretarget,0,19,19,19,1311.6954051289092,1313.6977290145335,left,1,2,0.522497002912587,K15V08,2022-11-18_16h14.11.074,t1_Paradigm,2021.1.4,59.97427634170212,
R,left,Distractor,0,20,20,20,1315.195387003628,1317.1973929750259,left,1,2,0.4788548543510842,K15V08,2022-11-18_16h14.11.074,t1_Paradigm,2021.1.4,59.97427634170212,
S,right,Target,0,21,21,21,1318.6953945424618,1320.6977489042226,right,1,2,0.46631023488134815,K15V08,2022-11-18_16h14.11.074,t1_Paradigm,2021.1.4,59.97427634170212,
Q,left,Distractor,0,22,22,22,1322.1954315950281,1324.1972393111366,left,1,2,0.4548290721813828,K15V08,2022-11-18_16h14.11.074,t1_Paradigm,2021.1.4,59.97427634170212,
D,left,Distractor,0,23,23,23,1325.695367595141,1327.697553215345,left,1,2,0.5386400521238102,K15V08,2022-11-18_16h14.11.074,t1_Paradigm,2021.1.4,59.97427634170212,
F,left,Distractor,0,24,24,24,1329.1955878253286,1331.1974497568806,left,1,2,0.39859450473522884,K15V08,2022-11-18_16h14.11.074,t1_Paradigm,2021.1.4,59.97427634170212,
Z,left,Distractor,0,25,25,25,1332.6953624623177,1334.6973687545171,left,1,2,0.46668557256452914,K15V08,2022-11-18_16h14.11.074,t1_Paradigm,2021.1.4,59.97427634170212,
P,left,Distractor,0,26,26,26,1336.1954232541905,1338.1973021882188,left,1,2,0.43887657902450883,K15V08,2022-11-18_16h14.11.074,t1_Paradigm,2021.1.4,59.97427634170212,
H,left,Distractor,0,27,27,27,1339.6953169085134,1341.6971268702325,left,1,2,0.42679840484697706,K15V08,2022-11-18_16h14.11.074,t1_Paradigm,2021.1.4,59.97427634170212,
Z,left,Pretarget,0,28,28,28,1343.195351394668,1345.1971863788992,left,1,2,0.4471802034713619,K15V08,2022-11-18_16h14.11.074,t1_Paradigm,2021.1.4,59.97427634170212,
J,left,Pretarget,0,29,29,29,1346.695522542236,1348.6972012961662,left,1,2,0.49879426779125424,K15V08,2022-11-18_16h14.11.074,t1_Paradigm,2021.1.4,59.97427634170212,
Z,right,Target,0,30,30,30,1350.1953077656724,1352.197297055396,right,1,2,0.5027378798808968,K15V08,2022-11-18_16h14.11.074,t1_Paradigm,2021.1.4,59.97427634170212,
J,right,Target,0,31,31,31,1353.6953281365638,1355.697742167392,right,1,2,0.7145852053431554,K15V08,2022-11-18_16h14.11.074,t1_Paradigm,2021.1.4,59.97427634170212,
V,left,Pretarget,0,32,32,32,1357.1954238957935,1359.1976711098735,left,1,2,0.46249847218314244,K15V08,2022-11-18_16h14.11.074,t1_Paradigm,2021.1.4,59.97427634170212,
Z,left,Lure,0,33,33,33,1360.6953262117552,1362.6971352110697,left,1,2,0.48282284735023495,K15V08,2022-11-18_16h14.11.074,t1_Paradigm,2021.1.4,59.97427634170212,
V,right,Target,0,34,34,34,1364.1952615702655,1366.1971696972244,right,1,2,0.3909372951879959,K15V08,2022-11-18_16h14.11.074,t1_Paradigm,2021.1.4,59.97427634170212,
X,left,Distractor,0,35,35,35,1367.6953521966718,1369.6974739773893,left,1,2,0.49065489368194903,K15V08,2022-11-18_16h14.11.074,t1_Paradigm,2021.1.4,59.97427634170212,
S,left,Distractor,0,36,36,36,1371.1954283870134,1373.211731516143,left,1,2,0.3842312619076438,K15V08,2022-11-18_16h14.11.074,t1_Paradigm,2021.1.4,59.97427634170212,
Q,left,Distractor,0,37,37,37,1374.6952825827595,1376.6969757727545,left,1,2,0.4829822856654573,K15V08,2022-11-18_16h14.11.074,t1_Paradigm,2021.1.4,59.97427634170212,
P,left,Distractor,0,38,38,38,1378.1952695903012,1380.1971979277512,left,1,2,0.5667178772696388,K15V08,2022-11-18_16h14.11.074,t1_Paradigm,2021.1.4,59.97427634170212,
S,left,Lure,0,39,39,39,1381.6953521966718,1383.697120133402,left,1,2,0.8909246235311912,K15V08,2022-11-18_16h14.11.074,t1_Paradigm,2021.1.4,59.97427634170212,
K,left,Pretarget,0,40,40,40,1385.1954084973243,1387.1968658982616,left,1,2,0.41519950801875893,K15V08,2022-11-18_16h14.11.074,t1_Paradigm,2021.1.4,59.97427634170212,
L,left,Distractor,0,41,41,41,1388.695379464794,1390.6968031815802,left,1,2,0.41910462393570924,K15V08,2022-11-18_16h14.11.074,t1_Paradigm,2021.1.4,59.97427634170212,
K,right,Target,0,42,42,42,1392.1953953444652,1394.1973300979441,right,1,2,0.3745449832590566,K15V08,2022-11-18_16h14.11.074,t1_Paradigm,2021.1.4,59.97427634170212,
B,left,Distractor,0,43,43,43,1395.6953281365638,1397.6971589503762,left,1,2,0.49092565009596,K15V08,2022-11-18_16h14.11.074,t1_Paradigm,2021.1.4,59.97427634170212,
N,left,Distractor,0,44,44,44,1399.1952564374421,1401.1971010457166,left,1,2,0.5109285822209131,K15V08,2022-11-18_16h14.11.074,t1_Paradigm,2021.1.4,59.97427634170212,
S,left,Pretarget,0,45,45,45,1402.6952306129263,1404.6975201727967,left,1,2,0.7063082074159865,K15V08,2022-11-18_16h14.11.074,t1_Paradigm,2021.1.4,59.97427634170212,
Z,left,Distractor,0,46,46,46,1406.195181690707,1408.197008013299,left,1,2,0.7591326555652813,K15V08,2022-11-18_16h14.11.074,t1_Paradigm,2021.1.4,59.97427634170212,
S,right,Target,0,47,47,47,1409.6952909235972,1411.6972295266926,left,0,2,0.826708195482297,K15V08,2022-11-18_16h14.11.074,t1_Paradigm,2021.1.4,59.97427634170212,
C,left,Distractor,0,48,48,48,1413.1952436053846,1415.1970789104173,left,1,2,0.6229643143688008,K15V08,2022-11-18_16h14.11.074,t1_Paradigm,2021.1.4,59.97427634170212,
T,left,Pretarget,0,49,49,49,1416.6949492700644,1418.6973039526267,left,1,2,0.46656495122397246,K15V08,2022-11-18_16h14.11.074,t1_Paradigm,2021.1.4,59.97427634170212,
S,left,Lure,0,50,50,50,1420.1952099212338,1422.1972274414836,left,1,2,0.5346694927134195,K15V08,2022-11-18_16h14.11.074,t1_Paradigm,2021.1.4,59.97427634170212,
T,right,Target,0,51,51,51,1423.6953146629037,1425.697349506431,right,1,2,0.36269939012436225,K15V08,2022-11-18_16h14.11.074,t1_Paradigm,2021.1.4,59.97427634170212,
N,left,Pretarget,0,52,52,52,1427.1952339813417,1429.1970141085264,left,1,2,0.47903418235591744,K15V08,2022-11-18_16h14.11.074,t1_Paradigm,2021.1.4,59.97427634170212,
B,left,Distractor,0,53,53,53,1430.695142392531,1432.6973998722567,left,1,2,0.38643805500623785,K15V08,2022-11-18_16h14.11.074,t1_Paradigm,2021.1.4,59.97427634170212,
N,right,Target,0,54,54,54,1434.195218903674,1436.196936153777,right,1,2,0.5189749239139019,K15V08,2022-11-18_16h14.11.074,t1_Paradigm,2021.1.4,59.97427634170212,
N,left,Lure,0,55,55,55,1437.6949130195019,1439.6950012398977,left,1,2,0.8129464553526304,K15V08,2022-11-18_16h14.11.074,t1_Paradigm,2021.1.4,59.97427634170212,
X,left,Distractor,0,56,56,56,1441.195164046628,1443.1968322141108,left,1,2,0.5910958994199973,K15V08,2022-11-18_16h14.11.074,t1_Paradigm,2021.1.4,59.97427634170212,
W,left,Distractor,0,57,57,57,1444.6952736003193,1446.6969193117013,left,1,2,0.7869390826936069,K15V08,2022-11-18_16h14.11.074,t1_Paradigm,2021.1.4,59.97427634170212,
S,left,Distractor,0,58,58,58,1448.1951245880507,1450.1973426092002,left,1,2,0.6946640775850028,K15V08,2022-11-18_16h14.11.074,t1_Paradigm,2021.1.4,59.97427634170212,
L,left,Distractor,0,59,59,59,1451.695232537735,1453.6965247259316,left,1,2,0.4594739562162431,K15V08,2022-11-18_16h14.11.074,t1_Paradigm,2021.1.4,59.97427634170212,
K,left,Pretarget,0,60,60,60,1455.1951460817475,1457.196738860892,left,1,2,0.607238307028183,K15V08,2022-11-18_16h14.11.074,t1_Paradigm,2021.1.4,59.97427634170212,
V,left,Pretarget,0,61,61,61,1458.6950955555205,1460.697041216248,left,1,2,0.8347195698183896,K15V08,2022-11-18_16h14.11.074,t1_Paradigm,2021.1.4,59.97427634170212,
K,right,Target,0,62,62,62,1462.1951986931833,1464.1977118516563,right,1,2,0.3902344192356395,K15V08,2022-11-18_16h14.11.074,t1_Paradigm,2021.1.4,59.97427634170212,
V,right,Target,0,63,63,63,1465.695084006669,1467.6969122540697,right,1,2,0.7470041155620493,K15V08,2022-11-18_16h14.11.074,t1_Paradigm,2021.1.4,59.97427634170212,
R,left,Distractor,0,0,0,0,1649.3136661733809,1651.2965802887404,left,1,3,0.36308916387270074,K15V08,2022-11-18_16h14.11.074,t1_Paradigm,2021.1.4,59.97427634170212,
P,left,Lure,0,1,1,1,1652.7947554097548,1654.796909912219,left,1,3,0.5265349306250755,K15V08,2022-11-18_16h14.11.074,t1_Paradigm,2021.1.4,59.97427634170212,
V,left,Distractor,0,2,2,2,1656.2947161115787,1658.2971404080529,left,1,3,0.6904821100265508,K15V08,2022-11-18_16h14.11.074,t1_Paradigm,2021.1.4,59.97427634170212,
P,left,Pretarget,0,3,3,3,1659.7946739261895,1661.7969984534163,left,1,3,0.6143482293205125,K15V08,2022-11-18_16h14.11.074,t1_Paradigm,2021.1.4,59.97427634170212,
Z,left,Distractor,0,4,4,4,1663.2947151491742,1665.2967089301176,right,0,3,0.5708331181290305,K15V08,2022-11-18_16h14.11.074,t1_Paradigm,2021.1.4,59.97427634170212,
L,left,Pretarget,0,5,5,5,1666.7946655853518,1668.7969920373873,left,1,3,0.6382533901492025,K15V08,2022-11-18_16h14.11.074,t1_Paradigm,2021.1.4,59.97427634170212,
P,right,Target,0,6,6,6,1670.2946375152262,1672.2971497112947,right,1,3,0.43430355451209834,K15V08,2022-11-18_16h14.11.074,t1_Paradigm,2021.1.4,59.97427634170212,
S,left,Distractor,0,7,7,7,1673.7947454649104,1675.7969792053298,left,1,3,0.4385920281483777,K15V08,2022-11-18_16h14.11.074,t1_Paradigm,2021.1.4,59.97427634170212,
L,right,Target,0,8,8,8,1677.2944553000086,1679.296799075322,right,1,3,0.8426501021913282,K15V08,2022-11-18_16h14.11.074,t1_Paradigm,2021.1.4,59.97427634170212,
D,left,Distractor,0,9,9,9,1680.7946726429834,1682.7967325090233,left,1,3,1.0068417322891037,K15V08,2022-11-18_16h14.11.074,t1_Paradigm,2021.1.4,59.97427634170212,
G,left,Distractor,0,10,10,10,1684.2945502572345,1686.2973142824328,left,1,3,1.2021347410955059,K15V08,2022-11-18_16h14.11.074,t1_Paradigm,2021.1.4,59.97427634170212,
M,left,Pretarget,0,11,11,11,1687.7946229187608,1689.7966516670606,left,1,3,0.7268491235545298,K15V08,2022-11-18_16h14.11.074,t1_Paradigm,2021.1.4,59.97427634170212,
Y,left,Distractor,0,12,12,12,1691.2947709686248,1693.296646373837,left,1,3,0.6027551069182664,K15V08,2022-11-18_16h14.11.074,t1_Paradigm,2021.1.4,59.97427634170212,
V,left,Distractor,0,13,13,13,1694.7947316704483,1696.7966186245123,None,0,3,,K15V08,2022-11-18_16h14.11.074,t1_Paradigm,2021.1.4,59.97427634170212,
M,right,Target,0,14,14,14,1698.2946516304894,1700.2962065550644,right,1,3,0.9316192484711792,K15V08,2022-11-18_16h14.11.074,t1_Paradigm,2021.1.4,59.97427634170212,
S,left,Pretarget,0,15,15,15,1701.7946007834614,1703.7961945250102,left,1,3,0.8233230986984381,K15V08,2022-11-18_16h14.11.074,t1_Paradigm,2021.1.4,59.97427634170212,
Q,left,Distractor,0,16,16,16,1705.2946705577745,1707.2963910158917,left,1,3,0.6829923588306883,K15V08,2022-11-18_16h14.11.074,t1_Paradigm,2021.1.4,59.97427634170212,
R,left,Pretarget,0,17,17,17,1708.7946036706742,1710.7961560288375,left,1,3,1.0712615484508206,K15V08,2022-11-18_16h14.11.074,t1_Paradigm,2021.1.4,59.97427634170212,
S,right,Target,0,18,18,18,1712.294630136793,1714.3074990865177,right,1,3,0.9679747131472141,K15V08,2022-11-18_16h14.11.074,t1_Paradigm,2021.1.4,59.97427634170212,
F,left,Distractor,0,19,19,19,1715.7944952397877,1717.7936999730207,left,1,3,0.6016095249797218,K15V08,2022-11-18_16h14.11.074,t1_Paradigm,2021.1.4,59.97427634170212,
R,right,Target,0,20,20,20,1719.2946310991972,1721.296491426742,left,0,3,1.0828723149320467,K15V08,2022-11-18_16h14.11.074,t1_Paradigm,2021.1.4,59.97427634170212,
P,left,Distractor,0,21,21,21,1722.7944824077301,1724.7962330211828,left,1,3,0.9113131589865588,K15V08,2022-11-18_16h14.11.074,t1_Paradigm,2021.1.4,59.97427634170212,
L,left,Distractor,0,22,22,22,1726.2945768837542,1728.2968279474514,left,1,3,0.8346473894944211,K15V08,2022-11-18_16h14.11.074,t1_Paradigm,2021.1.4,59.97427634170212,
R,right,Target,0,23,23,23,1729.7944811245245,1731.7965621634592,right,1,3,0.662866559754093,K15V08,2022-11-18_16h14.11.074,t1_Paradigm,2021.1.4,59.97427634170212,
H,left,Pretarget,0,24,24,24,1733.2945983774505,1735.2967849600589,left,1,3,0.6185898659468876,K15V08,2022-11-18_16h14.11.074,t1_Paradigm,2021.1.4,59.97427634170212,
G,left,Pretarget,0,25,25,25,1736.7945430392022,1738.7964800382908,left,1,3,0.6708083201774571,K15V08,2022-11-18_16h14.11.074,t1_Paradigm,2021.1.4,59.97427634170212,
T,left,Distractor,0,26,26,26,1740.3112316112604,1742.296743576673,left,1,3,0.5311676242058638,K15V08,2022-11-18_16h14.11.074,t1_Paradigm,2021.1.4,59.97427634170212,
H,right,Target,0,27,27,27,1743.7944297962943,1745.7964203692234,None,0,3,,K15V08,2022-11-18_16h14.11.074,t1_Paradigm,2021.1.4,59.97427634170212,
G,right,Target,0,28,28,28,1747.2942817464302,1749.2965713063002,left,0,3,1.4187863889083019,K15V08,2022-11-18_16h14.11.074,t1_Paradigm,2021.1.4,59.97427634170212,
D,left,Distractor,0,29,29,29,1750.7944612348354,1752.796968939684,left,1,3,1.294528442736464,K15V08,2022-11-18_16h14.11.074,t1_Paradigm,2021.1.4,59.97427634170212,
N,left,Pretarget,0,30,30,30,1754.294592923826,1756.2959014728956,left,1,3,0.579577202951441,K15V08,2022-11-18_16h14.11.074,t1_Paradigm,2021.1.4,59.97427634170212,
V,left,Distractor,0,31,31,31,1757.794492994178,1759.7959070869208,left,1,3,0.7594348505208472,K15V08,2022-11-18_16h14.11.074,t1_Paradigm,2021.1.4,59.97427634170212,
R,left,Distractor,0,32,32,32,1761.2945791293644,1763.2960618736154,left,1,3,0.6512298083566748,K15V08,2022-11-18_16h14.11.074,t1_Paradigm,2021.1.4,59.97427634170212,
N,right,Target,0,33,33,33,1764.7944650844527,1766.795270616866,right,1,3,0.7519572897795115,K15V08,2022-11-18_16h14.11.074,t1_Paradigm,2021.1.4,59.97427634170212,
Z,left,Distractor,0,34,34,34,1768.2944783977125,1770.296106465015,left,1,3,0.7711607847186315,K15V08,2022-11-18_16h14.11.074,t1_Paradigm,2021.1.4,59.97427634170212,
N,left,Lure,0,35,35,35,1771.7945119214626,1773.796729942612,left,1,3,0.8544774096440051,K15V08,2022-11-18_16h14.11.074,t1_Paradigm,2021.1.4,59.97427634170212,
Y,left,Pretarget,0,36,36,36,1775.2944886633584,1777.2951139053628,left,1,3,0.9881495948438896,K15V08,2022-11-18_16h14.11.074,t1_Paradigm,2021.1.4,59.97427634170212,
Y,left,Lure,0,37,37,37,1778.7944836909362,1780.7945013350152,left,1,3,0.9447711450652605,K15V08,2022-11-18_16h14.11.074,t1_Paradigm,2021.1.4,59.97427634170212,
B,left,Distractor,0,38,38,38,1782.2944511295902,1784.2967490302974,left,1,3,1.2345308744115755,K15V08,2022-11-18_16h14.11.074,t1_Paradigm,2021.1.4,59.97427634170212,
Y,right,Target,0,39,39,39,1785.7944936357806,1787.7962561188863,right,1,3,0.6952559562400893,K15V08,2022-11-18_16h14.11.074,t1_Paradigm,2021.1.4,59.97427634170212,
J,left,Distractor,0,40,40,40,1789.294520743502,1791.296251146464,left,1,3,1.0190899312297006,K15V08,2022-11-18_16h14.11.074,t1_Paradigm,2021.1.4,59.97427634170212,
X,left,Distractor,0,41,41,41,1792.7945151294773,1794.7964700934465,left,1,3,0.7188133683093838,K15V08,2022-11-18_16h14.11.074,t1_Paradigm,2021.1.4,59.97427634170212,
W,left,Pretarget,0,42,42,42,1796.2940844535453,1798.2962322191795,left,1,3,1.2030236818827689,K15V08,2022-11-18_16h14.11.074,t1_Paradigm,2021.1.4,59.97427634170212,
S,left,Pretarget,0,43,43,43,1799.7944009241648,1801.7960354074964,left,1,3,0.5991050281459138,K15V08,2022-11-18_16h14.11.074,t1_Paradigm,2021.1.4,59.97427634170212,
R,left,Distractor,0,44,44,44,1803.294399159757,1805.2960779136872,left,1,3,0.5711766964700473,K15V08,2022-11-18_16h14.11.074,t1_Paradigm,2021.1.4,59.97427634170212,
W,right,Target,0,45,45,45,1806.7943903377175,1808.7965204592722,right,1,3,0.814767003518682,K15V08,2022-11-18_16h14.11.074,t1_Paradigm,2021.1.4,59.97427634170212,
S,right,Target,0,46,46,46,1810.294411671013,1812.2963255723982,left,0,3,0.72291994752959,K15V08,2022-11-18_16h14.11.074,t1_Paradigm,2021.1.4,59.97427634170212,
D,left,Distractor,0,47,47,47,1813.7944734252899,1815.7963635873687,left,1,3,0.5508160707404386,K15V08,2022-11-18_16h14.11.074,t1_Paradigm,2021.1.4,59.97427634170212,
T,left,Distractor,0,48,48,48,1817.294430598298,1819.2957994580381,left,1,3,0.651365828166945,K15V08,2022-11-18_16h14.11.074,t1_Paradigm,2021.1.4,59.97427634170212,
S,right,Target,0,49,49,49,1820.7945459264154,1822.7949793291593,right,1,3,0.832811122057592,K15V08,2022-11-18_16h14.11.074,t1_Paradigm,2021.1.4,59.97427634170212,
K,left,Distractor,0,50,50,50,1824.2945807333715,1826.2954937342668,left,1,3,0.6276672634639908,K15V08,2022-11-18_16h14.11.074,t1_Paradigm,2021.1.4,59.97427634170212,
S,left,Lure,0,51,51,51,1827.7943345182669,1829.7964562989844,left,1,3,1.4469566048683191,K15V08,2022-11-18_16h14.11.074,t1_Paradigm,2021.1.4,59.97427634170212,
T,left,Pretarget,0,52,52,52,1831.2942913704735,1833.2964753866702,right,0,3,1.0826824004802802,K15V08,2022-11-18_16h14.11.074,t1_Paradigm,2021.1.4,59.97427634170212,
V,left,Distractor,0,53,53,53,1834.7943585783748,1836.807275648316,left,1,3,0.8520576043893016,K15V08,2022-11-18_16h14.11.074,t1_Paradigm,2021.1.4,59.97427634170212,
B,left,Distractor,0,54,54,54,1838.294261856741,1840.2966152560973,left,1,3,0.8665424309629088,K15V08,2022-11-18_16h14.11.074,t1_Paradigm,2021.1.4,59.97427634170212,
T,right,Target,0,55,55,55,1841.794294418087,1843.7964813214965,left,0,3,0.7747373999623051,K15V08,2022-11-18_16h14.11.074,t1_Paradigm,2021.1.4,59.97427634170212,
Y,left,Pretarget,0,56,56,56,1845.2943520019455,1847.2961324499317,left,1,3,0.5071293307792075,K15V08,2022-11-18_16h14.11.074,t1_Paradigm,2021.1.4,59.97427634170212,
T,left,Lure,0,57,57,57,1848.794191440825,1850.7952635592344,None,0,3,,K15V08,2022-11-18_16h14.11.074,t1_Paradigm,2021.1.4,59.97427634170212,
P,left,Pretarget,0,58,58,58,1852.294404934183,1854.2959014728956,left,1,3,1.0273326034030106,K15V08,2022-11-18_16h14.11.074,t1_Paradigm,2021.1.4,59.97427634170212,
Y,right,Target,0,59,59,59,1855.7943021173216,1857.796120740679,right,1,3,0.7591878334128523,K15V08,2022-11-18_16h14.11.074,t1_Paradigm,2021.1.4,59.97427634170212,
R,left,Distractor,0,60,60,60,1859.2943292250432,1861.2967403686587,left,1,3,0.5544164252901282,K15V08,2022-11-18_16h14.11.074,t1_Paradigm,2021.1.4,59.97427634170212,
P,right,Target,0,61,61,61,1862.794408302598,1864.796271196554,right,1,3,0.8470399490820455,K15V08,2022-11-18_16h14.11.074,t1_Paradigm,2021.1.4,59.97427634170212,
L,left,Distractor,0,62,62,62,1866.2942294557959,1868.2965158076515,left,1,3,0.9309423574350149,K15V08,2022-11-18_16h14.11.074,t1_Paradigm,2021.1.4,59.97427634170212,
V,left,Distractor,0,63,63,63,1869.7940515713979,1871.7966946544536,left,1,3,0.7905827454378596,K15V08,2022-11-18_16h14.11.074,t1_Paradigm,2021.1.4,59.97427634170212,
H,left,Lure,0,0,0,0,1897.6773979025359,1899.6796050164364,left,1,3,0.2994399127678662,K15V08,2022-11-18_16h14.11.074,t1_Paradigm,2021.1.4,59.97427634170212,
B,left,Distractor,0,1,1,1,1901.1775202882852,1903.1794720442397,left,1,3,0.39954279378889623,K15V08,2022-11-18_16h14.11.074,t1_Paradigm,2021.1.4,59.97427634170212,
T,left,Distractor,0,2,2,2,1904.6776195763302,1906.679516475239,left,1,3,0.547707183995044,K15V08,2022-11-18_16h14.11.074,t1_Paradigm,2021.1.4,59.97427634170212,
R,left,Distractor,0,3,3,3,1908.1774009501498,1910.1796010064184,left,1,3,0.5994335288191905,K15V08,2022-11-18_16h14.11.074,t1_Paradigm,2021.1.4,59.97427634170212,
H,left,Pretarget,0,4,4,4,1911.677587816988,1913.679685216796,left,1,3,0.4276844584214814,K15V08,2022-11-18_16h14.11.074,t1_Paradigm,2021.1.4,59.97427634170212,
K,left,Distractor,0,5,5,5,1915.1777256012058,1917.1782180314146,right,0,3,0.48097663506860044,K15V08,2022-11-18_16h14.11.074,t1_Paradigm,2021.1.4,59.97427634170212,
G,left,Distractor,0,6,6,6,1918.6776012906482,1920.679389437869,left,1,3,0.5156013759815323,K15V08,2022-11-18_16h14.11.074,t1_Paradigm,2021.1.4,59.97427634170212,
H,right,Target,0,7,7,7,1922.1775645588834,1924.179306189896,left,0,3,0.3595564984266275,K15V08,2022-11-18_16h14.11.074,t1_Paradigm,2021.1.4,59.97427634170212,
Y,left,Pretarget,0,8,8,8,1925.677611235493,1927.679721146557,left,1,3,0.5873781315435735,K15V08,2022-11-18_16h14.11.074,t1_Paradigm,2021.1.4,59.97427634170212,
S,left,Distractor,0,9,9,9,1929.177564879685,1931.1796026104255,left,1,3,0.5277931138684835,K15V08,2022-11-18_16h14.11.074,t1_Paradigm,2021.1.4,59.97427634170212,
P,left,Distractor,0,10,10,10,1932.6775769097392,1934.6796018084217,left,1,3,1.347846283499166,K15V08,2022-11-18_16h14.11.074,t1_Paradigm,2021.1.4,59.97427634170212,
Y,right,Target,0,11,11,11,1936.1775427443856,1938.179447342529,right,1,3,0.7117271853235252,K15V08,2022-11-18_16h14.11.074,t1_Paradigm,2021.1.4,59.97427634170212,
H,left,Lure,0,12,12,12,1939.6774983133866,1941.6799004745615,left,1,3,0.5392075498693885,K15V08,2022-11-18_16h14.11.074,t1_Paradigm,2021.1.4,59.97427634170212,
Q,left,Distractor,0,13,13,13,1943.1775498020172,1945.1802021883148,left,1,3,0.7347373101379162,K15V08,2022-11-18_16h14.11.074,t1_Paradigm,2021.1.4,59.97427634170212,
V,left,Pretarget,0,14,14,14,1946.6774296618785,1948.6793265607873,left,1,3,0.5798107463992892,K15V08,2022-11-18_16h14.11.074,t1_Paradigm,2021.1.4,59.97427634170212,
G,left,Distractor,0,15,15,15,1950.1776518168751,1952.1795477533794,left,1,3,0.535329702074705,K15V08,2022-11-18_16h14.11.074,t1_Paradigm,2021.1.4,59.97427634170212,
Z,left,Pretarget,0,16,16,16,1953.6775413007792,1955.67945648537,left,1,3,0.6194839395570853,K15V08,2022-11-18_16h14.11.074,t1_Paradigm,2021.1.4,59.97427634170212,
V,right,Target,0,17,17,17,1957.1775260627107,1959.179627953739,right,1,3,0.8479192658269312,K15V08,2022-11-18_16h14.11.074,t1_Paradigm,2021.1.4,59.97427634170212,
N,left,Distractor,0,18,18,18,1960.677538734368,1962.6794157435872,left,1,3,0.7076558942612792,K15V08,2022-11-18_16h14.11.074,t1_Paradigm,2021.1.4,59.97427634170212,
Z,right,Target,0,19,19,19,1964.1775013610002,1966.1794742898498,right,1,3,0.8555540192733133,K15V08,2022-11-18_16h14.11.074,t1_Paradigm,2021.1.4,59.97427634170212,
R,left,Distractor,0,20,20,20,1967.6775108246427,1969.678840225806,left,1,3,0.6040906033090323,K15V08,2022-11-18_16h14.11.074,t1_Paradigm,2021.1.4,59.97427634170212,
P,left,Distractor,0,21,21,21,1971.1775032858088,1973.179704625283,left,1,3,0.6713549658297779,K15V08,2022-11-18_16h14.11.074,t1_Paradigm,2021.1.4,59.97427634170212,
Z,right,Target,0,22,22,22,1974.6775172406712,1976.6791796337282,right,1,3,0.4517259598619603,K15V08,2022-11-18_16h14.11.074,t1_Paradigm,2021.1.4,59.97427634170212,
D,left,Pretarget,0,23,23,23,1978.1776043382622,1980.1904890072576,left,1,3,0.4605008416228884,K15V08,2022-11-18_16h14.11.074,t1_Paradigm,2021.1.4,59.97427634170212,
K,left,Distractor,0,24,24,24,1981.6775348847507,1983.6781129689437,left,1,3,0.6687490957410773,K15V08,2022-11-18_16h14.11.074,t1_Paradigm,2021.1.4,59.97427634170212,
W,left,Distractor,0,25,25,25,1985.1774965489788,1987.1792304807561,left,1,3,0.7516647188672323,K15V08,2022-11-18_16h14.11.074,t1_Paradigm,2021.1.4,59.97427634170212,
D,right,Target,0,26,26,26,1988.6774222834454,1990.6766196382453,left,0,3,0.9824598605218853,K15V08,2022-11-18_16h14.11.074,t1_Paradigm,2021.1.4,59.97427634170212,
G,left,Pretarget,0,27,27,27,1992.177540819577,1994.1798839532873,left,1,3,0.759021337466038,K15V08,2022-11-18_16h14.11.074,t1_Paradigm,2021.1.4,59.97427634170212,
V,left,Distractor,0,28,28,28,1995.6774347947014,1997.6792200547095,left,1,3,0.6356548984936126,K15V08,2022-11-18_16h14.11.074,t1_Paradigm,2021.1.4,59.97427634170212,
D,right,Target,0,29,29,29,1999.177464148033,2001.178336407146,right,1,3,0.6246963213379786,K15V08,2022-11-18_16h14.11.074,t1_Paradigm,2021.1.4,59.97427634170212,
G,right,Target,0,30,30,30,2002.677580438555,2004.6790070425538,right,1,3,0.8037805166377439,K15V08,2022-11-18_16h14.11.074,t1_Paradigm,2021.1.4,59.97427634170212,
B,left,Pretarget,0,31,31,31,2006.1774089701855,2008.179392485483,left,1,3,0.8235717198135717,K15V08,2022-11-18_16h14.11.074,t1_Paradigm,2021.1.4,59.97427634170212,
N,left,Distractor,0,32,32,32,2009.6774254914596,2011.6794205556087,left,1,3,0.7961165702604376,K15V08,2022-11-18_16h14.11.074,t1_Paradigm,2021.1.4,59.97427634170212,
F,left,Distractor,0,33,33,33,2013.177529912328,2015.1795747007002,left,1,3,0.5753852905481835,K15V08,2022-11-18_16h14.11.074,t1_Paradigm,2021.1.4,59.97427634170212,
B,right,Target,0,34,34,34,2016.6773571607534,2018.6793945706925,right,1,3,1.043823401374084,K15V08,2022-11-18_16h14.11.074,t1_Paradigm,2021.1.4,59.97427634170212,
Q,left,Pretarget,0,35,35,35,2020.1773903637024,2022.1798663092084,left,1,3,0.48698428361694823,K15V08,2022-11-18_16h14.11.074,t1_Paradigm,2021.1.4,59.97427634170212,
S,left,Pretarget,0,36,36,36,2023.6773979025359,2025.6792893478203,left,1,3,0.7476858186196296,K15V08,2022-11-18_16h14.11.074,t1_Paradigm,2021.1.4,59.97427634170212,
W,left,Distractor,0,37,37,37,2027.1775350451514,2029.1796003648153,None,0,3,,K15V08,2022-11-18_16h14.11.074,t1_Paradigm,2021.1.4,59.97427634170212,
Q,right,Target,0,38,38,38,2030.677388278493,2032.6792662501168,right,1,3,0.9795707227626735,K15V08,2022-11-18_16h14.11.074,t1_Paradigm,2021.1.4,59.97427634170212,
S,right,Target,0,39,39,39,2034.1775215714908,2036.179290149824,right,1,3,0.8396143581740034,K15V08,2022-11-18_16h14.11.074,t1_Paradigm,2021.1.4,59.97427634170212,
T,left,Distractor,0,40,40,40,2037.677441531532,2039.6781870740758,left,1,3,0.7324862464402031,K15V08,2022-11-18_16h14.11.074,t1_Paradigm,2021.1.4,59.97427634170212,
G,left,Distractor,0,41,41,41,2041.177431747088,2043.1790912529316,left,1,3,0.7358427918966299,K15V08,2022-11-18_16h14.11.074,t1_Paradigm,2021.1.4,59.97427634170212,
D,left,Distractor,0,42,42,42,2044.6773674263993,2046.6793172575456,left,1,3,0.8994765482921139,K15V08,2022-11-18_16h14.11.074,t1_Paradigm,2021.1.4,59.97427634170212,
S,left,Lure,0,43,43,43,2048.1774490703656,2050.178744466576,right,0,3,0.9679997356597596,K15V08,2022-11-18_16h14.11.074,t1_Paradigm,2021.1.4,59.97427634170212,
Z,left,Pretarget,0,44,44,44,2051.677295246076,2053.6785710733984,left,1,3,0.5402318688638843,K15V08,2022-11-18_16h14.11.074,t1_Paradigm,2021.1.4,59.97427634170212,
J,left,Distractor,0,45,45,45,2055.177478584098,2057.1791079346067,left,1,3,0.639807031518103,K15V08,2022-11-18_16h14.11.074,t1_Paradigm,2021.1.4,59.97427634170212,
M,left,Pretarget,0,46,46,46,2058.677352990335,2060.6791870121615,left,1,3,0.6757396798980153,K15V08,2022-11-18_16h14.11.074,t1_Paradigm,2021.1.4,59.97427634170212,
Z,right,Target,0,47,47,47,2062.177101000804,2064.1792753929576,right,1,3,0.93560360234369,K15V08,2022-11-18_16h14.11.074,t1_Paradigm,2021.1.4,59.97427634170212,
P,left,Distractor,0,48,48,48,2065.6773979025356,2067.6789659799697,left,1,3,0.4758037118649554,K15V08,2022-11-18_16h14.11.074,t1_Paradigm,2021.1.4,59.97427634170212,
M,right,Target,0,49,49,49,2069.1773162585696,2071.1795599438337,left,0,3,0.47916442773976087,K15V08,2022-11-18_16h14.11.074,t1_Paradigm,2021.1.4,59.97427634170212,
K,left,Distractor,0,50,50,50,2072.6773809000597,2074.679031423463,left,1,3,0.6437455107848109,K15V08,2022-11-18_16h14.11.074,t1_Paradigm,2021.1.4,59.97427634170212,
Y,left,Distractor,0,51,51,51,2076.1773813812615,2078.179159262837,left,1,3,0.7278955778483578,K15V08,2022-11-18_16h14.11.074,t1_Paradigm,2021.1.4,59.97427634170212,
X,left,Distractor,0,52,52,52,2079.677356839952,2081.6794513525474,left,1,3,0.6832368095269885,K15V08,2022-11-18_16h14.11.074,t1_Paradigm,2021.1.4,59.97427634170212,
F,left,Pretarget,0,53,53,53,2083.1773088801365,2085.179275072156,left,1,3,0.9755889353018574,K15V08,2022-11-18_16h14.11.074,t1_Paradigm,2021.1.4,59.97427634170212,
M,left,Lure,0,54,54,54,2086.6773594063634,2088.679374360202,left,1,3,0.6593457639614826,K15V08,2022-11-18_16h14.11.074,t1_Paradigm,2021.1.4,59.97427634170212,
V,left,Distractor,0,55,55,55,2090.1768183747363,2092.179167282873,left,1,3,1.0481061005843912,K15V08,2022-11-18_16h14.11.074,t1_Paradigm,2021.1.4,59.97427634170212,
F,right,Target,0,56,56,56,2093.6772849804292,2095.679175142508,right,1,3,0.7956921499567216,K15V08,2022-11-18_16h14.11.074,t1_Paradigm,2021.1.4,59.97427634170212,
S,left,Distractor,0,57,57,57,2097.1773778524457,2099.1791384107437,None,0,3,,K15V08,2022-11-18_16h14.11.074,t1_Paradigm,2021.1.4,59.97427634170212,
D,left,Distractor,0,58,58,58,2100.677254504293,2102.678954110316,left,1,3,0.675791649731309,K15V08,2022-11-18_16h14.11.074,t1_Paradigm,2021.1.4,59.97427634170212,
F,right,Target,0,59,59,59,2104.1772553062965,2106.1790286966516,left,0,3,1.2078077937426315,K15V08,2022-11-18_16h14.11.074,t1_Paradigm,2021.1.4,59.97427634170212,
V,left,Pretarget,0,60,60,60,2107.6762969119973,2109.679602770826,left,1,3,1.0670718816572844,K15V08,2022-11-18_16h14.11.074,t1_Paradigm,2021.1.4,59.97427634170212,
J,left,Distractor,0,61,61,61,2111.177188579597,2113.179000786926,left,1,3,0.7996441028835761,K15V08,2022-11-18_16h14.11.074,t1_Paradigm,2021.1.4,59.97427634170212,
V,left,Lure,0,62,62,62,2114.6772253113622,2116.6793178991484,left,1,3,0.4513227124534751,K15V08,2022-11-18_16h14.11.074,t1_Paradigm,2021.1.4,59.97427634170212,
V,right,Target,0,63,63,63,2118.1770121388054,2120.1772735919785,right,1,3,0.8734704588391651,K15V08,2022-11-18_16h14.11.074,t1_Paradigm,2021.1.4,59.97427634170212,
R,left,Distractor,0,0,0,0,2306.717521180113,2308.712508016026,left,1,4,0.5300104934149203,K15V08,2022-11-18_16h14.11.074,t1_Paradigm,2021.1.4,59.97427634170212,
F,left,Distractor,0,1,1,1,2310.2101483610413,2312.212313770755,left,1,4,0.598027776914023,K15V08,2022-11-18_16h14.11.074,t1_Paradigm,2021.1.4,59.97427634170212,
P,left,Pretarget,0,2,2,2,2313.7101254237386,2315.712139094371,left,1,4,0.7462264928735749,K15V08,2022-11-18_16h14.11.074,t1_Paradigm,2021.1.4,59.97427634170212,
H,left,Distractor,0,3,3,3,2317.2101358497857,2319.2121540116386,left,1,4,0.39849056506955094,K15V08,2022-11-18_16h14.11.074,t1_Paradigm,2021.1.4,59.97427634170212,
Z,left,Distractor,0,4,4,4,2320.710085323559,2322.7121721369194,left,1,4,0.8181283609965249,K15V08,2022-11-18_16h14.11.074,t1_Paradigm,2021.1.4,59.97427634170212,
T,left,Distractor,0,5,5,5,2324.210264491163,2326.211969550811,left,1,4,0.7263547685370213,K15V08,2022-11-18_16h14.11.074,t1_Paradigm,2021.1.4,59.97427634170212,
P,right,Target,0,6,6,6,2327.7100612634513,2329.7119302526344,right,1,4,0.7785157993102985,K15V08,2022-11-18_16h14.11.074,t1_Paradigm,2021.1.4,59.97427634170212,
G,left,Distractor,0,7,7,7,2331.2100059252025,2333.2119272050213,left,1,4,1.070337319504688,K15V08,2022-11-18_16h14.11.074,t1_Paradigm,2021.1.4,59.97427634170212,
L,left,Distractor,0,8,8,8,2334.710039769755,2336.712441289327,left,1,4,0.658099129569564,K15V08,2022-11-18_16h14.11.074,t1_Paradigm,2021.1.4,59.97427634170212,
P,left,Lure,0,9,9,9,2338.2101461154316,2340.212668256345,right,0,4,0.4216861131153564,K15V08,2022-11-18_16h14.11.074,t1_Paradigm,2021.1.4,59.97427634170212,
Q,left,Pretarget,0,10,10,10,2341.710113554085,2343.7119103629457,left,1,4,0.49044573114315426,K15V08,2022-11-18_16h14.11.074,t1_Paradigm,2021.1.4,59.97427634170212,
D,left,Distractor,0,11,11,11,2345.2100755391148,2347.2120898513504,left,1,4,0.5742579942916564,K15V08,2022-11-18_16h14.11.074,t1_Paradigm,2021.1.4,59.97427634170212,
M,left,Pretarget,0,12,12,12,2348.710116441299,2350.7119802976595,left,1,4,0.6744061083163615,K15V08,2022-11-18_16h14.11.074,t1_Paradigm,2021.1.4,59.97427634170212,
C,left,Distractor,0,13,13,13,2352.210121413721,2354.2122390240193,left,1,4,0.6462044538147893,K15V08,2022-11-18_16h14.11.074,t1_Paradigm,2021.1.4,59.97427634170212,
Q,right,Target,0,14,14,14,2355.7100747371114,2357.712116317469,right,1,4,0.9226380913851244,K15V08,2022-11-18_16h14.11.074,t1_Paradigm,2021.1.4,59.97427634170212,
R,left,Distractor,0,15,15,15,2359.2099937347484,2361.2105791973745,left,1,4,0.8160867806391252,K15V08,2022-11-18_16h14.11.074,t1_Paradigm,2021.1.4,59.97427634170212,
M,right,Target,0,16,16,16,2362.71015686228,2364.712116959072,right,1,4,0.8820390652745118,K15V08,2022-11-18_16h14.11.074,t1_Paradigm,2021.1.4,59.97427634170212,
S,left,Distractor,0,17,17,17,2366.20995620098,2368.21237953505,left,1,4,0.7581436247292004,K15V08,2022-11-18_16h14.11.074,t1_Paradigm,2021.1.4,59.97427634170212,
Z,left,Distractor,0,18,18,18,2369.710147559038,2371.7116325488996,left,1,4,1.0505874997152205,K15V08,2022-11-18_16h14.11.074,t1_Paradigm,2021.1.4,59.97427634170212,
L,left,Pretarget,0,19,19,19,2373.2100091332177,2375.2120125382035,left,1,4,0.7022260091052885,K15V08,2022-11-18_16h14.11.074,t1_Paradigm,2021.1.4,59.97427634170212,
M,right,Target,0,20,20,20,2376.7100237296827,2378.7115391956804,right,1,4,0.5788470588768178,K15V08,2022-11-18_16h14.11.074,t1_Paradigm,2021.1.4,59.97427634170212,
P,left,Distractor,0,21,21,21,2380.209906476757,2382.2118540622932,left,1,4,0.7424291662400719,K15V08,2022-11-18_16h14.11.074,t1_Paradigm,2021.1.4,59.97427634170212,
F,left,Distractor,0,22,22,22,2383.710165203117,2385.710442375561,left,1,4,0.5877172186646931,K15V08,2022-11-18_16h14.11.074,t1_Paradigm,2021.1.4,59.97427634170212,
L,right,Target,0,23,23,23,2387.2100277397003,2389.212260838517,left,0,4,0.6699562715557477,K15V08,2022-11-18_16h14.11.074,t1_Paradigm,2021.1.4,59.97427634170212,
L,left,Lure,0,24,24,24,2390.710045864982,2392.7100840403536,left,1,4,1.2840918095225788,K15V08,2022-11-18_16h14.11.074,t1_Paradigm,2021.1.4,59.97427634170212,
V,left,Pretarget,0,25,25,25,2394.210025173289,2396.212058092008,left,1,4,0.8062452340936943,K15V08,2022-11-18_16h14.11.074,t1_Paradigm,2021.1.4,59.97427634170212,
Z,left,Distractor,0,26,26,26,2397.7100551682233,2399.712002432959,left,1,4,0.8262725471286103,K15V08,2022-11-18_16h14.11.074,t1_Paradigm,2021.1.4,59.97427634170212,
H,left,Distractor,0,27,27,27,2401.2100094540183,2403.211799526048,left,1,4,0.47854656416802754,K15V08,2022-11-18_16h14.11.074,t1_Paradigm,2021.1.4,59.97427634170212,
X,left,Distractor,0,28,28,28,2404.710164561515,2406.7118365786146,left,1,4,0.5946256776533119,K15V08,2022-11-18_16h14.11.074,t1_Paradigm,2021.1.4,59.97427634170212,
V,right,Target,0,29,29,29,2408.2099937347484,2410.211827114972,right,1,4,0.7102030576870675,K15V08,2022-11-18_16h14.11.074,t1_Paradigm,2021.1.4,59.97427634170212,
C,left,Distractor,0,30,30,30,2411.709970797445,2413.7121897809984,left,1,4,0.8901133166918953,K15V08,2022-11-18_16h14.11.074,t1_Paradigm,2021.1.4,59.97427634170212,
S,left,Pretarget,0,31,31,31,2415.2100213236718,2417.212112307451,left,1,4,0.6541038684481464,K15V08,2022-11-18_16h14.11.074,t1_Paradigm,2021.1.4,59.97427634170212,
D,left,Distractor,0,32,32,32,2418.7100192384623,2420.711957520757,left,1,4,0.6584125525751006,K15V08,2022-11-18_16h14.11.074,t1_Paradigm,2021.1.4,59.97427634170212,
V,left,Distractor,0,33,33,33,2422.209906797558,2424.2261278015194,right,0,4,0.5679654740661135,K15V08,2022-11-18_16h14.11.074,t1_Paradigm,2021.1.4,59.97427634170212,
R,left,Distractor,0,34,34,34,2425.7098488928987,2427.7119126085554,left,1,4,0.602172531504948,K15V08,2022-11-18_16h14.11.074,t1_Paradigm,2021.1.4,59.97427634170212,
S,right,Target,0,35,35,35,2429.2098817750457,2431.21076109179,left,0,4,1.1513393620471106,K15V08,2022-11-18_16h14.11.074,t1_Paradigm,2021.1.4,59.97427634170212,
Y,left,Distractor,0,36,36,36,2432.7099480205434,2434.71213652796,left,1,4,0.5461500138098927,K15V08,2022-11-18_16h14.11.074,t1_Paradigm,2021.1.4,59.97427634170212,
N,left,Pretarget,0,37,37,37,2436.2099266872474,2438.2119730796267,left,1,4,0.6944703135159216,K15V08,2022-11-18_16h14.11.074,t1_Paradigm,2021.1.4,59.97427634170212,
Z,left,Pretarget,0,38,38,38,2439.7099518701607,2441.7118840572275,right,0,4,0.7623044193924216,K15V08,2022-11-18_16h14.11.074,t1_Paradigm,2021.1.4,59.97427634170212,
P,left,Pretarget,0,39,39,39,2443.209912571984,2445.2119028241113,left,1,4,0.5101666788041257,K15V08,2022-11-18_16h14.11.074,t1_Paradigm,2021.1.4,59.97427634170212,
M,left,Distractor,0,40,40,40,2446.709696833016,2448.711898493292,left,1,4,0.7699632329467931,K15V08,2022-11-18_16h14.11.074,t1_Paradigm,2021.1.4,59.97427634170212,
N,right,Target,0,41,41,41,2450.209832692426,2452.2120022725576,right,1,4,0.7103977841597953,K15V08,2022-11-18_16h14.11.074,t1_Paradigm,2021.1.4,59.97427634170212,
Z,right,Target,0,42,42,42,2453.709923960435,2455.711861921928,right,1,4,0.8582019143505022,K15V08,2022-11-18_16h14.11.074,t1_Paradigm,2021.1.4,59.97427634170212,
P,right,Target,0,43,43,43,2457.2097958002605,2459.2120455807517,left,0,4,0.7499971929883031,K15V08,2022-11-18_16h14.11.074,t1_Paradigm,2021.1.4,59.97427634170212,
X,left,Pretarget,0,44,44,44,2460.709858837743,2462.711700879606,left,1,4,0.5465224642812245,K15V08,2022-11-18_16h14.11.074,t1_Paradigm,2021.1.4,59.97427634170212,
Z,left,Lure,0,45,45,45,2464.209866697378,2466.2116622230324,left,1,4,0.9344047673657769,K15V08,2022-11-18_16h14.11.074,t1_Paradigm,2021.1.4,59.97427634170212,
R,left,Pretarget,0,46,46,46,2467.7099451333297,2469.7117499622254,left,1,4,0.5702973797260711,K15V08,2022-11-18_16h14.11.074,t1_Paradigm,2021.1.4,59.97427634170212,
K,left,Distractor,0,47,47,47,2471.2098772838262,2473.211710022447,left,1,4,0.574479668085587,K15V08,2022-11-18_16h14.11.074,t1_Paradigm,2021.1.4,59.97427634170212,
X,right,Target,0,48,48,48,2474.709977534276,2476.7117384133744,left,0,4,0.6904064008867863,K15V08,2022-11-18_16h14.11.074,t1_Paradigm,2021.1.4,59.97427634170212,
B,left,Distractor,0,49,49,49,2478.209877604627,2480.211629180484,left,1,4,0.6465935859605452,K15V08,2022-11-18_16h14.11.074,t1_Paradigm,2021.1.4,59.97427634170212,
R,right,Target,0,50,50,50,2481.709914977995,2483.7117012004073,left,0,4,0.7945083926470033,K15V08,2022-11-18_16h14.11.074,t1_Paradigm,2021.1.4,59.97427634170212,
Y,left,Pretarget,0,51,51,51,2485.2097951586575,2487.21219443262,left,1,4,0.9258342361217728,K15V08,2022-11-18_16h14.11.074,t1_Paradigm,2021.1.4,59.97427634170212,
W,left,Pretarget,0,52,52,52,2488.7097940358526,2490.723095105116,left,1,4,0.56710187659246,K15V08,2022-11-18_16h14.11.074,t1_Paradigm,2021.1.4,59.97427634170212,
Z,left,Distractor,0,53,53,53,2492.2098208227726,2494.2115691906147,left,1,4,0.9664136933452028,K15V08,2022-11-18_16h14.11.074,t1_Paradigm,2021.1.4,59.97427634170212,
Q,left,Distractor,0,54,54,54,2495.709893484299,2497.711748999822,left,1,4,0.6662506941338506,K15V08,2022-11-18_16h14.11.074,t1_Paradigm,2021.1.4,59.97427634170212,
Y,right,Target,0,55,55,55,2499.2098105571267,2501.2122069438756,right,1,4,1.4538288132953312,K15V08,2022-11-18_16h14.11.074,t1_Paradigm,2021.1.4,59.97427634170212,
W,right,Target,0,56,56,56,2502.7098152087474,2504.7119735608285,left,0,4,0.6421790373578915,K15V08,2022-11-18_16h14.11.074,t1_Paradigm,2021.1.4,59.97427634170212,
H,left,Pretarget,0,57,57,57,2506.2098086323176,2508.211528128031,left,1,4,0.7264686530479594,K15V08,2022-11-18_16h14.11.074,t1_Paradigm,2021.1.4,59.97427634170212,
M,left,Distractor,0,58,58,58,2509.7097946774556,2511.7088723733186,left,1,4,0.8450801730923558,K15V08,2022-11-18_16h14.11.074,t1_Paradigm,2021.1.4,59.97427634170212,
R,left,Pretarget,0,59,59,59,2513.209782647401,2515.2116872455445,left,1,4,0.9743881755157418,K15V08,2022-11-18_16h14.11.074,t1_Paradigm,2021.1.4,59.97427634170212,
J,left,Distractor,0,60,60,60,2516.709796602264,2518.7116171504304,left,1,4,0.6425550166450194,K15V08,2022-11-18_16h14.11.074,t1_Paradigm,2021.1.4,59.97427634170212,
H,right,Target,0,61,61,61,2520.2097999706793,2522.2117183632845,right,1,4,0.7101652031169579,K15V08,2022-11-18_16h14.11.074,t1_Paradigm,2021.1.4,59.97427634170212,
Z,left,Distractor,0,62,62,62,2523.7095364322968,2525.7117310349413,left,1,4,1.002249459689665,K15V08,2022-11-18_16h14.11.074,t1_Paradigm,2021.1.4,59.97427634170212,
R,right,Target,0,63,63,63,2527.2097293943625,2529.2105140746826,right,1,4,0.735406822740515,K15V08,2022-11-18_16h14.11.074,t1_Paradigm,2021.1.4,59.97427634170212,
J,left,Pretarget,0,0,0,0,2573.6849219794867,2575.6787375693457,left,1,4,0.5072387240697935,K15V08,2022-11-18_16h14.11.074,t1_Paradigm,2021.1.4,59.97427634170212,
G,left,Pretarget,0,1,1,1,2577.1762556890126,2579.178578291431,left,1,4,0.767276841696912,K15V08,2022-11-18_16h14.11.074,t1_Paradigm,2021.1.4,59.97427634170212,
Z,left,Distractor,0,2,2,2,2580.676432611006,2582.678096928872,left,1,4,0.5478810583754239,K15V08,2022-11-18_16h14.11.074,t1_Paradigm,2021.1.4,59.97427634170212,
F,left,Distractor,0,3,3,3,2584.176398445653,2586.178034853793,left,1,4,0.5198317845579368,K15V08,2022-11-18_16h14.11.074,t1_Paradigm,2021.1.4,59.97427634170212,
J,right,Target,0,4,4,4,2587.676072671792,2589.678141520272,right,1,4,0.47573024833582167,K15V08,2022-11-18_16h14.11.074,t1_Paradigm,2021.1.4,59.97427634170212,
G,right,Target,0,5,5,5,2591.17634423021,2593.1753943371486,right,1,4,1.2024516929168385,K15V08,2022-11-18_16h14.11.074,t1_Paradigm,2021.1.4,59.97427634170212,
H,left,Distractor,0,6,6,6,2594.6762892127635,2596.677981761155,left,1,4,0.5800353074064333,K15V08,2022-11-18_16h14.11.074,t1_Paradigm,2021.1.4,59.97427634170212,
P,left,Distractor,0,7,7,7,2598.1764029368733,2600.1779870543787,left,1,4,0.5838175563721961,K15V08,2022-11-18_16h14.11.074,t1_Paradigm,2021.1.4,59.97427634170212,
G,left,Lure,0,8,8,8,2601.676383207585,2603.676377112358,right,0,4,0.8613656581419491,K15V08,2022-11-18_16h14.11.074,t1_Paradigm,2021.1.4,59.97427634170212,
S,left,Distractor,0,9,9,9,2605.176350325437,2607.178228938664,left,1,4,0.5436246648832821,K15V08,2022-11-18_16h14.11.074,t1_Paradigm,2021.1.4,59.97427634170212,
R,left,Pretarget,0,10,10,10,2608.6760107571145,2610.6785874342722,left,1,4,0.5634056024118763,K15V08,2022-11-18_16h14.11.074,t1_Paradigm,2021.1.4,59.97427634170212,
T,left,Pretarget,0,11,11,11,2612.176325302925,2614.175302587938,left,1,4,0.6184913799052083,K15V08,2022-11-18_16h14.11.074,t1_Paradigm,2021.1.4,59.97427634170212,
X,left,Distractor,0,12,12,12,2615.6762295436956,2617.6782307030717,left,1,4,0.6675415991248883,K15V08,2022-11-18_16h14.11.074,t1_Paradigm,2021.1.4,59.97427634170212,
F,left,Pretarget,0,13,13,13,2619.1763002804128,2621.1781804976463,left,1,4,0.6398224299873618,K15V08,2022-11-18_16h14.11.074,t1_Paradigm,2021.1.4,59.97427634170212,
R,right,Target,0,14,14,14,2622.6762507165904,2624.6781472946977,left,0,4,0.6118989103342756,K15V08,2022-11-18_16h14.11.074,t1_Paradigm,2021.1.4,59.97427634170212,
T,right,Target,0,15,15,15,2626.1763304357482,2628.178199745733,right,1,4,0.9355750510158032,K15V08,2022-11-18_16h14.11.074,t1_Paradigm,2021.1.4,59.97427634170212,
C,left,Distractor,0,16,16,16,2629.6761782154654,2631.678473870563,left,1,4,0.53942890286271,K15V08,2022-11-18_16h14.11.074,t1_Paradigm,2021.1.4,59.97427634170212,
F,right,Target,0,17,17,17,2633.1762277792877,2635.1787171984543,right,1,4,0.5910205110812967,K15V08,2022-11-18_16h14.11.074,t1_Paradigm,2021.1.4,59.97427634170212,
M,left,Distractor,0,18,18,18,2636.6762160700355,2638.678344908384,left,1,4,0.531401167653712,K15V08,2022-11-18_16h14.11.074,t1_Paradigm,2021.1.4,59.97427634170212,
N,left,Distractor,0,19,19,19,2640.1761677894183,2642.1785474944927,left,1,4,1.0313121452536507,K15V08,2022-11-18_16h14.11.074,t1_Paradigm,2021.1.4,59.97427634170212,
R,left,Lure,0,20,20,20,2643.676160250585,2645.678410672679,left,1,4,0.7313541381627147,K15V08,2022-11-18_16h14.11.074,t1_Paradigm,2021.1.4,59.97427634170212,
F,right,Target,0,21,21,21,2647.1763092628535,2649.178177931235,right,1,4,0.8315372195429518,K15V08,2022-11-18_16h14.11.074,t1_Paradigm,2021.1.4,59.97427634170212,
P,left,Distractor,0,22,22,22,2650.6761936139346,2652.6782165878085,left,1,4,0.5476042067339222,K15V08,2022-11-18_16h14.11.074,t1_Paradigm,2021.1.4,59.97427634170212,
L,left,Pretarget,0,23,23,23,2654.176190887122,2656.1782103321802,left,1,4,0.6636659969399261,K15V08,2022-11-18_16h14.11.074,t1_Paradigm,2021.1.4,59.97427634170212,
T,left,Distractor,0,24,24,24,2657.676165062606,2659.6782708032515,left,1,4,0.47553038903879497,K15V08,2022-11-18_16h14.11.074,t1_Paradigm,2021.1.4,59.97427634170212,
F,left,Distractor,0,25,25,25,2661.176226816883,2663.1780515354685,right,0,4,0.7517551848732182,K15V08,2022-11-18_16h14.11.074,t1_Paradigm,2021.1.4,59.97427634170212,
V,left,Distractor,0,26,26,26,2664.676280871926,2666.678055545486,left,1,4,0.6118565645438139,K15V08,2022-11-18_16h14.11.074,t1_Paradigm,2021.1.4,59.97427634170212,
L,right,Target,0,27,27,27,2668.1763179244917,2670.1779241772965,right,1,4,1.0799565506531508,K15V08,2022-11-18_16h14.11.074,t1_Paradigm,2021.1.4,59.97427634170212,
S,left,Pretarget,0,28,28,28,2671.6760075491,2673.6782239662416,left,1,4,0.5395578650404786,K15V08,2022-11-18_16h14.11.074,t1_Paradigm,2021.1.4,59.97427634170212,
W,left,Distractor,0,29,29,29,2675.1762325913096,2677.178293740555,left,1,4,0.5435791110785431,K15V08,2022-11-18_16h14.11.074,t1_Paradigm,2021.1.4,59.97427634170212,
Q,left,Distractor,0,30,30,30,2678.675869604481,2680.6764165709346,left,1,4,0.5333064073993228,K15V08,2022-11-18_16h14.11.074,t1_Paradigm,2021.1.4,59.97427634170212,
L,right,Target,0,31,31,31,2682.1760978547045,2684.1780723875618,right,1,4,0.7278099238646973,K15V08,2022-11-18_16h14.11.074,t1_Paradigm,2021.1.4,59.97427634170212,
S,right,Target,0,32,32,32,2685.6761137343756,2687.6784700209455,left,0,4,0.9552536528863129,K15V08,2022-11-18_16h14.11.074,t1_Paradigm,2021.1.4,59.97427634170212,
Z,left,Pretarget,0,33,33,33,2689.1761283308415,2691.1775940726166,left,1,4,0.8485605479036167,K15V08,2022-11-18_16h14.11.074,t1_Paradigm,2021.1.4,59.97427634170212,
F,left,Distractor,0,34,34,34,2692.6760595189326,2694.6781508235135,left,1,4,0.8676742184397881,K15V08,2022-11-18_16h14.11.074,t1_Paradigm,2021.1.4,59.97427634170212,
V,left,Distractor,0,35,35,35,2696.176111007564,2698.1768276779785,left,1,4,0.5208259482169524,K15V08,2022-11-18_16h14.11.074,t1_Paradigm,2021.1.4,59.97427634170212,
M,left,Distractor,0,36,36,36,2699.6761897643173,2701.678325339496,left,1,4,0.7632934502289572,K15V08,2022-11-18_16h14.11.074,t1_Paradigm,2021.1.4,59.97427634170212,
Z,right,Target,0,37,37,37,2703.175855649618,2705.1783579008425,right,1,4,0.6713694018944807,K15V08,2022-11-18_16h14.11.074,t1_Paradigm,2021.1.4,59.97427634170212,
H,left,Pretarget,0,38,38,38,2706.6760797294237,2708.678018332519,left,1,4,0.563755917583876,K15V08,2022-11-18_16h14.11.074,t1_Paradigm,2021.1.4,59.97427634170212,
L,left,Distractor,0,39,39,39,2710.176069624178,2712.1783299911176,None,0,4,,K15V08,2022-11-18_16h14.11.074,t1_Paradigm,2021.1.4,59.97427634170212,
G,left,Distractor,0,40,40,40,2713.675977714566,2715.6782701616485,left,1,4,0.6033463439698608,K15V08,2022-11-18_16h14.11.074,t1_Paradigm,2021.1.4,59.97427634170212,
K,left,Distractor,0,41,41,41,2717.176127368437,2719.1779241772965,left,1,4,0.4958778619093209,K15V08,2022-11-18_16h14.11.074,t1_Paradigm,2021.1.4,59.97427634170212,
H,right,Target,0,42,42,42,2720.6761984259556,2722.677756879347,right,1,4,0.8516360712983442,K15V08,2022-11-18_16h14.11.074,t1_Paradigm,2021.1.4,59.97427634170212,
B,left,Distractor,0,43,43,43,2724.175978195768,2726.1783559760343,left,1,4,0.5832032216158041,K15V08,2022-11-18_16h14.11.074,t1_Paradigm,2021.1.4,59.97427634170212,
Z,left,Distractor,0,44,44,44,2727.675832070712,2729.6782146630003,right,0,4,0.923467683905983,K15V08,2022-11-18_16h14.11.074,t1_Paradigm,2021.1.4,59.97427634170212,
T,left,Pretarget,0,45,45,45,2731.176060320937,2733.1777865534796,left,1,4,0.6077454941032556,K15V08,2022-11-18_16h14.11.074,t1_Paradigm,2021.1.4,59.97427634170212,
H,right,Target,0,46,46,46,2734.6759956794467,2736.6780978912766,right,1,4,0.7395842990790698,K15V08,2022-11-18_16h14.11.074,t1_Paradigm,2021.1.4,59.97427634170212,
F,left,Distractor,0,47,47,47,2738.1760301656013,2740.1766650316486,left,1,4,0.8730110711785528,K15V08,2022-11-18_16h14.11.074,t1_Paradigm,2021.1.4,59.97427634170212,
R,left,Distractor,0,48,48,48,2741.676106035142,2743.677804999563,left,1,4,1.3878200676062988,K15V08,2022-11-18_16h14.11.074,t1_Paradigm,2021.1.4,59.97427634170212,
T,right,Target,0,49,49,49,2745.1759631181003,2747.1780027736495,right,1,4,0.8957032817670552,K15V08,2022-11-18_16h14.11.074,t1_Paradigm,2021.1.4,59.97427634170212,
H,right,Target,0,50,50,50,2748.676072030189,2750.677948718607,right,1,4,0.8193974514888396,K15V08,2022-11-18_16h14.11.074,t1_Paradigm,2021.1.4,59.97427634170212,
Y,left,Pretarget,0,51,51,51,2752.1760843810443,2754.178302081392,left,1,4,0.647710616571203,K15V08,2022-11-18_16h14.11.074,t1_Paradigm,2021.1.4,59.97427634170212,
H,left,Distractor,0,52,52,52,2755.6759815641835,2757.677664488532,left,1,4,0.8441068615256881,K15V08,2022-11-18_16h14.11.074,t1_Paradigm,2021.1.4,59.97427634170212,
S,left,Distractor,0,53,53,53,2759.175972742144,2761.1779886583863,left,1,4,0.8155629118891738,K15V08,2022-11-18_16h14.11.074,t1_Paradigm,2021.1.4,59.97427634170212,
Q,left,Distractor,0,54,54,54,2762.6759834889917,2764.6778040371582,left,1,4,0.7555306970089077,K15V08,2022-11-18_16h14.11.074,t1_Paradigm,2021.1.4,59.97427634170212,
Y,right,Target,0,55,55,55,2766.1759595892845,2768.1777426036824,left,0,4,0.728011387168408,K15V08,2022-11-18_16h14.11.074,t1_Paradigm,2021.1.4,59.97427634170212,
R,left,Distractor,0,56,56,56,2769.675980601779,2771.6777863930793,right,0,4,0.9877492346477084,K15V08,2022-11-18_16h14.11.074,t1_Paradigm,2021.1.4,59.97427634170212,
H,left,Pretarget,0,57,57,57,2773.1759384163897,2775.177770834209,left,1,4,0.7837365219293133,K15V08,2022-11-18_16h14.11.074,t1_Paradigm,2021.1.4,59.97427634170212,
J,left,Distractor,0,58,58,58,2776.676057273323,2778.677628558771,left,1,4,0.7239628730085315,K15V08,2022-11-18_16h14.11.074,t1_Paradigm,2021.1.4,59.97427634170212,
V,left,Distractor,0,59,59,59,2780.176059679334,2782.177877661088,left,1,4,0.5516193575440411,K15V08,2022-11-18_16h14.11.074,t1_Paradigm,2021.1.4,59.97427634170212,
Y,left,Lure,0,60,60,60,2783.675968411324,2785.6778396461177,left,1,4,0.7156056747207913,K15V08,2022-11-18_16h14.11.074,t1_Paradigm,2021.1.4,59.97427634170212,
H,right,Target,0,61,61,61,2787.1758845217482,2789.1780893900377,left,0,4,0.6555044875303793,K15V08,2022-11-18_16h14.11.074,t1_Paradigm,2021.1.4,59.97427634170212,
L,left,Distractor,0,62,62,62,2790.6757416047067,2792.677431586688,left,1,4,0.5481938397779231,K15V08,2022-11-18_16h14.11.074,t1_Paradigm,2021.1.4,59.97427634170212,
P,left,Distractor,0,63,63,63,2794.1759223763174,2796.178124357395,left,1,4,0.5513563003642048,K15V08,2022-11-18_16h14.11.074,t1_Paradigm,2021.1.4,59.97427634170212,
