Letter,CorrAnswer,Stimulus,nback_run.thisRepN,nback_run.thisTrialN,nback_run.thisN,nback_run.thisIndex,fixcross.started,nback_trial.started,trial_resp.keys,trial_resp.corr,currentlevel,trial_resp.rt,Participant,date,expName,psychopyVersion,frameRate,
H,left,Distractor,0,0,0,0,371.39602674329944,373.34321188530885,None,0,1,,K17R10,2022-12-08_10h40.38.421,t1_Paradigm,2021.1.4,59.942637811852876,
Q,left,Pretarget,0,1,1,1,374.8420436861197,376.84490587840264,left,1,1,0.4534338768571615,K17R10,2022-12-08_10h40.38.421,t1_Paradigm,2021.1.4,59.942637811852876,
Q,right,Target,0,2,2,2,378.3420284480526,380.34208105951257,right,1,1,0.6042151411384111,K17R10,2022-12-08_10h40.38.421,t1_Paradigm,2021.1.4,59.942637811852876,
T,left,Distractor,0,3,3,3,381.8421190745139,383.84408975901897,left,1,1,0.5743116157973418,K17R10,2022-12-08_10h40.38.421,t1_Paradigm,2021.1.4,59.942637811852876,
Q,left,Lure,0,4,4,4,385.3418635560083,387.34343740886834,right,0,1,0.5630819542275276,K17R10,2022-12-08_10h40.38.421,t1_Paradigm,2021.1.4,59.942637811852876,
L,left,Distractor,0,5,5,5,388.84211779131147,390.8439139597176,left,1,1,0.6946112702134997,K17R10,2022-12-08_10h40.38.421,t1_Paradigm,2021.1.4,59.942637811852876,
V,left,Pretarget,0,6,6,6,392.3422263826651,394.3439070624736,left,1,1,0.5065194914204767,K17R10,2022-12-08_10h40.38.421,t1_Paradigm,2021.1.4,59.942637811852876,
V,right,Target,0,7,7,7,395.84202155080857,397.84215949551435,right,1,1,0.6561301505134907,K17R10,2022-12-08_10h40.38.421,t1_Paradigm,2021.1.4,59.942637811852876,
K,left,Distractor,0,8,8,8,399.34208747555385,401.34408350338344,left,1,1,0.5464339528843993,K17R10,2022-12-08_10h40.38.421,t1_Paradigm,2021.1.4,59.942637811852876,
G,left,Pretarget,0,9,9,9,402.8419355759688,404.8439604759478,left,1,1,0.5823265241051558,K17R10,2022-12-08_10h40.38.421,t1_Paradigm,2021.1.4,59.942637811852876,
G,right,Target,0,10,10,10,406.34206373622874,408.3420749642828,right,1,1,0.5723293824412394,K17R10,2022-12-08_10h40.38.421,t1_Paradigm,2021.1.4,59.942637811852876,
G,right,Target,0,11,11,11,409.84194038799615,411.8421460218524,right,1,1,0.36812790745170787,K17R10,2022-12-08_10h40.38.421,t1_Paradigm,2021.1.4,59.942637811852876,
P,left,Pretarget,0,12,12,12,413.34202588163316,415.34358882725064,left,1,1,0.5308539001998724,K17R10,2022-12-08_10h40.38.421,t1_Paradigm,2021.1.4,59.942637811852876,
P,right,Target,0,13,13,13,416.84191857348196,418.8419792049972,right,1,1,0.536259087108192,K17R10,2022-12-08_10h40.38.421,t1_Paradigm,2021.1.4,59.942637811852876,
G,left,Lure,0,14,14,14,420.3420650194312,422.3431390633341,left,1,1,0.6831265713262837,K17R10,2022-12-08_10h40.38.421,t1_Paradigm,2021.1.4,59.942637811852876,
Y,left,Distractor,0,15,15,15,423.84201994680916,425.8439547015296,left,1,1,0.52629081759369,K17R10,2022-12-08_10h40.38.421,t1_Paradigm,2021.1.4,59.942637811852876,
B,left,Distractor,0,16,16,16,427.3410952360573,429.3438355237158,left,1,1,0.5786203027091688,K17R10,2022-12-08_10h40.38.421,t1_Paradigm,2021.1.4,59.942637811852876,
T,left,Pretarget,0,17,17,17,430.8420218716201,432.8436653384415,left,1,1,0.5987663251871709,K17R10,2022-12-08_10h40.38.421,t1_Paradigm,2021.1.4,59.942637811852876,
T,right,Target,0,18,18,18,434.3421577311092,436.34194921003655,right,1,1,0.8124523008009419,K17R10,2022-12-08_10h40.38.421,t1_Paradigm,2021.1.4,59.942637811852876,
S,left,Distractor,0,19,19,19,437.8420032651193,439.8445279740554,left,1,1,0.49398641278094146,K17R10,2022-12-08_10h40.38.421,t1_Paradigm,2021.1.4,59.942637811852876,
T,left,Lure,0,20,20,20,441.3419376611855,443.34391668652825,left,1,1,0.7543499901075847,K17R10,2022-12-08_10h40.38.421,t1_Paradigm,2021.1.4,59.942637811852876,
J,left,Distractor,0,21,21,21,444.8419262727257,446.84404741319304,left,1,1,0.4862230129656382,K17R10,2022-12-08_10h40.38.421,t1_Paradigm,2021.1.4,59.942637811852876,
P,left,Distractor,0,22,22,22,448.3418985233875,450.3432638551749,left,1,1,0.5231036532495636,K17R10,2022-12-08_10h40.38.421,t1_Paradigm,2021.1.4,59.942637811852876,
F,left,Distractor,0,23,23,23,451.84199909470044,453.84392807498807,left,1,1,0.5585692375025246,K17R10,2022-12-08_10h40.38.421,t1_Paradigm,2021.1.4,59.942637811852876,
L,left,Distractor,0,24,24,24,455.3419376611855,457.34376943857933,left,1,1,0.5787001823191531,K17R10,2022-12-08_10h40.38.421,t1_Paradigm,2021.1.4,59.942637811852876,
W,left,Pretarget,0,25,25,25,458.84201994680916,460.84393609502877,left,1,1,0.5024860523408279,K17R10,2022-12-08_10h40.38.421,t1_Paradigm,2021.1.4,59.942637811852876,
W,right,Target,0,26,26,26,462.3419537012669,464.3419687789428,right,1,1,0.4284893033473054,K17R10,2022-12-08_10h40.38.421,t1_Paradigm,2021.1.4,59.942637811852876,
V,left,Distractor,0,27,27,27,465.84184510991327,467.8437362356053,left,1,1,0.4466810022277059,K17R10,2022-12-08_10h40.38.421,t1_Paradigm,2021.1.4,59.942637811852876,
W,left,Lure,0,28,28,28,469.3418292302231,471.34355482227693,left,1,1,0.5789051745668985,K17R10,2022-12-08_10h40.38.421,t1_Paradigm,2021.1.4,59.942637811852876,
R,left,Pretarget,0,29,29,29,472.841944237618,474.8441654682101,left,1,1,0.4381367712194333,K17R10,2022-12-08_10h40.38.421,t1_Paradigm,2021.1.4,59.942637811852876,
R,right,Target,0,30,30,30,476.34191745067073,478.3419036562118,left,0,1,0.47639621698181145,K17R10,2022-12-08_10h40.38.421,t1_Paradigm,2021.1.4,59.942637811852876,
G,left,Distractor,0,31,31,31,479.8419929994707,481.84359476207464,left,1,1,0.542753395595355,K17R10,2022-12-08_10h40.38.421,t1_Paradigm,2021.1.4,59.942637811852876,
R,left,Lure,0,32,32,32,483.3418616311974,485.3435262709245,left,1,1,0.5149578579002991,K17R10,2022-12-08_10h40.38.421,t1_Paradigm,2021.1.4,59.942637811852876,
S,left,Distractor,0,33,33,33,486.841931084753,488.84347125345084,left,1,1,0.9024477486236719,K17R10,2022-12-08_10h40.38.421,t1_Paradigm,2021.1.4,59.942637811852876,
R,left,Lure,0,34,34,34,490.34190461861726,492.3435901104531,left,1,1,0.4907206520292675,K17R10,2022-12-08_10h40.38.421,t1_Paradigm,2021.1.4,59.942637811852876,
P,left,Pretarget,0,35,35,35,493.84190638302243,495.84376639095717,left,1,1,0.5745477258169558,K17R10,2022-12-08_10h40.38.421,t1_Paradigm,2021.1.4,59.942637811852876,
P,right,Target,0,36,36,36,497.3419213002926,499.34191199704946,right,1,1,0.4202068464801414,K17R10,2022-12-08_10h40.38.421,t1_Paradigm,2021.1.4,59.942637811852876,
Y,left,Pretarget,0,37,37,37,500.84181495454686,502.8435277145327,left,1,1,0.5665867122006603,K17R10,2022-12-08_10h40.38.421,t1_Paradigm,2021.1.4,59.942637811852876,
Y,right,Target,0,38,38,38,504.3418208893854,506.34177501474915,right,1,1,0.524490799580235,K17R10,2022-12-08_10h40.38.421,t1_Paradigm,2021.1.4,59.942637811852876,
J,left,Distractor,0,39,39,39,507.8416622529621,509.84373238598346,left,1,1,0.5264178550569341,K17R10,2022-12-08_10h40.38.421,t1_Paradigm,2021.1.4,59.942637811852876,
Y,left,Lure,0,40,40,40,511.34179041322204,513.3437421704293,left,1,1,0.7544581002584891,K17R10,2022-12-08_10h40.38.421,t1_Paradigm,2021.1.4,59.942637811852876,
T,left,Distractor,0,41,41,41,514.8418072553177,516.8434885767347,left,1,1,0.4707334263512166,K17R10,2022-12-08_10h40.38.421,t1_Paradigm,2021.1.4,59.942637811852876,
V,left,Distractor,0,42,42,42,518.341950172442,520.3436356642924,left,1,1,0.44228890691010747,K17R10,2022-12-08_10h40.38.421,t1_Paradigm,2021.1.4,59.942637811852876,
N,left,Pretarget,0,43,43,43,521.841879435684,523.8437481052679,left,1,1,0.494602031132672,K17R10,2022-12-08_10h40.38.421,t1_Paradigm,2021.1.4,59.942637811852876,
N,right,Target,0,44,44,44,525.341843987102,527.341937340374,right,1,1,0.5643433462973917,K17R10,2022-12-08_10h40.38.421,t1_Paradigm,2021.1.4,59.942637811852876,
N,right,Target,0,45,45,45,528.8418990045902,530.841998132295,right,1,1,0.4082403035281459,K17R10,2022-12-08_10h40.38.421,t1_Paradigm,2021.1.4,59.942637811852876,
X,left,Distractor,0,46,46,46,532.34182955102,534.3439718644076,left,1,1,0.5062965342804091,K17R10,2022-12-08_10h40.38.421,t1_Paradigm,2021.1.4,59.942637811852876,
Z,left,Distractor,0,47,47,47,535.8417395661672,537.8438591026352,right,0,1,0.4306229550857097,K17R10,2022-12-08_10h40.38.421,t1_Paradigm,2021.1.4,59.942637811852876,
H,left,Pretarget,0,48,48,48,539.3418452703045,541.3438592630264,left,1,1,0.7383660481573315,K17R10,2022-12-08_10h40.38.421,t1_Paradigm,2021.1.4,59.942637811852876,
H,right,Target,0,49,49,49,542.8418313154398,544.8418021224934,right,1,1,0.7764487322128844,K17R10,2022-12-08_10h40.38.421,t1_Paradigm,2021.1.4,59.942637811852876,
K,left,Distractor,0,50,50,50,546.3419681373343,548.3433847973938,left,1,1,0.5708129530830774,K17R10,2022-12-08_10h40.38.421,t1_Paradigm,2021.1.4,59.942637811852876,
V,left,Pretarget,0,51,51,51,549.8418361274671,551.8442289869272,left,1,1,0.5258696050441358,K17R10,2022-12-08_10h40.38.421,t1_Paradigm,2021.1.4,59.942637811852876,
V,right,Target,0,52,52,52,553.3418420622911,555.3417711651273,right,1,1,0.43622062298527453,K17R10,2022-12-08_10h40.38.421,t1_Paradigm,2021.1.4,59.942637811852876,
R,left,Distractor,0,53,53,53,556.8419628441043,558.8426150338491,left,1,1,0.5034661013633013,K17R10,2022-12-08_10h40.38.421,t1_Paradigm,2021.1.4,59.942637811852876,
V,left,Lure,0,54,54,54,560.3418831249,562.3434207271785,left,1,1,0.4907087823667098,K17R10,2022-12-08_10h40.38.421,t1_Paradigm,2021.1.4,59.942637811852876,
Y,left,Distractor,0,55,55,55,563.8419413504016,565.8431847775792,left,1,1,0.7989520051924046,K17R10,2022-12-08_10h40.38.421,t1_Paradigm,2021.1.4,59.942637811852876,
Q,left,Distractor,0,56,56,56,567.341885049711,569.3436221906159,left,1,1,0.5148269708297448,K17R10,2022-12-08_10h40.38.421,t1_Paradigm,2021.1.4,59.942637811852876,
Z,left,Pretarget,0,57,57,57,570.8417787039652,572.8436897193606,left,1,1,0.40651631548826117,K17R10,2022-12-08_10h40.38.421,t1_Paradigm,2021.1.4,59.942637811852876,
Z,right,Target,0,58,58,58,574.3418799168867,576.3419918766594,right,1,1,0.540174791982281,K17R10,2022-12-08_10h40.38.421,t1_Paradigm,2021.1.4,59.942637811852876,
B,left,Distractor,0,59,59,59,577.8418589043722,579.8429300610733,left,1,1,0.511276017408818,K17R10,2022-12-08_10h40.38.421,t1_Paradigm,2021.1.4,59.942637811852876,
S,left,Pretarget,0,60,60,60,581.3417981124658,583.343606792143,left,1,1,0.4182964726933278,K17R10,2022-12-08_10h40.38.421,t1_Paradigm,2021.1.4,59.942637811852876,
S,right,Target,0,61,61,61,584.8418576211698,586.8418396562774,right,1,1,0.5042613686528057,K17R10,2022-12-08_10h40.38.421,t1_Paradigm,2021.1.4,59.942637811852876,
T,left,Distractor,0,62,62,62,588.3416723582195,590.3437431328348,left,1,1,0.49045534906326793,K17R10,2022-12-08_10h40.38.421,t1_Paradigm,2021.1.4,59.942637811852876,
D,left,Distractor,0,63,63,63,591.84169176672,593.843584496426,left,1,1,0.5264666169096017,K17R10,2022-12-08_10h40.38.421,t1_Paradigm,2021.1.4,59.942637811852876,
R,left,Distractor,0,0,0,0,617.23676444593,619.2268876048911,None,0,1,,K17R10,2022-12-08_10h40.38.421,t1_Paradigm,2021.1.4,59.942637811852876,
V,left,Distractor,0,1,1,1,620.7249626346311,622.7241785954102,left,1,1,0.3660892130137654,K17R10,2022-12-08_10h40.38.421,t1_Paradigm,2021.1.4,59.942637811852876,
N,left,Pretarget,0,2,2,2,624.2250526194839,626.2266447580478,left,1,1,0.5115480571985245,K17R10,2022-12-08_10h40.38.421,t1_Paradigm,2021.1.4,59.942637811852876,
N,right,Target,0,3,3,3,627.7249286296574,629.7250437974435,right,1,1,0.48498054819356184,K17R10,2022-12-08_10h40.38.421,t1_Paradigm,2021.1.4,59.942637811852876,
S,left,Distractor,0,4,4,4,631.2251215918368,633.2272581307916,left,1,1,0.4228727081499528,K17R10,2022-12-08_10h40.38.421,t1_Paradigm,2021.1.4,59.942637811852876,
N,left,Lure,0,5,5,5,634.7250338525919,636.7272650280356,left,1,1,0.39491452400397975,K17R10,2022-12-08_10h40.38.421,t1_Paradigm,2021.1.4,59.942637811852876,
Z,left,Distractor,0,6,6,6,638.2250625643355,640.2267685874831,left,1,1,0.5114287190081086,K17R10,2022-12-08_10h40.38.421,t1_Paradigm,2021.1.4,59.942637811852876,
L,left,Pretarget,0,7,7,7,641.7249356872926,643.7268890484993,left,1,1,0.6113058198970975,K17R10,2022-12-08_10h40.38.421,t1_Paradigm,2021.1.4,59.942637811852876,
L,right,Target,0,8,8,8,645.225063526741,647.2249509253597,right,1,1,0.47306405029667076,K17R10,2022-12-08_10h40.38.421,t1_Paradigm,2021.1.4,59.942637811852876,
H,left,Distractor,0,9,9,9,648.7249299128598,650.7264790640038,left,1,1,0.5395931786042638,K17R10,2022-12-08_10h40.38.421,t1_Paradigm,2021.1.4,59.942637811852876,
L,left,Lure,0,10,10,10,652.2249214116164,654.227340256024,left,1,1,0.5108458224131027,K17R10,2022-12-08_10h40.38.421,t1_Paradigm,2021.1.4,59.942637811852876,
X,left,Pretarget,0,11,11,11,655.7249154767778,657.7264630239224,left,1,1,0.49971432612801436,K17R10,2022-12-08_10h40.38.421,t1_Paradigm,2021.1.4,59.942637811852876,
X,right,Target,0,12,12,12,659.2250195769157,661.2249380933063,right,1,1,0.6652675437508151,K17R10,2022-12-08_10h40.38.421,t1_Paradigm,2021.1.4,59.942637811852876,
X,right,Target,0,13,13,13,662.7249475569552,664.7250989753229,right,1,1,0.5089607919508126,K17R10,2022-12-08_10h40.38.421,t1_Paradigm,2021.1.4,59.942637811852876,
R,left,Distractor,0,14,14,14,666.2250189353217,668.2269293091085,left,1,1,0.4791980985464761,K17R10,2022-12-08_10h40.38.421,t1_Paradigm,2021.1.4,59.942637811852876,
T,left,Distractor,0,15,15,15,669.7250607999304,671.7271832236147,left,1,1,0.43511963174387347,K17R10,2022-12-08_10h40.38.421,t1_Paradigm,2021.1.4,59.942637811852876,
V,left,Pretarget,0,16,16,16,673.2249352060899,675.2269139106356,left,1,1,0.47110844346752856,K17R10,2022-12-08_10h40.38.421,t1_Paradigm,2021.1.4,59.942637811852876,
V,right,Target,0,17,17,17,676.7249802787119,678.725018454119,right,1,1,0.46110905619570985,K17R10,2022-12-08_10h40.38.421,t1_Paradigm,2021.1.4,59.942637811852876,
N,left,Distractor,0,18,18,18,680.2249891007668,682.2263015002973,left,1,1,0.4318378309108084,K17R10,2022-12-08_10h40.38.421,t1_Paradigm,2021.1.4,59.942637811852876,
B,left,Distractor,0,19,19,19,683.7250280781591,685.7273128274828,left,1,1,0.41866475298593286,K17R10,2022-12-08_10h40.38.421,t1_Paradigm,2021.1.4,59.942637811852876,
V,left,Lure,0,20,20,20,687.2249028051156,689.2269796749752,left,1,1,0.42310528934467584,K17R10,2022-12-08_10h40.38.421,t1_Paradigm,2021.1.4,59.942637811852876,
P,left,Distractor,0,21,21,21,690.7249767499015,692.7261672448076,left,1,1,0.4760282575007295,K17R10,2022-12-08_10h40.38.421,t1_Paradigm,2021.1.4,59.942637811852876,
K,left,Pretarget,0,22,22,22,694.2248854818317,696.2270290784218,left,1,1,0.35087487420241814,K17R10,2022-12-08_10h40.38.421,t1_Paradigm,2021.1.4,59.942637811852876,
K,right,Target,0,23,23,23,697.7250412310241,699.7249212512106,right,1,1,0.3730737064179266,K17R10,2022-12-08_10h40.38.421,t1_Paradigm,2021.1.4,59.942637811852876,
J,left,Pretarget,0,24,24,24,701.2249932711857,703.226627113967,left,1,1,0.4392801082722144,K17R10,2022-12-08_10h40.38.421,t1_Paradigm,2021.1.4,59.942637811852876,
J,right,Target,0,25,25,25,704.7248814718041,706.7249789955094,left,0,1,0.46108146726328414,K17R10,2022-12-08_10h40.38.421,t1_Paradigm,2021.1.4,59.942637811852876,
H,left,Distractor,0,26,26,26,708.2249926295772,710.2270300408272,left,1,1,0.5432567333773477,K17R10,2022-12-08_10h40.38.421,t1_Paradigm,2021.1.4,59.942637811852876,
J,left,Lure,0,27,27,27,711.7249430657248,713.7271729579661,left,1,1,0.7869014122115914,K17R10,2022-12-08_10h40.38.421,t1_Paradigm,2021.1.4,59.942637811852876,
V,left,Distractor,0,28,28,28,715.2250317673752,717.2263951743662,left,1,1,0.48760759286233224,K17R10,2022-12-08_10h40.38.421,t1_Paradigm,2021.1.4,59.942637811852876,
Z,left,Pretarget,0,29,29,29,718.7251198274316,720.7270151235571,left,1,1,0.5070536261773668,K17R10,2022-12-08_10h40.38.421,t1_Paradigm,2021.1.4,59.942637811852876,
Z,right,Target,0,30,30,30,722.2249249404267,724.2249223740218,right,1,1,0.6250499247544212,K17R10,2022-12-08_10h40.38.421,t1_Paradigm,2021.1.4,59.942637811852876,
T,left,Distractor,0,31,31,31,725.7249180431972,727.7269041261752,left,1,1,0.5313845061027678,K17R10,2022-12-08_10h40.38.421,t1_Paradigm,2021.1.4,59.942637811852876,
Z,left,Lure,0,32,32,32,729.2250131608889,731.2269443867845,left,1,1,0.5031112947617657,K17R10,2022-12-08_10h40.38.421,t1_Paradigm,2021.1.4,59.942637811852876,
F,left,Distractor,0,33,33,33,732.7249084191426,734.7270773590717,left,1,1,0.5549021538899979,K17R10,2022-12-08_10h40.38.421,t1_Paradigm,2021.1.4,59.942637811852876,
Y,left,Pretarget,0,34,34,34,736.2249153163866,738.2273194039153,left,1,1,0.5107749252492795,K17R10,2022-12-08_10h40.38.421,t1_Paradigm,2021.1.4,59.942637811852876,
Y,right,Target,0,35,35,35,739.7249433865218,741.7250848600524,right,1,1,0.5970468283776427,K17R10,2022-12-08_10h40.38.421,t1_Paradigm,2021.1.4,59.942637811852876,
Y,right,Target,0,36,36,36,743.2249846095365,745.224905371535,left,0,1,0.7132989284145879,K17R10,2022-12-08_10h40.38.421,t1_Paradigm,2021.1.4,59.942637811852876,
W,left,Distractor,0,37,37,37,746.7249003991019,748.7273500404699,left,1,1,0.4906529628788121,K17R10,2022-12-08_10h40.38.421,t1_Paradigm,2021.1.4,59.942637811852876,
Q,left,Distractor,0,38,38,38,750.2248723289667,752.2267865523754,left,1,1,0.4473078486334998,K17R10,2022-12-08_10h40.38.421,t1_Paradigm,2021.1.4,59.942637811852876,
P,left,Pretarget,0,39,39,39,753.7250104340783,755.7264925376658,left,1,1,0.48339418406249024,K17R10,2022-12-08_10h40.38.421,t1_Paradigm,2021.1.4,59.942637811852876,
P,right,Target,0,40,40,40,757.2249336020759,759.225036900214,right,1,1,0.5048397740029031,K17R10,2022-12-08_10h40.38.421,t1_Paradigm,2021.1.4,59.942637811852876,
J,left,Distractor,0,41,41,41,760.7248923790612,762.7271716747491,left,1,1,0.5068367642525118,K17R10,2022-12-08_10h40.38.421,t1_Paradigm,2021.1.4,59.942637811852876,
P,left,Lure,0,42,42,42,764.2248023942084,766.2272135393723,left,1,1,0.6867763316404307,K17R10,2022-12-08_10h40.38.421,t1_Paradigm,2021.1.4,59.942637811852876,
L,left,Distractor,0,43,43,43,767.7250607999304,769.7272207573988,left,1,1,0.46662459887738805,K17R10,2022-12-08_10h40.38.421,t1_Paradigm,2021.1.4,59.942637811852876,
Z,left,Distractor,0,44,44,44,771.2248806698044,773.2271853088168,left,1,1,0.4547013641567901,K17R10,2022-12-08_10h40.38.421,t1_Paradigm,2021.1.4,59.942637811852876,
F,left,Pretarget,0,45,45,45,774.7247903641401,776.7268714044185,left,1,1,0.3791455191530986,K17R10,2022-12-08_10h40.38.421,t1_Paradigm,2021.1.4,59.942637811852876,
F,right,Target,0,46,46,46,778.2247825045051,780.2249066547374,right,1,1,0.5769216579938075,K17R10,2022-12-08_10h40.38.421,t1_Paradigm,2021.1.4,59.942637811852876,
G,left,Pretarget,0,47,47,47,781.7248538828717,783.7268771788367,left,1,1,0.5631820443522884,K17R10,2022-12-08_10h40.38.421,t1_Paradigm,2021.1.4,59.942637811852876,
G,right,Target,0,48,48,48,785.2250420330383,787.224864629723,right,1,1,0.40910197675111704,K17R10,2022-12-08_10h40.38.421,t1_Paradigm,2021.1.4,59.942637811852876,
V,left,Distractor,0,49,49,49,788.7248291811411,790.7240409715014,left,1,1,0.42994189319142606,K17R10,2022-12-08_10h40.38.421,t1_Paradigm,2021.1.4,59.942637811852876,
G,left,Lure,0,50,50,50,792.2247574819776,794.2269232138788,left,1,1,0.6230667289928533,K17R10,2022-12-08_10h40.38.421,t1_Paradigm,2021.1.4,59.942637811852876,
Q,left,Pretarget,0,51,51,51,795.7248602988984,797.7251560780132,left,1,1,0.5487915241683368,K17R10,2022-12-08_10h40.38.421,t1_Paradigm,2021.1.4,59.942637811852876,
Q,right,Target,0,52,52,52,799.2248501936556,801.2249005595077,right,1,1,0.793051821339759,K17R10,2022-12-08_10h40.38.421,t1_Paradigm,2021.1.4,59.942637811852876,
Y,left,Distractor,0,53,53,53,802.7247422438959,804.7266689785756,left,1,1,0.5872671902470756,K17R10,2022-12-08_10h40.38.421,t1_Paradigm,2021.1.4,59.942637811852876,
V,left,Distractor,0,54,54,54,806.2250038576312,808.2273097798607,left,1,1,0.622650328441523,K17R10,2022-12-08_10h40.38.421,t1_Paradigm,2021.1.4,59.942637811852876,
B,left,Distractor,0,55,55,55,809.7249032863183,811.7245972415549,left,1,1,0.4692554931680206,K17R10,2022-12-08_10h40.38.421,t1_Paradigm,2021.1.4,59.942637811852876,
J,left,Pretarget,0,56,56,56,813.2249031259271,815.2269610684743,left,1,1,0.5028559366328409,K17R10,2022-12-08_10h40.38.421,t1_Paradigm,2021.1.4,59.942637811852876,
J,right,Target,0,57,57,57,816.7248073666269,818.7248785846023,right,1,1,0.4771478552283952,K17R10,2022-12-08_10h40.38.421,t1_Paradigm,2021.1.4,59.942637811852876,
H,left,Distractor,0,58,58,58,820.2247045497061,822.2267628130503,left,1,1,0.4471403901698068,K17R10,2022-12-08_10h40.38.421,t1_Paradigm,2021.1.4,59.942637811852876,
J,left,Lure,0,59,59,59,823.7248805093986,825.7269301111082,left,1,1,0.5951146400620928,K17R10,2022-12-08_10h40.38.421,t1_Paradigm,2021.1.4,59.942637811852876,
D,left,Pretarget,0,60,60,60,827.2247844293161,829.2264570890839,left,1,1,0.6794963799184188,K17R10,2022-12-08_10h40.38.421,t1_Paradigm,2021.1.4,59.942637811852876,
D,right,Target,0,61,61,61,830.7249661634414,832.7249363288865,right,1,1,0.5409630016220035,K17R10,2022-12-08_10h40.38.421,t1_Paradigm,2021.1.4,59.942637811852876,
R,left,Distractor,0,62,62,62,834.2246782439615,836.2267563970236,left,1,1,0.5750218706525629,K17R10,2022-12-08_10h40.38.421,t1_Paradigm,2021.1.4,59.942637811852876,
F,left,Distractor,0,63,63,63,837.7246899532329,839.7267597654427,left,1,1,0.5632519790960941,K17R10,2022-12-08_10h40.38.421,t1_Paradigm,2021.1.4,59.942637811852876,
F,left,Distractor,0,0,0,0,968.8382020864228,970.8412634965207,None,0,2,,K17R10,2022-12-08_10h40.38.421,t1_Paradigm,2021.1.4,59.942637811852876,
N,left,Pretarget,0,1,1,1,972.3412675065483,974.343328336312,None,0,2,,K17R10,2022-12-08_10h40.38.421,t1_Paradigm,2021.1.4,59.942637811852876,
V,left,Distractor,0,2,2,2,975.8413526793884,977.8438424209453,left,1,2,0.4461962709465297,K17R10,2022-12-08_10h40.38.421,t1_Paradigm,2021.1.4,59.942637811852876,
N,right,Target,0,3,3,3,979.3413441781449,981.3433260907041,right,1,2,0.5944531470740912,K17R10,2022-12-08_10h40.38.421,t1_Paradigm,2021.1.4,59.942637811852876,
N,left,Lure,0,4,4,4,982.8412079978443,984.8580090215837,left,1,2,0.791721777713974,K17R10,2022-12-08_10h40.38.421,t1_Paradigm,2021.1.4,59.942637811852876,
X,left,Distractor,0,5,5,5,986.3411917973572,988.3433562460559,left,1,2,0.5063443337276112,K17R10,2022-12-08_10h40.38.421,t1_Paradigm,2021.1.4,59.942637811852876,
G,left,Pretarget,0,6,6,6,989.8412266043306,991.8430753842113,left,1,2,0.542558027402265,K17R10,2022-12-08_10h40.38.421,t1_Paradigm,2021.1.4,59.942637811852876,
H,left,Pretarget,0,7,7,7,993.3410727799492,995.3431608778483,left,1,2,0.7225566222914495,K17R10,2022-12-08_10h40.38.421,t1_Paradigm,2021.1.4,59.942637811852876,
G,right,Target,0,8,8,8,996.8414469950658,998.8433814289892,right,1,2,0.646583414360066,K17R10,2022-12-08_10h40.38.421,t1_Paradigm,2021.1.4,59.942637811852876,
H,right,Target,0,9,9,9,1000.3413230052247,1002.3431859003758,right,1,2,0.4422536187194055,K17R10,2022-12-08_10h40.38.421,t1_Paradigm,2021.1.4,59.942637811852876,
T,left,Pretarget,0,10,10,10,1003.8412763285887,1005.8439091476903,left,1,2,0.605830056607374,K17R10,2022-12-08_10h40.38.421,t1_Paradigm,2021.1.4,59.942637811852876,
K,left,Distractor,0,11,11,11,1007.3413384037121,1009.3429526775872,left,1,2,0.5145183596323477,K17R10,2022-12-08_10h40.38.421,t1_Paradigm,2021.1.4,59.942637811852876,
T,right,Target,0,12,12,12,1010.8411284390313,1012.8433769377589,right,1,2,0.8703306919633178,K17R10,2022-12-08_10h40.38.421,t1_Paradigm,2021.1.4,59.942637811852876,
T,left,Lure,0,13,13,13,1014.3412190654926,1016.3412854714406,left,1,2,0.47633815187145956,K17R10,2022-12-08_10h40.38.421,t1_Paradigm,2021.1.4,59.942637811852876,
J,left,Distractor,0,14,14,14,1017.8412368699937,1019.8433570480556,left,1,2,0.43045966705540195,K17R10,2022-12-08_10h40.38.421,t1_Paradigm,2021.1.4,59.942637811852876,
Q,left,Pretarget,0,15,15,15,1021.341249541656,1023.3432584015536,left,1,2,0.4823159697407391,K17R10,2022-12-08_10h40.38.421,t1_Paradigm,2021.1.4,59.942637811852876,
M,left,Distractor,0,16,16,16,1024.8412169802905,1026.8438366465125,left,1,2,0.4697976479510544,K17R10,2022-12-08_10h40.38.421,t1_Paradigm,2021.1.4,59.942637811852876,
Q,right,Target,0,17,17,17,1028.3411112761387,1030.343131684902,right,1,2,0.7625827227166155,K17R10,2022-12-08_10h40.38.421,t1_Paradigm,2021.1.4,59.942637811852876,
R,left,Distractor,0,18,18,18,1031.8414059324568,1033.8424655402923,left,1,2,0.8632544492720626,K17R10,2022-12-08_10h40.38.421,t1_Paradigm,2021.1.4,59.942637811852876,
W,left,Distractor,0,19,19,19,1035.3413605390233,1037.3432673839998,left,1,2,0.6105811289744452,K17R10,2022-12-08_10h40.38.421,t1_Paradigm,2021.1.4,59.942637811852876,
C,left,Pretarget,0,20,20,20,1038.8411018124898,1040.843107464374,left,1,2,0.9342395124403993,K17R10,2022-12-08_10h40.38.421,t1_Paradigm,2021.1.4,59.942637811852876,
T,left,Distractor,0,21,21,21,1042.3411407898966,1044.3432571183512,left,1,2,0.7145436388091184,K17R10,2022-12-08_10h40.38.421,t1_Paradigm,2021.1.4,59.942637811852876,
C,right,Target,0,22,22,22,1045.8411942033708,1047.8433291383117,right,1,2,0.4304590254469076,K17R10,2022-12-08_10h40.38.421,t1_Paradigm,2021.1.4,59.942637811852876,
F,left,Pretarget,0,23,23,23,1049.341089461639,1051.343354642042,left,1,2,0.6743000348651549,K17R10,2022-12-08_10h40.38.421,t1_Paradigm,2021.1.4,59.942637811852876,
C,right,Target,0,24,24,24,1052.8410783939762,1054.8430038454535,right,1,2,0.4545845923421439,K17R10,2022-12-08_10h40.38.421,t1_Paradigm,2021.1.4,59.942637811852876,
F,right,Target,0,25,25,25,1056.3411603588029,1058.342943695141,right,1,2,0.6345992273127194,K17R10,2022-12-08_10h40.38.421,t1_Paradigm,2021.1.4,59.942637811852876,
H,left,Distractor,0,26,26,26,1059.841108228531,1061.842976898115,left,1,2,0.7825247153668897,K17R10,2022-12-08_10h40.38.421,t1_Paradigm,2021.1.4,59.942637811852876,
H,left,Lure,0,27,27,27,1063.3412338223716,1065.3412466544396,left,1,2,0.5804694033868145,K17R10,2022-12-08_10h40.38.421,t1_Paradigm,2021.1.4,59.942637811852876,
P,left,Distractor,0,28,28,28,1066.8412464940338,1068.8538902492583,right,0,2,0.7637982401356567,K17R10,2022-12-08_10h40.38.421,t1_Paradigm,2021.1.4,59.942637811852876,
G,left,Pretarget,0,29,29,29,1070.3411366194778,1072.343302030582,left,1,2,0.6662216078548227,K17R10,2022-12-08_10h40.38.421,t1_Paradigm,2021.1.4,59.942637811852876,
K,left,Distractor,0,30,30,30,1073.8413116167649,1075.8419121574552,left,1,2,0.5435871590743773,K17R10,2022-12-08_10h40.38.421,t1_Paradigm,2021.1.4,59.942637811852876,
G,right,Target,0,31,31,31,1077.3412261231279,1079.342466021495,right,1,2,0.5312048571940977,K17R10,2022-12-08_10h40.38.421,t1_Paradigm,2021.1.4,59.942637811852876,
M,left,Pretarget,0,32,32,32,1080.8411091909365,1082.84333587515,left,1,2,0.5501738584425766,K17R10,2022-12-08_10h40.38.421,t1_Paradigm,2021.1.4,59.942637811852876,
B,left,Distractor,0,33,33,33,1084.3409912963252,1086.343010742683,left,1,2,0.522632395644905,K17R10,2022-12-08_10h40.38.421,t1_Paradigm,2021.1.4,59.942637811852876,
M,right,Target,0,34,34,34,1087.8411018124898,1089.843187343984,right,1,2,1.390460193171748,K17R10,2022-12-08_10h40.38.421,t1_Paradigm,2021.1.4,59.942637811852876,
M,left,Lure,0,35,35,35,1091.3412136118714,1093.3410240180965,left,1,2,1.0606433805369306,K17R10,2022-12-08_10h40.38.421,t1_Paradigm,2021.1.4,59.942637811852876,
T,left,Distractor,0,36,36,36,1094.8411066245171,1096.8431427525647,left,1,2,1.3984054875036236,K17R10,2022-12-08_10h40.38.421,t1_Paradigm,2021.1.4,59.942637811852876,
F,left,Distractor,0,37,37,37,1098.3411613211938,1100.343142592159,left,1,2,0.8586535120848566,K17R10,2022-12-08_10h40.38.421,t1_Paradigm,2021.1.4,59.942637811852876,
X,left,Distractor,0,38,38,38,1101.8412339827773,1103.8433769377589,left,1,2,0.5260251938307192,K17R10,2022-12-08_10h40.38.421,t1_Paradigm,2021.1.4,59.942637811852876,
C,left,Distractor,0,39,39,39,1105.3411622835993,1107.342906802951,left,1,2,0.5947672118927585,K17R10,2022-12-08_10h40.38.421,t1_Paradigm,2021.1.4,59.942637811852876,
R,left,Distractor,0,40,40,40,1108.841136138275,1110.8430070534669,left,1,2,0.6149536554003134,K17R10,2022-12-08_10h40.38.421,t1_Paradigm,2021.1.4,59.942637811852876,
B,left,Pretarget,0,41,41,41,1112.340837632335,1114.3429109733697,left,1,2,0.6505687331955414,K17R10,2022-12-08_10h40.38.421,t1_Paradigm,2021.1.4,59.942637811852876,
H,left,Distractor,0,42,42,42,1115.84088334658,1117.8430368880217,left,1,2,0.47862739241099916,K17R10,2022-12-08_10h40.38.421,t1_Paradigm,2021.1.4,59.942637811852876,
B,right,Target,0,43,43,43,1119.341026905313,1121.3431987324439,right,1,2,0.6105038157693343,K17R10,2022-12-08_10h40.38.421,t1_Paradigm,2021.1.4,59.942637811852876,
W,left,Pretarget,0,44,44,44,1122.8409959479468,1124.8428614095174,left,1,2,0.5665764465520624,K17R10,2022-12-08_10h40.38.421,t1_Paradigm,2021.1.4,59.942637811852876,
L,left,Pretarget,0,45,45,45,1126.3412771305884,1128.3419280371309,left,1,2,0.6995949237752939,K17R10,2022-12-08_10h40.38.421,t1_Paradigm,2021.1.4,59.942637811852876,
W,right,Target,0,46,46,46,1129.8411043789092,1131.8438841251627,left,0,2,0.6536878875922412,K17R10,2022-12-08_10h40.38.421,t1_Paradigm,2021.1.4,59.942637811852876,
L,right,Target,0,47,47,47,1133.3410256221105,1135.342785539935,right,1,2,0.5628407113981666,K17R10,2022-12-08_10h40.38.421,t1_Paradigm,2021.1.4,59.942637811852876,
W,right,Target,0,48,48,48,1136.8410613914893,1138.843482481505,right,1,2,0.5499518637079746,K17R10,2022-12-08_10h40.38.421,t1_Paradigm,2021.1.4,59.942637811852876,
X,left,Distractor,0,49,49,49,1140.3410573814617,1142.3417820723844,left,1,2,0.6036851768149063,K17R10,2022-12-08_10h40.38.421,t1_Paradigm,2021.1.4,59.942637811852876,
R,left,Distractor,0,50,50,50,1143.840963546987,1145.8433047573926,left,1,2,0.6541703732655151,K17R10,2022-12-08_10h40.38.421,t1_Paradigm,2021.1.4,59.942637811852876,
V,left,Pretarget,0,51,51,51,1147.3411404690996,1149.3431842963764,left,1,2,0.5465738223865628,K17R10,2022-12-08_10h40.38.421,t1_Paradigm,2021.1.4,59.942637811852876,
Z,left,Distractor,0,52,52,52,1150.8408239982673,1152.8434872935322,left,1,2,0.6461596353910863,K17R10,2022-12-08_10h40.38.421,t1_Paradigm,2021.1.4,59.942637811852876,
V,right,Target,0,53,53,53,1154.3408286498889,1156.3432420406752,right,1,2,0.4420309823763091,K17R10,2022-12-08_10h40.38.421,t1_Paradigm,2021.1.4,59.942637811852876,
V,left,Lure,0,54,54,54,1157.8411178525712,1159.840989852717,left,1,2,0.512951243610587,K17R10,2022-12-08_10h40.38.421,t1_Paradigm,2021.1.4,59.942637811852876,
N,left,Distractor,0,55,55,55,1161.341049361421,1163.3432109229034,left,1,2,0.674333719041897,K17R10,2022-12-08_10h40.38.421,t1_Paradigm,2021.1.4,59.942637811852876,
B,left,Distractor,0,56,56,56,1164.8410074968124,1166.8430583817244,left,1,2,0.6465786023472901,K17R10,2022-12-08_10h40.38.421,t1_Paradigm,2021.1.4,59.942637811852876,
V,left,Lure,0,57,57,57,1168.3411690204375,1170.3431191736454,left,1,2,0.9064314634597395,K17R10,2022-12-08_10h40.38.421,t1_Paradigm,2021.1.4,59.942637811852876,
J,left,Distractor,0,58,58,58,1171.840948790108,1173.8433220806764,left,1,2,0.7341138223564485,K17R10,2022-12-08_10h40.38.421,t1_Paradigm,2021.1.4,59.942637811852876,
H,left,Distractor,0,59,59,59,1175.3409406096762,1177.3431782011467,left,1,2,0.9306003385718213,K17R10,2022-12-08_10h40.38.421,t1_Paradigm,2021.1.4,59.942637811852876,
X,left,Pretarget,0,60,60,60,1178.8409016322694,1180.8429319858842,left,1,2,1.4306758873572107,K17R10,2022-12-08_10h40.38.421,t1_Paradigm,2021.1.4,59.942637811852876,
P,left,Distractor,0,61,61,61,1182.3410952360573,1184.3430848478602,left,1,2,0.8104697466333164,K17R10,2022-12-08_10h40.38.421,t1_Paradigm,2021.1.4,59.942637811852876,
X,right,Target,0,62,62,62,1185.841151536748,1187.8424819011707,right,1,2,1.054975457067485,K17R10,2022-12-08_10h40.38.421,t1_Paradigm,2021.1.4,59.942637811852876,
Q,left,Distractor,0,63,63,63,1189.3410288301238,1191.3431364969292,left,1,2,0.5944489766552579,K17R10,2022-12-08_10h40.38.421,t1_Paradigm,2021.1.4,59.942637811852876,
B,left,Pretarget,0,0,0,0,1240.0163920016494,1242.0094861046382,None,0,2,,K17R10,2022-12-08_10h40.38.421,t1_Paradigm,2021.1.4,59.942637811852876,
F,left,Distractor,0,1,1,1,1243.5076836805965,1245.5096909364802,None,0,2,,K17R10,2022-12-08_10h40.38.421,t1_Paradigm,2021.1.4,59.942637811852876,
B,right,Target,0,2,2,2,1247.0075914501213,1249.010322755319,right,1,2,0.7667614849488018,K17R10,2022-12-08_10h40.38.421,t1_Paradigm,2021.1.4,59.942637811852876,
V,left,Distractor,0,3,3,3,1250.5076676405151,1252.5098680189985,left,1,2,0.5314778593892697,K17R10,2022-12-08_10h40.38.421,t1_Paradigm,2021.1.4,59.942637811852876,
G,left,Pretarget,0,4,4,4,1254.0075927333237,1256.009770655699,left,1,2,0.6154868277226342,K17R10,2022-12-08_10h40.38.421,t1_Paradigm,2021.1.4,59.942637811852876,
B,left,Lure,0,5,5,5,1257.507617916257,1259.5097842897667,left,1,2,0.699496437664493,K17R10,2022-12-08_10h40.38.421,t1_Paradigm,2021.1.4,59.942637811852876,
G,right,Target,0,6,6,6,1261.0077207331778,1263.0097202898323,right,1,2,0.36760211356158834,K17R10,2022-12-08_10h40.38.421,t1_Paradigm,2021.1.4,59.942637811852876,
Y,left,Pretarget,0,7,7,7,1264.507712552746,1266.5097887809825,left,1,2,0.48350999344256707,K17R10,2022-12-08_10h40.38.421,t1_Paradigm,2021.1.4,59.942637811852876,
P,left,Distractor,0,8,8,8,1268.0075574451475,1270.0081355297152,left,1,2,0.7293733364349464,K17R10,2022-12-08_10h40.38.421,t1_Paradigm,2021.1.4,59.942637811852876,
Y,right,Target,0,9,9,9,1271.507575249634,1273.5082633691636,right,1,2,0.6530087505088886,K17R10,2022-12-08_10h40.38.421,t1_Paradigm,2021.1.4,59.942637811852876,
X,left,Distractor,0,10,10,10,1275.0075282522012,1277.0081413041335,left,1,2,0.4973249954782659,K17R10,2022-12-08_10h40.38.421,t1_Paradigm,2021.1.4,59.942637811852876,
Y,right,Target,0,11,11,11,1278.5075646631885,1280.5097579840367,right,1,2,0.6116837242298061,K17R10,2022-12-08_10h40.38.421,t1_Paradigm,2021.1.4,59.942637811852876,
N,left,Distractor,0,12,12,12,1282.0066486140859,1284.0097632772522,left,1,2,0.7437904831604101,K17R10,2022-12-08_10h40.38.421,t1_Paradigm,2021.1.4,59.942637811852876,
Y,right,Target,0,13,13,13,1285.5076191994594,1287.5094894730573,right,1,2,0.6198211787414039,K17R10,2022-12-08_10h40.38.421,t1_Paradigm,2021.1.4,59.942637811852876,
Y,left,Lure,0,14,14,14,1289.0067307393037,1291.0073505280889,left,1,2,0.785930024823756,K17R10,2022-12-08_10h40.38.421,t1_Paradigm,2021.1.4,59.942637811852876,
K,left,Distractor,0,15,15,15,1292.507536432633,1294.509681633237,left,1,2,0.7236088516947348,K17R10,2022-12-08_10h40.38.421,t1_Paradigm,2021.1.4,59.942637811852876,
T,left,Pretarget,0,16,16,16,1296.0075263273902,1298.0097831669555,left,1,2,0.7916601837932831,K17R10,2022-12-08_10h40.38.421,t1_Paradigm,2021.1.4,59.942637811852876,
J,left,Distractor,0,17,17,17,1299.5075999513647,1301.5098099539027,left,1,2,0.5555995766771957,K17R10,2022-12-08_10h40.38.421,t1_Paradigm,2021.1.4,59.942637811852876,
T,right,Target,0,18,18,18,1303.0075988285535,1305.0097488411848,right,1,2,0.4476427655608859,K17R10,2022-12-08_10h40.38.421,t1_Paradigm,2021.1.4,59.942637811852876,
S,left,Pretarget,0,19,19,19,1306.507448853794,1308.5096485906688,left,1,2,0.7716825821698876,K17R10,2022-12-08_10h40.38.421,t1_Paradigm,2021.1.4,59.942637811852876,
R,left,Distractor,0,20,20,20,1310.007521515363,1312.009330515837,left,1,2,0.9199676888529211,K17R10,2022-12-08_10h40.38.421,t1_Paradigm,2021.1.4,59.942637811852876,
S,right,Target,0,21,21,21,1313.5075553599308,1315.5095042299217,right,1,2,0.7640975480753696,K17R10,2022-12-08_10h40.38.421,t1_Paradigm,2021.1.4,59.942637811852876,
Q,left,Distractor,0,22,22,22,1317.0075150993362,1319.0092467866052,left,1,2,0.8801812272577081,K17R10,2022-12-08_10h40.38.421,t1_Paradigm,2021.1.4,59.942637811852876,
D,left,Distractor,0,23,23,23,1320.5073901470896,1322.5066186191398,left,1,2,0.9346450057055335,K17R10,2022-12-08_10h40.38.421,t1_Paradigm,2021.1.4,59.942637811852876,
F,left,Distractor,0,24,24,24,1324.0076440615958,1326.00977258051,left,1,2,0.9994684316770872,K17R10,2022-12-08_10h40.38.421,t1_Paradigm,2021.1.4,59.942637811852876,
Z,left,Distractor,0,25,25,25,1327.5074716307136,1329.5082152489194,left,1,2,0.7170006586093223,K17R10,2022-12-08_10h40.38.421,t1_Paradigm,2021.1.4,59.942637811852876,
P,left,Distractor,0,26,26,26,1331.0075622571749,1333.0096529214934,left,1,2,0.7673944265843602,K17R10,2022-12-08_10h40.38.421,t1_Paradigm,2021.1.4,59.942637811852876,
H,left,Distractor,0,27,27,27,1334.507338818832,1336.5096415330336,None,0,2,,K17R10,2022-12-08_10h40.38.421,t1_Paradigm,2021.1.4,59.942637811852876,
Z,left,Pretarget,0,28,28,28,1338.00739896913,1340.0093257038097,left,1,2,0.7121273608208867,K17R10,2022-12-08_10h40.38.421,t1_Paradigm,2021.1.4,59.942637811852876,
J,left,Pretarget,0,29,29,29,1341.5075422070659,1343.5092100548209,left,1,2,0.812188281051931,K17R10,2022-12-08_10h40.38.421,t1_Paradigm,2021.1.4,59.942637811852876,
Z,right,Target,0,30,30,30,1345.0076684425148,1347.0096137836954,right,1,2,0.8315865149052115,K17R10,2022-12-08_10h40.38.421,t1_Paradigm,2021.1.4,59.942637811852876,
J,right,Target,0,31,31,31,1348.5074398713477,1350.5097015229403,right,1,2,0.5315150723763509,K17R10,2022-12-08_10h40.38.421,t1_Paradigm,2021.1.4,59.942637811852876,
V,left,Pretarget,0,32,32,32,1352.007292462993,1354.0079504271562,left,1,2,1.0012039685680065,K17R10,2022-12-08_10h40.38.421,t1_Paradigm,2021.1.4,59.942637811852876,
Z,left,Lure,0,33,33,33,1355.5075325830257,1357.5097047309537,left,1,2,0.539632316402276,K17R10,2022-12-08_10h40.38.421,t1_Paradigm,2021.1.4,59.942637811852876,
V,right,Target,0,34,34,34,1359.0074903976056,1361.0100414122862,right,1,2,0.623302197389421,K17R10,2022-12-08_10h40.38.421,t1_Paradigm,2021.1.4,59.942637811852876,
X,left,Distractor,0,35,35,35,1362.5073420268454,1364.5095594078157,left,1,2,0.5958447846060153,K17R10,2022-12-08_10h40.38.421,t1_Paradigm,2021.1.4,59.942637811852876,
S,left,Distractor,0,36,36,36,1366.0076052445947,1368.0089141153003,left,1,2,1.0964432400942314,K17R10,2022-12-08_10h40.38.421,t1_Paradigm,2021.1.4,59.942637811852876,
Q,left,Distractor,0,37,37,37,1369.507337214818,1371.5094169718795,left,1,2,1.2597540542192291,K17R10,2022-12-08_10h40.38.421,t1_Paradigm,2021.1.4,59.942637811852876,
P,left,Distractor,0,38,38,38,1373.0074621670647,1375.0095656634367,left,1,2,1.0077419060980901,K17R10,2022-12-08_10h40.38.421,t1_Paradigm,2021.1.4,59.942637811852876,
S,left,Lure,0,39,39,39,1376.507431851307,1378.5093727012572,left,1,2,0.6280385128775379,K17R10,2022-12-08_10h40.38.421,t1_Paradigm,2021.1.4,59.942637811852876,
K,left,Pretarget,0,40,40,40,1380.0074326533068,1382.009081894561,left,1,2,0.9840686695097247,K17R10,2022-12-08_10h40.38.421,t1_Paradigm,2021.1.4,59.942637811852876,
L,left,Distractor,0,41,41,41,1383.5071970245044,1385.5088456241501,left,1,2,0.652410455440986,K17R10,2022-12-08_10h40.38.421,t1_Paradigm,2021.1.4,59.942637811852876,
K,right,Target,0,42,42,42,1387.0065318422858,1389.0098088310915,right,1,2,0.6714721683820244,K17R10,2022-12-08_10h40.38.421,t1_Paradigm,2021.1.4,59.942637811852876,
B,left,Distractor,0,43,43,43,1390.5074437209696,1392.5090733933175,left,1,2,0.6123230819066521,K17R10,2022-12-08_10h40.38.421,t1_Paradigm,2021.1.4,59.942637811852876,
N,left,Distractor,0,44,44,44,1394.0074095555901,1396.0100577731646,left,1,2,0.9191454742540373,K17R10,2022-12-08_10h40.38.421,t1_Paradigm,2021.1.4,59.942637811852876,
S,left,Pretarget,0,45,45,45,1397.5073041722499,1399.508808411163,left,1,2,0.5724670063500525,K17R10,2022-12-08_10h40.38.421,t1_Paradigm,2021.1.4,59.942637811852876,
Z,left,Distractor,0,46,46,46,1401.0074817359564,1403.0096121796814,left,1,2,0.5116824730939697,K17R10,2022-12-08_10h40.38.421,t1_Paradigm,2021.1.4,59.942637811852876,
S,right,Target,0,47,47,47,1404.507376673413,1406.5096418538305,right,1,2,0.4195123109238921,K17R10,2022-12-08_10h40.38.421,t1_Paradigm,2021.1.4,59.942637811852876,
C,left,Distractor,0,48,48,48,1408.0074589590367,1410.0096253325464,left,1,2,0.5036495999229373,K17R10,2022-12-08_10h40.38.421,t1_Paradigm,2021.1.4,59.942637811852876,
T,left,Pretarget,0,49,49,49,1411.5073946383054,1413.5096870868729,left,1,2,0.6034833925805287,K17R10,2022-12-08_10h40.38.421,t1_Paradigm,2021.1.4,59.942637811852876,
S,left,Lure,0,50,50,50,1415.0071529142733,1417.009091197804,left,1,2,0.656157097851974,K17R10,2022-12-08_10h40.38.421,t1_Paradigm,2021.1.4,59.942637811852876,
T,right,Target,0,51,51,51,1418.507402658346,1420.5088129023788,right,1,2,0.42030950300977565,K17R10,2022-12-08_10h40.38.421,t1_Paradigm,2021.1.4,59.942637811852876,
N,left,Pretarget,0,52,52,52,1422.0073761922104,1424.0079247630347,left,1,2,0.6332271586870775,K17R10,2022-12-08_10h40.38.421,t1_Paradigm,2021.1.4,59.942637811852876,
B,left,Distractor,0,53,53,53,1425.507218839004,1427.5094990970974,left,1,2,0.44375978244352154,K17R10,2022-12-08_10h40.38.421,t1_Paradigm,2021.1.4,59.942637811852876,
N,right,Target,0,54,54,54,1429.0073428288451,1431.0094966910838,left,0,2,0.5596031812019646,K17R10,2022-12-08_10h40.38.421,t1_Paradigm,2021.1.4,59.942637811852876,
N,left,Lure,0,55,55,55,1432.506412664472,1434.5072002325178,left,1,2,0.9661393863934791,K17R10,2022-12-08_10h40.38.421,t1_Paradigm,2021.1.4,59.942637811852876,
X,left,Distractor,0,56,56,56,1436.007424954063,1438.0097498035902,left,1,2,0.7912059286754811,K17R10,2022-12-08_10h40.38.421,t1_Paradigm,2021.1.4,59.942637811852876,
W,left,Distractor,0,57,57,57,1439.5074238312664,1441.5089845312614,left,1,2,0.4760869641904719,K17R10,2022-12-08_10h40.38.421,t1_Paradigm,2021.1.4,59.942637811852876,
S,left,Distractor,0,58,58,58,1443.007343149642,1445.0091386764543,left,1,2,1.0080671989562688,K17R10,2022-12-08_10h40.38.421,t1_Paradigm,2021.1.4,59.942637811852876,
L,left,Distractor,0,59,59,59,1446.5073846934683,1448.5089129925036,left,1,2,0.7562953312735772,K17R10,2022-12-08_10h40.38.421,t1_Paradigm,2021.1.4,59.942637811852876,
K,left,Pretarget,0,60,60,60,1450.0074721119163,1452.0094453628262,left,1,2,0.5836379612301243,K17R10,2022-12-08_10h40.38.421,t1_Paradigm,2021.1.4,59.942637811852876,
V,left,Pretarget,0,61,61,61,1453.5073442724533,1455.5095045507333,left,1,2,0.49192975342157297,K17R10,2022-12-08_10h40.38.421,t1_Paradigm,2021.1.4,59.942637811852876,
K,right,Target,0,62,62,62,1457.0073931947118,1459.0096449014527,right,1,2,0.7512632366706384,K17R10,2022-12-08_10h40.38.421,t1_Paradigm,2021.1.4,59.942637811852876,
V,right,Target,0,63,63,63,1460.5073888638872,1462.509616189709,right,1,2,0.46747664804570377,K17R10,2022-12-08_10h40.38.421,t1_Paradigm,2021.1.4,59.942637811852876,
R,left,Distractor,0,0,0,0,1598.0171468479093,1600.009170756617,None,0,3,,K17R10,2022-12-08_10h40.38.421,t1_Paradigm,2021.1.4,59.942637811852876,
P,left,Lure,0,1,1,1,1601.5069490448222,1603.5091378744546,None,0,3,,K17R10,2022-12-08_10h40.38.421,t1_Paradigm,2021.1.4,59.942637811852876,
V,left,Distractor,0,2,2,2,1605.0073194103315,1607.0091024258727,None,0,3,,K17R10,2022-12-08_10h40.38.421,t1_Paradigm,2021.1.4,59.942637811852876,
P,left,Pretarget,0,3,3,3,1608.507218839004,1610.50970761817,left,1,3,0.6433449217583984,K17R10,2022-12-08_10h40.38.421,t1_Paradigm,2021.1.4,59.942637811852876,
Z,left,Distractor,0,4,4,4,1612.0071099268534,1614.0092034783884,left,1,3,0.8557095153955743,K17R10,2022-12-08_10h40.38.421,t1_Paradigm,2021.1.4,59.942637811852876,
L,left,Pretarget,0,5,5,5,1615.5071100872592,1617.509391949352,left,1,3,0.6835352726193378,K17R10,2022-12-08_10h40.38.421,t1_Paradigm,2021.1.4,59.942637811852876,
P,right,Target,0,6,6,6,1619.0071959016932,1621.0085647623055,right,1,3,0.5602627493790351,K17R10,2022-12-08_10h40.38.421,t1_Paradigm,2021.1.4,59.942637811852876,
S,left,Distractor,0,7,7,7,1622.5070873103396,1624.5090159698302,left,1,3,0.6758527148340363,K17R10,2022-12-08_10h40.38.421,t1_Paradigm,2021.1.4,59.942637811852876,
L,right,Target,0,8,8,8,1626.007119871705,1628.009544169734,left,0,3,0.7275001756497659,K17R10,2022-12-08_10h40.38.421,t1_Paradigm,2021.1.4,59.942637811852876,
D,left,Distractor,0,9,9,9,1629.5071222777187,1631.5091442904813,left,1,3,0.5398594439757289,K17R10,2022-12-08_10h40.38.421,t1_Paradigm,2021.1.4,59.942637811852876,
G,left,Distractor,0,10,10,10,1633.0072347186942,1635.009172681428,left,1,3,1.1677394808357349,K17R10,2022-12-08_10h40.38.421,t1_Paradigm,2021.1.4,59.942637811852876,
M,left,Pretarget,0,11,11,11,1636.5071219569072,1638.5091892027122,left,1,3,0.48370054963743314,K17R10,2022-12-08_10h40.38.421,t1_Paradigm,2021.1.4,59.942637811852876,
Y,left,Distractor,0,12,12,12,1640.00693637316,1642.0085711783468,left,1,3,0.4883701383660082,K17R10,2022-12-08_10h40.38.421,t1_Paradigm,2021.1.4,59.942637811852876,
V,left,Distractor,0,13,13,13,1643.5071636611247,1645.5090961702372,left,1,3,1.227996295390767,K17R10,2022-12-08_10h40.38.421,t1_Paradigm,2021.1.4,59.942637811852876,
M,right,Target,0,14,14,14,1647.007163179922,1649.0083058753808,left,0,3,0.688633452373324,K17R10,2022-12-08_10h40.38.421,t1_Paradigm,2021.1.4,59.942637811852876,
S,left,Pretarget,0,15,15,15,1650.5071614155167,1652.5091221551702,left,1,3,0.9478989256749628,K17R10,2022-12-08_10h40.38.421,t1_Paradigm,2021.1.4,59.942637811852876,
Q,left,Distractor,0,16,16,16,1654.0070512201492,1656.0087338247831,left,1,3,0.7920769051270327,K17R10,2022-12-08_10h40.38.421,t1_Paradigm,2021.1.4,59.942637811852876,
R,left,Pretarget,0,17,17,17,1657.5071447338269,1659.508944431058,left,1,3,0.8440958542487351,K17R10,2022-12-08_10h40.38.421,t1_Paradigm,2021.1.4,59.942637811852876,
S,right,Target,0,18,18,18,1661.007124042124,1663.009187759104,left,0,3,1.0717578743206104,K17R10,2022-12-08_10h40.38.421,t1_Paradigm,2021.1.4,59.942637811852876,
F,left,Distractor,0,19,19,19,1664.5071235609212,1666.5092013931717,left,1,3,0.5316151625011116,K17R10,2022-12-08_10h40.38.421,t1_Paradigm,2021.1.4,59.942637811852876,
R,right,Target,0,20,20,20,1668.0068212053739,1670.0092955484579,right,1,3,0.45570194446190726,K17R10,2022-12-08_10h40.38.421,t1_Paradigm,2021.1.4,59.942637811852876,
P,left,Distractor,0,21,21,21,1671.5071091248537,1673.50804329924,left,1,3,1.4208247104543261,K17R10,2022-12-08_10h40.38.421,t1_Paradigm,2021.1.4,59.942637811852876,
L,left,Distractor,0,22,22,22,1675.0070967739885,1677.009187438307,left,1,3,0.639796534756897,K17R10,2022-12-08_10h40.38.421,t1_Paradigm,2021.1.4,59.942637811852876,
R,right,Target,0,23,23,23,1678.506980483391,1680.509033613911,right,1,3,0.6757660983857932,K17R10,2022-12-08_10h40.38.421,t1_Paradigm,2021.1.4,59.942637811852876,
H,left,Pretarget,0,24,24,24,1682.00705314496,1684.0090174134384,left,1,3,0.5997762087790761,K17R10,2022-12-08_10h40.38.421,t1_Paradigm,2021.1.4,59.942637811852876,
G,left,Pretarget,0,25,25,25,1685.507220763815,1687.5094907562598,left,1,3,0.5394587627088185,K17R10,2022-12-08_10h40.38.421,t1_Paradigm,2021.1.4,59.942637811852876,
T,left,Distractor,0,26,26,26,1689.0070335760538,1691.0091473381035,left,1,3,0.5118034153274493,K17R10,2022-12-08_10h40.38.421,t1_Paradigm,2021.1.4,59.942637811852876,
H,right,Target,0,27,27,27,1692.5070824983122,1694.5093415835,right,1,3,0.3555287436611252,K17R10,2022-12-08_10h40.38.421,t1_Paradigm,2021.1.4,59.942637811852876,
G,right,Target,0,28,28,28,1696.0070525033516,1698.008591709644,right,1,3,0.7123807941243285,K17R10,2022-12-08_10h40.38.421,t1_Paradigm,2021.1.4,59.942637811852876,
D,left,Distractor,0,29,29,29,1699.5071652651386,1701.5090862253855,left,1,3,0.651737734398921,K17R10,2022-12-08_10h40.38.421,t1_Paradigm,2021.1.4,59.942637811852876,
N,left,Pretarget,0,30,30,30,1703.007052824163,1705.0084887323173,left,1,3,0.6404599525703816,K17R10,2022-12-08_10h40.38.421,t1_Paradigm,2021.1.4,59.942637811852876,
V,left,Distractor,0,31,31,31,1706.5069448744034,1708.507470668308,left,1,3,0.5975046123203356,K17R10,2022-12-08_10h40.38.421,t1_Paradigm,2021.1.4,59.942637811852876,
R,left,Distractor,0,32,32,32,1710.0070037415135,1712.0088172332034,left,1,3,0.5999564992962405,K17R10,2022-12-08_10h40.38.421,t1_Paradigm,2021.1.4,59.942637811852876,
N,right,Target,0,33,33,33,1713.5070542677713,1715.5092921800388,left,0,3,0.6994820015825098,K17R10,2022-12-08_10h40.38.421,t1_Paradigm,2021.1.4,59.942637811852876,
Z,left,Distractor,0,34,34,34,1717.0070746386773,1719.0090571928304,left,1,3,0.6078825455333572,K17R10,2022-12-08_10h40.38.421,t1_Paradigm,2021.1.4,59.942637811852876,
N,left,Lure,0,35,35,35,1720.5070388692839,1722.5094128014607,left,1,3,0.8034534938633442,K17R10,2022-12-08_10h40.38.421,t1_Paradigm,2021.1.4,59.942637811852876,
Y,left,Pretarget,0,36,36,36,1724.0070480121358,1726.0092037991853,left,1,3,0.7596910166903399,K17R10,2022-12-08_10h40.38.421,t1_Paradigm,2021.1.4,59.942637811852876,
Y,left,Lure,0,37,37,37,1727.507153074679,1729.5071485834487,left,1,3,0.701638430240564,K17R10,2022-12-08_10h40.38.421,t1_Paradigm,2021.1.4,59.942637811852876,
B,left,Distractor,0,38,38,38,1731.0070557113795,1733.008286948083,left,1,3,0.7682840095512802,K17R10,2022-12-08_10h40.38.421,t1_Paradigm,2021.1.4,59.942637811852876,
Y,right,Target,0,39,39,39,1734.5069599520793,1736.5090037793561,right,1,3,0.4198145060800016,K17R10,2022-12-08_10h40.38.421,t1_Paradigm,2021.1.4,59.942637811852876,
J,left,Distractor,0,40,40,40,1738.0068834408885,1740.0092015535774,left,1,3,0.6797918382362695,K17R10,2022-12-08_10h40.38.421,t1_Paradigm,2021.1.4,59.942637811852876,
X,left,Distractor,0,41,41,41,1741.5070946887718,1743.5092661951057,left,1,3,0.6834954932128312,K17R10,2022-12-08_10h40.38.421,t1_Paradigm,2021.1.4,59.942637811852876,
W,left,Pretarget,0,42,42,42,1745.0070714306494,1747.0088368021097,left,1,3,0.719938239271869,K17R10,2022-12-08_10h40.38.421,t1_Paradigm,2021.1.4,59.942637811852876,
S,left,Pretarget,0,43,43,43,1748.5069535360526,1750.5084545669524,left,1,3,0.5485015194717562,K17R10,2022-12-08_10h40.38.421,t1_Paradigm,2021.1.4,59.942637811852876,
R,left,Distractor,0,44,44,44,1752.0071439318272,1754.009252240241,left,1,3,0.5355286217672983,K17R10,2022-12-08_10h40.38.421,t1_Paradigm,2021.1.4,59.942637811852876,
W,right,Target,0,45,45,45,1755.5069474408228,1757.5093688516354,right,1,3,0.5554831256740727,K17R10,2022-12-08_10h40.38.421,t1_Paradigm,2021.1.4,59.942637811852876,
S,right,Target,0,46,46,46,1759.0069960422697,1761.0091681902122,right,1,3,0.9276691739505623,K17R10,2022-12-08_10h40.38.421,t1_Paradigm,2021.1.4,59.942637811852876,
D,left,Distractor,0,47,47,47,1762.5069997314858,1764.5088895739755,right,0,3,0.8678858626226429,K17R10,2022-12-08_10h40.38.421,t1_Paradigm,2021.1.4,59.942637811852876,
T,left,Distractor,0,48,48,48,1766.0068503983202,1768.0086587572005,left,1,3,0.9201091623835964,K17R10,2022-12-08_10h40.38.421,t1_Paradigm,2021.1.4,59.942637811852876,
S,right,Target,0,49,49,49,1769.5070693454472,1771.5095298940578,None,0,3,,K17R10,2022-12-08_10h40.38.421,t1_Paradigm,2021.1.4,59.942637811852876,
K,left,Distractor,0,50,50,50,1773.0070560321765,1775.0084284216136,left,1,3,0.5602210451615974,K17R10,2022-12-08_10h40.38.421,t1_Paradigm,2021.1.4,59.942637811852876,
S,left,Lure,0,51,51,51,1776.5069798417826,1778.508819960014,left,1,3,0.996077237490681,K17R10,2022-12-08_10h40.38.421,t1_Paradigm,2021.1.4,59.942637811852876,
T,left,Pretarget,0,52,52,52,1780.007105435623,1782.008405323897,left,1,3,0.7921247045887867,K17R10,2022-12-08_10h40.38.421,t1_Paradigm,2021.1.4,59.942637811852876,
V,left,Distractor,0,53,53,53,1783.5069557816605,1785.5090653732768,left,1,3,0.47560319531476125,K17R10,2022-12-08_10h40.38.421,t1_Paradigm,2021.1.4,59.942637811852876,
B,left,Distractor,0,54,54,54,1787.0069152002543,1789.0089599899366,None,0,3,,K17R10,2022-12-08_10h40.38.421,t1_Paradigm,2021.1.4,59.942637811852876,
T,right,Target,0,55,55,55,1790.506914077443,1792.5089649623696,right,1,3,0.9799569548340514,K17R10,2022-12-08_10h40.38.421,t1_Paradigm,2021.1.4,59.942637811852876,
Y,left,Pretarget,0,56,56,56,1794.006977114972,1796.0094302851503,left,1,3,0.6474964158551302,K17R10,2022-12-08_10h40.38.421,t1_Paradigm,2021.1.4,59.942637811852876,
T,left,Lure,0,57,57,57,1797.5069913906482,1799.5089851728699,left,1,3,0.8442828816041583,K17R10,2022-12-08_10h40.38.421,t1_Paradigm,2021.1.4,59.942637811852876,
P,left,Pretarget,0,58,58,58,1801.0068000324682,1803.0074647334695,left,1,3,0.4012603013543412,K17R10,2022-12-08_10h40.38.421,t1_Paradigm,2021.1.4,59.942637811852876,
Y,right,Target,0,59,59,59,1804.5068986789702,1806.5094496936508,left,0,3,0.8992365241574589,K17R10,2022-12-08_10h40.38.421,t1_Paradigm,2021.1.4,59.942637811852876,
R,left,Distractor,0,60,60,60,1808.0067981076572,1810.0084633889928,left,1,3,0.6964138546463801,K17R10,2022-12-08_10h40.38.421,t1_Paradigm,2021.1.4,59.942637811852876,
P,right,Target,0,61,61,61,1811.5068983581732,1813.508689393755,right,1,3,0.3961255502217682,K17R10,2022-12-08_10h40.38.421,t1_Paradigm,2021.1.4,59.942637811852876,
L,left,Distractor,0,62,62,62,1815.0068760624563,1817.0060981184652,left,1,3,0.4352145890297834,K17R10,2022-12-08_10h40.38.421,t1_Paradigm,2021.1.4,59.942637811852876,
V,left,Distractor,0,63,63,63,1818.506876864456,1820.5089755488152,left,1,3,0.4517140592215583,K17R10,2022-12-08_10h40.38.421,t1_Paradigm,2021.1.4,59.942637811852876,
H,left,Lure,0,0,0,0,1841.0384583427804,1843.04276831288,None,0,3,,K17R10,2022-12-08_10h40.38.421,t1_Paradigm,2021.1.4,59.942637811852876,
B,left,Distractor,0,1,1,1,1844.5401411078055,1846.5424810350087,None,0,3,,K17R10,2022-12-08_10h40.38.421,t1_Paradigm,2021.1.4,59.942637811852876,
T,left,Distractor,0,2,2,2,1848.0401836140227,1850.0420391307416,None,0,3,,K17R10,2022-12-08_10h40.38.421,t1_Paradigm,2021.1.4,59.942637811852876,
R,left,Distractor,0,3,3,3,1851.5399884062208,1853.542129757203,left,1,3,0.5705322516296292,K17R10,2022-12-08_10h40.38.421,t1_Paradigm,2021.1.4,59.942637811852876,
H,left,Pretarget,0,4,4,4,1855.0398676244076,1857.0422271205025,left,1,3,0.4310056714602979,K17R10,2022-12-08_10h40.38.421,t1_Paradigm,2021.1.4,59.942637811852876,
K,left,Distractor,0,5,5,5,1858.54022002501,1860.5419478626718,left,1,3,0.4026881894678809,K17R10,2022-12-08_10h40.38.421,t1_Paradigm,2021.1.4,59.942637811852876,
G,left,Distractor,0,6,6,6,1862.0400498397357,1864.0425386189017,left,1,3,0.42221570637775585,K17R10,2022-12-08_10h40.38.421,t1_Paradigm,2021.1.4,59.942637811852876,
H,right,Target,0,7,7,7,1865.5400933083583,1867.541958449132,left,0,3,0.7948903355718357,K17R10,2022-12-08_10h40.38.421,t1_Paradigm,2021.1.4,59.942637811852876,
Y,left,Pretarget,0,8,8,8,1869.040160516306,1871.042573265484,left,1,3,0.5584033830382396,K17R10,2022-12-08_10h40.38.421,t1_Paradigm,2021.1.4,59.942637811852876,
S,left,Distractor,0,9,9,9,1872.54005064175,1874.542365546411,left,1,3,0.38627180689945817,K17R10,2022-12-08_10h40.38.421,t1_Paradigm,2021.1.4,59.942637811852876,
P,left,Distractor,0,10,10,10,1876.040030270844,1878.0421658473933,left,1,3,0.40658111742231995,K17R10,2022-12-08_10h40.38.421,t1_Paradigm,2021.1.4,59.942637811852876,
Y,right,Target,0,11,11,11,1879.5401982104959,1881.5423536767485,left,0,3,0.60227557439066,K17R10,2022-12-08_10h40.38.421,t1_Paradigm,2021.1.4,59.942637811852876,
H,left,Lure,0,12,12,12,1883.0400167971675,1885.041828364061,left,1,3,0.5427453755692113,K17R10,2022-12-08_10h40.38.421,t1_Paradigm,2021.1.4,59.942637811852876,
Q,left,Distractor,0,13,13,13,1886.5403287767695,1888.5420338375116,left,1,3,0.4345935170422308,K17R10,2022-12-08_10h40.38.421,t1_Paradigm,2021.1.4,59.942637811852876,
V,left,Pretarget,0,14,14,14,1890.040147684238,1892.0413186102523,left,1,3,0.4233978604461299,K17R10,2022-12-08_10h40.38.421,t1_Paradigm,2021.1.4,59.942637811852876,
G,left,Distractor,0,15,15,15,1893.5400942707638,1895.5424746189674,left,1,3,0.4260634013044182,K17R10,2022-12-08_10h40.38.421,t1_Paradigm,2021.1.4,59.942637811852876,
Z,left,Pretarget,0,16,16,16,1897.040081919913,1899.0421485241095,left,1,3,0.4626575657457579,K17R10,2022-12-08_10h40.38.421,t1_Paradigm,2021.1.4,59.942637811852876,
V,right,Target,0,17,17,17,1900.540223233038,1902.5415712415415,left,0,3,0.46702078889939,K17R10,2022-12-08_10h40.38.421,t1_Paradigm,2021.1.4,59.942637811852876,
N,left,Distractor,0,18,18,18,1904.0400899399538,1906.042449115237,left,1,3,0.5021376617514761,K17R10,2022-12-08_10h40.38.421,t1_Paradigm,2021.1.4,59.942637811852876,
Z,right,Target,0,19,19,19,1907.5400775890885,1909.5423867193167,left,0,3,0.28202827481436543,K17R10,2022-12-08_10h40.38.421,t1_Paradigm,2021.1.4,59.942637811852876,
R,left,Distractor,0,20,20,20,1911.0401050176297,1913.0423166241671,left,1,3,0.3982454074721318,K17R10,2022-12-08_10h40.38.421,t1_Paradigm,2021.1.4,59.942637811852876,
P,left,Distractor,0,21,21,21,1914.5400586617907,1916.5420935066213,left,1,3,0.5626633080828469,K17R10,2022-12-08_10h40.38.421,t1_Paradigm,2021.1.4,59.942637811852876,
Z,right,Target,0,22,22,22,1918.040067483831,1920.0418261184532,left,0,3,0.4868027015327243,K17R10,2022-12-08_10h40.38.421,t1_Paradigm,2021.1.4,59.942637811852876,
D,left,Pretarget,0,23,23,23,1921.5398417998804,1923.5420521232008,left,1,3,0.5865213264041813,K17R10,2022-12-08_10h40.38.421,t1_Paradigm,2021.1.4,59.942637811852876,
K,left,Distractor,0,24,24,24,1925.0399702809373,1927.0418739179004,left,1,3,0.3986675824417034,K17R10,2022-12-08_10h40.38.421,t1_Paradigm,2021.1.4,59.942637811852876,
W,left,Distractor,0,25,25,25,1928.540073097858,1930.5421695366094,left,1,3,0.43441611372691114,K17R10,2022-12-08_10h40.38.421,t1_Paradigm,2021.1.4,59.942637811852876,
D,right,Target,0,26,26,26,1932.0402185814019,1934.0420349603228,left,0,3,0.6627053010161035,K17R10,2022-12-08_10h40.38.421,t1_Paradigm,2021.1.4,59.942637811852876,
G,left,Pretarget,0,27,27,27,1935.5400981203857,1937.5423677920335,left,1,3,0.3944990858726669,K17R10,2022-12-08_10h40.38.421,t1_Paradigm,2021.1.4,59.942637811852876,
V,left,Distractor,0,28,28,28,1939.0400591429934,1941.0419441734557,left,1,3,0.4308462330373004,K17R10,2022-12-08_10h40.38.421,t1_Paradigm,2021.1.4,59.942637811852876,
D,right,Target,0,29,29,29,1942.540010220735,1944.5422773259634,right,1,3,0.3862977918324759,K17R10,2022-12-08_10h40.38.421,t1_Paradigm,2021.1.4,59.942637811852876,
G,right,Target,0,30,30,30,1946.0400662006286,1948.0420817973645,right,1,3,0.42254452807537746,K17R10,2022-12-08_10h40.38.421,t1_Paradigm,2021.1.4,59.942637811852876,
B,left,Pretarget,0,31,31,31,1949.5400891379395,1951.5422301681247,left,1,3,0.4904418753867503,K17R10,2022-12-08_10h40.38.421,t1_Paradigm,2021.1.4,59.942637811852876,
N,left,Distractor,0,32,32,32,1953.0402115237666,1955.0415720435412,left,1,3,0.4151401053095469,K17R10,2022-12-08_10h40.38.421,t1_Paradigm,2021.1.4,59.942637811852876,
F,left,Distractor,0,33,33,33,1956.540050962547,1958.5412940689275,left,1,3,0.4192463663639501,K17R10,2022-12-08_10h40.38.421,t1_Paradigm,2021.1.4,59.942637811852876,
B,right,Target,0,34,34,34,1960.0400998848054,1962.0421437120822,right,1,3,0.7581935146008618,K17R10,2022-12-08_10h40.38.421,t1_Paradigm,2021.1.4,59.942637811852876,
Q,left,Pretarget,0,35,35,35,1963.539199875784,1965.5404433029616,left,1,3,0.5881003121030517,K17R10,2022-12-08_10h40.38.421,t1_Paradigm,2021.1.4,59.942637811852876,
S,left,Pretarget,0,36,36,36,1967.0401412682113,1969.0420218074578,left,1,3,0.3825209940550849,K17R10,2022-12-08_10h40.38.421,t1_Paradigm,2021.1.4,59.942637811852876,
W,left,Distractor,0,37,37,37,1970.5399765365728,1972.5421355316357,left,1,3,0.3704601354111219,K17R10,2022-12-08_10h40.38.421,t1_Paradigm,2021.1.4,59.942637811852876,
Q,right,Target,0,38,38,38,1974.0399965866673,1976.0422014563665,right,1,3,0.3904252257780172,K17R10,2022-12-08_10h40.38.421,t1_Paradigm,2021.1.4,59.942637811852876,
S,right,Target,0,39,39,39,1977.539995463856,1979.5417072614364,right,1,3,0.3949883083841996,K17R10,2022-12-08_10h40.38.421,t1_Paradigm,2021.1.4,59.942637811852876,
T,left,Distractor,0,40,40,40,1981.0400148723566,1983.0420089753898,left,1,3,0.41466756448789965,K17R10,2022-12-08_10h40.38.421,t1_Paradigm,2021.1.4,59.942637811852876,
G,left,Distractor,0,41,41,41,1984.54000765433,1986.5423847945203,left,1,3,0.33820962527533993,K17R10,2022-12-08_10h40.38.421,t1_Paradigm,2021.1.4,59.942637811852876,
D,left,Distractor,0,42,42,42,1988.0399256895034,1990.0424645137246,left,1,3,0.5660095900384476,K17R10,2022-12-08_10h40.38.421,t1_Paradigm,2021.1.4,59.942637811852876,
S,left,Lure,0,43,43,43,1991.5401058196294,1993.5415863192175,right,0,3,0.5389948835363612,K17R10,2022-12-08_10h40.38.421,t1_Paradigm,2021.1.4,59.942637811852876,
Z,left,Pretarget,0,44,44,44,1995.0399853586132,1997.0419948601193,left,1,3,0.39848119669477455,K17R10,2022-12-08_10h40.38.421,t1_Paradigm,2021.1.4,59.942637811852876,
J,left,Distractor,0,45,45,45,1998.540012145546,2000.541943371456,left,1,3,0.48256715742172673,K17R10,2022-12-08_10h40.38.421,t1_Paradigm,2021.1.4,59.942637811852876,
M,left,Pretarget,0,46,46,46,2002.0399433335988,2004.0419153013063,left,1,3,0.42275144513405394,K17R10,2022-12-08_10h40.38.421,t1_Paradigm,2021.1.4,59.942637811852876,
Z,right,Target,0,47,47,47,2005.539930341125,2007.5422102784214,left,0,3,0.49039054712920915,K17R10,2022-12-08_10h40.38.421,t1_Paradigm,2021.1.4,59.942637811852876,
P,left,Distractor,0,48,48,48,2009.0399311431393,2011.042362177992,left,1,3,0.5583979294169694,K17R10,2022-12-08_10h40.38.421,t1_Paradigm,2021.1.4,59.942637811852876,
M,right,Target,0,49,49,49,2012.5400945915753,2014.5406851873995,right,1,3,0.35570582617947366,K17R10,2022-12-08_10h40.38.421,t1_Paradigm,2021.1.4,59.942637811852876,
K,left,Distractor,0,50,50,50,2016.0400604261959,2018.041484785499,left,1,3,0.47103594228974544,K17R10,2022-12-08_10h40.38.421,t1_Paradigm,2021.1.4,59.942637811852876,
Y,left,Distractor,0,51,51,51,2019.5400269024249,2021.5421223787707,left,1,3,0.44229307732894085,K17R10,2022-12-08_10h40.38.421,t1_Paradigm,2021.1.4,59.942637811852876,
X,left,Distractor,0,52,52,52,2023.0398717948265,2025.0405438742746,left,1,3,0.43205725924053695,K17R10,2022-12-08_10h40.38.421,t1_Paradigm,2021.1.4,59.942637811852876,
F,left,Pretarget,0,53,53,53,2026.5399486268288,2028.5419353514153,left,1,3,0.43452422389236744,K17R10,2022-12-08_10h40.38.421,t1_Paradigm,2021.1.4,59.942637811852876,
M,left,Lure,0,54,54,54,2030.0398666620022,2032.0420971958374,left,1,3,0.37447625120694283,K17R10,2022-12-08_10h40.38.421,t1_Paradigm,2021.1.4,59.942637811852876,
V,left,Distractor,0,55,55,55,2033.5399746117619,2035.5420540480118,left,1,3,0.3625648861343507,K17R10,2022-12-08_10h40.38.421,t1_Paradigm,2021.1.4,59.942637811852876,
F,right,Target,0,56,56,56,2037.0399596944771,2039.0392818406108,right,1,3,0.5615129133948358,K17R10,2022-12-08_10h40.38.421,t1_Paradigm,2021.1.4,59.942637811852876,
S,left,Distractor,0,57,57,57,2040.5398161357443,2042.541652083557,left,1,3,0.9149856393050868,K17R10,2022-12-08_10h40.38.421,t1_Paradigm,2021.1.4,59.942637811852876,
D,left,Distractor,0,58,58,58,2044.039896496557,2046.041497938364,left,1,3,0.5189454223436769,K17R10,2022-12-08_10h40.38.421,t1_Paradigm,2021.1.4,59.942637811852876,
F,right,Target,0,59,59,59,2047.5400464713312,2049.540513558517,right,1,3,0.571985162285273,K17R10,2022-12-08_10h40.38.421,t1_Paradigm,2021.1.4,59.942637811852876,
V,left,Pretarget,0,60,60,60,2051.0399195942737,2053.0421790002583,left,1,3,0.5585852775839157,K17R10,2022-12-08_10h40.38.421,t1_Paradigm,2021.1.4,59.942637811852876,
J,left,Distractor,0,61,61,61,2054.539859123164,2056.541451582525,left,1,3,0.49896108388202265,K17R10,2022-12-08_10h40.38.421,t1_Paradigm,2021.1.4,59.942637811852876,
V,left,Lure,0,62,62,62,2058.040043744506,2060.042149807312,left,1,3,0.4223671247600578,K17R10,2022-12-08_10h40.38.421,t1_Paradigm,2021.1.4,59.942637811852876,
V,right,Target,0,63,63,63,2061.5396332788077,2063.5399534388416,right,1,3,0.6044717824552208,K17R10,2022-12-08_10h40.38.421,t1_Paradigm,2021.1.4,59.942637811852876,
R,left,Distractor,0,0,0,0,2165.4309017317137,2167.4251433421887,None,0,4,,K17R10,2022-12-08_10h40.38.421,t1_Paradigm,2021.1.4,59.942637811852876,
F,left,Distractor,0,1,1,1,2168.9229402368946,2170.9253366251796,None,0,4,,K17R10,2022-12-08_10h40.38.421,t1_Paradigm,2021.1.4,59.942637811852876,
P,left,Pretarget,0,2,2,2,2172.423082512425,2174.4252806453005,None,0,4,,K17R10,2022-12-08_10h40.38.421,t1_Paradigm,2021.1.4,59.942637811852876,
H,left,Distractor,0,3,3,3,2175.9230743319786,2177.925060414971,None,0,4,,K17R10,2022-12-08_10h40.38.421,t1_Paradigm,2021.1.4,59.942637811852876,
Z,left,Distractor,0,4,4,4,2179.4230764171953,2181.4250859187014,left,1,4,0.41568803451082204,K17R10,2022-12-08_10h40.38.421,t1_Paradigm,2021.1.4,59.942637811852876,
T,left,Distractor,0,5,5,5,2182.9231365675078,2184.924952625617,left,1,4,0.4833220036816783,K17R10,2022-12-08_10h40.38.421,t1_Paradigm,2021.1.4,59.942637811852876,
P,right,Target,0,6,6,6,2186.4230789836147,2188.425365336938,right,1,4,0.5509659177187132,K17R10,2022-12-08_10h40.38.421,t1_Paradigm,2021.1.4,59.942637811852876,
G,left,Distractor,0,7,7,7,2189.9229684674356,2191.925033146821,left,1,4,0.4592060608410975,K17R10,2022-12-08_10h40.38.421,t1_Paradigm,2021.1.4,59.942637811852876,
L,left,Distractor,0,8,8,8,2193.4230529986817,2195.4252065401233,left,1,4,0.46336685816640966,K17R10,2022-12-08_10h40.38.421,t1_Paradigm,2021.1.4,59.942637811852876,
P,left,Lure,0,9,9,9,2196.922913289556,2198.924959041644,left,1,4,0.9317189739231253,K17R10,2022-12-08_10h40.38.421,t1_Paradigm,2021.1.4,59.942637811852876,
Q,left,Pretarget,0,10,10,10,2200.423098873318,2202.425233808259,left,1,4,0.4229060715151718,K17R10,2022-12-08_10h40.38.421,t1_Paradigm,2021.1.4,59.942637811852876,
D,left,Distractor,0,11,11,11,2203.923007926045,2205.9251637130947,right,0,4,0.7312647829530761,K17R10,2022-12-08_10h40.38.421,t1_Paradigm,2021.1.4,59.942637811852876,
M,left,Pretarget,0,12,12,12,2207.4231742616976,2209.4247442649503,left,1,4,0.46360745940182824,K17R10,2022-12-08_10h40.38.421,t1_Paradigm,2021.1.4,59.942637811852876,
C,left,Distractor,0,13,13,13,2210.923011775667,2212.92515505146,left,1,4,0.5634887307096506,K17R10,2022-12-08_10h40.38.421,t1_Paradigm,2021.1.4,59.942637811852876,
Q,right,Target,0,14,14,14,2214.4228653297178,2216.4247477937606,right,1,4,0.47145940047630575,K17R10,2022-12-08_10h40.38.421,t1_Paradigm,2021.1.4,59.942637811852876,
R,left,Distractor,0,15,15,15,2217.9230066428427,2219.9252269110148,left,1,4,0.5711199602374109,K17R10,2022-12-08_10h40.38.421,t1_Paradigm,2021.1.4,59.942637811852876,
M,right,Target,0,16,16,16,2221.422987234342,2223.424552104756,right,1,4,0.3675039482623106,K17R10,2022-12-08_10h40.38.421,t1_Paradigm,2021.1.4,59.942637811852876,
S,left,Distractor,0,17,17,17,2224.9223461122456,2226.9246443352313,left,1,4,0.3716368358582258,K17R10,2022-12-08_10h40.38.421,t1_Paradigm,2021.1.4,59.942637811852876,
Z,left,Distractor,0,18,18,18,2228.422848648028,2230.424961768469,left,1,4,0.5513986791338539,K17R10,2022-12-08_10h40.38.421,t1_Paradigm,2021.1.4,59.942637811852876,
L,left,Pretarget,0,19,19,19,2231.922905590327,2233.9234435746766,left,1,4,0.6847267299308442,K17R10,2022-12-08_10h40.38.421,t1_Paradigm,2021.1.4,59.942637811852876,
M,right,Target,0,20,20,20,2235.4227719764312,2237.425137246959,right,1,4,0.6711821636854438,K17R10,2022-12-08_10h40.38.421,t1_Paradigm,2021.1.4,59.942637811852876,
P,left,Distractor,0,21,21,21,2238.9230050388287,2240.9252990913956,left,1,4,0.3390514087805059,K17R10,2022-12-08_10h40.38.421,t1_Paradigm,2021.1.4,59.942637811852876,
F,left,Distractor,0,22,22,22,2242.4228913146508,2244.4251042043907,left,1,4,0.3908942377893254,K17R10,2022-12-08_10h40.38.421,t1_Paradigm,2021.1.4,59.942637811852876,
L,right,Target,0,23,23,23,2245.92306406633,2247.9250151819433,right,1,4,0.44316533699748106,K17R10,2022-12-08_10h40.38.421,t1_Paradigm,2021.1.4,59.942637811852876,
L,left,Lure,0,24,24,24,2249.4229291692463,2251.4229795350984,left,1,4,0.5933656294946559,K17R10,2022-12-08_10h40.38.421,t1_Paradigm,2021.1.4,59.942637811852876,
V,left,Pretarget,0,25,25,25,2252.9230300613563,2254.9250334676326,left,1,4,0.40317869518185034,K17R10,2022-12-08_10h40.38.421,t1_Paradigm,2021.1.4,59.942637811852876,
Z,left,Distractor,0,26,26,26,2256.4228909938392,2258.4247019191243,left,1,4,0.4714587588678114,K17R10,2022-12-08_10h40.38.421,t1_Paradigm,2021.1.4,59.942637811852876,
H,left,Distractor,0,27,27,27,2259.922971354652,2261.925300695395,left,1,4,0.5230314728833036,K17R10,2022-12-08_10h40.38.421,t1_Paradigm,2021.1.4,59.942637811852876,
X,left,Distractor,0,28,28,28,2263.422855384866,2265.4238912533765,left,1,4,0.36808395764091983,K17R10,2022-12-08_10h40.38.421,t1_Paradigm,2021.1.4,59.942637811852876,
V,right,Target,0,29,29,29,2266.9228324475407,2268.9251864900143,right,1,4,0.32312809833092615,K17R10,2022-12-08_10h40.38.421,t1_Paradigm,2021.1.4,59.942637811852876,
C,left,Distractor,0,30,30,30,2270.4229750438826,2272.425103562782,left,1,4,0.5190824046439957,K17R10,2022-12-08_10h40.38.421,t1_Paradigm,2021.1.4,59.942637811852876,
S,left,Pretarget,0,31,31,31,2273.92292451761,2275.924670961773,left,1,4,0.555638714475208,K17R10,2022-12-08_10h40.38.421,t1_Paradigm,2021.1.4,59.942637811852876,
D,left,Distractor,0,32,32,32,2277.423124858251,2279.425093938742,left,1,4,0.591199255984975,K17R10,2022-12-08_10h40.38.421,t1_Paradigm,2021.1.4,59.942637811852876,
V,left,Distractor,0,33,33,33,2280.9230708031682,2282.9251050063904,right,0,4,0.4511151225597132,K17R10,2022-12-08_10h40.38.421,t1_Paradigm,2021.1.4,59.942637811852876,
R,left,Distractor,0,34,34,34,2284.422863404907,2286.424490831647,left,1,4,0.4234963465423789,K17R10,2022-12-08_10h40.38.421,t1_Paradigm,2021.1.4,59.942637811852876,
S,right,Target,0,35,35,35,2287.922908477529,2289.9249750817253,right,1,4,0.42749193104100414,K17R10,2022-12-08_10h40.38.421,t1_Paradigm,2021.1.4,59.942637811852876,
Y,left,Distractor,0,36,36,36,2291.422948096544,2293.4252293170284,left,1,4,0.4312270245864056,K17R10,2022-12-08_10h40.38.421,t1_Paradigm,2021.1.4,59.942637811852876,
N,left,Pretarget,0,37,37,37,2294.922980337098,2296.9251223296887,left,1,4,0.5473097413632786,K17R10,2022-12-08_10h40.38.421,t1_Paradigm,2021.1.4,59.942637811852876,
Z,left,Pretarget,0,38,38,38,2298.4228739913524,2300.4251324349316,left,1,4,0.5830168892425718,K17R10,2022-12-08_10h40.38.421,t1_Paradigm,2021.1.4,59.942637811852876,
P,left,Pretarget,0,39,39,39,2301.922736848661,2303.925027372403,left,1,4,0.7150950968352845,K17R10,2022-12-08_10h40.38.421,t1_Paradigm,2021.1.4,59.942637811852876,
M,left,Distractor,0,40,40,40,2305.4229140915704,2307.4254404045205,left,1,4,0.7027554615633562,K17R10,2022-12-08_10h40.38.421,t1_Paradigm,2021.1.4,59.942637811852876,
N,right,Target,0,41,41,41,2308.9228728685557,2310.9245586811885,right,1,4,0.4835597177007003,K17R10,2022-12-08_10h40.38.421,t1_Paradigm,2021.1.4,59.942637811852876,
Z,right,Target,0,42,42,42,2312.422946171733,2314.4248741896154,right,1,4,0.43921979756851215,K17R10,2022-12-08_10h40.38.421,t1_Paradigm,2021.1.4,59.942637811852876,
P,right,Target,0,43,43,43,2315.9231076953583,2317.9251078936068,left,0,4,0.4112253628409235,K17R10,2022-12-08_10h40.38.421,t1_Paradigm,2021.1.4,59.942637811852876,
X,left,Pretarget,0,44,44,44,2319.4230632643303,2321.424802650843,left,1,4,0.49543996501597576,K17R10,2022-12-08_10h40.38.421,t1_Paradigm,2021.1.4,59.942637811852876,
Z,left,Lure,0,45,45,45,2322.9227381318633,2324.925183602798,left,1,4,0.5791316605173051,K17R10,2022-12-08_10h40.38.421,t1_Paradigm,2021.1.4,59.942637811852876,
R,left,Pretarget,0,46,46,46,2326.4229490589496,2328.424720204828,left,1,4,0.79149978296482,K17R10,2022-12-08_10h40.38.421,t1_Paradigm,2021.1.4,59.942637811852876,
K,left,Distractor,0,47,47,47,2329.9228626028926,2331.925196755663,left,1,4,0.41106881163432263,K17R10,2022-12-08_10h40.38.421,t1_Paradigm,2021.1.4,59.942637811852876,
X,right,Target,0,48,48,48,2333.4227745428507,2335.4241071528813,left,0,4,0.5764045257383259,K17R10,2022-12-08_10h40.38.421,t1_Paradigm,2021.1.4,59.942637811852876,
B,left,Distractor,0,49,49,49,2336.922934141665,2338.925170449933,left,1,4,0.48294377855199855,K17R10,2022-12-08_10h40.38.421,t1_Paradigm,2021.1.4,59.942637811852876,
R,right,Target,0,50,50,50,2340.4228678961226,2342.424832806195,left,0,4,0.7592393279628595,K17R10,2022-12-08_10h40.38.421,t1_Paradigm,2021.1.4,59.942637811852876,
Y,left,Pretarget,0,51,51,51,2343.922926121624,2345.9249744401313,left,1,4,0.8276640731928637,K17R10,2022-12-08_10h40.38.421,t1_Paradigm,2021.1.4,59.942637811852876,
W,left,Pretarget,0,52,52,52,2347.4226022723597,2349.423497308948,left,1,4,0.5445527720294194,K17R10,2022-12-08_10h40.38.421,t1_Paradigm,2021.1.4,59.942637811852876,
Z,left,Distractor,0,53,53,53,2350.9228122370405,2352.924739292517,left,1,4,0.5477011193725048,K17R10,2022-12-08_10h40.38.421,t1_Paradigm,2021.1.4,59.942637811852876,
Q,left,Distractor,0,54,54,54,2354.4228383823793,2356.4243872127117,left,1,4,0.8238359471724834,K17R10,2022-12-08_10h40.38.421,t1_Paradigm,2021.1.4,59.942637811852876,
Y,right,Target,0,55,55,55,2357.9229793746927,2359.924934660725,right,1,4,1.1952851140667917,K17R10,2022-12-08_10h40.38.421,t1_Paradigm,2021.1.4,59.942637811852876,
W,right,Target,0,56,56,56,2361.4227953949594,2363.42478725237,right,1,4,0.7832256669498747,K17R10,2022-12-08_10h40.38.421,t1_Paradigm,2021.1.4,59.942637811852876,
H,left,Pretarget,0,57,57,57,2364.9228940414614,2366.9247216484364,left,1,4,0.38738242219551466,K17R10,2022-12-08_10h40.38.421,t1_Paradigm,2021.1.4,59.942637811852876,
M,left,Distractor,0,58,58,58,2368.422803735797,2370.4250692370115,left,1,4,0.48702662107825745,K17R10,2022-12-08_10h40.38.421,t1_Paradigm,2021.1.4,59.942637811852876,
R,left,Pretarget,0,59,59,59,2371.9228362971626,2373.9240871027723,left,1,4,0.3961104725312907,K17R10,2022-12-08_10h40.38.421,t1_Paradigm,2021.1.4,59.942637811852876,
J,left,Distractor,0,60,60,60,2375.422863404907,2377.4246287763526,left,1,4,0.4638615343137644,K17R10,2022-12-08_10h40.38.421,t1_Paradigm,2021.1.4,59.942637811852876,
H,right,Target,0,61,61,61,2378.9228189738787,2380.925045337295,right,1,4,0.6753599634976126,K17R10,2022-12-08_10h40.38.421,t1_Paradigm,2021.1.4,59.942637811852876,
Z,left,Distractor,0,62,62,62,2382.422866933717,2384.4250021894695,left,1,4,0.5029470443114405,K17R10,2022-12-08_10h40.38.421,t1_Paradigm,2021.1.4,59.942637811852876,
R,right,Target,0,63,63,63,2385.922995414774,2387.9246029518254,right,1,4,0.8275970256654546,K17R10,2022-12-08_10h40.38.421,t1_Paradigm,2021.1.4,59.942637811852876,
J,left,Pretarget,0,0,0,0,2412.7639576785587,2414.758220782751,None,0,4,,K17R10,2022-12-08_10h40.38.421,t1_Paradigm,2021.1.4,59.942637811852876,
G,left,Pretarget,0,1,1,1,2416.2560821585794,2418.2582645721704,None,0,4,,K17R10,2022-12-08_10h40.38.421,t1_Paradigm,2021.1.4,59.942637811852876,
Z,left,Distractor,0,2,2,2,2419.756349867559,2421.758294887928,None,0,4,,K17R10,2022-12-08_10h40.38.421,t1_Paradigm,2021.1.4,59.942637811852876,
F,left,Distractor,0,3,3,3,2423.256102689891,2425.2568434208806,None,0,4,,K17R10,2022-12-08_10h40.38.421,t1_Paradigm,2021.1.4,59.942637811852876,
J,right,Target,0,4,4,4,2426.7563684740453,2428.758270827806,right,1,4,0.6337247220362769,K17R10,2022-12-08_10h40.38.421,t1_Paradigm,2021.1.4,59.942637811852876,
G,right,Target,0,5,5,5,2430.2560722137277,2432.2563381583022,right,1,4,0.4798830100626219,K17R10,2022-12-08_10h40.38.421,t1_Paradigm,2021.1.4,59.942637811852876,
H,left,Distractor,0,6,6,6,2433.756222509299,2435.758328572105,left,1,4,0.38567415344004985,K17R10,2022-12-08_10h40.38.421,t1_Paradigm,2021.1.4,59.942637811852876,
P,left,Distractor,0,7,7,7,2437.256054569647,2439.2579376752983,left,1,4,0.4221675861335825,K17R10,2022-12-08_10h40.38.421,t1_Paradigm,2021.1.4,59.942637811852876,
G,left,Lure,0,8,8,8,2440.756229246137,2442.7584222461737,left,1,4,0.37778147055360023,K17R10,2022-12-08_10h40.38.421,t1_Paradigm,2021.1.4,59.942637811852876,
S,left,Distractor,0,9,9,9,2444.2557940787083,2446.257624572885,left,1,4,0.5901835979893804,K17R10,2022-12-08_10h40.38.421,t1_Paradigm,2021.1.4,59.942637811852876,
R,left,Pretarget,0,10,10,10,2447.75620775242,2449.758267298981,left,1,4,0.5618706072273199,K17R10,2022-12-08_10h40.38.421,t1_Paradigm,2021.1.4,59.942637811852876,
T,left,Pretarget,0,11,11,11,2451.256124183594,2453.257960773015,left,1,4,0.5497616283391835,K17R10,2022-12-08_10h40.38.421,t1_Paradigm,2021.1.4,59.942637811852876,
X,left,Distractor,0,12,12,12,2454.7562170556776,2456.7554006154824,left,1,4,0.41259197784529533,K17R10,2022-12-08_10h40.38.421,t1_Paradigm,2021.1.4,59.942637811852876,
F,left,Pretarget,0,13,13,13,2458.2561168051616,2460.2564921430894,left,1,4,0.41594243021972943,K17R10,2022-12-08_10h40.38.421,t1_Paradigm,2021.1.4,59.942637811852876,
R,right,Target,0,14,14,14,2461.7561397424724,2463.7574765229365,right,1,4,0.5786924830754288,K17R10,2022-12-08_10h40.38.421,t1_Paradigm,2021.1.4,59.942637811852876,
T,right,Target,0,15,15,15,2465.2560221686726,2467.2570323730615,right,1,4,0.8390611932409229,K17R10,2022-12-08_10h40.38.421,t1_Paradigm,2021.1.4,59.942637811852876,
C,left,Distractor,0,16,16,16,2468.756140063284,2470.758439890269,left,1,4,0.4896565529634245,K17R10,2022-12-08_10h40.38.421,t1_Paradigm,2021.1.4,59.942637811852876,
F,right,Target,0,17,17,17,2472.256042058376,2474.2567061177833,right,1,4,0.41570439540373627,K17R10,2022-12-08_10h40.38.421,t1_Paradigm,2021.1.4,59.942637811852876,
M,left,Distractor,0,18,18,18,2475.756212564447,2477.7581328831,left,1,4,0.38584097028069664,K17R10,2022-12-08_10h40.38.421,t1_Paradigm,2021.1.4,59.942637811852876,
N,left,Distractor,0,19,19,19,2479.256029226308,2481.2579928531777,left,1,4,0.4700052066036733,K17R10,2022-12-08_10h40.38.421,t1_Paradigm,2021.1.4,59.942637811852876,
R,left,Lure,0,20,20,20,2482.756141988095,2484.7578653345263,left,1,4,0.5221980302158045,K17R10,2022-12-08_10h40.38.421,t1_Paradigm,2021.1.4,59.942637811852876,
F,right,Target,0,21,21,21,2486.256102689891,2488.257542447667,right,1,4,0.39854664022277575,K17R10,2022-12-08_10h40.38.421,t1_Paradigm,2021.1.4,59.942637811852876,
P,left,Distractor,0,22,22,22,2489.7559905697126,2491.758195439412,left,1,4,0.44976005640637595,K17R10,2022-12-08_10h40.38.421,t1_Paradigm,2021.1.4,59.942637811852876,
L,left,Pretarget,0,23,23,23,2493.25593651463,2495.255133227314,left,1,4,0.8249318055895856,K17R10,2022-12-08_10h40.38.421,t1_Paradigm,2021.1.4,59.942637811852876,
T,left,Distractor,0,24,24,24,2496.755896895629,2498.7578813746077,left,1,4,0.7622138008300681,K17R10,2022-12-08_10h40.38.421,t1_Paradigm,2021.1.4,59.942637811852876,
F,left,Distractor,0,25,25,25,2500.256048474417,2502.2575145379233,right,0,4,0.4625087137828814,K17R10,2022-12-08_10h40.38.421,t1_Paradigm,2021.1.4,59.942637811852876,
V,left,Distractor,0,26,26,26,2503.7558022591547,2505.758010978476,left,1,4,0.5781297969951993,K17R10,2022-12-08_10h40.38.421,t1_Paradigm,2021.1.4,59.942637811852876,
L,right,Target,0,27,27,27,2507.25599008851,2509.256355802383,right,1,4,0.5035321864997968,K17R10,2022-12-08_10h40.38.421,t1_Paradigm,2021.1.4,59.942637811852876,
S,left,Pretarget,0,28,28,28,2510.756021045876,2512.757704612901,left,1,4,0.41014137407182716,K17R10,2022-12-08_10h40.38.421,t1_Paradigm,2021.1.4,59.942637811852876,
W,left,Distractor,0,29,29,29,2514.2560536072415,2516.256981686398,left,1,4,0.5108272159122862,K17R10,2022-12-08_10h40.38.421,t1_Paradigm,2021.1.4,59.942637811852876,
Q,left,Distractor,0,30,30,30,2517.756019441862,2519.7581306374923,left,1,4,0.4497818709205603,K17R10,2022-12-08_10h40.38.421,t1_Paradigm,2021.1.4,59.942637811852876,
L,right,Target,0,31,31,31,2521.2559329858195,2523.258157745222,right,1,4,0.7578784873912809,K17R10,2022-12-08_10h40.38.421,t1_Paradigm,2021.1.4,59.942637811852876,
S,right,Target,0,32,32,32,2524.7558436425606,2526.758124542248,left,0,4,0.6499075610045111,K17R10,2022-12-08_10h40.38.421,t1_Paradigm,2021.1.4,59.942637811852876,
Z,left,Pretarget,0,33,33,33,2528.2558126851945,2530.2573759516235,left,1,4,0.5262914592021843,K17R10,2022-12-08_10h40.38.421,t1_Paradigm,2021.1.4,59.942637811852876,
F,left,Distractor,0,34,34,34,2531.7560316323215,2533.75807930922,left,1,4,0.4018079097440932,K17R10,2022-12-08_10h40.38.421,t1_Paradigm,2021.1.4,59.942637811852876,
V,left,Distractor,0,35,35,35,2535.2557562241127,2537.2582036198583,left,1,4,1.0300703421671642,K17R10,2022-12-08_10h40.38.421,t1_Paradigm,2021.1.4,59.942637811852876,
M,left,Distractor,0,36,36,36,2538.7558583994396,2540.7577941165655,left,1,4,0.6661006656213431,K17R10,2022-12-08_10h40.38.421,t1_Paradigm,2021.1.4,59.942637811852876,
Z,right,Target,0,37,37,37,2542.255871071102,2544.2578221867007,left,0,4,0.7500640801299596,K17R10,2022-12-08_10h40.38.421,t1_Paradigm,2021.1.4,59.942637811852876,
H,left,Pretarget,0,38,38,38,2545.755025598366,2547.75819255221,left,1,4,0.46567823401710484,K17R10,2022-12-08_10h40.38.421,t1_Paradigm,2021.1.4,59.942637811852876,
L,left,Distractor,0,39,39,39,2549.255833858115,2551.2580846024503,left,1,4,0.4378146863600705,K17R10,2022-12-08_10h40.38.421,t1_Paradigm,2021.1.4,59.942637811852876,
G,left,Distractor,0,40,40,40,2552.756095792647,2554.7579782567045,left,1,4,0.5219519753591157,K17R10,2022-12-08_10h40.38.421,t1_Paradigm,2021.1.4,59.942637811852876,
K,left,Distractor,0,41,41,41,2556.255904434467,2558.257825073917,left,1,4,0.637827133454266,K17R10,2022-12-08_10h40.38.421,t1_Paradigm,2021.1.4,59.942637811852876,
H,right,Target,0,42,42,42,2559.755837868128,2561.758160792844,right,1,4,0.577910689462442,K17R10,2022-12-08_10h40.38.421,t1_Paradigm,2021.1.4,59.942637811852876,
B,left,Distractor,0,43,43,43,2563.2559778980503,2565.256292604463,left,1,4,0.6477155233733356,K17R10,2022-12-08_10h40.38.421,t1_Paradigm,2021.1.4,59.942637811852876,
Z,left,Distractor,0,44,44,44,2566.7558754019265,2568.7579429685284,left,1,4,0.6659344903746387,K17R10,2022-12-08_10h40.38.421,t1_Paradigm,2021.1.4,59.942637811852876,
T,left,Pretarget,0,45,45,45,2570.256061627282,2572.2580153093004,left,1,4,0.5735718472133158,K17R10,2022-12-08_10h40.38.421,t1_Paradigm,2021.1.4,59.942637811852876,
H,right,Target,0,46,46,46,2573.7559684344014,2575.7581043317477,left,0,4,0.6738502709631575,K17R10,2022-12-08_10h40.38.421,t1_Paradigm,2021.1.4,59.942637811852876,
F,left,Distractor,0,47,47,47,2577.2558251964656,2579.2580586175172,left,1,4,0.37387218172079884,K17R10,2022-12-08_10h40.38.421,t1_Paradigm,2021.1.4,59.942637811852876,
R,left,Distractor,0,48,48,48,2580.755781727843,2582.7574941670173,left,1,4,0.45836684372625314,K17R10,2022-12-08_10h40.38.421,t1_Paradigm,2021.1.4,59.942637811852876,
T,right,Target,0,49,49,49,2584.2558701086964,2586.2686335229373,left,0,4,0.3871710139064817,K17R10,2022-12-08_10h40.38.421,t1_Paradigm,2021.1.4,59.942637811852876,
H,right,Target,0,50,50,50,2587.7557567053154,2589.757507640694,right,1,4,0.6744610772875603,K17R10,2022-12-08_10h40.38.421,t1_Paradigm,2021.1.4,59.942637811852876,
Y,left,Pretarget,0,51,51,51,2591.2559137377248,2593.2569804031955,left,1,4,0.4868001351132989,K17R10,2022-12-08_10h40.38.421,t1_Paradigm,2021.1.4,59.942637811852876,
H,left,Distractor,0,52,52,52,2594.7558792515483,2596.7577338058472,left,1,4,0.45811661845073104,K17R10,2022-12-08_10h40.38.421,t1_Paradigm,2021.1.4,59.942637811852876,
S,left,Distractor,0,53,53,53,2598.255997146145,2600.257891479865,left,1,4,0.5257037505798507,K17R10,2022-12-08_10h40.38.421,t1_Paradigm,2021.1.4,59.942637811852876,
Q,left,Distractor,0,54,54,54,2601.755787502276,2603.7579987880163,left,1,4,0.8818028795794817,K17R10,2022-12-08_10h40.38.421,t1_Paradigm,2021.1.4,59.942637811852876,
Y,right,Target,0,55,55,55,2605.255872675116,2607.2564250955475,left,0,4,0.7915097278309986,K17R10,2022-12-08_10h40.38.421,t1_Paradigm,2021.1.4,59.942637811852876,
R,left,Distractor,0,56,56,56,2608.7558388305333,2610.757767810821,left,1,4,0.7462430117448093,K17R10,2022-12-08_10h40.38.421,t1_Paradigm,2021.1.4,59.942637811852876,
H,left,Pretarget,0,57,57,57,2612.2559442138736,2614.2576983572653,left,1,4,1.34242463807459,K17R10,2022-12-08_10h40.38.421,t1_Paradigm,2021.1.4,59.942637811852876,
J,left,Distractor,0,58,58,58,2615.755831772898,2617.757698196874,left,1,4,0.5305061512044631,K17R10,2022-12-08_10h40.38.421,t1_Paradigm,2021.1.4,59.942637811852876,
V,left,Distractor,0,59,59,59,2619.2559134169132,2621.2578144874715,left,1,4,0.565941580091021,K17R10,2022-12-08_10h40.38.421,t1_Paradigm,2021.1.4,59.942637811852876,
Y,left,Lure,0,60,60,60,2622.755747081261,2624.7583827875787,left,1,4,0.4416004665690707,K17R10,2022-12-08_10h40.38.421,t1_Paradigm,2021.1.4,59.942637811852876,
H,right,Target,0,61,61,61,2626.255560535108,2628.2577846529166,left,0,4,0.5897704054659698,K17R10,2022-12-08_10h40.38.421,t1_Paradigm,2021.1.4,59.942637811852876,
L,left,Distractor,0,62,62,62,2629.755608494961,2631.757996542394,left,1,4,0.6738720854773419,K17R10,2022-12-08_10h40.38.421,t1_Paradigm,2021.1.4,59.942637811852876,
P,left,Distractor,0,63,63,63,2633.2556060889474,2635.2573650443665,left,1,4,0.7263638962031109,K17R10,2022-12-08_10h40.38.421,t1_Paradigm,2021.1.4,59.942637811852876,
