Letter,CorrAnswer,Stimulus,nback_run.thisRepN,nback_run.thisTrialN,nback_run.thisN,nback_run.thisIndex,fixcross.started,nback_trial.started,trial_resp.keys,trial_resp.corr,currentlevel,trial_resp.rt,Participant,date,expName,psychopyVersion,frameRate,
H,left,Distractor,0,0,0,0,201.53921946985065,203.4877577201769,None,0,1,,L05N08,2022-10-06_12h01.45.324,t1_Paradigm,2021.1.4,60.00537070406885,
Q,left,Pretarget,0,1,1,1,204.98917454155162,206.98944176949226,left,1,1,0.4182146157963871,L05N08,2022-10-06_12h01.45.324,t1_Paradigm,2021.1.4,60.00537070406885,
Q,right,Target,0,2,2,2,208.48641580603544,210.48624353544255,right,1,1,0.729791809222661,L05N08,2022-10-06_12h01.45.324,t1_Paradigm,2021.1.4,60.00537070406885,
T,left,Distractor,0,3,3,3,211.98624048782403,213.9855186836612,left,1,1,0.9101061886194657,L05N08,2022-10-06_12h01.45.324,t1_Paradigm,2021.1.4,60.00537070406885,
Q,left,Lure,0,4,4,4,215.4861864327122,217.4880676147659,left,1,1,0.5435579940767639,L05N08,2022-10-06_12h01.45.324,t1_Paradigm,2021.1.4,60.00537070406885,
L,left,Distractor,0,5,5,5,218.98621610688497,220.9883908226293,left,1,1,1.1872597394631157,L05N08,2022-10-06_12h01.45.324,t1_Paradigm,2021.1.4,60.00537070406885,
V,left,Pretarget,0,6,6,6,222.48636479854213,224.48860271225203,left,1,1,0.7275237401372578,L05N08,2022-10-06_12h01.45.324,t1_Paradigm,2021.1.4,60.00537070406885,
V,right,Target,0,7,7,7,225.98622573093962,227.9862183524965,right,1,1,0.5255446493629279,L05N08,2022-10-06_12h01.45.324,t1_Paradigm,2021.1.4,60.00537070406885,
K,left,Distractor,0,8,8,8,229.48628395647575,231.48898992008617,left,1,1,0.734747877013433,L05N08,2022-10-06_12h01.45.324,t1_Paradigm,2021.1.4,60.00537070406885,
G,left,Pretarget,0,9,9,9,232.9862555655127,234.9882981108949,left,1,1,0.8832833042852144,L05N08,2022-10-06_12h01.45.324,t1_Paradigm,2021.1.4,60.00537070406885,
G,right,Target,0,10,10,10,236.4864340917411,238.486403615565,right,1,1,0.5693652197533083,L05N08,2022-10-06_12h01.45.324,t1_Paradigm,2021.1.4,60.00537070406885,
G,right,Target,0,11,11,11,239.98625909433213,241.98640730478655,right,1,1,0.7332118777540018,L05N08,2022-10-06_12h01.45.324,t1_Paradigm,2021.1.4,60.00537070406885,
P,left,Pretarget,0,12,12,12,243.48592914962865,245.48816738414098,left,1,1,0.7514581246105081,L05N08,2022-10-06_12h01.45.324,t1_Paradigm,2021.1.4,60.00537070406885,
P,right,Target,0,13,13,13,246.98635052286045,248.98638677346935,right,1,1,0.8052347804386955,L05N08,2022-10-06_12h01.45.324,t1_Paradigm,2021.1.4,60.00537070406885,
G,left,Lure,0,14,14,14,250.48625636751603,252.48756203104858,left,1,1,0.7759442882688745,L05N08,2022-10-06_12h01.45.324,t1_Paradigm,2021.1.4,60.00537070406885,
Y,left,Distractor,0,15,15,15,253.98633480356875,255.98821758963095,left,1,1,0.7479440611405153,L05N08,2022-10-06_12h01.45.324,t1_Paradigm,2021.1.4,60.00537070406885,
B,left,Distractor,0,16,16,16,257.486276257232,259.4882097299851,left,1,1,1.0075423723119457,L05N08,2022-10-06_12h01.45.324,t1_Paradigm,2021.1.4,60.00537070406885,
T,left,Pretarget,0,17,17,17,260.9862180316959,262.98800489800306,left,1,1,0.6437193894889788,L05N08,2022-10-06_12h01.45.324,t1_Paradigm,2021.1.4,60.00537070406885,
T,right,Target,0,18,18,18,264.4863365679794,266.4861774502606,right,1,1,0.505471115160617,L05N08,2022-10-06_12h01.45.324,t1_Paradigm,2021.1.4,60.00537070406885,
S,left,Distractor,0,19,19,19,267.9860037360595,269.98832505824976,left,1,1,0.523406505028106,L05N08,2022-10-06_12h01.45.324,t1_Paradigm,2021.1.4,60.00537070406885,
T,left,Lure,0,20,20,20,271.4862541219027,273.48797650704,left,1,1,0.831726597263696,L05N08,2022-10-06_12h01.45.324,t1_Paradigm,2021.1.4,60.00537070406885,
J,left,Distractor,0,21,21,21,274.9862093700449,276.988105308983,left,1,1,0.49950997517407814,L05N08,2022-10-06_12h01.45.324,t1_Paradigm,2021.1.4,60.00537070406885,
P,left,Distractor,0,22,22,22,278.4862573299215,280.5028370111668,left,1,1,0.5208519598909334,L05N08,2022-10-06_12h01.45.324,t1_Paradigm,2021.1.4,60.00537070406885,
F,left,Distractor,0,23,23,23,281.9861865931143,283.9880950433235,left,1,1,0.971564123959979,L05N08,2022-10-06_12h01.45.324,t1_Paradigm,2021.1.4,60.00537070406885,
L,left,Distractor,0,24,24,24,285.4861588437543,287.4854290195435,left,1,1,0.5461218424679828,L05N08,2022-10-06_12h01.45.324,t1_Paradigm,2021.1.4,60.00537070406885,
W,left,Pretarget,0,25,25,25,288.98618434750097,290.9888069026292,left,1,1,0.8348884203041962,L05N08,2022-10-06_12h01.45.324,t1_Paradigm,2021.1.4,60.00537070406885,
W,right,Target,0,26,26,26,292.48614825729237,294.48613799163286,right,1,1,0.72963589952451,L05N08,2022-10-06_12h01.45.324,t1_Paradigm,2021.1.4,60.00537070406885,
V,left,Distractor,0,27,27,27,295.986237279807,297.985457731309,left,1,1,0.9102017875720776,L05N08,2022-10-06_12h01.45.324,t1_Paradigm,2021.1.4,60.00537070406885,
W,left,Lure,0,28,28,28,299.48593781127784,301.488144928011,left,1,1,0.5116308314954949,L05N08,2022-10-06_12h01.45.324,t1_Paradigm,2021.1.4,60.00537070406885,
R,left,Pretarget,0,29,29,29,302.98634667323677,304.9888466820594,left,1,1,0.9630818022269523,L05N08,2022-10-06_12h01.45.324,t1_Paradigm,2021.1.4,60.00537070406885,
R,right,Target,0,30,30,30,306.48628556048425,308.4863850090587,right,1,1,0.6813853763760562,L05N08,2022-10-06_12h01.45.324,t1_Paradigm,2021.1.4,60.00537070406885,
G,left,Distractor,0,31,31,31,309.9862863624894,311.9878794644792,left,1,1,0.955814998706046,L05N08,2022-10-06_12h01.45.324,t1_Paradigm,2021.1.4,60.00537070406885,
R,left,Lure,0,32,32,32,313.48607992649886,315.4876781613184,left,1,1,0.6398293462480069,L05N08,2022-10-06_12h01.45.324,t1_Paradigm,2021.1.4,60.00537070406885,
S,left,Distractor,0,33,33,33,316.98616959061656,318.9881101210103,left,1,1,0.5638737336739723,L05N08,2022-10-06_12h01.45.324,t1_Paradigm,2021.1.4,60.00537070406885,
R,left,Lure,0,34,34,34,320.48619830238204,322.4878074444641,left,1,1,0.6157284656146658,L05N08,2022-10-06_12h01.45.324,t1_Paradigm,2021.1.4,60.00537070406885,
P,left,Pretarget,0,35,35,35,323.9862571695212,325.9877219507707,left,1,1,1.1318749039601244,L05N08,2022-10-06_12h01.45.324,t1_Paradigm,2021.1.4,60.00537070406885,
P,right,Target,0,36,36,36,327.4853792952563,329.4861918863444,right,1,1,0.6254689722045441,L05N08,2022-10-06_12h01.45.324,t1_Paradigm,2021.1.4,60.00537070406885,
Y,left,Pretarget,0,37,37,37,330.9863123474388,332.98840012588335,left,1,1,0.6112860015855404,L05N08,2022-10-06_12h01.45.324,t1_Paradigm,2021.1.4,60.00537070406885,
Y,right,Target,0,38,38,38,334.4862457810559,336.4862801068539,left,0,1,0.44140570238050714,L05N08,2022-10-06_12h01.45.324,t1_Paradigm,2021.1.4,60.00537070406885,
J,left,Distractor,0,39,39,39,337.98618274349246,339.9880530182818,left,1,1,0.9075471522573935,L05N08,2022-10-06_12h01.45.324,t1_Paradigm,2021.1.4,60.00537070406885,
Y,left,Lure,0,40,40,40,341.4861835454958,343.4881535896602,left,1,1,0.9594265859395819,L05N08,2022-10-06_12h01.45.324,t1_Paradigm,2021.1.4,60.00537070406885,
T,left,Distractor,0,41,41,41,344.9861958963684,346.988093439315,left,1,1,1.1555924263830093,L05N08,2022-10-06_12h01.45.324,t1_Paradigm,2021.1.4,60.00537070406885,
V,left,Distractor,0,42,42,42,348.4861370292274,350.4879668829835,left,1,1,0.8396994856575475,L05N08,2022-10-06_12h01.45.324,t1_Paradigm,2021.1.4,60.00537070406885,
N,left,Pretarget,0,43,43,43,351.9860967685963,353.98811076261336,left,1,1,0.6354504009868833,L05N08,2022-10-06_12h01.45.324,t1_Paradigm,2021.1.4,60.00537070406885,
N,right,Target,0,44,44,44,355.48627657803263,357.48629133491886,right,1,1,0.49749886837162194,L05N08,2022-10-06_12h01.45.324,t1_Paradigm,2021.1.4,60.00537070406885,
N,right,Target,0,45,45,45,358.9862703223971,360.9861673450032,right,1,1,0.6614029498996388,L05N08,2022-10-06_12h01.45.324,t1_Paradigm,2021.1.4,60.00537070406885,
X,left,Distractor,0,46,46,46,362.48540945062996,364.48801821127927,left,1,1,0.4716371063805127,L05N08,2022-10-06_12h01.45.324,t1_Paradigm,2021.1.4,60.00537070406885,
Z,left,Distractor,0,47,47,47,365.9859559365832,367.98884892767273,left,1,1,0.5388184675357479,L05N08,2022-10-06_12h01.45.324,t1_Paradigm,2021.1.4,60.00537070406885,
H,left,Pretarget,0,48,48,48,369.48629165571947,371.48814941923774,left,1,1,1.0395141263506957,L05N08,2022-10-06_12h01.45.324,t1_Paradigm,2021.1.4,60.00537070406885,
H,right,Target,0,49,49,49,372.9860746332688,374.98616702420077,right,1,1,0.6935094407162978,L05N08,2022-10-06_12h01.45.324,t1_Paradigm,2021.1.4,60.00537070406885,
K,left,Distractor,0,50,50,50,376.48628684369214,378.48815647687843,left,1,1,0.7913966718078882,L05N08,2022-10-06_12h01.45.324,t1_Paradigm,2021.1.4,60.00537070406885,
V,left,Pretarget,0,51,51,51,379.9859966784188,381.9879086574474,left,1,1,1.355764119531159,L05N08,2022-10-06_12h01.45.324,t1_Paradigm,2021.1.4,60.00537070406885,
V,right,Target,0,52,52,52,383.4854216411004,385.4858720469001,right,1,1,0.4499268411382218,L05N08,2022-10-06_12h01.45.324,t1_Paradigm,2021.1.4,60.00537070406885,
R,left,Distractor,0,53,53,53,386.9861657409929,388.9878679156136,left,1,1,0.5481384029008041,L05N08,2022-10-06_12h01.45.324,t1_Paradigm,2021.1.4,60.00537070406885,
V,left,Lure,0,54,54,54,390.486165901395,392.48799479274567,left,1,1,0.9515521837147389,L05N08,2022-10-06_12h01.45.324,t1_Paradigm,2021.1.4,60.00537070406885,
Y,left,Distractor,0,55,55,55,393.98625813192666,395.9879731386209,left,1,1,0.9236353650685487,L05N08,2022-10-06_12h01.45.324,t1_Paradigm,2021.1.4,60.00537070406885,
Q,left,Distractor,0,56,56,56,397.4861543525276,399.4879386524208,left,1,1,0.8155902641774446,L05N08,2022-10-06_12h01.45.324,t1_Paradigm,2021.1.4,60.00537070406885,
Z,left,Pretarget,0,57,57,57,400.98616798660623,402.986920266947,left,1,1,0.8684930557628832,L05N08,2022-10-06_12h01.45.324,t1_Paradigm,2021.1.4,60.00537070406885,
Z,right,Target,0,58,58,58,404.4862178712938,406.486266953978,right,1,1,0.7134536917710648,L05N08,2022-10-06_12h01.45.324,t1_Paradigm,2021.1.4,60.00537070406885,
B,left,Distractor,0,59,59,59,407.9861006182182,409.9852697414244,left,1,1,0.9583252731863467,L05N08,2022-10-06_12h01.45.324,t1_Paradigm,2021.1.4,60.00537070406885,
S,left,Pretarget,0,60,60,60,411.4863153950573,413.4877436048955,left,1,1,0.6398145893617766,L05N08,2022-10-06_12h01.45.324,t1_Paradigm,2021.1.4,60.00537070406885,
S,right,Target,0,61,61,61,414.98629149531916,416.98612179114025,right,1,1,0.40538671219474054,L05N08,2022-10-06_12h01.45.324,t1_Paradigm,2021.1.4,60.00537070406885,
T,left,Distractor,0,62,62,62,418.4860837761207,420.4870468232766,left,1,1,0.5524374685010116,L05N08,2022-10-06_12h01.45.324,t1_Paradigm,2021.1.4,60.00537070406885,
D,left,Distractor,0,63,63,63,421.986080728504,423.9877171387434,left,1,1,0.9238878361247771,L05N08,2022-10-06_12h01.45.324,t1_Paradigm,2021.1.4,60.00537070406885,
R,left,Distractor,0,0,0,0,438.9332754606803,440.93797905741485,None,0,1,,L05N08,2022-10-06_12h01.45.324,t1_Paradigm,2021.1.4,60.00537070406885,
V,left,Distractor,0,1,1,1,442.4360970733578,444.4379378343765,left,1,1,1.0335687056522147,L05N08,2022-10-06_12h01.45.324,t1_Paradigm,2021.1.4,60.00537070406885,
N,left,Pretarget,0,2,2,2,445.9361161610668,447.9379678293499,left,1,1,1.117533136424754,L05N08,2022-10-06_12h01.45.324,t1_Paradigm,2021.1.4,60.00537070406885,
N,right,Target,0,3,3,3,449.43597901827707,451.4361214542987,right,1,1,0.7554161778443813,L05N08,2022-10-06_12h01.45.324,t1_Paradigm,2021.1.4,60.00537070406885,
S,left,Distractor,0,4,4,4,452.9361341259719,454.9352554497018,left,1,1,0.776407846942675,L05N08,2022-10-06_12h01.45.324,t1_Paradigm,2021.1.4,60.00537070406885,
N,left,Lure,0,5,5,5,456.4360694843981,458.4381954382625,left,1,1,0.8092778461614216,L05N08,2022-10-06_12h01.45.324,t1_Paradigm,2021.1.4,60.00537070406885,
Z,left,Distractor,0,6,6,6,459.935976933064,461.93653512828496,left,1,1,0.6549894793042768,L05N08,2022-10-06_12h01.45.324,t1_Paradigm,2021.1.4,60.00537070406885,
L,left,Pretarget,0,7,7,7,463.43582952461475,465.4378354985856,None,0,1,,L05N08,2022-10-06_12h01.45.324,t1_Paradigm,2021.1.4,60.00537070406885,
L,right,Target,0,8,8,8,466.9360058052316,468.93533019653296,right,1,1,0.9046079657018709,L05N08,2022-10-06_12h01.45.324,t1_Paradigm,2021.1.4,60.00537070406885,
H,left,Distractor,0,9,9,9,470.43608456208494,472.4384767814863,left,1,1,0.9850557665886299,L05N08,2022-10-06_12h01.45.324,t1_Paradigm,2021.1.4,60.00537070406885,
L,left,Lure,0,10,10,10,473.93608023126035,475.936883198292,left,1,1,1.0226441194299696,L05N08,2022-10-06_12h01.45.324,t1_Paradigm,2021.1.4,60.00537070406885,
X,left,Pretarget,0,11,11,11,477.4361647625483,479.43788939329716,left,1,1,1.1536079461329791,L05N08,2022-10-06_12h01.45.324,t1_Paradigm,2021.1.4,60.00537070406885,
X,right,Target,0,12,12,12,480.93604815107574,482.935965063396,right,1,1,0.4395476180634432,L05N08,2022-10-06_12h01.45.324,t1_Paradigm,2021.1.4,60.00537070406885,
X,right,Target,0,13,13,13,484.4360768628412,486.4362433590013,right,1,1,1.0192526022638049,L05N08,2022-10-06_12h01.45.324,t1_Paradigm,2021.1.4,60.00537070406885,
R,left,Distractor,0,14,14,14,487.9360593791407,489.9375305764279,left,1,1,0.7499487519035029,L05N08,2022-10-06_12h01.45.324,t1_Paradigm,2021.1.4,60.00537070406885,
T,left,Distractor,0,15,15,15,491.4359985871888,493.438307398108,left,1,1,1.2977352351754234,L05N08,2022-10-06_12h01.45.324,t1_Paradigm,2021.1.4,60.00537070406885,
V,left,Pretarget,0,16,16,16,494.9360305069731,496.9376059648621,left,1,1,1.3338514283204859,L05N08,2022-10-06_12h01.45.324,t1_Paradigm,2021.1.4,60.00537070406885,
V,right,Target,0,17,17,17,498.4359103666811,500.4360633891629,right,1,1,0.4113433609563799,L05N08,2022-10-06_12h01.45.324,t1_Paradigm,2021.1.4,60.00537070406885,
N,left,Distractor,0,18,18,18,501.936089855315,503.93661179992705,left,1,1,0.5270306035345129,L05N08,2022-10-06_12h01.45.324,t1_Paradigm,2021.1.4,60.00537070406885,
B,left,Distractor,0,19,19,19,505.43605857713555,507.43787752362914,left,1,1,1.1376467708560085,L05N08,2022-10-06_12h01.45.324,t1_Paradigm,2021.1.4,60.00537070406885,
V,left,Lure,0,20,20,20,508.9360561711219,510.93784271662844,left,1,1,0.8057365145323274,L05N08,2022-10-06_12h01.45.324,t1_Paradigm,2021.1.4,60.00537070406885,
P,left,Distractor,0,21,21,21,512.4357993692392,514.4378717491945,left,1,1,0.7618460093362955,L05N08,2022-10-06_12h01.45.324,t1_Paradigm,2021.1.4,60.00537070406885,
K,left,Pretarget,0,22,22,22,515.9359435696715,517.9490383804132,left,1,1,0.6105273052107805,L05N08,2022-10-06_12h01.45.324,t1_Paradigm,2021.1.4,60.00537070406885,
K,right,Target,0,23,23,23,519.4359998703967,521.4359706774285,left,0,1,0.5637396385027387,L05N08,2022-10-06_12h01.45.324,t1_Paradigm,2021.1.4,60.00537070406885,
J,left,Pretarget,0,24,24,24,522.9360885721089,524.9379447316169,left,1,1,0.7256496157278889,L05N08,2022-10-06_12h01.45.324,t1_Paradigm,2021.1.4,60.00537070406885,
J,right,Target,0,25,25,25,526.4359940959639,528.4360515194949,right,1,1,0.6513750048525253,L05N08,2022-10-06_12h01.45.324,t1_Paradigm,2021.1.4,60.00537070406885,
H,left,Distractor,0,26,26,26,529.9357559005894,531.9379886814695,left,1,1,0.5415731930279435,L05N08,2022-10-06_12h01.45.324,t1_Paradigm,2021.1.4,60.00537070406885,
J,left,Lure,0,27,27,27,533.4361390983995,535.4378505762725,left,1,1,0.48148668559952057,L05N08,2022-10-06_12h01.45.324,t1_Paradigm,2021.1.4,60.00537070406885,
V,left,Distractor,0,28,28,28,536.9360179957021,538.9379059145922,left,1,1,0.7577009286251268,L05N08,2022-10-06_12h01.45.324,t1_Paradigm,2021.1.4,60.00537070406885,
Z,left,Pretarget,0,29,29,29,540.4361432688238,542.4378730324024,left,1,1,0.5376135357855674,L05N08,2022-10-06_12h01.45.324,t1_Paradigm,2021.1.4,60.00537070406885,
Z,right,Target,0,30,30,30,543.9361302763482,545.9352256151305,right,1,1,0.5763930258963228,L05N08,2022-10-06_12h01.45.324,t1_Paradigm,2021.1.4,60.00537070406885,
T,left,Distractor,0,31,31,31,547.4360717300115,549.4381710573216,left,1,1,0.7372867028607288,L05N08,2022-10-06_12h01.45.324,t1_Paradigm,2021.1.4,60.00537070406885,
Z,left,Lure,0,32,32,32,550.9359727626397,552.9378132028578,left,1,1,0.9014554459154169,L05N08,2022-10-06_12h01.45.324,t1_Paradigm,2021.1.4,60.00537070406885,
F,left,Distractor,0,33,33,33,554.4360050032265,556.4375948971974,left,1,1,1.2260562320716417,L05N08,2022-10-06_12h01.45.324,t1_Paradigm,2021.1.4,60.00537070406885,
Y,left,Pretarget,0,34,34,34,557.9359878403266,559.9375485413311,left,1,1,0.7019259980716015,L05N08,2022-10-06_12h01.45.324,t1_Paradigm,2021.1.4,60.00537070406885,
Y,right,Target,0,35,35,35,561.4360479906736,563.4358975346058,right,1,1,0.707638195823165,L05N08,2022-10-06_12h01.45.324,t1_Paradigm,2021.1.4,60.00537070406885,
Y,right,Target,0,36,36,36,564.9360587375359,566.9359730834421,right,1,1,0.9193558683800802,L05N08,2022-10-06_12h01.45.324,t1_Paradigm,2021.1.4,60.00537070406885,
W,left,Distractor,0,37,37,37,568.4360358002032,570.4380395285625,left,1,1,1.065423687816292,L05N08,2022-10-06_12h01.45.324,t1_Paradigm,2021.1.4,60.00537070406885,
Q,left,Distractor,0,38,38,38,571.9359897651393,573.9379011025649,left,1,1,0.6056010719912592,L05N08,2022-10-06_12h01.45.324,t1_Paradigm,2021.1.4,60.00537070406885,
P,left,Pretarget,0,39,39,39,575.4360544067113,577.4375336240446,left,1,1,0.9460937402254785,L05N08,2022-10-06_12h01.45.324,t1_Paradigm,2021.1.4,60.00537070406885,
P,right,Target,0,40,40,40,578.9360305069731,580.9361953991247,right,1,1,0.7753668449367979,L05N08,2022-10-06_12h01.45.324,t1_Paradigm,2021.1.4,60.00537070406885,
J,left,Distractor,0,41,41,41,582.4359956999724,584.4379285311225,left,1,1,0.5695429439801956,L05N08,2022-10-06_12h01.45.324,t1_Paradigm,2021.1.4,60.00537070406885,
P,left,Lure,0,42,42,42,585.9360228077294,587.9378709471912,left,1,1,0.6695875675177376,L05N08,2022-10-06_12h01.45.324,t1_Paradigm,2021.1.4,60.00537070406885,
L,left,Distractor,0,43,43,43,589.4360191185078,591.4379827466364,left,1,1,1.1375550215270778,L05N08,2022-10-06_12h01.45.324,t1_Paradigm,2021.1.4,60.00537070406885,
Z,left,Distractor,0,44,44,44,592.9362881108591,594.9378234685173,left,1,1,0.9814380841198727,L05N08,2022-10-06_12h01.45.324,t1_Paradigm,2021.1.4,60.00537070406885,
F,left,Pretarget,0,45,45,45,596.435916782717,598.4379195486708,left,1,1,1.14573482711603,L05N08,2022-10-06_12h01.45.324,t1_Paradigm,2021.1.4,60.00537070406885,
F,right,Target,0,46,46,46,599.9358855045375,601.9360298653701,right,1,1,0.5434466758360941,L05N08,2022-10-06_12h01.45.324,t1_Paradigm,2021.1.4,60.00537070406885,
G,left,Pretarget,0,47,47,47,603.4363485820086,605.4380520398354,left,1,1,0.6735234854222654,L05N08,2022-10-06_12h01.45.324,t1_Paradigm,2021.1.4,60.00537070406885,
G,right,Target,0,48,48,48,606.9360969129557,608.9361014041824,right,1,1,0.6315221823260799,L05N08,2022-10-06_12h01.45.324,t1_Paradigm,2021.1.4,60.00537070406885,
V,left,Distractor,0,49,49,49,610.4361095846289,612.4379817842291,left,1,1,0.6014845426434476,L05N08,2022-10-06_12h01.45.324,t1_Paradigm,2021.1.4,60.00537070406885,
G,left,Lure,0,50,50,50,613.9359618553772,615.9354139258157,left,1,1,1.0880533711624594,L05N08,2022-10-06_12h01.45.324,t1_Paradigm,2021.1.4,60.00537070406885,
Q,left,Pretarget,0,51,51,51,617.4359745270503,619.4369484814688,left,1,1,0.754513120635238,L05N08,2022-10-06_12h01.45.324,t1_Paradigm,2021.1.4,60.00537070406885,
Q,right,Target,0,52,52,52,620.9359146975057,622.9359900859399,right,1,1,0.8075464785742952,L05N08,2022-10-06_12h01.45.324,t1_Paradigm,2021.1.4,60.00537070406885,
Y,left,Distractor,0,53,53,53,624.4358795697026,626.437794115147,left,1,1,0.5536481746858044,L05N08,2022-10-06_12h01.45.324,t1_Paradigm,2021.1.4,60.00537070406885,
V,left,Distractor,0,54,54,54,627.9360763816385,629.9380284608997,left,1,1,0.5575257066539052,L05N08,2022-10-06_12h01.45.324,t1_Paradigm,2021.1.4,60.00537070406885,
B,left,Distractor,0,55,55,55,631.4359806222856,633.4375814235209,left,1,1,0.9140186879903922,L05N08,2022-10-06_12h01.45.324,t1_Paradigm,2021.1.4,60.00537070406885,
J,left,Pretarget,0,56,56,56,634.9360157500887,636.9375588069906,left,1,1,0.6141501205092936,L05N08,2022-10-06_12h01.45.324,t1_Paradigm,2021.1.4,60.00537070406885,
J,right,Target,0,57,57,57,638.4359883215293,640.4358779656941,right,1,1,1.323558500944273,L05N08,2022-10-06_12h01.45.324,t1_Paradigm,2021.1.4,60.00537070406885,
H,left,Distractor,0,58,58,58,641.9360025972128,643.9487923253946,left,1,1,1.0426454732132697,L05N08,2022-10-06_12h01.45.324,t1_Paradigm,2021.1.4,60.00537070406885,
J,left,Lure,0,59,59,59,645.4351112492714,647.437736050013,left,1,1,0.7377322966294741,L05N08,2022-10-06_12h01.45.324,t1_Paradigm,2021.1.4,60.00537070406885,
D,left,Pretarget,0,60,60,60,648.9360131836729,650.9377654033815,left,1,1,0.6138992534615682,L05N08,2022-10-06_12h01.45.324,t1_Paradigm,2021.1.4,60.00537070406885,
D,right,Target,0,61,61,61,652.4359315396032,654.4359299355929,right,1,1,0.8114750180357078,L05N08,2022-10-06_12h01.45.324,t1_Paradigm,2021.1.4,60.00537070406885,
R,left,Distractor,0,62,62,62,655.9360706072057,657.9380053631667,left,1,1,0.5735423806509061,L05N08,2022-10-06_12h01.45.324,t1_Paradigm,2021.1.4,60.00537070406885,
F,left,Distractor,0,63,63,63,659.4359709982309,661.4372484311989,left,1,1,0.5942466112901457,L05N08,2022-10-06_12h01.45.324,t1_Paradigm,2021.1.4,60.00537070406885,
F,left,Distractor,0,0,0,0,736.3780861539035,738.3693520027191,left,1,2,0.7339635164898937,L05N08,2022-10-06_12h01.45.324,t1_Paradigm,2021.1.4,60.00537070406885,
N,left,Pretarget,0,1,1,1,739.8692607345929,741.8715791695668,None,0,2,,L05N08,2022-10-06_12h01.45.324,t1_Paradigm,2021.1.4,60.00537070406885,
V,left,Distractor,0,2,2,2,743.3693305089946,745.3712604529283,left,1,2,0.9161154488865577,L05N08,2022-10-06_12h01.45.324,t1_Paradigm,2021.1.4,60.00537070406885,
N,right,Target,0,3,3,3,746.8691311306447,748.870510578603,right,1,2,0.6970523763557139,L05N08,2022-10-06_12h01.45.324,t1_Paradigm,2021.1.4,60.00537070406885,
N,left,Lure,0,4,4,4,750.3692400428718,752.3692471005143,left,1,2,1.038134999193062,L05N08,2022-10-06_12h01.45.324,t1_Paradigm,2021.1.4,60.00537070406885,
X,left,Distractor,0,5,5,5,753.8695465690416,755.8711210645233,left,1,2,0.7842421489349363,L05N08,2022-10-06_12h01.45.324,t1_Paradigm,2021.1.4,60.00537070406885,
G,left,Pretarget,0,6,6,6,757.3692557621634,759.3710102274854,left,1,2,0.6763664314239577,L05N08,2022-10-06_12h01.45.324,t1_Paradigm,2021.1.4,60.00537070406885,
H,left,Pretarget,0,7,7,7,760.8691856669593,762.8710463176922,left,1,2,0.5842138542120665,L05N08,2022-10-06_12h01.45.324,t1_Paradigm,2021.1.4,60.00537070406885,
G,right,Target,0,8,8,8,764.3693606643683,766.3684778176757,None,0,2,,L05N08,2022-10-06_12h01.45.324,t1_Paradigm,2021.1.4,60.00537070406885,
H,right,Target,0,9,9,9,767.8689187598193,769.8711525031049,right,1,2,1.0401714493400505,L05N08,2022-10-06_12h01.45.324,t1_Paradigm,2021.1.4,60.00537070406885,
T,left,Pretarget,0,10,10,10,771.36916497524,773.368295602224,left,1,2,0.7432157626626577,L05N08,2022-10-06_12h01.45.324,t1_Paradigm,2021.1.4,60.00537070406885,
K,left,Distractor,0,11,11,11,774.8693435014702,776.8710296359968,left,1,2,0.6804255372389889,L05N08,2022-10-06_12h01.45.324,t1_Paradigm,2021.1.4,60.00537070406885,
T,right,Target,0,12,12,12,778.36903152167,780.3714465180019,right,1,2,0.39607415527279954,L05N08,2022-10-06_12h01.45.324,t1_Paradigm,2021.1.4,60.00537070406885,
T,left,Lure,0,13,13,13,781.8683522237516,783.8691519827644,None,0,2,,L05N08,2022-10-06_12h01.45.324,t1_Paradigm,2021.1.4,60.00537070406885,
J,left,Distractor,0,14,14,14,785.3691701080697,787.3709759016856,left,1,2,1.1724710949511064,L05N08,2022-10-06_12h01.45.324,t1_Paradigm,2021.1.4,60.00537070406885,
Q,left,Pretarget,0,15,15,15,788.8691984990328,790.8711499366909,left,1,2,0.6963860709129222,L05N08,2022-10-06_12h01.45.324,t1_Paradigm,2021.1.4,60.00537070406885,
M,left,Distractor,0,16,16,16,792.3692156619327,794.3723409135619,left,1,2,0.6511558971888007,L05N08,2022-10-06_12h01.45.324,t1_Paradigm,2021.1.4,60.00537070406885,
Q,right,Target,0,17,17,17,795.869203952665,797.8705824382159,right,1,2,0.3527720006695745,L05N08,2022-10-06_12h01.45.324,t1_Paradigm,2021.1.4,60.00537070406885,
R,left,Distractor,0,18,18,18,799.3691996218386,801.3684191109369,left,1,2,1.1910326900306245,L05N08,2022-10-06_12h01.45.324,t1_Paradigm,2021.1.4,60.00537070406885,
W,left,Distractor,0,19,19,19,802.869160323613,804.8710187287343,left,1,2,0.8404235354355478,L05N08,2022-10-06_12h01.45.324,t1_Paradigm,2021.1.4,60.00537070406885,
C,left,Pretarget,0,20,20,20,806.3692695566424,808.3729812340553,left,1,2,0.6343660907314188,L05N08,2022-10-06_12h01.45.324,t1_Paradigm,2021.1.4,60.00537070406885,
T,left,Distractor,0,21,21,21,809.8691683436591,811.8685084542522,left,1,2,0.6431076203589328,L05N08,2022-10-06_12h01.45.324,t1_Paradigm,2021.1.4,60.00537070406885,
C,right,Target,0,22,22,22,813.3691354614693,815.3713127436295,right,1,2,0.40407174540814594,L05N08,2022-10-06_12h01.45.324,t1_Paradigm,2021.1.4,60.00537070406885,
F,left,Pretarget,0,23,23,23,816.8692402032739,818.8712407236144,left,1,2,0.5201330429426889,L05N08,2022-10-06_12h01.45.324,t1_Paradigm,2021.1.4,60.00537070406885,
C,right,Target,0,24,24,24,820.3693388498432,822.3710134355024,right,1,2,0.41249086917741806,L05N08,2022-10-06_12h01.45.324,t1_Paradigm,2021.1.4,60.00537070406885,
F,right,Target,0,25,25,25,823.8692296168119,825.8708993904456,right,1,2,0.5126205052056321,L05N08,2022-10-06_12h01.45.324,t1_Paradigm,2021.1.4,60.00537070406885,
H,left,Distractor,0,26,26,26,827.3691223085934,829.3709685232443,left,1,2,0.516388322939747,L05N08,2022-10-06_12h01.45.324,t1_Paradigm,2021.1.4,60.00537070406885,
H,left,Lure,0,27,27,27,830.8691580779996,832.8689957522638,left,1,2,1.4183323500747065,L05N08,2022-10-06_12h01.45.324,t1_Paradigm,2021.1.4,60.00537070406885,
P,left,Distractor,0,28,28,28,834.3691803737293,836.3709890545615,left,1,2,0.7484140358501463,L05N08,2022-10-06_12h01.45.324,t1_Paradigm,2021.1.4,60.00537070406885,
G,left,Pretarget,0,29,29,29,837.8689383287328,839.8712631797443,left,1,2,0.4480219197484985,L05N08,2022-10-06_12h01.45.324,t1_Paradigm,2021.1.4,60.00537070406885,
K,left,Distractor,0,30,30,30,841.3691123637363,843.3684819881,left,1,2,0.48734067777149903,L05N08,2022-10-06_12h01.45.324,t1_Paradigm,2021.1.4,60.00537070406885,
G,right,Target,0,31,31,31,844.8692055566735,846.8706741875467,left,0,2,0.9844606791557453,L05N08,2022-10-06_12h01.45.324,t1_Paradigm,2021.1.4,60.00537070406885,
M,left,Pretarget,0,32,32,32,848.3691794113238,850.3714243826744,left,1,2,0.6998314827887953,L05N08,2022-10-06_12h01.45.324,t1_Paradigm,2021.1.4,60.00537070406885,
B,left,Distractor,0,33,33,33,851.8692215967658,853.8819372197195,left,1,2,0.5338123546571296,L05N08,2022-10-06_12h01.45.324,t1_Paradigm,2021.1.4,60.00537070406885,
M,right,Target,0,34,34,34,855.3690943988331,857.3710926735603,right,1,2,0.4522959628047829,L05N08,2022-10-06_12h01.45.324,t1_Paradigm,2021.1.4,60.00537070406885,
M,left,Lure,0,35,35,35,858.8691924037976,860.869260092988,left,1,2,0.618067752709976,L05N08,2022-10-06_12h01.45.324,t1_Paradigm,2021.1.4,60.00537070406885,
T,left,Distractor,0,36,36,36,862.3691020980768,864.3713916608849,left,1,2,0.5079865224724927,L05N08,2022-10-06_12h01.45.324,t1_Paradigm,2021.1.4,60.00537070406885,
F,left,Distractor,0,37,37,37,865.8689771457557,867.8712288539464,left,1,2,1.104121052652772,L05N08,2022-10-06_12h01.45.324,t1_Paradigm,2021.1.4,60.00537070406885,
X,left,Distractor,0,38,38,38,869.369188714576,871.370984884139,left,1,2,1.0605013042204519,L05N08,2022-10-06_12h01.45.324,t1_Paradigm,2021.1.4,60.00537070406885,
C,left,Distractor,0,39,39,39,872.869183421346,874.8710642825972,left,1,2,0.6803793417711859,L05N08,2022-10-06_12h01.45.324,t1_Paradigm,2021.1.4,60.00537070406885,
R,left,Distractor,0,40,40,40,876.3691056268981,878.3710066986641,left,1,2,0.8284589096147101,L05N08,2022-10-06_12h01.45.324,t1_Paradigm,2021.1.4,60.00537070406885,
B,left,Pretarget,0,41,41,41,879.8691051456954,881.8709423778928,left,1,2,0.736368567962927,L05N08,2022-10-06_12h01.45.324,t1_Paradigm,2021.1.4,60.00537070406885,
H,left,Distractor,0,42,42,42,883.3691765241056,885.3711064680392,left,1,2,0.6445878000977245,L05N08,2022-10-06_12h01.45.324,t1_Paradigm,2021.1.4,60.00537070406885,
B,right,Target,0,43,43,43,886.8692055566735,888.8714197310474,right,1,2,0.34405709759630554,L05N08,2022-10-06_12h01.45.324,t1_Paradigm,2021.1.4,60.00537070406885,
W,left,Pretarget,0,44,44,44,890.3692438924954,892.3820952146307,None,0,2,,L05N08,2022-10-06_12h01.45.324,t1_Paradigm,2021.1.4,60.00537070406885,
L,left,Pretarget,0,45,45,45,893.8691731556864,895.871574036737,None,0,2,,L05N08,2022-10-06_12h01.45.324,t1_Paradigm,2021.1.4,60.00537070406885,
W,right,Target,0,46,46,46,897.3690809251548,899.3710695758273,left,0,2,0.8042030816868646,L05N08,2022-10-06_12h01.45.324,t1_Paradigm,2021.1.4,60.00537070406885,
L,right,Target,0,47,47,47,900.8690223788162,902.8698988094729,right,1,2,0.9054430129199318,L05N08,2022-10-06_12h01.45.324,t1_Paradigm,2021.1.4,60.00537070406885,
W,right,Target,0,48,48,48,904.3691017772744,906.3713865280552,right,1,2,1.4519607248712418,L05N08,2022-10-06_12h01.45.324,t1_Paradigm,2021.1.4,60.00537070406885,
X,left,Distractor,0,49,49,49,907.8691038624875,909.8705785885941,left,1,2,0.8166585343406041,L05N08,2022-10-06_12h01.45.324,t1_Paradigm,2021.1.4,60.00537070406885,
R,left,Distractor,0,50,50,50,911.3691521431647,913.3703320523728,left,1,2,0.5168554104366194,L05N08,2022-10-06_12h01.45.324,t1_Paradigm,2021.1.4,60.00537070406885,
V,left,Pretarget,0,51,51,51,914.8692693962421,916.8709866485478,left,1,2,0.5843165108053654,L05N08,2022-10-06_12h01.45.324,t1_Paradigm,2021.1.4,60.00537070406885,
Z,left,Distractor,0,52,52,52,918.3690998524635,920.3713502774463,left,1,2,0.5719877748833824,L05N08,2022-10-06_12h01.45.324,t1_Paradigm,2021.1.4,60.00537070406885,
V,right,Target,0,53,53,53,921.8691051456954,923.8818303927037,right,1,2,0.38939473994105356,L05N08,2022-10-06_12h01.45.324,t1_Paradigm,2021.1.4,60.00537070406885,
V,left,Lure,0,54,54,54,925.3691893561809,927.3691588800048,left,1,2,0.9181194980483269,L05N08,2022-10-06_12h01.45.324,t1_Paradigm,2021.1.4,60.00537070406885,
N,left,Distractor,0,55,55,55,928.8691452459261,930.8709516811468,left,1,2,1.1446829178457847,L05N08,2022-10-06_12h01.45.324,t1_Paradigm,2021.1.4,60.00537070406885,
B,left,Distractor,0,56,56,56,932.3690661682704,934.371570026713,left,1,2,0.9238563975432044,L05N08,2022-10-06_12h01.45.324,t1_Paradigm,2021.1.4,60.00537070406885,
V,left,Lure,0,57,57,57,935.8690785191411,937.8711364630126,left,1,2,0.6881783555618313,L05N08,2022-10-06_12h01.45.324,t1_Paradigm,2021.1.4,60.00537070406885,
J,left,Distractor,0,58,58,58,939.3682914317997,941.3711132048793,left,1,2,0.5967427704890724,L05N08,2022-10-06_12h01.45.324,t1_Paradigm,2021.1.4,60.00537070406885,
H,left,Distractor,0,59,59,59,942.8690637622549,944.8712320619634,left,1,2,0.47215776778284635,L05N08,2022-10-06_12h01.45.324,t1_Paradigm,2021.1.4,60.00537070406885,
X,left,Pretarget,0,60,60,60,946.3690834915687,948.3709204029656,left,1,2,1.0683561375335557,L05N08,2022-10-06_12h01.45.324,t1_Paradigm,2021.1.4,60.00537070406885,
P,left,Distractor,0,61,61,61,949.8689919026419,951.870960342796,left,1,2,0.5446772717350541,L05N08,2022-10-06_12h01.45.324,t1_Paradigm,2021.1.4,60.00537070406885,
X,right,Target,0,62,62,62,953.3692673110309,955.3710230595589,left,0,2,0.7723330218341289,L05N08,2022-10-06_12h01.45.324,t1_Paradigm,2021.1.4,60.00537070406885,
Q,left,Distractor,0,63,63,63,956.8689129853865,958.8706186888267,left,1,2,0.4887457898767025,L05N08,2022-10-06_12h01.45.324,t1_Paradigm,2021.1.4,60.00537070406885,
B,left,Pretarget,0,0,0,0,976.0840972427413,978.087907085519,left,1,2,0.8073122932237311,L05N08,2022-10-06_12h01.45.324,t1_Paradigm,2021.1.4,60.00537070406885,
F,left,Distractor,0,1,1,1,979.5859022343539,981.5849427160174,left,1,2,0.4946405238824809,L05N08,2022-10-06_12h01.45.324,t1_Paradigm,2021.1.4,60.00537070406885,
B,right,Target,0,2,2,2,983.0856938735524,985.0880042884801,right,1,2,0.5114258391131443,L05N08,2022-10-06_12h01.45.324,t1_Paradigm,2021.1.4,60.00537070406885,
V,left,Distractor,0,3,3,3,986.5849302047463,988.5880952358038,left,1,2,0.48327419351153367,L05N08,2022-10-06_12h01.45.324,t1_Paradigm,2021.1.4,60.00537070406885,
G,left,Pretarget,0,4,4,4,990.0857708659951,992.0879090103299,left,1,2,0.6954871841262502,L05N08,2022-10-06_12h01.45.324,t1_Paradigm,2021.1.4,60.00537070406885,
B,left,Lure,0,5,5,5,993.5857084700365,995.5874141734748,left,1,2,0.6998478436817095,L05N08,2022-10-06_12h01.45.324,t1_Paradigm,2021.1.4,60.00537070406885,
G,right,Target,0,6,6,6,997.085781452457,999.0882686292043,left,0,2,0.5272253302573517,L05N08,2022-10-06_12h01.45.324,t1_Paradigm,2021.1.4,60.00537070406885,
Y,left,Pretarget,0,7,7,7,1000.5856475176843,1002.5880140729369,left,1,2,0.6276443295555509,L05N08,2022-10-06_12h01.45.324,t1_Paradigm,2021.1.4,60.00537070406885,
P,left,Distractor,0,8,8,8,1004.0849204202896,1006.0873963689737,left,1,2,0.5038642186918878,L05N08,2022-10-06_12h01.45.324,t1_Paradigm,2021.1.4,60.00537070406885,
Y,right,Target,0,9,9,9,1007.5857001291879,1009.5879845591662,right,1,2,0.4114899674041226,L05N08,2022-10-06_12h01.45.324,t1_Paradigm,2021.1.4,60.00537070406885,
X,left,Distractor,0,10,10,10,1011.085770224392,1013.0848129516689,left,1,2,0.8505316809478245,L05N08,2022-10-06_12h01.45.324,t1_Paradigm,2021.1.4,60.00537070406885,
Y,right,Target,0,11,11,11,1014.5850235580838,1016.5876942334908,right,1,2,0.5154903985621786,L05N08,2022-10-06_12h01.45.324,t1_Paradigm,2021.1.4,60.00537070406885,
N,left,Distractor,0,12,12,12,1018.0856925903445,1020.087983757161,left,1,2,0.6477967810096743,L05N08,2022-10-06_12h01.45.324,t1_Paradigm,2021.1.4,60.00537070406885,
Y,right,Target,0,13,13,13,1021.585741833429,1023.5879114163436,right,1,2,0.875517974687682,L05N08,2022-10-06_12h01.45.324,t1_Paradigm,2021.1.4,60.00537070406885,
Y,left,Lure,0,14,14,14,1025.0857079888337,1027.085814495047,left,1,2,0.9937190205655497,L05N08,2022-10-06_12h01.45.324,t1_Paradigm,2021.1.4,60.00537070406885,
K,left,Distractor,0,15,15,15,1028.585689542726,1030.5863783043005,left,1,2,0.6449679502893559,L05N08,2022-10-06_12h01.45.324,t1_Paradigm,2021.1.4,60.00537070406885,
T,left,Pretarget,0,16,16,16,1032.085738465008,1034.0875663939532,left,1,2,0.7755221130319114,L05N08,2022-10-06_12h01.45.324,t1_Paradigm,2021.1.4,60.00537070406885,
J,left,Distractor,0,17,17,17,1035.5855301042066,1037.5883993559582,left,1,2,0.714842442983354,L05N08,2022-10-06_12h01.45.324,t1_Paradigm,2021.1.4,60.00537070406885,
T,right,Target,0,18,18,18,1039.0856855327038,1041.0877482886026,right,1,2,0.6555932283863513,L05N08,2022-10-06_12h01.45.324,t1_Paradigm,2021.1.4,60.00537070406885,
S,left,Pretarget,0,19,19,19,1042.5857014123958,1044.5876108250104,left,1,2,0.5638904153711337,L05N08,2022-10-06_12h01.45.324,t1_Paradigm,2021.1.4,60.00537070406885,
R,left,Distractor,0,20,20,20,1046.0857063848234,1048.084762906581,left,1,2,0.7307455531263258,L05N08,2022-10-06_12h01.45.324,t1_Paradigm,2021.1.4,60.00537070406885,
S,right,Target,0,21,21,21,1049.5857168108832,1051.5876804390118,right,1,2,0.47566862323765235,L05N08,2022-10-06_12h01.45.324,t1_Paradigm,2021.1.4,60.00537070406885,
Q,left,Distractor,0,22,22,22,1053.085813853444,1055.0881909951568,left,1,2,0.7190548920843867,L05N08,2022-10-06_12h01.45.324,t1_Paradigm,2021.1.4,60.00537070406885,
D,left,Distractor,0,23,23,23,1056.5857501742757,1058.5849263551245,left,1,2,0.5508174191563739,L05N08,2022-10-06_12h01.45.324,t1_Paradigm,2021.1.4,60.00537070406885,
F,left,Distractor,0,24,24,24,1060.085724028926,1062.0873123188885,left,1,2,0.58392032051961,L05N08,2022-10-06_12h01.45.324,t1_Paradigm,2021.1.4,60.00537070406885,
Z,left,Distractor,0,25,25,25,1063.5853119589483,1065.5867122590262,left,1,2,0.5086101612705534,L05N08,2022-10-06_12h01.45.324,t1_Paradigm,2021.1.4,60.00537070406885,
P,left,Distractor,0,26,26,26,1067.085724670529,1069.0876783537988,left,1,2,1.183529455543976,L05N08,2022-10-06_12h01.45.324,t1_Paradigm,2021.1.4,60.00537070406885,
H,left,Distractor,0,27,27,27,1070.5857902745083,1072.5878427647476,left,1,2,0.6593408356056898,L05N08,2022-10-06_12h01.45.324,t1_Paradigm,2021.1.4,60.00537070406885,
Z,left,Pretarget,0,28,28,28,1074.0856775126576,1076.0849547460875,left,1,2,0.6984305411060632,L05N08,2022-10-06_12h01.45.324,t1_Paradigm,2021.1.4,60.00537070406885,
J,left,Pretarget,0,29,29,29,1077.5858165802601,1079.5876756269845,left,1,2,0.635543754326136,L05N08,2022-10-06_12h01.45.324,t1_Paradigm,2021.1.4,60.00537070406885,
Z,right,Target,0,30,30,30,1081.0856313171898,1083.0879908148017,right,1,2,0.5592249940564216,L05N08,2022-10-06_12h01.45.324,t1_Paradigm,2021.1.4,60.00537070406885,
J,right,Target,0,31,31,31,1084.585742475032,1086.5878924890349,left,0,2,1.1074150460572127,L05N08,2022-10-06_12h01.45.324,t1_Paradigm,2021.1.4,60.00537070406885,
V,left,Pretarget,0,32,32,32,1088.085457763389,1090.0875692811696,left,1,2,1.1758452888170723,L05N08,2022-10-06_12h01.45.324,t1_Paradigm,2021.1.4,60.00537070406885,
Z,left,Lure,0,33,33,33,1091.5857049412152,1093.5880102233132,left,1,2,0.6032277799004078,L05N08,2022-10-06_12h01.45.324,t1_Paradigm,2021.1.4,60.00537070406885,
V,right,Target,0,34,34,34,1095.0856447908682,1097.0873164893128,right,1,2,0.4319577670776198,L05N08,2022-10-06_12h01.45.324,t1_Paradigm,2021.1.4,60.00537070406885,
X,left,Distractor,0,35,35,35,1098.5856805602743,1100.5881080678791,left,1,2,0.8511813046934549,L05N08,2022-10-06_12h01.45.324,t1_Paradigm,2021.1.4,60.00537070406885,
S,left,Distractor,0,36,36,36,1102.0857785652406,1104.0877120379937,right,0,2,1.2396255087514874,L05N08,2022-10-06_12h01.45.324,t1_Paradigm,2021.1.4,60.00537070406885,
Q,left,Distractor,0,37,37,37,1105.5857658935674,1107.5875954265211,left,1,2,0.8442064308583213,L05N08,2022-10-06_12h01.45.324,t1_Paradigm,2021.1.4,60.00537070406885,
P,left,Distractor,0,38,38,38,1109.084898284962,1111.087695677099,left,1,2,0.9436434556901077,L05N08,2022-10-06_12h01.45.324,t1_Paradigm,2021.1.4,60.00537070406885,
S,left,Lure,0,39,39,39,1112.5856484800897,1114.587909170732,left,1,2,0.643393454809484,L05N08,2022-10-06_12h01.45.324,t1_Paradigm,2021.1.4,60.00537070406885,
K,left,Pretarget,0,40,40,40,1116.0856441492651,1118.0875218024958,left,1,2,0.711865401808609,L05N08,2022-10-06_12h01.45.324,t1_Paradigm,2021.1.4,60.00537070406885,
L,left,Distractor,0,41,41,41,1119.5856003598128,1121.5878546344156,left,1,2,0.7634612466554245,L05N08,2022-10-06_12h01.45.324,t1_Paradigm,2021.1.4,60.00537070406885,
K,right,Target,0,42,42,42,1123.0858529912693,1125.0848402198262,right,1,2,0.45088411385950167,L05N08,2022-10-06_12h01.45.324,t1_Paradigm,2021.1.4,60.00537070406885,
B,left,Distractor,0,43,43,43,1126.5848297937664,1128.584997252332,left,1,2,1.0783715713096171,L05N08,2022-10-06_12h01.45.324,t1_Paradigm,2021.1.4,60.00537070406885,
N,left,Distractor,0,44,44,44,1130.0858873170673,1132.0875189152794,left,1,2,1.1436730336208711,L05N08,2022-10-06_12h01.45.324,t1_Paradigm,2021.1.4,60.00537070406885,
S,left,Pretarget,0,45,45,45,1133.585685693104,1135.587499506768,left,1,2,0.748087138765186,L05N08,2022-10-06_12h01.45.324,t1_Paradigm,2021.1.4,60.00537070406885,
Z,left,Distractor,0,46,46,46,1137.0858298935364,1139.0870123691584,left,1,2,0.6242553788051737,L05N08,2022-10-06_12h01.45.324,t1_Paradigm,2021.1.4,60.00537070406885,
S,right,Target,0,47,47,47,1140.5848766308372,1142.5867943843004,right,1,2,0.40441949461637705,L05N08,2022-10-06_12h01.45.324,t1_Paradigm,2021.1.4,60.00537070406885,
C,left,Distractor,0,48,48,48,1144.0857461642536,1146.0877765191653,left,1,2,0.9034235652688949,L05N08,2022-10-06_12h01.45.324,t1_Paradigm,2021.1.4,60.00537070406885,
T,left,Pretarget,0,49,49,49,1147.585620249527,1149.5877519778242,left,1,2,0.8115430280286091,L05N08,2022-10-06_12h01.45.324,t1_Paradigm,2021.1.4,60.00537070406885,
S,left,Lure,0,50,50,50,1151.0856678886012,1153.0869350559115,left,1,2,0.5925226221443154,L05N08,2022-10-06_12h01.45.324,t1_Paradigm,2021.1.4,60.00537070406885,
T,right,Target,0,51,51,51,1154.5856257031573,1156.587620449065,right,1,2,0.5155670702042698,L05N08,2022-10-06_12h01.45.324,t1_Paradigm,2021.1.4,60.00537070406885,
N,left,Pretarget,0,52,52,52,1158.0857224249157,1160.0879789451337,left,1,2,0.9512766149255185,L05N08,2022-10-06_12h01.45.324,t1_Paradigm,2021.1.4,60.00537070406885,
B,left,Distractor,0,53,53,53,1161.5856058134432,1163.587556930299,left,1,2,0.9717437729959784,L05N08,2022-10-06_12h01.45.324,t1_Paradigm,2021.1.4,60.00537070406885,
N,right,Target,0,54,54,54,1165.0857734324109,1167.087578263623,right,1,2,0.415602647128253,L05N08,2022-10-06_12h01.45.324,t1_Paradigm,2021.1.4,60.00537070406885,
N,left,Lure,0,55,55,55,1168.5855955477837,1170.5857851416786,left,1,2,0.6936627840022993,L05N08,2022-10-06_12h01.45.324,t1_Paradigm,2021.1.4,60.00537070406885,
X,left,Distractor,0,56,56,56,1172.0857811316546,1174.0877229452562,left,1,2,0.9514447150941123,L05N08,2022-10-06_12h01.45.324,t1_Paradigm,2021.1.4,60.00537070406885,
W,left,Distractor,0,57,57,57,1175.5857492118703,1177.5875498726582,left,1,2,0.8118262960633729,L05N08,2022-10-06_12h01.45.324,t1_Paradigm,2021.1.4,60.00537070406885,
S,left,Distractor,0,58,58,58,1179.0856576229417,1181.087366855203,left,1,2,0.7038052553107264,L05N08,2022-10-06_12h01.45.324,t1_Paradigm,2021.1.4,60.00537070406885,
L,left,Distractor,0,59,59,59,1182.5855779036829,1184.5870016222962,left,1,2,0.8841655093747249,L05N08,2022-10-06_12h01.45.324,t1_Paradigm,2021.1.4,60.00537070406885,
K,left,Pretarget,0,60,60,60,1186.0855687608291,1188.0875628651338,left,1,2,0.7598073135777668,L05N08,2022-10-06_12h01.45.324,t1_Paradigm,2021.1.4,60.00537070406885,
V,left,Pretarget,0,61,61,61,1189.5857283597506,1191.587743957778,left,1,2,0.5075531191723712,L05N08,2022-10-06_12h01.45.324,t1_Paradigm,2021.1.4,60.00537070406885,
K,right,Target,0,62,62,62,1193.085583196913,1195.0874582837296,right,1,2,0.44808255129828467,L05N08,2022-10-06_12h01.45.324,t1_Paradigm,2021.1.4,60.00537070406885,
V,right,Target,0,63,63,63,1196.5855134225112,1198.587467105781,right,1,2,0.45199088024673983,L05N08,2022-10-06_12h01.45.324,t1_Paradigm,2021.1.4,60.00537070406885,
R,left,Distractor,0,0,0,0,1272.1656662460955,1274.1710698324678,left,1,3,0.6122079861052043,L05N08,2022-10-06_12h01.45.324,t1_Paradigm,2021.1.4,60.00537070406885,
P,left,Lure,0,1,1,1,1275.6689427557976,1277.670970223493,left,1,3,0.8242586509841203,L05N08,2022-10-06_12h01.45.324,t1_Paradigm,2021.1.4,60.00537070406885,
V,left,Distractor,0,2,2,2,1279.1690154174175,1281.1708548952283,left,1,3,0.572350601776634,L05N08,2022-10-06_12h01.45.324,t1_Paradigm,2021.1.4,60.00537070406885,
P,left,Pretarget,0,3,3,3,1282.6688471568468,1284.6711210003632,left,1,3,0.6241379653256445,L05N08,2022-10-06_12h01.45.324,t1_Paradigm,2021.1.4,60.00537070406885,
Z,left,Distractor,0,4,4,4,1286.1688405804089,1288.170758975475,left,1,3,0.5804489236943482,L05N08,2022-10-06_12h01.45.324,t1_Paradigm,2021.1.4,60.00537070406885,
L,left,Pretarget,0,5,5,5,1289.668923828489,1291.6708563388365,left,1,3,0.9042884470600256,L05N08,2022-10-06_12h01.45.324,t1_Paradigm,2021.1.4,60.00537070406885,
P,right,Target,0,6,6,6,1293.168849883661,1295.1711577321748,right,1,3,1.1961517251602345,L05N08,2022-10-06_12h01.45.324,t1_Paradigm,2021.1.4,60.00537070406885,
S,left,Distractor,0,7,7,7,1296.668098726128,1298.6708781533634,None,0,3,,L05N08,2022-10-06_12h01.45.324,t1_Paradigm,2021.1.4,60.00537070406885,
L,right,Target,0,8,8,8,1300.1689156480406,1302.170910073146,None,0,3,,L05N08,2022-10-06_12h01.45.324,t1_Paradigm,2021.1.4,60.00537070406885,
D,left,Distractor,0,9,9,9,1303.6680422650024,1305.6710863537628,left,1,3,1.3040643348867889,L05N08,2022-10-06_12h01.45.324,t1_Paradigm,2021.1.4,60.00537070406885,
G,left,Distractor,0,10,10,10,1307.1690125301993,1309.1712953561691,left,1,3,1.0517767770888895,L05N08,2022-10-06_12h01.45.324,t1_Paradigm,2021.1.4,60.00537070406885,
M,left,Pretarget,0,11,11,11,1310.6685991770155,1312.6711181131468,left,1,3,0.9759886230840493,L05N08,2022-10-06_12h01.45.324,t1_Paradigm,2021.1.4,60.00537070406885,
Y,left,Distractor,0,12,12,12,1314.1678085608546,1316.1696499634782,left,1,3,0.8854477543700341,L05N08,2022-10-06_12h01.45.324,t1_Paradigm,2021.1.4,60.00537070406885,
V,left,Distractor,0,13,13,13,1317.6688830866533,1319.6709699026924,left,1,3,1.0802716806701937,L05N08,2022-10-06_12h01.45.324,t1_Paradigm,2021.1.4,60.00537070406885,
M,right,Target,0,14,14,14,1321.1688197282874,1323.1712302333945,right,1,3,0.44403563595187734,L05N08,2022-10-06_12h01.45.324,t1_Paradigm,2021.1.4,60.00537070406885,
S,left,Pretarget,0,15,15,15,1324.6687948661438,1326.6711813111106,right,0,3,1.071940135807381,L05N08,2022-10-06_12h01.45.324,t1_Paradigm,2021.1.4,60.00537070406885,
Q,left,Distractor,0,16,16,16,1328.1689679387437,1330.1712385742412,left,1,3,0.8837657902677165,L05N08,2022-10-06_12h01.45.324,t1_Paradigm,2021.1.4,60.00537070406885,
R,left,Pretarget,0,17,17,17,1331.6689713071628,1333.6713497320834,left,1,3,0.7118637978001061,L05N08,2022-10-06_12h01.45.324,t1_Paradigm,2021.1.4,60.00537070406885,
S,right,Target,0,18,18,18,1335.1687350365992,1337.1710265242182,right,1,3,0.42824737287446624,L05N08,2022-10-06_12h01.45.324,t1_Paradigm,2021.1.4,60.00537070406885,
F,left,Distractor,0,19,19,19,1338.668988630463,1340.6702769706953,left,1,3,0.8653273831005208,L05N08,2022-10-06_12h01.45.324,t1_Paradigm,2021.1.4,60.00537070406885,
R,right,Target,0,20,20,20,1342.16885982852,1344.1710842685516,right,1,3,1.0759928255865816,L05N08,2022-10-06_12h01.45.324,t1_Paradigm,2021.1.4,60.00537070406885,
P,left,Distractor,0,21,21,21,1345.6688846906618,1347.6701832965537,left,1,3,1.3529802010725689,L05N08,2022-10-06_12h01.45.324,t1_Paradigm,2021.1.4,60.00537070406885,
L,left,Distractor,0,22,22,22,1349.1688437884259,1351.1704824442804,left,1,3,1.2287634788917785,L05N08,2022-10-06_12h01.45.324,t1_Paradigm,2021.1.4,60.00537070406885,
R,right,Target,0,23,23,23,1352.6689116380185,1354.6709766395306,left,0,3,0.8646171278032853,L05N08,2022-10-06_12h01.45.324,t1_Paradigm,2021.1.4,60.00537070406885,
H,left,Pretarget,0,24,24,24,1356.1689551066684,1358.170684228644,left,1,3,1.4285700995351363,L05N08,2022-10-06_12h01.45.324,t1_Paradigm,2021.1.4,60.00537070406885,
G,left,Pretarget,0,25,25,25,1359.6688798786345,1361.6710321382507,left,1,3,1.224030047584165,L05N08,2022-10-06_12h01.45.324,t1_Paradigm,2021.1.4,60.00537070406885,
T,left,Distractor,0,26,26,26,1363.168804971403,1365.1706781334087,left,1,3,1.1485071967090335,L05N08,2022-10-06_12h01.45.324,t1_Paradigm,2021.1.4,60.00537070406885,
H,right,Target,0,27,27,27,1366.6688019237845,1368.6706147750428,right,1,3,0.6250403809335694,L05N08,2022-10-06_12h01.45.324,t1_Paradigm,2021.1.4,60.00537070406885,
G,right,Target,0,28,28,28,1370.1689711467607,1372.171062133224,right,1,3,1.2520620340965252,L05N08,2022-10-06_12h01.45.324,t1_Paradigm,2021.1.4,60.00537070406885,
D,left,Distractor,0,29,29,29,1373.668947567825,1375.6681086709868,left,1,3,1.195065490093839,L05N08,2022-10-06_12h01.45.324,t1_Paradigm,2021.1.4,60.00537070406885,
N,left,Pretarget,0,30,30,30,1377.1685672572312,1379.1704567801316,None,0,3,,L05N08,2022-10-06_12h01.45.324,t1_Paradigm,2021.1.4,60.00537070406885,
V,left,Distractor,0,31,31,31,1380.6686739238467,1382.6710186645723,left,1,3,1.3281565538709401,L05N08,2022-10-06_12h01.45.324,t1_Paradigm,2021.1.4,60.00537070406885,
R,left,Distractor,0,32,32,32,1384.1688707357825,1386.171107687087,left,1,3,0.7877552500012825,L05N08,2022-10-06_12h01.45.324,t1_Paradigm,2021.1.4,60.00537070406885,
N,right,Target,0,33,33,33,1387.668711136861,1389.6680727411785,left,0,3,0.9390264754565578,L05N08,2022-10-06_12h01.45.324,t1_Paradigm,2021.1.4,60.00537070406885,
Z,left,Distractor,0,34,34,34,1391.1688325603627,1393.170809020563,left,1,3,1.13223259802362,L05N08,2022-10-06_12h01.45.324,t1_Paradigm,2021.1.4,60.00537070406885,
N,left,Lure,0,35,35,35,1394.6688609513258,1396.6708438275637,right,0,3,0.7203294378359715,L05N08,2022-10-06_12h01.45.324,t1_Paradigm,2021.1.4,60.00537070406885,
Y,left,Pretarget,0,36,36,36,1398.1688518084738,1400.1706300131318,left,1,3,1.0926100406486512,L05N08,2022-10-06_12h01.45.324,t1_Paradigm,2021.1.4,60.00537070406885,
Y,left,Lure,0,37,37,37,1401.6688391368007,1403.6688413824122,left,1,3,1.2263391793057963,L05N08,2022-10-06_12h01.45.324,t1_Paradigm,2021.1.4,60.00537070406885,
B,left,Distractor,0,38,38,38,1405.1688216530983,1407.1708122285818,left,1,3,0.7806754739594908,L05N08,2022-10-06_12h01.45.324,t1_Paradigm,2021.1.4,60.00537070406885,
Y,right,Target,0,39,39,39,1408.6687598987428,1410.6708078977572,right,1,3,0.6243416745019204,L05N08,2022-10-06_12h01.45.324,t1_Paradigm,2021.1.4,60.00537070406885,
J,left,Distractor,0,40,40,40,1412.168770645605,1414.1700028455125,left,1,3,0.6772871327357279,L05N08,2022-10-06_12h01.45.324,t1_Paradigm,2021.1.4,60.00537070406885,
X,left,Distractor,0,41,41,41,1415.6689289613187,1417.6704017626143,left,1,3,0.7128393562270503,L05N08,2022-10-06_12h01.45.324,t1_Paradigm,2021.1.4,60.00537070406885,
W,left,Pretarget,0,42,42,42,1419.1687462646642,1421.1708026045271,left,1,3,0.9243706429097074,L05N08,2022-10-06_12h01.45.324,t1_Paradigm,2021.1.4,60.00537070406885,
S,left,Pretarget,0,43,43,43,1422.6679386460055,1424.670754323848,left,1,3,1.04039568983535,L05N08,2022-10-06_12h01.45.324,t1_Paradigm,2021.1.4,60.00537070406885,
R,left,Distractor,0,44,44,44,1426.1688348059743,1428.1694459335013,left,1,3,1.1897087407924118,L05N08,2022-10-06_12h01.45.324,t1_Paradigm,2021.1.4,60.00537070406885,
W,right,Target,0,45,45,45,1429.668765352375,1431.671046253532,left,0,3,0.9840093109523878,L05N08,2022-10-06_12h01.45.324,t1_Paradigm,2021.1.4,60.00537070406885,
S,right,Target,0,46,46,46,1433.1687898937162,1435.1706338627537,right,1,3,0.8446196236418473,L05N08,2022-10-06_12h01.45.324,t1_Paradigm,2021.1.4,60.00537070406885,
D,left,Distractor,0,47,47,47,1436.668845232036,1438.670609642213,left,1,3,0.8805744534583937,L05N08,2022-10-06_12h01.45.324,t1_Paradigm,2021.1.4,60.00537070406885,
T,left,Distractor,0,48,48,48,1440.168538064263,1442.1705790056367,left,1,3,0.788451069216535,L05N08,2022-10-06_12h01.45.324,t1_Paradigm,2021.1.4,60.00537070406885,
S,right,Target,0,49,49,49,1443.6680336033533,1445.671012569337,right,1,3,0.488104827778443,L05N08,2022-10-06_12h01.45.324,t1_Paradigm,2021.1.4,60.00537070406885,
K,left,Distractor,0,50,50,50,1447.168829352344,1449.1679445808386,left,1,3,0.9591632076208043,L05N08,2022-10-06_12h01.45.324,t1_Paradigm,2021.1.4,60.00537070406885,
S,left,Lure,0,51,51,51,1450.6685921193748,1452.6680031271771,right,0,3,0.4512562440086185,L05N08,2022-10-06_12h01.45.324,t1_Paradigm,2021.1.4,60.00537070406885,
T,left,Pretarget,0,52,52,52,1454.1688277483336,1456.1708292310796,left,1,3,0.6284360685222055,L05N08,2022-10-06_12h01.45.324,t1_Paradigm,2021.1.4,60.00537070406885,
V,left,Distractor,0,53,53,53,1457.6687252521424,1459.6710087197152,left,1,3,0.6160313025611686,L05N08,2022-10-06_12h01.45.324,t1_Paradigm,2021.1.4,60.00537070406885,
B,left,Distractor,0,54,54,54,1461.1689098736078,1463.1707336321288,left,1,3,0.8128288018469902,L05N08,2022-10-06_12h01.45.324,t1_Paradigm,2021.1.4,60.00537070406885,
T,right,Target,0,55,55,55,1464.6686392772463,1466.67068021862,right,1,3,0.4003026444661373,L05N08,2022-10-06_12h01.45.324,t1_Paradigm,2021.1.4,60.00537070406885,
Y,left,Pretarget,0,56,56,56,1468.1687597383425,1470.170995406439,left,1,3,0.7560080572584411,L05N08,2022-10-06_12h01.45.324,t1_Paradigm,2021.1.4,60.00537070406885,
T,left,Lure,0,57,57,57,1471.6687156280877,1473.6705875068856,right,0,3,1.048626823718223,L05N08,2022-10-06_12h01.45.324,t1_Paradigm,2021.1.4,60.00537070406885,
P,left,Pretarget,0,58,58,58,1475.168894795921,1477.1704375320205,left,1,3,1.2927259142779803,L05N08,2022-10-06_12h01.45.324,t1_Paradigm,2021.1.4,60.00537070406885,
Y,right,Target,0,59,59,59,1478.6688673673634,1480.6706824642333,right,1,3,0.4003225341803045,L05N08,2022-10-06_12h01.45.324,t1_Paradigm,2021.1.4,60.00537070406885,
R,left,Distractor,0,60,60,60,1482.1679041598054,1484.17030375765,left,1,3,0.6449952184484573,L05N08,2022-10-06_12h01.45.324,t1_Paradigm,2021.1.4,60.00537070406885,
P,right,Target,0,61,61,61,1485.6688548560905,1487.6705101936404,right,1,3,0.8085406435093319,L05N08,2022-10-06_12h01.45.324,t1_Paradigm,2021.1.4,60.00537070406885,
L,left,Distractor,0,62,62,62,1489.1688043298,1491.1707641083049,left,1,3,1.1804074119336292,L05N08,2022-10-06_12h01.45.324,t1_Paradigm,2021.1.4,60.00537070406885,
V,left,Distractor,0,63,63,63,1492.6687631067616,1494.6710023036794,right,0,3,1.1999991017564753,L05N08,2022-10-06_12h01.45.324,t1_Paradigm,2021.1.4,60.00537070406885,
H,left,Lure,0,0,0,0,1508.8490729949335,1510.8537961605798,left,1,3,0.6011922921570658,L05N08,2022-10-06_12h01.45.324,t1_Paradigm,2021.1.4,60.00537070406885,
B,left,Distractor,0,1,1,1,1512.3521133944723,1514.353664150618,left,1,3,0.41353026717297325,L05N08,2022-10-06_12h01.45.324,t1_Paradigm,2021.1.4,60.00537070406885,
T,left,Distractor,0,2,2,2,1515.8522223067012,1517.8535693536724,left,1,3,0.5616521808588004,L05N08,2022-10-06_12h01.45.324,t1_Paradigm,2021.1.4,60.00537070406885,
R,left,Distractor,0,3,3,3,1519.352044422074,1521.3542630876727,left,1,3,1.1088823937207053,L05N08,2022-10-06_12h01.45.324,t1_Paradigm,2021.1.4,60.00537070406885,
H,left,Pretarget,0,4,4,4,1522.8521552591137,1524.854351789385,left,1,3,1.064512289758568,L05N08,2022-10-06_12h01.45.324,t1_Paradigm,2021.1.4,60.00537070406885,
K,left,Distractor,0,5,5,5,1526.352040572452,1528.3540497544436,left,1,3,0.6854717503483698,L05N08,2022-10-06_12h01.45.324,t1_Paradigm,2021.1.4,60.00537070406885,
G,left,Distractor,0,6,6,6,1529.8521873392983,1531.853502947688,left,1,3,0.6735818713586923,L05N08,2022-10-06_12h01.45.324,t1_Paradigm,2021.1.4,60.00537070406885,
H,right,Target,0,7,7,7,1533.3519966225995,1535.3537459550898,left,0,3,1.42936408411515,L05N08,2022-10-06_12h01.45.324,t1_Paradigm,2021.1.4,60.00537070406885,
Y,left,Pretarget,0,8,8,8,1536.8521927929305,1538.8539543158931,left,1,3,0.9210378324823978,L05N08,2022-10-06_12h01.45.324,t1_Paradigm,2021.1.4,60.00537070406885,
S,left,Distractor,0,9,9,9,1540.3512674399917,1542.3538938447437,left,1,3,0.6850867881294107,L05N08,2022-10-06_12h01.45.324,t1_Paradigm,2021.1.4,60.00537070406885,
P,left,Distractor,0,10,10,10,1543.8521103468556,1545.8538455640646,left,1,3,0.609233832148675,L05N08,2022-10-06_12h01.45.324,t1_Paradigm,2021.1.4,60.00537070406885,
Y,right,Target,0,11,11,11,1547.3520283819817,1549.3542723909268,left,0,3,1.092719754882637,L05N08,2022-10-06_12h01.45.324,t1_Paradigm,2021.1.4,60.00537070406885,
H,left,Lure,0,12,12,12,1550.8520070486593,1552.851331760763,left,1,3,0.795690925382587,L05N08,2022-10-06_12h01.45.324,t1_Paradigm,2021.1.4,60.00537070406885,
Q,left,Distractor,0,13,13,13,1554.3518355800697,1556.3538752382356,left,1,3,0.7814059397733217,L05N08,2022-10-06_12h01.45.324,t1_Paradigm,2021.1.4,60.00537070406885,
V,left,Pretarget,0,14,14,14,1557.8519762516808,1559.8544031176807,right,0,3,1.248584542034223,L05N08,2022-10-06_12h01.45.324,t1_Paradigm,2021.1.4,60.00537070406885,
G,left,Distractor,0,15,15,15,1561.3520447428764,1563.3537552583439,left,1,3,1.1893253825801366,L05N08,2022-10-06_12h01.45.324,t1_Paradigm,2021.1.4,60.00537070406885,
Z,left,Pretarget,0,16,16,16,1564.852002236632,1566.8543857943823,left,1,3,1.2727085204005562,L05N08,2022-10-06_12h01.45.324,t1_Paradigm,2021.1.4,60.00537070406885,
V,right,Target,0,17,17,17,1568.352066878204,1570.3540366015677,left,0,3,0.7649327647450264,L05N08,2022-10-06_12h01.45.324,t1_Paradigm,2021.1.4,60.00537070406885,
N,left,Distractor,0,18,18,18,1571.8520025574326,1573.8540226466866,left,1,3,0.7689456750940735,L05N08,2022-10-06_12h01.45.324,t1_Paradigm,2021.1.4,60.00537070406885,
Z,right,Target,0,19,19,19,1575.3520777854665,1577.3534094339484,right,1,3,0.4215689199463668,L05N08,2022-10-06_12h01.45.324,t1_Paradigm,2021.1.4,60.00537070406885,
R,left,Distractor,0,20,20,20,1578.8520657553981,1580.8542196190228,left,1,3,0.9853746436292568,L05N08,2022-10-06_12h01.45.324,t1_Paradigm,2021.1.4,60.00537070406885,
P,left,Distractor,0,21,21,21,1582.3520659157984,1584.3540917794853,left,1,3,1.181419541773721,L05N08,2022-10-06_12h01.45.324,t1_Paradigm,2021.1.4,60.00537070406885,
Z,right,Target,0,22,22,22,1585.8520237303546,1587.854349222971,right,1,3,0.8967216938071942,L05N08,2022-10-06_12h01.45.324,t1_Paradigm,2021.1.4,60.00537070406885,
D,left,Pretarget,0,23,23,23,1589.3520303067926,1591.3542120801794,left,1,3,0.644898977892808,L05N08,2022-10-06_12h01.45.324,t1_Paradigm,2021.1.4,60.00537070406885,
K,left,Distractor,0,24,24,24,1592.8520526025222,1594.8543598094311,left,1,3,1.0004921100389765,L05N08,2022-10-06_12h01.45.324,t1_Paradigm,2021.1.4,60.00537070406885,
W,left,Distractor,0,25,25,25,1596.3520267779732,1598.3539352281823,left,1,3,0.6531211293258821,L05N08,2022-10-06_12h01.45.324,t1_Paradigm,2021.1.4,60.00537070406885,
D,right,Target,0,26,26,26,1599.8518302868397,1601.8512903773244,right,1,3,0.4516918929202802,L05N08,2022-10-06_12h01.45.324,t1_Paradigm,2021.1.4,60.00537070406885,
G,left,Pretarget,0,27,27,27,1603.3513036906006,1605.3541168020292,left,1,3,0.8688818676055234,L05N08,2022-10-06_12h01.45.324,t1_Paradigm,2021.1.4,60.00537070406885,
V,left,Distractor,0,28,28,28,1606.8520224471486,1608.8538635289678,left,1,3,1.2412247059783112,L05N08,2022-10-06_12h01.45.324,t1_Paradigm,2021.1.4,60.00537070406885,
D,right,Target,0,29,29,29,1610.352031269198,1612.3537472382977,right,1,3,0.4453380914656009,L05N08,2022-10-06_12h01.45.324,t1_Paradigm,2021.1.4,60.00537070406885,
G,right,Target,0,30,30,30,1613.8519637404097,1615.8539289725468,right,1,3,0.5611712988848012,L05N08,2022-10-06_12h01.45.324,t1_Paradigm,2021.1.4,60.00537070406885,
B,left,Pretarget,0,31,31,31,1617.351825956015,1619.3512244525446,left,1,3,0.7118471161029447,L05N08,2022-10-06_12h01.45.324,t1_Paradigm,2021.1.4,60.00537070406885,
N,left,Distractor,0,32,32,32,1620.8521238205321,1622.852616572176,right,0,3,1.0500970585999312,L05N08,2022-10-06_12h01.45.324,t1_Paradigm,2021.1.4,60.00537070406885,
F,left,Distractor,0,33,33,33,1624.3520216451434,1626.3535852333625,left,1,3,0.6533931692956685,L05N08,2022-10-06_12h01.45.324,t1_Paradigm,2021.1.4,60.00537070406885,
B,right,Target,0,34,34,34,1627.8520394496463,1629.85349107802,right,1,3,0.3856894785658369,L05N08,2022-10-06_12h01.45.324,t1_Paradigm,2021.1.4,60.00537070406885,
Q,left,Pretarget,0,35,35,35,1631.3518753595,1633.353819418715,left,1,3,0.9650990042646299,L05N08,2022-10-06_12h01.45.324,t1_Paradigm,2021.1.4,60.00537070406885,
S,left,Pretarget,0,36,36,36,1634.8518431189132,1636.8510651744255,left,1,3,0.7641143992223078,L05N08,2022-10-06_12h01.45.324,t1_Paradigm,2021.1.4,60.00537070406885,
W,left,Distractor,0,37,37,37,1638.3520957503715,1640.3544096941187,left,1,3,0.620503921962154,L05N08,2022-10-06_12h01.45.324,t1_Paradigm,2021.1.4,60.00537070406885,
Q,right,Target,0,38,38,38,1641.851743349538,1643.8526464067472,right,1,3,1.0260799072493683,L05N08,2022-10-06_12h01.45.324,t1_Paradigm,2021.1.4,60.00537070406885,
S,right,Target,0,39,39,39,1645.3519767328835,1647.3541780751839,right,1,3,1.1408865487464936,L05N08,2022-10-06_12h01.45.324,t1_Paradigm,2021.1.4,60.00537070406885,
T,left,Distractor,0,40,40,40,1648.8521379358135,1650.8544063256995,left,1,3,0.7925316687560553,L05N08,2022-10-06_12h01.45.324,t1_Paradigm,2021.1.4,60.00537070406885,
G,left,Distractor,0,41,41,41,1652.3520062466541,1654.3540192782675,right,0,3,1.3251410164739355,L05N08,2022-10-06_12h01.45.324,t1_Paradigm,2021.1.4,60.00537070406885,
D,left,Distractor,0,42,42,42,1655.8519313394227,1657.8538404312349,left,1,3,0.7051927233151218,L05N08,2022-10-06_12h01.45.324,t1_Paradigm,2021.1.4,60.00537070406885,
S,left,Lure,0,43,43,43,1659.3519841113266,1661.35418609523,left,1,3,0.5968848857082776,L05N08,2022-10-06_12h01.45.324,t1_Paradigm,2021.1.4,60.00537070406885,
Z,left,Pretarget,0,44,44,44,1662.8517279510488,1664.8538356192075,left,1,3,1.2091560697790555,L05N08,2022-10-06_12h01.45.324,t1_Paradigm,2021.1.4,60.00537070406885,
J,left,Distractor,0,45,45,45,1666.3517589084277,1668.35374082226,left,1,3,0.6372237936175225,L05N08,2022-10-06_12h01.45.324,t1_Paradigm,2021.1.4,60.00537070406885,
M,left,Pretarget,0,46,46,46,1669.8519634196073,1671.853838506424,left,1,3,0.577253416458916,L05N08,2022-10-06_12h01.45.324,t1_Paradigm,2021.1.4,60.00537070406885,
Z,right,Target,0,47,47,47,1673.351708863338,1675.3538036994232,left,0,3,1.0452442890054954,L05N08,2022-10-06_12h01.45.324,t1_Paradigm,2021.1.4,60.00537070406885,
P,left,Distractor,0,48,48,48,1676.851733404681,1678.8538548673187,right,0,3,0.8891757926776336,L05N08,2022-10-06_12h01.45.324,t1_Paradigm,2021.1.4,60.00537070406885,
M,right,Target,0,49,49,49,1680.3519254045877,1682.3535403211044,right,1,3,0.6373986306243751,L05N08,2022-10-06_12h01.45.324,t1_Paradigm,2021.1.4,60.00537070406885,
K,left,Distractor,0,50,50,50,1683.852012823092,1685.8538218247286,left,1,3,0.7211147607667954,L05N08,2022-10-06_12h01.45.324,t1_Paradigm,2021.1.4,60.00537070406885,
Y,left,Distractor,0,51,51,51,1687.3520559709414,1689.3541225764639,left,1,3,0.5326330870539095,L05N08,2022-10-06_12h01.45.324,t1_Paradigm,2021.1.4,60.00537070406885,
X,left,Distractor,0,52,52,52,1690.8520943067615,1692.854218335815,left,1,3,0.9853932501373492,L05N08,2022-10-06_12h01.45.324,t1_Paradigm,2021.1.4,60.00537070406885,
F,left,Pretarget,0,53,53,53,1694.3517704572932,1696.3511115302936,left,1,3,1.19994713185406,L05N08,2022-10-06_12h01.45.324,t1_Paradigm,2021.1.4,60.00537070406885,
M,left,Lure,0,54,54,54,1697.8518158507559,1699.8536524413503,right,0,3,0.8172664538469689,L05N08,2022-10-06_12h01.45.324,t1_Paradigm,2021.1.4,60.00537070406885,
V,left,Distractor,0,55,55,55,1701.3518432793135,1703.3543420049282,None,0,3,,L05N08,2022-10-06_12h01.45.324,t1_Paradigm,2021.1.4,60.00537070406885,
F,right,Target,0,56,56,56,1704.8518504973563,1706.8523284921139,None,0,3,,L05N08,2022-10-06_12h01.45.324,t1_Paradigm,2021.1.4,60.00537070406885,
S,left,Distractor,0,57,57,57,1708.3520546877335,1710.35407509779,left,1,3,1.3088587185447977,L05N08,2022-10-06_12h01.45.324,t1_Paradigm,2021.1.4,60.00537070406885,
D,left,Distractor,0,58,58,58,1711.8521106676562,1713.853802255815,left,1,3,0.6412315711368137,L05N08,2022-10-06_12h01.45.324,t1_Paradigm,2021.1.4,60.00537070406885,
F,right,Target,0,59,59,59,1715.3519263669932,1717.3533994890913,right,1,3,0.5332981092906266,L05N08,2022-10-06_12h01.45.324,t1_Paradigm,2021.1.4,60.00537070406885,
V,left,Pretarget,0,60,60,60,1718.8519047128684,1720.8539960201324,left,1,3,0.9370654137419479,L05N08,2022-10-06_12h01.45.324,t1_Paradigm,2021.1.4,60.00537070406885,
J,left,Distractor,0,61,61,61,1722.351973204064,1724.3538027370178,left,1,3,0.8292791999465408,L05N08,2022-10-06_12h01.45.324,t1_Paradigm,2021.1.4,60.00537070406885,
V,left,Lure,0,62,62,62,1725.8519794596996,1727.8541182456374,left,1,3,1.2487888928117172,L05N08,2022-10-06_12h01.45.324,t1_Paradigm,2021.1.4,60.00537070406885,
V,right,Target,0,63,63,63,1729.352033194009,1731.3518596402082,right,1,3,1.2550130903182435,L05N08,2022-10-06_12h01.45.324,t1_Paradigm,2021.1.4,60.00537070406885,
R,left,Distractor,0,0,0,0,1804.4305680534617,1806.4203611009798,left,1,4,0.6663943058956647,L05N08,2022-10-06_12h01.45.324,t1_Paradigm,2021.1.4,60.00537070406885,
F,left,Distractor,0,1,1,1,1807.9184380542865,1809.9200237778332,left,1,4,0.5268326687928493,L05N08,2022-10-06_12h01.45.324,t1_Paradigm,2021.1.4,60.00537070406885,
P,left,Pretarget,0,2,2,2,1811.418568460238,1813.4178588465456,left,1,4,0.5171502273351507,L05N08,2022-10-06_12h01.45.324,t1_Paradigm,2021.1.4,60.00537070406885,
H,left,Distractor,0,3,3,3,1814.9185265955966,1816.9209470455608,left,1,4,0.4700680645273678,L05N08,2022-10-06_12h01.45.324,t1_Paradigm,2021.1.4,60.00537070406885,
Z,left,Distractor,0,4,4,4,1818.4185748762757,1820.4205388252049,left,1,4,0.5382593099093356,L05N08,2022-10-06_12h01.45.324,t1_Paradigm,2021.1.4,60.00537070406885,
T,left,Distractor,0,5,5,5,1821.9185833775246,1823.9199676375101,left,1,4,0.6389968654457334,L05N08,2022-10-06_12h01.45.324,t1_Paradigm,2021.1.4,60.00537070406885,
P,right,Target,0,6,6,6,1825.4185845003303,1827.4204862137012,right,1,4,0.6585571166851878,L05N08,2022-10-06_12h01.45.324,t1_Paradigm,2021.1.4,60.00537070406885,
G,left,Distractor,0,7,7,7,1828.918475908904,1830.920675647194,left,1,4,0.5341713319285191,L05N08,2022-10-06_12h01.45.324,t1_Paradigm,2021.1.4,60.00537070406885,
L,left,Distractor,0,8,8,8,1832.4185498537317,1834.420354043339,left,1,4,1.0025224649525626,L05N08,2022-10-06_12h01.45.324,t1_Paradigm,2021.1.4,60.00537070406885,
P,left,Lure,0,9,9,9,1835.917691227578,1837.9312749403398,right,0,4,0.8357815326562559,L05N08,2022-10-06_12h01.45.324,t1_Paradigm,2021.1.4,60.00537070406885,
Q,left,Pretarget,0,10,10,10,1839.418542796091,1841.4197252717113,left,1,4,0.6593103594295826,L05N08,2022-10-06_12h01.45.324,t1_Paradigm,2021.1.4,60.00537070406885,
D,left,Distractor,0,11,11,11,1842.9185541845563,1844.9192740639082,left,1,4,1.207752561682355,L05N08,2022-10-06_12h01.45.324,t1_Paradigm,2021.1.4,60.00537070406885,
M,left,Pretarget,0,12,12,12,1846.4182819841863,1848.420007898143,left,1,4,0.602820361549675,L05N08,2022-10-06_12h01.45.324,t1_Paradigm,2021.1.4,60.00537070406885,
C,left,Distractor,0,13,13,13,1849.9184710968766,1851.9210724790828,left,1,4,0.7018621585029905,L05N08,2022-10-06_12h01.45.324,t1_Paradigm,2021.1.4,60.00537070406885,
Q,right,Target,0,14,14,14,1853.4185485705239,1855.4204704944113,right,1,4,1.266356964561055,L05N08,2022-10-06_12h01.45.324,t1_Paradigm,2021.1.4,60.00537070406885,
R,left,Distractor,0,15,15,15,1856.9186270065766,1858.9188429062215,left,1,4,0.8879859386142925,L05N08,2022-10-06_12h01.45.324,t1_Paradigm,2021.1.4,60.00537070406885,
M,right,Target,0,16,16,16,1860.4185014126524,1862.4194679886277,right,1,4,0.5233545351275097,L05N08,2022-10-06_12h01.45.324,t1_Paradigm,2021.1.4,60.00537070406885,
S,left,Distractor,0,17,17,17,1863.91849579862,1865.9206259229068,left,1,4,0.5422994884174841,L05N08,2022-10-06_12h01.45.324,t1_Paradigm,2021.1.4,60.00537070406885,
Z,left,Distractor,0,18,18,18,1867.4184844101528,1869.417683367932,left,1,4,1.1733048589612736,L05N08,2022-10-06_12h01.45.324,t1_Paradigm,2021.1.4,60.00537070406885,
L,left,Pretarget,0,19,19,19,1870.918371648304,1872.920696820116,left,1,4,0.8701763030730945,L05N08,2022-10-06_12h01.45.324,t1_Paradigm,2021.1.4,60.00537070406885,
M,right,Target,0,20,20,20,1874.4184966006233,1876.4207082085813,right,1,4,0.7302255333252106,L05N08,2022-10-06_12h01.45.324,t1_Paradigm,2021.1.4,60.00537070406885,
P,left,Distractor,0,21,21,21,1877.918515688334,1879.920507226223,left,1,4,0.9421690503841091,L05N08,2022-10-06_12h01.45.324,t1_Paradigm,2021.1.4,60.00537070406885,
F,left,Distractor,0,22,22,22,1881.4184516883652,1883.4204419430462,left,1,4,0.7544409402180463,L05N08,2022-10-06_12h01.45.324,t1_Paradigm,2021.1.4,60.00537070406885,
L,right,Target,0,23,23,23,1884.9185583549806,1886.918964810924,right,1,4,0.4079316332754388,L05N08,2022-10-06_12h01.45.324,t1_Paradigm,2021.1.4,60.00537070406885,
L,left,Lure,0,24,24,24,1888.4186416030607,1890.4185331720346,left,1,4,1.052277869581303,L05N08,2022-10-06_12h01.45.324,t1_Paradigm,2021.1.4,60.00537070406885,
V,left,Pretarget,0,25,25,25,1891.9184948362144,1893.920373772653,left,1,4,0.8149464148627885,L05N08,2022-10-06_12h01.45.324,t1_Paradigm,2021.1.4,60.00537070406885,
Z,left,Distractor,0,26,26,26,1895.4185251519884,1897.4206979429237,left,1,4,0.4340590192005038,L05N08,2022-10-06_12h01.45.324,t1_Paradigm,2021.1.4,60.00537070406885,
H,left,Distractor,0,27,27,27,1898.9186116080873,1900.919042765774,left,1,4,0.7277069179945101,L05N08,2022-10-06_12h01.45.324,t1_Paradigm,2021.1.4,60.00537070406885,
X,left,Distractor,0,28,28,28,1902.418531568026,1904.4203482689063,left,1,4,0.7149268138709886,L05N08,2022-10-06_12h01.45.324,t1_Paradigm,2021.1.4,60.00537070406885,
V,right,Target,0,29,29,29,1905.9185240291827,1907.9200709357065,right,1,4,0.7666994205355877,L05N08,2022-10-06_12h01.45.324,t1_Paradigm,2021.1.4,60.00537070406885,
C,left,Distractor,0,30,30,30,1909.4185209815641,1911.420243687502,left,1,4,0.8987472366934526,L05N08,2022-10-06_12h01.45.324,t1_Paradigm,2021.1.4,60.00537070406885,
S,left,Pretarget,0,31,31,31,1912.9184611520195,1914.9204003992072,left,1,4,0.742661417065392,L05N08,2022-10-06_12h01.45.324,t1_Paradigm,2021.1.4,60.00537070406885,
D,left,Distractor,0,32,32,32,1916.41846804926,1918.4207155870245,left,1,4,0.570093439955599,L05N08,2022-10-06_12h01.45.324,t1_Paradigm,2021.1.4,60.00537070406885,
V,left,Distractor,0,33,33,33,1919.9183642698608,1921.920070614904,right,0,4,0.6228448130677862,L05N08,2022-10-06_12h01.45.324,t1_Paradigm,2021.1.4,60.00537070406885,
R,left,Distractor,0,34,34,34,1923.4177828165066,1925.4177953277776,left,1,4,0.5663589856121689,L05N08,2022-10-06_12h01.45.324,t1_Paradigm,2021.1.4,60.00537070406885,
S,right,Target,0,35,35,35,1926.9176886611622,1928.9200439883498,right,1,4,0.4228835659305332,L05N08,2022-10-06_12h01.45.324,t1_Paradigm,2021.1.4,60.00537070406885,
Y,left,Distractor,0,36,36,36,1930.4185963700002,1932.4176188867605,left,1,4,0.6052055233085412,L05N08,2022-10-06_12h01.45.324,t1_Paradigm,2021.1.4,60.00537070406885,
N,left,Pretarget,0,37,37,37,1933.9184326006543,1935.9175295434452,left,1,4,0.5774420479465334,L05N08,2022-10-06_12h01.45.324,t1_Paradigm,2021.1.4,60.00537070406885,
Z,left,Pretarget,0,38,38,38,1937.4184834477473,1939.4200457527604,left,1,4,0.5630768618775619,L05N08,2022-10-06_12h01.45.324,t1_Paradigm,2021.1.4,60.00537070406885,
P,left,Pretarget,0,39,39,39,1940.9182766909544,1942.9176498441393,left,1,4,0.7773073753323843,L05N08,2022-10-06_12h01.45.324,t1_Paradigm,2021.1.4,60.00537070406885,
M,left,Distractor,0,40,40,40,1944.418401964078,1946.4206312161386,left,1,4,0.5705794547575351,L05N08,2022-10-06_12h01.45.324,t1_Paradigm,2021.1.4,60.00537070406885,
N,right,Target,0,41,41,41,1947.9183376433066,1949.9206634567236,left,0,4,0.7821254983264225,L05N08,2022-10-06_12h01.45.324,t1_Paradigm,2021.1.4,60.00537070406885,
Z,right,Target,0,42,42,42,1951.4184087009162,1953.4206879980647,right,1,4,0.658273848648605,L05N08,2022-10-06_12h01.45.324,t1_Paradigm,2021.1.4,60.00537070406885,
P,right,Target,0,43,43,43,1954.9182115681797,1956.9192577030153,right,1,4,0.45555081838210754,L05N08,2022-10-06_12h01.45.324,t1_Paradigm,2021.1.4,60.00537070406885,
X,left,Pretarget,0,44,44,44,1958.4185758386811,1960.419989933238,left,1,4,1.0507906322018243,L05N08,2022-10-06_12h01.45.324,t1_Paradigm,2021.1.4,60.00537070406885,
Z,left,Lure,0,45,45,45,1961.918449603152,1963.9203795470858,None,0,4,,L05N08,2022-10-06_12h01.45.324,t1_Paradigm,2021.1.4,60.00537070406885,
R,left,Pretarget,0,46,46,46,1965.4183365205008,1967.4202504243422,left,1,4,1.07467272597205,L05N08,2022-10-06_12h01.45.324,t1_Paradigm,2021.1.4,60.00537070406885,
K,left,Distractor,0,47,47,47,1968.9182587260511,1970.9175398091047,left,1,4,0.6814986194294761,L05N08,2022-10-06_12h01.45.324,t1_Paradigm,2021.1.4,60.00537070406885,
X,right,Target,0,48,48,48,1972.4184321194516,1974.4202334218426,right,1,4,0.7467352797666535,L05N08,2022-10-06_12h01.45.324,t1_Paradigm,2021.1.4,60.00537070406885,
B,left,Distractor,0,49,49,49,1975.9181698639386,1977.920521020702,left,1,4,0.8624173895132117,L05N08,2022-10-06_12h01.45.324,t1_Paradigm,2021.1.4,60.00537070406885,
R,right,Target,0,50,50,50,1979.4184273074243,1981.4173770021644,right,1,4,0.45326061396917794,L05N08,2022-10-06_12h01.45.324,t1_Paradigm,2021.1.4,60.00537070406885,
Y,left,Pretarget,0,51,51,51,1982.918573753468,1984.9198848706328,left,1,4,0.6470255733602244,L05N08,2022-10-06_12h01.45.324,t1_Paradigm,2021.1.4,60.00537070406885,
W,left,Pretarget,0,52,52,52,1986.4184696532684,1988.4203405696608,left,1,4,0.6183747600807692,L05N08,2022-10-06_12h01.45.324,t1_Paradigm,2021.1.4,60.00537070406885,
Z,left,Distractor,0,53,53,53,1989.917747367901,1991.9207503940252,left,1,4,1.0699065728767891,L05N08,2022-10-06_12h01.45.324,t1_Paradigm,2021.1.4,60.00537070406885,
Q,left,Distractor,0,54,54,54,1993.4184103049265,1995.4202398378802,left,1,4,0.5787522027039813,L05N08,2022-10-06_12h01.45.324,t1_Paradigm,2021.1.4,60.00537070406885,
Y,right,Target,0,55,55,55,1996.9184441495217,1998.9203009506327,right,1,4,1.0945489670339157,L05N08,2022-10-06_12h01.45.324,t1_Paradigm,2021.1.4,60.00537070406885,
W,right,Target,0,56,56,56,2000.4182909666379,2002.4205558277026,left,0,4,1.1784399341850076,L05N08,2022-10-06_12h01.45.324,t1_Paradigm,2021.1.4,60.00537070406885,
H,left,Pretarget,0,57,57,57,2003.9185256331912,2005.9202980634163,left,1,4,0.8946361609760061,L05N08,2022-10-06_12h01.45.324,t1_Paradigm,2021.1.4,60.00537070406885,
M,left,Distractor,0,58,58,58,2007.418441743508,2009.4176147163362,left,1,4,0.4529366041006142,L05N08,2022-10-06_12h01.45.324,t1_Paradigm,2021.1.4,60.00537070406885,
R,left,Pretarget,0,59,59,59,2010.9185371820586,2012.9202303742259,left,1,4,1.0308197545928124,L05N08,2022-10-06_12h01.45.324,t1_Paradigm,2021.1.4,60.00537070406885,
J,left,Distractor,0,60,60,60,2014.4183961896451,2016.4206716371718,left,1,4,0.6184677926175937,L05N08,2022-10-06_12h01.45.324,t1_Paradigm,2021.1.4,60.00537070406885,
H,right,Target,0,61,61,61,2017.9183969916485,2019.9207038777568,right,1,4,0.654090913320033,L05N08,2022-10-06_12h01.45.324,t1_Paradigm,2021.1.4,60.00537070406885,
Z,left,Distractor,0,62,62,62,2021.4185735930678,2023.4176381348716,left,1,4,0.5652891114386875,L05N08,2022-10-06_12h01.45.324,t1_Paradigm,2021.1.4,60.00537070406885,
R,right,Target,0,63,63,63,2024.9183844803774,2026.920286514549,right,1,4,1.0309031630749814,L05N08,2022-10-06_12h01.45.324,t1_Paradigm,2021.1.4,60.00537070406885,
J,left,Pretarget,0,0,0,0,2035.2163709034012,2037.2200120044054,left,1,4,0.5228483098089782,L05N08,2022-10-06_12h01.45.324,t1_Paradigm,2021.1.4,60.00537070406885,
G,left,Pretarget,0,1,1,1,2038.7183924362635,2040.7202360844985,left,1,4,0.510781668997879,L05N08,2022-10-06_12h01.45.324,t1_Paradigm,2021.1.4,60.00537070406885,
Z,left,Distractor,0,2,2,2,2042.2182909024777,2044.221059422449,left,1,4,0.561851719610786,L05N08,2022-10-06_12h01.45.324,t1_Paradigm,2021.1.4,60.00537070406885,
F,left,Distractor,0,3,3,3,2045.718514340966,2047.7204163751394,left,1,4,0.4863487584498216,L05N08,2022-10-06_12h01.45.324,t1_Paradigm,2021.1.4,60.00537070406885,
J,right,Target,0,4,4,4,2049.2185199549986,2051.220243623342,right,1,4,0.47460805231821723,L05N08,2022-10-06_12h01.45.324,t1_Paradigm,2021.1.4,60.00537070406885,
G,right,Target,0,5,5,5,2052.718403343526,2054.718938441012,right,1,4,0.43193659415555885,L05N08,2022-10-06_12h01.45.324,t1_Paradigm,2021.1.4,60.00537070406885,
H,left,Distractor,0,6,6,6,2056.2183720653447,2058.220284685978,left,1,4,0.6583364050111413,L05N08,2022-10-06_12h01.45.324,t1_Paradigm,2021.1.4,60.00537070406885,
P,left,Distractor,0,7,7,7,2059.718416496402,2061.7203608764194,left,1,4,0.6625161323227076,L05N08,2022-10-06_12h01.45.324,t1_Paradigm,2021.1.4,60.00537070406885,
G,left,Lure,0,8,8,8,2063.218528295847,2065.220227262447,left,1,4,0.8425142010964919,L05N08,2022-10-06_12h01.45.324,t1_Paradigm,2021.1.4,60.00537070406885,
S,left,Distractor,0,9,9,9,2066.718310310989,2068.7206232923327,left,1,4,0.526083917273354,L05N08,2022-10-06_12h01.45.324,t1_Paradigm,2021.1.4,60.00537070406885,
R,left,Pretarget,0,10,10,10,2070.218350571622,2072.220322219795,left,1,4,0.626369462999719,L05N08,2022-10-06_12h01.45.324,t1_Paradigm,2021.1.4,60.00537070406885,
T,left,Pretarget,0,11,11,11,2073.7184941304495,2075.720188926627,left,1,4,0.5505396047519753,L05N08,2022-10-06_12h01.45.324,t1_Paradigm,2021.1.4,60.00537070406885,
X,left,Distractor,0,12,12,12,2077.2175389429394,2079.219800595987,left,1,4,0.8590589149389416,L05N08,2022-10-06_12h01.45.324,t1_Paradigm,2021.1.4,60.00537070406885,
F,left,Pretarget,0,13,13,13,2080.7175448777743,2082.7204612873975,left,1,4,0.6063857533190458,L05N08,2022-10-06_12h01.45.324,t1_Paradigm,2021.1.4,60.00537070406885,
R,right,Target,0,14,14,14,2084.2182617095095,2086.2175713439265,left,0,4,0.5177311994884803,L05N08,2022-10-06_12h01.45.324,t1_Paradigm,2021.1.4,60.00537070406885,
T,right,Target,0,15,15,15,2087.718457559038,2089.7199342099575,right,1,4,0.6950823321913049,L05N08,2022-10-06_12h01.45.324,t1_Paradigm,2021.1.4,60.00537070406885,
C,left,Distractor,0,16,16,16,2091.2184400753376,2093.2174321159237,left,1,4,0.7493587973003741,L05N08,2022-10-06_12h01.45.324,t1_Paradigm,2021.1.4,60.00537070406885,
F,right,Target,0,17,17,17,2094.7183298799027,2096.720719853689,right,1,4,0.8782265047138935,L05N08,2022-10-06_12h01.45.324,t1_Paradigm,2021.1.4,60.00537070406885,
M,left,Distractor,0,18,18,18,2098.2181045166017,2100.220785457668,left,1,4,0.4819515274812147,L05N08,2022-10-06_12h01.45.324,t1_Paradigm,2021.1.4,60.00537070406885,
N,left,Distractor,0,19,19,19,2101.718157609308,2103.7201613376674,left,1,4,0.6787804653486091,L05N08,2022-10-06_12h01.45.324,t1_Paradigm,2021.1.4,60.00537070406885,
R,left,Lure,0,20,20,20,2105.2183951630795,2107.2176210682137,left,1,4,0.781280506251278,L05N08,2022-10-06_12h01.45.324,t1_Paradigm,2021.1.4,60.00537070406885,
F,right,Target,0,21,21,21,2108.7184168172043,2110.720312435338,left,0,4,1.2466850742766837,L05N08,2022-10-06_12h01.45.324,t1_Paradigm,2021.1.4,60.00537070406885,
P,left,Distractor,0,22,22,22,2112.2181532784834,2114.2200392725626,left,1,4,0.5309880151635298,L05N08,2022-10-06_12h01.45.324,t1_Paradigm,2021.1.4,60.00537070406885,
L,left,Pretarget,0,23,23,23,2115.7183917946586,2117.720284525578,left,1,4,0.7585853793279966,L05N08,2022-10-06_12h01.45.324,t1_Paradigm,2021.1.4,60.00537070406885,
T,left,Distractor,0,24,24,24,2119.2183678949223,2121.220077127182,left,1,4,0.6986846161726135,L05N08,2022-10-06_12h01.45.324,t1_Paradigm,2021.1.4,60.00537070406885,
F,left,Distractor,0,25,25,25,2122.7181765366167,2124.720583833705,right,0,4,0.5421403707005084,L05N08,2022-10-06_12h01.45.324,t1_Paradigm,2021.1.4,60.00537070406885,
V,left,Distractor,0,26,26,26,2126.2183258698788,2128.220163102078,left,1,4,0.8825422520094435,L05N08,2022-10-06_12h01.45.324,t1_Paradigm,2021.1.4,60.00537070406885,
L,right,Target,0,27,27,27,2129.7183812081985,2131.720180264976,right,1,4,1.0626875688321888,L05N08,2022-10-06_12h01.45.324,t1_Paradigm,2021.1.4,60.00537070406885,
S,left,Pretarget,0,28,28,28,2133.2183428723765,2135.220304896495,left,1,4,1.2104768109984434,L05N08,2022-10-06_12h01.45.324,t1_Paradigm,2021.1.4,60.00537070406885,
W,left,Distractor,0,29,29,29,2136.7183257094784,2138.7202729767123,left,1,4,0.6065243397169979,L05N08,2022-10-06_12h01.45.324,t1_Paradigm,2021.1.4,60.00537070406885,
Q,left,Distractor,0,30,30,30,2140.2183303611055,2142.2199545808744,left,1,4,0.962925250922126,L05N08,2022-10-06_12h01.45.324,t1_Paradigm,2021.1.4,60.00537070406885,
L,right,Target,0,31,31,31,2143.7184312532863,2145.719126751699,right,1,4,0.75970658179358,L05N08,2022-10-06_12h01.45.324,t1_Paradigm,2021.1.4,60.00537070406885,
S,right,Target,0,32,32,32,2147.2182774287994,2149.2204976984085,right,1,4,0.9702745005197357,L05N08,2022-10-06_12h01.45.324,t1_Paradigm,2021.1.4,60.00537070406885,
Z,left,Pretarget,0,33,33,33,2150.7183375791465,2152.720362480428,left,1,4,0.7182756643887842,L05N08,2022-10-06_12h01.45.324,t1_Paradigm,2021.1.4,60.00537070406885,
F,left,Distractor,0,34,34,34,2154.2183123962004,2156.220327673427,right,0,4,0.674115044035716,L05N08,2022-10-06_12h01.45.324,t1_Paradigm,2021.1.4,60.00537070406885,
V,left,Distractor,0,35,35,35,2157.7183071029704,2159.7202947912374,left,1,4,0.8864018190761271,L05N08,2022-10-06_12h01.45.324,t1_Paradigm,2021.1.4,60.00537070406885,
M,left,Distractor,0,36,36,36,2161.218374310958,2163.2206754226336,left,1,4,1.0659937527052534,L05N08,2022-10-06_12h01.45.324,t1_Paradigm,2021.1.4,60.00537070406885,
Z,right,Target,0,37,37,37,2164.718259945099,2166.719690721353,left,0,4,1.2631489460527519,L05N08,2022-10-06_12h01.45.324,t1_Paradigm,2021.1.4,60.00537070406885,
H,left,Pretarget,0,38,38,38,2168.218491724436,2170.220544214677,left,1,4,0.5623188071040204,L05N08,2022-10-06_12h01.45.324,t1_Paradigm,2021.1.4,60.00537070406885,
L,left,Distractor,0,39,39,39,2171.7182503210424,2173.72035606439,right,0,4,0.5823143864545273,L05N08,2022-10-06_12h01.45.324,t1_Paradigm,2021.1.4,60.00537070406885,
G,left,Distractor,0,40,40,40,2175.2183435139814,2177.2203039340893,left,1,4,0.682159792042512,L05N08,2022-10-06_12h01.45.324,t1_Paradigm,2021.1.4,60.00537070406885,
K,left,Distractor,0,41,41,41,2178.7184373485215,2180.7207782396254,right,0,4,1.085907206781485,L05N08,2022-10-06_12h01.45.324,t1_Paradigm,2021.1.4,60.00537070406885,
H,right,Target,0,42,42,42,2182.2182986017215,2184.2189851176827,right,1,4,1.0121481244805182,L05N08,2022-10-06_12h01.45.324,t1_Paradigm,2021.1.4,60.00537070406885,
B,left,Distractor,0,43,43,43,2185.7183276342894,2187.720446530513,left,1,4,0.5502101412512275,L05N08,2022-10-06_12h01.45.324,t1_Paradigm,2021.1.4,60.00537070406885,
Z,left,Distractor,0,44,44,44,2189.218355704452,2191.220178179765,right,0,4,1.3706252652627882,L05N08,2022-10-06_12h01.45.324,t1_Paradigm,2021.1.4,60.00537070406885,
T,left,Pretarget,0,45,45,45,2192.7183205766487,2194.7202848463803,left,1,4,1.2147357763678883,L05N08,2022-10-06_12h01.45.324,t1_Paradigm,2021.1.4,60.00537070406885,
H,right,Target,0,46,46,46,2196.2182588222913,2198.220068465531,right,1,4,0.8345865457631589,L05N08,2022-10-06_12h01.45.324,t1_Paradigm,2021.1.4,60.00537070406885,
F,left,Distractor,0,47,47,47,2199.7183388623544,2201.72055528234,left,1,4,1.1902313270074956,L05N08,2022-10-06_12h01.45.324,t1_Paradigm,2021.1.4,60.00537070406885,
R,left,Distractor,0,48,48,48,2203.2183018097403,2205.220162460473,left,1,4,1.0984839225329779,L05N08,2022-10-06_12h01.45.324,t1_Paradigm,2021.1.4,60.00537070406885,
T,right,Target,0,49,49,49,2206.718059764744,2208.720684886288,right,1,4,0.7499657544012734,L05N08,2022-10-06_12h01.45.324,t1_Paradigm,2021.1.4,60.00537070406885,
H,right,Target,0,50,50,50,2210.2183345315298,2212.2200261196867,right,1,4,0.5788628793434327,L05N08,2022-10-06_12h01.45.324,t1_Paradigm,2021.1.4,60.00537070406885,
Y,left,Pretarget,0,51,51,51,2213.718213108028,2215.7202765055317,left,1,4,1.0305634339129028,L05N08,2022-10-06_12h01.45.324,t1_Paradigm,2021.1.4,60.00537070406885,
H,left,Distractor,0,52,52,52,2217.218281920026,2219.220102791329,left,1,4,0.6984260498811636,L05N08,2022-10-06_12h01.45.324,t1_Paradigm,2021.1.4,60.00537070406885,
S,left,Distractor,0,53,53,53,2220.71839019065,2222.7203634428333,left,1,4,0.990425027164747,L05N08,2022-10-06_12h01.45.324,t1_Paradigm,2021.1.4,60.00537070406885,
Q,left,Distractor,0,54,54,54,2224.2183159250217,2226.2204822999192,left,1,4,0.8021364761661971,L05N08,2022-10-06_12h01.45.324,t1_Paradigm,2021.1.4,60.00537070406885,
Y,right,Target,0,55,55,55,2227.7182795140106,2229.731135006572,right,1,4,0.9235317460697843,L05N08,2022-10-06_12h01.45.324,t1_Paradigm,2021.1.4,60.00537070406885,
R,left,Distractor,0,56,56,56,2231.2182941104966,2233.2189722856074,left,1,4,1.0357055667773238,L05N08,2022-10-06_12h01.45.324,t1_Paradigm,2021.1.4,60.00537070406885,
H,left,Pretarget,0,57,57,57,2234.718312877403,2236.71997815981,left,1,4,1.0227804602163815,L05N08,2022-10-06_12h01.45.324,t1_Paradigm,2021.1.4,60.00537070406885,
J,left,Distractor,0,58,58,58,2238.2183711029393,2240.217559153456,left,1,4,0.6293599778509815,L05N08,2022-10-06_12h01.45.324,t1_Paradigm,2021.1.4,60.00537070406885,
V,left,Distractor,0,59,59,59,2241.718282401229,2243.7174556948594,left,1,4,0.6974161656544311,L05N08,2022-10-06_12h01.45.324,t1_Paradigm,2021.1.4,60.00537070406885,
Y,left,Lure,0,60,60,60,2245.2182119852223,2247.220084505625,right,0,4,1.1310626336744463,L05N08,2022-10-06_12h01.45.324,t1_Paradigm,2021.1.4,60.00537070406885,
H,right,Target,0,61,61,61,2248.718278551605,2250.720162300073,right,1,4,0.49471366670513817,L05N08,2022-10-06_12h01.45.324,t1_Paradigm,2021.1.4,60.00537070406885,
L,left,Distractor,0,62,62,62,2252.218369819733,2254.2200755231715,left,1,4,0.5787615059598465,L05N08,2022-10-06_12h01.45.324,t1_Paradigm,2021.1.4,60.00537070406885,
P,left,Distractor,0,63,63,63,2255.718351052825,2257.7205928161566,left,1,4,0.678294450546673,L05N08,2022-10-06_12h01.45.324,t1_Paradigm,2021.1.4,60.00537070406885,
