Currentstep,EDround.thisRepN,EDround.thisTrialN,EDround.thisN,EDround.thisIndex,question.started,EDclick.clicked_name,EDleftbutton.wasclicked,EDrightbutton.wasclicked,EDleftbutton.value,EDrightbutton.value,EDleftbutton.nback,EDrightbutton.nback,Participant,date,expName,psychopyVersion,frameRate,
,,,,,,,,,,,,,L05N08,2022-10-06_12h01.45.324,t1_Paradigm,2021.1.4,60.00537070406885,
0,0,0,0,0,2509.0133726251443,EDleftbutton,1,0,2.00,1.00,1,2,L05N08,2022-10-06_12h01.45.324,t1_Paradigm,2021.1.4,60.00537070406885,
1,0,1,1,1,2523.6528269540286,EDrightbutton,0,1,2.00,1.50,1,2,L05N08,2022-10-06_12h01.45.324,t1_Paradigm,2021.1.4,60.00537070406885,
2,0,2,2,2,2526.829460452993,EDleftbutton,1,0,2.00,1.25,1,2,L05N08,2022-10-06_12h01.45.324,t1_Paradigm,2021.1.4,60.00537070406885,
3,0,3,3,3,2531.4997598798163,EDleftbutton,1,0,2.00,1.38,1,2,L05N08,2022-10-06_12h01.45.324,t1_Paradigm,2021.1.4,60.00537070406885,
4,0,4,4,4,2534.582388812485,EDrightbutton,0,1,2.00,1.44,1,2,L05N08,2022-10-06_12h01.45.324,t1_Paradigm,2021.1.4,60.00537070406885,
5,0,5,5,5,2536.629916248261,EDrightbutton,0,1,2.00,1.41,1,2,L05N08,2022-10-06_12h01.45.324,t1_Paradigm,2021.1.4,60.00537070406885,
0,0,0,0,0,2540.763691582384,EDrightbutton,0,1,2.00,1.00,3,4,L05N08,2022-10-06_12h01.45.324,t1_Paradigm,2021.1.4,60.00537070406885,
1,0,1,1,1,2548.8681048855233,EDrightbutton,0,1,2.00,0.50,3,4,L05N08,2022-10-06_12h01.45.324,t1_Paradigm,2021.1.4,60.00537070406885,
2,0,2,2,2,2551.3263302289342,EDrightbutton,0,1,2.00,0.25,3,4,L05N08,2022-10-06_12h01.45.324,t1_Paradigm,2021.1.4,60.00537070406885,
3,0,3,3,3,2554.107921592178,EDleftbutton,1,0,2.00,0.12,3,4,L05N08,2022-10-06_12h01.45.324,t1_Paradigm,2021.1.4,60.00537070406885,
4,0,4,4,4,2556.260691283076,EDleftbutton,1,0,2.00,0.18,3,4,L05N08,2022-10-06_12h01.45.324,t1_Paradigm,2021.1.4,60.00537070406885,
5,0,5,5,5,2558.1629057461705,EDrightbutton,0,1,2.00,0.21,3,4,L05N08,2022-10-06_12h01.45.324,t1_Paradigm,2021.1.4,60.00537070406885,
0,0,0,0,0,2559.9693172277985,EDrightbutton,0,1,2.00,1.00,1,4,L05N08,2022-10-06_12h01.45.324,t1_Paradigm,2021.1.4,60.00537070406885,
1,0,1,1,1,2563.144017254008,EDrightbutton,0,1,2.00,0.50,1,4,L05N08,2022-10-06_12h01.45.324,t1_Paradigm,2021.1.4,60.00537070406885,
2,0,2,2,2,2566.6943188237874,EDrightbutton,0,1,2.00,0.25,1,4,L05N08,2022-10-06_12h01.45.324,t1_Paradigm,2021.1.4,60.00537070406885,
3,0,3,3,3,2567.954522167249,EDleftbutton,1,0,2.00,0.12,1,4,L05N08,2022-10-06_12h01.45.324,t1_Paradigm,2021.1.4,60.00537070406885,
4,0,4,4,4,2569.5423899545403,EDleftbutton,1,0,2.00,0.18,1,4,L05N08,2022-10-06_12h01.45.324,t1_Paradigm,2021.1.4,60.00537070406885,
5,0,5,5,5,2571.8459252871744,EDrightbutton,0,1,2.00,0.21,1,4,L05N08,2022-10-06_12h01.45.324,t1_Paradigm,2021.1.4,60.00537070406885,
0,0,0,0,0,2575.046754624118,EDrightbutton,0,1,1.00,2.00,2,3,L05N08,2022-10-06_12h01.45.324,t1_Paradigm,2021.1.4,60.00537070406885,
1,0,1,1,1,2579.8261064696435,EDrightbutton,0,1,1.50,2.00,2,3,L05N08,2022-10-06_12h01.45.324,t1_Paradigm,2021.1.4,60.00537070406885,
2,0,2,2,2,2588.9147526826255,EDleftbutton,1,0,1.75,2.00,2,3,L05N08,2022-10-06_12h01.45.324,t1_Paradigm,2021.1.4,60.00537070406885,
3,0,3,3,3,2590.7991972896107,EDleftbutton,1,0,1.62,2.00,2,3,L05N08,2022-10-06_12h01.45.324,t1_Paradigm,2021.1.4,60.00537070406885,
4,0,4,4,4,2592.2696230482015,EDleftbutton,1,0,1.56,2.00,2,3,L05N08,2022-10-06_12h01.45.324,t1_Paradigm,2021.1.4,60.00537070406885,
5,0,5,5,5,2600.2777505630875,EDleftbutton,1,0,1.53,2.00,2,3,L05N08,2022-10-06_12h01.45.324,t1_Paradigm,2021.1.4,60.00537070406885,
0,0,0,0,0,2601.7619355130537,EDleftbutton,1,0,2.00,1.00,1,3,L05N08,2022-10-06_12h01.45.324,t1_Paradigm,2021.1.4,60.00537070406885,
1,0,1,1,1,2605.843389027743,EDleftbutton,1,0,2.00,1.50,1,3,L05N08,2022-10-06_12h01.45.324,t1_Paradigm,2021.1.4,60.00537070406885,
2,0,2,2,2,2607.462552639574,EDrightbutton,0,1,2.00,1.75,1,3,L05N08,2022-10-06_12h01.45.324,t1_Paradigm,2021.1.4,60.00537070406885,
3,0,3,3,3,2611.017382006674,EDleftbutton,1,0,2.00,1.62,1,3,L05N08,2022-10-06_12h01.45.324,t1_Paradigm,2021.1.4,60.00537070406885,
4,0,4,4,4,2613.088418443669,EDleftbutton,1,0,2.00,1.68,1,3,L05N08,2022-10-06_12h01.45.324,t1_Paradigm,2021.1.4,60.00537070406885,
5,0,5,5,5,2614.6962872639433,EDrightbutton,0,1,2.00,1.71,1,3,L05N08,2022-10-06_12h01.45.324,t1_Paradigm,2021.1.4,60.00537070406885,
0,0,0,0,0,2621.3961604509714,EDrightbutton,0,1,2.00,1.00,2,4,L05N08,2022-10-06_12h01.45.324,t1_Paradigm,2021.1.4,60.00537070406885,
1,0,1,1,1,2623.5450805196615,EDrightbutton,0,1,2.00,0.50,2,4,L05N08,2022-10-06_12h01.45.324,t1_Paradigm,2021.1.4,60.00537070406885,
2,0,2,2,2,2625.4623338527126,EDleftbutton,1,0,2.00,0.25,2,4,L05N08,2022-10-06_12h01.45.324,t1_Paradigm,2021.1.4,60.00537070406885,
3,0,3,3,3,2628.828628292991,EDrightbutton,0,1,2.00,0.38,2,4,L05N08,2022-10-06_12h01.45.324,t1_Paradigm,2021.1.4,60.00537070406885,
4,0,4,4,4,2630.0837016940586,EDrightbutton,0,1,2.00,0.32,2,4,L05N08,2022-10-06_12h01.45.324,t1_Paradigm,2021.1.4,60.00537070406885,
5,0,5,5,5,2631.286550478653,EDrightbutton,0,1,2.00,0.29,2,4,L05N08,2022-10-06_12h01.45.324,t1_Paradigm,2021.1.4,60.00537070406885,
