Letter,CorrAnswer,Stimulus,finaln_nback_run.thisRepN,finaln_nback_run.thisTrialN,finaln_nback_run.thisN,finaln_nback_run.thisIndex,finaln_fixcross.started,finaln_nback_trial.started,finaln_trial_resp.keys,finaln_trial_resp.corr,finaln_level,finaln_money,finaln_trial_resp.rt,Participant,date,expName,psychopyVersion,frameRate,
D,left,Distractor,0,0,0,0,2736.6427666765812,2738.6445551497745,None,0,2,2.59,,L07B10,2022-09-21_16h09.24.822,t1_Paradigm,2021.1.4,59.98356658772844,
M,left,Pretarget,0,1,1,1,2740.14474442316,2742.1451752607536,left,1,2,2.59,0.5329473653109744,L07B10,2022-09-21_16h09.24.822,t1_Paradigm,2021.1.4,59.98356658772844,
T,left,Distractor,0,2,2,2,2743.644970909634,2745.6452432708465,left,1,2,2.59,0.6485773698077537,L07B10,2022-09-21_16h09.24.822,t1_Paradigm,2021.1.4,59.98356658772844,
G,left,Pretarget,0,3,3,3,2747.1448182077147,2749.144580172375,left,1,2,2.59,1.2290612296201289,L07B10,2022-09-21_16h09.24.822,t1_Paradigm,2021.1.4,59.98356658772844,
M,right,Target,0,4,4,4,2750.644750518404,2752.6452522533073,None,0,2,2.59,,L07B10,2022-09-21_16h09.24.822,t1_Paradigm,2021.1.4,59.98356658772844,
P,left,Distractor,0,5,5,5,2754.144840663881,2756.1452150402474,left,1,2,2.59,1.1245938641950488,L07B10,2022-09-21_16h09.24.822,t1_Paradigm,2021.1.4,59.98356658772844,
G,right,Target,0,6,6,6,2757.6451300276094,2759.6452025289473,right,1,2,2.59,1.400419096200494,L07B10,2022-09-21_16h09.24.822,t1_Paradigm,2021.1.4,59.98356658772844,
J,left,Distractor,0,7,7,7,2761.144943962252,2763.1452237018966,left,1,2,2.59,0.8125830877979752,L07B10,2022-09-21_16h09.24.822,t1_Paradigm,2021.1.4,59.98356658772844,
M,left,Lure,0,8,8,8,2764.6451393308816,2766.6461636528256,left,1,2,2.59,1.215628592966823,L07B10,2022-09-21_16h09.24.822,t1_Paradigm,2021.1.4,59.98356658772844,
F,left,Pretarget,0,9,9,9,2768.144946528657,2770.144959039957,left,1,2,2.59,1.3006546934775542,L07B10,2022-09-21_16h09.24.822,t1_Paradigm,2021.1.4,59.98356658772844,
R,left,Distractor,0,10,10,10,2771.6448095460655,2773.644643691223,None,0,2,2.59,,L07B10,2022-09-21_16h09.24.822,t1_Paradigm,2021.1.4,59.98356658772844,
G,left,Distractor,0,11,11,11,2775.144863440859,2777.144794147549,None,0,2,2.59,,L07B10,2022-09-21_16h09.24.822,t1_Paradigm,2021.1.4,59.98356658772844,
F,right,Target,0,12,12,12,2778.6449166940292,2780.6459602641407,None,0,2,2.59,,L07B10,2022-09-21_16h09.24.822,t1_Paradigm,2021.1.4,59.98356658772844,
F,left,Lure,0,13,13,13,2782.1448467591254,2784.1452772759076,right,0,2,2.59,1.1725076222792268,L07B10,2022-09-21_16h09.24.822,t1_Paradigm,2021.1.4,59.98356658772844,
S,left,Distractor,0,14,14,14,2785.6448303982033,2787.645181355998,None,0,2,2.59,,L07B10,2022-09-21_16h09.24.822,t1_Paradigm,2021.1.4,59.98356658772844,
F,right,Target,0,15,15,15,2789.145006839506,2791.145283371152,None,0,2,2.59,,L07B10,2022-09-21_16h09.24.822,t1_Paradigm,2021.1.4,59.98356658772844,
T,left,Pretarget,0,16,16,16,2792.645097626577,2794.6452602733625,None,0,2,2.59,,L07B10,2022-09-21_16h09.24.822,t1_Paradigm,2021.1.4,59.98356658772844,
Z,left,Distractor,0,17,17,17,2796.1448724233196,2798.1453622885165,None,0,2,2.59,,L07B10,2022-09-21_16h09.24.822,t1_Paradigm,2021.1.4,59.98356658772844,
W,left,Distractor,0,18,18,18,2799.6451268195815,2801.645307752129,left,1,2,2.59,0.8562911268672906,L07B10,2022-09-21_16h09.24.822,t1_Paradigm,2021.1.4,59.98356658772844,
T,right,Target,0,19,19,19,2803.145032824512,2805.1452365340083,None,0,2,2.59,,L07B10,2022-09-21_16h09.24.822,t1_Paradigm,2021.1.4,59.98356658772844,
V,left,Distractor,0,20,20,20,2806.6450928145496,2808.6448069796315,None,0,2,2.59,,L07B10,2022-09-21_16h09.24.822,t1_Paradigm,2021.1.4,59.98356658772844,
N,left,Distractor,0,21,21,21,2810.144891029864,2812.1466490268067,left,1,2,2.59,0.6752896203834098,L07B10,2022-09-21_16h09.24.822,t1_Paradigm,2021.1.4,59.98356658772844,
P,left,Pretarget,0,22,22,22,2813.645405276038,2815.6444675707316,left,1,2,2.59,0.9693835846555885,L07B10,2022-09-21_16h09.24.822,t1_Paradigm,2021.1.4,59.98356658772844,
T,left,Lure,0,23,23,23,2817.145157937426,2819.145002348261,left,1,2,2.59,0.9248504419228993,L07B10,2022-09-21_16h09.24.822,t1_Paradigm,2021.1.4,59.98356658772844,
L,left,Pretarget,0,24,24,24,2820.645025125239,2822.64476399211,left,1,2,2.59,0.7050315284577664,L07B10,2022-09-21_16h09.24.822,t1_Paradigm,2021.1.4,59.98356658772844,
P,right,Target,0,25,25,25,2824.1449346589798,2826.145311601751,right,1,2,2.59,1.0126973576261662,L07B10,2022-09-21_16h09.24.822,t1_Paradigm,2021.1.4,59.98356658772844,
G,left,Pretarget,0,26,26,26,2827.645060413488,2829.645223381114,left,1,2,2.59,1.4486478822072968,L07B10,2022-09-21_16h09.24.822,t1_Paradigm,2021.1.4,59.98356658772844,
L,right,Target,0,27,27,27,2831.144755651243,2833.1474272933556,None,0,2,2.59,,L07B10,2022-09-21_16h09.24.822,t1_Paradigm,2021.1.4,59.98356658772844,
F,left,Distractor,0,28,28,28,2834.645020633994,2836.6453138473735,left,1,2,2.59,0.8003409487428144,L07B10,2022-09-21_16h09.24.822,t1_Paradigm,2021.1.4,59.98356658772844,
G,right,Target,0,29,29,29,2838.1448644032644,2840.1456494066515,left,0,2,2.59,1.0440888314624317,L07B10,2022-09-21_16h09.24.822,t1_Paradigm,2021.1.4,59.98356658772844,
R,left,Pretarget,0,30,30,30,2841.6449234308966,2843.6451784687815,left,1,2,2.59,0.79256758664269,L07B10,2022-09-21_16h09.24.822,t1_Paradigm,2021.1.4,59.98356658772844,
X,left,Distractor,0,31,31,31,2845.144965456013,2847.145401105605,left,1,2,2.59,0.8284804490103852,L07B10,2022-09-21_16h09.24.822,t1_Paradigm,2021.1.4,59.98356658772844,
W,left,Distractor,0,32,32,32,2848.645193867298,2850.645917276619,left,1,2,2.59,1.071980351494858,L07B10,2022-09-21_16h09.24.822,t1_Paradigm,2021.1.4,59.98356658772844,
R,right,Target,0,33,33,33,2852.145008764317,2854.1449234308966,right,1,2,2.59,1.0929569765576161,L07B10,2022-09-21_16h09.24.822,t1_Paradigm,2021.1.4,59.98356658772844,
S,left,Distractor,0,34,34,34,2855.6450286540785,2857.6449750800675,left,1,2,2.59,0.8566552375559695,L07B10,2022-09-21_16h09.24.822,t1_Paradigm,2021.1.4,59.98356658772844,
D,left,Distractor,0,35,35,35,2859.1449840625282,2861.145300373668,left,1,2,2.59,0.508656210207846,L07B10,2022-09-21_16h09.24.822,t1_Paradigm,2021.1.4,59.98356658772844,
R,right,Target,0,36,36,36,2862.6451588998316,2864.6453837822773,right,1,2,2.59,0.5443984057346825,L07B10,2022-09-21_16h09.24.822,t1_Paradigm,2021.1.4,59.98356658772844,
T,left,Distractor,0,37,37,37,2866.1453366243513,2868.1451941880805,left,1,2,2.59,0.7407316988683306,L07B10,2022-09-21_16h09.24.822,t1_Paradigm,2021.1.4,59.98356658772844,
G,left,Distractor,0,38,38,38,2869.64521022822,2871.644870819291,left,1,2,2.59,1.1289750621072017,L07B10,2022-09-21_16h09.24.822,t1_Paradigm,2021.1.4,59.98356658772844,
K,left,Pretarget,0,39,39,39,2873.1450090851285,2875.144891671458,left,1,2,2.59,0.8130575545073953,L07B10,2022-09-21_16h09.24.822,t1_Paradigm,2021.1.4,59.98356658772844,
R,left,Lure,0,40,40,40,2876.6454165041214,2878.6453176969953,right,0,2,2.59,1.4406262190605048,L07B10,2022-09-21_16h09.24.822,t1_Paradigm,2021.1.4,59.98356658772844,
Q,left,Pretarget,0,41,41,41,2880.1450405237556,2882.145441847504,left,1,2,2.59,0.7404702449275646,L07B10,2022-09-21_16h09.24.822,t1_Paradigm,2021.1.4,59.98356658772844,
K,right,Target,0,42,42,42,2883.645062338328,2885.6448012051987,None,0,2,2.59,,L07B10,2022-09-21_16h09.24.822,t1_Paradigm,2021.1.4,59.98356658772844,
Z,left,Distractor,0,43,43,43,2887.14511591231,2889.144939471007,left,1,2,2.59,0.8930149776278995,L07B10,2022-09-21_16h09.24.822,t1_Paradigm,2021.1.4,59.98356658772844,
Q,right,Target,0,44,44,44,2890.6450838320598,2892.645406559255,None,0,2,2.59,,L07B10,2022-09-21_16h09.24.822,t1_Paradigm,2021.1.4,59.98356658772844,
W,left,Distractor,0,45,45,45,2894.144979892095,2896.1449516614957,left,1,2,2.59,1.2049282300868072,L07B10,2022-09-21_16h09.24.822,t1_Paradigm,2021.1.4,59.98356658772844,
X,left,Distractor,0,46,46,46,2897.6450665087323,2899.645316092996,None,0,2,2.59,,L07B10,2022-09-21_16h09.24.822,t1_Paradigm,2021.1.4,59.98356658772844,
R,left,Distractor,0,47,47,47,2901.145207020192,2903.1451380476647,left,1,2,2.59,1.1330832571838982,L07B10,2022-09-21_16h09.24.822,t1_Paradigm,2021.1.4,59.98356658772844,
P,left,Pretarget,0,48,48,48,2904.645111421065,2906.6451229699596,left,1,2,2.59,0.7686844921554439,L07B10,2022-09-21_16h09.24.822,t1_Paradigm,2021.1.4,59.98356658772844,
Z,left,Pretarget,0,49,49,49,2908.1449208644626,2910.1453860279,left,1,2,2.59,0.692552316468209,L07B10,2022-09-21_16h09.24.822,t1_Paradigm,2021.1.4,59.98356658772844,
V,left,Distractor,0,50,50,50,2911.6451143083104,2913.644997536234,left,1,2,2.59,1.384851840644842,L07B10,2022-09-21_16h09.24.822,t1_Paradigm,2021.1.4,59.98356658772844,
P,right,Target,0,51,51,51,2915.145387311117,2917.146515252214,right,1,2,2.59,1.0993531341082416,L07B10,2022-09-21_16h09.24.822,t1_Paradigm,2021.1.4,59.98356658772844,
Z,right,Target,0,52,52,52,2918.644921826868,2920.6447835610597,right,1,2,2.59,1.4092180634906981,L07B10,2022-09-21_16h09.24.822,t1_Paradigm,2021.1.4,59.98356658772844,
H,left,Distractor,0,53,53,53,2922.145183280809,2924.1458755723143,left,1,2,2.59,1.1081248331756797,L07B10,2022-09-21_16h09.24.822,t1_Paradigm,2021.1.4,59.98356658772844,
L,left,Distractor,0,54,54,54,2925.645126498799,2927.645459491643,left,1,2,2.59,0.9044807749451138,L07B10,2022-09-21_16h09.24.822,t1_Paradigm,2021.1.4,59.98356658772844,
Z,right,Target,0,55,55,55,2929.1449506990903,2931.1449279221124,right,1,2,2.59,1.2448969967663288,L07B10,2022-09-21_16h09.24.822,t1_Paradigm,2021.1.4,59.98356658772844,
Z,left,Lure,0,56,56,56,2932.64512842361,2934.6451935464866,left,1,2,2.59,1.3928603508975357,L07B10,2022-09-21_16h09.24.822,t1_Paradigm,2021.1.4,59.98356658772844,
B,left,Distractor,0,57,57,57,2936.1452381380077,2938.145414900122,left,1,2,2.59,0.9965757555619348,L07B10,2022-09-21_16h09.24.822,t1_Paradigm,2021.1.4,59.98356658772844,
J,left,Distractor,0,58,58,58,2939.645456283615,2941.6455781885306,left,1,2,2.59,0.6485016604710836,L07B10,2022-09-21_16h09.24.822,t1_Paradigm,2021.1.4,59.98356658772844,
X,left,Pretarget,0,59,59,59,2943.1450052355067,2945.144983741746,left,1,2,2.59,0.6848694205982611,L07B10,2022-09-21_16h09.24.822,t1_Paradigm,2021.1.4,59.98356658772844,
R,left,Distractor,0,60,60,60,2946.6451646742644,2948.644981816935,left,1,2,2.59,0.6729987706930842,L07B10,2022-09-21_16h09.24.822,t1_Paradigm,2021.1.4,59.98356658772844,
F,left,Distractor,0,61,61,61,2950.145534559386,2952.1452407044417,left,1,2,2.59,1.220653962023789,L07B10,2022-09-21_16h09.24.822,t1_Paradigm,2021.1.4,59.98356658772844,
X,right,Target,0,62,62,62,2953.645132914826,2955.6448461175314,left,0,2,2.59,1.4010148262022994,L07B10,2022-09-21_16h09.24.822,t1_Paradigm,2021.1.4,59.98356658772844,
T,left,Distractor,0,63,63,63,2957.145018388401,2959.1450341076998,left,1,2,2.59,0.925017900794046,L07B10,2022-09-21_16h09.24.822,t1_Paradigm,2021.1.4,59.98356658772844,
