Currentstep,EDround.thisRepN,EDround.thisTrialN,EDround.thisN,EDround.thisIndex,question.started,EDclick.clicked_name,EDleftbutton.wasclicked,EDrightbutton.wasclicked,EDleftbutton.value,EDrightbutton.value,EDleftbutton.nback,EDrightbutton.nback,Participant,date,expName,psychopyVersion,frameRate,
,,,,,,,,,,,,,L07B10,2022-09-21_16h09.24.822,t1_Paradigm,2021.1.4,59.98356658772844,
0,0,0,0,0,2557.9374759398343,EDleftbutton,1,0,1.00,2.00,1,4,L07B10,2022-09-21_16h09.24.822,t1_Paradigm,2021.1.4,59.98356658772844,
1,0,1,1,1,2561.0243739220896,EDleftbutton,1,0,0.50,2.00,1,4,L07B10,2022-09-21_16h09.24.822,t1_Paradigm,2021.1.4,59.98356658772844,
2,0,2,2,2,2565.665954913158,EDleftbutton,1,0,0.25,2.00,1,4,L07B10,2022-09-21_16h09.24.822,t1_Paradigm,2021.1.4,59.98356658772844,
3,0,3,3,3,2570.1874727318063,EDrightbutton,0,1,0.12,2.00,1,4,L07B10,2022-09-21_16h09.24.822,t1_Paradigm,2021.1.4,59.98356658772844,
4,0,4,4,4,2573.3268732291763,EDrightbutton,0,1,0.18,2.00,1,4,L07B10,2022-09-21_16h09.24.822,t1_Paradigm,2021.1.4,59.98356658772844,
5,0,5,5,5,2577.0515077069576,EDleftbutton,1,0,0.21,2.00,1,4,L07B10,2022-09-21_16h09.24.822,t1_Paradigm,2021.1.4,59.98356658772844,
0,0,0,0,0,2581.7003507011395,EDleftbutton,1,0,1.00,2.00,1,3,L07B10,2022-09-21_16h09.24.822,t1_Paradigm,2021.1.4,59.98356658772844,
1,0,1,1,1,2588.53176360458,EDleftbutton,1,0,0.50,2.00,1,3,L07B10,2022-09-21_16h09.24.822,t1_Paradigm,2021.1.4,59.98356658772844,
2,0,2,2,2,2591.219897830859,EDleftbutton,1,0,0.25,2.00,1,3,L07B10,2022-09-21_16h09.24.822,t1_Paradigm,2021.1.4,59.98356658772844,
3,0,3,3,3,2595.6686746756022,EDrightbutton,0,1,0.12,2.00,1,3,L07B10,2022-09-21_16h09.24.822,t1_Paradigm,2021.1.4,59.98356658772844,
4,0,4,4,4,2597.4964798356523,EDrightbutton,0,1,0.18,2.00,1,3,L07B10,2022-09-21_16h09.24.822,t1_Paradigm,2021.1.4,59.98356658772844,
5,0,5,5,5,2599.8204507658083,EDrightbutton,0,1,0.21,2.00,1,3,L07B10,2022-09-21_16h09.24.822,t1_Paradigm,2021.1.4,59.98356658772844,
0,0,0,0,0,2602.4131648949697,EDrightbutton,0,1,1.00,2.00,3,4,L07B10,2022-09-21_16h09.24.822,t1_Paradigm,2021.1.4,59.98356658772844,
1,0,1,1,1,2613.1347908881726,EDrightbutton,0,1,1.50,2.00,3,4,L07B10,2022-09-21_16h09.24.822,t1_Paradigm,2021.1.4,59.98356658772844,
2,0,2,2,2,2616.5362070381525,EDleftbutton,1,0,1.75,2.00,3,4,L07B10,2022-09-21_16h09.24.822,t1_Paradigm,2021.1.4,59.98356658772844,
3,0,3,3,3,2618.7912468432914,EDleftbutton,1,0,1.62,2.00,3,4,L07B10,2022-09-21_16h09.24.822,t1_Paradigm,2021.1.4,59.98356658772844,
4,0,4,4,4,2621.7843819934933,EDrightbutton,0,1,1.56,2.00,3,4,L07B10,2022-09-21_16h09.24.822,t1_Paradigm,2021.1.4,59.98356658772844,
5,0,5,5,5,2623.4477008735994,EDrightbutton,0,1,1.59,2.00,3,4,L07B10,2022-09-21_16h09.24.822,t1_Paradigm,2021.1.4,59.98356658772844,
0,0,0,0,0,2627.561230905849,EDleftbutton,1,0,1.00,2.00,2,3,L07B10,2022-09-21_16h09.24.822,t1_Paradigm,2021.1.4,59.98356658772844,
1,0,1,1,1,2631.37085555424,EDleftbutton,1,0,0.50,2.00,2,3,L07B10,2022-09-21_16h09.24.822,t1_Paradigm,2021.1.4,59.98356658772844,
2,0,2,2,2,2634.9524939817493,EDleftbutton,1,0,0.25,2.00,2,3,L07B10,2022-09-21_16h09.24.822,t1_Paradigm,2021.1.4,59.98356658772844,
3,0,3,3,3,2636.617533004144,EDrightbutton,0,1,0.12,2.00,2,3,L07B10,2022-09-21_16h09.24.822,t1_Paradigm,2021.1.4,59.98356658772844,
4,0,4,4,4,2638.4798019622976,EDrightbutton,0,1,0.18,2.00,2,3,L07B10,2022-09-21_16h09.24.822,t1_Paradigm,2021.1.4,59.98356658772844,
5,0,5,5,5,2645.118883582094,EDrightbutton,0,1,0.21,2.00,2,3,L07B10,2022-09-21_16h09.24.822,t1_Paradigm,2021.1.4,59.98356658772844,
0,0,0,0,0,2648.6823145505623,EDleftbutton,1,0,1.00,2.00,2,4,L07B10,2022-09-21_16h09.24.822,t1_Paradigm,2021.1.4,59.98356658772844,
1,0,1,1,1,2652.801114724047,EDleftbutton,1,0,0.50,2.00,2,4,L07B10,2022-09-21_16h09.24.822,t1_Paradigm,2021.1.4,59.98356658772844,
2,0,2,2,2,2655.0346890013607,EDleftbutton,1,0,0.25,2.00,2,4,L07B10,2022-09-21_16h09.24.822,t1_Paradigm,2021.1.4,59.98356658772844,
3,0,3,3,3,2656.8022096225177,EDrightbutton,0,1,0.12,2.00,2,4,L07B10,2022-09-21_16h09.24.822,t1_Paradigm,2021.1.4,59.98356658772844,
4,0,4,4,4,2658.6149457330757,EDrightbutton,0,1,0.18,2.00,2,4,L07B10,2022-09-21_16h09.24.822,t1_Paradigm,2021.1.4,59.98356658772844,
5,0,5,5,5,2661.5127935983182,EDleftbutton,1,0,0.21,2.00,2,4,L07B10,2022-09-21_16h09.24.822,t1_Paradigm,2021.1.4,59.98356658772844,
0,0,0,0,0,2663.05426628649,EDleftbutton,1,0,1.00,2.00,1,2,L07B10,2022-09-21_16h09.24.822,t1_Paradigm,2021.1.4,59.98356658772844,
1,0,1,1,1,2666.9518713043653,EDleftbutton,1,0,0.50,2.00,1,2,L07B10,2022-09-21_16h09.24.822,t1_Paradigm,2021.1.4,59.98356658772844,
2,0,2,2,2,2668.152575850516,EDleftbutton,1,0,0.25,2.00,1,2,L07B10,2022-09-21_16h09.24.822,t1_Paradigm,2021.1.4,59.98356658772844,
3,0,3,3,3,2669.319365491421,EDrightbutton,0,1,0.12,2.00,1,2,L07B10,2022-09-21_16h09.24.822,t1_Paradigm,2021.1.4,59.98356658772844,
4,0,4,4,4,2670.951036576589,EDrightbutton,0,1,0.18,2.00,1,2,L07B10,2022-09-21_16h09.24.822,t1_Paradigm,2021.1.4,59.98356658772844,
5,0,5,5,5,2674.635432813724,EDrightbutton,0,1,0.21,2.00,1,2,L07B10,2022-09-21_16h09.24.822,t1_Paradigm,2021.1.4,59.98356658772844,
