Letter,CorrAnswer,Stimulus,nback_run.thisRepN,nback_run.thisTrialN,nback_run.thisN,nback_run.thisIndex,fixcross.started,nback_trial.started,trial_resp.keys,trial_resp.corr,currentlevel,trial_resp.rt,Participant,date,expName,psychopyVersion,frameRate,
H,left,Distractor,0,0,0,0,184.49033422474167,186.42557449286687,None,0,1,,L07B10,2022-09-21_16h09.24.822,t1_Paradigm,2021.1.4,59.98356658772844,
Q,left,Pretarget,0,1,1,1,187.92765842503286,189.92673483502585,left,1,1,1.3402224571909755,L07B10,2022-09-21_16h09.24.822,t1_Paradigm,2021.1.4,59.98356658772844,
Q,right,Target,0,2,2,2,191.42592224263353,193.42590171127813,left,0,1,0.5612058832484763,L07B10,2022-09-21_16h09.24.822,t1_Paradigm,2021.1.4,59.98356658772844,
T,left,Distractor,0,3,3,3,194.9256832448882,196.93882491375552,left,1,1,1.3522217488498427,L07B10,2022-09-21_16h09.24.822,t1_Paradigm,2021.1.4,59.98356658772844,
Q,left,Lure,0,4,4,4,198.42522995112813,200.42573329005972,left,1,1,0.8412705185182858,L07B10,2022-09-21_16h09.24.822,t1_Paradigm,2021.1.4,59.98356658772844,
L,left,Distractor,0,5,5,5,201.9256992849987,203.9264502833248,left,1,1,0.7483988753810991,L07B10,2022-09-21_16h09.24.822,t1_Paradigm,2021.1.4,59.98356658772844,
V,left,Pretarget,0,6,6,6,205.4258487788902,207.4276311568392,left,1,1,0.5112960928818211,L07B10,2022-09-21_16h09.24.822,t1_Paradigm,2021.1.4,59.98356658772844,
V,right,Target,0,7,7,7,208.92587251827354,210.92603837308707,right,1,1,0.6291120447276626,L07B10,2022-09-21_16h09.24.822,t1_Paradigm,2021.1.4,59.98356658772844,
K,left,Distractor,0,8,8,8,212.4259084481455,214.4276135127002,left,1,1,0.5512536314781755,L07B10,2022-09-21_16h09.24.822,t1_Paradigm,2021.1.4,59.98356658772844,
G,left,Pretarget,0,9,9,9,215.92574644295382,217.92746754761902,left,1,1,0.7955609934870154,L07B10,2022-09-21_16h09.24.822,t1_Paradigm,2021.1.4,59.98356658772844,
G,right,Target,0,10,10,10,219.42624176180107,221.42595175644965,right,1,1,0.6090067188779358,L07B10,2022-09-21_16h09.24.822,t1_Paradigm,2021.1.4,59.98356658772844,
G,right,Target,0,11,11,11,222.9262510650733,224.92594437798834,right,1,1,0.5970687004737556,L07B10,2022-09-21_16h09.24.822,t1_Paradigm,2021.1.4,59.98356658772844,
P,left,Pretarget,0,12,12,12,226.4255998362496,228.42759971821215,left,1,1,0.5033116427948698,L07B10,2022-09-21_16h09.24.822,t1_Paradigm,2021.1.4,59.98356658772844,
P,right,Target,0,13,13,13,229.92611440326436,231.92626004753402,right,1,1,0.5726466580235865,L07B10,2022-09-21_16h09.24.822,t1_Paradigm,2021.1.4,59.98356658772844,
G,left,Lure,0,14,14,14,233.42590524011757,235.4256072147109,left,1,1,0.5133954235643614,L07B10,2022-09-21_16h09.24.822,t1_Paradigm,2021.1.4,59.98356658772844,
Y,left,Distractor,0,15,15,15,236.92582118988503,238.92765489622252,left,1,1,0.6754506631696131,L07B10,2022-09-21_16h09.24.822,t1_Paradigm,2021.1.4,59.98356658772844,
B,left,Distractor,0,16,16,16,240.42618882941315,242.42674221348716,left,1,1,0.8721188739582431,L07B10,2022-09-21_16h09.24.822,t1_Paradigm,2021.1.4,59.98356658772844,
T,left,Pretarget,0,17,17,17,243.92618433816824,245.92598800713313,left,1,1,0.5730771747766994,L07B10,2022-09-21_16h09.24.822,t1_Paradigm,2021.1.4,59.98356658772844,
T,right,Target,0,18,18,18,247.42623694977374,249.42590748574003,right,1,1,0.5612591364479158,L07B10,2022-09-21_16h09.24.822,t1_Paradigm,2021.1.4,59.98356658772844,
S,left,Distractor,0,19,19,19,250.9257271948154,252.9275756580173,left,1,1,0.4833051241002977,L07B10,2022-09-21_16h09.24.822,t1_Paradigm,2021.1.4,59.98356658772844,
T,left,Lure,0,20,20,20,254.42635436341516,256.42637008274323,left,1,1,0.7285700811771676,L07B10,2022-09-21_16h09.24.822,t1_Paradigm,2021.1.4,59.98356658772844,
J,left,Distractor,0,21,21,21,257.9258981824678,259.92595464366605,left,1,1,0.6049075062619522,L07B10,2022-09-21_16h09.24.822,t1_Paradigm,2021.1.4,59.98356658772844,
P,left,Distractor,0,22,22,22,261.4259203178226,263.4260078968655,left,1,1,0.593023382651154,L07B10,2022-09-21_16h09.24.822,t1_Paradigm,2021.1.4,59.98356658772844,
F,left,Distractor,0,23,23,23,264.92629565659445,266.9277264351549,left,1,1,0.5633177252311725,L07B10,2022-09-21_16h09.24.822,t1_Paradigm,2021.1.4,59.98356658772844,
L,left,Distractor,0,24,24,24,268.42589625765686,270.42601206729887,left,1,1,0.6331451720616315,L07B10,2022-09-21_16h09.24.822,t1_Paradigm,2021.1.4,59.98356658772844,
W,left,Pretarget,0,25,25,25,271.925689019321,273.9258032249636,left,1,1,0.47720955836120993,L07B10,2022-09-21_16h09.24.822,t1_Paradigm,2021.1.4,59.98356658772844,
W,right,Target,0,26,26,26,275.42581701945164,277.4260152753268,right,1,1,0.561183747893665,L07B10,2022-09-21_16h09.24.822,t1_Paradigm,2021.1.4,59.98356658772844,
V,left,Distractor,0,27,27,27,278.92584813729627,280.9260694909317,left,1,1,0.46869065158534795,L07B10,2022-09-21_16h09.24.822,t1_Paradigm,2021.1.4,59.98356658772844,
W,left,Lure,0,28,28,28,282.42579969612416,284.4262568395061,left,1,1,0.6968260455469135,L07B10,2022-09-21_16h09.24.822,t1_Paradigm,2021.1.4,59.98356658772844,
R,left,Pretarget,0,29,29,29,285.92603356105974,287.9276718987385,left,1,1,0.651264731248375,L07B10,2022-09-21_16h09.24.822,t1_Paradigm,2021.1.4,59.98356658772844,
R,right,Target,0,30,30,30,289.42580803699093,291.4263405689271,right,1,1,0.528621024597669,L07B10,2022-09-21_16h09.24.822,t1_Paradigm,2021.1.4,59.98356658772844,
G,left,Distractor,0,31,31,31,292.92606275406433,294.9257435557083,left,1,1,0.5497067224932835,L07B10,2022-09-21_16h09.24.822,t1_Paradigm,2021.1.4,59.98356658772844,
R,left,Lure,0,32,32,32,296.42585936537944,298.4263678371208,None,0,1,,L07B10,2022-09-21_16h09.24.822,t1_Paradigm,2021.1.4,59.98356658772844,
S,left,Distractor,0,33,33,33,299.9263341528713,301.92570858827094,left,1,1,0.6372260989446659,L07B10,2022-09-21_16h09.24.822,t1_Paradigm,2021.1.4,59.98356658772844,
R,left,Lure,0,34,34,34,303.4261782429239,305.42683845420834,left,1,1,1.1041670944250654,L07B10,2022-09-21_16h09.24.822,t1_Paradigm,2021.1.4,59.98356658772844,
P,left,Pretarget,0,35,35,35,306.92631009270553,308.9261326889973,left,1,1,0.7730076248408295,L07B10,2022-09-21_16h09.24.822,t1_Paradigm,2021.1.4,59.98356658772844,
P,right,Target,0,36,36,36,310.4259610597219,312.42626036834554,right,1,1,0.7610224484524224,L07B10,2022-09-21_16h09.24.822,t1_Paradigm,2021.1.4,59.98356658772844,
Y,left,Pretarget,0,37,37,37,313.92608905988163,315.9261413506465,left,1,1,0.5408795246039517,L07B10,2022-09-21_16h09.24.822,t1_Paradigm,2021.1.4,59.98356658772844,
Y,right,Target,0,38,38,38,317.42601880413713,319.42628250370035,right,1,1,0.6728139885235578,L07B10,2022-09-21_16h09.24.822,t1_Paradigm,2021.1.4,59.98356658772844,
J,left,Distractor,0,39,39,39,320.92594886923325,322.92596041812794,left,1,1,0.6132066634309012,L07B10,2022-09-21_16h09.24.822,t1_Paradigm,2021.1.4,59.98356658772844,
Y,left,Lure,0,40,40,40,324.4258718766796,326.42728051985614,left,1,1,0.967644835851388,L07B10,2022-09-21_16h09.24.822,t1_Paradigm,2021.1.4,59.98356658772844,
T,left,Distractor,0,41,41,41,327.9262828245119,329.92623598733917,left,1,1,0.7969247243891004,L07B10,2022-09-21_16h09.24.822,t1_Paradigm,2021.1.4,59.98356658772844,
V,left,Distractor,0,42,42,42,331.42636430831044,333.4266758073936,left,1,1,0.6404001175251324,L07B10,2022-09-21_16h09.24.822,t1_Paradigm,2021.1.4,59.98356658772844,
N,left,Pretarget,0,43,43,43,334.9258606485964,336.92752657528035,left,1,1,0.6117341805947945,L07B10,2022-09-21_16h09.24.822,t1_Paradigm,2021.1.4,59.98356658772844,
N,right,Target,0,44,44,44,338.42599538556533,340.4258263227239,right,1,1,0.5531845409132075,L07B10,2022-09-21_16h09.24.822,t1_Paradigm,2021.1.4,59.98356658772844,
N,right,Target,0,45,45,45,341.92596041812794,343.925774031959,right,1,1,0.49336997751379386,L07B10,2022-09-21_16h09.24.822,t1_Paradigm,2021.1.4,59.98356658772844,
X,left,Distractor,0,46,46,46,345.42593154590577,347.4274059535819,left,1,1,0.6876854237634689,L07B10,2022-09-21_16h09.24.822,t1_Paradigm,2021.1.4,59.98356658772844,
Z,left,Distractor,0,47,47,47,348.9260444683314,350.92618433816824,left,1,1,0.8048328234581277,L07B10,2022-09-21_16h09.24.822,t1_Paradigm,2021.1.4,59.98356658772844,
H,left,Pretarget,0,48,48,48,352.4260168793262,354.42749738224666,left,1,1,0.7916802472900599,L07B10,2022-09-21_16h09.24.822,t1_Paradigm,2021.1.4,59.98356658772844,
H,right,Target,0,49,49,49,355.92589176641195,357.9259565685061,right,1,1,0.49301035807002336,L07B10,2022-09-21_16h09.24.822,t1_Paradigm,2021.1.4,59.98356658772844,
K,left,Distractor,0,50,50,50,359.4259148641722,361.42592256344506,left,1,1,0.46526512390119024,L07B10,2022-09-21_16h09.24.822,t1_Paradigm,2021.1.4,59.98356658772844,
V,left,Pretarget,0,51,51,51,362.9260229745705,364.9266944139381,left,1,1,0.5964774617168587,L07B10,2022-09-21_16h09.24.822,t1_Paradigm,2021.1.4,59.98356658772844,
V,right,Target,0,52,52,52,366.42590748574,368.42620807755156,right,1,1,0.5048123562592082,L07B10,2022-09-21_16h09.24.822,t1_Paradigm,2021.1.4,59.98356658772844,
R,left,Distractor,0,53,53,53,369.92622700487846,371.92750893114135,left,1,1,0.6834610982332379,L07B10,2022-09-21_16h09.24.822,t1_Paradigm,2021.1.4,59.98356658772844,
V,left,Lure,0,54,54,54,373.426041581115,375.4263081678946,left,1,1,0.6567940808017738,L07B10,2022-09-21_16h09.24.822,t1_Paradigm,2021.1.4,59.98356658772844,
Y,left,Distractor,0,55,55,55,376.9257977713132,378.92625491469516,left,1,1,0.7408481501333881,L07B10,2022-09-21_16h09.24.822,t1_Paradigm,2021.1.4,59.98356658772844,
Q,left,Distractor,0,56,56,56,380.425503274746,382.42624721542234,left,1,1,0.7929076371365227,L07B10,2022-09-21_16h09.24.822,t1_Paradigm,2021.1.4,59.98356658772844,
Z,left,Pretarget,0,57,57,57,383.92589914487326,385.92674477989203,left,1,1,0.6523901059408672,L07B10,2022-09-21_16h09.24.822,t1_Paradigm,2021.1.4,59.98356658772844,
Z,right,Target,0,58,58,58,387.4258981824678,389.42603548587067,right,1,1,0.6410956170584541,L07B10,2022-09-21_16h09.24.822,t1_Paradigm,2021.1.4,59.98356658772844,
B,left,Distractor,0,59,59,59,390.92603676908766,392.92627640845603,left,1,1,0.7728485068655573,L07B10,2022-09-21_16h09.24.822,t1_Paradigm,2021.1.4,59.98356658772844,
S,left,Pretarget,0,60,60,60,394.4260868142592,396.426612609328,left,1,1,0.6328811516868882,L07B10,2022-09-21_16h09.24.822,t1_Paradigm,2021.1.4,59.98356658772844,
S,right,Target,0,61,61,61,397.92632677441,399.9260181625432,right,1,1,0.5571281643933617,L07B10,2022-09-21_16h09.24.822,t1_Paradigm,2021.1.4,59.98356658772844,
T,left,Distractor,0,62,62,62,401.42605120519875,403.42593411233975,left,1,1,0.7690546980884392,L07B10,2022-09-21_16h09.24.822,t1_Paradigm,2021.1.4,59.98356658772844,
D,left,Distractor,0,63,63,63,404.9260502427933,406.9278098437644,left,1,1,0.9794378516089637,L07B10,2022-09-21_16h09.24.822,t1_Paradigm,2021.1.4,59.98356658772844,
R,left,Distractor,0,0,0,0,445.8842230679875,447.8759999409667,None,0,1,,L07B10,2022-09-21_16h09.24.822,t1_Paradigm,2021.1.4,59.98356658772844,
V,left,Distractor,0,1,1,1,449.37615713413106,451.3763980567164,left,1,1,0.6588177021185402,L07B10,2022-09-21_16h09.24.822,t1_Paradigm,2021.1.4,59.98356658772844,
N,left,Pretarget,0,2,2,2,452.8762325226853,454.87594315895694,left,1,1,0.6313849294674583,L07B10,2022-09-21_16h09.24.822,t1_Paradigm,2021.1.4,59.98356658772844,
N,right,Target,0,3,3,3,456.3764269289095,458.3760320212168,right,1,1,0.4591657085402403,L07B10,2022-09-21_16h09.24.822,t1_Paradigm,2021.1.4,59.98356658772844,
S,left,Distractor,0,4,4,4,459.8758828481077,461.8761840815423,left,1,1,0.4471006524108816,L07B10,2022-09-21_16h09.24.822,t1_Paradigm,2021.1.4,59.98356658772844,
N,left,Lure,0,5,5,5,463.37601341467234,465.37628449266776,left,1,1,0.8028528312861454,L07B10,2022-09-21_16h09.24.822,t1_Paradigm,2021.1.4,59.98356658772844,
Z,left,Distractor,0,6,6,6,466.87640447274316,468.8763467283279,left,1,1,0.5346405602176674,L07B10,2022-09-21_16h09.24.822,t1_Paradigm,2021.1.4,59.98356658772844,
L,left,Pretarget,0,7,7,7,470.3762017256522,472.37597395599005,left,1,1,0.5871405088691972,L07B10,2022-09-21_16h09.24.822,t1_Paradigm,2021.1.4,59.98356658772844,
L,right,Target,0,8,8,8,473.8761240914755,475.87585718391347,right,1,1,0.47939710968057625,L07B10,2022-09-21_16h09.24.822,t1_Paradigm,2021.1.4,59.98356658772844,
H,left,Distractor,0,9,9,9,477.3760111690499,479.37583504855866,left,1,1,0.4993635281280149,L07B10,2022-09-21_16h09.24.822,t1_Paradigm,2021.1.4,59.98356658772844,
L,left,Lure,0,10,10,10,480.8764198712597,482.8763249137555,left,1,1,0.5667025109869428,L07B10,2022-09-21_16h09.24.822,t1_Paradigm,2021.1.4,59.98356658772844,
X,left,Pretarget,0,11,11,11,484.37590113384067,486.37599577053334,left,1,1,0.571152681397507,L07B10,2022-09-21_16h09.24.822,t1_Paradigm,2021.1.4,59.98356658772844,
X,right,Target,0,12,12,12,487.87615841734805,489.8762267482525,right,1,1,0.718876075319713,L07B10,2022-09-21_16h09.24.822,t1_Paradigm,2021.1.4,59.98356658772844,
X,right,Target,0,13,13,13,491.3764692748373,493.3761503972928,right,1,1,0.4831982969189994,L07B10,2022-09-21_16h09.24.822,t1_Paradigm,2021.1.4,59.98356658772844,
R,left,Distractor,0,14,14,14,494.8759861464787,496.8766216559452,left,1,1,0.566446831508074,L07B10,2022-09-21_16h09.24.822,t1_Paradigm,2021.1.4,59.98356658772844,
T,left,Distractor,0,15,15,15,498.3760159810772,500.3779517025687,left,1,1,0.6011733667401131,L07B10,2022-09-21_16h09.24.822,t1_Paradigm,2021.1.4,59.98356658772844,
V,left,Pretarget,0,16,16,16,501.8760599310044,503.87681381657603,left,1,1,0.6863120688358322,L07B10,2022-09-21_16h09.24.822,t1_Paradigm,2021.1.4,59.98356658772844,
V,right,Target,0,17,17,17,505.376058327005,507.37606313903234,right,1,1,0.6752344423730392,L07B10,2022-09-21_16h09.24.822,t1_Paradigm,2021.1.4,59.98356658772844,
N,left,Distractor,0,18,18,18,508.8761022769322,510.87639549028245,left,1,1,0.6469021398806944,L07B10,2022-09-21_16h09.24.822,t1_Paradigm,2021.1.4,59.98356658772844,
B,left,Distractor,0,19,19,19,512.3759351389017,514.3951714111317,left,1,1,0.6962043305684347,L07B10,2022-09-21_16h09.24.822,t1_Paradigm,2021.1.4,59.98356658772844,
V,left,Lure,0,20,20,20,515.876448101888,517.8769318718405,left,1,1,0.5420491700060666,L07B10,2022-09-21_16h09.24.822,t1_Paradigm,2021.1.4,59.98356658772844,
P,left,Distractor,0,21,21,21,519.3762893046951,521.3764750492701,left,1,1,0.5787438277620822,L07B10,2022-09-21_16h09.24.822,t1_Paradigm,2021.1.4,59.98356658772844,
K,left,Pretarget,0,22,22,22,522.8765895757242,524.8761077305535,left,1,1,0.9350349546293728,L07B10,2022-09-21_16h09.24.822,t1_Paradigm,2021.1.4,59.98356658772844,
K,right,Target,0,23,23,23,526.3761606629705,528.3761645125924,right,1,1,0.619073497102363,L07B10,2022-09-21_16h09.24.822,t1_Paradigm,2021.1.4,59.98356658772844,
J,left,Pretarget,0,24,24,24,529.8758610335353,531.8775182985701,left,1,1,0.8139144176384434,L07B10,2022-09-21_16h09.24.822,t1_Paradigm,2021.1.4,59.98356658772844,
J,right,Target,0,25,25,25,533.3764529139153,535.3761927431915,right,1,1,0.7391049100842793,L07B10,2022-09-21_16h09.24.822,t1_Paradigm,2021.1.4,59.98356658772844,
H,left,Distractor,0,26,26,26,536.8761144674208,538.8759678607457,left,1,1,0.5350553576427046,L07B10,2022-09-21_16h09.24.822,t1_Paradigm,2021.1.4,59.98356658772844,
J,left,Lure,0,27,27,27,540.3765036006807,542.3767419568321,left,1,1,1.0985665267216973,L07B10,2022-09-21_16h09.24.822,t1_Paradigm,2021.1.4,59.98356658772844,
V,left,Distractor,0,28,28,28,543.8760567229765,545.8767108390166,left,1,1,0.6705488030274864,L07B10,2022-09-21_16h09.24.822,t1_Paradigm,2021.1.4,59.98356658772844,
Z,left,Pretarget,0,29,29,29,547.3760535149777,549.377083290572,left,1,1,0.6582319170120172,L07B10,2022-09-21_16h09.24.822,t1_Paradigm,2021.1.4,59.98356658772844,
Z,right,Target,0,30,30,30,550.8760525525722,552.876024963567,right,1,1,0.5671044763585087,L07B10,2022-09-21_16h09.24.822,t1_Paradigm,2021.1.4,59.98356658772844,
T,left,Distractor,0,31,31,31,554.3760259259725,556.3763893950381,left,1,1,0.6188296873006038,L07B10,2022-09-21_16h09.24.822,t1_Paradigm,2021.1.4,59.98356658772844,
Z,left,Lure,0,32,32,32,557.8765189991973,559.8761638709693,left,1,1,0.7189906017738394,L07B10,2022-09-21_16h09.24.822,t1_Paradigm,2021.1.4,59.98356658772844,
F,left,Distractor,0,33,33,33,561.3762877006957,563.3761606629705,left,1,1,0.7071372751961462,L07B10,2022-09-21_16h09.24.822,t1_Paradigm,2021.1.4,59.98356658772844,
Y,left,Pretarget,0,34,34,34,564.8765581370972,566.877571230958,left,1,1,0.6935974905500188,L07B10,2022-09-21_16h09.24.822,t1_Paradigm,2021.1.4,59.98356658772844,
Y,right,Target,0,35,35,35,568.3760422868945,570.3761516804807,right,1,1,0.7950047222257126,L07B10,2022-09-21_16h09.24.822,t1_Paradigm,2021.1.4,59.98356658772844,
Y,right,Target,0,36,36,36,571.8759704271506,573.8765327937144,right,1,1,0.5265018042118754,L07B10,2022-09-21_16h09.24.822,t1_Paradigm,2021.1.4,59.98356658772844,
W,left,Distractor,0,37,37,37,575.3762049336801,577.3761491140758,left,1,1,0.6751247279753443,L07B10,2022-09-21_16h09.24.822,t1_Paradigm,2021.1.4,59.98356658772844,
Q,left,Distractor,0,38,38,38,578.8759415549284,580.8760547981656,left,1,1,0.8551885291235521,L07B10,2022-09-21_16h09.24.822,t1_Paradigm,2021.1.4,59.98356658772844,
P,left,Pretarget,0,39,39,39,582.3762706981797,584.3759957705333,left,1,1,0.6351517908333335,L07B10,2022-09-21_16h09.24.822,t1_Paradigm,2021.1.4,59.98356658772844,
P,right,Target,0,40,40,40,585.8761876103526,587.8765340769023,right,1,1,0.574745988677023,L07B10,2022-09-21_16h09.24.822,t1_Paradigm,2021.1.4,59.98356658772844,
J,left,Distractor,0,41,41,41,589.3761151090148,591.3765055254917,left,1,1,0.5469144586822949,L07B10,2022-09-21_16h09.24.822,t1_Paradigm,2021.1.4,59.98356658772844,
P,left,Lure,0,42,42,42,592.876291229506,594.8762193697912,left,1,1,0.8231140670541208,L07B10,2022-09-21_16h09.24.822,t1_Paradigm,2021.1.4,59.98356658772844,
L,left,Distractor,0,43,43,43,596.3759877504781,598.3774185290386,left,1,1,0.5378678319684695,L07B10,2022-09-21_16h09.24.822,t1_Paradigm,2021.1.4,59.98356658772844,
Z,left,Distractor,0,44,44,44,599.8765597410966,601.8764057559601,left,1,1,0.6389253890665714,L07B10,2022-09-21_16h09.24.822,t1_Paradigm,2021.1.4,59.98356658772844,
F,left,Pretarget,0,45,45,45,603.3763380666787,605.376091690443,left,1,1,0.7233233585138805,L07B10,2022-09-21_16h09.24.822,t1_Paradigm,2021.1.4,59.98356658772844,
F,right,Target,0,46,46,46,606.8765514002298,608.8761391692096,right,1,1,0.503119161381619,L07B10,2022-09-21_16h09.24.822,t1_Paradigm,2021.1.4,59.98356658772844,
G,left,Pretarget,0,47,47,47,610.3761459060479,612.3765754604246,left,1,1,0.7946637092973106,L07B10,2022-09-21_16h09.24.822,t1_Paradigm,2021.1.4,59.98356658772844,
G,right,Target,0,48,48,48,613.8761895351636,615.8763149688893,right,1,1,0.6710056255978998,L07B10,2022-09-21_16h09.24.822,t1_Paradigm,2021.1.4,59.98356658772844,
V,left,Distractor,0,49,49,49,617.376292512723,619.3765295856865,left,1,1,0.7388107342994772,L07B10,2022-09-21_16h09.24.822,t1_Paradigm,2021.1.4,59.98356658772844,
G,left,Lure,0,50,50,50,620.8766486033564,622.8766213351628,left,1,1,0.8867301384743769,L07B10,2022-09-21_16h09.24.822,t1_Paradigm,2021.1.4,59.98356658772844,
Q,left,Pretarget,0,51,51,51,624.3763643724669,626.3761189586367,left,1,1,0.7951073789736256,L07B10,2022-09-21_16h09.24.822,t1_Paradigm,2021.1.4,59.98356658772844,
Q,right,Target,0,52,52,52,627.8759704271506,629.8762075001141,right,1,1,0.7670092621992808,L07B10,2022-09-21_16h09.24.822,t1_Paradigm,2021.1.4,59.98356658772844,
Y,left,Distractor,0,53,53,53,631.3766052950232,633.3770156012615,left,1,1,0.6423987162706908,L07B10,2022-09-21_16h09.24.822,t1_Paradigm,2021.1.4,59.98356658772844,
V,left,Distractor,0,54,54,54,634.876344161923,636.8759999409667,left,1,1,0.6314737917273305,L07B10,2022-09-21_16h09.24.822,t1_Paradigm,2021.1.4,59.98356658772844,
B,left,Distractor,0,55,55,55,638.3760451741109,640.3765151495754,left,1,1,0.6828945612360258,L07B10,2022-09-21_16h09.24.822,t1_Paradigm,2021.1.4,59.98356658772844,
J,left,Pretarget,0,56,56,56,641.8765712899913,643.8765026382753,left,1,1,0.8789384906121995,L07B10,2022-09-21_16h09.24.822,t1_Paradigm,2021.1.4,59.98356658772844,
J,right,Target,0,57,57,57,645.3762527332292,647.3759357804956,right,1,1,0.6595542643626686,L07B10,2022-09-21_16h09.24.822,t1_Paradigm,2021.1.4,59.98356658772844,
H,left,Distractor,0,58,58,58,648.8767175758549,650.8763727133337,left,1,1,0.9668832510360517,L07B10,2022-09-21_16h09.24.822,t1_Paradigm,2021.1.4,59.98356658772844,
J,left,Lure,0,59,59,59,652.3761994800298,654.3761940264085,right,0,1,0.7633925363479648,L07B10,2022-09-21_16h09.24.822,t1_Paradigm,2021.1.4,59.98356658772844,
D,left,Pretarget,0,60,60,60,655.8763672596833,657.8761558509141,left,1,1,0.6392343217448797,L07B10,2022-09-21_16h09.24.822,t1_Paradigm,2021.1.4,59.98356658772844,
D,right,Target,0,61,61,61,659.3761876103526,661.3761301867198,right,1,1,0.7712441742187366,L07B10,2022-09-21_16h09.24.822,t1_Paradigm,2021.1.4,59.98356658772844,
R,left,Distractor,0,62,62,62,662.8763595604105,664.8763178561057,left,1,1,0.6471510824922007,L07B10,2022-09-21_16h09.24.822,t1_Paradigm,2021.1.4,59.98356658772844,
F,left,Distractor,0,63,63,63,666.3760708383052,668.3765876509133,left,1,1,0.6507456730178092,L07B10,2022-09-21_16h09.24.822,t1_Paradigm,2021.1.4,59.98356658772844,
F,left,Distractor,0,0,0,0,777.770125857176,779.7595746674051,None,0,2,,L07B10,2022-09-21_16h09.24.822,t1_Paradigm,2021.1.4,59.98356658772844,
N,left,Pretarget,0,1,1,1,781.2596234293596,783.260180983867,left,1,2,1.447582818364026,L07B10,2022-09-21_16h09.24.822,t1_Paradigm,2021.1.4,59.98356658772844,
V,left,Distractor,0,2,2,2,784.7596333742258,786.7599673294753,None,0,2,,L07B10,2022-09-21_16h09.24.822,t1_Paradigm,2021.1.4,59.98356658772844,
N,right,Target,0,3,3,3,788.2595528528327,790.260016091459,right,1,2,0.6235467653023079,L07B10,2022-09-21_16h09.24.822,t1_Paradigm,2021.1.4,59.98356658772844,
N,left,Lure,0,4,4,4,791.7601960615721,793.7596404318756,None,0,2,,L07B10,2022-09-21_16h09.24.822,t1_Paradigm,2021.1.4,59.98356658772844,
X,left,Distractor,0,5,5,5,795.2601084825292,797.2595698553487,left,1,2,0.616184992599301,L07B10,2022-09-21_16h09.24.822,t1_Paradigm,2021.1.4,59.98356658772844,
G,left,Pretarget,0,6,6,6,798.75935684258,800.7598162315844,left,1,2,0.42790608445648104,L07B10,2022-09-21_16h09.24.822,t1_Paradigm,2021.1.4,59.98356658772844,
H,left,Pretarget,0,7,7,7,802.2595538152382,804.259761053574,left,1,2,0.5758485864207614,L07B10,2022-09-21_16h09.24.822,t1_Paradigm,2021.1.4,59.98356658772844,
G,right,Target,0,8,8,8,805.759831630101,807.7600715902518,left,0,2,0.5156721579551231,L07B10,2022-09-21_16h09.24.822,t1_Paradigm,2021.1.4,59.98356658772844,
H,right,Target,0,9,9,9,809.2599471189314,811.2596689832862,right,1,2,0.664010209206026,L07B10,2022-09-21_16h09.24.822,t1_Paradigm,2021.1.4,59.98356658772844,
T,left,Pretarget,0,10,10,10,812.7596914394526,814.7606358816265,left,1,2,0.7153443621064071,L07B10,2022-09-21_16h09.24.822,t1_Paradigm,2021.1.4,59.98356658772844,
K,left,Distractor,0,11,11,11,816.2597809433064,818.2601020664733,left,1,2,0.7193948127387557,L07B10,2022-09-21_16h09.24.822,t1_Paradigm,2021.1.4,59.98356658772844,
T,right,Target,0,12,12,12,819.7595592688886,821.7600215450802,left,0,2,0.787466829031473,L07B10,2022-09-21_16h09.24.822,t1_Paradigm,2021.1.4,59.98356658772844,
T,left,Lure,0,13,13,13,823.2595297550724,825.2600571541407,None,0,2,,L07B10,2022-09-21_16h09.24.822,t1_Paradigm,2021.1.4,59.98356658772844,
J,left,Distractor,0,14,14,14,826.7596798905579,828.7601203522063,left,1,2,1.195563046640018,L07B10,2022-09-21_16h09.24.822,t1_Paradigm,2021.1.4,59.98356658772844,
Q,left,Pretarget,0,15,15,15,830.2597966626345,832.2601713597833,left,1,2,1.1033682965207845,L07B10,2022-09-21_16h09.24.822,t1_Paradigm,2021.1.4,59.98356658772844,
M,left,Distractor,0,16,16,16,833.7596840609913,835.7616877925757,left,1,2,0.962021170387743,L07B10,2022-09-21_16h09.24.822,t1_Paradigm,2021.1.4,59.98356658772844,
Q,right,Target,0,17,17,17,837.2597860761452,839.2596462063084,left,0,2,0.6480688980664127,L07B10,2022-09-21_16h09.24.822,t1_Paradigm,2021.1.4,59.98356658772844,
R,left,Distractor,0,18,18,18,840.7596324118203,842.7594803514949,left,1,2,0.7962369240995031,L07B10,2022-09-21_16h09.24.822,t1_Paradigm,2021.1.4,59.98356658772844,
W,left,Distractor,0,19,19,19,844.2596176548977,846.260485746112,left,1,2,0.911015519144712,L07B10,2022-09-21_16h09.24.822,t1_Paradigm,2021.1.4,59.98356658772844,
C,left,Pretarget,0,20,20,20,847.7596259957645,849.7603702572524,None,0,2,,L07B10,2022-09-21_16h09.24.822,t1_Paradigm,2021.1.4,59.98356658772844,
T,left,Distractor,0,21,21,21,851.2596600008255,853.2599872192368,left,1,2,0.6637570961320307,L07B10,2022-09-21_16h09.24.822,t1_Paradigm,2021.1.4,59.98356658772844,
C,right,Target,0,22,22,22,854.7596455647144,856.760095971229,right,1,2,1.067357268620981,L07B10,2022-09-21_16h09.24.822,t1_Paradigm,2021.1.4,59.98356658772844,
F,left,Pretarget,0,23,23,23,858.259993956075,860.2595541360497,left,1,2,1.0719954291998874,L07B10,2022-09-21_16h09.24.822,t1_Paradigm,2021.1.4,59.98356658772844,
C,right,Target,0,24,24,24,861.7598499158339,863.7598457454005,right,1,2,1.0279460564488545,L07B10,2022-09-21_16h09.24.822,t1_Paradigm,2021.1.4,59.98356658772844,
F,right,Target,0,25,25,25,865.2597061963752,867.2600064673752,right,1,2,1.0317193338414654,L07B10,2022-09-21_16h09.24.822,t1_Paradigm,2021.1.4,59.98356658772844,
H,left,Distractor,0,26,26,26,868.7596933642635,870.7602428987157,left,1,2,0.9554120000684634,L07B10,2022-09-21_16h09.24.822,t1_Paradigm,2021.1.4,59.98356658772844,
H,left,Lure,0,27,27,27,872.2597562415176,874.2597953794175,left,1,2,1.039880866825115,L07B10,2022-09-21_16h09.24.822,t1_Paradigm,2021.1.4,59.98356658772844,
P,left,Distractor,0,28,28,28,875.7598540862382,877.7596000107878,left,1,2,0.7720400849066209,L07B10,2022-09-21_16h09.24.822,t1_Paradigm,2021.1.4,59.98356658772844,
G,left,Pretarget,0,29,29,29,879.2597751688736,881.2597649031959,left,1,2,0.8559026352013461,L07B10,2022-09-21_16h09.24.822,t1_Paradigm,2021.1.4,59.98356658772844,
K,left,Distractor,0,30,30,30,882.7596600008255,884.7597244821081,left,1,2,0.859982599678915,L07B10,2022-09-21_16h09.24.822,t1_Paradigm,2021.1.4,59.98356658772844,
G,right,Target,0,31,31,31,886.2598877704877,888.2595817250549,right,1,2,0.7359549516695552,L07B10,2022-09-21_16h09.24.822,t1_Paradigm,2021.1.4,59.98356658772844,
M,left,Pretarget,0,32,32,32,889.7597549583297,891.7601854750828,None,0,2,,L07B10,2022-09-21_16h09.24.822,t1_Paradigm,2021.1.4,59.98356658772844,
B,left,Distractor,0,33,33,33,893.259693685075,895.2597517503018,left,1,2,0.8080097292840946,L07B10,2022-09-21_16h09.24.822,t1_Paradigm,2021.1.4,59.98356658772844,
M,right,Target,0,34,34,34,896.7599868984253,898.7613811055198,right,1,2,1.0502235350722913,L07B10,2022-09-21_16h09.24.822,t1_Paradigm,2021.1.4,59.98356658772844,
M,left,Lure,0,35,35,35,900.2599955601036,902.2602117809001,left,1,2,0.9594794532458764,L07B10,2022-09-21_16h09.24.822,t1_Paradigm,2021.1.4,59.98356658772844,
T,left,Distractor,0,36,36,36,903.7599737455312,905.759831630101,None,0,2,,L07B10,2022-09-21_16h09.24.822,t1_Paradigm,2021.1.4,59.98356658772844,
F,left,Distractor,0,37,37,37,907.2596372238477,909.2601412043732,left,1,2,0.8714891388954129,L07B10,2022-09-21_16h09.24.822,t1_Paradigm,2021.1.4,59.98356658772844,
X,left,Distractor,0,38,38,38,910.760011600214,912.7611937569163,left,1,2,0.7147948276542593,L07B10,2022-09-21_16h09.24.822,t1_Paradigm,2021.1.4,59.98356658772844,
C,left,Distractor,0,39,39,39,914.2597379557847,916.2608065484674,left,1,2,0.6708516404614784,L07B10,2022-09-21_16h09.24.822,t1_Paradigm,2021.1.4,59.98356658772844,
R,left,Distractor,0,40,40,40,917.759963800665,919.7599942768866,left,1,2,0.723728211101843,L07B10,2022-09-21_16h09.24.822,t1_Paradigm,2021.1.4,59.98356658772844,
B,left,Pretarget,0,41,41,41,921.259813985962,923.2600706278463,left,1,2,1.319600318733137,L07B10,2022-09-21_16h09.24.822,t1_Paradigm,2021.1.4,59.98356658772844,
H,left,Distractor,0,42,42,42,924.7599243419827,926.7595894242986,None,0,2,,L07B10,2022-09-21_16h09.24.822,t1_Paradigm,2021.1.4,59.98356658772844,
B,right,Target,0,43,43,43,928.260265354882,930.259995239292,right,1,2,0.9277630065917037,L07B10,2022-09-21_16h09.24.822,t1_Paradigm,2021.1.4,59.98356658772844,
W,left,Pretarget,0,44,44,44,931.7602730541548,933.7597790184955,left,1,2,1.4280905458144844,L07B10,2022-09-21_16h09.24.822,t1_Paradigm,2021.1.4,59.98356658772844,
L,left,Pretarget,0,45,45,45,935.2599596302316,937.2602509187709,left,1,2,0.7595024868496694,L07B10,2022-09-21_16h09.24.822,t1_Paradigm,2021.1.4,59.98356658772844,
W,right,Target,0,46,46,46,938.7599435901211,940.760133184318,right,1,2,0.49162737908773124,L07B10,2022-09-21_16h09.24.822,t1_Paradigm,2021.1.4,59.98356658772844,
L,right,Target,0,47,47,47,942.2597097251855,944.2597206324572,right,1,2,1.3922139341011643,L07B10,2022-09-21_16h09.24.822,t1_Paradigm,2021.1.4,59.98356658772844,
W,right,Target,0,48,48,48,945.7600520213018,947.7594822763058,None,0,2,,L07B10,2022-09-21_16h09.24.822,t1_Paradigm,2021.1.4,59.98356658772844,
X,left,Distractor,0,49,49,49,949.2598691639723,951.2599172843038,left,1,2,0.599952392920386,L07B10,2022-09-21_16h09.24.822,t1_Paradigm,2021.1.4,59.98356658772844,
R,left,Distractor,0,50,50,50,952.7598351589113,954.7597729232511,left,1,2,0.716326658934122,L07B10,2022-09-21_16h09.24.822,t1_Paradigm,2021.1.4,59.98356658772844,
V,left,Pretarget,0,51,51,51,956.2601129737741,958.2601315802895,left,1,2,0.6555121545388829,L07B10,2022-09-21_16h09.24.822,t1_Paradigm,2021.1.4,59.98356658772844,
Z,left,Distractor,0,52,52,52,959.7600125626195,961.7597658656014,left,1,2,0.5800607214914635,L07B10,2022-09-21_16h09.24.822,t1_Paradigm,2021.1.4,59.98356658772844,
V,right,Target,0,53,53,53,963.259762978385,965.2614122233354,right,1,2,0.9182781638810411,L07B10,2022-09-21_16h09.24.822,t1_Paradigm,2021.1.4,59.98356658772844,
V,left,Lure,0,54,54,54,966.7602368034713,968.7598149483674,left,1,2,1.4038722128607333,L07B10,2022-09-21_16h09.24.822,t1_Paradigm,2021.1.4,59.98356658772844,
N,left,Distractor,0,55,55,55,970.2598402917502,972.2603109088086,left,1,2,1.0394583701272495,L07B10,2022-09-21_16h09.24.822,t1_Paradigm,2021.1.4,59.98356658772844,
B,left,Distractor,0,56,56,56,973.7599275499815,975.7597539959243,left,1,2,0.7879525238240603,L07B10,2022-09-21_16h09.24.822,t1_Paradigm,2021.1.4,59.98356658772844,
V,left,Lure,0,57,57,57,977.2599647630705,979.2601527532679,left,1,2,0.5514724186796229,L07B10,2022-09-21_16h09.24.822,t1_Paradigm,2021.1.4,59.98356658772844,
J,left,Distractor,0,58,58,58,980.7597129332135,982.7597379557847,left,1,2,0.603978462604573,L07B10,2022-09-21_16h09.24.822,t1_Paradigm,2021.1.4,59.98356658772844,
H,left,Distractor,0,59,59,59,984.2597578455461,986.2597174244584,left,1,2,0.5921106999157928,L07B10,2022-09-21_16h09.24.822,t1_Paradigm,2021.1.4,59.98356658772844,
X,left,Pretarget,0,60,60,60,987.760016091459,989.7601931743557,left,1,2,0.6276633012166712,L07B10,2022-09-21_16h09.24.822,t1_Paradigm,2021.1.4,59.98356658772844,
P,left,Distractor,0,61,61,61,991.2596340158198,993.2597998706624,left,1,2,0.8079721954127308,L07B10,2022-09-21_16h09.24.822,t1_Paradigm,2021.1.4,59.98356658772844,
X,right,Target,0,62,62,62,994.7598868080822,996.7600693446293,right,1,2,0.9397218771628104,L07B10,2022-09-21_16h09.24.822,t1_Paradigm,2021.1.4,59.98356658772844,
Q,left,Distractor,0,63,63,63,998.2602688837214,1000.2616249153216,left,1,2,0.7499836390779819,L07B10,2022-09-21_16h09.24.822,t1_Paradigm,2021.1.4,59.98356658772844,
B,left,Pretarget,0,0,0,0,1021.8865674916888,1023.8765244528477,left,1,2,1.1192634121107403,L07B10,2022-09-21_16h09.24.822,t1_Paradigm,2021.1.4,59.98356658772844,
F,left,Distractor,0,1,1,1,1025.3763804125774,1027.3782786001684,left,1,2,0.8334012364794035,L07B10,2022-09-21_16h09.24.822,t1_Paradigm,2021.1.4,59.98356658772844,
B,right,Target,0,2,2,2,1028.8765911797236,1030.876848463231,right,1,2,0.7749818425800186,L07B10,2022-09-21_16h09.24.822,t1_Paradigm,2021.1.4,59.98356658772844,
V,left,Distractor,0,3,3,3,1032.3764054351486,1034.3765924629406,left,1,2,0.6511059340846259,L07B10,2022-09-21_16h09.24.822,t1_Paradigm,2021.1.4,59.98356658772844,
G,left,Pretarget,0,4,4,4,1035.8767024981498,1037.8765905381297,left,1,2,0.7350724243442528,L07B10,2022-09-21_16h09.24.822,t1_Paradigm,2021.1.4,59.98356658772844,
B,left,Lure,0,5,5,5,1039.3764561219432,1041.376459329971,left,1,2,0.7393846497288905,L07B10,2022-09-21_16h09.24.822,t1_Paradigm,2021.1.4,59.98356658772844,
G,right,Target,0,6,6,6,1042.8766027286183,1044.8764670292148,right,1,2,1.0315037546679378,L07B10,2022-09-21_16h09.24.822,t1_Paradigm,2021.1.4,59.98356658772844,
Y,left,Pretarget,0,7,7,7,1046.3763861870102,1048.378426810872,left,1,2,0.7614661181287374,L07B10,2022-09-21_16h09.24.822,t1_Paradigm,2021.1.4,59.98356658772844,
P,left,Distractor,0,8,8,8,1049.8766887036618,1051.87647504927,left,1,2,0.671301405353006,L07B10,2022-09-21_16h09.24.822,t1_Paradigm,2021.1.4,59.98356658772844,
Y,right,Target,0,9,9,9,1053.3765132247645,1055.3785137482919,right,1,2,1.02540818892885,L07B10,2022-09-21_16h09.24.822,t1_Paradigm,2021.1.4,59.98356658772844,
X,left,Distractor,0,10,10,10,1056.8767589593772,1058.877954589785,left,1,2,0.869823853863636,L07B10,2022-09-21_16h09.24.822,t1_Paradigm,2021.1.4,59.98356658772844,
Y,right,Target,0,11,11,11,1060.3767037813668,1062.3764756908931,right,1,2,0.9873828429554123,L07B10,2022-09-21_16h09.24.822,t1_Paradigm,2021.1.4,59.98356658772844,
N,left,Distractor,0,12,12,12,1063.8768240822537,1065.8772433709528,left,1,2,0.622652689111419,L07B10,2022-09-21_16h09.24.822,t1_Paradigm,2021.1.4,59.98356658772844,
Y,right,Target,0,13,13,13,1067.3765706483682,1069.3784524750663,right,1,2,0.977485448383959,L07B10,2022-09-21_16h09.24.822,t1_Paradigm,2021.1.4,59.98356658772844,
Y,left,Lure,0,14,14,14,1070.8764413650206,1072.8770056563953,left,1,2,1.0469503885542508,L07B10,2022-09-21_16h09.24.822,t1_Paradigm,2021.1.4,59.98356658772844,
K,left,Distractor,0,15,15,15,1074.376514828764,1076.37693540068,left,1,2,0.986931474035373,L07B10,2022-09-21_16h09.24.822,t1_Paradigm,2021.1.4,59.98356658772844,
T,left,Pretarget,0,16,16,16,1077.8768173453864,1079.8765061671147,left,1,2,0.7511994800297543,L07B10,2022-09-21_16h09.24.822,t1_Paradigm,2021.1.4,59.98356658772844,
J,left,Distractor,0,17,17,17,1081.3765574954741,1083.3767390696157,left,1,2,0.8030719392991159,L07B10,2022-09-21_16h09.24.822,t1_Paradigm,2021.1.4,59.98356658772844,
T,right,Target,0,18,18,18,1084.8767252751277,1086.8765408137697,right,1,2,0.9192315885156859,L07B10,2022-09-21_16h09.24.822,t1_Paradigm,2021.1.4,59.98356658772844,
S,left,Pretarget,0,19,19,19,1088.376509054331,1090.3778451961698,left,1,2,0.5700282690813765,L07B10,2022-09-21_16h09.24.822,t1_Paradigm,2021.1.4,59.98356658772844,
R,left,Distractor,0,20,20,20,1091.8766665682779,1093.876527340064,left,1,2,0.7671978939906694,L07B10,2022-09-21_16h09.24.822,t1_Paradigm,2021.1.4,59.98356658772844,
S,right,Target,0,21,21,21,1095.3764413650206,1097.376575781207,right,1,2,0.7712236428633332,L07B10,2022-09-21_16h09.24.822,t1_Paradigm,2021.1.4,59.98356658772844,
Q,left,Distractor,0,22,22,22,1098.8770624384051,1100.878280204197,left,1,2,0.9976773909002077,L07B10,2022-09-21_16h09.24.822,t1_Paradigm,2021.1.4,59.98356658772844,
D,left,Distractor,0,23,23,23,1102.376459971565,1104.3764519515098,left,1,2,1.1953824349038769,L07B10,2022-09-21_16h09.24.822,t1_Paradigm,2021.1.4,59.98356658772844,
F,left,Distractor,0,24,24,24,1105.876713726233,1107.8765931045345,left,1,2,0.591269235330401,L07B10,2022-09-21_16h09.24.822,t1_Paradigm,2021.1.4,59.98356658772844,
Z,left,Distractor,0,25,25,25,1109.376561345125,1111.3765905381297,left,1,2,0.67528641235549,L07B10,2022-09-21_16h09.24.822,t1_Paradigm,2021.1.4,59.98356658772844,
P,left,Distractor,0,26,26,26,1112.8767608841881,1114.893310757412,left,1,2,0.758613222715212,L07B10,2022-09-21_16h09.24.822,t1_Paradigm,2021.1.4,59.98356658772844,
H,left,Distractor,0,27,27,27,1116.3766393000842,1118.3772780176078,left,1,2,0.794511007348774,L07B10,2022-09-21_16h09.24.822,t1_Paradigm,2021.1.4,59.98356658772844,
Z,left,Pretarget,0,28,28,28,1119.8766755507677,1121.876977425767,left,1,2,1.1029499702272005,L07B10,2022-09-21_16h09.24.822,t1_Paradigm,2021.1.4,59.98356658772844,
J,left,Pretarget,0,29,29,29,1123.3767756410816,1125.377136864554,None,0,2,,L07B10,2022-09-21_16h09.24.822,t1_Paradigm,2021.1.4,59.98356658772844,
Z,right,Target,0,30,30,30,1126.876631280029,1128.8770755912992,right,1,2,0.8707496894639917,L07B10,2022-09-21_16h09.24.822,t1_Paradigm,2021.1.4,59.98356658772844,
J,right,Target,0,31,31,31,1130.376766017027,1132.3779744795174,right,1,2,0.8420099679788109,L07B10,2022-09-21_16h09.24.822,t1_Paradigm,2021.1.4,59.98356658772844,
V,left,Pretarget,0,32,32,32,1133.876749014482,1135.8764217960706,left,1,2,0.8476118188700639,L07B10,2022-09-21_16h09.24.822,t1_Paradigm,2021.1.4,59.98356658772844,
Z,left,Lure,0,33,33,33,1137.3764917310036,1139.3770358118054,left,1,2,0.9310374363267329,L07B10,2022-09-21_16h09.24.822,t1_Paradigm,2021.1.4,59.98356658772844,
V,right,Target,0,34,34,34,1140.876914548513,1142.8771994210256,right,1,2,0.9026335949311033,L07B10,2022-09-21_16h09.24.822,t1_Paradigm,2021.1.4,59.98356658772844,
X,left,Distractor,0,35,35,35,1144.3763887534442,1146.3768847138854,left,1,2,0.699354930606205,L07B10,2022-09-21_16h09.24.822,t1_Paradigm,2021.1.4,59.98356658772844,
S,left,Distractor,0,36,36,36,1147.876348011545,1149.8771711903973,left,1,2,0.8628310038766358,L07B10,2022-09-21_16h09.24.822,t1_Paradigm,2021.1.4,59.98356658772844,
Q,left,Distractor,0,37,37,37,1151.3766434705176,1153.37659406694,left,1,2,0.7873677010938991,L07B10,2022-09-21_16h09.24.822,t1_Paradigm,2021.1.4,59.98356658772844,
P,left,Distractor,0,38,38,38,1154.8769546488184,1156.877032924589,left,1,2,0.9347837663954124,L07B10,2022-09-21_16h09.24.822,t1_Paradigm,2021.1.4,59.98356658772844,
S,left,Lure,0,39,39,39,1158.3768715609913,1160.3770634008106,left,1,2,1.386806168651674,L07B10,2022-09-21_16h09.24.822,t1_Paradigm,2021.1.4,59.98356658772844,
K,left,Pretarget,0,40,40,40,1161.8767352199939,1163.8770868193824,None,0,2,,L07B10,2022-09-21_16h09.24.822,t1_Paradigm,2021.1.4,59.98356658772844,
L,left,Distractor,0,41,41,41,1165.3771227492543,1167.3766075406456,None,0,2,,L07B10,2022-09-21_16h09.24.822,t1_Paradigm,2021.1.4,59.98356658772844,
K,right,Target,0,42,42,42,1168.8769722929283,1170.8771269196877,right,1,2,0.9666772959171794,L07B10,2022-09-21_16h09.24.822,t1_Paradigm,2021.1.4,59.98356658772844,
B,left,Distractor,0,43,43,43,1172.376698006905,1174.376749014482,left,1,2,1.1473021804413293,L07B10,2022-09-21_16h09.24.822,t1_Paradigm,2021.1.4,59.98356658772844,
N,left,Distractor,0,44,44,44,1175.8768632201245,1177.8766389792727,left,1,2,0.767395829083398,L07B10,2022-09-21_16h09.24.822,t1_Paradigm,2021.1.4,59.98356658772844,
S,left,Pretarget,0,45,45,45,1179.3772485037916,1181.3774804438872,left,1,2,0.6426152578787878,L07B10,2022-09-21_16h09.24.822,t1_Paradigm,2021.1.4,59.98356658772844,
Z,left,Distractor,0,46,46,46,1182.8766447537346,1184.8768917715352,left,1,2,0.6149938534363173,L07B10,2022-09-21_16h09.24.822,t1_Paradigm,2021.1.4,59.98356658772844,
S,right,Target,0,47,47,47,1186.3772870000685,1188.3768202326319,right,1,2,0.6509949364699423,L07B10,2022-09-21_16h09.24.822,t1_Paradigm,2021.1.4,59.98356658772844,
C,left,Distractor,0,48,48,48,1189.8767085933941,1191.8771788896702,left,1,2,0.8788861998473294,L07B10,2022-09-21_16h09.24.822,t1_Paradigm,2021.1.4,59.98356658772844,
T,left,Pretarget,0,49,49,49,1193.3770659672446,1195.376934759057,left,1,2,0.7230744159023743,L07B10,2022-09-21_16h09.24.822,t1_Paradigm,2021.1.4,59.98356658772844,
S,left,Lure,0,50,50,50,1196.876559420285,1198.8770476815116,left,1,2,0.82296842278447,L07B10,2022-09-21_16h09.24.822,t1_Paradigm,2021.1.4,59.98356658772844,
T,right,Target,0,51,51,51,1200.377095801843,1202.3765263776586,right,1,2,0.6673240976524539,L07B10,2022-09-21_16h09.24.822,t1_Paradigm,2021.1.4,59.98356658772844,
N,left,Pretarget,0,52,52,52,1203.8767223879113,1205.8769957115,left,1,2,0.9590656181972008,L07B10,2022-09-21_16h09.24.822,t1_Paradigm,2021.1.4,59.98356658772844,
B,left,Distractor,0,53,53,53,1207.3766729843337,1209.3767480520764,left,1,2,0.7712230012693908,L07B10,2022-09-21_16h09.24.822,t1_Paradigm,2021.1.4,59.98356658772844,
N,right,Target,0,54,54,54,1210.8768099669542,1212.8767884731933,right,1,2,0.7911579810606781,L07B10,2022-09-21_16h09.24.822,t1_Paradigm,2021.1.4,59.98356658772844,
N,left,Lure,0,55,55,55,1214.376459971565,1216.3771115211712,left,1,2,1.018882748001488,L07B10,2022-09-21_16h09.24.822,t1_Paradigm,2021.1.4,59.98356658772844,
X,left,Distractor,0,56,56,56,1217.8767923228152,1219.8769267390016,left,1,2,0.8631280668487307,L07B10,2022-09-21_16h09.24.822,t1_Paradigm,2021.1.4,59.98356658772844,
W,left,Distractor,0,57,57,57,1221.3767329743714,1223.3770383782394,left,1,2,0.8508313914062455,L07B10,2022-09-21_16h09.24.822,t1_Paradigm,2021.1.4,59.98356658772844,
S,left,Distractor,0,58,58,58,1224.8769809546066,1226.8769678017125,left,1,2,0.6472232630476356,L07B10,2022-09-21_16h09.24.822,t1_Paradigm,2021.1.4,59.98356658772844,
L,left,Distractor,0,59,59,59,1228.3771641327476,1230.3767069893947,left,1,2,0.6192191413720138,L07B10,2022-09-21_16h09.24.822,t1_Paradigm,2021.1.4,59.98356658772844,
K,left,Pretarget,0,60,60,60,1231.8766887036618,1233.8773328748066,left,1,2,0.8309624969260767,L07B10,2022-09-21_16h09.24.822,t1_Paradigm,2021.1.4,59.98356658772844,
V,left,Pretarget,0,61,61,61,1235.3769216061628,1237.3772735263628,left,1,2,0.6428901855251752,L07B10,2022-09-21_16h09.24.822,t1_Paradigm,2021.1.4,59.98356658772844,
K,right,Target,0,62,62,62,1238.8771740776428,1240.8899391245504,right,1,2,0.7622418182436377,L07B10,2022-09-21_16h09.24.822,t1_Paradigm,2021.1.4,59.98356658772844,
V,right,Target,0,63,63,63,1242.376984483417,1244.3771237116598,right,1,2,0.8269617706246208,L07B10,2022-09-21_16h09.24.822,t1_Paradigm,2021.1.4,59.98356658772844,
R,left,Distractor,0,0,0,0,1386.1495198871708,1388.144923110085,left,1,3,1.2671632473357022,L07B10,2022-09-21_16h09.24.822,t1_Paradigm,2021.1.4,59.98356658772844,
P,left,Lure,0,1,1,1,1389.6437531438714,1391.643901996169,left,1,3,0.584147101995768,L07B10,2022-09-21_16h09.24.822,t1_Paradigm,2021.1.4,59.98356658772844,
V,left,Distractor,0,2,2,2,1393.1434381159488,1395.1433685018274,left,1,3,1.132945953781018,L07B10,2022-09-21_16h09.24.822,t1_Paradigm,2021.1.4,59.98356658772844,
P,left,Pretarget,0,3,3,3,1396.6436806425336,1398.6439805927512,left,1,3,0.8644545846618712,L07B10,2022-09-21_16h09.24.822,t1_Paradigm,2021.1.4,59.98356658772844,
Z,left,Distractor,0,4,4,4,1400.1437242716493,1402.1435510383744,left,1,3,0.5487407865584828,L07B10,2022-09-21_16h09.24.822,t1_Paradigm,2021.1.4,59.98356658772844,
L,left,Pretarget,0,5,5,5,1403.6435119004746,1405.6434496648144,left,1,3,0.8407710292376578,L07B10,2022-09-21_16h09.24.822,t1_Paradigm,2021.1.4,59.98356658772844,
P,right,Target,0,6,6,6,1407.1440075401333,1409.1434528728423,None,0,3,,L07B10,2022-09-21_16h09.24.822,t1_Paradigm,2021.1.4,59.98356658772844,
S,left,Distractor,0,7,7,7,1410.6435731737292,1412.6436585071788,None,0,3,,L07B10,2022-09-21_16h09.24.822,t1_Paradigm,2021.1.4,59.98356658772844,
L,right,Target,0,8,8,8,1414.1435680408904,1416.1440255050838,left,0,3,1.3643464742635842,L07B10,2022-09-21_16h09.24.822,t1_Paradigm,2021.1.4,59.98356658772844,
D,left,Distractor,0,9,9,9,1417.6436812841275,1419.6443597811449,left,1,3,0.9198241104895715,L07B10,2022-09-21_16h09.24.822,t1_Paradigm,2021.1.4,59.98356658772844,
G,left,Distractor,0,10,10,10,1421.1436126324406,1423.1434381159488,left,1,3,0.7169223889359273,L07B10,2022-09-21_16h09.24.822,t1_Paradigm,2021.1.4,59.98356658772844,
M,left,Pretarget,0,11,11,11,1424.6438708783244,1426.6435709281068,left,1,3,0.8169729473593179,L07B10,2022-09-21_16h09.24.822,t1_Paradigm,2021.1.4,59.98356658772844,
Y,left,Distractor,0,12,12,12,1428.1434888027143,1430.1442523123405,left,1,3,1.1240305352548603,L07B10,2022-09-21_16h09.24.822,t1_Paradigm,2021.1.4,59.98356658772844,
V,left,Distractor,0,13,13,13,1431.6434769330372,1433.6435308278305,None,0,3,,L07B10,2022-09-21_16h09.24.822,t1_Paradigm,2021.1.4,59.98356658772844,
M,right,Target,0,14,14,14,1435.1436883417773,1437.1440011240775,None,0,3,,L07B10,2022-09-21_16h09.24.822,t1_Paradigm,2021.1.4,59.98356658772844,
S,left,Pretarget,0,15,15,15,1438.6440848534985,1440.6440999312326,left,1,3,1.2161665785533842,L07B10,2022-09-21_16h09.24.822,t1_Paradigm,2021.1.4,59.98356658772844,
Q,left,Distractor,0,16,16,16,1442.1435202413413,1444.1436617151776,left,1,3,0.8525698194280267,L07B10,2022-09-21_16h09.24.822,t1_Paradigm,2021.1.4,59.98356658772844,
R,left,Pretarget,0,17,17,17,1445.644087099121,1447.643378125911,left,1,3,1.3847915297956206,L07B10,2022-09-21_16h09.24.822,t1_Paradigm,2021.1.4,59.98356658772844,
S,right,Target,0,18,18,18,1449.143697965861,1451.1437261964602,right,1,3,0.6525530735380016,L07B10,2022-09-21_16h09.24.822,t1_Paradigm,2021.1.4,59.98356658772844,
F,left,Distractor,0,19,19,19,1452.643566436891,1454.6430310177384,left,1,3,0.8014297519694082,L07B10,2022-09-21_16h09.24.822,t1_Paradigm,2021.1.4,59.98356658772844,
R,right,Target,0,20,20,20,1456.1437213844329,1458.1436062163848,right,1,3,0.853060647030361,L07B10,2022-09-21_16h09.24.822,t1_Paradigm,2021.1.4,59.98356658772844,
P,left,Distractor,0,21,21,21,1459.6438439309422,1461.6439068081963,left,1,3,0.9363354874076322,L07B10,2022-09-21_16h09.24.822,t1_Paradigm,2021.1.4,59.98356658772844,
L,left,Distractor,0,22,22,22,1463.1437913193367,1465.1439279811457,left,1,3,0.7324854740581941,L07B10,2022-09-21_16h09.24.822,t1_Paradigm,2021.1.4,59.98356658772844,
R,right,Target,0,23,23,23,1466.643679038505,1468.6437322917045,left,0,3,1.4566108384751715,L07B10,2022-09-21_16h09.24.822,t1_Paradigm,2021.1.4,59.98356658772844,
H,left,Pretarget,0,24,24,24,1470.1437348581385,1472.1459721338178,left,1,3,0.9784417602350004,L07B10,2022-09-21_16h09.24.822,t1_Paradigm,2021.1.4,59.98356658772844,
G,left,Pretarget,0,25,25,25,1473.643803830637,1475.6440248634608,left,1,3,1.336272738466505,L07B10,2022-09-21_16h09.24.822,t1_Paradigm,2021.1.4,59.98356658772844,
T,left,Distractor,0,26,26,26,1477.1436418254452,1479.1441474099702,None,0,3,,L07B10,2022-09-21_16h09.24.822,t1_Paradigm,2021.1.4,59.98356658772844,
H,right,Target,0,27,27,27,1480.6436921913992,1482.6444159215607,left,0,3,1.1997761441161856,L07B10,2022-09-21_16h09.24.822,t1_Paradigm,2021.1.4,59.98356658772844,
G,right,Target,0,28,28,28,1484.1436113492236,1486.1438574046188,left,0,3,0.8204125903139357,L07B10,2022-09-21_16h09.24.822,t1_Paradigm,2021.1.4,59.98356658772844,
D,left,Distractor,0,29,29,29,1487.6435690032959,1489.6435648328625,left,1,3,0.6648904909088742,L07B10,2022-09-21_16h09.24.822,t1_Paradigm,2021.1.4,59.98356658772844,
N,left,Pretarget,0,30,30,30,1491.1438625374576,1493.1437839409045,left,1,3,0.8283851707237773,L07B10,2022-09-21_16h09.24.822,t1_Paradigm,2021.1.4,59.98356658772844,
V,left,Distractor,0,31,31,31,1494.6438763319748,1496.6435994795174,left,1,3,1.2331283620151225,L07B10,2022-09-21_16h09.24.822,t1_Paradigm,2021.1.4,59.98356658772844,
R,left,Distractor,0,32,32,32,1498.1432979253004,1500.1431397697306,left,1,3,1.2051688318606466,L07B10,2022-09-21_16h09.24.822,t1_Paradigm,2021.1.4,59.98356658772844,
N,right,Target,0,33,33,33,1501.643764692737,1503.64403544995,right,1,3,0.5363048828730825,L07B10,2022-09-21_16h09.24.822,t1_Paradigm,2021.1.4,59.98356658772844,
Z,left,Distractor,0,34,34,34,1505.1438737655408,1507.1440479612502,left,1,3,0.8604169660829939,L07B10,2022-09-21_16h09.24.822,t1_Paradigm,2021.1.4,59.98356658772844,
N,left,Lure,0,35,35,35,1508.643612311629,1510.6436296349566,None,0,3,,L07B10,2022-09-21_16h09.24.822,t1_Paradigm,2021.1.4,59.98356658772844,
Y,left,Pretarget,0,36,36,36,1512.143833344453,1514.1436732640723,left,1,3,0.8206432472215965,L07B10,2022-09-21_16h09.24.822,t1_Paradigm,2021.1.4,59.98356658772844,
Y,left,Lure,0,37,37,37,1515.6440742670384,1517.643885635247,left,1,3,0.8244081837765407,L07B10,2022-09-21_16h09.24.822,t1_Paradigm,2021.1.4,59.98356658772844,
B,left,Distractor,0,38,38,38,1519.1435465471295,1521.143616802845,left,1,3,0.6367009454697836,L07B10,2022-09-21_16h09.24.822,t1_Paradigm,2021.1.4,59.98356658772844,
Y,right,Target,0,39,39,39,1522.6437040611054,1524.6440771542548,right,1,3,0.9603504316764884,L07B10,2022-09-21_16h09.24.822,t1_Paradigm,2021.1.4,59.98356658772844,
J,left,Distractor,0,40,40,40,1526.143684171344,1528.144119820965,left,1,3,0.6443325129221193,L07B10,2022-09-21_16h09.24.822,t1_Paradigm,2021.1.4,59.98356658772844,
X,left,Distractor,0,41,41,41,1529.6437675799825,1531.6438939761138,left,1,3,0.680652152717812,L07B10,2022-09-21_16h09.24.822,t1_Paradigm,2021.1.4,59.98356658772844,
W,left,Pretarget,0,42,42,42,1533.143968081451,1535.1436905873998,left,1,3,0.5727518812054768,L07B10,2022-09-21_16h09.24.822,t1_Paradigm,2021.1.4,59.98356658772844,
S,left,Pretarget,0,43,43,43,1536.6441137257207,1538.6440765126608,left,1,3,0.7841914368909784,L07B10,2022-09-21_16h09.24.822,t1_Paradigm,2021.1.4,59.98356658772844,
R,left,Distractor,0,44,44,44,1540.1436928330222,1542.1441143673146,left,1,3,1.1882583767874166,L07B10,2022-09-21_16h09.24.822,t1_Paradigm,2021.1.4,59.98356658772844,
W,right,Target,0,45,45,45,1543.6441875102755,1545.6435641912685,None,0,3,,L07B10,2022-09-21_16h09.24.822,t1_Paradigm,2021.1.4,59.98356658772844,
S,right,Target,0,46,46,46,1547.143667168828,1549.1445493753417,left,0,3,1.180033645767253,L07B10,2022-09-21_16h09.24.822,t1_Paradigm,2021.1.4,59.98356658772844,
D,left,Distractor,0,47,47,47,1550.6441313698597,1552.6442090040364,left,1,3,0.7527483138546813,L07B10,2022-09-21_16h09.24.822,t1_Paradigm,2021.1.4,59.98356658772844,
T,left,Distractor,0,48,48,48,1554.1441547884315,1556.1442131744407,left,1,3,0.6603039794717915,L07B10,2022-09-21_16h09.24.822,t1_Paradigm,2021.1.4,59.98356658772844,
S,right,Target,0,49,49,49,1557.643780412065,1559.6436049331678,right,1,3,0.9048452064453159,L07B10,2022-09-21_16h09.24.822,t1_Paradigm,2021.1.4,59.98356658772844,
K,left,Distractor,0,50,50,50,1561.1438968633302,1563.1441772445978,left,1,3,1.068103775702184,L07B10,2022-09-21_16h09.24.822,t1_Paradigm,2021.1.4,59.98356658772844,
S,left,Lure,0,51,51,51,1564.6435837602185,1566.6436196900904,left,1,3,1.2169948902737815,L07B10,2022-09-21_16h09.24.822,t1_Paradigm,2021.1.4,59.98356658772844,
T,left,Pretarget,0,52,52,52,1568.1439068081963,1570.1437913193367,left,1,3,0.9647916196263395,L07B10,2022-09-21_16h09.24.822,t1_Paradigm,2021.1.4,59.98356658772844,
V,left,Distractor,0,53,53,53,1571.6437165724055,1573.6438294948312,left,1,3,0.8725926990737207,L07B10,2022-09-21_16h09.24.822,t1_Paradigm,2021.1.4,59.98356658772844,
B,left,Distractor,0,54,54,54,1575.14363380539,1577.1446308591403,left,1,3,0.7478297719790135,L07B10,2022-09-21_16h09.24.822,t1_Paradigm,2021.1.4,59.98356658772844,
T,right,Target,0,55,55,55,1578.6434679505473,1580.6434130933485,left,0,3,1.0890143154829275,L07B10,2022-09-21_16h09.24.822,t1_Paradigm,2021.1.4,59.98356658772844,
Y,left,Pretarget,0,56,56,56,1582.1437223468383,1584.144489385304,left,1,3,0.7878995914070401,L07B10,2022-09-21_16h09.24.822,t1_Paradigm,2021.1.4,59.98356658772844,
T,left,Lure,0,57,57,57,1585.6438416853198,1587.6438063970418,left,1,3,0.8886328173102811,L07B10,2022-09-21_16h09.24.822,t1_Paradigm,2021.1.4,59.98356658772844,
P,left,Pretarget,0,58,58,58,1589.1436257853347,1591.1440672093886,left,1,3,0.5564143791270908,L07B10,2022-09-21_16h09.24.822,t1_Paradigm,2021.1.4,59.98356658772844,
Y,right,Target,0,59,59,59,1592.643731970893,1594.6437518606544,right,1,3,0.9607267328538001,L07B10,2022-09-21_16h09.24.822,t1_Paradigm,2021.1.4,59.98356658772844,
R,left,Distractor,0,60,60,60,1596.1437191388104,1598.143461855303,left,1,3,1.013012385548791,L07B10,2022-09-21_16h09.24.822,t1_Paradigm,2021.1.4,59.98356658772844,
P,right,Target,0,61,61,61,1599.6436617151776,1601.6436437502562,left,0,3,1.368674739758717,L07B10,2022-09-21_16h09.24.822,t1_Paradigm,2021.1.4,59.98356658772844,
L,left,Distractor,0,62,62,62,1603.1435921010852,1605.145024483645,left,1,3,0.8273480166681111,L07B10,2022-09-21_16h09.24.822,t1_Paradigm,2021.1.4,59.98356658772844,
V,left,Distractor,0,63,63,63,1606.6438047930424,1608.6437425573822,left,1,3,0.7366231829801109,L07B10,2022-09-21_16h09.24.822,t1_Paradigm,2021.1.4,59.98356658772844,
H,left,Lure,0,0,0,0,1624.4007309160952,1626.3941862270585,left,1,3,1.3223441413720138,L07B10,2022-09-21_16h09.24.822,t1_Paradigm,2021.1.4,59.98356658772844,
B,left,Distractor,0,1,1,1,1627.8937977353926,1629.8940739462269,left,1,3,0.7502441306132823,L07B10,2022-09-21_16h09.24.822,t1_Paradigm,2021.1.4,59.98356658772844,
T,left,Distractor,0,2,2,2,1631.3935757401632,1633.3948550999921,left,1,3,0.46566163562238216,L07B10,2022-09-21_16h09.24.822,t1_Paradigm,2021.1.4,59.98356658772844,
R,left,Distractor,0,3,3,3,1634.8938914096798,1636.8941255953978,left,1,3,0.8064012262329925,L07B10,2022-09-21_16h09.24.822,t1_Paradigm,2021.1.4,59.98356658772844,
H,left,Pretarget,0,4,4,4,1638.3941098760988,1640.3944794404088,right,0,3,1.1301360458601266,L07B10,2022-09-21_16h09.24.822,t1_Paradigm,2021.1.4,59.98356658772844,
K,left,Distractor,0,5,5,5,1641.8937797704712,1643.894105384854,left,1,3,0.7664023041143082,L07B10,2022-09-21_16h09.24.822,t1_Paradigm,2021.1.4,59.98356658772844,
G,left,Distractor,0,6,6,6,1645.394288563024,1647.3940245426784,left,1,3,0.8183097308501601,L07B10,2022-09-21_16h09.24.822,t1_Paradigm,2021.1.4,59.98356658772844,
H,right,Target,0,7,7,7,1648.8942587283964,1650.8941294450487,left,0,3,0.6782932929345407,L07B10,2022-09-21_16h09.24.822,t1_Paradigm,2021.1.4,59.98356658772844,
Y,left,Pretarget,0,8,8,8,1652.3938224371814,1654.3938959009247,left,1,3,0.794706055225106,L07B10,2022-09-21_16h09.24.822,t1_Paradigm,2021.1.4,59.98356658772844,
S,left,Distractor,0,9,9,9,1655.8940107481612,1657.8937178555934,left,1,3,0.830959288898157,L07B10,2022-09-21_16h09.24.822,t1_Paradigm,2021.1.4,59.98356658772844,
P,left,Distractor,0,10,10,10,1659.3944951597368,1661.3937207428098,left,1,3,0.7068649139837362,L07B10,2022-09-21_16h09.24.822,t1_Paradigm,2021.1.4,59.98356658772844,
Y,right,Target,0,11,11,11,1662.8936860961549,1664.8936937954277,right,1,3,0.6469345409132075,L07B10,2022-09-21_16h09.24.822,t1_Paradigm,2021.1.4,59.98356658772844,
H,left,Lure,0,12,12,12,1666.3941079512879,1668.394189114275,left,1,3,0.6502262939757202,L07B10,2022-09-21_16h09.24.822,t1_Paradigm,2021.1.4,59.98356658772844,
Q,left,Distractor,0,13,13,13,1669.8938891640573,1671.8938063970418,left,1,3,0.6067380045424215,L07B10,2022-09-21_16h09.24.822,t1_Paradigm,2021.1.4,59.98356658772844,
V,left,Pretarget,0,14,14,14,1673.3943639515783,1675.3957735571603,left,1,3,0.9128283732861746,L07B10,2022-09-21_16h09.24.822,t1_Paradigm,2021.1.4,59.98356658772844,
G,left,Distractor,0,15,15,15,1676.8936723016668,1678.8941711493535,None,0,3,,L07B10,2022-09-21_16h09.24.822,t1_Paradigm,2021.1.4,59.98356658772844,
Z,left,Pretarget,0,16,16,16,1680.3938638206746,1682.3959057277243,left,1,3,0.7927138725062832,L07B10,2022-09-21_16h09.24.822,t1_Paradigm,2021.1.4,59.98356658772844,
V,right,Target,0,17,17,17,1683.89422376093,1685.8942083624133,None,0,3,,L07B10,2022-09-21_16h09.24.822,t1_Paradigm,2021.1.4,59.98356658772844,
N,left,Distractor,0,18,18,18,1687.3938009434205,1689.3951011553872,None,0,3,,L07B10,2022-09-21_16h09.24.822,t1_Paradigm,2021.1.4,59.98356658772844,
Z,right,Target,0,19,19,19,1690.8939481916896,1692.8937178555934,None,0,3,,L07B10,2022-09-21_16h09.24.822,t1_Paradigm,2021.1.4,59.98356658772844,
R,left,Distractor,0,20,20,20,1694.3942574451794,1696.3961302893877,left,1,3,0.8085890983638819,L07B10,2022-09-21_16h09.24.822,t1_Paradigm,2021.1.4,59.98356658772844,
P,left,Distractor,0,21,21,21,1697.8942157408746,1699.89484579672,None,0,3,,L07B10,2022-09-21_16h09.24.822,t1_Paradigm,2021.1.4,59.98356658772844,
Z,right,Target,0,22,22,22,1701.3944152799377,1703.3938410436967,None,0,3,,L07B10,2022-09-21_16h09.24.822,t1_Paradigm,2021.1.4,59.98356658772844,
D,left,Pretarget,0,23,23,23,1704.8944576258655,1706.8938035098254,left,1,3,1.0948339911992662,L07B10,2022-09-21_16h09.24.822,t1_Paradigm,2021.1.4,59.98356658772844,
K,left,Distractor,0,24,24,24,1708.3939087330073,1710.3949667392008,left,1,3,1.0334160575876012,L07B10,2022-09-21_16h09.24.822,t1_Paradigm,2021.1.4,59.98356658772844,
W,left,Distractor,0,25,25,25,1711.8937335749215,1713.8936472790956,left,1,3,0.7671192974084988,L07B10,2022-09-21_16h09.24.822,t1_Paradigm,2021.1.4,59.98356658772844,
D,right,Target,0,26,26,26,1715.3942667484516,1717.3946799419064,right,1,3,0.577762814151356,L07B10,2022-09-21_16h09.24.822,t1_Paradigm,2021.1.4,59.98356658772844,
G,left,Pretarget,0,27,27,27,1718.8936937954277,1720.89544826356,left,1,3,1.0454070083796978,L07B10,2022-09-21_16h09.24.822,t1_Paradigm,2021.1.4,59.98356658772844,
V,left,Distractor,0,28,28,28,1722.3943665179831,1724.3953895567392,left,1,3,0.8093131493078545,L07B10,2022-09-21_16h09.24.822,t1_Paradigm,2021.1.4,59.98356658772844,
D,right,Target,0,29,29,29,1725.8938942968962,1727.8943626683613,right,1,3,0.7825665729178581,L07B10,2022-09-21_16h09.24.822,t1_Paradigm,2021.1.4,59.98356658772844,
G,right,Target,0,30,30,30,1729.3944675707316,1731.3937624471437,right,1,3,0.9788324975233991,L07B10,2022-09-21_16h09.24.822,t1_Paradigm,2021.1.4,59.98356658772844,
B,left,Pretarget,0,31,31,31,1732.8943661971716,1734.894794147549,None,0,3,,L07B10,2022-09-21_16h09.24.822,t1_Paradigm,2021.1.4,59.98356658772844,
N,left,Distractor,0,32,32,32,1736.394136823481,1738.394135540293,left,1,3,0.7783316608692985,L07B10,2022-09-21_16h09.24.822,t1_Paradigm,2021.1.4,59.98356658772844,
F,left,Distractor,0,33,33,33,1739.894301074295,1741.8943344377622,left,1,3,0.7661908953741658,L07B10,2022-09-21_16h09.24.822,t1_Paradigm,2021.1.4,59.98356658772844,
B,right,Target,0,34,34,34,1743.3941987383587,1745.3958749307203,right,1,3,0.9766933873761445,L07B10,2022-09-21_16h09.24.822,t1_Paradigm,2021.1.4,59.98356658772844,
Q,left,Pretarget,0,35,35,35,1746.8941352194815,1748.8954813062155,None,0,3,,L07B10,2022-09-21_16h09.24.822,t1_Paradigm,2021.1.4,59.98356658772844,
S,left,Pretarget,0,36,36,36,1750.3941397107264,1752.3946315007342,left,1,3,0.7621561640116852,L07B10,2022-09-21_16h09.24.822,t1_Paradigm,2021.1.4,59.98356658772844,
W,left,Distractor,0,37,37,37,1753.89410474326,1755.8938606126467,left,1,3,0.8787299690884538,L07B10,2022-09-21_16h09.24.822,t1_Paradigm,2021.1.4,59.98356658772844,
Q,right,Target,0,38,38,38,1757.3944884228986,1759.395863061014,right,1,3,1.0087688118510414,L07B10,2022-09-21_16h09.24.822,t1_Paradigm,2021.1.4,59.98356658772844,
S,right,Target,0,39,39,39,1760.8938041514484,1762.8938894848689,None,0,3,,L07B10,2022-09-21_16h09.24.822,t1_Paradigm,2021.1.4,59.98356658772844,
T,left,Distractor,0,40,40,40,1764.3942131744407,1766.3953308498894,left,1,3,1.2094756036240142,L07B10,2022-09-21_16h09.24.822,t1_Paradigm,2021.1.4,59.98356658772844,
G,left,Distractor,0,41,41,41,1767.8943495154672,1769.8941454851592,left,1,3,1.0225880153593607,L07B10,2022-09-21_16h09.24.822,t1_Paradigm,2021.1.4,59.98356658772844,
D,left,Distractor,0,42,42,42,1771.3944589090534,1773.3941448435653,left,1,3,0.7865214244811796,L07B10,2022-09-21_16h09.24.822,t1_Paradigm,2021.1.4,59.98356658772844,
S,left,Lure,0,43,43,43,1774.8939446628792,1776.893731329299,left,1,3,0.7110330990981311,L07B10,2022-09-21_16h09.24.822,t1_Paradigm,2021.1.4,59.98356658772844,
Z,left,Pretarget,0,44,44,44,1778.3943966733932,1780.3941458059708,left,1,3,0.8586198312405031,L07B10,2022-09-21_16h09.24.822,t1_Paradigm,2021.1.4,59.98356658772844,
J,left,Distractor,0,45,45,45,1781.8942693148565,1783.8943039615115,left,1,3,0.6223283578874543,L07B10,2022-09-21_16h09.24.822,t1_Paradigm,2021.1.4,59.98356658772844,
M,left,Pretarget,0,46,46,46,1785.3945798515633,1787.3952564237406,left,1,3,0.9135411961760838,L07B10,2022-09-21_16h09.24.822,t1_Paradigm,2021.1.4,59.98356658772844,
Z,right,Target,0,47,47,47,1788.8939068081963,1790.8938243619923,right,1,3,1.014997510559624,L07B10,2022-09-21_16h09.24.822,t1_Paradigm,2021.1.4,59.98356658772844,
P,left,Distractor,0,48,48,48,1792.3942115704413,1794.396186750615,left,1,3,0.9045237624668516,L07B10,2022-09-21_16h09.24.822,t1_Paradigm,2021.1.4,59.98356658772844,
M,right,Target,0,49,49,49,1795.8943639515783,1797.893863499863,right,1,3,0.7989040749671403,L07B10,2022-09-21_16h09.24.822,t1_Paradigm,2021.1.4,59.98356658772844,
K,left,Distractor,0,50,50,50,1799.3942144576577,1801.3954758525651,left,1,3,1.457236082322197,L07B10,2022-09-21_16h09.24.822,t1_Paradigm,2021.1.4,59.98356658772844,
Y,left,Distractor,0,51,51,51,1802.8938548382139,1804.8941679413256,left,1,3,1.03062636021059,L07B10,2022-09-21_16h09.24.822,t1_Paradigm,2021.1.4,59.98356658772844,
X,left,Distractor,0,52,52,52,1806.3943129440013,1808.3947886938986,left,1,3,1.0497968679410405,L07B10,2022-09-21_16h09.24.822,t1_Paradigm,2021.1.4,59.98356658772844,
F,left,Pretarget,0,53,53,53,1809.894149976375,1811.8943078111624,left,1,3,1.0064083480392583,L07B10,2022-09-21_16h09.24.822,t1_Paradigm,2021.1.4,59.98356658772844,
M,left,Lure,0,54,54,54,1813.3943209640565,1815.395396614389,left,1,3,0.9134218576655257,L07B10,2022-09-21_16h09.24.822,t1_Paradigm,2021.1.4,59.98356658772844,
V,left,Distractor,0,55,55,55,1816.8939125826291,1818.8938792191911,left,1,3,0.7589019448205363,L07B10,2022-09-21_16h09.24.822,t1_Paradigm,2021.1.4,59.98356658772844,
F,right,Target,0,56,56,56,1820.3943998814211,1822.3941685829195,left,0,3,0.7148028476804029,L07B10,2022-09-21_16h09.24.822,t1_Paradigm,2021.1.4,59.98356658772844,
S,left,Distractor,0,57,57,57,1823.8943482322502,1825.8952666894183,left,1,3,0.573191701201722,L07B10,2022-09-21_16h09.24.822,t1_Paradigm,2021.1.4,59.98356658772844,
D,left,Distractor,0,58,58,58,1827.3945513001527,1829.3941772445978,left,1,3,0.5146407783322502,L07B10,2022-09-21_16h09.24.822,t1_Paradigm,2021.1.4,59.98356658772844,
F,right,Target,0,59,59,59,1830.8941255953978,1832.8948303982033,right,1,3,0.789919042319525,L07B10,2022-09-21_16h09.24.822,t1_Paradigm,2021.1.4,59.98356658772844,
V,left,Pretarget,0,60,60,60,1834.3941849438415,1836.3947572552715,left,1,3,0.7300688698596787,L07B10,2022-09-21_16h09.24.822,t1_Paradigm,2021.1.4,59.98356658772844,
J,left,Distractor,0,61,61,61,1837.8943373249786,1839.8945994205133,left,1,3,0.5259423248644453,L07B10,2022-09-21_16h09.24.822,t1_Paradigm,2021.1.4,59.98356658772844,
V,left,Lure,0,62,62,62,1841.3946343879506,1843.394623480679,left,1,3,0.5301855777506717,L07B10,2022-09-21_16h09.24.822,t1_Paradigm,2021.1.4,59.98356658772844,
V,right,Target,0,63,63,63,1844.8938702367304,1846.893983159156,right,1,3,1.0786347549583297,L07B10,2022-09-21_16h09.24.822,t1_Paradigm,2021.1.4,59.98356658772844,
R,left,Distractor,0,0,0,0,1937.3511374368682,1939.3444939406763,left,1,4,0.756413160066586,L07B10,2022-09-21_16h09.24.822,t1_Paradigm,2021.1.4,59.98356658772844,
F,left,Distractor,0,1,1,1,1940.8440794640337,1942.8440817096562,left,1,4,0.552602926210966,L07B10,2022-09-21_16h09.24.822,t1_Paradigm,2021.1.4,59.98356658772844,
P,left,Pretarget,0,2,2,2,1944.3442331283586,1946.3440746520064,left,1,4,0.4287667972384952,L07B10,2022-09-21_16h09.24.822,t1_Paradigm,2021.1.4,59.98356658772844,
H,left,Distractor,0,3,3,3,1947.8444971487042,1949.8446447177848,left,1,4,0.5600455411185976,L07B10,2022-09-21_16h09.24.822,t1_Paradigm,2021.1.4,59.98356658772844,
Z,left,Distractor,0,4,4,4,1951.3444339506386,1953.3440996745776,left,1,4,0.8686433011316694,L07B10,2022-09-21_16h09.24.822,t1_Paradigm,2021.1.4,59.98356658772844,
T,left,Distractor,0,5,5,5,1954.844137850072,1956.8439081555698,left,1,4,0.3929989374883007,L07B10,2022-09-21_16h09.24.822,t1_Paradigm,2021.1.4,59.98356658772844,
P,right,Target,0,6,6,6,1958.3442151634372,1960.3439954138012,None,0,4,,L07B10,2022-09-21_16h09.24.822,t1_Paradigm,2021.1.4,59.98356658772844,
G,left,Distractor,0,7,7,7,1961.84398097769,1963.8442158050311,None,0,4,,L07B10,2022-09-21_16h09.24.822,t1_Paradigm,2021.1.4,59.98356658772844,
L,left,Distractor,0,8,8,8,1965.3440274940513,1967.3442677750136,left,1,4,0.9166484878805932,L07B10,2022-09-21_16h09.24.822,t1_Paradigm,2021.1.4,59.98356658772844,
P,left,Lure,0,9,9,9,1968.8441198851215,1970.844776888378,None,0,4,,L07B10,2022-09-21_16h09.24.822,t1_Paradigm,2021.1.4,59.98356658772844,
Q,left,Pretarget,0,10,10,10,1972.3445253793034,1974.3444515947776,left,1,4,0.9245187322958373,L07B10,2022-09-21_16h09.24.822,t1_Paradigm,2021.1.4,59.98356658772844,
D,left,Distractor,0,11,11,11,1975.8445792741259,1977.844772397133,None,0,4,,L07B10,2022-09-21_16h09.24.822,t1_Paradigm,2021.1.4,59.98356658772844,
M,left,Pretarget,0,12,12,12,1979.3445247377094,1981.3443470131897,left,1,4,1.3326361228828318,L07B10,2022-09-21_16h09.24.822,t1_Paradigm,2021.1.4,59.98356658772844,
C,left,Distractor,0,13,13,13,1982.8444182313397,1984.845682834246,left,1,4,1.0313314837985672,L07B10,2022-09-21_16h09.24.822,t1_Paradigm,2021.1.4,59.98356658772844,
Q,right,Target,0,14,14,14,1986.3445603467699,1988.345009790879,left,0,4,0.9239874835766386,L07B10,2022-09-21_16h09.24.822,t1_Paradigm,2021.1.4,59.98356658772844,
R,left,Distractor,0,15,15,15,1989.844437479478,1991.843952105497,left,1,4,1.0089606516703498,L07B10,2022-09-21_16h09.24.822,t1_Paradigm,2021.1.4,59.98356658772844,
M,right,Target,0,16,16,16,1993.3446209784306,1995.3441317548277,None,0,4,,L07B10,2022-09-21_16h09.24.822,t1_Paradigm,2021.1.4,59.98356658772844,
S,left,Distractor,0,17,17,17,1996.8446264320519,1998.8440804264392,left,1,4,1.1928394345741253,L07B10,2022-09-21_16h09.24.822,t1_Paradigm,2021.1.4,59.98356658772844,
Z,left,Distractor,0,18,18,18,2000.3440980705782,2002.3442806071253,left,1,4,1.2606888139853254,L07B10,2022-09-21_16h09.24.822,t1_Paradigm,2021.1.4,59.98356658772844,
L,left,Pretarget,0,19,19,19,2003.8442783615028,2005.844485920621,left,1,4,0.7522937369067222,L07B10,2022-09-21_16h09.24.822,t1_Paradigm,2021.1.4,59.98356658772844,
M,right,Target,0,20,20,20,2007.3440255692403,2009.3452009891043,None,0,4,,L07B10,2022-09-21_16h09.24.822,t1_Paradigm,2021.1.4,59.98356658772844,
P,left,Distractor,0,21,21,21,2010.8445481562812,2012.844926061458,left,1,4,1.4481060469988734,L07B10,2022-09-21_16h09.24.822,t1_Paradigm,2021.1.4,59.98356658772844,
F,left,Distractor,0,22,22,22,2014.344102561794,2016.345242051786,left,1,4,0.7638131082348991,L07B10,2022-09-21_16h09.24.822,t1_Paradigm,2021.1.4,59.98356658772844,
L,right,Target,0,23,23,23,2017.844557780365,2019.8440820304386,left,0,4,0.8649348258040845,L07B10,2022-09-21_16h09.24.822,t1_Paradigm,2021.1.4,59.98356658772844,
L,left,Lure,0,24,24,24,2021.3443030632916,2023.3445965974533,left,1,4,0.9325051071937196,L07B10,2022-09-21_16h09.24.822,t1_Paradigm,2021.1.4,59.98356658772844,
V,left,Pretarget,0,25,25,25,2024.8443906423345,2026.8441041658225,left,1,4,1.4009259639424272,L07B10,2022-09-21_16h09.24.822,t1_Paradigm,2021.1.4,59.98356658772844,
Z,left,Distractor,0,26,26,26,2028.3445574595535,2030.3441343212326,None,0,4,,L07B10,2022-09-21_16h09.24.822,t1_Paradigm,2021.1.4,59.98356658772844,
H,left,Distractor,0,27,27,27,2031.84388152897,2033.8459282480471,left,1,4,0.8631469942047261,L07B10,2022-09-21_16h09.24.822,t1_Paradigm,2021.1.4,59.98356658772844,
X,left,Distractor,0,28,28,28,2035.3443784518458,2037.3440172283736,left,1,4,0.6450232004281133,L07B10,2022-09-21_16h09.24.822,t1_Paradigm,2021.1.4,59.98356658772844,
V,right,Target,0,29,29,29,2038.844424968178,2040.8449976003903,left,0,4,0.6486254901683424,L07B10,2022-09-21_16h09.24.822,t1_Paradigm,2021.1.4,59.98356658772844,
C,left,Distractor,0,30,30,30,2042.3442533389025,2044.3449870139302,left,1,4,0.6838951438257936,L07B10,2022-09-21_16h09.24.822,t1_Paradigm,2021.1.4,59.98356658772844,
S,left,Pretarget,0,31,31,31,2045.8441603062383,2047.8441433036933,left,1,4,1.1207695792254526,L07B10,2022-09-21_16h09.24.822,t1_Paradigm,2021.1.4,59.98356658772844,
D,left,Distractor,0,32,32,32,2049.344579274126,2051.344385830278,left,1,4,1.332782408746425,L07B10,2022-09-21_16h09.24.822,t1_Paradigm,2021.1.4,59.98356658772844,
V,left,Distractor,0,33,33,33,2052.8446562666795,2054.8441394540714,None,0,4,,L07B10,2022-09-21_16h09.24.822,t1_Paradigm,2021.1.4,59.98356658772844,
R,left,Distractor,0,34,34,34,2056.344074972789,2058.3448407280375,None,0,4,,L07B10,2022-09-21_16h09.24.822,t1_Paradigm,2021.1.4,59.98356658772844,
S,right,Target,0,35,35,35,2059.8445834445592,2061.8456902127073,left,0,4,0.6873039897473063,L07B10,2022-09-21_16h09.24.822,t1_Paradigm,2021.1.4,59.98356658772844,
Y,left,Distractor,0,36,36,36,2063.3441984817036,2065.3439806569077,left,1,4,0.9172772605088539,L07B10,2022-09-21_16h09.24.822,t1_Paradigm,2021.1.4,59.98356658772844,
N,left,Pretarget,0,37,37,37,2066.843702842045,2068.844212276221,left,1,4,0.7769092232047115,L07B10,2022-09-21_16h09.24.822,t1_Paradigm,2021.1.4,59.98356658772844,
Z,left,Pretarget,0,38,38,38,2070.34465466268,2072.3449690489797,None,0,4,,L07B10,2022-09-21_16h09.24.822,t1_Paradigm,2021.1.4,59.98356658772844,
P,left,Pretarget,0,39,39,39,2073.844327444269,2075.8444089280674,left,1,4,1.0885619841574226,L07B10,2022-09-21_16h09.24.822,t1_Paradigm,2021.1.4,59.98356658772844,
M,left,Distractor,0,40,40,40,2077.3443312938907,2079.3446142415632,left,1,4,1.2363213079224806,L07B10,2022-09-21_16h09.24.822,t1_Paradigm,2021.1.4,59.98356658772844,
N,right,Target,0,41,41,41,2080.8445718956646,2082.8451204677112,left,0,4,0.823938208312029,L07B10,2022-09-21_16h09.24.822,t1_Paradigm,2021.1.4,59.98356658772844,
Z,right,Target,0,42,42,42,2084.344137208449,2086.3444214393385,right,1,4,0.8446318857022561,L07B10,2022-09-21_16h09.24.822,t1_Paradigm,2021.1.4,59.98356658772844,
P,right,Target,0,43,43,43,2087.844394171145,2089.84505085359,right,1,4,1.2640960559074301,L07B10,2022-09-21_16h09.24.822,t1_Paradigm,2021.1.4,59.98356658772844,
X,left,Pretarget,0,44,44,44,2091.3441834039986,2093.3446921965515,left,1,4,0.9644477194815408,L07B10,2022-09-21_16h09.24.822,t1_Paradigm,2021.1.4,59.98356658772844,
Z,left,Lure,0,45,45,45,2094.8441808375646,2096.8447047078516,left,1,4,1.3362493199238088,L07B10,2022-09-21_16h09.24.822,t1_Paradigm,2021.1.4,59.98356658772844,
R,left,Pretarget,0,46,46,46,2098.3445529683086,2100.3449356855417,None,0,4,,L07B10,2022-09-21_16h09.24.822,t1_Paradigm,2021.1.4,59.98356658772844,
K,left,Distractor,0,47,47,47,2101.8441295092052,2103.8443142913748,left,1,4,1.3768529544468038,L07B10,2022-09-21_16h09.24.822,t1_Paradigm,2021.1.4,59.98356658772844,
X,right,Target,0,48,48,48,2105.3446148831863,2107.3447040662286,None,0,4,,L07B10,2022-09-21_16h09.24.822,t1_Paradigm,2021.1.4,59.98356658772844,
B,left,Distractor,0,49,49,49,2108.8443867926835,2110.844364336517,left,1,4,1.3365569693851285,L07B10,2022-09-21_16h09.24.822,t1_Paradigm,2021.1.4,59.98356658772844,
R,right,Target,0,50,50,50,2112.3441846872156,2114.3445972390473,None,0,4,,L07B10,2022-09-21_16h09.24.822,t1_Paradigm,2021.1.4,59.98356658772844,
Y,left,Pretarget,0,51,51,51,2115.8446267528634,2117.844231524359,left,1,4,0.9129900576954242,L07B10,2022-09-21_16h09.24.822,t1_Paradigm,2021.1.4,59.98356658772844,
W,left,Pretarget,0,52,52,52,2119.344257509336,2121.3444586524274,left,1,4,0.6126317856251262,L07B10,2022-09-21_16h09.24.822,t1_Paradigm,2021.1.4,59.98356658772844,
Z,left,Distractor,0,53,53,53,2122.8442433940363,2124.844864467421,left,1,4,0.8881535386026371,L07B10,2022-09-21_16h09.24.822,t1_Paradigm,2021.1.4,59.98356658772844,
Q,left,Distractor,0,54,54,54,2126.3445462314703,2128.3454457613116,left,1,4,0.6835429028433282,L07B10,2022-09-21_16h09.24.822,t1_Paradigm,2021.1.4,59.98356658772844,
Y,right,Target,0,55,55,55,2129.8447425625054,2131.8442299203307,None,0,4,,L07B10,2022-09-21_16h09.24.822,t1_Paradigm,2021.1.4,59.98356658772844,
W,right,Target,0,56,56,56,2133.344254301308,2135.3442199754645,None,0,4,,L07B10,2022-09-21_16h09.24.822,t1_Paradigm,2021.1.4,59.98356658772844,
H,left,Pretarget,0,57,57,57,2136.844282531936,2138.844601088669,left,1,4,1.048643904243363,L07B10,2022-09-21_16h09.24.822,t1_Paradigm,2021.1.4,59.98356658772844,
M,left,Distractor,0,58,58,58,2140.3445285873313,2142.3441218099324,left,1,4,0.8770483230764512,L07B10,2022-09-21_16h09.24.822,t1_Paradigm,2021.1.4,59.98356658772844,
R,left,Pretarget,0,59,59,59,2143.8444297802052,2145.844276436692,left,1,4,0.8006601471279282,L07B10,2022-09-21_16h09.24.822,t1_Paradigm,2021.1.4,59.98356658772844,
J,left,Distractor,0,60,60,60,2147.344283815124,2149.3454720670998,None,0,4,,L07B10,2022-09-21_16h09.24.822,t1_Paradigm,2021.1.4,59.98356658772844,
H,right,Target,0,61,61,61,2150.844742241723,2152.844258792553,left,0,4,1.4006811917352024,L07B10,2022-09-21_16h09.24.822,t1_Paradigm,2021.1.4,59.98356658772844,
Z,left,Distractor,0,62,62,62,2154.3445128680323,2156.3444143816887,left,1,4,0.9726804705860559,L07B10,2022-09-21_16h09.24.822,t1_Paradigm,2021.1.4,59.98356658772844,
R,right,Target,0,63,63,63,2157.844256867742,2159.845386412868,left,0,4,0.943657480616821,L07B10,2022-09-21_16h09.24.822,t1_Paradigm,2021.1.4,59.98356658772844,
J,left,Pretarget,0,0,0,0,2175.5264565710677,2177.527646747825,left,1,4,0.6374217883858364,L07B10,2022-09-21_16h09.24.822,t1_Paradigm,2021.1.4,59.98356658772844,
G,left,Pretarget,0,1,1,1,2179.0278478909167,2181.0276736952364,left,1,4,0.5134955139074009,L07B10,2022-09-21_16h09.24.822,t1_Paradigm,2021.1.4,59.98356658772844,
Z,left,Distractor,0,2,2,2,2182.5275861161936,2184.527885424788,left,1,4,0.3092409687524196,L07B10,2022-09-21_16h09.24.822,t1_Paradigm,2021.1.4,59.98356658772844,
F,left,Distractor,0,3,3,3,2186.027986798348,2188.027445925545,left,1,4,0.5216188713966403,L07B10,2022-09-21_16h09.24.822,t1_Paradigm,2021.1.4,59.98356658772844,
J,right,Target,0,4,4,4,2189.5281343674287,2191.5276804320747,right,1,4,1.1498496720159892,L07B10,2022-09-21_16h09.24.822,t1_Paradigm,2021.1.4,59.98356658772844,
G,right,Target,0,5,5,5,2193.0278809335723,2195.028552372911,right,1,4,0.6567209378699772,L07B10,2022-09-21_16h09.24.822,t1_Paradigm,2021.1.4,59.98356658772844,
H,left,Distractor,0,6,6,6,2196.527904993738,2198.5285161222564,left,1,4,1.2525343386805616,L07B10,2022-09-21_16h09.24.822,t1_Paradigm,2021.1.4,59.98356658772844,
P,left,Distractor,0,7,7,7,2200.027559489594,2202.0275043115835,left,1,4,0.8576834091218188,L07B10,2022-09-21_16h09.24.822,t1_Paradigm,2021.1.4,59.98356658772844,
G,left,Lure,0,8,8,8,2203.527906918549,2205.528094587935,left,1,4,1.3731207397358958,L07B10,2022-09-21_16h09.24.822,t1_Paradigm,2021.1.4,59.98356658772844,
S,left,Distractor,0,9,9,9,2207.028156182001,2209.0286890347197,None,0,4,,L07B10,2022-09-21_16h09.24.822,t1_Paradigm,2021.1.4,59.98356658772844,
R,left,Pretarget,0,10,10,10,2210.5276457854197,2212.5294743589184,left,1,4,1.331891540583456,L07B10,2022-09-21_16h09.24.822,t1_Paradigm,2021.1.4,59.98356658772844,
T,left,Pretarget,0,11,11,11,2214.028069886146,2216.028732343024,left,1,4,0.8724412803421728,L07B10,2022-09-21_16h09.24.822,t1_Paradigm,2021.1.4,59.98356658772844,
X,left,Distractor,0,12,12,12,2217.52812923459,2219.5274783265777,left,1,4,1.373709091276396,L07B10,2022-09-21_16h09.24.822,t1_Paradigm,2021.1.4,59.98356658772844,
F,left,Pretarget,0,13,13,13,2221.0275100860163,2223.0286123629485,left,1,4,1.0725654950074386,L07B10,2022-09-21_16h09.24.822,t1_Paradigm,2021.1.4,59.98356658772844,
R,right,Target,0,14,14,14,2224.528245685855,2226.5279967432143,None,0,4,,L07B10,2022-09-21_16h09.24.822,t1_Paradigm,2021.1.4,59.98356658772844,
T,right,Target,0,15,15,15,2228.0281747885165,2230.029550068255,None,0,4,,L07B10,2022-09-21_16h09.24.822,t1_Paradigm,2021.1.4,59.98356658772844,
C,left,Distractor,0,16,16,16,2231.5275302965892,2233.5276473894482,left,1,4,0.9093794270884246,L07B10,2022-09-21_16h09.24.822,t1_Paradigm,2021.1.4,59.98356658772844,
F,right,Target,0,17,17,17,2235.0275729632995,2237.028703470831,None,0,4,,L07B10,2022-09-21_16h09.24.822,t1_Paradigm,2021.1.4,59.98356658772844,
M,left,Distractor,0,18,18,18,2238.5277606326854,2240.527532862994,left,1,4,0.8855508689885028,L07B10,2022-09-21_16h09.24.822,t1_Paradigm,2021.1.4,59.98356658772844,
N,left,Distractor,0,19,19,19,2242.0276358405536,2244.028261405154,left,1,4,0.8409907788445707,L07B10,2022-09-21_16h09.24.822,t1_Paradigm,2021.1.4,59.98356658772844,
R,left,Lure,0,20,20,20,2245.528101966396,2247.5280111793254,None,0,4,,L07B10,2022-09-21_16h09.24.822,t1_Paradigm,2021.1.4,59.98356658772844,
F,right,Target,0,21,21,21,2249.028114156885,2251.027768973523,None,0,4,,L07B10,2022-09-21_16h09.24.822,t1_Paradigm,2021.1.4,59.98356658772844,
P,left,Distractor,0,22,22,22,2252.5277311188693,2254.528853285534,None,0,4,,L07B10,2022-09-21_16h09.24.822,t1_Paradigm,2021.1.4,59.98356658772844,
L,left,Pretarget,0,23,23,23,2256.0280779062014,2258.028417635913,left,1,4,1.1608268873242196,L07B10,2022-09-21_16h09.24.822,t1_Paradigm,2021.1.4,59.98356658772844,
T,left,Distractor,0,24,24,24,2259.527923921065,2261.5281597108115,left,1,4,0.9728177740180399,L07B10,2022-09-21_16h09.24.822,t1_Paradigm,2021.1.4,59.98356658772844,
F,left,Distractor,0,25,25,25,2263.0281520115677,2265.028801636363,right,0,4,1.1365010855952278,L07B10,2022-09-21_16h09.24.822,t1_Paradigm,2021.1.4,59.98356658772844,
V,left,Distractor,0,26,26,26,2266.5281853750057,2268.52900181702,left,1,4,0.48420080429059453,L07B10,2022-09-21_16h09.24.822,t1_Paradigm,2021.1.4,59.98356658772844,
L,right,Target,0,27,27,27,2270.0281321218063,2272.0285045733617,right,1,4,0.9207249235187192,L07B10,2022-09-21_16h09.24.822,t1_Paradigm,2021.1.4,59.98356658772844,
S,left,Pretarget,0,28,28,28,2273.5278032993956,2275.527661504748,left,1,4,0.7174100085394457,L07B10,2022-09-21_16h09.24.822,t1_Paradigm,2021.1.4,59.98356658772844,
W,left,Distractor,0,29,29,29,2277.0279293747153,2279.028103891207,None,0,4,,L07B10,2022-09-21_16h09.24.822,t1_Paradigm,2021.1.4,59.98356658772844,
Q,left,Distractor,0,30,30,30,2280.527684602508,2282.544268480793,left,1,4,1.1090779369988013,L07B10,2022-09-21_16h09.24.822,t1_Paradigm,2021.1.4,59.98356658772844,
L,right,Target,0,31,31,31,2284.0279040313326,2286.0275729632995,right,1,4,0.697838497813791,L07B10,2022-09-21_16h09.24.822,t1_Paradigm,2021.1.4,59.98356658772844,
S,right,Target,0,32,32,32,2287.5281930742494,2289.528194036655,left,0,4,0.6050114462268539,L07B10,2022-09-21_16h09.24.822,t1_Paradigm,2021.1.4,59.98356658772844,
Z,left,Pretarget,0,33,33,33,2291.027715399541,2293.0288738168892,left,1,4,0.9603889279533178,L07B10,2022-09-21_16h09.24.822,t1_Paradigm,2021.1.4,59.98356658772844,
F,left,Distractor,0,34,34,34,2294.5279620965593,2296.528626478248,left,1,4,1.1406538721930701,L07B10,2022-09-21_16h09.24.822,t1_Paradigm,2021.1.4,59.98356658772844,
V,left,Distractor,0,35,35,35,2298.0274789682007,2300.027619800443,right,0,4,0.8896289086551405,L07B10,2022-09-21_16h09.24.822,t1_Paradigm,2021.1.4,59.98356658772844,
M,left,Distractor,0,36,36,36,2301.5281301969953,2303.527848853322,left,1,4,0.9892303438100498,L07B10,2022-09-21_16h09.24.822,t1_Paradigm,2021.1.4,59.98356658772844,
Z,right,Target,0,37,37,37,2305.028240553016,2307.0276233292534,left,0,4,1.3617040251556318,L07B10,2022-09-21_16h09.24.822,t1_Paradigm,2021.1.4,59.98356658772844,
H,left,Pretarget,0,38,38,38,2308.5282668588043,2310.5275742464873,left,1,4,1.301631536683999,L07B10,2022-09-21_16h09.24.822,t1_Paradigm,2021.1.4,59.98356658772844,
L,left,Distractor,0,39,39,39,2312.0277805224177,2314.029271291016,None,0,4,,L07B10,2022-09-21_16h09.24.822,t1_Paradigm,2021.1.4,59.98356658772844,
G,left,Distractor,0,40,40,40,2315.5276024771156,2317.52807951023,None,0,4,,L07B10,2022-09-21_16h09.24.822,t1_Paradigm,2021.1.4,59.98356658772844,
K,left,Distractor,0,41,41,41,2319.0283108087315,2321.027955359721,left,1,4,0.8654654329002369,L07B10,2022-09-21_16h09.24.822,t1_Paradigm,2021.1.4,59.98356658772844,
H,right,Target,0,42,42,42,2322.528045505169,2324.5281478411343,None,0,4,,L07B10,2022-09-21_16h09.24.822,t1_Paradigm,2021.1.4,59.98356658772844,
B,left,Distractor,0,43,43,43,2326.0276810736977,2328.028858739155,left,1,4,1.0163034969882574,L07B10,2022-09-21_16h09.24.822,t1_Paradigm,2021.1.4,59.98356658772844,
Z,left,Distractor,0,44,44,44,2329.5278655350558,2331.5289065387333,left,1,4,0.8443133289401885,L07B10,2022-09-21_16h09.24.822,t1_Paradigm,2021.1.4,59.98356658772844,
T,left,Pretarget,0,45,45,45,2333.0279765326704,2335.027870347083,left,1,4,0.7213327798235696,L07B10,2022-09-21_16h09.24.822,t1_Paradigm,2021.1.4,59.98356658772844,
H,right,Target,0,46,46,46,2336.5279008233047,2338.5276939057803,right,1,4,1.1577000266988762,L07B10,2022-09-21_16h09.24.822,t1_Paradigm,2021.1.4,59.98356658772844,
F,left,Distractor,0,47,47,47,2340.028293485404,2342.028018236975,left,1,4,0.5372406633687206,L07B10,2022-09-21_16h09.24.822,t1_Paradigm,2021.1.4,59.98356658772844,
R,left,Distractor,0,48,48,48,2343.5276201212255,2345.528296693432,left,1,4,0.5890342052152846,L07B10,2022-09-21_16h09.24.822,t1_Paradigm,2021.1.4,59.98356658772844,
T,right,Target,0,49,49,49,2347.027784051257,2349.029162218212,right,1,4,0.7680172232503537,L07B10,2022-09-21_16h09.24.822,t1_Paradigm,2021.1.4,59.98356658772844,
H,right,Target,0,50,50,50,2350.527995780809,2352.529315882537,right,1,4,1.108037254132796,L07B10,2022-09-21_16h09.24.822,t1_Paradigm,2021.1.4,59.98356658772844,
Y,left,Pretarget,0,51,51,51,2354.0278790087323,2356.027738176519,left,1,4,0.8256121550512034,L07B10,2022-09-21_16h09.24.822,t1_Paradigm,2021.1.4,59.98356658772844,
H,left,Distractor,0,52,52,52,2357.5276874897245,2359.5294111608528,left,1,4,1.1800105479778722,L07B10,2022-09-21_16h09.24.822,t1_Paradigm,2021.1.4,59.98356658772844,
S,left,Distractor,0,53,53,53,2361.028103249613,2363.029543331417,left,1,4,0.9118463972699828,L07B10,2022-09-21_16h09.24.822,t1_Paradigm,2021.1.4,59.98356658772844,
Q,left,Distractor,0,54,54,54,2364.5278716303,2366.528642197576,right,0,4,0.9005063544318546,L07B10,2022-09-21_16h09.24.822,t1_Paradigm,2021.1.4,59.98356658772844,
Y,right,Target,0,55,55,55,2368.0277763519844,2370.0289184084104,None,0,4,,L07B10,2022-09-21_16h09.24.822,t1_Paradigm,2021.1.4,59.98356658772844,
R,left,Distractor,0,56,56,56,2371.5281513699447,2373.52819147025,None,0,4,,L07B10,2022-09-21_16h09.24.822,t1_Paradigm,2021.1.4,59.98356658772844,
H,left,Pretarget,0,57,57,57,2375.0278960112773,2377.02769037697,None,0,4,,L07B10,2022-09-21_16h09.24.822,t1_Paradigm,2021.1.4,59.98356658772844,
J,left,Distractor,0,58,58,58,2378.528236703394,2380.527904993738,left,1,4,1.1574825226853136,L07B10,2022-09-21_16h09.24.822,t1_Paradigm,2021.1.4,59.98356658772844,
V,left,Distractor,0,59,59,59,2382.0278725927055,2384.0281218561286,left,1,4,0.7933108857250772,L07B10,2022-09-21_16h09.24.822,t1_Paradigm,2021.1.4,59.98356658772844,
Y,left,Lure,0,60,60,60,2385.5281042120187,2387.5278751591104,left,1,4,1.3094992146652658,L07B10,2022-09-21_16h09.24.822,t1_Paradigm,2021.1.4,59.98356658772844,
H,right,Target,0,61,61,61,2389.0276955097797,2391.029431692208,left,0,4,1.3438786417536903,L07B10,2022-09-21_16h09.24.822,t1_Paradigm,2021.1.4,59.98356658772844,
L,left,Distractor,0,62,62,62,2392.5278504573216,2394.527836983645,left,1,4,0.9495368255593348,L07B10,2022-09-21_16h09.24.822,t1_Paradigm,2021.1.4,59.98356658772844,
P,left,Distractor,0,63,63,63,2396.0278921616555,2398.028714057291,left,1,4,0.8726764284656383,L07B10,2022-09-21_16h09.24.822,t1_Paradigm,2021.1.4,59.98356658772844,
