Letter,CorrAnswer,Stimulus,nback_run.thisRepN,nback_run.thisTrialN,nback_run.thisN,nback_run.thisIndex,fixcross.started,nback_trial.started,trial_resp.keys,trial_resp.corr,currentlevel,trial_resp.rt,Participant,date,expName,psychopyVersion,frameRate
H,left,Distractor,0,0,0,0,297.1855411,299.1808205,None,0,1,,L08B02,2022-10-21_10h33.55.460,t1_Paradigm,04.01.2021,59.99341786
Q,left,Pretarget,0,1,1,1,300.6790025,302.6812128,left,1,1,0.566532443,L08B02,2022-10-21_10h33.55.460,t1_Paradigm,04.01.2021,59.99341786
Q,right,Target,0,2,2,2,304.1782191,306.1783676,right,1,1,0.794494457,L08B02,2022-10-21_10h33.55.460,t1_Paradigm,04.01.2021,59.99341786
T,left,Distractor,0,3,3,3,307.6780468,309.6796986,left,1,1,1.341147432,L08B02,2022-10-21_10h33.55.460,t1_Paradigm,04.01.2021,59.99341786
Q,left,Lure,0,4,4,4,311.1772265,313.1779804,left,1,1,1.192577857,L08B02,2022-10-21_10h33.55.460,t1_Paradigm,04.01.2021,59.99341786
L,left,Distractor,0,5,5,5,314.6765737,316.6786538,left,1,1,0.821708746,L08B02,2022-10-21_10h33.55.460,t1_Paradigm,04.01.2021,59.99341786
V,left,Pretarget,0,6,6,6,318.1757701,320.1776657,left,1,1,0.676854381,L08B02,2022-10-21_10h33.55.460,t1_Paradigm,04.01.2021,59.99341786
V,right,Target,0,7,7,7,321.6754935,323.6753681,right,1,1,0.826841581,L08B02,2022-10-21_10h33.55.460,t1_Paradigm,04.01.2021,59.99341786
K,left,Distractor,0,8,8,8,325.1750001,327.1764813,left,1,1,0.761319665,L08B02,2022-10-21_10h33.55.460,t1_Paradigm,04.01.2021,59.99341786
G,left,Pretarget,0,9,9,9,328.6741734,330.6765997,left,1,1,0.766063687,L08B02,2022-10-21_10h33.55.460,t1_Paradigm,04.01.2021,59.99341786
G,right,Target,0,10,10,10,332.1736608,334.1734818,right,1,1,0.680570553,L08B02,2022-10-21_10h33.55.460,t1_Paradigm,04.01.2021,59.99341786
G,right,Target,0,11,11,11,335.6732114,337.6728222,right,1,1,0.625029754,L08B02,2022-10-21_10h33.55.460,t1_Paradigm,04.01.2021,59.99341786
P,left,Pretarget,0,12,12,12,339.1725823,341.1740599,left,1,1,0.612410681,L08B02,2022-10-21_10h33.55.460,t1_Paradigm,04.01.2021,59.99341786
P,right,Target,0,13,13,13,342.671999,344.6717161,left,0,1,0.648446066,L08B02,2022-10-21_10h33.55.460,t1_Paradigm,04.01.2021,59.99341786
G,left,Lure,0,14,14,14,346.1717495,348.1711874,left,1,1,1.180219275,L08B02,2022-10-21_10h33.55.460,t1_Paradigm,04.01.2021,59.99341786
Y,left,Distractor,0,15,15,15,349.6708499,351.6740182,left,1,1,0.87219242,L08B02,2022-10-21_10h33.55.460,t1_Paradigm,04.01.2021,59.99341786
B,left,Distractor,0,16,16,16,353.1703636,355.1720346,left,1,1,1.311815528,L08B02,2022-10-21_10h33.55.460,t1_Paradigm,04.01.2021,59.99341786
T,left,Pretarget,0,17,17,17,356.6696633,358.6722303,left,1,1,0.638977591,L08B02,2022-10-21_10h33.55.460,t1_Paradigm,04.01.2021,59.99341786
T,right,Target,0,18,18,18,360.1691044,362.1687718,None,0,1,,L08B02,2022-10-21_10h33.55.460,t1_Paradigm,04.01.2021,59.99341786
S,left,Distractor,0,19,19,19,363.6677911,365.6703662,left,1,1,0.818252103,L08B02,2022-10-21_10h33.55.460,t1_Paradigm,04.01.2021,59.99341786
T,left,Lure,0,20,20,20,367.1677375,369.1690313,left,1,1,1.016145973,L08B02,2022-10-21_10h33.55.460,t1_Paradigm,04.01.2021,59.99341786
J,left,Distractor,0,21,21,21,370.6671857,372.6693367,left,1,1,0.723608088,L08B02,2022-10-21_10h33.55.460,t1_Paradigm,04.01.2021,59.99341786
P,left,Distractor,0,22,22,22,374.1667886,376.1682168,left,1,1,0.79108401,L08B02,2022-10-21_10h33.55.460,t1_Paradigm,04.01.2021,59.99341786
F,left,Distractor,0,23,23,23,377.6661162,379.6679342,left,1,1,0.816641355,L08B02,2022-10-21_10h33.55.460,t1_Paradigm,04.01.2021,59.99341786
L,left,Distractor,0,24,24,24,381.1655076,383.1674632,left,1,1,0.920254358,L08B02,2022-10-21_10h33.55.460,t1_Paradigm,04.01.2021,59.99341786
W,left,Pretarget,0,25,25,25,384.6651788,386.6665499,left,1,1,0.848692699,L08B02,2022-10-21_10h33.55.460,t1_Paradigm,04.01.2021,59.99341786
W,right,Target,0,26,26,26,388.1641096,390.1638741,right,1,1,0.848688208,L08B02,2022-10-21_10h33.55.460,t1_Paradigm,04.01.2021,59.99341786
V,left,Distractor,0,27,27,27,391.6637304,393.6642218,left,1,1,0.865671153,L08B02,2022-10-21_10h33.55.460,t1_Paradigm,04.01.2021,59.99341786
W,left,Lure,0,28,28,28,395.1798253,397.1822182,left,1,1,1.138286904,L08B02,2022-10-21_10h33.55.460,t1_Paradigm,04.01.2021,59.99341786
R,left,Pretarget,0,29,29,29,398.6793611,400.6806642,left,1,1,0.642574745,L08B02,2022-10-21_10h33.55.460,t1_Paradigm,04.01.2021,59.99341786
R,right,Target,0,30,30,30,402.1792152,404.1784379,right,1,1,0.719491233,L08B02,2022-10-21_10h33.55.460,t1_Paradigm,04.01.2021,59.99341786
G,left,Distractor,0,31,31,31,405.6780003,407.6788687,left,1,1,0.581626505,L08B02,2022-10-21_10h33.55.460,t1_Paradigm,04.01.2021,59.99341786
R,left,Lure,0,32,32,32,409.177838,411.1786502,left,1,1,0.81119221,L08B02,2022-10-21_10h33.55.460,t1_Paradigm,04.01.2021,59.99341786
S,left,Distractor,0,33,33,33,412.6768425,414.6773766,left,1,1,0.690785856,L08B02,2022-10-21_10h33.55.460,t1_Paradigm,04.01.2021,59.99341786
R,left,Lure,0,34,34,34,416.1764072,418.1770741,left,1,1,0.598384248,L08B02,2022-10-21_10h33.55.460,t1_Paradigm,04.01.2021,59.99341786
P,left,Pretarget,0,35,35,35,419.67572,421.6769112,None,0,1,,L08B02,2022-10-21_10h33.55.460,t1_Paradigm,04.01.2021,59.99341786
P,right,Target,0,36,36,36,423.1753816,425.1748381,right,1,1,0.700438793,L08B02,2022-10-21_10h33.55.460,t1_Paradigm,04.01.2021,59.99341786
Y,left,Pretarget,0,37,37,37,426.6746668,428.6764675,left,1,1,0.695866079,L08B02,2022-10-21_10h33.55.460,t1_Paradigm,04.01.2021,59.99341786
Y,right,Target,0,38,38,38,430.1740522,432.1739206,right,1,1,0.699716347,L08B02,2022-10-21_10h33.55.460,t1_Paradigm,04.01.2021,59.99341786
J,left,Distractor,0,39,39,39,433.6734388,435.6725704,left,1,1,0.779983613,L08B02,2022-10-21_10h33.55.460,t1_Paradigm,04.01.2021,59.99341786
Y,left,Lure,0,40,40,40,437.1729095,439.1732855,left,1,1,0.784190292,L08B02,2022-10-21_10h33.55.460,t1_Paradigm,04.01.2021,59.99341786
T,left,Distractor,0,41,41,41,440.6722297,442.6725823,left,1,1,0.655155323,L08B02,2022-10-21_10h33.55.460,t1_Paradigm,04.01.2021,59.99341786
V,left,Distractor,0,42,42,42,444.1715499,446.1725046,left,1,1,0.554392969,L08B02,2022-10-21_10h33.55.460,t1_Paradigm,04.01.2021,59.99341786
N,left,Pretarget,0,43,43,43,447.6710982,449.6739611,left,1,1,0.680398282,L08B02,2022-10-21_10h33.55.460,t1_Paradigm,04.01.2021,59.99341786
N,right,Target,0,44,44,44,451.1704935,453.1701849,right,1,1,0.620249481,L08B02,2022-10-21_10h33.55.460,t1_Paradigm,04.01.2021,59.99341786
N,right,Target,0,45,45,45,454.669893,456.6697951,right,1,1,0.474762173,L08B02,2022-10-21_10h33.55.460,t1_Paradigm,04.01.2021,59.99341786
X,left,Distractor,0,46,46,46,458.1696999,460.172812,left,1,1,0.62787559,L08B02,2022-10-21_10h33.55.460,t1_Paradigm,04.01.2021,59.99341786
Z,left,Distractor,0,47,47,47,461.668595,463.6704823,left,1,1,0.606786698,L08B02,2022-10-21_10h33.55.460,t1_Paradigm,04.01.2021,59.99341786
H,left,Pretarget,0,48,48,48,465.168118,467.1683849,left,1,1,0.613745218,L08B02,2022-10-21_10h33.55.460,t1_Paradigm,04.01.2021,59.99341786
H,right,Target,0,49,49,49,468.6677988,470.667256,right,1,1,0.517709562,L08B02,2022-10-21_10h33.55.460,t1_Paradigm,04.01.2021,59.99341786
K,left,Distractor,0,50,50,50,472.1663718,474.1685912,left,1,1,0.546617687,L08B02,2022-10-21_10h33.55.460,t1_Paradigm,04.01.2021,59.99341786
V,left,Pretarget,0,51,51,51,475.6663186,477.6664283,left,1,1,0.590825828,L08B02,2022-10-21_10h33.55.460,t1_Paradigm,04.01.2021,59.99341786
V,right,Target,0,52,52,52,479.1658111,481.1657864,right,1,1,0.515121651,L08B02,2022-10-21_10h33.55.460,t1_Paradigm,04.01.2021,59.99341786
R,left,Distractor,0,53,53,53,482.6653122,484.6667331,left,1,1,0.539530846,L08B02,2022-10-21_10h33.55.460,t1_Paradigm,04.01.2021,59.99341786
V,left,Lure,0,54,54,54,486.1647752,488.1664036,left,1,1,0.737063172,L08B02,2022-10-21_10h33.55.460,t1_Paradigm,04.01.2021,59.99341786
Y,left,Distractor,0,55,55,55,489.6640306,491.6639986,left,1,1,0.650654789,L08B02,2022-10-21_10h33.55.460,t1_Paradigm,04.01.2021,59.99341786
Q,left,Distractor,0,56,56,56,493.1636999,495.1756616,left,1,1,0.46892197,L08B02,2022-10-21_10h33.55.460,t1_Paradigm,04.01.2021,59.99341786
Z,left,Pretarget,0,57,57,57,496.6795472,498.6790419,left,1,1,0.503086758,L08B02,2022-10-21_10h33.55.460,t1_Paradigm,04.01.2021,59.99341786
Z,right,Target,0,58,58,58,500.1788995,502.1788597,right,1,1,0.602237723,L08B02,2022-10-21_10h33.55.460,t1_Paradigm,04.01.2021,59.99341786
B,left,Distractor,0,59,59,59,503.6783869,505.6776006,left,1,1,0.535266102,L08B02,2022-10-21_10h33.55.460,t1_Paradigm,04.01.2021,59.99341786
S,left,Pretarget,0,60,60,60,507.1778976,509.1786133,left,1,1,0.698929098,L08B02,2022-10-21_10h33.55.460,t1_Paradigm,04.01.2021,59.99341786
S,right,Target,0,61,61,61,510.6769647,512.6768659,right,1,1,0.750512802,L08B02,2022-10-21_10h33.55.460,t1_Paradigm,04.01.2021,59.99341786
T,left,Distractor,0,62,62,62,514.1766991,516.1783859,left,1,1,0.472615365,L08B02,2022-10-21_10h33.55.460,t1_Paradigm,04.01.2021,59.99341786
D,left,Distractor,0,63,63,63,517.6760729,519.6783304,left,1,1,0.987829728,L08B02,2022-10-21_10h33.55.460,t1_Paradigm,04.01.2021,59.99341786
R,left,Distractor,0,0,0,0,587.6731969,589.6660456,None,0,1,,L08B02,2022-10-21_10h33.55.460,t1_Paradigm,04.01.2021,59.99341786
V,left,Distractor,0,1,1,1,591.1637506,593.1636681,left,1,1,0.535158954,L08B02,2022-10-21_10h33.55.460,t1_Paradigm,04.01.2021,59.99341786
N,left,Pretarget,0,2,2,2,594.6632283,596.6651021,left,1,1,0.486097718,L08B02,2022-10-21_10h33.55.460,t1_Paradigm,04.01.2021,59.99341786
N,right,Target,0,3,3,3,598.1626634,600.1623057,right,1,1,0.428942963,L08B02,2022-10-21_10h33.55.460,t1_Paradigm,04.01.2021,59.99341786
S,left,Distractor,0,4,4,4,601.6621543,603.6633339,left,1,1,0.494267586,L08B02,2022-10-21_10h33.55.460,t1_Paradigm,04.01.2021,59.99341786
N,left,Lure,0,5,5,5,605.1615204,607.1617398,left,1,1,0.693196684,L08B02,2022-10-21_10h33.55.460,t1_Paradigm,04.01.2021,59.99341786
Z,left,Distractor,0,6,6,6,608.6609371,610.6623689,left,1,1,0.509704586,L08B02,2022-10-21_10h33.55.460,t1_Paradigm,04.01.2021,59.99341786
L,left,Pretarget,0,7,7,7,612.1597662,614.1599141,left,1,1,0.460549996,L08B02,2022-10-21_10h33.55.460,t1_Paradigm,04.01.2021,59.99341786
L,right,Target,0,8,8,8,615.6597235,617.6593428,right,1,1,0.486920254,L08B02,2022-10-21_10h33.55.460,t1_Paradigm,04.01.2021,59.99341786
H,left,Distractor,0,9,9,9,619.1592343,621.1589706,left,1,1,0.602571678,L08B02,2022-10-21_10h33.55.460,t1_Paradigm,04.01.2021,59.99341786
L,left,Lure,0,10,10,10,622.6582854,624.660088,left,1,1,1.243870273,L08B02,2022-10-21_10h33.55.460,t1_Paradigm,04.01.2021,59.99341786
X,left,Pretarget,0,11,11,11,626.1580461,628.1578485,left,1,1,0.47189741,L08B02,2022-10-21_10h33.55.460,t1_Paradigm,04.01.2021,59.99341786
X,right,Target,0,12,12,12,629.6575604,631.6570657,right,1,1,0.710475089,L08B02,2022-10-21_10h33.55.460,t1_Paradigm,04.01.2021,59.99341786
X,right,Target,0,13,13,13,633.1569733,635.1564619,right,1,1,0.46358286,L08B02,2022-10-21_10h33.55.460,t1_Paradigm,04.01.2021,59.99341786
R,left,Distractor,0,14,14,14,636.6563298,638.6579094,left,1,1,0.48340715,L08B02,2022-10-21_10h33.55.460,t1_Paradigm,04.01.2021,59.99341786
T,left,Distractor,0,15,15,15,640.1556304,642.1562278,left,1,1,0.45805223,L08B02,2022-10-21_10h33.55.460,t1_Paradigm,04.01.2021,59.99341786
V,left,Pretarget,0,16,16,16,643.6549734,645.655009,left,1,1,0.484561396,L08B02,2022-10-21_10h33.55.460,t1_Paradigm,04.01.2021,59.99341786
V,right,Target,0,17,17,17,647.1543758,649.1540723,right,1,1,0.421526659,L08B02,2022-10-21_10h33.55.460,t1_Paradigm,04.01.2021,59.99341786
N,left,Distractor,0,18,18,18,650.6536822,652.6554059,left,1,1,0.438048612,L08B02,2022-10-21_10h33.55.460,t1_Paradigm,04.01.2021,59.99341786
B,left,Distractor,0,19,19,19,654.1532379,656.1540649,left,1,1,0.489623013,L08B02,2022-10-21_10h33.55.460,t1_Paradigm,04.01.2021,59.99341786
V,left,Lure,0,20,20,20,657.6526627,659.6545375,left,1,1,0.698734371,L08B02,2022-10-21_10h33.55.460,t1_Paradigm,04.01.2021,59.99341786
P,left,Distractor,0,21,21,21,661.1519168,663.153568,left,1,1,0.537504339,L08B02,2022-10-21_10h33.55.460,t1_Paradigm,04.01.2021,59.99341786
K,left,Pretarget,0,22,22,22,664.6514693,666.6512322,left,1,1,0.439077104,L08B02,2022-10-21_10h33.55.460,t1_Paradigm,04.01.2021,59.99341786
K,right,Target,0,23,23,23,668.1509602,670.1507943,right,1,1,0.449059825,L08B02,2022-10-21_10h33.55.460,t1_Paradigm,04.01.2021,59.99341786
J,left,Pretarget,0,24,24,24,671.6502839,673.6511434,left,1,1,0.445763583,L08B02,2022-10-21_10h33.55.460,t1_Paradigm,04.01.2021,59.99341786
J,right,Target,0,25,25,25,675.1497418,677.1494765,right,1,1,0.424033728,L08B02,2022-10-21_10h33.55.460,t1_Paradigm,04.01.2021,59.99341786
H,left,Distractor,0,26,26,26,678.6491727,680.6511556,left,1,1,0.456298084,L08B02,2022-10-21_10h33.55.460,t1_Paradigm,04.01.2021,59.99341786
J,left,Lure,0,27,27,27,682.1648865,684.1669984,left,1,1,0.588971592,L08B02,2022-10-21_10h33.55.460,t1_Paradigm,04.01.2021,59.99341786
V,left,Distractor,0,28,28,28,685.6645551,687.6644547,left,1,1,0.588675812,L08B02,2022-10-21_10h33.55.460,t1_Paradigm,04.01.2021,59.99341786
Z,left,Pretarget,0,29,29,29,689.1646373,691.1645667,left,1,1,0.487733488,L08B02,2022-10-21_10h33.55.460,t1_Paradigm,04.01.2021,59.99341786
Z,right,Target,0,30,30,30,692.6634959,694.6631741,right,1,1,0.425350942,L08B02,2022-10-21_10h33.55.460,t1_Paradigm,04.01.2021,59.99341786
T,left,Distractor,0,31,31,31,696.1630923,698.1637143,left,1,1,0.499363208,L08B02,2022-10-21_10h33.55.460,t1_Paradigm,04.01.2021,59.99341786
Z,left,Lure,0,32,32,32,699.6625556,701.6623458,right,0,1,0.612263432,L08B02,2022-10-21_10h33.55.460,t1_Paradigm,04.01.2021,59.99341786
F,left,Distractor,0,33,33,33,703.1611017,705.1632854,left,1,1,0.473980058,L08B02,2022-10-21_10h33.55.460,t1_Paradigm,04.01.2021,59.99341786
Y,left,Pretarget,0,34,34,34,706.6607318,708.6611001,left,1,1,0.440853385,L08B02,2022-10-21_10h33.55.460,t1_Paradigm,04.01.2021,59.99341786
Y,right,Target,0,35,35,35,710.1606292,712.1601541,right,1,1,0.532871314,L08B02,2022-10-21_10h33.55.460,t1_Paradigm,04.01.2021,59.99341786
Y,right,Target,0,36,36,36,713.6599866,715.6596504,right,1,1,0.403732726,L08B02,2022-10-21_10h33.55.460,t1_Paradigm,04.01.2021,59.99341786
W,left,Distractor,0,37,37,37,717.1593585,719.1598965,left,1,1,0.490720798,L08B02,2022-10-21_10h33.55.460,t1_Paradigm,04.01.2021,59.99341786
Q,left,Distractor,0,38,38,38,720.6587624,722.6582591,left,1,1,0.460901916,L08B02,2022-10-21_10h33.55.460,t1_Paradigm,04.01.2021,59.99341786
P,left,Pretarget,0,39,39,39,724.15821,726.1581519,left,1,1,0.539921262,L08B02,2022-10-21_10h33.55.460,t1_Paradigm,04.01.2021,59.99341786
P,right,Target,0,40,40,40,727.6577166,729.6573057,right,1,1,0.468465469,L08B02,2022-10-21_10h33.55.460,t1_Paradigm,04.01.2021,59.99341786
J,left,Distractor,0,41,41,41,731.1570859,733.1578635,left,1,1,0.615904858,L08B02,2022-10-21_10h33.55.460,t1_Paradigm,04.01.2021,59.99341786
P,left,Lure,0,42,42,42,734.6565043,736.65797,right,0,1,0.992614493,L08B02,2022-10-21_10h33.55.460,t1_Paradigm,04.01.2021,59.99341786
L,left,Distractor,0,43,43,43,738.1560314,740.1563583,left,1,1,0.449242682,L08B02,2022-10-21_10h33.55.460,t1_Paradigm,04.01.2021,59.99341786
Z,left,Distractor,0,44,44,44,741.6553776,743.6570686,left,1,1,0.461929445,L08B02,2022-10-21_10h33.55.460,t1_Paradigm,04.01.2021,59.99341786
F,left,Pretarget,0,45,45,45,745.1547845,747.1560731,left,1,1,0.456164951,L08B02,2022-10-21_10h33.55.460,t1_Paradigm,04.01.2021,59.99341786
F,right,Target,0,46,46,46,748.6542301,750.6538176,right,1,1,0.451362222,L08B02,2022-10-21_10h33.55.460,t1_Paradigm,04.01.2021,59.99341786
G,left,Pretarget,0,47,47,47,752.1534868,754.1536312,left,1,1,0.46923411,L08B02,2022-10-21_10h33.55.460,t1_Paradigm,04.01.2021,59.99341786
G,right,Target,0,48,48,48,755.6528417,757.6525998,right,1,1,0.618303496,L08B02,2022-10-21_10h33.55.460,t1_Paradigm,04.01.2021,59.99341786
V,left,Distractor,0,49,49,49,759.1518398,761.1522043,left,1,1,0.42440233,L08B02,2022-10-21_10h33.55.460,t1_Paradigm,04.01.2021,59.99341786
G,left,Lure,0,50,50,50,762.6518575,764.6529889,left,1,1,0.433191667,L08B02,2022-10-21_10h33.55.460,t1_Paradigm,04.01.2021,59.99341786
Q,left,Pretarget,0,51,51,51,766.1512271,768.1528035,left,1,1,0.4797237,L08B02,2022-10-21_10h33.55.460,t1_Paradigm,04.01.2021,59.99341786
Q,right,Target,0,52,52,52,769.6505229,771.6503298,right,1,1,0.41031334,L08B02,2022-10-21_10h33.55.460,t1_Paradigm,04.01.2021,59.99341786
Y,left,Distractor,0,53,53,53,773.1502705,775.149923,left,1,1,0.440442117,L08B02,2022-10-21_10h33.55.460,t1_Paradigm,04.01.2021,59.99341786
V,left,Distractor,0,54,54,54,776.6493818,778.6513436,left,1,1,0.579491567,L08B02,2022-10-21_10h33.55.460,t1_Paradigm,04.01.2021,59.99341786
B,left,Distractor,0,55,55,55,780.1654797,782.1663382,left,1,1,0.411350173,L08B02,2022-10-21_10h33.55.460,t1_Paradigm,04.01.2021,59.99341786
J,left,Pretarget,0,56,56,56,783.6649879,785.6660581,left,1,1,0.449002401,L08B02,2022-10-21_10h33.55.460,t1_Paradigm,04.01.2021,59.99341786
J,right,Target,0,57,57,57,787.1643816,789.1640181,right,1,1,0.387067053,L08B02,2022-10-21_10h33.55.460,t1_Paradigm,04.01.2021,59.99341786
H,left,Distractor,0,58,58,58,790.6637618,792.6648593,left,1,1,0.420394227,L08B02,2022-10-21_10h33.55.460,t1_Paradigm,04.01.2021,59.99341786
J,left,Lure,0,59,59,59,794.1632559,796.1643617,left,1,1,0.552882953,L08B02,2022-10-21_10h33.55.460,t1_Paradigm,04.01.2021,59.99341786
D,left,Pretarget,0,60,60,60,797.662143,799.6645298,left,1,1,0.578716509,L08B02,2022-10-21_10h33.55.460,t1_Paradigm,04.01.2021,59.99341786
D,right,Target,0,61,61,61,801.1620138,803.161683,right,1,1,0.366803906,L08B02,2022-10-21_10h33.55.460,t1_Paradigm,04.01.2021,59.99341786
R,left,Distractor,0,62,62,62,804.661547,806.6616538,left,1,1,0.433565081,L08B02,2022-10-21_10h33.55.460,t1_Paradigm,04.01.2021,59.99341786
F,left,Distractor,0,63,63,63,808.1608909,810.1610863,left,1,1,0.525635301,L08B02,2022-10-21_10h33.55.460,t1_Paradigm,04.01.2021,59.99341786
F,left,Distractor,0,0,0,0,908.2890508,910.2764975,None,0,2,,L08B02,2022-10-21_10h33.55.460,t1_Paradigm,04.01.2021,59.99341786
N,left,Pretarget,0,1,1,1,911.7768455,913.7780899,None,0,2,,L08B02,2022-10-21_10h33.55.460,t1_Paradigm,04.01.2021,59.99341786
V,left,Distractor,0,2,2,2,915.276287,917.2776902,left,1,2,0.640206584,L08B02,2022-10-21_10h33.55.460,t1_Paradigm,04.01.2021,59.99341786
N,right,Target,0,3,3,3,918.7757208,920.7755851,right,1,2,0.916991158,L08B02,2022-10-21_10h33.55.460,t1_Paradigm,04.01.2021,59.99341786
N,left,Lure,0,4,4,4,922.2751023,924.2748463,left,1,2,0.849758725,L08B02,2022-10-21_10h33.55.460,t1_Paradigm,04.01.2021,59.99341786
X,left,Distractor,0,5,5,5,925.7744953,927.7755652,left,1,2,1.258955353,L08B02,2022-10-21_10h33.55.460,t1_Paradigm,04.01.2021,59.99341786
G,left,Pretarget,0,6,6,6,929.2739083,931.2753833,left,1,2,0.95010949,L08B02,2022-10-21_10h33.55.460,t1_Paradigm,04.01.2021,59.99341786
H,left,Pretarget,0,7,7,7,932.7734181,934.7740067,left,1,2,0.753049064,L08B02,2022-10-21_10h33.55.460,t1_Paradigm,04.01.2021,59.99341786
G,right,Target,0,8,8,8,936.2726648,938.2736359,right,1,2,0.440835099,L08B02,2022-10-21_10h33.55.460,t1_Paradigm,04.01.2021,59.99341786
H,right,Target,0,9,9,9,939.7720258,941.7720999,right,1,2,0.704627186,L08B02,2022-10-21_10h33.55.460,t1_Paradigm,04.01.2021,59.99341786
T,left,Pretarget,0,10,10,10,943.2714471,945.2724268,left,1,2,0.567317125,L08B02,2022-10-21_10h33.55.460,t1_Paradigm,04.01.2021,59.99341786
K,left,Distractor,0,11,11,11,946.7707525,948.7725744,left,1,2,1.066490739,L08B02,2022-10-21_10h33.55.460,t1_Paradigm,04.01.2021,59.99341786
T,right,Target,0,12,12,12,950.2702672,952.2718147,right,1,2,0.746599016,L08B02,2022-10-21_10h33.55.460,t1_Paradigm,04.01.2021,59.99341786
T,left,Lure,0,13,13,13,953.7699207,955.7695425,left,1,2,1.235738259,L08B02,2022-10-21_10h33.55.460,t1_Paradigm,04.01.2021,59.99341786
J,left,Distractor,0,14,14,14,957.269375,959.2704911,left,1,2,0.921912263,L08B02,2022-10-21_10h33.55.460,t1_Paradigm,04.01.2021,59.99341786
Q,left,Pretarget,0,15,15,15,960.7687462,962.7691171,left,1,2,1.055308538,L08B02,2022-10-21_10h33.55.460,t1_Paradigm,04.01.2021,59.99341786
M,left,Distractor,0,16,16,16,964.2681611,966.2696958,left,1,2,1.191012663,L08B02,2022-10-21_10h33.55.460,t1_Paradigm,04.01.2021,59.99341786
Q,right,Target,0,17,17,17,967.7674996,969.7691132,right,1,2,0.88270254,L08B02,2022-10-21_10h33.55.460,t1_Paradigm,04.01.2021,59.99341786
R,left,Distractor,0,18,18,18,971.2669173,973.2664201,left,1,2,0.980861906,L08B02,2022-10-21_10h33.55.460,t1_Paradigm,04.01.2021,59.99341786
W,left,Distractor,0,19,19,19,974.7663967,976.7678432,left,1,2,0.907558612,L08B02,2022-10-21_10h33.55.460,t1_Paradigm,04.01.2021,59.99341786
C,left,Pretarget,0,20,20,20,978.2657259,980.267677,left,1,2,1.097200167,L08B02,2022-10-21_10h33.55.460,t1_Paradigm,04.01.2021,59.99341786
T,left,Distractor,0,21,21,21,981.7650795,983.7668952,left,1,2,1.16068916,L08B02,2022-10-21_10h33.55.460,t1_Paradigm,04.01.2021,59.99341786
C,right,Target,0,22,22,22,985.2649499,987.2648725,right,1,2,0.97656829,L08B02,2022-10-21_10h33.55.460,t1_Paradigm,04.01.2021,59.99341786
F,left,Pretarget,0,23,23,23,988.7641562,990.765066,left,1,2,1.083714607,L08B02,2022-10-21_10h33.55.460,t1_Paradigm,04.01.2021,59.99341786
C,right,Target,0,24,24,24,992.2634171,994.2651247,right,1,2,0.509619894,L08B02,2022-10-21_10h33.55.460,t1_Paradigm,04.01.2021,59.99341786
F,right,Target,0,25,25,25,995.7626651,997.7643843,right,1,2,1.140853321,L08B02,2022-10-21_10h33.55.460,t1_Paradigm,04.01.2021,59.99341786
H,left,Distractor,0,26,26,26,999.2622676,1001.263371,left,1,2,0.95969185,L08B02,2022-10-21_10h33.55.460,t1_Paradigm,04.01.2021,59.99341786
H,left,Lure,0,27,27,27,1002.761629,1004.761346,left,1,2,1.110438068,L08B02,2022-10-21_10h33.55.460,t1_Paradigm,04.01.2021,59.99341786
P,left,Distractor,0,28,28,28,1006.261098,1008.26188,left,1,2,1.315453104,L08B02,2022-10-21_10h33.55.460,t1_Paradigm,04.01.2021,59.99341786
G,left,Pretarget,0,29,29,29,1009.777233,1011.778391,left,1,2,1.276018178,L08B02,2022-10-21_10h33.55.460,t1_Paradigm,04.01.2021,59.99341786
K,left,Distractor,0,30,30,30,1013.276608,1015.276592,left,1,2,1.063098898,L08B02,2022-10-21_10h33.55.460,t1_Paradigm,04.01.2021,59.99341786
G,right,Target,0,31,31,31,1016.775917,1018.777853,right,1,2,0.769395538,L08B02,2022-10-21_10h33.55.460,t1_Paradigm,04.01.2021,59.99341786
M,left,Pretarget,0,32,32,32,1020.275344,1022.276571,left,1,2,1.045933095,L08B02,2022-10-21_10h33.55.460,t1_Paradigm,04.01.2021,59.99341786
B,left,Distractor,0,33,33,33,1023.775261,1025.776484,left,1,2,0.981771059,L08B02,2022-10-21_10h33.55.460,t1_Paradigm,04.01.2021,59.99341786
M,right,Target,0,34,34,34,1027.2743,1029.275535,right,1,2,0.576127956,L08B02,2022-10-21_10h33.55.460,t1_Paradigm,04.01.2021,59.99341786
M,left,Lure,0,35,35,35,1030.773599,1032.773309,left,1,2,1.359897356,L08B02,2022-10-21_10h33.55.460,t1_Paradigm,04.01.2021,59.99341786
T,left,Distractor,0,36,36,36,1034.273104,1036.274444,left,1,2,1.02542325,L08B02,2022-10-21_10h33.55.460,t1_Paradigm,04.01.2021,59.99341786
F,left,Distractor,0,37,37,37,1037.772412,1039.772689,left,1,2,1.029061788,L08B02,2022-10-21_10h33.55.460,t1_Paradigm,04.01.2021,59.99341786
X,left,Distractor,0,38,38,38,1041.271943,1043.273375,None,0,2,,L08B02,2022-10-21_10h33.55.460,t1_Paradigm,04.01.2021,59.99341786
C,left,Distractor,0,39,39,39,1044.771343,1046.772893,left,1,2,1.015263446,L08B02,2022-10-21_10h33.55.460,t1_Paradigm,04.01.2021,59.99341786
R,left,Distractor,0,40,40,40,1048.270707,1050.270425,left,1,2,0.962500794,L08B02,2022-10-21_10h33.55.460,t1_Paradigm,04.01.2021,59.99341786
B,left,Pretarget,0,41,41,41,1051.770207,1053.770495,left,1,2,1.38045885,L08B02,2022-10-21_10h33.55.460,t1_Paradigm,04.01.2021,59.99341786
H,left,Distractor,0,42,42,42,1055.269218,1057.271028,left,1,2,1.226131838,L08B02,2022-10-21_10h33.55.460,t1_Paradigm,04.01.2021,59.99341786
B,right,Target,0,43,43,43,1058.769003,1060.770122,right,1,2,0.861700906,L08B02,2022-10-21_10h33.55.460,t1_Paradigm,04.01.2021,59.99341786
W,left,Pretarget,0,44,44,44,1062.26829,1064.268842,left,1,2,0.954100589,L08B02,2022-10-21_10h33.55.460,t1_Paradigm,04.01.2021,59.99341786
L,left,Pretarget,0,45,45,45,1065.767817,1067.769093,left,1,2,1.119067325,L08B02,2022-10-21_10h33.55.460,t1_Paradigm,04.01.2021,59.99341786
W,right,Target,0,46,46,46,1069.267234,1071.268241,right,1,2,1.048289066,L08B02,2022-10-21_10h33.55.460,t1_Paradigm,04.01.2021,59.99341786
L,right,Target,0,47,47,47,1072.766687,1074.766597,right,1,2,0.945444706,L08B02,2022-10-21_10h33.55.460,t1_Paradigm,04.01.2021,59.99341786
W,right,Target,0,48,48,48,1076.265953,1078.266862,right,1,2,0.612063573,L08B02,2022-10-21_10h33.55.460,t1_Paradigm,04.01.2021,59.99341786
X,left,Distractor,0,49,49,49,1079.765383,1081.766339,left,1,2,0.687611198,L08B02,2022-10-21_10h33.55.460,t1_Paradigm,04.01.2021,59.99341786
R,left,Distractor,0,50,50,50,1083.26481,1085.266425,left,1,2,0.76265741,L08B02,2022-10-21_10h33.55.460,t1_Paradigm,04.01.2021,59.99341786
V,left,Pretarget,0,51,51,51,1086.764357,1088.7641,left,1,2,0.872606254,L08B02,2022-10-21_10h33.55.460,t1_Paradigm,04.01.2021,59.99341786
Z,left,Distractor,0,52,52,52,1090.263662,1092.264132,left,1,2,0.74780459,L08B02,2022-10-21_10h33.55.460,t1_Paradigm,04.01.2021,59.99341786
V,right,Target,0,53,53,53,1093.762382,1095.764704,right,1,2,1.450891285,L08B02,2022-10-21_10h33.55.460,t1_Paradigm,04.01.2021,59.99341786
V,left,Lure,0,54,54,54,1097.262568,1099.261964,None,0,2,,L08B02,2022-10-21_10h33.55.460,t1_Paradigm,04.01.2021,59.99341786
N,left,Distractor,0,55,55,55,1100.761875,1102.763115,left,1,2,0.815264793,L08B02,2022-10-21_10h33.55.460,t1_Paradigm,04.01.2021,59.99341786
B,left,Distractor,0,56,56,56,1104.261404,1106.262764,left,1,2,1.01305761,L08B02,2022-10-21_10h33.55.460,t1_Paradigm,04.01.2021,59.99341786
V,left,Lure,0,57,57,57,1107.777458,1109.777927,left,1,2,1.027820926,L08B02,2022-10-21_10h33.55.460,t1_Paradigm,04.01.2021,59.99341786
J,left,Distractor,0,58,58,58,1111.27651,1113.276725,left,1,2,1.022705094,L08B02,2022-10-21_10h33.55.460,t1_Paradigm,04.01.2021,59.99341786
H,left,Distractor,0,59,59,59,1114.776223,1116.776386,left,1,2,1.020560531,L08B02,2022-10-21_10h33.55.460,t1_Paradigm,04.01.2021,59.99341786
X,left,Pretarget,0,60,60,60,1118.275673,1120.277372,left,1,2,1.062101524,L08B02,2022-10-21_10h33.55.460,t1_Paradigm,04.01.2021,59.99341786
P,left,Distractor,0,61,61,61,1121.775162,1123.775964,left,1,2,0.983309305,L08B02,2022-10-21_10h33.55.460,t1_Paradigm,04.01.2021,59.99341786
X,right,Target,0,62,62,62,1125.274159,1127.275731,right,1,2,0.838552784,L08B02,2022-10-21_10h33.55.460,t1_Paradigm,04.01.2021,59.99341786
Q,left,Distractor,0,63,63,63,1128.773928,1130.775728,left,1,2,0.815306498,L08B02,2022-10-21_10h33.55.460,t1_Paradigm,04.01.2021,59.99341786
B,left,Pretarget,0,0,0,0,1149.077037,1151.072398,None,0,2,,L08B02,2022-10-21_10h33.55.460,t1_Paradigm,04.01.2021,59.99341786
F,left,Distractor,0,1,1,1,1152.569255,1154.571055,None,0,2,,L08B02,2022-10-21_10h33.55.460,t1_Paradigm,04.01.2021,59.99341786
B,right,Target,0,2,2,2,1156.06939,1158.071263,right,1,2,0.698529058,L08B02,2022-10-21_10h33.55.460,t1_Paradigm,04.01.2021,59.99341786
V,left,Distractor,0,3,3,3,1159.568801,1161.569951,left,1,2,0.733914178,L08B02,2022-10-21_10h33.55.460,t1_Paradigm,04.01.2021,59.99341786
G,left,Pretarget,0,4,4,4,1163.068176,1165.069364,left,1,2,0.874985323,L08B02,2022-10-21_10h33.55.460,t1_Paradigm,04.01.2021,59.99341786
B,left,Lure,0,5,5,5,1166.567625,1168.566625,left,1,2,1.079415858,L08B02,2022-10-21_10h33.55.460,t1_Paradigm,04.01.2021,59.99341786
G,right,Target,0,6,6,6,1170.067082,1172.068214,right,1,2,0.834299589,L08B02,2022-10-21_10h33.55.460,t1_Paradigm,04.01.2021,59.99341786
Y,left,Pretarget,0,7,7,7,1173.566441,1175.567228,left,1,2,0.59211834,L08B02,2022-10-21_10h33.55.460,t1_Paradigm,04.01.2021,59.99341786
P,left,Distractor,0,8,8,8,1177.065816,1179.066514,left,1,2,0.782141329,L08B02,2022-10-21_10h33.55.460,t1_Paradigm,04.01.2021,59.99341786
Y,right,Target,0,9,9,9,1180.565271,1182.564101,right,1,2,0.769755799,L08B02,2022-10-21_10h33.55.460,t1_Paradigm,04.01.2021,59.99341786
X,left,Distractor,0,10,10,10,1184.064648,1186.064657,left,1,2,0.636629319,L08B02,2022-10-21_10h33.55.460,t1_Paradigm,04.01.2021,59.99341786
Y,right,Target,0,11,11,11,1187.564083,1189.565605,right,1,2,0.89804362,L08B02,2022-10-21_10h33.55.460,t1_Paradigm,04.01.2021,59.99341786
N,left,Distractor,0,12,12,12,1191.062889,1193.064591,left,1,2,1.060344169,L08B02,2022-10-21_10h33.55.460,t1_Paradigm,04.01.2021,59.99341786
Y,right,Target,0,13,13,13,1194.562787,1196.564338,right,1,2,0.670188112,L08B02,2022-10-21_10h33.55.460,t1_Paradigm,04.01.2021,59.99341786
Y,left,Lure,0,14,14,14,1198.062298,1200.061659,left,1,2,0.984464835,L08B02,2022-10-21_10h33.55.460,t1_Paradigm,04.01.2021,59.99341786
K,left,Distractor,0,15,15,15,1201.561762,1203.563295,None,0,2,,L08B02,2022-10-21_10h33.55.460,t1_Paradigm,04.01.2021,59.99341786
T,left,Pretarget,0,16,16,16,1205.06147,1207.06079,left,1,2,0.99733638,L08B02,2022-10-21_10h33.55.460,t1_Paradigm,04.01.2021,59.99341786
J,left,Distractor,0,17,17,17,1208.56043,1210.562086,left,1,2,0.960946508,L08B02,2022-10-21_10h33.55.460,t1_Paradigm,04.01.2021,59.99341786
T,right,Target,0,18,18,18,1212.060022,1214.060378,right,1,2,1.249682566,L08B02,2022-10-21_10h33.55.460,t1_Paradigm,04.01.2021,59.99341786
S,left,Pretarget,0,19,19,19,1215.559367,1217.56094,left,1,2,0.703987186,L08B02,2022-10-21_10h33.55.460,t1_Paradigm,04.01.2021,59.99341786
R,left,Distractor,0,20,20,20,1219.058787,1221.058842,left,1,2,0.773385996,L08B02,2022-10-21_10h33.55.460,t1_Paradigm,04.01.2021,59.99341786
S,right,Target,0,21,21,21,1222.558441,1224.558477,right,1,2,0.522794277,L08B02,2022-10-21_10h33.55.460,t1_Paradigm,04.01.2021,59.99341786
Q,left,Distractor,0,22,22,22,1226.057745,1228.058925,left,1,2,0.784977541,L08B02,2022-10-21_10h33.55.460,t1_Paradigm,04.01.2021,59.99341786
D,left,Distractor,0,23,23,23,1229.557305,1231.559156,left,1,2,1.194675582,L08B02,2022-10-21_10h33.55.460,t1_Paradigm,04.01.2021,59.99341786
F,left,Distractor,0,24,24,24,1233.056801,1235.056389,left,1,2,0.978884481,L08B02,2022-10-21_10h33.55.460,t1_Paradigm,04.01.2021,59.99341786
Z,left,Distractor,0,25,25,25,1236.555869,1238.557351,left,1,2,0.885458872,L08B02,2022-10-21_10h33.55.460,t1_Paradigm,04.01.2021,59.99341786
P,left,Distractor,0,26,26,26,1240.055499,1242.055977,left,1,2,1.100859236,L08B02,2022-10-21_10h33.55.460,t1_Paradigm,04.01.2021,59.99341786
H,left,Distractor,0,27,27,27,1243.571204,1245.572201,left,1,2,0.992714583,L08B02,2022-10-21_10h33.55.460,t1_Paradigm,04.01.2021,59.99341786
Z,left,Pretarget,0,28,28,28,1247.070808,1249.070298,left,1,2,1.314892342,L08B02,2022-10-21_10h33.55.460,t1_Paradigm,04.01.2021,59.99341786
J,left,Pretarget,0,29,29,29,1250.570089,1252.572175,None,0,2,,L08B02,2022-10-21_10h33.55.460,t1_Paradigm,04.01.2021,59.99341786
Z,right,Target,0,30,30,30,1254.0698,1256.069579,right,1,2,0.71934591,L08B02,2022-10-21_10h33.55.460,t1_Paradigm,04.01.2021,59.99341786
J,right,Target,0,31,31,31,1257.569129,1259.570169,right,1,2,1.059174846,L08B02,2022-10-21_10h33.55.460,t1_Paradigm,04.01.2021,59.99341786
V,left,Pretarget,0,32,32,32,1261.06817,1263.070556,left,1,2,0.852245583,L08B02,2022-10-21_10h33.55.460,t1_Paradigm,04.01.2021,59.99341786
Z,left,Lure,0,33,33,33,1264.567942,1266.569075,left,1,2,1.092151703,L08B02,2022-10-21_10h33.55.460,t1_Paradigm,04.01.2021,59.99341786
V,right,Target,0,34,34,34,1268.067259,1270.067869,right,1,2,0.605461464,L08B02,2022-10-21_10h33.55.460,t1_Paradigm,04.01.2021,59.99341786
X,left,Distractor,0,35,35,35,1271.566786,1273.568036,left,1,2,0.774896974,L08B02,2022-10-21_10h33.55.460,t1_Paradigm,04.01.2021,59.99341786
S,left,Distractor,0,36,36,36,1275.066189,1277.067316,left,1,2,1.119967175,L08B02,2022-10-21_10h33.55.460,t1_Paradigm,04.01.2021,59.99341786
Q,left,Distractor,0,37,37,37,1278.565456,1280.566593,left,1,2,0.819968715,L08B02,2022-10-21_10h33.55.460,t1_Paradigm,04.01.2021,59.99341786
P,left,Distractor,0,38,38,38,1282.065038,1284.066309,left,1,2,1.124313724,L08B02,2022-10-21_10h33.55.460,t1_Paradigm,04.01.2021,59.99341786
S,left,Lure,0,39,39,39,1285.564372,1287.566151,left,1,2,0.873089383,L08B02,2022-10-21_10h33.55.460,t1_Paradigm,04.01.2021,59.99341786
K,left,Pretarget,0,40,40,40,1289.063989,1291.065366,left,1,2,1.161281682,L08B02,2022-10-21_10h33.55.460,t1_Paradigm,04.01.2021,59.99341786
L,left,Distractor,0,41,41,41,1292.563532,1294.563959,left,1,2,0.985019822,L08B02,2022-10-21_10h33.55.460,t1_Paradigm,04.01.2021,59.99341786
K,right,Target,0,42,42,42,1296.062698,1298.062537,right,1,2,1.196420105,L08B02,2022-10-21_10h33.55.460,t1_Paradigm,04.01.2021,59.99341786
B,left,Distractor,0,43,43,43,1299.562123,1301.574185,left,1,2,0.900635702,L08B02,2022-10-21_10h33.55.460,t1_Paradigm,04.01.2021,59.99341786
N,left,Distractor,0,44,44,44,1303.061553,1305.062111,left,1,2,0.955282104,L08B02,2022-10-21_10h33.55.460,t1_Paradigm,04.01.2021,59.99341786
S,left,Pretarget,0,45,45,45,1306.560841,1308.560969,None,0,2,,L08B02,2022-10-21_10h33.55.460,t1_Paradigm,04.01.2021,59.99341786
Z,left,Distractor,0,46,46,46,1310.060114,1312.059958,left,1,2,1.275114157,L08B02,2022-10-21_10h33.55.460,t1_Paradigm,04.01.2021,59.99341786
S,right,Target,0,47,47,47,1313.559721,1315.558736,right,1,2,1.12296443,L08B02,2022-10-21_10h33.55.460,t1_Paradigm,04.01.2021,59.99341786
C,left,Distractor,0,48,48,48,1317.05901,1319.059435,left,1,2,1.197363263,L08B02,2022-10-21_10h33.55.460,t1_Paradigm,04.01.2021,59.99341786
T,left,Pretarget,0,49,49,49,1320.55861,1322.56042,left,1,2,1.067677386,L08B02,2022-10-21_10h33.55.460,t1_Paradigm,04.01.2021,59.99341786
S,left,Lure,0,50,50,50,1324.058096,1326.058722,left,1,2,1.397741425,L08B02,2022-10-21_10h33.55.460,t1_Paradigm,04.01.2021,59.99341786
T,right,Target,0,51,51,51,1327.557313,1329.558362,right,1,2,0.877707971,L08B02,2022-10-21_10h33.55.460,t1_Paradigm,04.01.2021,59.99341786
N,left,Pretarget,0,52,52,52,1331.056873,1333.058118,left,1,2,0.699924547,L08B02,2022-10-21_10h33.55.460,t1_Paradigm,04.01.2021,59.99341786
B,left,Distractor,0,53,53,53,1334.556232,1336.55713,left,1,2,1.205006054,L08B02,2022-10-21_10h33.55.460,t1_Paradigm,04.01.2021,59.99341786
N,right,Target,0,54,54,54,1338.056032,1340.055482,right,1,2,0.792229594,L08B02,2022-10-21_10h33.55.460,t1_Paradigm,04.01.2021,59.99341786
N,left,Lure,0,55,55,55,1341.554999,1343.554915,None,0,2,,L08B02,2022-10-21_10h33.55.460,t1_Paradigm,04.01.2021,59.99341786
X,left,Distractor,0,56,56,56,1345.054581,1347.054333,left,1,2,1.319193978,L08B02,2022-10-21_10h33.55.460,t1_Paradigm,04.01.2021,59.99341786
W,left,Distractor,0,57,57,57,1348.553629,1350.55446,left,1,2,1.141398685,L08B02,2022-10-21_10h33.55.460,t1_Paradigm,04.01.2021,59.99341786
S,left,Distractor,0,58,58,58,1352.06994,1354.071417,left,1,2,0.918058467,L08B02,2022-10-21_10h33.55.460,t1_Paradigm,04.01.2021,59.99341786
L,left,Distractor,0,59,59,59,1355.569408,1357.571479,left,1,2,1.131812474,L08B02,2022-10-21_10h33.55.460,t1_Paradigm,04.01.2021,59.99341786
K,left,Pretarget,0,60,60,60,1359.068814,1361.069601,left,1,2,0.992755004,L08B02,2022-10-21_10h33.55.460,t1_Paradigm,04.01.2021,59.99341786
V,left,Pretarget,0,61,61,61,1362.567982,1364.569493,left,1,2,0.978478025,L08B02,2022-10-21_10h33.55.460,t1_Paradigm,04.01.2021,59.99341786
K,right,Target,0,62,62,62,1366.067606,1368.06811,right,1,2,0.736739482,L08B02,2022-10-21_10h33.55.460,t1_Paradigm,04.01.2021,59.99341786
V,right,Target,0,63,63,63,1369.56702,1371.568021,right,1,2,0.648704312,L08B02,2022-10-21_10h33.55.460,t1_Paradigm,04.01.2021,59.99341786
R,left,Distractor,0,0,0,0,1439.979879,1441.973327,None,0,3,,L08B02,2022-10-21_10h33.55.460,t1_Paradigm,04.01.2021,59.99341786
P,left,Lure,0,1,1,1,1443.471213,1445.4726,None,0,3,,L08B02,2022-10-21_10h33.55.460,t1_Paradigm,04.01.2021,59.99341786
V,left,Distractor,0,2,2,2,1446.970741,1448.971782,None,0,3,,L08B02,2022-10-21_10h33.55.460,t1_Paradigm,04.01.2021,59.99341786
P,left,Pretarget,0,3,3,3,1450.470198,1452.471202,None,0,3,,L08B02,2022-10-21_10h33.55.460,t1_Paradigm,04.01.2021,59.99341786
Z,left,Distractor,0,4,4,4,1453.96961,1455.970089,left,1,3,1.129578408,L08B02,2022-10-21_10h33.55.460,t1_Paradigm,04.01.2021,59.99341786
L,left,Pretarget,0,5,5,5,1457.469044,1459.46949,left,1,3,0.907366131,L08B02,2022-10-21_10h33.55.460,t1_Paradigm,04.01.2021,59.99341786
P,right,Target,0,6,6,6,1460.968464,1462.970104,right,1,3,0.664146445,L08B02,2022-10-21_10h33.55.460,t1_Paradigm,04.01.2021,59.99341786
S,left,Distractor,0,7,7,7,1464.467873,1466.46729,left,1,3,0.774441115,L08B02,2022-10-21_10h33.55.460,t1_Paradigm,04.01.2021,59.99341786
L,right,Target,0,8,8,8,1467.967313,1469.967735,right,1,3,0.735071632,L08B02,2022-10-21_10h33.55.460,t1_Paradigm,04.01.2021,59.99341786
D,left,Distractor,0,9,9,9,1471.466679,1473.467868,left,1,3,1.083674827,L08B02,2022-10-21_10h33.55.460,t1_Paradigm,04.01.2021,59.99341786
G,left,Distractor,0,10,10,10,1474.965879,1476.968264,left,1,3,0.819737738,L08B02,2022-10-21_10h33.55.460,t1_Paradigm,04.01.2021,59.99341786
M,left,Pretarget,0,11,11,11,1478.465537,1480.477868,left,1,3,1.016317602,L08B02,2022-10-21_10h33.55.460,t1_Paradigm,04.01.2021,59.99341786
Y,left,Distractor,0,12,12,12,1481.964868,1483.965478,left,1,3,0.838688484,L08B02,2022-10-21_10h33.55.460,t1_Paradigm,04.01.2021,59.99341786
V,left,Distractor,0,13,13,13,1485.464427,1487.466132,left,1,3,1.00343547,L08B02,2022-10-21_10h33.55.460,t1_Paradigm,04.01.2021,59.99341786
M,right,Target,0,14,14,14,1488.963712,1490.964921,right,1,3,0.692315762,L08B02,2022-10-21_10h33.55.460,t1_Paradigm,04.01.2021,59.99341786
S,left,Pretarget,0,15,15,15,1492.4632,1494.464711,left,1,3,1.06219616,L08B02,2022-10-21_10h33.55.460,t1_Paradigm,04.01.2021,59.99341786
Q,left,Distractor,0,16,16,16,1495.962539,1497.963283,left,1,3,0.869611887,L08B02,2022-10-21_10h33.55.460,t1_Paradigm,04.01.2021,59.99341786
R,left,Pretarget,0,17,17,17,1499.461902,1501.461609,left,1,3,1.077088438,L08B02,2022-10-21_10h33.55.460,t1_Paradigm,04.01.2021,59.99341786
S,right,Target,0,18,18,18,1502.961456,1504.962183,right,1,3,0.747978144,L08B02,2022-10-21_10h33.55.460,t1_Paradigm,04.01.2021,59.99341786
F,left,Distractor,0,19,19,19,1506.460839,1508.462112,left,1,3,0.908588066,L08B02,2022-10-21_10h33.55.460,t1_Paradigm,04.01.2021,59.99341786
R,right,Target,0,20,20,20,1509.960264,1511.96179,left,0,3,1.12312451,L08B02,2022-10-21_10h33.55.460,t1_Paradigm,04.01.2021,59.99341786
P,left,Distractor,0,21,21,21,1513.45886,1515.462253,None,0,3,,L08B02,2022-10-21_10h33.55.460,t1_Paradigm,04.01.2021,59.99341786
L,left,Distractor,0,22,22,22,1516.959009,1518.960238,left,1,3,0.769133764,L08B02,2022-10-21_10h33.55.460,t1_Paradigm,04.01.2021,59.99341786
R,right,Target,0,23,23,23,1520.458454,1522.460564,right,1,3,1.195403482,L08B02,2022-10-21_10h33.55.460,t1_Paradigm,04.01.2021,59.99341786
H,left,Pretarget,0,24,24,24,1523.957823,1525.959042,left,1,3,1.031627243,L08B02,2022-10-21_10h33.55.460,t1_Paradigm,04.01.2021,59.99341786
G,left,Pretarget,0,25,25,25,1527.457276,1529.458051,left,1,3,0.850638043,L08B02,2022-10-21_10h33.55.460,t1_Paradigm,04.01.2021,59.99341786
T,left,Distractor,0,26,26,26,1530.956894,1532.958644,left,1,3,1.060283217,L08B02,2022-10-21_10h33.55.460,t1_Paradigm,04.01.2021,59.99341786
H,right,Target,0,27,27,27,1534.456182,1536.457828,left,0,3,0.577079456,L08B02,2022-10-21_10h33.55.460,t1_Paradigm,04.01.2021,59.99341786
G,right,Target,0,28,28,28,1537.972182,1539.974328,None,0,3,,L08B02,2022-10-21_10h33.55.460,t1_Paradigm,04.01.2021,59.99341786
D,left,Distractor,0,29,29,29,1541.471567,1543.471579,left,1,3,1.052485479,L08B02,2022-10-21_10h33.55.460,t1_Paradigm,04.01.2021,59.99341786
N,left,Pretarget,0,30,30,30,1544.971093,1546.972574,left,1,3,1.021062587,L08B02,2022-10-21_10h33.55.460,t1_Paradigm,04.01.2021,59.99341786
V,left,Distractor,0,31,31,31,1548.470411,1550.471293,left,1,3,1.326158272,L08B02,2022-10-21_10h33.55.460,t1_Paradigm,04.01.2021,59.99341786
R,left,Distractor,0,32,32,32,1551.970856,1553.971793,left,1,3,1.058245802,L08B02,2022-10-21_10h33.55.460,t1_Paradigm,04.01.2021,59.99341786
N,right,Target,0,33,33,33,1555.46935,1557.470829,left,0,3,1.036563747,L08B02,2022-10-21_10h33.55.460,t1_Paradigm,04.01.2021,59.99341786
Z,left,Distractor,0,34,34,34,1558.968689,1560.969497,left,1,3,0.900721677,L08B02,2022-10-21_10h33.55.460,t1_Paradigm,04.01.2021,59.99341786
N,left,Lure,0,35,35,35,1562.468102,1564.469653,left,1,3,1.172183501,L08B02,2022-10-21_10h33.55.460,t1_Paradigm,04.01.2021,59.99341786
Y,left,Pretarget,0,36,36,36,1565.967547,1567.96902,left,1,3,1.223583386,L08B02,2022-10-21_10h33.55.460,t1_Paradigm,04.01.2021,59.99341786
Y,left,Lure,0,37,37,37,1569.466786,1571.466659,None,0,3,,L08B02,2022-10-21_10h33.55.460,t1_Paradigm,04.01.2021,59.99341786
B,left,Distractor,0,38,38,38,1572.966318,1574.9672,None,0,3,,L08B02,2022-10-21_10h33.55.460,t1_Paradigm,04.01.2021,59.99341786
Y,right,Target,0,39,39,39,1576.465779,1578.467259,right,1,3,0.892339437,L08B02,2022-10-21_10h33.55.460,t1_Paradigm,04.01.2021,59.99341786
J,left,Distractor,0,40,40,40,1579.965192,1581.966736,left,1,3,0.813433013,L08B02,2022-10-21_10h33.55.460,t1_Paradigm,04.01.2021,59.99341786
X,left,Distractor,0,41,41,41,1583.464603,1585.466119,left,1,3,0.946704496,L08B02,2022-10-21_10h33.55.460,t1_Paradigm,04.01.2021,59.99341786
W,left,Pretarget,0,42,42,42,1586.963947,1588.96554,left,1,3,0.953096158,L08B02,2022-10-21_10h33.55.460,t1_Paradigm,04.01.2021,59.99341786
S,left,Pretarget,0,43,43,43,1590.463622,1592.465657,left,1,3,1.004215661,L08B02,2022-10-21_10h33.55.460,t1_Paradigm,04.01.2021,59.99341786
R,left,Distractor,0,44,44,44,1593.962824,1595.964334,left,1,3,1.130248564,L08B02,2022-10-21_10h33.55.460,t1_Paradigm,04.01.2021,59.99341786
W,right,Target,0,45,45,45,1597.462166,1599.464083,right,1,3,0.822160436,L08B02,2022-10-21_10h33.55.460,t1_Paradigm,04.01.2021,59.99341786
S,right,Target,0,46,46,46,1600.961819,1602.962295,right,1,3,0.679183084,L08B02,2022-10-21_10h33.55.460,t1_Paradigm,04.01.2021,59.99341786
D,left,Distractor,0,47,47,47,1604.461177,1606.460326,left,1,3,0.939724482,L08B02,2022-10-21_10h33.55.460,t1_Paradigm,04.01.2021,59.99341786
T,left,Distractor,0,48,48,48,1607.960492,1609.961625,left,1,3,0.765346694,L08B02,2022-10-21_10h33.55.460,t1_Paradigm,04.01.2021,59.99341786
S,right,Target,0,49,49,49,1611.459897,1613.460298,right,1,3,0.629782438,L08B02,2022-10-21_10h33.55.460,t1_Paradigm,04.01.2021,59.99341786
K,left,Distractor,0,50,50,50,1614.959409,1616.960631,left,1,3,1.162042304,L08B02,2022-10-21_10h33.55.460,t1_Paradigm,04.01.2021,59.99341786
S,left,Lure,0,51,51,51,1618.458774,1620.460309,right,0,3,0.960139048,L08B02,2022-10-21_10h33.55.460,t1_Paradigm,04.01.2021,59.99341786
T,left,Pretarget,0,52,52,52,1621.958193,1623.959566,left,1,3,1.15870532,L08B02,2022-10-21_10h33.55.460,t1_Paradigm,04.01.2021,59.99341786
V,left,Distractor,0,53,53,53,1625.457725,1627.457482,left,1,3,1.228213202,L08B02,2022-10-21_10h33.55.460,t1_Paradigm,04.01.2021,59.99341786
B,left,Distractor,0,54,54,54,1628.957069,1630.958998,left,1,3,1.367118292,L08B02,2022-10-21_10h33.55.460,t1_Paradigm,04.01.2021,59.99341786
T,right,Target,0,55,55,55,1632.456506,1634.45778,right,1,3,0.92537051,L08B02,2022-10-21_10h33.55.460,t1_Paradigm,04.01.2021,59.99341786
Y,left,Pretarget,0,56,56,56,1635.955863,1637.957902,left,1,3,0.81700322,L08B02,2022-10-21_10h33.55.460,t1_Paradigm,04.01.2021,59.99341786
T,left,Lure,0,57,57,57,1639.472148,1641.471878,right,0,3,0.637799284,L08B02,2022-10-21_10h33.55.460,t1_Paradigm,04.01.2021,59.99341786
P,left,Pretarget,0,58,58,58,1642.9715,1644.970534,left,1,3,1.204291306,L08B02,2022-10-21_10h33.55.460,t1_Paradigm,04.01.2021,59.99341786
Y,right,Target,0,59,59,59,1646.470799,1648.471676,right,1,3,0.935742686,L08B02,2022-10-21_10h33.55.460,t1_Paradigm,04.01.2021,59.99341786
R,left,Distractor,0,60,60,60,1649.970144,1651.971096,left,1,3,0.893891799,L08B02,2022-10-21_10h33.55.460,t1_Paradigm,04.01.2021,59.99341786
P,right,Target,0,61,61,61,1653.469554,1655.469262,right,1,3,0.963156834,L08B02,2022-10-21_10h33.55.460,t1_Paradigm,04.01.2021,59.99341786
L,left,Distractor,0,62,62,62,1656.968994,1658.970412,left,1,3,0.743309511,L08B02,2022-10-21_10h33.55.460,t1_Paradigm,04.01.2021,59.99341786
V,left,Distractor,0,63,63,63,1660.468242,1662.469108,left,1,3,0.848711947,L08B02,2022-10-21_10h33.55.460,t1_Paradigm,04.01.2021,59.99341786
H,left,Lure,0,0,0,0,1710.182876,1712.162099,None,0,3,,L08B02,2022-10-21_10h33.55.460,t1_Paradigm,04.01.2021,59.99341786
B,left,Distractor,0,1,1,1,1713.659584,1715.660847,None,0,3,,L08B02,2022-10-21_10h33.55.460,t1_Paradigm,04.01.2021,59.99341786
T,left,Distractor,0,2,2,2,1717.158845,1719.160727,None,0,3,,L08B02,2022-10-21_10h33.55.460,t1_Paradigm,04.01.2021,59.99341786
R,left,Distractor,0,3,3,3,1720.658295,1722.659708,left,1,3,0.914866806,L08B02,2022-10-21_10h33.55.460,t1_Paradigm,04.01.2021,59.99341786
H,left,Pretarget,0,4,4,4,1724.157837,1726.158996,left,1,3,0.73807434,L08B02,2022-10-21_10h33.55.460,t1_Paradigm,04.01.2021,59.99341786
K,left,Distractor,0,5,5,5,1727.657203,1729.65819,left,1,3,0.888175104,L08B02,2022-10-21_10h33.55.460,t1_Paradigm,04.01.2021,59.99341786
G,left,Distractor,0,6,6,6,1731.156539,1733.157317,left,1,3,0.744448679,L08B02,2022-10-21_10h33.55.460,t1_Paradigm,04.01.2021,59.99341786
H,right,Target,0,7,7,7,1734.656003,1736.655982,right,1,3,0.380227872,L08B02,2022-10-21_10h33.55.460,t1_Paradigm,04.01.2021,59.99341786
Y,left,Pretarget,0,8,8,8,1738.155453,1740.156976,left,1,3,1.083213193,L08B02,2022-10-21_10h33.55.460,t1_Paradigm,04.01.2021,59.99341786
S,left,Distractor,0,9,9,9,1741.654787,1743.654294,left,1,3,0.769941223,L08B02,2022-10-21_10h33.55.460,t1_Paradigm,04.01.2021,59.99341786
P,left,Distractor,0,10,10,10,1745.154141,1747.155864,left,1,3,0.913291026,L08B02,2022-10-21_10h33.55.460,t1_Paradigm,04.01.2021,59.99341786
Y,right,Target,0,11,11,11,1748.654218,1750.655255,None,0,3,,L08B02,2022-10-21_10h33.55.460,t1_Paradigm,04.01.2021,59.99341786
H,left,Lure,0,12,12,12,1752.153043,1754.155343,left,1,3,1.130522208,L08B02,2022-10-21_10h33.55.460,t1_Paradigm,04.01.2021,59.99341786
Q,left,Distractor,0,13,13,13,1755.652679,1757.654356,left,1,3,1.153704014,L08B02,2022-10-21_10h33.55.460,t1_Paradigm,04.01.2021,59.99341786
V,left,Pretarget,0,14,14,14,1759.152054,1761.15274,left,1,3,0.838776704,L08B02,2022-10-21_10h33.55.460,t1_Paradigm,04.01.2021,59.99341786
G,left,Distractor,0,15,15,15,1762.651328,1764.652107,left,1,3,1.151233516,L08B02,2022-10-21_10h33.55.460,t1_Paradigm,04.01.2021,59.99341786
Z,left,Pretarget,0,16,16,16,1766.150654,1768.151563,left,1,3,1.439602257,L08B02,2022-10-21_10h33.55.460,t1_Paradigm,04.01.2021,59.99341786
V,right,Target,0,17,17,17,1769.650127,1771.649616,None,0,3,,L08B02,2022-10-21_10h33.55.460,t1_Paradigm,04.01.2021,59.99341786
N,left,Distractor,0,18,18,18,1773.149441,1775.151156,left,1,3,1.117519134,L08B02,2022-10-21_10h33.55.460,t1_Paradigm,04.01.2021,59.99341786
Z,right,Target,0,19,19,19,1776.648975,1778.65017,right,1,3,1.178136306,L08B02,2022-10-21_10h33.55.460,t1_Paradigm,04.01.2021,59.99341786
R,left,Distractor,0,20,20,20,1780.148395,1782.14844,left,1,3,0.720555976,L08B02,2022-10-21_10h33.55.460,t1_Paradigm,04.01.2021,59.99341786
P,left,Distractor,0,21,21,21,1783.647753,1785.648293,left,1,3,1.008719403,L08B02,2022-10-21_10h33.55.460,t1_Paradigm,04.01.2021,59.99341786
Z,right,Target,0,22,22,22,1787.147317,1789.148555,right,1,3,0.675700455,L08B02,2022-10-21_10h33.55.460,t1_Paradigm,04.01.2021,59.99341786
D,left,Pretarget,0,23,23,23,1790.646748,1792.647866,left,1,3,0.915530867,L08B02,2022-10-21_10h33.55.460,t1_Paradigm,04.01.2021,59.99341786
K,left,Distractor,0,24,24,24,1794.145998,1796.14739,left,1,3,0.885452777,L08B02,2022-10-21_10h33.55.460,t1_Paradigm,04.01.2021,59.99341786
W,left,Distractor,0,25,25,25,1797.645416,1799.645096,left,1,3,1.036721261,L08B02,2022-10-21_10h33.55.460,t1_Paradigm,04.01.2021,59.99341786
D,right,Target,0,26,26,26,1801.144847,1803.14674,right,1,3,0.943483642,L08B02,2022-10-21_10h33.55.460,t1_Paradigm,04.01.2021,59.99341786
G,left,Pretarget,0,27,27,27,1804.66127,1806.661746,left,1,3,0.873303999,L08B02,2022-10-21_10h33.55.460,t1_Paradigm,04.01.2021,59.99341786
V,left,Distractor,0,28,28,28,1808.160189,1810.161866,left,1,3,0.940808152,L08B02,2022-10-21_10h33.55.460,t1_Paradigm,04.01.2021,59.99341786
D,right,Target,0,29,29,29,1811.659757,1813.661112,right,1,3,0.661811326,L08B02,2022-10-21_10h33.55.460,t1_Paradigm,04.01.2021,59.99341786
G,right,Target,0,30,30,30,1815.159186,1817.160012,right,1,3,0.775240233,L08B02,2022-10-21_10h33.55.460,t1_Paradigm,04.01.2021,59.99341786
B,left,Pretarget,0,31,31,31,1818.658347,1820.658037,left,1,3,1.077354704,L08B02,2022-10-21_10h33.55.460,t1_Paradigm,04.01.2021,59.99341786
N,left,Distractor,0,32,32,32,1822.157991,1824.160029,left,1,3,1.28147791,L08B02,2022-10-21_10h33.55.460,t1_Paradigm,04.01.2021,59.99341786
F,left,Distractor,0,33,33,33,1825.657447,1827.659529,left,1,3,1.083991138,L08B02,2022-10-21_10h33.55.460,t1_Paradigm,04.01.2021,59.99341786
B,right,Target,0,34,34,34,1829.156903,1831.157472,None,0,3,,L08B02,2022-10-21_10h33.55.460,t1_Paradigm,04.01.2021,59.99341786
Q,left,Pretarget,0,35,35,35,1832.656239,1834.656951,left,1,3,1.066238267,L08B02,2022-10-21_10h33.55.460,t1_Paradigm,04.01.2021,59.99341786
S,left,Pretarget,0,36,36,36,1836.155668,1838.154878,left,1,3,0.956266646,L08B02,2022-10-21_10h33.55.460,t1_Paradigm,04.01.2021,59.99341786
W,left,Distractor,0,37,37,37,1839.655059,1841.655136,left,1,3,1.00725462,L08B02,2022-10-21_10h33.55.460,t1_Paradigm,04.01.2021,59.99341786
Q,right,Target,0,38,38,38,1843.154506,1845.15605,right,1,3,0.550985087,L08B02,2022-10-21_10h33.55.460,t1_Paradigm,04.01.2021,59.99341786
S,right,Target,0,39,39,39,1846.653909,1848.655517,right,1,3,0.590432525,L08B02,2022-10-21_10h33.55.460,t1_Paradigm,04.01.2021,59.99341786
T,left,Distractor,0,40,40,40,1850.153339,1852.152593,left,1,3,0.901318689,L08B02,2022-10-21_10h33.55.460,t1_Paradigm,04.01.2021,59.99341786
G,left,Distractor,0,41,41,41,1853.652842,1855.653893,left,1,3,0.90647815,L08B02,2022-10-21_10h33.55.460,t1_Paradigm,04.01.2021,59.99341786
D,left,Distractor,0,42,42,42,1857.152259,1859.154408,left,1,3,0.903752295,L08B02,2022-10-21_10h33.55.460,t1_Paradigm,04.01.2021,59.99341786
S,left,Lure,0,43,43,43,1860.651614,1862.653032,left,1,3,0.674451573,L08B02,2022-10-21_10h33.55.460,t1_Paradigm,04.01.2021,59.99341786
Z,left,Pretarget,0,44,44,44,1864.151066,1866.152257,left,1,3,1.17546242,L08B02,2022-10-21_10h33.55.460,t1_Paradigm,04.01.2021,59.99341786
J,left,Distractor,0,45,45,45,1867.650413,1869.651786,left,1,3,0.965425226,L08B02,2022-10-21_10h33.55.460,t1_Paradigm,04.01.2021,59.99341786
M,left,Pretarget,0,46,46,46,1871.149891,1873.151072,left,1,3,0.960298808,L08B02,2022-10-21_10h33.55.460,t1_Paradigm,04.01.2021,59.99341786
Z,right,Target,0,47,47,47,1874.64928,1876.650458,left,0,3,1.044415701,L08B02,2022-10-21_10h33.55.460,t1_Paradigm,04.01.2021,59.99341786
P,left,Distractor,0,48,48,48,1878.148715,1880.149417,left,1,3,1.398546317,L08B02,2022-10-21_10h33.55.460,t1_Paradigm,04.01.2021,59.99341786
M,right,Target,0,49,49,49,1881.64812,1883.649293,left,0,3,1.245756589,L08B02,2022-10-21_10h33.55.460,t1_Paradigm,04.01.2021,59.99341786
K,left,Distractor,0,50,50,50,1885.147807,1887.147225,left,1,3,1.066272593,L08B02,2022-10-21_10h33.55.460,t1_Paradigm,04.01.2021,59.99341786
Y,left,Distractor,0,51,51,51,1888.646557,1890.647305,left,1,3,0.814764663,L08B02,2022-10-21_10h33.55.460,t1_Paradigm,04.01.2021,59.99341786
X,left,Distractor,0,52,52,52,1892.146331,1894.14847,left,1,3,0.950501831,L08B02,2022-10-21_10h33.55.460,t1_Paradigm,04.01.2021,59.99341786
F,left,Pretarget,0,53,53,53,1895.645797,1897.647043,left,1,3,0.88885328,L08B02,2022-10-21_10h33.55.460,t1_Paradigm,04.01.2021,59.99341786
M,left,Lure,0,54,54,54,1899.145181,1901.146412,left,1,3,0.940486067,L08B02,2022-10-21_10h33.55.460,t1_Paradigm,04.01.2021,59.99341786
V,left,Distractor,0,55,55,55,1902.66127,1904.662434,left,1,3,0.885606762,L08B02,2022-10-21_10h33.55.460,t1_Paradigm,04.01.2021,59.99341786
F,right,Target,0,56,56,56,1906.160857,1908.161294,right,1,3,0.827711917,L08B02,2022-10-21_10h33.55.460,t1_Paradigm,04.01.2021,59.99341786
S,left,Distractor,0,57,57,57,1909.660081,1911.661435,left,1,3,0.858597466,L08B02,2022-10-21_10h33.55.460,t1_Paradigm,04.01.2021,59.99341786
D,left,Distractor,0,58,58,58,1913.15942,1915.160905,left,1,3,0.856893365,L08B02,2022-10-21_10h33.55.460,t1_Paradigm,04.01.2021,59.99341786
F,right,Target,0,59,59,59,1916.658932,1918.659748,right,1,3,0.795184503,L08B02,2022-10-21_10h33.55.460,t1_Paradigm,04.01.2021,59.99341786
V,left,Pretarget,0,60,60,60,1920.158285,1922.158189,left,1,3,0.957979408,L08B02,2022-10-21_10h33.55.460,t1_Paradigm,04.01.2021,59.99341786
J,left,Distractor,0,61,61,61,1923.657677,1925.658488,left,1,3,0.924872946,L08B02,2022-10-21_10h33.55.460,t1_Paradigm,04.01.2021,59.99341786
V,left,Lure,0,62,62,62,1927.157105,1929.156659,right,0,3,0.747519397,L08B02,2022-10-21_10h33.55.460,t1_Paradigm,04.01.2021,59.99341786
V,right,Target,0,63,63,63,1930.656777,1932.656259,left,0,3,0.872319457,L08B02,2022-10-21_10h33.55.460,t1_Paradigm,04.01.2021,59.99341786
R,left,Distractor,0,0,0,0,2021.870951,2023.876418,None,0,4,,L08B02,2022-10-21_10h33.55.460,t1_Paradigm,04.01.2021,59.99341786
F,left,Distractor,0,1,1,1,2025.374088,2027.374059,None,0,4,,L08B02,2022-10-21_10h33.55.460,t1_Paradigm,04.01.2021,59.99341786
P,left,Pretarget,0,2,2,2,2028.873416,2030.873315,None,0,4,,L08B02,2022-10-21_10h33.55.460,t1_Paradigm,04.01.2021,59.99341786
H,left,Distractor,0,3,3,3,2032.372903,2034.372846,None,0,4,,L08B02,2022-10-21_10h33.55.460,t1_Paradigm,04.01.2021,59.99341786
Z,left,Distractor,0,4,4,4,2035.872176,2037.873701,left,1,4,0.670860193,L08B02,2022-10-21_10h33.55.460,t1_Paradigm,04.01.2021,59.99341786
T,left,Distractor,0,5,5,5,2039.371702,2041.372775,left,1,4,0.894567408,L08B02,2022-10-21_10h33.55.460,t1_Paradigm,04.01.2021,59.99341786
P,right,Target,0,6,6,6,2042.871222,2044.872661,right,1,4,0.80675327,L08B02,2022-10-21_10h33.55.460,t1_Paradigm,04.01.2021,59.99341786
G,left,Distractor,0,7,7,7,2046.371022,2048.372227,left,1,4,1.13160267,L08B02,2022-10-21_10h33.55.460,t1_Paradigm,04.01.2021,59.99341786
L,left,Distractor,0,8,8,8,2049.869843,2051.870504,left,1,4,0.915606576,L08B02,2022-10-21_10h33.55.460,t1_Paradigm,04.01.2021,59.99341786
P,left,Lure,0,9,9,9,2053.369705,2055.37108,right,0,4,1.414754205,L08B02,2022-10-21_10h33.55.460,t1_Paradigm,04.01.2021,59.99341786
Q,left,Pretarget,0,10,10,10,2056.868753,2058.870066,left,1,4,0.830676771,L08B02,2022-10-21_10h33.55.460,t1_Paradigm,04.01.2021,59.99341786
D,left,Distractor,0,11,11,11,2060.368595,2062.370108,left,1,4,0.710416703,L08B02,2022-10-21_10h33.55.460,t1_Paradigm,04.01.2021,59.99341786
M,left,Pretarget,0,12,12,12,2063.867649,2065.868834,left,1,4,0.795424784,L08B02,2022-10-21_10h33.55.460,t1_Paradigm,04.01.2021,59.99341786
C,left,Distractor,0,13,13,13,2067.36738,2069.368683,left,1,4,0.895565103,L08B02,2022-10-21_10h33.55.460,t1_Paradigm,04.01.2021,59.99341786
Q,right,Target,0,14,14,14,2070.866335,2072.867149,left,0,4,1.062515358,L08B02,2022-10-21_10h33.55.460,t1_Paradigm,04.01.2021,59.99341786
R,left,Distractor,0,15,15,15,2074.365923,2076.367134,left,1,4,1.289258645,L08B02,2022-10-21_10h33.55.460,t1_Paradigm,04.01.2021,59.99341786
M,right,Target,0,16,16,16,2077.865196,2079.866746,left,0,4,1.226309242,L08B02,2022-10-21_10h33.55.460,t1_Paradigm,04.01.2021,59.99341786
S,left,Distractor,0,17,17,17,2081.364709,2083.365547,left,1,4,1.339852675,L08B02,2022-10-21_10h33.55.460,t1_Paradigm,04.01.2021,59.99341786
Z,left,Distractor,0,18,18,18,2084.864225,2086.865372,None,0,4,,L08B02,2022-10-21_10h33.55.460,t1_Paradigm,04.01.2021,59.99341786
L,left,Pretarget,0,19,19,19,2088.363864,2090.365705,None,0,4,,L08B02,2022-10-21_10h33.55.460,t1_Paradigm,04.01.2021,59.99341786
M,right,Target,0,20,20,20,2091.863054,2093.864526,left,0,4,1.200259144,L08B02,2022-10-21_10h33.55.460,t1_Paradigm,04.01.2021,59.99341786
P,left,Distractor,0,21,21,21,2095.362744,2097.364226,left,1,4,1.263893781,L08B02,2022-10-21_10h33.55.460,t1_Paradigm,04.01.2021,59.99341786
F,left,Distractor,0,22,22,22,2098.861845,2100.863337,right,0,4,1.030613508,L08B02,2022-10-21_10h33.55.460,t1_Paradigm,04.01.2021,59.99341786
L,right,Target,0,23,23,23,2102.36145,2104.362964,left,0,4,1.179787154,L08B02,2022-10-21_10h33.55.460,t1_Paradigm,04.01.2021,59.99341786
L,left,Lure,0,24,24,24,2105.860668,2107.860406,left,1,4,1.021136692,L08B02,2022-10-21_10h33.55.460,t1_Paradigm,04.01.2021,59.99341786
V,left,Pretarget,0,25,25,25,2109.360267,2111.360878,left,1,4,1.259889529,L08B02,2022-10-21_10h33.55.460,t1_Paradigm,04.01.2021,59.99341786
Z,left,Distractor,0,26,26,26,2112.859332,2114.860732,left,1,4,1.033615896,L08B02,2022-10-21_10h33.55.460,t1_Paradigm,04.01.2021,59.99341786
H,left,Distractor,0,27,27,27,2116.358934,2118.360561,left,1,4,0.632057567,L08B02,2022-10-21_10h33.55.460,t1_Paradigm,04.01.2021,59.99341786
X,left,Distractor,0,28,28,28,2119.875003,2121.874901,left,1,4,1.106079971,L08B02,2022-10-21_10h33.55.460,t1_Paradigm,04.01.2021,59.99341786
V,right,Target,0,29,29,29,2123.37437,2125.375308,right,1,4,0.977234916,L08B02,2022-10-21_10h33.55.460,t1_Paradigm,04.01.2021,59.99341786
C,left,Distractor,0,30,30,30,2126.87379,2128.874952,left,1,4,1.2695723,L08B02,2022-10-21_10h33.55.460,t1_Paradigm,04.01.2021,59.99341786
S,left,Pretarget,0,31,31,31,2130.372874,2132.373641,left,1,4,1.036444729,L08B02,2022-10-21_10h33.55.460,t1_Paradigm,04.01.2021,59.99341786
D,left,Distractor,0,32,32,32,2133.872553,2135.873348,left,1,4,1.099967086,L08B02,2022-10-21_10h33.55.460,t1_Paradigm,04.01.2021,59.99341786
V,left,Distractor,0,33,33,33,2137.372,2139.372294,right,0,4,0.727976771,L08B02,2022-10-21_10h33.55.460,t1_Paradigm,04.01.2021,59.99341786
R,left,Distractor,0,34,34,34,2140.871542,2142.873011,left,1,4,0.867894633,L08B02,2022-10-21_10h33.55.460,t1_Paradigm,04.01.2021,59.99341786
S,right,Target,0,35,35,35,2144.371585,2146.372088,right,1,4,0.609632213,L08B02,2022-10-21_10h33.55.460,t1_Paradigm,04.01.2021,59.99341786
Y,left,Distractor,0,36,36,36,2147.87033,2149.87092,left,1,4,0.76779666,L08B02,2022-10-21_10h33.55.460,t1_Paradigm,04.01.2021,59.99341786
N,left,Pretarget,0,37,37,37,2151.369556,2153.369915,left,1,4,0.710062216,L08B02,2022-10-21_10h33.55.460,t1_Paradigm,04.01.2021,59.99341786
Z,left,Pretarget,0,38,38,38,2154.869266,2156.870729,left,1,4,0.956776079,L08B02,2022-10-21_10h33.55.460,t1_Paradigm,04.01.2021,59.99341786
P,left,Pretarget,0,39,39,39,2158.368575,2160.369998,left,1,4,0.747401021,L08B02,2022-10-21_10h33.55.460,t1_Paradigm,04.01.2021,59.99341786
M,left,Distractor,0,40,40,40,2161.867948,2163.868348,left,1,4,0.767249051,L08B02,2022-10-21_10h33.55.460,t1_Paradigm,04.01.2021,59.99341786
N,right,Target,0,41,41,41,2165.367741,2167.368964,right,1,4,1.381118419,L08B02,2022-10-21_10h33.55.460,t1_Paradigm,04.01.2021,59.99341786
Z,right,Target,0,42,42,42,2168.866706,2170.867981,right,1,4,0.95961165,L08B02,2022-10-21_10h33.55.460,t1_Paradigm,04.01.2021,59.99341786
P,right,Target,0,43,43,43,2172.366225,2174.367527,right,1,4,1.023582167,L08B02,2022-10-21_10h33.55.460,t1_Paradigm,04.01.2021,59.99341786
X,left,Pretarget,0,44,44,44,2175.865532,2177.86683,left,1,4,0.822415794,L08B02,2022-10-21_10h33.55.460,t1_Paradigm,04.01.2021,59.99341786
Z,left,Lure,0,45,45,45,2179.365337,2181.366301,right,0,4,1.368075886,L08B02,2022-10-21_10h33.55.460,t1_Paradigm,04.01.2021,59.99341786
R,left,Pretarget,0,46,46,46,2182.864488,2184.863462,left,1,4,0.928310662,L08B02,2022-10-21_10h33.55.460,t1_Paradigm,04.01.2021,59.99341786
K,left,Distractor,0,47,47,47,2186.364228,2188.364741,left,1,4,0.900886248,L08B02,2022-10-21_10h33.55.460,t1_Paradigm,04.01.2021,59.99341786
X,right,Target,0,48,48,48,2189.863303,2191.863167,left,0,4,1.162063797,L08B02,2022-10-21_10h33.55.460,t1_Paradigm,04.01.2021,59.99341786
B,left,Distractor,0,49,49,49,2193.362774,2195.364352,left,1,4,1.318195642,L08B02,2022-10-21_10h33.55.460,t1_Paradigm,04.01.2021,59.99341786
R,right,Target,0,50,50,50,2196.862037,2198.863418,None,0,4,,L08B02,2022-10-21_10h33.55.460,t1_Paradigm,04.01.2021,59.99341786
Y,left,Pretarget,0,51,51,51,2200.361722,2202.363111,left,1,4,1.388840448,L08B02,2022-10-21_10h33.55.460,t1_Paradigm,04.01.2021,59.99341786
W,left,Pretarget,0,52,52,52,2203.860975,2205.862509,None,0,4,,L08B02,2022-10-21_10h33.55.460,t1_Paradigm,04.01.2021,59.99341786
Z,left,Distractor,0,53,53,53,2207.360327,2209.361912,right,0,4,0.994568819,L08B02,2022-10-21_10h33.55.460,t1_Paradigm,04.01.2021,59.99341786
Q,left,Distractor,0,54,54,54,2210.859826,2212.86084,left,1,4,0.826469771,L08B02,2022-10-21_10h33.55.460,t1_Paradigm,04.01.2021,59.99341786
Y,right,Target,0,55,55,55,2214.359129,2216.360655,left,0,4,0.926851012,L08B02,2022-10-21_10h33.55.460,t1_Paradigm,04.01.2021,59.99341786
W,right,Target,0,56,56,56,2217.858564,2219.859669,right,1,4,1.252421896,L08B02,2022-10-21_10h33.55.460,t1_Paradigm,04.01.2021,59.99341786
H,left,Pretarget,0,57,57,57,2221.374653,2223.376549,left,1,4,1.139716719,L08B02,2022-10-21_10h33.55.460,t1_Paradigm,04.01.2021,59.99341786
M,left,Distractor,0,58,58,58,2224.87413,2226.874001,left,1,4,0.830399918,L08B02,2022-10-21_10h33.55.460,t1_Paradigm,04.01.2021,59.99341786
R,left,Pretarget,0,59,59,59,2228.373559,2230.374647,left,1,4,1.142109261,L08B02,2022-10-21_10h33.55.460,t1_Paradigm,04.01.2021,59.99341786
J,left,Distractor,0,60,60,60,2231.87282,2233.873249,left,1,4,0.896812061,L08B02,2022-10-21_10h33.55.460,t1_Paradigm,04.01.2021,59.99341786
H,right,Target,0,61,61,61,2235.372394,2237.371874,left,0,4,0.863523062,L08B02,2022-10-21_10h33.55.460,t1_Paradigm,04.01.2021,59.99341786
Z,left,Distractor,0,62,62,62,2238.871665,2240.873289,left,1,4,0.946191854,L08B02,2022-10-21_10h33.55.460,t1_Paradigm,04.01.2021,59.99341786
R,right,Target,0,63,63,63,2242.371508,2244.371425,left,0,4,1.092822501,L08B02,2022-10-21_10h33.55.460,t1_Paradigm,04.01.2021,59.99341786
J,left,Pretarget,0,0,0,0,2284.156007,2286.148646,None,0,4,,L08B02,2022-10-21_10h33.55.460,t1_Paradigm,04.01.2021,59.99341786
G,left,Pretarget,0,1,1,1,2287.646899,2289.648277,None,0,4,,L08B02,2022-10-21_10h33.55.460,t1_Paradigm,04.01.2021,59.99341786
Z,left,Distractor,0,2,2,2,2291.146276,2293.147137,None,0,4,,L08B02,2022-10-21_10h33.55.460,t1_Paradigm,04.01.2021,59.99341786
F,left,Distractor,0,3,3,3,2294.645677,2296.646854,None,0,4,,L08B02,2022-10-21_10h33.55.460,t1_Paradigm,04.01.2021,59.99341786
J,right,Target,0,4,4,4,2298.145335,2300.147088,left,0,4,0.720644196,L08B02,2022-10-21_10h33.55.460,t1_Paradigm,04.01.2021,59.99341786
G,right,Target,0,5,5,5,2301.644645,2303.645233,right,1,4,0.651188604,L08B02,2022-10-21_10h33.55.460,t1_Paradigm,04.01.2021,59.99341786
H,left,Distractor,0,6,6,6,2305.144002,2307.144748,left,1,4,1.21345502,L08B02,2022-10-21_10h33.55.460,t1_Paradigm,04.01.2021,59.99341786
P,left,Distractor,0,7,7,7,2308.643484,2310.644196,left,1,4,0.812224872,L08B02,2022-10-21_10h33.55.460,t1_Paradigm,04.01.2021,59.99341786
G,left,Lure,0,8,8,8,2312.142811,2314.143567,left,1,4,1.031795344,L08B02,2022-10-21_10h33.55.460,t1_Paradigm,04.01.2021,59.99341786
S,left,Distractor,0,9,9,9,2315.642096,2317.641884,left,1,4,1.01527692,L08B02,2022-10-21_10h33.55.460,t1_Paradigm,04.01.2021,59.99341786
R,left,Pretarget,0,10,10,10,2319.141652,2321.141685,left,1,4,0.817279752,L08B02,2022-10-21_10h33.55.460,t1_Paradigm,04.01.2021,59.99341786
T,left,Pretarget,0,11,11,11,2322.640672,2324.64099,left,1,4,0.750658126,L08B02,2022-10-21_10h33.55.460,t1_Paradigm,04.01.2021,59.99341786
X,left,Distractor,0,12,12,12,2326.14046,2328.142004,left,1,4,0.866467064,L08B02,2022-10-21_10h33.55.460,t1_Paradigm,04.01.2021,59.99341786
F,left,Pretarget,0,13,13,13,2329.639975,2331.641781,left,1,4,0.824135294,L08B02,2022-10-21_10h33.55.460,t1_Paradigm,04.01.2021,59.99341786
R,right,Target,0,14,14,14,2333.139273,2335.138822,right,1,4,0.837907651,L08B02,2022-10-21_10h33.55.460,t1_Paradigm,04.01.2021,59.99341786
T,right,Target,0,15,15,15,2336.638671,2338.640567,left,0,4,1.279371523,L08B02,2022-10-21_10h33.55.460,t1_Paradigm,04.01.2021,59.99341786
C,left,Distractor,0,16,16,16,2340.138129,2342.138431,left,1,4,1.19381487,L08B02,2022-10-21_10h33.55.460,t1_Paradigm,04.01.2021,59.99341786
F,right,Target,0,17,17,17,2343.637486,2345.639044,right,1,4,0.917905765,L08B02,2022-10-21_10h33.55.460,t1_Paradigm,04.01.2021,59.99341786
M,left,Distractor,0,18,18,18,2347.137086,2349.137463,left,1,4,0.782982151,L08B02,2022-10-21_10h33.55.460,t1_Paradigm,04.01.2021,59.99341786
N,left,Distractor,0,19,19,19,2350.636314,2352.638217,left,1,4,0.79257991,L08B02,2022-10-21_10h33.55.460,t1_Paradigm,04.01.2021,59.99341786
R,left,Lure,0,20,20,20,2354.135732,2356.137207,left,1,4,0.730925264,L08B02,2022-10-21_10h33.55.460,t1_Paradigm,04.01.2021,59.99341786
F,right,Target,0,21,21,21,2357.635361,2359.636596,right,1,4,0.639665711,L08B02,2022-10-21_10h33.55.460,t1_Paradigm,04.01.2021,59.99341786
P,left,Distractor,0,22,22,22,2361.134657,2363.135864,left,1,4,1.063086707,L08B02,2022-10-21_10h33.55.460,t1_Paradigm,04.01.2021,59.99341786
L,left,Pretarget,0,23,23,23,2364.634045,2366.636104,left,1,4,0.92644199,L08B02,2022-10-21_10h33.55.460,t1_Paradigm,04.01.2021,59.99341786
T,left,Distractor,0,24,24,24,2368.133476,2370.134688,left,1,4,0.954447697,L08B02,2022-10-21_10h33.55.460,t1_Paradigm,04.01.2021,59.99341786
F,left,Distractor,0,25,25,25,2371.63281,2373.633194,right,0,4,0.660270513,L08B02,2022-10-21_10h33.55.460,t1_Paradigm,04.01.2021,59.99341786
V,left,Distractor,0,26,26,26,2375.132357,2377.134221,left,1,4,0.788240099,L08B02,2022-10-21_10h33.55.460,t1_Paradigm,04.01.2021,59.99341786
L,right,Target,0,27,27,27,2378.648447,2380.649683,right,1,4,0.587236373,L08B02,2022-10-21_10h33.55.460,t1_Paradigm,04.01.2021,59.99341786
S,left,Pretarget,0,28,28,28,2382.14784,2384.148765,left,1,4,0.966142219,L08B02,2022-10-21_10h33.55.460,t1_Paradigm,04.01.2021,59.99341786
W,left,Distractor,0,29,29,29,2385.647235,2387.64824,left,1,4,0.879539752,L08B02,2022-10-21_10h33.55.460,t1_Paradigm,04.01.2021,59.99341786
Q,left,Distractor,0,30,30,30,2389.146705,2391.147692,left,1,4,0.959656883,L08B02,2022-10-21_10h33.55.460,t1_Paradigm,04.01.2021,59.99341786
L,right,Target,0,31,31,31,2392.646101,2394.647198,right,1,4,0.71740634,L08B02,2022-10-21_10h33.55.460,t1_Paradigm,04.01.2021,59.99341786
S,right,Target,0,32,32,32,2396.145376,2398.146798,right,1,4,0.605786116,L08B02,2022-10-21_10h33.55.460,t1_Paradigm,04.01.2021,59.99341786
Z,left,Pretarget,0,33,33,33,2399.644843,2401.64699,left,1,4,0.926110922,L08B02,2022-10-21_10h33.55.460,t1_Paradigm,04.01.2021,59.99341786
F,left,Distractor,0,34,34,34,2403.14431,2405.14547,left,1,4,0.881555993,L08B02,2022-10-21_10h33.55.460,t1_Paradigm,04.01.2021,59.99341786
V,left,Distractor,0,35,35,35,2406.643686,2408.64485,left,1,4,1.035749551,L08B02,2022-10-21_10h33.55.460,t1_Paradigm,04.01.2021,59.99341786
M,left,Distractor,0,36,36,36,2410.143177,2412.142234,left,1,4,0.9668544,L08B02,2022-10-21_10h33.55.460,t1_Paradigm,04.01.2021,59.99341786
Z,right,Target,0,37,37,37,2413.642437,2415.642653,left,0,4,1.168242768,L08B02,2022-10-21_10h33.55.460,t1_Paradigm,04.01.2021,59.99341786
H,left,Pretarget,0,38,38,38,2417.141943,2419.143929,left,1,4,1.047307411,L08B02,2022-10-21_10h33.55.460,t1_Paradigm,04.01.2021,59.99341786
L,left,Distractor,0,39,39,39,2420.641441,2422.642095,right,0,4,1.157178301,L08B02,2022-10-21_10h33.55.460,t1_Paradigm,04.01.2021,59.99341786
G,left,Distractor,0,40,40,40,2424.140506,2426.140276,left,1,4,0.924257006,L08B02,2022-10-21_10h33.55.460,t1_Paradigm,04.01.2021,59.99341786
K,left,Distractor,0,41,41,41,2427.640269,2429.641349,left,1,4,0.872494936,L08B02,2022-10-21_10h33.55.460,t1_Paradigm,04.01.2021,59.99341786
H,right,Target,0,42,42,42,2431.139963,2433.141063,right,1,4,0.654563443,L08B02,2022-10-21_10h33.55.460,t1_Paradigm,04.01.2021,59.99341786
B,left,Distractor,0,43,43,43,2434.638967,2436.640413,left,1,4,0.776138479,L08B02,2022-10-21_10h33.55.460,t1_Paradigm,04.01.2021,59.99341786
Z,left,Distractor,0,44,44,44,2438.13841,2440.13921,left,1,4,0.987669327,L08B02,2022-10-21_10h33.55.460,t1_Paradigm,04.01.2021,59.99341786
T,left,Pretarget,0,45,45,45,2441.637917,2443.637564,left,1,4,1.114242782,L08B02,2022-10-21_10h33.55.460,t1_Paradigm,04.01.2021,59.99341786
H,right,Target,0,46,46,46,2445.137353,2447.13745,right,1,4,1.116467866,L08B02,2022-10-21_10h33.55.460,t1_Paradigm,04.01.2021,59.99341786
F,left,Distractor,0,47,47,47,2448.636752,2450.638441,left,1,4,1.314306236,L08B02,2022-10-21_10h33.55.460,t1_Paradigm,04.01.2021,59.99341786
R,left,Distractor,0,48,48,48,2452.136101,2454.137112,None,0,4,,L08B02,2022-10-21_10h33.55.460,t1_Paradigm,04.01.2021,59.99341786
T,right,Target,0,49,49,49,2455.635301,2457.637453,None,0,4,,L08B02,2022-10-21_10h33.55.460,t1_Paradigm,04.01.2021,59.99341786
H,right,Target,0,50,50,50,2459.134945,2461.135778,left,0,4,1.095232367,L08B02,2022-10-21_10h33.55.460,t1_Paradigm,04.01.2021,59.99341786
Y,left,Pretarget,0,51,51,51,2462.634082,2464.635014,left,1,4,0.796224544,L08B02,2022-10-21_10h33.55.460,t1_Paradigm,04.01.2021,59.99341786
H,left,Distractor,0,52,52,52,2466.133644,2468.134024,left,1,4,1.17944165,L08B02,2022-10-21_10h33.55.460,t1_Paradigm,04.01.2021,59.99341786
S,left,Distractor,0,53,53,53,2469.632873,2471.634932,left,1,4,0.976622505,L08B02,2022-10-21_10h33.55.460,t1_Paradigm,04.01.2021,59.99341786
Q,left,Distractor,0,54,54,54,2473.132585,2475.133201,left,1,4,0.82582528,L08B02,2022-10-21_10h33.55.460,t1_Paradigm,04.01.2021,59.99341786
Y,right,Target,0,55,55,55,2476.648728,2478.648744,right,1,4,0.694103271,L08B02,2022-10-21_10h33.55.460,t1_Paradigm,04.01.2021,59.99341786
R,left,Distractor,0,56,56,56,2480.148044,2482.149811,left,1,4,0.805834814,L08B02,2022-10-21_10h33.55.460,t1_Paradigm,04.01.2021,59.99341786
H,left,Pretarget,0,57,57,57,2483.647572,2485.647955,right,0,4,1.324656276,L08B02,2022-10-21_10h33.55.460,t1_Paradigm,04.01.2021,59.99341786
J,left,Distractor,0,58,58,58,2487.146917,2489.148121,left,1,4,0.779832836,L08B02,2022-10-21_10h33.55.460,t1_Paradigm,04.01.2021,59.99341786
V,left,Distractor,0,59,59,59,2490.646277,2492.647375,left,1,4,0.823442682,L08B02,2022-10-21_10h33.55.460,t1_Paradigm,04.01.2021,59.99341786
Y,left,Lure,0,60,60,60,2494.145679,2496.146877,left,1,4,0.814864111,L08B02,2022-10-21_10h33.55.460,t1_Paradigm,04.01.2021,59.99341786
H,right,Target,0,61,61,61,2497.645159,2499.646319,right,1,4,0.817080213,L08B02,2022-10-21_10h33.55.460,t1_Paradigm,04.01.2021,59.99341786
L,left,Distractor,0,62,62,62,2501.144547,2503.145889,left,1,4,1.048674028,L08B02,2022-10-21_10h33.55.460,t1_Paradigm,04.01.2021,59.99341786
P,left,Distractor,0,63,63,63,2504.644039,2506.64482,left,1,4,1.182644218,L08B02,2022-10-21_10h33.55.460,t1_Paradigm,04.01.2021,59.99341786
