Letter,CorrAnswer,Stimulus,finaln_nback_run.thisRepN,finaln_nback_run.thisTrialN,finaln_nback_run.thisN,finaln_nback_run.thisIndex,finaln_fixcross.started,finaln_nback_trial.started,finaln_trial_resp.keys,finaln_trial_resp.corr,finaln_level,finaln_money,finaln_trial_resp.rt,Participant,date,expName,psychopyVersion,frameRate
T,left,Distractor,0,0,0,0,2778.893614,2780.882101,None,0,0,1.97,,L08B02,2022-10-21_10h33.55.460,t1_Paradigm,04.01.2021,59.99341786
F,left,Distractor,0,1,1,1,2782.380902,2784.382244,left,1,0,1.97,1.016847246,L08B02,2022-10-21_10h33.55.460,t1_Paradigm,04.01.2021,59.99341786
G,left,Distractor,0,2,2,2,2785.880359,2787.881316,left,1,0,1.97,0.620293431,L08B02,2022-10-21_10h33.55.460,t1_Paradigm,04.01.2021,59.99341786
V,left,Distractor,0,3,3,3,2789.37992,2791.380747,left,1,0,1.97,0.374567318,L08B02,2022-10-21_10h33.55.460,t1_Paradigm,04.01.2021,59.99341786
H,left,Distractor,0,4,4,4,2792.879233,2794.880074,left,1,0,1.97,0.410658523,L08B02,2022-10-21_10h33.55.460,t1_Paradigm,04.01.2021,59.99341786
C,left,Pretarget,0,5,5,5,2796.3786,2798.377895,left,1,0,1.97,0.455880079,L08B02,2022-10-21_10h33.55.460,t1_Paradigm,04.01.2021,59.99341786
C,right,Target,0,6,6,6,2799.877968,2801.877645,right,1,0,1.97,0.613883483,L08B02,2022-10-21_10h33.55.460,t1_Paradigm,04.01.2021,59.99341786
C,right,Target,0,7,7,7,2803.377131,2805.37751,right,1,0,1.97,0.404058981,L08B02,2022-10-21_10h33.55.460,t1_Paradigm,04.01.2021,59.99341786
W,left,Distractor,0,8,8,8,2806.876847,2808.877363,left,1,0,1.97,0.504546729,L08B02,2022-10-21_10h33.55.460,t1_Paradigm,04.01.2021,59.99341786
R,left,Pretarget,0,9,9,9,2810.376147,2812.377029,left,1,0,1.97,0.442069867,L08B02,2022-10-21_10h33.55.460,t1_Paradigm,04.01.2021,59.99341786
R,right,Target,0,10,10,10,2813.875772,2815.875331,right,1,0,1.97,0.548350339,L08B02,2022-10-21_10h33.55.460,t1_Paradigm,04.01.2021,59.99341786
Z,left,Distractor,0,11,11,11,2817.375188,2819.375759,left,1,0,1.97,0.505771552,L08B02,2022-10-21_10h33.55.460,t1_Paradigm,04.01.2021,59.99341786
R,left,Lure,0,12,12,12,2820.874523,2822.876551,left,1,0,1.97,0.547967943,L08B02,2022-10-21_10h33.55.460,t1_Paradigm,04.01.2021,59.99341786
H,left,Pretarget,0,13,13,13,2824.373855,2826.374585,left,1,0,1.97,0.471164377,L08B02,2022-10-21_10h33.55.460,t1_Paradigm,04.01.2021,59.99341786
H,right,Target,0,14,14,14,2827.873345,2829.872962,right,1,0,1.97,0.389636037,L08B02,2022-10-21_10h33.55.460,t1_Paradigm,04.01.2021,59.99341786
K,left,Distractor,0,15,15,15,2831.372717,2833.374323,left,1,0,1.97,0.554098472,L08B02,2022-10-21_10h33.55.460,t1_Paradigm,04.01.2021,59.99341786
J,left,Distractor,0,16,16,16,2834.872089,2836.872798,left,1,0,1.97,0.500901454,L08B02,2022-10-21_10h33.55.460,t1_Paradigm,04.01.2021,59.99341786
H,left,Lure,0,17,17,17,2838.371575,2840.372147,left,1,0,1.97,0.618326914,L08B02,2022-10-21_10h33.55.460,t1_Paradigm,04.01.2021,59.99341786
S,left,Distractor,0,18,18,18,2841.87101,2843.871554,left,1,0,1.97,0.470474332,L08B02,2022-10-21_10h33.55.460,t1_Paradigm,04.01.2021,59.99341786
T,left,Pretarget,0,19,19,19,2845.370501,2847.371007,left,1,0,1.97,0.473754855,L08B02,2022-10-21_10h33.55.460,t1_Paradigm,04.01.2021,59.99341786
T,right,Target,0,20,20,20,2848.869798,2850.869287,right,1,0,1.97,0.436979378,L08B02,2022-10-21_10h33.55.460,t1_Paradigm,04.01.2021,59.99341786
X,left,Pretarget,0,21,21,21,2852.369194,2854.369759,left,1,0,1.97,0.545079761,L08B02,2022-10-21_10h33.55.460,t1_Paradigm,04.01.2021,59.99341786
X,right,Target,0,22,22,22,2855.868585,2857.868347,right,1,0,1.97,0.447132125,L08B02,2022-10-21_10h33.55.460,t1_Paradigm,04.01.2021,59.99341786
W,left,Distractor,0,23,23,23,2859.367955,2861.369143,left,1,0,1.97,0.591740114,L08B02,2022-10-21_10h33.55.460,t1_Paradigm,04.01.2021,59.99341786
K,left,Distractor,0,24,24,24,2862.867504,2864.869138,left,1,0,1.97,0.635125398,L08B02,2022-10-21_10h33.55.460,t1_Paradigm,04.01.2021,59.99341786
F,left,Pretarget,0,25,25,25,2866.366912,2868.367988,left,1,0,1.97,0.602398124,L08B02,2022-10-21_10h33.55.460,t1_Paradigm,04.01.2021,59.99341786
F,right,Target,0,26,26,26,2869.866351,2871.86586,right,1,0,1.97,0.877064121,L08B02,2022-10-21_10h33.55.460,t1_Paradigm,04.01.2021,59.99341786
Z,left,Distractor,0,27,27,27,2873.365709,2875.365031,left,1,0,1.97,0.615174712,L08B02,2022-10-21_10h33.55.460,t1_Paradigm,04.01.2021,59.99341786
F,left,Lure,0,28,28,28,2876.865088,2878.866341,left,1,0,1.97,0.734632775,L08B02,2022-10-21_10h33.55.460,t1_Paradigm,04.01.2021,59.99341786
P,left,Distractor,0,29,29,29,2880.38156,2882.381354,left,1,0,1.97,0.436331679,L08B02,2022-10-21_10h33.55.460,t1_Paradigm,04.01.2021,59.99341786
F,left,Lure,0,30,30,30,2883.880583,2885.880556,left,1,0,1.97,0.43582449,L08B02,2022-10-21_10h33.55.460,t1_Paradigm,04.01.2021,59.99341786
R,left,Distractor,0,31,31,31,2887.380018,2889.380751,left,1,0,1.97,0.479037183,L08B02,2022-10-21_10h33.55.460,t1_Paradigm,04.01.2021,59.99341786
V,left,Distractor,0,32,32,32,2890.879348,2892.880158,left,1,0,1.97,0.506715031,L08B02,2022-10-21_10h33.55.460,t1_Paradigm,04.01.2021,59.99341786
M,left,Pretarget,0,33,33,33,2894.379082,2896.378994,left,1,0,1.97,0.469270682,L08B02,2022-10-21_10h33.55.460,t1_Paradigm,04.01.2021,59.99341786
M,right,Target,0,34,34,34,2897.87815,2899.878016,right,1,0,1.97,0.664888139,L08B02,2022-10-21_10h33.55.460,t1_Paradigm,04.01.2021,59.99341786
M,right,Target,0,35,35,35,2901.377813,2903.377667,right,1,0,1.97,0.414807137,L08B02,2022-10-21_10h33.55.460,t1_Paradigm,04.01.2021,59.99341786
D,left,Distractor,0,36,36,36,2904.877175,2906.877918,left,1,0,1.97,0.511283895,L08B02,2022-10-21_10h33.55.460,t1_Paradigm,04.01.2021,59.99341786
M,left,Lure,0,37,37,37,2908.376449,2910.377163,left,1,0,1.97,0.55491363,L08B02,2022-10-21_10h33.55.460,t1_Paradigm,04.01.2021,59.99341786
F,left,Distractor,0,38,38,38,2911.87581,2913.877175,left,1,0,1.97,0.606210217,L08B02,2022-10-21_10h33.55.460,t1_Paradigm,04.01.2021,59.99341786
T,left,Pretarget,0,39,39,39,2915.375591,2917.376785,left,1,0,1.97,0.552179434,L08B02,2022-10-21_10h33.55.460,t1_Paradigm,04.01.2021,59.99341786
T,right,Target,0,40,40,40,2918.875054,2920.874509,right,1,0,1.97,0.59824919,L08B02,2022-10-21_10h33.55.460,t1_Paradigm,04.01.2021,59.99341786
Z,left,Distractor,0,41,41,41,2922.374024,2924.375016,left,1,0,1.97,0.661910775,L08B02,2022-10-21_10h33.55.460,t1_Paradigm,04.01.2021,59.99341786
S,left,Distractor,0,42,42,42,2925.873529,2927.874392,left,1,0,1.97,0.538530906,L08B02,2022-10-21_10h33.55.460,t1_Paradigm,04.01.2021,59.99341786
D,left,Distractor,0,43,43,43,2929.373001,2931.374359,left,1,0,1.97,0.541355569,L08B02,2022-10-21_10h33.55.460,t1_Paradigm,04.01.2021,59.99341786
Y,left,Pretarget,0,44,44,44,2932.872375,2934.872851,left,1,0,1.97,0.913203768,L08B02,2022-10-21_10h33.55.460,t1_Paradigm,04.01.2021,59.99341786
Y,right,Target,0,45,45,45,2936.371772,2938.371559,right,1,0,1.97,0.802530231,L08B02,2022-10-21_10h33.55.460,t1_Paradigm,04.01.2021,59.99341786
Z,left,Pretarget,0,46,46,46,2939.871158,2941.872048,left,1,0,1.97,0.886451434,L08B02,2022-10-21_10h33.55.460,t1_Paradigm,04.01.2021,59.99341786
Z,right,Target,0,47,47,47,2943.370635,2945.370419,right,1,0,1.97,0.576641881,L08B02,2022-10-21_10h33.55.460,t1_Paradigm,04.01.2021,59.99341786
H,left,Pretarget,0,48,48,48,2946.869955,2948.870864,left,1,0,1.97,0.513739956,L08B02,2022-10-21_10h33.55.460,t1_Paradigm,04.01.2021,59.99341786
H,right,Target,0,49,49,49,2950.369536,2952.369147,right,1,0,1.97,0.526197667,L08B02,2022-10-21_10h33.55.460,t1_Paradigm,04.01.2021,59.99341786
Z,left,Lure,0,50,50,50,2953.868784,2955.868961,left,1,0,1.97,0.480038727,L08B02,2022-10-21_10h33.55.460,t1_Paradigm,04.01.2021,59.99341786
R,left,Distractor,0,51,51,51,2957.367523,2959.369024,left,1,0,1.97,0.499025724,L08B02,2022-10-21_10h33.55.460,t1_Paradigm,04.01.2021,59.99341786
H,left,Lure,0,52,52,52,2960.867753,2962.868471,left,1,0,1.97,0.473843075,L08B02,2022-10-21_10h33.55.460,t1_Paradigm,04.01.2021,59.99341786
L,left,Distractor,0,53,53,53,2964.367254,2966.367991,left,1,0,1.97,0.619867085,L08B02,2022-10-21_10h33.55.460,t1_Paradigm,04.01.2021,59.99341786
N,left,Pretarget,0,54,54,54,2967.866399,2969.866292,left,1,0,1.97,0.407854392,L08B02,2022-10-21_10h33.55.460,t1_Paradigm,04.01.2021,59.99341786
N,right,Target,0,55,55,55,2971.365993,2973.365339,right,1,0,1.97,0.648662287,L08B02,2022-10-21_10h33.55.460,t1_Paradigm,04.01.2021,59.99341786
W,left,Distractor,0,56,56,56,2974.865083,2976.866936,left,1,0,1.97,0.60034467,L08B02,2022-10-21_10h33.55.460,t1_Paradigm,04.01.2021,59.99341786
R,left,Pretarget,0,57,57,57,2978.381532,2980.38142,left,1,0,1.97,0.564312171,L08B02,2022-10-21_10h33.55.460,t1_Paradigm,04.01.2021,59.99341786
R,right,Target,0,58,58,58,2981.880936,2983.880551,right,1,0,1.97,0.608371461,L08B02,2022-10-21_10h33.55.460,t1_Paradigm,04.01.2021,59.99341786
Q,left,Distractor,0,59,59,59,2985.379763,2987.381813,left,1,0,1.97,0.654835483,L08B02,2022-10-21_10h33.55.460,t1_Paradigm,04.01.2021,59.99341786
R,left,Lure,0,60,60,60,2988.879612,2990.880867,left,1,0,1.97,0.809107637,L08B02,2022-10-21_10h33.55.460,t1_Paradigm,04.01.2021,59.99341786
Z,left,Distractor,0,61,61,61,2992.379324,2994.380314,left,1,0,1.97,0.694048735,L08B02,2022-10-21_10h33.55.460,t1_Paradigm,04.01.2021,59.99341786
K,left,Pretarget,0,62,62,62,2995.87848,2997.878554,left,1,0,1.97,0.567531742,L08B02,2022-10-21_10h33.55.460,t1_Paradigm,04.01.2021,59.99341786
K,right,Target,0,63,63,63,2999.378016,3001.377607,right,1,0,1.97,0.612539964,L08B02,2022-10-21_10h33.55.460,t1_Paradigm,04.01.2021,59.99341786
