Letter,CorrAnswer,Stimulus,nback_run.thisRepN,nback_run.thisTrialN,nback_run.thisN,nback_run.thisIndex,fixcross.started,nback_trial.started,trial_resp.keys,trial_resp.corr,currentlevel,trial_resp.rt,Participant,date,expName,psychopyVersion,frameRate,
H,left,Distractor,0,0,0,0,297.1855410616845,299.18082045792835,None,0,1,,L08T02,2022-10-21_10h33.55.460,t1_Paradigm,2021.1.4,59.993417861785716,
Q,left,Pretarget,0,1,1,1,300.6790024720831,302.6812127989251,left,1,1,0.5665324430447072,L08T02,2022-10-21_10h33.55.460,t1_Paradigm,2021.1.4,59.993417861785716,
Q,right,Target,0,2,2,2,304.1782190732192,306.17836760461796,right,1,1,0.7944944574846886,L08T02,2022-10-21_10h33.55.460,t1_Paradigm,2021.1.4,59.993417861785716,
T,left,Distractor,0,3,3,3,307.67804680246627,309.6796986127738,left,1,1,1.3411474323365837,L08T02,2022-10-21_10h33.55.460,t1_Paradigm,2021.1.4,59.993417861785716,
Q,left,Lure,0,4,4,4,311.1772265112959,313.17798039637273,left,1,1,1.1925778570584953,L08T02,2022-10-21_10h33.55.460,t1_Paradigm,2021.1.4,59.993417861785716,
L,left,Distractor,0,5,5,5,314.67657367890934,316.6786537601147,left,1,1,0.8217087462544441,L08T02,2022-10-21_10h33.55.460,t1_Paradigm,2021.1.4,59.993417861785716,
V,left,Pretarget,0,6,6,6,318.1757700695307,320.17766568949446,left,1,1,0.6768543808721006,L08T02,2022-10-21_10h33.55.460,t1_Paradigm,2021.1.4,59.993417861785716,
V,right,Target,0,7,7,7,321.6754935380304,323.67536810442107,right,1,1,0.8268415808561258,L08T02,2022-10-21_10h33.55.460,t1_Paradigm,2021.1.4,59.993417861785716,
K,left,Distractor,0,8,8,8,325.17500014434336,327.17648128792644,left,1,1,0.761319664597977,L08T02,2022-10-21_10h33.55.460,t1_Paradigm,2021.1.4,59.993417861785716,
G,left,Pretarget,0,9,9,9,328.67417343717534,330.6765996639151,left,1,1,0.7660636869259179,L08T02,2022-10-21_10h33.55.460,t1_Paradigm,2021.1.4,59.993417861785716,
G,right,Target,0,10,10,10,332.17366079532076,334.17348178772954,right,1,1,0.6805705530568957,L08T02,2022-10-21_10h33.55.460,t1_Paradigm,2021.1.4,59.993417861785716,
G,right,Target,0,11,11,11,335.6732113515027,337.6728222184465,right,1,1,0.6250297543592751,L08T02,2022-10-21_10h33.55.460,t1_Paradigm,2021.1.4,59.993417861785716,
P,left,Pretarget,0,12,12,12,339.17258225847036,341.174059873214,left,1,1,0.6124106806237251,L08T02,2022-10-21_10h33.55.460,t1_Paradigm,2021.1.4,59.993417861785716,
P,right,Target,0,13,13,13,342.67199904011795,344.67171609262004,left,0,1,0.6484460664214566,L08T02,2022-10-21_10h33.55.460,t1_Paradigm,2021.1.4,59.993417861785716,
G,left,Lure,0,14,14,14,346.1717494560289,348.17118741065497,left,1,1,1.1802192747127265,L08T02,2022-10-21_10h33.55.460,t1_Paradigm,2021.1.4,59.993417861785716,
Y,left,Distractor,0,15,15,15,349.67084992676973,351.67401816893835,left,1,1,0.872192419716157,L08T02,2022-10-21_10h33.55.460,t1_Paradigm,2021.1.4,59.993417861785716,
B,left,Distractor,0,16,16,16,353.17036359070335,355.1720346491784,left,1,1,1.311815528490115,L08T02,2022-10-21_10h33.55.460,t1_Paradigm,2021.1.4,59.993417861785716,
T,left,Pretarget,0,17,17,17,356.66966327960836,358.67223033850314,left,1,1,0.6389775907155126,L08T02,2022-10-21_10h33.55.460,t1_Paradigm,2021.1.4,59.993417861785716,
T,right,Target,0,18,18,18,360.1691044422332,362.1687717704335,None,0,1,,L08T02,2022-10-21_10h33.55.460,t1_Paradigm,2021.1.4,59.993417861785716,
S,left,Distractor,0,19,19,19,363.6677910782164,365.6703661571373,left,1,1,0.818252102995757,L08T02,2022-10-21_10h33.55.460,t1_Paradigm,2021.1.4,59.993417861785716,
T,left,Lure,0,20,20,20,367.16773750423454,369.16903129935963,left,1,1,1.0161459726514295,L08T02,2022-10-21_10h33.55.460,t1_Paradigm,2021.1.4,59.993417861785716,
J,left,Distractor,0,21,21,21,370.6671857245383,372.6693367030239,left,1,1,0.7236080875154585,L08T02,2022-10-21_10h33.55.460,t1_Paradigm,2021.1.4,59.993417861785716,
P,left,Distractor,0,22,22,22,374.166788571456,376.16821678268025,left,1,1,0.7910840097465552,L08T02,2022-10-21_10h33.55.460,t1_Paradigm,2021.1.4,59.993417861785716,
F,left,Distractor,0,23,23,23,377.6661161701195,379.66793415596476,left,1,1,0.8166413553990424,L08T02,2022-10-21_10h33.55.460,t1_Paradigm,2021.1.4,59.993417861785716,
L,left,Distractor,0,24,24,24,381.16550760844257,383.1674632183858,left,1,1,0.920254357624799,L08T02,2022-10-21_10h33.55.460,t1_Paradigm,2021.1.4,59.993417861785716,
W,left,Pretarget,0,25,25,25,384.6651787862065,386.6665498946677,left,1,1,0.8486926991026849,L08T02,2022-10-21_10h33.55.460,t1_Paradigm,2021.1.4,59.993417861785716,
W,right,Target,0,26,26,26,388.16410955262836,390.1638740838389,right,1,1,0.8486882078577764,L08T02,2022-10-21_10h33.55.460,t1_Paradigm,2021.1.4,59.993417861785716,
V,left,Distractor,0,27,27,27,391.6637303644675,393.6642218334018,left,1,1,0.8656711534131318,L08T02,2022-10-21_10h33.55.460,t1_Paradigm,2021.1.4,59.993417861785716,
W,left,Lure,0,28,28,28,395.17982532962924,397.1822181929019,left,1,1,1.1382869036169723,L08T02,2022-10-21_10h33.55.460,t1_Paradigm,2021.1.4,59.993417861785716,
R,left,Pretarget,0,29,29,29,398.67936112888856,400.6806642272859,left,1,1,0.6425747452885844,L08T02,2022-10-21_10h33.55.460,t1_Paradigm,2021.1.4,59.993417861785716,
R,right,Target,0,30,30,30,402.1792151639238,404.17843786027515,right,1,1,0.7194912334089167,L08T02,2022-10-21_10h33.55.460,t1_Paradigm,2021.1.4,59.993417861785716,
G,left,Distractor,0,31,31,31,405.6780002861051,407.67886869754875,left,1,1,0.5816265054163523,L08T02,2022-10-21_10h33.55.460,t1_Paradigm,2021.1.4,59.993417861785716,
R,left,Lure,0,32,32,32,409.1778379602474,411.17865023127524,left,1,1,0.8111922098905779,L08T02,2022-10-21_10h33.55.460,t1_Paradigm,2021.1.4,59.993417861785716,
S,left,Distractor,0,33,33,33,412.6768425111077,414.67737664672313,left,1,1,0.6907858562190086,L08T02,2022-10-21_10h33.55.460,t1_Paradigm,2021.1.4,59.993417861785716,
R,left,Lure,0,34,34,34,416.1764071825892,418.1770741302753,left,1,1,0.5983842478599399,L08T02,2022-10-21_10h33.55.460,t1_Paradigm,2021.1.4,59.993417861785716,
P,left,Pretarget,0,35,35,35,419.6757200243883,421.67691116279457,None,0,1,,L08T02,2022-10-21_10h33.55.460,t1_Paradigm,2021.1.4,59.993417861785716,
P,right,Target,0,36,36,36,423.1753815780976,425.1748381392681,right,1,1,0.7004387931665406,L08T02,2022-10-21_10h33.55.460,t1_Paradigm,2021.1.4,59.993417861785716,
Y,left,Pretarget,0,37,37,37,426.6746668308624,428.6764674934093,left,1,1,0.6958660791860893,L08T02,2022-10-21_10h33.55.460,t1_Paradigm,2021.1.4,59.993417861785716,
Y,right,Target,0,38,38,38,430.17405217397027,432.1739206450875,right,1,1,0.6997163467458449,L08T02,2022-10-21_10h33.55.460,t1_Paradigm,2021.1.4,59.993417861785716,
J,left,Distractor,0,39,39,39,433.6734388002078,435.67257038876414,left,1,1,0.779983613465447,L08T02,2022-10-21_10h33.55.460,t1_Paradigm,2021.1.4,59.993417861785716,
Y,left,Lure,0,40,40,40,437.1729094766779,439.17328545678174,left,1,1,0.7841902921209112,L08T02,2022-10-21_10h33.55.460,t1_Paradigm,2021.1.4,59.993417861785716,
T,left,Distractor,0,41,41,41,440.6722296968801,442.67258225847036,left,1,1,0.6551553228055127,L08T02,2022-10-21_10h33.55.460,t1_Paradigm,2021.1.4,59.993417861785716,
V,left,Distractor,0,42,42,42,444.1715499170823,446.17250462435186,left,1,1,0.5543929685372859,L08T02,2022-10-21_10h33.55.460,t1_Paradigm,2021.1.4,59.993417861785716,
N,left,Pretarget,0,43,43,43,447.6710982276709,449.67396106611704,left,1,1,0.6803982823039405,L08T02,2022-10-21_10h33.55.460,t1_Paradigm,2021.1.4,59.993417861785716,
N,right,Target,0,44,44,44,451.1704935156158,453.17018490389455,right,1,1,0.6202494814060628,L08T02,2022-10-21_10h33.55.460,t1_Paradigm,2021.1.4,59.993417861785716,
N,right,Target,0,45,45,45,454.66989297396503,456.66979512927355,right,1,1,0.4747621733113192,L08T02,2022-10-21_10h33.55.460,t1_Paradigm,2021.1.4,59.993417861785716,
X,left,Distractor,0,46,46,46,458.16969985107426,460.17281195282703,left,1,1,0.6278755903476849,L08T02,2022-10-21_10h33.55.460,t1_Paradigm,2021.1.4,59.993417861785716,
Z,left,Distractor,0,47,47,47,461.66859500843566,463.67048228753265,left,1,1,0.6067866979865357,L08T02,2022-10-21_10h33.55.460,t1_Paradigm,2021.1.4,59.993417861785716,
H,left,Pretarget,0,48,48,48,465.1681179755833,467.1683848830289,left,1,1,0.6137452176189981,L08T02,2022-10-21_10h33.55.460,t1_Paradigm,2021.1.4,59.993417861785716,
H,right,Target,0,49,49,49,468.6677987774601,470.6672559801955,right,1,1,0.5177095623803325,L08T02,2022-10-21_10h33.55.460,t1_Paradigm,2021.1.4,59.993417861785716,
K,left,Distractor,0,50,50,50,472.16637184948195,474.1685911588138,left,1,1,0.5466176865738817,L08T02,2022-10-21_10h33.55.460,t1_Paradigm,2021.1.4,59.993417861785716,
V,left,Pretarget,0,51,51,51,475.6663185962825,477.666428310622,left,1,1,0.5908258281997405,L08T02,2022-10-21_10h33.55.460,t1_Paradigm,2021.1.4,59.993417861785716,
V,right,Target,0,52,52,52,479.1658110872959,481.1657863855362,right,1,1,0.5151216514059342,L08T02,2022-10-21_10h33.55.460,t1_Paradigm,2021.1.4,59.993417861785716,
R,left,Distractor,0,53,53,53,482.66531223990023,484.6667330726632,left,1,1,0.5395308460574597,L08T02,2022-10-21_10h33.55.460,t1_Paradigm,2021.1.4,59.993417861785716,
V,left,Lure,0,54,54,54,486.1647752171266,488.1664036088623,left,1,1,0.7370631716912612,L08T02,2022-10-21_10h33.55.460,t1_Paradigm,2021.1.4,59.993417861785716,
Y,left,Distractor,0,55,55,55,489.664030635322,491.663998555101,left,1,1,0.6506547892931849,L08T02,2022-10-21_10h33.55.460,t1_Paradigm,2021.1.4,59.993417861785716,
Q,left,Distractor,0,56,56,56,493.163699888275,495.1756616383791,left,1,1,0.4689219699939713,L08T02,2022-10-21_10h33.55.460,t1_Paradigm,2021.1.4,59.993417861785716,
Z,left,Pretarget,0,57,57,57,496.67954719415866,498.6790419307654,left,1,1,0.5030867583700456,L08T02,2022-10-21_10h33.55.460,t1_Paradigm,2021.1.4,59.993417861785716,
Z,right,Target,0,58,58,58,500.17889949458186,502.17885971511714,right,1,1,0.6022377234185115,L08T02,2022-10-21_10h33.55.460,t1_Paradigm,2021.1.4,59.993417861785716,
B,left,Distractor,0,59,59,59,503.6783868527273,505.677600566647,left,1,1,0.5352661021752283,L08T02,2022-10-21_10h33.55.460,t1_Paradigm,2021.1.4,59.993417861785716,
S,left,Pretarget,0,60,60,60,507.1778976294445,509.1786133390269,left,1,1,0.6989290982601233,L08T02,2022-10-21_10h33.55.460,t1_Paradigm,2021.1.4,59.993417861785716,
S,right,Target,0,61,61,61,510.6769647367764,512.6768659296795,right,1,1,0.75051280221669,L08T02,2022-10-21_10h33.55.460,t1_Paradigm,2021.1.4,59.993417861785716,
T,left,Distractor,0,62,62,62,514.1766991125769,516.1783858903218,left,1,1,0.4726153652300127,L08T02,2022-10-21_10h33.55.460,t1_Paradigm,2021.1.4,59.993417861785716,
D,left,Distractor,0,63,63,63,517.676072906761,519.678330391529,left,1,1,0.9878297284594737,L08T02,2022-10-21_10h33.55.460,t1_Paradigm,2021.1.4,59.993417861785716,
R,left,Distractor,0,0,0,0,587.6731969154207,589.6660455936799,None,0,1,,L08T02,2022-10-21_10h33.55.460,t1_Paradigm,2021.1.4,59.993417861785716,
V,left,Distractor,0,1,1,1,591.1637505749823,593.1636681288364,left,1,1,0.5351589542697184,L08T02,2022-10-21_10h33.55.460,t1_Paradigm,2021.1.4,59.993417861785716,
N,left,Pretarget,0,2,2,2,594.663228309073,596.6651021144935,left,1,1,0.4860977175994776,L08T02,2022-10-21_10h33.55.460,t1_Paradigm,2021.1.4,59.993417861785716,
N,right,Target,0,3,3,3,598.1626633764827,600.1623056820827,right,1,1,0.4289429633063264,L08T02,2022-10-21_10h33.55.460,t1_Paradigm,2021.1.4,59.993417861785716,
S,left,Distractor,0,4,4,4,601.6621542634675,603.6633338530082,left,1,1,0.4942675862694159,L08T02,2022-10-21_10h33.55.460,t1_Paradigm,2021.1.4,59.993417861785716,
N,left,Lure,0,5,5,5,605.1615203584079,607.1617397870868,left,1,1,0.6931966844713315,L08T02,2022-10-21_10h33.55.460,t1_Paradigm,2021.1.4,59.993417861785716,
Z,left,Distractor,0,6,6,6,608.6609371400555,610.6623688801192,left,1,1,0.5097045861184597,L08T02,2022-10-21_10h33.55.460,t1_Paradigm,2021.1.4,59.993417861785716,
L,left,Pretarget,0,7,7,7,612.159766212164,614.1599141019979,left,1,1,0.4605499960016459,L08T02,2022-10-21_10h33.55.460,t1_Paradigm,2021.1.4,59.993417861785716,
L,right,Target,0,8,8,8,615.6597235454828,617.6593427533517,right,1,1,0.48692025436321273,L08T02,2022-10-21_10h33.55.460,t1_Paradigm,2021.1.4,59.993417861785716,
H,left,Distractor,0,9,9,9,619.1592343222001,621.1589706228115,left,1,1,0.6025716784060933,L08T02,2022-10-21_10h33.55.460,t1_Paradigm,2021.1.4,59.993417861785716,
L,left,Lure,0,10,10,10,622.6582853894215,624.6600879767793,left,1,1,1.2438702727667987,L08T02,2022-10-21_10h33.55.460,t1_Paradigm,2021.1.4,59.993417861785716,
X,left,Pretarget,0,11,11,11,626.1580460710102,628.1578484568745,left,1,1,0.4718974099960178,L08T02,2022-10-21_10h33.55.460,t1_Paradigm,2021.1.4,59.993417861785716,
X,right,Target,0,12,12,12,629.6575603765668,631.6570656996337,right,1,1,0.7104750887374394,L08T02,2022-10-21_10h33.55.460,t1_Paradigm,2021.1.4,59.993417861785716,
X,right,Target,0,13,13,13,633.1569733085926,635.1564619499259,right,1,1,0.46358285966562107,L08T02,2022-10-21_10h33.55.460,t1_Paradigm,2021.1.4,59.993417861785716,
R,left,Distractor,0,14,14,14,636.6563297794783,638.6579094093177,left,1,1,0.4834071499062702,L08T02,2022-10-21_10h33.55.460,t1_Paradigm,2021.1.4,59.993417861785716,
T,left,Distractor,0,15,15,15,640.1556304307305,642.1562277643825,left,1,1,0.45805223047500476,L08T02,2022-10-21_10h33.55.460,t1_Paradigm,2021.1.4,59.993417861785716,
V,left,Pretarget,0,16,16,16,643.6549734279397,645.6550090369419,left,1,1,0.48456139606423676,L08T02,2022-10-21_10h33.55.460,t1_Paradigm,2021.1.4,59.993417861785716,
V,right,Target,0,17,17,17,647.1543757735053,649.154072294652,right,1,1,0.4215266589890234,L08T02,2022-10-21_10h33.55.460,t1_Paradigm,2021.1.4,59.993417861785716,
N,left,Distractor,0,18,18,18,650.6536821992486,652.6554058692418,left,1,1,0.43804861180251464,L08T02,2022-10-21_10h33.55.460,t1_Paradigm,2021.1.4,59.993417861785716,
B,left,Distractor,0,19,19,19,654.1532378882403,656.1540649161907,left,1,1,0.4896230125450529,L08T02,2022-10-21_10h33.55.460,t1_Paradigm,2021.1.4,59.993417861785716,
V,left,Lure,0,20,20,20,657.6526626899722,659.6545374577981,left,1,1,0.6987343712826259,L08T02,2022-10-21_10h33.55.460,t1_Paradigm,2021.1.4,59.993417861785716,
P,left,Distractor,0,21,21,21,661.1519168249797,663.1535679936642,left,1,1,0.5375043388339691,L08T02,2022-10-21_10h33.55.460,t1_Paradigm,2021.1.4,59.993417861785716,
K,left,Pretarget,0,22,22,22,664.6514693059144,666.6512322331546,left,1,1,0.43907710356870666,L08T02,2022-10-21_10h33.55.460,t1_Paradigm,2021.1.4,59.993417861785716,
K,right,Target,0,23,23,23,668.1509601928992,670.1507943382021,right,1,1,0.449059825099539,L08T02,2022-10-21_10h33.55.460,t1_Paradigm,2021.1.4,59.993417861785716,
J,left,Pretarget,0,24,24,24,671.6502839419409,673.6511433709529,left,1,1,0.4457635829458013,L08T02,2022-10-21_10h33.55.460,t1_Paradigm,2021.1.4,59.993417861785716,
J,right,Target,0,25,25,25,675.1497417862993,677.1494764829404,right,1,1,0.42403372790431604,L08T02,2022-10-21_10h33.55.460,t1_Paradigm,2021.1.4,59.993417861785716,
H,left,Distractor,0,26,26,26,678.6491726833046,680.6511555614416,left,1,1,0.4562980842310935,L08T02,2022-10-21_10h33.55.460,t1_Paradigm,2021.1.4,59.993417861785716,
J,left,Lure,0,27,27,27,682.1648865354364,684.1669983760803,left,1,1,0.5889715917292051,L08T02,2022-10-21_10h33.55.460,t1_Paradigm,2021.1.4,59.993417861785716,
V,left,Distractor,0,28,28,28,685.6645551468246,687.6644547357573,left,1,1,0.5886758121196181,L08T02,2022-10-21_10h33.55.460,t1_Paradigm,2021.1.4,59.993417861785716,
Z,left,Pretarget,0,29,29,29,689.164637272188,691.1645666956902,left,1,1,0.48773348779650405,L08T02,2022-10-21_10h33.55.460,t1_Paradigm,2021.1.4,59.993417861785716,
Z,right,Target,0,30,30,30,692.6634958580835,694.6631740935263,right,1,1,0.4253509415430017,L08T02,2022-10-21_10h33.55.460,t1_Paradigm,2021.1.4,59.993417861785716,
T,left,Distractor,0,31,31,31,696.1630922890035,698.163714324357,left,1,1,0.4993632077239454,L08T02,2022-10-21_10h33.55.460,t1_Paradigm,2021.1.4,59.993417861785716,
Z,left,Lure,0,32,32,32,699.6625555869541,701.6623457823298,right,0,1,0.6122634324710816,L08T02,2022-10-21_10h33.55.460,t1_Paradigm,2021.1.4,59.993417861785716,
F,left,Distractor,0,33,33,33,703.1611017115647,705.1632854118943,left,1,1,0.47398005763534456,L08T02,2022-10-21_10h33.55.460,t1_Paradigm,2021.1.4,59.993417861785716,
Y,left,Pretarget,0,34,34,34,706.660731826676,708.6611001075944,left,1,1,0.44085338508011773,L08T02,2022-10-21_10h33.55.460,t1_Paradigm,2021.1.4,59.993417861785716,
Y,right,Target,0,35,35,35,710.1606291700155,712.160154061974,right,1,1,0.5328713140334003,L08T02,2022-10-21_10h33.55.460,t1_Paradigm,2021.1.4,59.993417861785716,
Y,right,Target,0,36,36,36,713.6599866032484,715.6596504026093,right,1,1,0.4037327255937271,L08T02,2022-10-21_10h33.55.460,t1_Paradigm,2021.1.4,59.993417861785716,
W,left,Distractor,0,37,37,37,717.1593584726215,719.1598964578588,left,1,1,0.4907207975629717,L08T02,2022-10-21_10h33.55.460,t1_Paradigm,2021.1.4,59.993417861785716,
Q,left,Distractor,0,38,38,38,720.6587624222157,722.6582590836333,left,1,1,0.4609019160270691,L08T02,2022-10-21_10h33.55.460,t1_Paradigm,2021.1.4,59.993417861785716,
P,left,Pretarget,0,39,39,39,724.1582100008964,726.1581519357278,left,1,1,0.5399212623015046,L08T02,2022-10-21_10h33.55.460,t1_Paradigm,2021.1.4,59.993417861785716,
P,right,Target,0,40,40,40,727.6577166072093,729.6573056596098,right,1,1,0.4684654685552232,L08T02,2022-10-21_10h33.55.460,t1_Paradigm,2021.1.4,59.993417861785716,
J,left,Distractor,0,41,41,41,731.1570859101485,733.1578635345795,left,1,1,0.6159048578119837,L08T02,2022-10-21_10h33.55.460,t1_Paradigm,2021.1.4,59.993417861785716,
P,left,Lure,0,42,42,42,734.6565042958246,736.6579700409202,right,0,1,0.992614492715802,L08T02,2022-10-21_10h33.55.460,t1_Paradigm,2021.1.4,59.993417861785716,
L,left,Distractor,0,43,43,43,738.1560314334347,740.1563583308598,left,1,1,0.4492426823708229,L08T02,2022-10-21_10h33.55.460,t1_Paradigm,2021.1.4,59.993417861785716,
Z,left,Distractor,0,44,44,44,741.6553776386427,743.6570685868501,left,1,1,0.4619294453295879,L08T02,2022-10-21_10h33.55.460,t1_Paradigm,2021.1.4,59.993417861785716,
F,left,Pretarget,0,45,45,45,745.1547844754532,747.1560731377103,left,1,1,0.4561649513198063,L08T02,2022-10-21_10h33.55.460,t1_Paradigm,2021.1.4,59.993417861785716,
F,right,Target,0,46,46,46,748.654230129323,750.6538175777532,right,1,1,0.45136222220025957,L08T02,2022-10-21_10h33.55.460,t1_Paradigm,2021.1.4,59.993417861785716,
G,left,Pretarget,0,47,47,47,752.1534868307062,754.1536311917007,left,1,1,0.46923411049647257,L08T02,2022-10-21_10h33.55.460,t1_Paradigm,2021.1.4,59.993417861785716,
G,right,Target,0,48,48,48,755.6528416975634,757.6525998127763,right,1,1,0.6183034955174662,L08T02,2022-10-21_10h33.55.460,t1_Paradigm,2021.1.4,59.993417861785716,
V,left,Distractor,0,49,49,49,759.151839832426,761.1522042636643,left,1,1,0.4244023295468651,L08T02,2022-10-21_10h33.55.460,t1_Paradigm,2021.1.4,59.993417861785716,
G,left,Lure,0,50,50,50,762.651857476565,764.6529889457743,left,1,1,0.4331916670780629,L08T02,2022-10-21_10h33.55.460,t1_Paradigm,2021.1.4,59.993417861785716,
Q,left,Pretarget,0,51,51,51,766.1512271002866,768.1528035221272,left,1,1,0.47972369950730354,L08T02,2022-10-21_10h33.55.460,t1_Paradigm,2021.1.4,59.993417861785716,
Q,right,Target,0,52,52,52,769.6505229395698,771.650329816679,right,1,1,0.4103133403114043,L08T02,2022-10-21_10h33.55.460,t1_Paradigm,2021.1.4,59.993417861785716,
Y,left,Distractor,0,53,53,53,773.1502704682644,775.149923039542,left,1,1,0.4404421166982502,L08T02,2022-10-21_10h33.55.460,t1_Paradigm,2021.1.4,59.993417861785716,
V,left,Distractor,0,54,54,54,776.6493818463059,778.6513435515226,left,1,1,0.5794915670412593,L08T02,2022-10-21_10h33.55.460,t1_Paradigm,2021.1.4,59.993417861785716,
B,left,Distractor,0,55,55,55,780.1654796986259,782.1663381652324,left,1,1,0.41135017288615927,L08T02,2022-10-21_10h33.55.460,t1_Paradigm,2021.1.4,59.993417861785716,
J,left,Pretarget,0,56,56,56,783.6649879089673,785.6660581049509,left,1,1,0.44900240149581805,L08T02,2022-10-21_10h33.55.460,t1_Paradigm,2021.1.4,59.993417861785716,
J,right,Target,0,57,57,57,787.1643815928837,789.1640181239927,right,1,1,0.38706705340882763,L08T02,2022-10-21_10h33.55.460,t1_Paradigm,2021.1.4,59.993417861785716,
H,left,Distractor,0,58,58,58,790.6637618030654,792.6648592673009,left,1,1,0.42039422737434506,L08T02,2022-10-21_10h33.55.460,t1_Paradigm,2021.1.4,59.993417861785716,
J,left,Lure,0,59,59,59,794.1632558981073,796.1643617031514,left,1,1,0.552882952732034,L08T02,2022-10-21_10h33.55.460,t1_Paradigm,2021.1.4,59.993417861785716,
D,left,Pretarget,0,60,60,60,797.6621430353844,799.6645298034418,left,1,1,0.5787165090441704,L08T02,2022-10-21_10h33.55.460,t1_Paradigm,2021.1.4,59.993417861785716,
D,right,Target,0,61,61,61,801.1620137520949,803.1616830051062,right,1,1,0.36680390586843714,L08T02,2022-10-21_10h33.55.460,t1_Paradigm,2021.1.4,59.993417861785716,
R,left,Distractor,0,62,62,62,804.6615469849785,806.6616538121016,left,1,1,0.4335650808061473,L08T02,2022-10-21_10h33.55.460,t1_Paradigm,2021.1.4,59.993417861785716,
F,left,Distractor,0,63,63,63,808.1608909445349,810.1610863130772,left,1,1,0.5256353005534038,L08T02,2022-10-21_10h33.55.460,t1_Paradigm,2021.1.4,59.993417861785716,
F,left,Distractor,0,0,0,0,908.2890507656266,910.2764974563033,None,0,2,,L08T02,2022-10-21_10h33.55.460,t1_Paradigm,2021.1.4,59.993417861785716,
N,left,Pretarget,0,1,1,1,911.7768455266487,913.7780899182544,None,0,2,,L08T02,2022-10-21_10h33.55.460,t1_Paradigm,2021.1.4,59.993417861785716,
V,left,Distractor,0,2,2,2,915.2762870101142,917.2776901987381,left,1,2,0.6402065837173723,L08T02,2022-10-21_10h33.55.460,t1_Paradigm,2021.1.4,59.993417861785716,
N,right,Target,0,3,3,3,918.7757207942777,920.7755850949907,right,1,2,0.9169911580393091,L08T02,2022-10-21_10h33.55.460,t1_Paradigm,2021.1.4,59.993417861785716,
N,left,Lure,0,4,4,4,922.2751022877637,924.2748462876189,left,1,2,0.8497587246820331,L08T02,2022-10-21_10h33.55.460,t1_Paradigm,2021.1.4,59.993417861785716,
X,left,Distractor,0,5,5,5,925.7744953300571,927.7755652052583,left,1,2,1.258955352648627,L08T02,2022-10-21_10h33.55.460,t1_Paradigm,2021.1.4,59.993417861785716,
G,left,Pretarget,0,6,6,6,929.2739082620828,931.2753833104507,left,1,2,0.950109489785973,L08T02,2022-10-21_10h33.55.460,t1_Paradigm,2021.1.4,59.993417861785716,
H,left,Pretarget,0,7,7,7,932.7734180763946,934.7740067483392,left,1,2,0.7530490641365759,L08T02,2022-10-21_10h33.55.460,t1_Paradigm,2021.1.4,59.993417861785716,
G,right,Target,0,8,8,8,936.2726648329408,938.273635901045,right,1,2,0.4408350993762724,L08T02,2022-10-21_10h33.55.460,t1_Paradigm,2021.1.4,59.993417861785716,
H,right,Target,0,9,9,9,939.7720257950132,941.7720999003504,right,1,2,0.7046271861763671,L08T02,2022-10-21_10h33.55.460,t1_Paradigm,2021.1.4,59.993417861785716,
T,left,Pretarget,0,10,10,10,943.2714470679639,945.2724267977173,left,1,2,0.5673171251546592,L08T02,2022-10-21_10h33.55.460,t1_Paradigm,2021.1.4,59.993417861785716,
K,left,Distractor,0,11,11,11,946.7707525312435,948.7725743667106,left,1,2,1.0664907387690619,L08T02,2022-10-21_10h33.55.460,t1_Paradigm,2021.1.4,59.993417861785716,
T,right,Target,0,12,12,12,950.2702671575826,952.271814707201,right,1,2,0.7465990158962086,L08T02,2022-10-21_10h33.55.460,t1_Paradigm,2021.1.4,59.993417861785716,
T,left,Lure,0,13,13,13,953.7699206912657,955.7695424655103,left,1,2,1.2357382588088512,L08T02,2022-10-21_10h33.55.460,t1_Paradigm,2021.1.4,59.993417861785716,
J,left,Distractor,0,14,14,14,957.2693750067847,959.2704910775064,left,1,2,0.9219122632057406,L08T02,2022-10-21_10h33.55.460,t1_Paradigm,2021.1.4,59.993417861785716,
Q,left,Pretarget,0,15,15,15,960.7687462345348,962.7691170818289,left,1,2,1.0553085378487594,L08T02,2022-10-21_10h33.55.460,t1_Paradigm,2021.1.4,59.993417861785716,
M,left,Distractor,0,16,16,16,964.2681610914296,966.2696958089364,left,1,2,1.1910126633592881,L08T02,2022-10-21_10h33.55.460,t1_Paradigm,2021.1.4,59.993417861785716,
Q,right,Target,0,17,17,17,967.7674995973939,969.769113232207,right,1,2,0.8827025400823914,L08T02,2022-10-21_10h33.55.460,t1_Paradigm,2021.1.4,59.993417861785716,
R,left,Distractor,0,18,18,18,971.266917341447,973.2664200980798,left,1,2,0.9808619055547751,L08T02,2022-10-21_10h33.55.460,t1_Paradigm,2021.1.4,59.993417861785716,
W,left,Distractor,0,19,19,19,974.7663966795662,976.7678431764944,left,1,2,0.9075586121762171,L08T02,2022-10-21_10h33.55.460,t1_Paradigm,2021.1.4,59.993417861785716,
C,left,Pretarget,0,20,20,20,978.2657258822001,980.2676770009566,left,1,2,1.0972001670743339,L08T02,2022-10-21_10h33.55.460,t1_Paradigm,2021.1.4,59.993417861785716,
T,left,Distractor,0,21,21,21,981.7650794658693,983.7668952061213,left,1,2,1.1606891600531526,L08T02,2022-10-21_10h33.55.460,t1_Paradigm,2021.1.4,59.993417861785716,
C,right,Target,0,22,22,22,985.2649498617975,987.2648725484614,right,1,2,0.9765682895085774,L08T02,2022-10-21_10h33.55.460,t1_Paradigm,2021.1.4,59.993417861785716,
F,left,Pretarget,0,23,23,23,988.7641561972559,990.7650659921928,left,1,2,1.083714606706053,L08T02,2022-10-21_10h33.55.460,t1_Paradigm,2021.1.4,59.993417861785716,
C,right,Target,0,24,24,24,992.2634170691017,994.2651246989844,right,1,2,0.5096198943792842,L08T02,2022-10-21_10h33.55.460,t1_Paradigm,2021.1.4,59.993417861785716,
F,right,Target,0,25,25,25,995.7626651088358,997.7643842875841,right,1,2,1.140853320946917,L08T02,2022-10-21_10h33.55.460,t1_Paradigm,2021.1.4,59.993417861785716,
H,left,Distractor,0,26,26,26,999.2622676349711,1001.2633705527987,left,1,2,0.9596918502938934,L08T02,2022-10-21_10h33.55.460,t1_Paradigm,2021.1.4,59.993417861785716,
H,left,Lure,0,27,27,27,1002.7616289178259,1004.7613456495455,left,1,2,1.1104380681645125,L08T02,2022-10-21_10h33.55.460,t1_Paradigm,2021.1.4,59.993417861785716,
P,left,Distractor,0,28,28,28,1006.2610983110499,1008.2618804267258,left,1,2,1.3154531041509472,L08T02,2022-10-21_10h33.55.460,t1_Paradigm,2021.1.4,59.993417861785716,
G,left,Pretarget,0,29,29,29,1009.7772330556763,1011.7783908306737,left,1,2,1.2760181779158302,L08T02,2022-10-21_10h33.55.460,t1_Paradigm,2021.1.4,59.993417861785716,
K,left,Distractor,0,30,30,30,1013.2766081330483,1015.2765924137784,left,1,2,1.063098897517193,L08T02,2022-10-21_10h33.55.460,t1_Paradigm,2021.1.4,59.993417861785716,
G,right,Target,0,31,31,31,1016.775917446008,1018.777852524654,right,1,2,0.7693955381400883,L08T02,2022-10-21_10h33.55.460,t1_Paradigm,2021.1.4,59.993417861785716,
M,left,Pretarget,0,32,32,32,1020.2753441725508,1022.2765705992351,left,1,2,1.0459330948069692,L08T02,2022-10-21_10h33.55.460,t1_Paradigm,2021.1.4,59.993417861785716,
B,left,Distractor,0,33,33,33,1023.7752614056226,1025.7764843034674,left,1,2,0.9817710589268245,L08T02,2022-10-21_10h33.55.460,t1_Paradigm,2021.1.4,59.993417861785716,
M,right,Target,0,34,34,34,1027.2742999615148,1029.2755347290658,right,1,2,0.5761279564467259,L08T02,2022-10-21_10h33.55.460,t1_Paradigm,2021.1.4,59.993417861785716,
M,left,Lure,0,35,35,35,1030.7735986880143,1032.7733086828957,left,1,2,1.359897356131114,L08T02,2022-10-21_10h33.55.460,t1_Paradigm,2021.1.4,59.993417861785716,
T,left,Distractor,0,36,36,36,1034.2731036902987,1036.2744440017268,left,1,2,1.0254232503357343,L08T02,2022-10-21_10h33.55.460,t1_Paradigm,2021.1.4,59.993417861785716,
F,left,Distractor,0,37,37,37,1037.7724123616354,1039.7726888930774,left,1,2,1.0290617884602398,L08T02,2022-10-21_10h33.55.460,t1_Paradigm,2021.1.4,59.993417861785716,
X,left,Distractor,0,38,38,38,1041.2719433488674,1043.2733754097135,None,0,2,,L08T02,2022-10-21_10h33.55.460,t1_Paradigm,2021.1.4,59.993417861785716,
C,left,Distractor,0,39,39,39,1044.7713431280572,1046.7728932440514,left,1,2,1.0152634459082037,L08T02,2022-10-21_10h33.55.460,t1_Paradigm,2021.1.4,59.993417861785716,
R,left,Distractor,0,40,40,40,1048.2707066565636,1050.270425313036,left,1,2,0.9625007939757779,L08T02,2022-10-21_10h33.55.460,t1_Paradigm,2021.1.4,59.993417861785716,
B,left,Pretarget,0,41,41,41,1051.7702068467624,1053.7704949271283,left,1,2,1.3804588497732766,L08T02,2022-10-21_10h33.55.460,t1_Paradigm,2021.1.4,59.993417861785716,
H,left,Distractor,0,42,42,42,1055.2692184553598,1057.2710284211207,left,1,2,1.2261318381060846,L08T02,2022-10-21_10h33.55.460,t1_Paradigm,2021.1.4,59.993417861785716,
B,right,Target,0,43,43,43,1058.769003197085,1060.7701218342409,right,1,2,0.861700905894395,L08T02,2022-10-21_10h33.55.460,t1_Paradigm,2021.1.4,59.993417861785716,
W,left,Pretarget,0,44,44,44,1062.2682903746609,1064.2688424751977,left,1,2,0.9541005894425325,L08T02,2022-10-21_10h33.55.460,t1_Paradigm,2021.1.4,59.993417861785716,
L,left,Pretarget,0,45,45,45,1065.7678165499237,1067.7690930216922,left,1,2,1.1190673254895955,L08T02,2022-10-21_10h33.55.460,t1_Paradigm,2021.1.4,59.993417861785716,
W,right,Target,0,46,46,46,1069.2672336523538,1071.2682409711415,right,1,2,1.0482890658313408,L08T02,2022-10-21_10h33.55.460,t1_Paradigm,2021.1.4,59.993417861785716,
L,right,Target,0,47,47,47,1072.7666873263079,1074.7665965392953,right,1,2,0.9454447056050412,L08T02,2022-10-21_10h33.55.460,t1_Paradigm,2021.1.4,59.993417861785716,
W,right,Target,0,48,48,48,1076.2659533309634,1078.2668618426542,right,1,2,0.6120635727420449,L08T02,2022-10-21_10h33.55.460,t1_Paradigm,2021.1.4,59.993417861785716,
X,left,Distractor,0,49,49,49,1079.7653826239402,1081.76633893518,left,1,2,0.6876111980527639,L08T02,2022-10-21_10h33.55.460,t1_Paradigm,2021.1.4,59.993417861785716,
R,left,Distractor,0,50,50,50,1083.2648096712655,1085.2664252309478,left,1,2,0.762657409592066,L08T02,2022-10-21_10h33.55.460,t1_Paradigm,2021.1.4,59.993417861785716,
V,left,Pretarget,0,51,51,51,1086.764356698608,1088.7641000568983,left,1,2,0.8726062544737943,L08T02,2022-10-21_10h33.55.460,t1_Paradigm,2021.1.4,59.993417861785716,
Z,left,Distractor,0,52,52,52,1090.2636624827283,1092.2641321371193,left,1,2,0.7478045904426835,L08T02,2022-10-21_10h33.55.460,t1_Paradigm,2021.1.4,59.993417861785716,
V,right,Target,0,53,53,53,1093.7623818404973,1095.764704448171,right,1,2,1.4508912846213207,L08T02,2022-10-21_10h33.55.460,t1_Paradigm,2021.1.4,59.993417861785716,
V,left,Lure,0,54,54,54,1097.2625682265498,1099.2619635144947,None,0,2,,L08T02,2022-10-21_10h33.55.460,t1_Paradigm,2021.1.4,59.993417861785716,
N,left,Distractor,0,55,55,55,1100.761875293916,1102.7631148734363,left,1,2,0.815264793287497,L08T02,2022-10-21_10h33.55.460,t1_Paradigm,2021.1.4,59.993417861785716,
B,left,Distractor,0,56,56,56,1104.2614040355547,1106.2627642367152,left,1,2,1.013057610252872,L08T02,2022-10-21_10h33.55.460,t1_Paradigm,2021.1.4,59.993417861785716,
V,left,Lure,0,57,57,57,1107.7774579380057,1109.777926629933,left,1,2,1.027820925693959,L08T02,2022-10-21_10h33.55.460,t1_Paradigm,2021.1.4,59.993417861785716,
J,left,Distractor,0,58,58,58,1111.276510288415,1113.276725225849,left,1,2,1.0227050936082378,L08T02,2022-10-21_10h33.55.460,t1_Paradigm,2021.1.4,59.993417861785716,
H,left,Distractor,0,59,59,59,1114.7762231705128,1116.7763861379935,left,1,2,1.0205605311784893,L08T02,2022-10-21_10h33.55.460,t1_Paradigm,2021.1.4,59.993417861785716,
X,left,Pretarget,0,60,60,60,1118.2756726740045,1120.277371642238,left,1,2,1.062101523624733,L08T02,2022-10-21_10h33.55.460,t1_Paradigm,2021.1.4,59.993417861785716,
P,left,Distractor,0,61,61,61,1121.7751616361202,1123.7759639623691,left,1,2,0.9833093052729964,L08T02,2022-10-21_10h33.55.460,t1_Paradigm,2021.1.4,59.993417861785716,
X,right,Target,0,62,62,62,1125.2741588085773,1127.275731380796,right,1,2,0.838552784465719,L08T02,2022-10-21_10h33.55.460,t1_Paradigm,2021.1.4,59.993417861785716,
Q,left,Distractor,0,63,63,63,1128.7739281518152,1130.775728172739,left,1,2,0.81530649762135,L08T02,2022-10-21_10h33.55.460,t1_Paradigm,2021.1.4,59.993417861785716,
B,left,Pretarget,0,0,0,0,1149.07703678892,1151.0723983105272,None,0,2,,L08T02,2022-10-21_10h33.55.460,t1_Paradigm,2021.1.4,59.993417861785716,
F,left,Distractor,0,1,1,1,1152.569255090959,1154.5710554326652,None,0,2,,L08T02,2022-10-21_10h33.55.460,t1_Paradigm,2021.1.4,59.993417861785716,
B,right,Target,0,2,2,2,1156.069390148623,1158.0712626708555,right,1,2,0.6985290579032153,L08T02,2022-10-21_10h33.55.460,t1_Paradigm,2021.1.4,59.993417861785716,
V,left,Distractor,0,3,3,3,1159.568801155896,1161.5699505900266,left,1,2,0.7339141777483746,L08T02,2022-10-21_10h33.55.460,t1_Paradigm,2021.1.4,59.993417861785716,
G,left,Pretarget,0,4,4,4,1163.0681762332679,1165.0693644844578,left,1,2,0.8749853232875466,L08T02,2022-10-21_10h33.55.460,t1_Paradigm,2021.1.4,59.993417861785716,
B,left,Lure,0,5,5,5,1166.567625415977,1168.5666248340276,left,1,2,1.0794158577919006,L08T02,2022-10-21_10h33.55.460,t1_Paradigm,2021.1.4,59.993417861785716,
G,right,Target,0,6,6,6,1170.067081656307,1172.0682144087623,right,1,2,0.8342995894490741,L08T02,2022-10-21_10h33.55.460,t1_Paradigm,2021.1.4,59.993417861785716,
Y,left,Pretarget,0,7,7,7,1173.5664413351915,1175.5672279421124,left,1,2,0.5921183400787413,L08T02,2022-10-21_10h33.55.460,t1_Paradigm,2021.1.4,59.993417861785716,
P,left,Distractor,0,8,8,8,1177.065816091781,1179.0665141572827,left,1,2,0.7821413287310861,L08T02,2022-10-21_10h33.55.460,t1_Paradigm,2021.1.4,59.993417861785716,
Y,right,Target,0,9,9,9,1180.5652707281406,1182.564101083437,right,1,2,0.7697557989740744,L08T02,2022-10-21_10h33.55.460,t1_Paradigm,2021.1.4,59.993417861785716,
X,left,Distractor,0,10,10,10,1184.064648051106,1186.0646567128133,left,1,2,0.6366293188766576,L08T02,2022-10-21_10h33.55.460,t1_Paradigm,2021.1.4,59.993417861785716,
Y,right,Target,0,11,11,11,1187.5640831185156,1189.5656050039688,right,1,2,0.8980436201090924,L08T02,2022-10-21_10h33.55.460,t1_Paradigm,2021.1.4,59.993417861785716,
N,left,Distractor,0,12,12,12,1191.0628887721105,1193.0645909483428,left,1,2,1.060344169382006,L08T02,2022-10-21_10h33.55.460,t1_Paradigm,2021.1.4,59.993417861785716,
Y,right,Target,0,13,13,13,1194.5627873985795,1196.564337514632,right,1,2,0.6701881119515747,L08T02,2022-10-21_10h33.55.460,t1_Paradigm,2021.1.4,59.993417861785716,
Y,left,Lure,0,14,14,14,1198.0622978545143,1200.0616591374273,left,1,2,0.9844648346188478,L08T02,2022-10-21_10h33.55.460,t1_Paradigm,2021.1.4,59.993417861785716,
K,left,Distractor,0,15,15,15,1201.561761794088,1203.5632952284068,None,0,2,,L08T02,2022-10-21_10h33.55.460,t1_Paradigm,2021.1.4,59.993417861785716,
T,left,Pretarget,0,16,16,16,1205.0614695433178,1207.0607897635782,left,1,2,0.9973363796598278,L08T02,2022-10-21_10h33.55.460,t1_Paradigm,2021.1.4,59.993417861785716,
J,left,Distractor,0,17,17,17,1208.5604295027442,1210.5620858042967,left,1,2,0.960946507519111,L08T02,2022-10-21_10h33.55.460,t1_Paradigm,2021.1.4,59.993417861785716,
T,right,Target,0,18,18,18,1212.0600224047666,1214.0603784951963,right,1,2,1.2496825662092306,L08T02,2022-10-21_10h33.55.460,t1_Paradigm,2021.1.4,59.993417861785716,
S,left,Pretarget,0,19,19,19,1215.5593670060043,1217.5609395781648,left,1,2,0.7039871859014966,L08T02,2022-10-21_10h33.55.460,t1_Paradigm,2021.1.4,59.993417861785716,
R,left,Distractor,0,20,20,20,1219.0587866748683,1221.058842173661,left,1,2,0.7733859962318093,L08T02,2022-10-21_10h33.55.460,t1_Paradigm,2021.1.4,59.993417861785716,
S,right,Target,0,21,21,21,1222.558440529334,1224.5584774215822,right,1,2,0.5227942766505294,L08T02,2022-10-21_10h33.55.460,t1_Paradigm,2021.1.4,59.993417861785716,
Q,left,Distractor,0,22,22,22,1226.0577453510487,1228.0589249405893,left,1,2,0.7849775406648405,L08T02,2022-10-21_10h33.55.460,t1_Paradigm,2021.1.4,59.993417861785716,
D,left,Distractor,0,23,23,23,1229.5573052105028,1231.5591562389745,left,1,2,1.1946755824028514,L08T02,2022-10-21_10h33.55.460,t1_Paradigm,2021.1.4,59.993417861785716,
F,left,Distractor,0,24,24,24,1233.0568012302974,1235.05638899951,left,1,2,0.9788844810682349,L08T02,2022-10-21_10h33.55.460,t1_Paradigm,2021.1.4,59.993417861785716,
Z,left,Distractor,0,25,25,25,1236.5558693000348,1238.557351085241,left,1,2,0.8854588722460903,L08T02,2022-10-21_10h33.55.460,t1_Paradigm,2021.1.4,59.993417861785716,
P,left,Distractor,0,26,26,26,1240.0554987735231,1242.0559774103458,left,1,2,1.100859236496035,L08T02,2022-10-21_10h33.55.460,t1_Paradigm,2021.1.4,59.993417861785716,
H,left,Distractor,0,27,27,27,1243.571203964064,1245.5722013379564,left,1,2,0.9927145830006339,L08T02,2022-10-21_10h33.55.460,t1_Paradigm,2021.1.4,59.993417861785716,
Z,left,Pretarget,0,28,28,28,1247.070807773387,1249.0702980187489,left,1,2,1.3148923419648781,L08T02,2022-10-21_10h33.55.460,t1_Paradigm,2021.1.4,59.993417861785716,
J,left,Pretarget,0,29,29,29,1250.5700888557476,1252.5721753530088,None,0,2,,L08T02,2022-10-21_10h33.55.460,t1_Paradigm,2021.1.4,59.993417861785716,
Z,right,Target,0,30,30,30,1254.0698004545993,1256.06957942195,right,1,2,0.7193459100672044,L08T02,2022-10-21_10h33.55.460,t1_Paradigm,2021.1.4,59.993417861785716,
J,right,Target,0,31,31,31,1257.5691290156683,1259.5701690563,right,1,2,1.05917484551901,L08T02,2022-10-21_10h33.55.460,t1_Paradigm,2021.1.4,59.993417861785716,
V,left,Pretarget,0,32,32,32,1261.068170458835,1263.0705556229223,left,1,2,0.8522455830243416,L08T02,2022-10-21_10h33.55.460,t1_Paradigm,2021.1.4,59.993417861785716,
Z,left,Lure,0,33,33,33,1264.567942368507,1266.5690748001216,left,1,2,1.092151703487616,L08T02,2022-10-21_10h33.55.460,t1_Paradigm,2021.1.4,59.993417861785716,
V,right,Target,0,34,34,34,1268.0672587390873,1270.0678689047927,right,1,2,0.6054614642634988,L08T02,2022-10-21_10h33.55.460,t1_Paradigm,2021.1.4,59.993417861785716,
X,left,Distractor,0,35,35,35,1271.566785555915,1273.5680363635183,left,1,2,0.774896974384319,L08T02,2022-10-21_10h33.55.460,t1_Paradigm,2021.1.4,59.993417861785716,
S,left,Distractor,0,36,36,36,1275.0661885431036,1277.067316162691,left,1,2,1.1199671754729934,L08T02,2022-10-21_10h33.55.460,t1_Paradigm,2021.1.4,59.993417861785716,
Q,left,Distractor,0,37,37,37,1278.5654555101646,1280.5665927538066,left,1,2,0.8199687154265121,L08T02,2022-10-21_10h33.55.460,t1_Paradigm,2021.1.4,59.993417861785716,
P,left,Distractor,0,38,38,38,1282.065037825727,1284.0663085231208,left,1,2,1.124313723994419,L08T02,2022-10-21_10h33.55.460,t1_Paradigm,2021.1.4,59.993417861785716,
S,left,Lure,0,39,39,39,1285.5643724820693,1287.5661510092323,left,1,2,0.8730893825413659,L08T02,2022-10-21_10h33.55.460,t1_Paradigm,2021.1.4,59.993417861785716,
K,left,Pretarget,0,40,40,40,1289.0639888027217,1291.0653663271805,left,1,2,1.1612816816195846,L08T02,2022-10-21_10h33.55.460,t1_Paradigm,2021.1.4,59.993417861785716,
L,left,Distractor,0,41,41,41,1292.5635316596017,1294.563958968094,left,1,2,0.9850198223721236,L08T02,2022-10-21_10h33.55.460,t1_Paradigm,2021.1.4,59.993417861785716,
K,right,Target,0,42,42,42,1296.0626982155954,1298.0625371729257,right,1,2,1.1964201045338996,L08T02,2022-10-21_10h33.55.460,t1_Paradigm,2021.1.4,59.993417861785716,
B,left,Distractor,0,43,43,43,1299.5621233381098,1301.5741854993394,left,1,2,0.9006357015459798,L08T02,2022-10-21_10h33.55.460,t1_Paradigm,2021.1.4,59.993417861785716,
N,left,Distractor,0,44,44,44,1303.0615526310867,1305.0621114684618,left,1,2,0.9552821037941612,L08T02,2022-10-21_10h33.55.460,t1_Paradigm,2021.1.4,59.993417861785716,
S,left,Pretarget,0,45,45,45,1306.560841412691,1308.5609690919518,None,0,2,,L08T02,2022-10-21_10h33.55.460,t1_Paradigm,2021.1.4,59.993417861785716,
Z,left,Distractor,0,46,46,46,1310.0601135126199,1312.0599579235422,left,1,2,1.2751141574117355,L08T02,2022-10-21_10h33.55.460,t1_Paradigm,2021.1.4,59.993417861785716,
S,right,Target,0,47,47,47,1313.5597214923473,1315.5587363089435,right,1,2,1.1229644301347435,L08T02,2022-10-21_10h33.55.460,t1_Paradigm,2021.1.4,59.993417861785716,
C,left,Distractor,0,48,48,48,1317.0590102740098,1319.0594353368506,left,1,2,1.1973632628796622,L08T02,2022-10-21_10h33.55.460,t1_Paradigm,2021.1.4,59.993417861785716,
T,left,Pretarget,0,49,49,49,1320.558609592088,1322.560420199472,left,1,2,1.0676773859886453,L08T02,2022-10-21_10h33.55.460,t1_Paradigm,2021.1.4,59.993417861785716,
S,left,Lure,0,50,50,50,1324.0580956670456,1326.058722193644,left,1,2,1.3977414245018736,L08T02,2022-10-21_10h33.55.460,t1_Paradigm,2021.1.4,59.993417861785716,
T,right,Target,0,51,51,51,1327.5573132305872,1329.5583622535923,right,1,2,0.8777079712017439,L08T02,2022-10-21_10h33.55.460,t1_Paradigm,2021.1.4,59.993417861785716,
N,left,Pretarget,0,52,52,52,1331.0568730899831,1333.0581181231537,left,1,2,0.6999245473416522,L08T02,2022-10-21_10h33.55.460,t1_Paradigm,2021.1.4,59.993417861785716,
B,left,Distractor,0,53,53,53,1334.5562324480852,1336.5571300525335,left,1,2,1.2050060535548255,L08T02,2022-10-21_10h33.55.460,t1_Paradigm,2021.1.4,59.993417861785716,
N,right,Target,0,54,54,54,1338.0560319467331,1340.0554820918478,right,1,2,0.7922295942553319,L08T02,2022-10-21_10h33.55.460,t1_Paradigm,2021.1.4,59.993417861785716,
N,left,Lure,0,55,55,55,1341.5549986429978,1343.5549145928235,None,0,2,,L08T02,2022-10-21_10h33.55.460,t1_Paradigm,2021.1.4,59.993417861785716,
X,left,Distractor,0,56,56,56,1345.0545806377777,1347.0543326577172,left,1,2,1.3191939781536348,L08T02,2022-10-21_10h33.55.460,t1_Paradigm,2021.1.4,59.993417861785716,
W,left,Distractor,0,57,57,57,1348.5536291385652,1350.5544600161375,left,1,2,1.1413986845873296,L08T02,2022-10-21_10h33.55.460,t1_Paradigm,2021.1.4,59.993417861785716,
S,left,Distractor,0,58,58,58,1352.0699400035664,1354.071416976687,left,1,2,0.9180584668065421,L08T02,2022-10-21_10h33.55.460,t1_Paradigm,2021.1.4,59.993417861785716,
L,left,Distractor,0,59,59,59,1355.569408434385,1357.571478570695,left,1,2,1.131812474457547,L08T02,2022-10-21_10h33.55.460,t1_Paradigm,2021.1.4,59.993417861785716,
K,left,Pretarget,0,60,60,60,1359.06881430879,1361.0696012364933,left,1,2,0.9927550040301867,L08T02,2022-10-21_10h33.55.460,t1_Paradigm,2021.1.4,59.993417861785716,
V,left,Pretarget,0,61,61,61,1362.567982468754,1364.5694928053417,left,1,2,0.978478024713695,L08T02,2022-10-21_10h33.55.460,t1_Paradigm,2021.1.4,59.993417861785716,
K,right,Target,0,62,62,62,1366.0676055262447,1368.0681098272325,right,1,2,0.7367394823231734,L08T02,2022-10-21_10h33.55.460,t1_Paradigm,2021.1.4,59.993417861785716,
V,right,Target,0,63,63,63,1369.567020062299,1371.5680206442485,right,1,2,0.6487043121596798,L08T02,2022-10-21_10h33.55.460,t1_Paradigm,2021.1.4,59.993417861785716,
R,left,Distractor,0,0,0,0,1439.9798789677443,1441.9733269044082,None,0,3,,L08T02,2022-10-21_10h33.55.460,t1_Paradigm,2021.1.4,59.993417861785716,
P,left,Lure,0,1,1,1,1443.471212818229,1445.4725999667426,None,0,3,,L08T02,2022-10-21_10h33.55.460,t1_Paradigm,2021.1.4,59.993417861785716,
V,left,Distractor,0,2,2,2,1446.9707412390271,1448.9717822420062,None,0,3,,L08T02,2022-10-21_10h33.55.460,t1_Paradigm,2021.1.4,59.993417861785716,
P,left,Pretarget,0,3,3,3,1450.4701984417625,1452.4712019109284,None,0,3,,L08T02,2022-10-21_10h33.55.460,t1_Paradigm,2021.1.4,59.993417861785716,
Z,left,Distractor,0,4,4,4,1453.9696100906003,1455.970089369046,left,1,3,1.1295784082030877,L08T02,2022-10-21_10h33.55.460,t1_Paradigm,2021.1.4,59.993417861785716,
L,left,Pretarget,0,5,5,5,1457.469043874822,1459.4694897898007,left,1,3,0.9073661308502778,L08T02,2022-10-21_10h33.55.460,t1_Paradigm,2021.1.4,59.993417861785716,
P,right,Target,0,6,6,6,1460.9684638644685,1462.9701041259104,right,1,3,0.6641464448766783,L08T02,2022-10-21_10h33.55.460,t1_Paradigm,2021.1.4,59.993417861785716,
S,left,Distractor,0,7,7,7,1464.467873267713,1466.4672900494188,left,1,3,0.7744411145104095,L08T02,2022-10-21_10h33.55.460,t1_Paradigm,2021.1.4,59.993417861785716,
L,right,Target,0,8,8,8,1467.9673128263676,1469.967735001992,right,1,3,0.7350716319051571,L08T02,2022-10-21_10h33.55.460,t1_Paradigm,2021.1.4,59.993417861785716,
D,left,Distractor,0,9,9,9,1471.4666792420903,1473.4678684556857,left,1,3,1.0836748272413388,L08T02,2022-10-21_10h33.55.460,t1_Paradigm,2021.1.4,59.993417861785716,
G,left,Distractor,0,10,10,10,1474.9658788407105,1476.9682640047395,left,1,3,0.8197377378237434,L08T02,2022-10-21_10h33.55.460,t1_Paradigm,2021.1.4,59.993417861785716,
M,left,Pretarget,0,11,11,11,1478.465537186421,1480.4778678590083,left,1,3,1.0163176018395461,L08T02,2022-10-21_10h33.55.460,t1_Paradigm,2021.1.4,59.993417861785716,
Y,left,Distractor,0,12,12,12,1481.964867672301,1483.965477517224,left,1,3,0.8386884837527759,L08T02,2022-10-21_10h33.55.460,t1_Paradigm,2021.1.4,59.993417861785716,
V,left,Distractor,0,13,13,13,1485.4644265693496,1487.4661316327984,left,1,3,1.0034354703384452,L08T02,2022-10-21_10h33.55.460,t1_Paradigm,2021.1.4,59.993417861785716,
M,right,Target,0,14,14,14,1488.9637121428968,1490.9649206046597,right,1,3,0.6923157616984099,L08T02,2022-10-21_10h33.55.460,t1_Paradigm,2021.1.4,59.993417861785716,
S,left,Pretarget,0,15,15,15,1492.4631998218829,1494.4647114416584,left,1,3,1.062196160259191,L08T02,2022-10-21_10h33.55.460,t1_Paradigm,2021.1.4,59.993417861785716,
Q,left,Distractor,0,16,16,16,1495.962538969412,1497.9632825888111,left,1,3,0.8696118871448562,L08T02,2022-10-21_10h33.55.460,t1_Paradigm,2021.1.4,59.993417861785716,
R,left,Pretarget,0,17,17,17,1499.4619018563535,1501.4616089639603,left,1,3,1.0770884380908683,L08T02,2022-10-21_10h33.55.460,t1_Paradigm,2021.1.4,59.993417861785716,
S,right,Target,0,18,18,18,1502.9614556205343,1504.962183199823,right,1,3,0.7479781443835236,L08T02,2022-10-21_10h33.55.460,t1_Paradigm,2021.1.4,59.993417861785716,
F,left,Distractor,0,19,19,19,1506.4608387179906,1508.4621123025427,left,1,3,0.908588066289667,L08T02,2022-10-21_10h33.55.460,t1_Paradigm,2021.1.4,59.993417861785716,
R,right,Target,0,20,20,20,1509.960263840505,1511.961790217203,left,0,3,1.123124510399066,L08T02,2022-10-21_10h33.55.460,t1_Paradigm,2021.1.4,59.993417861785716,
P,left,Distractor,0,21,21,21,1513.4588596894755,1515.4622528139153,None,0,3,,L08T02,2022-10-21_10h33.55.460,t1_Paradigm,2021.1.4,59.993417861785716,
L,left,Distractor,0,22,22,22,1516.9590085416567,1518.9602375347167,left,1,3,0.7691337635624222,L08T02,2022-10-21_10h33.55.460,t1_Paradigm,2021.1.4,59.993417861785716,
R,right,Target,0,23,23,23,1520.4584535539034,1522.4605637905188,right,1,3,1.195403482473921,L08T02,2022-10-21_10h33.55.460,t1_Paradigm,2021.1.4,59.993417861785716,
H,left,Pretarget,0,24,24,24,1523.9578231776832,1525.9590419050655,left,1,3,1.0316272433265112,L08T02,2022-10-21_10h33.55.460,t1_Paradigm,2021.1.4,59.993417861785716,
G,left,Pretarget,0,25,25,25,1527.4572758891736,1529.458050947229,left,1,3,0.8506380434264429,L08T02,2022-10-21_10h33.55.460,t1_Paradigm,2021.1.4,59.993417861785716,
T,left,Distractor,0,26,26,26,1530.956894134637,1532.9586437895778,left,1,3,1.0602832169970497,L08T02,2022-10-21_10h33.55.460,t1_Paradigm,2021.1.4,59.993417861785716,
H,right,Target,0,27,27,27,1534.4561822746182,1536.457827668928,left,0,3,0.5770794556592591,L08T02,2022-10-21_10h33.55.460,t1_Paradigm,2021.1.4,59.993417861785716,
G,right,Target,0,28,28,28,1537.9721822823049,1539.97432780714,None,0,3,,L08T02,2022-10-21_10h33.55.460,t1_Paradigm,2021.1.4,59.993417861785716,
D,left,Distractor,0,29,29,29,1541.471567304572,1543.4715791742783,left,1,3,1.052485478867311,L08T02,2022-10-21_10h33.55.460,t1_Paradigm,2021.1.4,59.993417861785716,
N,left,Pretarget,0,30,30,30,1544.9710925173713,1546.9725743025774,left,1,3,1.0210625865729526,L08T02,2022-10-21_10h33.55.460,t1_Paradigm,2021.1.4,59.993417861785716,
V,left,Distractor,0,31,31,31,1548.4704111336032,1550.471292697941,left,1,3,1.3261582722188905,L08T02,2022-10-21_10h33.55.460,t1_Paradigm,2021.1.4,59.993417861785716,
R,left,Distractor,0,32,32,32,1551.970855765394,1553.9717928285245,left,1,3,1.0582458024146035,L08T02,2022-10-21_10h33.55.460,t1_Paradigm,2021.1.4,59.993417861785716,
N,right,Target,0,33,33,33,1555.4693502408918,1557.470828818041,left,0,3,1.0365637469221838,L08T02,2022-10-21_10h33.55.460,t1_Paradigm,2021.1.4,59.993417861785716,
Z,left,Distractor,0,34,34,34,1558.9686887467979,1560.969496526639,left,1,3,0.9007216765312478,L08T02,2022-10-21_10h33.55.460,t1_Paradigm,2021.1.4,59.993417861785716,
N,left,Lure,0,35,35,35,1562.4681016788818,1564.4696533989045,left,1,3,1.1721835014177486,L08T02,2022-10-21_10h33.55.460,t1_Paradigm,2021.1.4,59.993417861785716,
Y,left,Pretarget,0,36,36,36,1565.967547011911,1567.9690198146272,left,1,3,1.2235833858139813,L08T02,2022-10-21_10h33.55.460,t1_Paradigm,2021.1.4,59.993417861785716,
Y,left,Lure,0,37,37,37,1569.4667860692134,1571.466658710735,None,0,3,,L08T02,2022-10-21_10h33.55.460,t1_Paradigm,2021.1.4,59.993417861785716,
B,left,Distractor,0,38,38,38,1572.9663176980685,1574.9672002248117,None,0,3,,L08T02,2022-10-21_10h33.55.460,t1_Paradigm,2021.1.4,59.993417861785716,
Y,right,Target,0,39,39,39,1576.465779071208,1578.4672592523857,right,1,3,0.8923394369194284,L08T02,2022-10-21_10h33.55.460,t1_Paradigm,2021.1.4,59.993417861785716,
J,left,Distractor,0,40,40,40,1579.9651916824514,1581.9667357032886,left,1,3,0.8134330129832961,L08T02,2022-10-21_10h33.55.460,t1_Paradigm,2021.1.4,59.993417861785716,
X,left,Distractor,0,41,41,41,1583.4646030105068,1585.4661191215273,left,1,3,0.9467044956400059,L08T02,2022-10-21_10h33.55.460,t1_Paradigm,2021.1.4,59.993417861785716,
W,left,Pretarget,0,42,42,42,1586.963947290904,1588.9655400736374,left,1,3,0.9530961578711867,L08T02,2022-10-21_10h33.55.460,t1_Paradigm,2021.1.4,59.993417861785716,
S,left,Pretarget,0,43,43,43,1590.4636223182897,1592.4656574872206,left,1,3,1.004215661145281,L08T02,2022-10-21_10h33.55.460,t1_Paradigm,2021.1.4,59.993417861785716,
R,left,Distractor,0,44,44,44,1593.9628235209384,1595.9643338574679,left,1,3,1.1302485639462247,L08T02,2022-10-21_10h33.55.460,t1_Paradigm,2021.1.4,59.993417861785716,
W,right,Target,0,45,45,45,1597.462165555684,1599.4640826694085,right,1,3,0.8221604357240722,L08T02,2022-10-21_10h33.55.460,t1_Paradigm,2021.1.4,59.993417861785716,
S,right,Target,0,46,46,46,1600.9618187685846,1602.9622954805964,right,1,3,0.6791830837028101,L08T02,2022-10-21_10h33.55.460,t1_Paradigm,2021.1.4,59.993417861785716,
D,left,Distractor,0,47,47,47,1604.4611774850637,1606.4603257552953,left,1,3,0.9397244823048823,L08T02,2022-10-21_10h33.55.460,t1_Paradigm,2021.1.4,59.993417861785716,
T,left,Distractor,0,48,48,48,1607.9604922516155,1609.9616253248532,left,1,3,0.7653466940973885,L08T02,2022-10-21_10h33.55.460,t1_Paradigm,2021.1.4,59.993417861785716,
S,right,Target,0,49,49,49,1611.459897163615,1613.4602975247544,right,1,3,0.6297824383946136,L08T02,2022-10-21_10h33.55.460,t1_Paradigm,2021.1.4,59.993417861785716,
K,left,Distractor,0,50,50,50,1614.9594085819554,1616.9606305173947,left,1,3,1.1620423035346903,L08T02,2022-10-21_10h33.55.460,t1_Paradigm,2021.1.4,59.993417861785716,
S,left,Lure,0,51,51,51,1618.4587740352727,1620.4603093944024,right,0,3,0.9601390484604053,L08T02,2022-10-21_10h33.55.460,t1_Paradigm,2021.1.4,59.993417861785716,
T,left,Pretarget,0,52,52,52,1621.9581933833542,1623.9595660957857,left,1,3,1.1587053195107728,L08T02,2022-10-21_10h33.55.460,t1_Paradigm,2021.1.4,59.993417861785716,
V,left,Distractor,0,53,53,53,1625.4577250122093,1627.4574821649585,left,1,3,1.2282132024993189,L08T02,2022-10-21_10h33.55.460,t1_Paradigm,2021.1.4,59.993417861785716,
B,left,Distractor,0,54,54,54,1628.9570686509833,1630.9589979551965,left,1,3,1.3671182919642888,L08T02,2022-10-21_10h33.55.460,t1_Paradigm,2021.1.4,59.993417861785716,
T,right,Target,0,55,55,55,1632.4565059639863,1634.457779869379,right,1,3,0.9253705104347318,L08T02,2022-10-21_10h33.55.460,t1_Paradigm,2021.1.4,59.993417861785716,
Y,left,Pretarget,0,56,56,56,1635.9558627556544,1637.9579017742071,left,1,3,0.8170032202033326,L08T02,2022-10-21_10h33.55.460,t1_Paradigm,2021.1.4,59.993417861785716,
T,left,Lure,0,57,57,57,1639.472147635708,1641.4718784826691,right,0,3,0.6377992843626998,L08T02,2022-10-21_10h33.55.460,t1_Paradigm,2021.1.4,59.993417861785716,
P,left,Pretarget,0,58,58,58,1642.9714999361313,1644.9705336800544,left,1,3,1.2042913063196465,L08T02,2022-10-21_10h33.55.460,t1_Paradigm,2021.1.4,59.993417861785716,
Y,right,Target,0,59,59,59,1646.4707989834133,1648.4716757357237,right,1,3,0.9357426859205589,L08T02,2022-10-21_10h33.55.460,t1_Paradigm,2021.1.4,59.993417861785716,
R,left,Distractor,0,60,60,60,1649.9701442262158,1651.9710957254283,left,1,3,0.8938917985651642,L08T02,2022-10-21_10h33.55.460,t1_Paradigm,2021.1.4,59.993417861785716,
P,right,Target,0,61,61,61,1653.4695542710251,1655.4692616994726,right,1,3,0.9631568344193511,L08T02,2022-10-21_10h33.55.460,t1_Paradigm,2021.1.4,59.993417861785716,
L,left,Distractor,0,62,62,62,1656.968994150462,1658.9704117752262,left,1,3,0.743309510522522,L08T02,2022-10-21_10h33.55.460,t1_Paradigm,2021.1.4,59.993417861785716,
V,left,Distractor,0,63,63,63,1660.4682415485731,1662.4691080352059,left,1,3,0.8487119472702034,L08T02,2022-10-21_10h33.55.460,t1_Paradigm,2021.1.4,59.993417861785716,
H,left,Lure,0,0,0,0,1710.1828764789389,1712.1620994062978,None,0,3,,L08T02,2022-10-21_10h33.55.460,t1_Paradigm,2021.1.4,59.993417861785716,
B,left,Distractor,0,1,1,1,1713.659583996574,1715.6608466738835,None,0,3,,L08T02,2022-10-21_10h33.55.460,t1_Paradigm,2021.1.4,59.993417861785716,
T,left,Distractor,0,2,2,2,1717.158845189202,1719.1607273354894,None,0,3,,L08T02,2022-10-21_10h33.55.460,t1_Paradigm,2021.1.4,59.993417861785716,
R,left,Distractor,0,3,3,3,1720.6582953343168,1722.659707826213,left,1,3,0.914866806124337,L08T02,2022-10-21_10h33.55.460,t1_Paradigm,2021.1.4,59.993417861785716,
H,left,Pretarget,0,4,4,4,1724.157836908009,1726.1589959661942,left,1,3,0.7380743401008658,L08T02,2022-10-21_10h33.55.460,t1_Paradigm,2021.1.4,59.993417861785716,
K,left,Distractor,0,5,5,5,1727.6572030029492,1729.6581904320046,left,1,3,0.8881751041044481,L08T02,2022-10-21_10h33.55.460,t1_Paradigm,2021.1.4,59.993417861785716,
G,left,Distractor,0,6,6,6,1731.156539263262,1733.157316887693,left,1,3,0.7444486790336668,L08T02,2022-10-21_10h33.55.460,t1_Paradigm,2021.1.4,59.993417861785716,
H,right,Target,0,7,7,7,1734.6560032028356,1736.6559820299153,right,1,3,0.3802278721705079,L08T02,2022-10-21_10h33.55.460,t1_Paradigm,2021.1.4,59.993417861785716,
Y,left,Pretarget,0,8,8,8,1738.1554527063272,1740.1569758750265,left,1,3,1.0832131928764284,L08T02,2022-10-21_10h33.55.460,t1_Paradigm,2021.1.4,59.993417861785716,
S,left,Distractor,0,9,9,9,1741.6547873626696,1743.6542939689825,left,1,3,0.769941222621128,L08T02,2022-10-21_10h33.55.460,t1_Paradigm,2021.1.4,59.993417861785716,
P,left,Distractor,0,10,10,10,1745.1541409463389,1747.1558642955497,left,1,3,0.9132910259068012,L08T02,2022-10-21_10h33.55.460,t1_Paradigm,2021.1.4,59.993417861785716,
Y,right,Target,0,11,11,11,1748.654218259675,1750.6552550922497,None,0,3,,L08T02,2022-10-21_10h33.55.460,t1_Paradigm,2021.1.4,59.993417861785716,
H,left,Lure,0,12,12,12,1752.1530428405385,1754.1553433128283,left,1,3,1.1305222081718966,L08T02,2022-10-21_10h33.55.460,t1_Paradigm,2021.1.4,59.993417861785716,
Q,left,Distractor,0,13,13,13,1755.6526790508651,1757.6543562045554,left,1,3,1.1537040137918666,L08T02,2022-10-21_10h33.55.460,t1_Paradigm,2021.1.4,59.993417861785716,
V,left,Pretarget,0,14,14,14,1759.1520544490777,1761.1527396824677,left,1,3,0.838776704389602,L08T02,2022-10-21_10h33.55.460,t1_Paradigm,2021.1.4,59.993417861785716,
G,left,Distractor,0,15,15,15,1762.6513278321945,1764.652107060654,left,1,3,1.15123351640068,L08T02,2022-10-21_10h33.55.460,t1_Paradigm,2021.1.4,59.993417861785716,
Z,left,Pretarget,0,16,16,16,1766.150653506047,1768.151563300984,left,1,3,1.4396022566361353,L08T02,2022-10-21_10h33.55.460,t1_Paradigm,2021.1.4,59.993417861785716,
V,right,Target,0,17,17,17,1769.650126748893,1771.6496157110669,None,0,3,,L08T02,2022-10-21_10h33.55.460,t1_Paradigm,2021.1.4,59.993417861785716,
N,left,Distractor,0,18,18,18,1773.1494405530975,1775.1511555614416,left,1,3,1.1175191342481412,L08T02,2022-10-21_10h33.55.460,t1_Paradigm,2021.1.4,59.993417861785716,
Z,right,Target,0,19,19,19,1776.648975069169,1778.6501697364147,right,1,3,1.1781363062909804,L08T02,2022-10-21_10h33.55.460,t1_Paradigm,2021.1.4,59.993417861785716,
R,left,Distractor,0,20,20,20,1780.1483950588736,1782.148439971148,left,1,3,0.7205559758003801,L08T02,2022-10-21_10h33.55.460,t1_Paradigm,2021.1.4,59.993417861785716,
P,left,Distractor,0,21,21,21,1783.647753454512,1785.6482933645602,left,1,3,1.0087194027146325,L08T02,2022-10-21_10h33.55.460,t1_Paradigm,2021.1.4,59.993417861785716,
Z,right,Target,0,22,22,22,1787.1473168428056,1789.148555139138,right,1,3,0.6757004554965533,L08T02,2022-10-21_10h33.55.460,t1_Paradigm,2021.1.4,59.993417861785716,
D,left,Pretarget,0,23,23,23,1790.6467483813758,1792.6478657352854,left,1,3,0.9155308666522615,L08T02,2022-10-21_10h33.55.460,t1_Paradigm,2021.1.4,59.993417861785716,
K,left,Distractor,0,24,24,24,1794.1459983459208,1796.1473896648968,left,1,3,0.8854527769726701,L08T02,2022-10-21_10h33.55.460,t1_Paradigm,2021.1.4,59.993417861785716,
W,left,Distractor,0,25,25,25,1797.6454164108145,1799.6450956086628,left,1,3,1.036721260752529,L08T02,2022-10-21_10h33.55.460,t1_Paradigm,2021.1.4,59.993417861785716,
D,right,Target,0,26,26,26,1801.1448469869792,1803.146740040509,right,1,3,0.9434836419532076,L08T02,2022-10-21_10h33.55.460,t1_Paradigm,2021.1.4,59.993417861785716,
G,left,Pretarget,0,27,27,27,1804.6612698119134,1806.6617462031427,left,1,3,0.8733039991930127,L08T02,2022-10-21_10h33.55.460,t1_Paradigm,2021.1.4,59.993417861785716,
V,left,Distractor,0,28,28,28,1808.1601890294114,1810.1618655415368,left,1,3,0.9408081519650295,L08T02,2022-10-21_10h33.55.460,t1_Paradigm,2021.1.4,59.993417861785716,
D,right,Target,0,29,29,29,1811.65975690895,1813.6611119772424,right,1,3,0.6618113259901293,L08T02,2022-10-21_10h33.55.460,t1_Paradigm,2021.1.4,59.993417861785716,
G,right,Target,0,30,30,30,1815.1591862018686,1817.1600119466311,right,1,3,0.7752402327023447,L08T02,2022-10-21_10h33.55.460,t1_Paradigm,2021.1.4,59.993417861785716,
B,left,Pretarget,0,31,31,31,1818.6583469834295,1820.658037409361,left,1,3,1.0773547038552351,L08T02,2022-10-21_10h33.55.460,t1_Paradigm,2021.1.4,59.993417861785716,
N,left,Distractor,0,32,32,32,1822.1579912138404,1824.1600286283647,left,1,3,1.2814779098844156,L08T02,2022-10-21_10h33.55.460,t1_Paradigm,2021.1.4,59.993417861785716,
F,left,Distractor,0,33,33,33,1825.657447133388,1827.6595288186218,left,1,3,1.0839911381481215,L08T02,2022-10-21_10h33.55.460,t1_Paradigm,2021.1.4,59.993417861785716,
B,right,Target,0,34,34,34,1829.1569027320947,1831.1574715143652,None,0,3,,L08T02,2022-10-21_10h33.55.460,t1_Paradigm,2021.1.4,59.993417861785716,
Q,left,Pretarget,0,35,35,35,1832.656239313248,1834.6569514940493,left,1,3,1.066238267463632,L08T02,2022-10-21_10h33.55.460,t1_Paradigm,2021.1.4,59.993417861785716,
S,left,Pretarget,0,36,36,36,1836.1556676438195,1838.1548784704646,left,1,3,0.9562666456331499,L08T02,2022-10-21_10h33.55.460,t1_Paradigm,2021.1.4,59.993417861785716,
W,left,Distractor,0,37,37,37,1839.655059402925,1841.655136074638,left,1,3,1.0072546200244687,L08T02,2022-10-21_10h33.55.460,t1_Paradigm,2021.1.4,59.993417861785716,
Q,right,Target,0,38,38,38,1843.1545063399826,1845.1560503607616,right,1,3,0.5509850871749222,L08T02,2022-10-21_10h33.55.460,t1_Paradigm,2021.1.4,59.993417861785716,
S,right,Target,0,39,39,39,1846.6539086855482,1848.6555171876098,right,1,3,0.590432524739299,L08T02,2022-10-21_10h33.55.460,t1_Paradigm,2021.1.4,59.993417861785716,
T,left,Distractor,0,40,40,40,1850.153339261713,1852.1525927550974,left,1,3,0.9013186893425882,L08T02,2022-10-21_10h33.55.460,t1_Paradigm,2021.1.4,59.993417861785716,
G,left,Distractor,0,41,41,41,1853.6528423391865,1855.6538926454377,left,1,3,0.9064781504566781,L08T02,2022-10-21_10h33.55.460,t1_Paradigm,2021.1.4,59.993417861785716,
D,left,Distractor,0,42,42,42,1857.152259120834,1859.1544081745087,left,1,3,0.9037522945436649,L08T02,2022-10-21_10h33.55.460,t1_Paradigm,2021.1.4,59.993417861785716,
S,left,Lure,0,43,43,43,1860.6516136669088,1862.6530319332378,left,1,3,0.6744515726459213,L08T02,2022-10-21_10h33.55.460,t1_Paradigm,2021.1.4,59.993417861785716,
Z,left,Pretarget,0,44,44,44,1864.1510663784575,1866.1522568752407,left,1,3,1.1754624202731065,L08T02,2022-10-21_10h33.55.460,t1_Paradigm,2021.1.4,59.993417861785716,
J,left,Distractor,0,45,45,45,1867.6504132252303,1869.6517862585024,left,1,3,0.9654252264881507,L08T02,2022-10-21_10h33.55.460,t1_Paradigm,2021.1.4,59.993417861785716,
M,left,Pretarget,0,46,46,46,1871.1498912801035,1873.1510721528903,left,1,3,0.9602988079423085,L08T02,2022-10-21_10h33.55.460,t1_Paradigm,2021.1.4,59.993417861785716,
Z,right,Target,0,47,47,47,1874.6492795104277,1876.6504584583454,left,0,3,1.0444157005986199,L08T02,2022-10-21_10h33.55.460,t1_Paradigm,2021.1.4,59.993417861785716,
P,left,Distractor,0,48,48,48,1878.1487152194022,1880.1494174553081,left,1,3,1.3985463170683943,L08T02,2022-10-21_10h33.55.460,t1_Paradigm,2021.1.4,59.993417861785716,
M,right,Target,0,49,49,49,1881.6481198106194,1883.6492929841042,left,0,3,1.245756589458324,L08T02,2022-10-21_10h33.55.460,t1_Paradigm,2021.1.4,59.993417861785716,
K,left,Distractor,0,50,50,50,1885.1478067077114,1887.14722541417,left,1,3,1.0662725933361799,L08T02,2022-10-21_10h33.55.460,t1_Paradigm,2021.1.4,59.993417861785716,
Y,left,Distractor,0,51,51,51,1888.6465568624553,1890.647304652317,left,1,3,0.8147646627039649,L08T02,2022-10-21_10h33.55.460,t1_Paradigm,2021.1.4,59.993417861785716,
X,left,Distractor,0,52,52,52,1892.1463313385611,1894.1484698057757,left,1,3,0.950501830840949,L08T02,2022-10-21_10h33.55.460,t1_Paradigm,2021.1.4,59.993417861785716,
F,left,Pretarget,0,53,53,53,1895.6457968821633,1897.6470431985217,left,1,3,0.8888532798737288,L08T02,2022-10-21_10h33.55.460,t1_Paradigm,2021.1.4,59.993417861785716,
M,left,Lure,0,54,54,54,1899.145180942025,1901.1464121806785,left,1,3,0.9404860665672459,L08T02,2022-10-21_10h33.55.460,t1_Paradigm,2021.1.4,59.993417861785716,
V,left,Distractor,0,55,55,55,1902.6612701326958,1904.662434323749,left,1,3,0.88560676202178,L08T02,2022-10-21_10h33.55.460,t1_Paradigm,2021.1.4,59.993417861785716,
F,right,Target,0,56,56,56,1906.1608572603436,1908.1612941928906,right,1,3,0.8277119171107188,L08T02,2022-10-21_10h33.55.460,t1_Paradigm,2021.1.4,59.993417861785716,
S,left,Distractor,0,57,57,57,1909.660080598318,1911.661435345828,left,1,3,0.8585974657908082,L08T02,2022-10-21_10h33.55.460,t1_Paradigm,2021.1.4,59.993417861785716,
D,left,Distractor,0,58,58,58,1913.1594203874702,1915.160905380675,left,1,3,0.8568933646893129,L08T02,2022-10-21_10h33.55.460,t1_Paradigm,2021.1.4,59.993417861785716,
F,right,Target,0,59,59,59,1916.6589321265928,1918.6597482472425,right,1,3,0.7951845029601827,L08T02,2022-10-21_10h33.55.460,t1_Paradigm,2021.1.4,59.993417861785716,
V,left,Pretarget,0,60,60,60,1920.1582853894215,1922.1581888279761,left,1,3,0.9579794083838351,L08T02,2022-10-21_10h33.55.460,t1_Paradigm,2021.1.4,59.993417861785716,
J,left,Distractor,0,61,61,61,1923.6576768277446,1925.6584884572076,left,1,3,0.924872946285177,L08T02,2022-10-21_10h33.55.460,t1_Paradigm,2021.1.4,59.993417861785716,
V,left,Lure,0,62,62,62,1927.1571048374753,1929.156658601656,right,0,3,0.7475193972932175,L08T02,2022-10-21_10h33.55.460,t1_Paradigm,2021.1.4,59.993417861785716,
V,right,Target,0,63,63,63,1930.6567766568623,1932.656258882198,left,0,3,0.872319457354024,L08T02,2022-10-21_10h33.55.460,t1_Paradigm,2021.1.4,59.993417861785716,
R,left,Distractor,0,0,0,0,2021.8709505944862,2023.876417704916,None,0,4,,L08T02,2022-10-21_10h33.55.460,t1_Paradigm,2021.1.4,59.993417861785716,
F,left,Distractor,0,1,1,1,2025.3740880396217,2027.3740588466171,None,0,4,,L08T02,2022-10-21_10h33.55.460,t1_Paradigm,2021.1.4,59.993417861785716,
P,left,Pretarget,0,2,2,2,2028.8734162799083,2030.8733149064356,None,0,4,,L08T02,2022-10-21_10h33.55.460,t1_Paradigm,2021.1.4,59.993417861785716,
H,left,Distractor,0,3,3,3,2032.3729033172713,2034.37284621445,None,0,4,,L08T02,2022-10-21_10h33.55.460,t1_Paradigm,2021.1.4,59.993417861785716,
Z,left,Distractor,0,4,4,4,2035.872176058765,2037.8737014730577,left,1,4,0.6708601925056428,L08T02,2022-10-21_10h33.55.460,t1_Paradigm,2021.1.4,59.993417861785716,
T,left,Distractor,0,5,5,5,2039.3717015923467,2041.3727749963873,left,1,4,0.8945674079004675,L08T02,2022-10-21_10h33.55.460,t1_Paradigm,2021.1.4,59.993417861785716,
P,right,Target,0,6,6,6,2042.8712223139592,2044.872661432426,right,1,4,0.8067532703862526,L08T02,2022-10-21_10h33.55.460,t1_Paradigm,2021.1.4,59.993417861785716,
G,left,Distractor,0,7,7,7,2046.371021812607,2048.372227066313,left,1,4,1.131602669833228,L08T02,2022-10-21_10h33.55.460,t1_Paradigm,2021.1.4,59.993417861785716,
L,left,Distractor,0,8,8,8,2049.869843185472,2051.870503717102,left,1,4,0.9156065759016201,L08T02,2022-10-21_10h33.55.460,t1_Paradigm,2021.1.4,59.993417861785716,
P,left,Lure,0,9,9,9,2053.369704919751,2055.3710801986163,right,0,4,1.4147542045684531,L08T02,2022-10-21_10h33.55.460,t1_Paradigm,2021.1.4,59.993417861785716,
Q,left,Pretarget,0,10,10,10,2056.868752778915,2058.8700658221496,left,1,4,0.8306767706526443,L08T02,2022-10-21_10h33.55.460,t1_Paradigm,2021.1.4,59.993417861785716,
D,left,Distractor,0,11,11,11,2060.368595265085,2062.3701075264253,left,1,4,0.7104167027864605,L08T02,2022-10-21_10h33.55.460,t1_Paradigm,2021.1.4,59.993417861785716,
M,left,Pretarget,0,12,12,12,2063.8676492194645,2065.8688336210907,left,1,4,0.7954247837187722,L08T02,2022-10-21_10h33.55.460,t1_Paradigm,2021.1.4,59.993417861785716,
C,left,Distractor,0,13,13,13,2067.3673800664837,2069.368683164881,left,1,4,0.8955651025753468,L08T02,2022-10-21_10h33.55.460,t1_Paradigm,2021.1.4,59.993417861785716,
Q,right,Target,0,14,14,14,2070.866334893042,2072.8671487680986,left,0,4,1.062515358440578,L08T02,2022-10-21_10h33.55.460,t1_Paradigm,2021.1.4,59.993417861785716,
R,left,Distractor,0,15,15,15,2074.3659229830955,2076.367134011234,left,1,4,1.2892586454399861,L08T02,2022-10-21_10h33.55.460,t1_Paradigm,2021.1.4,59.993417861785716,
M,right,Target,0,16,16,16,2077.8651960453717,2079.866745519801,left,0,4,1.2263092417269945,L08T02,2022-10-21_10h33.55.460,t1_Paradigm,2021.1.4,59.993417861785716,
S,left,Distractor,0,17,17,17,2081.3647090676823,2083.365546682151,left,1,4,1.3398526748060249,L08T02,2022-10-21_10h33.55.460,t1_Paradigm,2021.1.4,59.993417861785716,
Z,left,Distractor,0,18,18,18,2084.8642249772674,2086.8653715241817,None,0,4,,L08T02,2022-10-21_10h33.55.460,t1_Paradigm,2021.1.4,59.993417861785716,
L,left,Pretarget,0,19,19,19,2088.363864395593,2090.365705158387,None,0,4,,L08T02,2022-10-21_10h33.55.460,t1_Paradigm,2021.1.4,59.993417861785716,
M,right,Target,0,20,20,20,2091.8630537285353,2093.864525889687,left,0,4,1.2002591439522803,L08T02,2022-10-21_10h33.55.460,t1_Paradigm,2021.1.4,59.993417861785716,
P,left,Distractor,0,21,21,21,2095.3627438336844,2097.364225939673,left,1,4,1.2638937811134383,L08T02,2022-10-21_10h33.55.460,t1_Paradigm,2021.1.4,59.993417861785716,
F,left,Distractor,0,22,22,22,2098.861844946048,2100.8633373176563,right,0,4,1.0306135084829293,L08T02,2022-10-21_10h33.55.460,t1_Paradigm,2021.1.4,59.993417861785716,
L,right,Target,0,23,23,23,2102.361449717777,2104.362963903928,left,0,4,1.1797871541930363,L08T02,2022-10-21_10h33.55.460,t1_Paradigm,2021.1.4,59.993417861785716,
L,left,Lure,0,24,24,24,2105.8606679228833,2107.860406148364,left,1,4,1.021136691852007,L08T02,2022-10-21_10h33.55.460,t1_Paradigm,2021.1.4,59.993417861785716,
V,left,Pretarget,0,25,25,25,2109.360266920179,2111.3608777275076,left,1,4,1.2598895285627805,L08T02,2022-10-21_10h33.55.460,t1_Paradigm,2021.1.4,59.993417861785716,
Z,left,Distractor,0,26,26,26,2112.8593324234826,2114.8607320833253,left,1,4,1.0336158958962187,L08T02,2022-10-21_10h33.55.460,t1_Paradigm,2021.1.4,59.993417861785716,
H,left,Distractor,0,27,27,27,2116.358934308053,2118.360561416601,left,1,4,0.632057567301672,L08T02,2022-10-21_10h33.55.460,t1_Paradigm,2021.1.4,59.993417861785716,
X,left,Distractor,0,28,28,28,2119.8750029673683,2121.874900952331,left,1,4,1.106079970835708,L08T02,2022-10-21_10h33.55.460,t1_Paradigm,2021.1.4,59.993417861785716,
V,right,Target,0,29,29,29,2123.3743697039317,2125.37530805025,right,1,4,0.9772349163540639,L08T02,2022-10-21_10h33.55.460,t1_Paradigm,2021.1.4,59.993417861785716,
C,left,Distractor,0,30,30,30,2126.8737896936364,2128.874952280661,left,1,4,1.269572300137952,L08T02,2022-10-21_10h33.55.460,t1_Paradigm,2021.1.4,59.993417861785716,
S,left,Pretarget,0,31,31,31,2130.3728741242667,2132.37364148302,left,1,4,1.0364447293104604,L08T02,2022-10-21_10h33.55.460,t1_Paradigm,2021.1.4,59.993417861785716,
D,left,Distractor,0,32,32,32,2133.872553322115,2135.8733476282214,left,1,4,1.0999670856981538,L08T02,2022-10-21_10h33.55.460,t1_Paradigm,2021.1.4,59.993417861785716,
V,left,Distractor,0,33,33,33,2137.3719996175496,2139.3722937931307,right,0,4,0.7279767713625915,L08T02,2022-10-21_10h33.55.460,t1_Paradigm,2021.1.4,59.993417861785716,
R,left,Distractor,0,34,34,34,2140.8715421537054,2142.8730111068,left,1,4,0.8678946331492625,L08T02,2022-10-21_10h33.55.460,t1_Paradigm,2021.1.4,59.993417861785716,
S,right,Target,0,35,35,35,2144.3715854620095,2146.3720878381864,right,1,4,0.6096322131925263,L08T02,2022-10-21_10h33.55.460,t1_Paradigm,2021.1.4,59.993417861785716,
Y,left,Distractor,0,36,36,36,2147.870329521538,2149.8709197975113,left,1,4,0.7677966601913795,L08T02,2022-10-21_10h33.55.460,t1_Paradigm,2021.1.4,59.993417861785716,
N,left,Pretarget,0,37,37,37,2151.3695560675114,2153.369914724317,left,1,4,0.7100622163852677,L08T02,2022-10-21_10h33.55.460,t1_Paradigm,2021.1.4,59.993417861785716,
Z,left,Pretarget,0,38,38,38,2154.869266062393,2156.8707292409963,left,1,4,0.9567760794307105,L08T02,2022-10-21_10h33.55.460,t1_Paradigm,2021.1.4,59.993417861785716,
P,left,Pretarget,0,39,39,39,2158.3685747337295,2160.369998453709,left,1,4,0.7474010213045403,L08T02,2022-10-21_10h33.55.460,t1_Paradigm,2021.1.4,59.993417861785716,
M,left,Distractor,0,40,40,40,2161.867947565508,2163.868347605807,left,1,4,0.7672490508994088,L08T02,2022-10-21_10h33.55.460,t1_Paradigm,2021.1.4,59.993417861785716,
N,right,Target,0,41,41,41,2165.3677409688826,2167.368964187568,right,1,4,1.3811184189398773,L08T02,2022-10-21_10h33.55.460,t1_Paradigm,2021.1.4,59.993417861785716,
Z,right,Target,0,42,42,42,2168.8667060611187,2170.8679812496994,right,1,4,0.9596116497414187,L08T02,2022-10-21_10h33.55.460,t1_Paradigm,2021.1.4,59.993417861785716,
P,right,Target,0,43,43,43,2172.366225499485,2174.367526993854,right,1,4,1.0235821667010896,L08T02,2022-10-21_10h33.55.460,t1_Paradigm,2021.1.4,59.993417861785716,
X,left,Pretarget,0,44,44,44,2175.865532246069,2177.8668295699754,left,1,4,0.8224157942458987,L08T02,2022-10-21_10h33.55.460,t1_Paradigm,2021.1.4,59.993417861785716,
Z,left,Lure,0,45,45,45,2179.3653368775267,2181.366300567228,right,0,4,1.3680758863920346,L08T02,2022-10-21_10h33.55.460,t1_Paradigm,2021.1.4,59.993417861785716,
R,left,Pretarget,0,46,46,46,2182.8644883558154,2184.863462109701,left,1,4,0.9283106622751802,L08T02,2022-10-21_10h33.55.460,t1_Paradigm,2021.1.4,59.993417861785716,
K,left,Distractor,0,47,47,47,2186.3642281852663,2188.3647411479033,left,1,4,0.9008862480404787,L08T02,2022-10-21_10h33.55.460,t1_Paradigm,2021.1.4,59.993417861785716,
X,right,Target,0,48,48,48,2189.8633026710595,2191.8631672924967,left,0,4,1.1620637972955592,L08T02,2022-10-21_10h33.55.460,t1_Paradigm,2021.1.4,59.993417861785716,
B,left,Distractor,0,49,49,49,2193.362773668254,2195.364351694123,left,1,4,1.3181956418557093,L08T02,2022-10-21_10h33.55.460,t1_Paradigm,2021.1.4,59.993417861785716,
R,right,Target,0,50,50,50,2196.862036785693,2198.8634175182087,None,0,4,,L08T02,2022-10-21_10h33.55.460,t1_Paradigm,2021.1.4,59.993417861785716,
Y,left,Pretarget,0,51,51,51,2200.361721757974,2202.363110510516,left,1,4,1.3888404477620497,L08T02,2022-10-21_10h33.55.460,t1_Paradigm,2021.1.4,59.993417861785716,
W,left,Pretarget,0,52,52,52,2203.8609752513585,2205.8625086856773,None,0,4,,L08T02,2022-10-21_10h33.55.460,t1_Paradigm,2021.1.4,59.993417861785716,
Z,left,Distractor,0,53,53,53,2207.3603272309992,2209.361911672866,right,0,4,0.9945688194129616,L08T02,2022-10-21_10h33.55.460,t1_Paradigm,2021.1.4,59.993417861785716,
Q,left,Distractor,0,54,54,54,2210.859825817228,2212.8608401936362,left,1,4,0.8264697710983455,L08T02,2022-10-21_10h33.55.460,t1_Paradigm,2021.1.4,59.993417861785716,
Y,right,Target,0,55,55,55,2214.359129034914,2216.36065509083,left,0,4,0.9268510123947635,L08T02,2022-10-21_10h33.55.460,t1_Paradigm,2021.1.4,59.993417861785716,
W,right,Target,0,56,56,56,2217.8585637815413,2219.859669265803,right,1,4,1.252421895856969,L08T02,2022-10-21_10h33.55.460,t1_Paradigm,2021.1.4,59.993417861785716,
H,left,Pretarget,0,57,57,57,2221.3746526514296,2223.376549233799,left,1,4,1.1397167188697495,L08T02,2022-10-21_10h33.55.460,t1_Paradigm,2021.1.4,59.993417861785716,
M,left,Distractor,0,58,58,58,2224.8741297438974,2226.8740007814486,left,1,4,0.8303999183699489,L08T02,2022-10-21_10h33.55.460,t1_Paradigm,2021.1.4,59.993417861785716,
R,left,Pretarget,0,59,59,59,2228.373558716092,2230.3746471977793,left,1,4,1.1421092613600194,L08T02,2022-10-21_10h33.55.460,t1_Paradigm,2021.1.4,59.993417861785716,
J,left,Distractor,0,60,60,60,2231.87281990872,2233.8732488211826,left,1,4,0.8968120606150478,L08T02,2022-10-21_10h33.55.460,t1_Paradigm,2021.1.4,59.993417861785716,
H,right,Target,0,61,61,61,2235.372394204256,2237.371873542317,left,0,4,0.8635230621439405,L08T02,2022-10-21_10h33.55.460,t1_Paradigm,2021.1.4,59.993417861785716,
Z,left,Distractor,0,62,62,62,2238.871665020939,2240.8732892422704,left,1,4,0.9461918537854217,L08T02,2022-10-21_10h33.55.460,t1_Paradigm,2021.1.4,59.993417861785716,
R,right,Target,0,63,63,63,2242.3715081486735,2244.371424740122,left,0,4,1.0928225007955916,L08T02,2022-10-21_10h33.55.460,t1_Paradigm,2021.1.4,59.993417861785716,
J,left,Pretarget,0,0,0,0,2284.156006731675,2286.148646246933,None,0,4,,L08T02,2022-10-21_10h33.55.460,t1_Paradigm,2021.1.4,59.993417861785716,
G,left,Pretarget,0,1,1,1,2287.6468994792085,2289.6482770036673,None,0,4,,L08T02,2022-10-21_10h33.55.460,t1_Paradigm,2021.1.4,59.993417861785716,
Z,left,Distractor,0,2,2,2,2291.1462758397684,2293.1471371935913,None,0,4,,L08T02,2022-10-21_10h33.55.460,t1_Paradigm,2021.1.4,59.993417861785716,
F,left,Distractor,0,3,3,3,2294.6456772229285,2296.646853925253,None,0,4,,L08T02,2022-10-21_10h33.55.460,t1_Paradigm,2021.1.4,59.993417861785716,
J,right,Target,0,4,4,4,2298.1453352478566,2300.147088431637,left,0,4,0.7206441964372061,L08T02,2022-10-21_10h33.55.460,t1_Paradigm,2021.1.4,59.993417861785716,
G,right,Target,0,5,5,5,2301.644645202381,2303.6452325911378,right,1,4,0.6511886041262187,L08T02,2022-10-21_10h33.55.460,t1_Paradigm,2021.1.4,59.993417861785716,
H,left,Distractor,0,6,6,6,2305.1440016732668,2307.1447478591,left,1,4,1.213455020042602,L08T02,2022-10-21_10h33.55.460,t1_Paradigm,2021.1.4,59.993417861785716,
P,left,Distractor,0,7,7,7,2308.643483577762,2310.6441960794036,left,1,4,0.8122248720610514,L08T02,2022-10-21_10h33.55.460,t1_Paradigm,2021.1.4,59.993417861785716,
G,left,Lure,0,8,8,8,2312.1428111764835,2314.1435673071537,left,1,4,1.0317953436169773,L08T02,2022-10-21_10h33.55.460,t1_Paradigm,2021.1.4,59.993417861785716,
S,left,Distractor,0,9,9,9,2315.6420957876253,2317.6418840582483,left,1,4,1.015276919642929,L08T02,2022-10-21_10h33.55.460,t1_Paradigm,2021.1.4,59.993417861785716,
R,left,Pretarget,0,10,10,10,2319.1416524390806,2321.141684840084,left,1,4,0.8172797516454011,L08T02,2022-10-21_10h33.55.460,t1_Paradigm,2021.1.4,59.993417861785716,
T,left,Pretarget,0,11,11,11,2322.6406717468635,2324.640989661799,left,1,4,0.75065812561661,L08T02,2022-10-21_10h33.55.460,t1_Paradigm,2021.1.4,59.993417861785716,
X,left,Distractor,0,12,12,12,2326.140459696646,2328.142004359048,left,1,4,0.8664670635480434,L08T02,2022-10-21_10h33.55.460,t1_Paradigm,2021.1.4,59.993417861785716,
F,left,Pretarget,0,13,13,13,2329.6399749645498,2331.6417814015294,left,1,4,0.8241352937766351,L08T02,2022-10-21_10h33.55.460,t1_Paradigm,2021.1.4,59.993417861785716,
R,right,Target,0,14,14,14,2333.139273370267,2335.1388223224203,right,1,4,0.8379076513228938,L08T02,2022-10-21_10h33.55.460,t1_Paradigm,2021.1.4,59.993417861785716,
T,right,Target,0,15,15,15,2336.6386712245876,2338.6405674861744,left,0,4,1.2793715229490772,L08T02,2022-10-21_10h33.55.460,t1_Paradigm,2021.1.4,59.993417861785716,
C,left,Distractor,0,16,16,16,2340.1381293897284,2342.138431264553,left,1,4,1.1938148702029139,L08T02,2022-10-21_10h33.55.460,t1_Paradigm,2021.1.4,59.993417861785716,
F,right,Target,0,17,17,17,2343.637485860614,2345.6390439966926,right,1,4,0.9179057650035247,L08T02,2022-10-21_10h33.55.460,t1_Paradigm,2021.1.4,59.993417861785716,
M,left,Distractor,0,18,18,18,2347.1370864619385,2349.1374634044478,left,1,4,0.7829821511986665,L08T02,2022-10-21_10h33.55.460,t1_Paradigm,2021.1.4,59.993417861785716,
N,left,Distractor,0,19,19,19,2350.636313970317,2352.63821664796,left,1,4,0.7925799102522433,L08T02,2022-10-21_10h33.55.460,t1_Paradigm,2021.1.4,59.993417861785716,
R,left,Lure,0,20,20,20,2354.135732035211,2356.137206762738,left,1,4,0.7309252640116028,L08T02,2022-10-21_10h33.55.460,t1_Paradigm,2021.1.4,59.993417861785716,
F,right,Target,0,21,21,21,2357.6353611879167,2359.63659627625,right,1,4,0.639665711321868,L08T02,2022-10-21_10h33.55.460,t1_Paradigm,2021.1.4,59.993417861785716,
P,left,Distractor,0,22,22,22,2361.1346573479823,2363.135863884876,left,1,4,1.0630867070285603,L08T02,2022-10-21_10h33.55.460,t1_Paradigm,2021.1.4,59.993417861785716,
L,left,Pretarget,0,23,23,23,2364.634044615843,2366.636104165693,left,1,4,0.926441989664454,L08T02,2022-10-21_10h33.55.460,t1_Paradigm,2021.1.4,59.993417861785716,
T,left,Distractor,0,24,24,24,2368.1334758336307,2370.1346875033923,left,1,4,0.9544476973824203,L08T02,2022-10-21_10h33.55.460,t1_Paradigm,2021.1.4,59.993417861785716,
F,left,Distractor,0,25,25,25,2371.6328095275676,2373.6331941693206,right,0,4,0.66027051320998,L08T02,2022-10-21_10h33.55.460,t1_Paradigm,2021.1.4,59.993417861785716,
V,left,Distractor,0,26,26,26,2375.13235655491,2377.1342207362177,left,1,4,0.7882400986272842,L08T02,2022-10-21_10h33.55.460,t1_Paradigm,2021.1.4,59.993417861785716,
L,right,Target,0,27,27,27,2378.6484473496093,2380.6496827587252,right,1,4,0.5872363728121854,L08T02,2022-10-21_10h33.55.460,t1_Paradigm,2021.1.4,59.993417861785716,
S,left,Pretarget,0,28,28,28,2382.1478403919027,2384.1487652645446,left,1,4,0.96614221931668,L08T02,2022-10-21_10h33.55.460,t1_Paradigm,2021.1.4,59.993417861785716,
W,left,Distractor,0,29,29,29,2385.6472353590652,2387.6482404322014,left,1,4,0.8795397515641525,L08T02,2022-10-21_10h33.55.460,t1_Paradigm,2021.1.4,59.993417861785716,
Q,left,Distractor,0,30,30,30,2389.1467050730716,2391.147691860504,left,1,4,0.9596568828565069,L08T02,2022-10-21_10h33.55.460,t1_Paradigm,2021.1.4,59.993417861785716,
L,right,Target,0,31,31,31,2392.646101323422,2394.647198466817,right,1,4,0.7174063401762396,L08T02,2022-10-21_10h33.55.460,t1_Paradigm,2021.1.4,59.993417861785716,
S,right,Target,0,32,32,32,2396.1453756689443,2398.146798426518,right,1,4,0.6057861160370521,L08T02,2022-10-21_10h33.55.460,t1_Paradigm,2021.1.4,59.993417861785716,
Z,left,Pretarget,0,33,33,33,2399.64484345814,2401.6469899453805,left,1,4,0.9261109218350612,L08T02,2022-10-21_10h33.55.460,t1_Paradigm,2021.1.4,59.993417861785716,
F,left,Distractor,0,34,34,34,2403.144309643365,2405.145470305579,left,1,4,0.8815559931099415,L08T02,2022-10-21_10h33.55.460,t1_Paradigm,2021.1.4,59.993417861785716,
V,left,Distractor,0,35,35,35,2406.6436863247654,2408.6448498741956,left,1,4,1.0357495510252193,L08T02,2022-10-21_10h33.55.460,t1_Paradigm,2021.1.4,59.993417861785716,
M,left,Distractor,0,36,36,36,2410.1431772117503,2412.142233732564,left,1,4,0.9668544000596739,L08T02,2022-10-21_10h33.55.460,t1_Paradigm,2021.1.4,59.993417861785716,
Z,right,Target,0,37,37,37,2413.64243680035,2415.6426527001895,left,0,4,1.1682427676860243,L08T02,2022-10-21_10h33.55.460,t1_Paradigm,2021.1.4,59.993417861785716,
H,left,Pretarget,0,38,38,38,2417.1419430858223,2419.1439294927986,left,1,4,1.0473074112087488,L08T02,2022-10-21_10h33.55.460,t1_Paradigm,2021.1.4,59.993417861785716,
L,left,Distractor,0,39,39,39,2420.6414413512684,2422.642095466843,right,0,4,1.1571783011895604,L08T02,2022-10-21_10h33.55.460,t1_Paradigm,2021.1.4,59.993417861785716,
G,left,Distractor,0,40,40,40,2424.1405058921664,2426.1402755561867,left,1,4,0.9242570061469451,L08T02,2022-10-21_10h33.55.460,t1_Paradigm,2021.1.4,59.993417861785716,
K,left,Distractor,0,41,41,41,2427.640269140131,2429.641348639445,left,1,4,0.8724949361057952,L08T02,2022-10-21_10h33.55.460,t1_Paradigm,2021.1.4,59.993417861785716,
H,right,Target,0,42,42,42,2431.139963415684,2433.1410628046724,right,1,4,0.6545634428039193,L08T02,2022-10-21_10h33.55.460,t1_Paradigm,2021.1.4,59.993417861785716,
B,left,Distractor,0,43,43,43,2434.6389666833566,2436.64041253872,left,1,4,0.7761384787736461,L08T02,2022-10-21_10h33.55.460,t1_Paradigm,2021.1.4,59.993417861785716,
Z,left,Distractor,0,44,44,44,2438.1384104124154,2440.1392101722304,left,1,4,0.987669327412732,L08T02,2022-10-21_10h33.55.460,t1_Paradigm,2021.1.4,59.993417861785716,
T,left,Pretarget,0,45,45,45,2441.6379173395108,2443.637564457138,left,1,4,1.114242781768553,L08T02,2022-10-21_10h33.55.460,t1_Paradigm,2021.1.4,59.993417861785716,
H,right,Target,0,46,46,46,2445.1373530485434,2447.1374502515537,right,1,4,1.116467865591403,L08T02,2022-10-21_10h33.55.460,t1_Paradigm,2021.1.4,59.993417861785716,
F,left,Distractor,0,47,47,47,2448.6367518652696,2450.638440888666,left,1,4,1.3143062364542857,L08T02,2022-10-21_10h33.55.460,t1_Paradigm,2021.1.4,59.993417861785716,
R,left,Distractor,0,48,48,48,2452.1361012784764,2454.1371121261036,None,0,4,,L08T02,2022-10-21_10h33.55.460,t1_Paradigm,2021.1.4,59.993417861785716,
T,right,Target,0,49,49,49,2455.635300556314,2457.63745313877,None,0,4,,L08T02,2022-10-21_10h33.55.460,t1_Paradigm,2021.1.4,59.993417861785716,
H,right,Target,0,50,50,50,2459.134944786725,2461.135777909949,left,0,4,1.095232366642449,L08T02,2022-10-21_10h33.55.460,t1_Paradigm,2021.1.4,59.993417861785716,
Y,left,Pretarget,0,51,51,51,2462.6340824704967,2464.6350137591944,left,1,4,0.7962245435337536,L08T02,2022-10-21_10h33.55.460,t1_Paradigm,2021.1.4,59.993417861785716,
H,left,Distractor,0,52,52,52,2466.1336436131387,2468.134024405328,left,1,4,1.1794416502816603,L08T02,2022-10-21_10h33.55.460,t1_Paradigm,2021.1.4,59.993417861785716,
S,left,Distractor,0,53,53,53,2469.632873367169,2471.6349319546134,left,1,4,0.9766225050552748,L08T02,2022-10-21_10h33.55.460,t1_Paradigm,2021.1.4,59.993417861785716,
Q,left,Distractor,0,54,54,54,2473.132585286803,2475.1332005853765,left,1,4,0.8258252795785666,L08T02,2022-10-21_10h33.55.460,t1_Paradigm,2021.1.4,59.993417861785716,
Y,right,Target,0,55,55,55,2476.6487277306733,2478.648744412407,right,1,4,0.6941032713511959,L08T02,2022-10-21_10h33.55.460,t1_Paradigm,2021.1.4,59.993417861785716,
R,left,Distractor,0,56,56,56,2480.148044101312,2482.149811079609,left,1,4,0.8058348138001747,L08T02,2022-10-21_10h33.55.460,t1_Paradigm,2021.1.4,59.993417861785716,
H,left,Pretarget,0,57,57,57,2483.647571880487,2485.647954597487,right,0,4,1.32465627649799,L08T02,2022-10-21_10h33.55.460,t1_Paradigm,2021.1.4,59.993417861785716,
J,left,Distractor,0,58,58,58,2487.14691744413,2489.1481210938073,left,1,4,0.779832836415153,L08T02,2022-10-21_10h33.55.460,t1_Paradigm,2021.1.4,59.993417861785716,
V,left,Distractor,0,59,59,59,2490.6462771230144,2492.6473752287566,left,1,4,0.823442681983579,L08T02,2022-10-21_10h33.55.460,t1_Paradigm,2021.1.4,59.993417861785716,
Y,left,Lure,0,60,60,60,2494.14567946858,2496.146877023042,left,1,4,0.8148641114239581,L08T02,2022-10-21_10h33.55.460,t1_Paradigm,2021.1.4,59.993417861785716,
H,right,Target,0,61,61,61,2497.6451591274817,2499.6463191480725,right,1,4,0.8170802126987837,L08T02,2022-10-21_10h33.55.460,t1_Paradigm,2021.1.4,59.993417861785716,
L,left,Distractor,0,62,62,62,2501.1445467161248,2503.1458886315813,left,1,4,1.0486740284250118,L08T02,2022-10-21_10h33.55.460,t1_Paradigm,2021.1.4,59.993417861785716,
P,left,Distractor,0,63,63,63,2504.644038565515,2506.6448197187856,left,1,4,1.1826442182064056,L08T02,2022-10-21_10h33.55.460,t1_Paradigm,2021.1.4,59.993417861785716,
