Letter,CorrAnswer,Stimulus,nback_run.thisRepN,nback_run.thisTrialN,nback_run.thisN,nback_run.thisIndex,fixcross.started,nback_trial.started,trial_resp.keys,trial_resp.corr,currentlevel,trial_resp.rt,Participant,date,expName,psychopyVersion,frameRate,
H,left,Distractor,0,0,0,0,328.4072030442767,330.3947841351619,None,0,1,,L09A05,2022-11-30_09h02.49.125,t1_Paradigm,2021.1.4,60.0804109193435,
Q,left,Pretarget,0,1,1,1,331.89552583071054,333.89405559250736,left,1,1,0.46230120668769814,L09A05,2022-11-30_09h02.49.125,t1_Paradigm,2021.1.4,60.0804109193435,
Q,right,Target,0,2,2,2,335.3909527900396,337.39085879488266,right,1,1,0.5715469933929853,L09A05,2022-11-30_09h02.49.125,t1_Paradigm,2021.1.4,60.0804109193435,
T,left,Distractor,0,3,3,3,338.8905039872625,340.8921003008436,left,1,1,0.37503071685205214,L09A05,2022-11-30_09h02.49.125,t1_Paradigm,2021.1.4,60.0804109193435,
Q,left,Lure,0,4,4,4,342.38998172065476,344.3890266914095,left,1,1,0.533584179560421,L09A05,2022-11-30_09h02.49.125,t1_Paradigm,2021.1.4,60.0804109193435,
L,left,Distractor,0,5,5,5,345.88941133368644,347.89172688664985,left,1,1,0.4580877856933512,L09A05,2022-11-30_09h02.49.125,t1_Paradigm,2021.1.4,60.0804109193435,
V,left,Pretarget,0,6,6,6,349.38802290015155,351.39067882465315,left,1,1,0.406931966135744,L09A05,2022-11-30_09h02.49.125,t1_Paradigm,2021.1.4,60.0804109193435,
V,right,Target,0,7,7,7,352.8882359130657,354.8875160320895,left,0,1,0.5002126921026502,L09A05,2022-11-30_09h02.49.125,t1_Paradigm,2021.1.4,60.0804109193435,
K,left,Distractor,0,8,8,8,356.3874111296609,358.3890161049203,left,1,1,0.3888133577129338,L09A05,2022-11-30_09h02.49.125,t1_Paradigm,2021.1.4,60.0804109193435,
G,left,Pretarget,0,9,9,9,359.8865747973614,361.888790580706,left,1,1,0.41817705862922594,L09A05,2022-11-30_09h02.49.125,t1_Paradigm,2021.1.4,60.0804109193435,
G,right,Target,0,10,10,10,363.3863232881413,365.3862883206748,right,1,1,0.4295273743919097,L09A05,2022-11-30_09h02.49.125,t1_Paradigm,2021.1.4,60.0804109193435,
G,right,Target,0,11,11,11,366.8857532219845,368.88556683567003,right,1,1,0.43066750676371157,L09A05,2022-11-30_09h02.49.125,t1_Paradigm,2021.1.4,60.0804109193435,
P,left,Pretarget,0,12,12,12,370.3850968599145,372.3869825374277,left,1,1,0.39333186190924607,L09A05,2022-11-30_09h02.49.125,t1_Paradigm,2021.1.4,60.0804109193435,
P,right,Target,0,13,13,13,373.88463009218685,375.8843561267713,left,0,1,0.6081970831437502,L09A05,2022-11-30_09h02.49.125,t1_Paradigm,2021.1.4,60.0804109193435,
G,left,Lure,0,14,14,14,377.3841164872574,379.38323588419007,left,1,1,0.9479683894023765,L09A05,2022-11-30_09h02.49.125,t1_Paradigm,2021.1.4,60.0804109193435,
Y,left,Distractor,0,15,15,15,380.883676666941,382.88516775728203,left,1,1,0.7422890290035866,L09A05,2022-11-30_09h02.49.125,t1_Paradigm,2021.1.4,60.0804109193435,
B,left,Distractor,0,16,16,16,384.38279413906275,386.3846496611368,left,1,1,0.7600685490760952,L09A05,2022-11-30_09h02.49.125,t1_Paradigm,2021.1.4,60.0804109193435,
T,left,Pretarget,0,17,17,17,387.8824544091476,389.8842159360647,left,1,1,0.6913487887650263,L09A05,2022-11-30_09h02.49.125,t1_Paradigm,2021.1.4,60.0804109193435,
T,right,Target,0,18,18,18,391.3816514403152,393.38148558538524,right,1,1,0.48662894882727414,L09A05,2022-11-30_09h02.49.125,t1_Paradigm,2021.1.4,60.0804109193435,
S,left,Distractor,0,19,19,19,394.88114649706404,396.88300330232596,left,1,1,0.5431091286882292,L09A05,2022-11-30_09h02.49.125,t1_Paradigm,2021.1.4,60.0804109193435,
T,left,Lure,0,20,20,20,398.3804570923385,400.3819921326358,left,1,1,0.5851823858974967,L09A05,2022-11-30_09h02.49.125,t1_Paradigm,2021.1.4,60.0804109193435,
J,left,Distractor,0,21,21,21,401.88002721688827,403.88180767116137,left,1,1,0.5816150612954516,L09A05,2022-11-30_09h02.49.125,t1_Paradigm,2021.1.4,60.0804109193435,
P,left,Distractor,0,22,22,22,405.37913249852136,407.381474998896,left,1,1,0.6232962977373973,L09A05,2022-11-30_09h02.49.125,t1_Paradigm,2021.1.4,60.0804109193435,
F,left,Distractor,0,23,23,23,408.87893071369035,410.8805437090341,left,1,1,0.6449735690839589,L09A05,2022-11-30_09h02.49.125,t1_Paradigm,2021.1.4,60.0804109193435,
L,left,Distractor,0,24,24,24,412.378143464186,414.3781745820306,left,1,1,0.6477664762642235,L09A05,2022-11-30_09h02.49.125,t1_Paradigm,2021.1.4,60.0804109193435,
W,left,Pretarget,0,25,25,25,415.8774447561882,417.879307335912,left,1,1,0.5655091681983322,L09A05,2022-11-30_09h02.49.125,t1_Paradigm,2021.1.4,60.0804109193435,
W,right,Target,0,26,26,26,419.3769888957322,421.3764403233363,right,1,1,0.45907168718986213,L09A05,2022-11-30_09h02.49.125,t1_Paradigm,2021.1.4,60.0804109193435,
V,left,Distractor,0,27,27,27,422.87633606250165,424.87626901475596,left,1,1,0.5210260421154089,L09A05,2022-11-30_09h02.49.125,t1_Paradigm,2021.1.4,60.0804109193435,
W,left,Lure,0,28,28,28,426.37607172116986,428.37531398551073,left,1,1,0.6490192103083245,L09A05,2022-11-30_09h02.49.125,t1_Paradigm,2021.1.4,60.0804109193435,
R,left,Pretarget,0,29,29,29,429.87519753418746,431.87684934661957,left,1,1,0.5176146275771316,L09A05,2022-11-30_09h02.49.125,t1_Paradigm,2021.1.4,60.0804109193435,
R,right,Target,0,30,30,30,433.3915292722522,435.39103234908544,right,1,1,0.44691519456682727,L09A05,2022-11-30_09h02.49.125,t1_Paradigm,2021.1.4,60.0804109193435,
G,left,Distractor,0,31,31,31,436.8908196569828,438.8901501420187,left,1,1,0.6033597011410166,L09A05,2022-11-30_09h02.49.125,t1_Paradigm,2021.1.4,60.0804109193435,
R,left,Lure,0,32,32,32,440.390083094273,442.39208522310946,left,1,1,0.5405167230928782,L09A05,2022-11-30_09h02.49.125,t1_Paradigm,2021.1.4,60.0804109193435,
S,left,Distractor,0,33,33,33,443.8896506524179,445.88927563419566,left,1,1,0.511254716606345,L09A05,2022-11-30_09h02.49.125,t1_Paradigm,2021.1.4,60.0804109193435,
R,left,Lure,0,34,34,34,447.3887896183005,449.3910432563571,left,1,1,0.39197679184144363,L09A05,2022-11-30_09h02.49.125,t1_Paradigm,2021.1.4,60.0804109193435,
P,left,Pretarget,0,35,35,35,450.8883639132837,452.8895306722552,left,1,1,0.5692041722359136,L09A05,2022-11-30_09h02.49.125,t1_Paradigm,2021.1.4,60.0804109193435,
P,right,Target,0,36,36,36,454.38788527584984,456.38776529568713,right,1,1,0.9426206105272286,L09A05,2022-11-30_09h02.49.125,t1_Paradigm,2021.1.4,60.0804109193435,
Y,left,Pretarget,0,37,37,37,457.8871044424013,459.8893667421362,left,1,1,0.5256401454971638,L09A05,2022-11-30_09h02.49.125,t1_Paradigm,2021.1.4,60.0804109193435,
Y,right,Target,0,38,38,38,461.38657287255046,463.3863438194967,right,1,1,0.5007439411710948,L09A05,2022-11-30_09h02.49.125,t1_Paradigm,2021.1.4,60.0804109193435,
J,left,Distractor,0,39,39,39,464.8860284705879,466.887298207148,left,1,1,0.5130948401638307,L09A05,2022-11-30_09h02.49.125,t1_Paradigm,2021.1.4,60.0804109193435,
Y,left,Lure,0,40,40,40,468.3855023543583,470.38673327383003,left,1,1,0.49403531779535115,L09A05,2022-11-30_09h02.49.125,t1_Paradigm,2021.1.4,60.0804109193435,
T,left,Distractor,0,41,41,41,471.8848572204006,473.885769903718,left,1,1,0.9515616990101989,L09A05,2022-11-30_09h02.49.125,t1_Paradigm,2021.1.4,60.0804109193435,
V,left,Distractor,0,42,42,42,475.3843602972047,477.3861991375452,left,1,1,0.6459789643413387,L09A05,2022-11-30_09h02.49.125,t1_Paradigm,2021.1.4,60.0804109193435,
N,left,Pretarget,0,43,43,43,478.883676025318,480.885589612677,left,1,1,0.5532830614247359,L09A05,2022-11-30_09h02.49.125,t1_Paradigm,2021.1.4,60.0804109193435,
N,right,Target,0,44,44,44,482.3828358433966,484.3830912022386,right,1,1,0.690943294292083,L09A05,2022-11-30_09h02.49.125,t1_Paradigm,2021.1.4,60.0804109193435,
N,right,Target,0,45,45,45,485.88247622372,487.8821226992877,right,1,1,0.5253912027110346,L09A05,2022-11-30_09h02.49.125,t1_Paradigm,2021.1.4,60.0804109193435,
X,left,Distractor,0,46,46,46,489.38189781666733,491.38459512469126,left,1,1,0.5519186881138012,L09A05,2022-11-30_09h02.49.125,t1_Paradigm,2021.1.4,60.0804109193435,
Z,left,Distractor,0,47,47,47,492.88172233768273,494.88304981871624,left,1,1,0.5744451238424517,L09A05,2022-11-30_09h02.49.125,t1_Paradigm,2021.1.4,60.0804109193435,
H,left,Pretarget,0,48,48,48,496.3809482410725,498.382712655206,left,1,1,0.8238681603979785,L09A05,2022-11-30_09h02.49.125,t1_Paradigm,2021.1.4,60.0804109193435,
H,right,Target,0,49,49,49,499.88008271573926,501.8796137023601,right,1,1,0.4204390375816729,L09A05,2022-11-30_09h02.49.125,t1_Paradigm,2021.1.4,60.0804109193435,
K,left,Distractor,0,50,50,50,503.37972470006207,505.3813216552662,left,1,1,0.49218717418261804,L09A05,2022-11-30_09h02.49.125,t1_Paradigm,2021.1.4,60.0804109193435,
V,left,Pretarget,0,51,51,51,506.87908405732014,508.87946869959706,left,1,1,0.42579002445563674,L09A05,2022-11-30_09h02.49.125,t1_Paradigm,2021.1.4,60.0804109193435,
V,right,Target,0,52,52,52,510.37860445748083,512.3782220608264,right,1,1,0.9409084872168023,L09A05,2022-11-30_09h02.49.125,t1_Paradigm,2021.1.4,60.0804109193435,
R,left,Distractor,0,53,53,53,513.8776587315078,515.8794709452195,left,1,1,0.43916235881624743,L09A05,2022-11-30_09h02.49.125,t1_Paradigm,2021.1.4,60.0804109193435,
V,left,Lure,0,54,54,54,517.3771942093736,519.3767444441619,left,1,1,1.094598262134241,L09A05,2022-11-30_09h02.49.125,t1_Paradigm,2021.1.4,60.0804109193435,
Y,left,Distractor,0,55,55,55,520.8768551210524,522.8792842381226,left,1,1,0.5505475779064,L09A05,2022-11-30_09h02.49.125,t1_Paradigm,2021.1.4,60.0804109193435,
Q,left,Distractor,0,56,56,56,524.3762378969113,526.3780645467632,left,1,1,0.5402456449228339,L09A05,2022-11-30_09h02.49.125,t1_Paradigm,2021.1.4,60.0804109193435,
Z,left,Pretarget,0,57,57,57,527.8923357699241,529.8935423083894,left,1,1,0.5376772995805368,L09A05,2022-11-30_09h02.49.125,t1_Paradigm,2021.1.4,60.0804109193435,
Z,right,Target,0,58,58,58,531.3909681885561,533.391467036563,right,1,1,0.5160914569569286,L09A05,2022-11-30_09h02.49.125,t1_Paradigm,2021.1.4,60.0804109193435,
B,left,Distractor,0,59,59,59,534.8909823038848,536.8934627493727,left,1,1,0.6530712675594259,L09A05,2022-11-30_09h02.49.125,t1_Paradigm,2021.1.4,60.0804109193435,
S,left,Pretarget,0,60,60,60,538.3905460123788,540.3914173121739,left,1,1,0.5132866800995544,L09A05,2022-11-30_09h02.49.125,t1_Paradigm,2021.1.4,60.0804109193435,
S,right,Target,0,61,61,61,541.8900940015737,543.889594511973,right,1,1,0.5564169817662332,L09A05,2022-11-30_09h02.49.125,t1_Paradigm,2021.1.4,60.0804109193435,
T,left,Distractor,0,62,62,62,545.3895053288434,547.3913874775171,left,1,1,0.44535545248072594,L09A05,2022-11-30_09h02.49.125,t1_Paradigm,2021.1.4,60.0804109193435,
D,left,Distractor,0,63,63,63,548.8890013479977,550.8901604076964,left,1,1,0.5408692851488013,L09A05,2022-11-30_09h02.49.125,t1_Paradigm,2021.1.4,60.0804109193435,
R,left,Distractor,0,0,0,0,568.1138987072336,570.1193998297094,left,1,1,0.6219213379372377,L09A05,2022-11-30_09h02.49.125,t1_Paradigm,2021.1.4,60.0804109193435,
V,left,Distractor,0,1,1,1,571.6189529517433,573.6207330852048,left,1,1,1.0082879344408866,L09A05,2022-11-30_09h02.49.125,t1_Paradigm,2021.1.4,60.0804109193435,
N,left,Pretarget,0,2,2,2,575.1174830343516,577.1197308979754,left,1,1,0.6068080079858191,L09A05,2022-11-30_09h02.49.125,t1_Paradigm,2021.1.4,60.0804109193435,
N,right,Target,0,3,3,3,578.6172680966265,580.6170063217287,right,1,1,0.4309106750879437,L09A05,2022-11-30_09h02.49.125,t1_Paradigm,2021.1.4,60.0804109193435,
S,left,Distractor,0,4,4,4,582.116705408931,584.1181503036933,left,1,1,0.5812801434076391,L09A05,2022-11-30_09h02.49.125,t1_Paradigm,2021.1.4,60.0804109193435,
N,left,Lure,0,5,5,5,585.616120906634,587.617467635835,right,0,1,0.43151346311788075,L09A05,2022-11-30_09h02.49.125,t1_Paradigm,2021.1.4,60.0804109193435,
Z,left,Distractor,0,6,6,6,589.1155065697094,591.11535867973,left,1,1,0.8010616640094668,L09A05,2022-11-30_09h02.49.125,t1_Paradigm,2021.1.4,60.0804109193435,
L,left,Pretarget,0,7,7,7,592.6145909991756,594.6159515228646,left,1,1,0.5813061284425203,L09A05,2022-11-30_09h02.49.125,t1_Paradigm,2021.1.4,60.0804109193435,
L,right,Target,0,8,8,8,596.1146006232593,598.113989815145,right,1,1,0.6204360220290255,L09A05,2022-11-30_09h02.49.125,t1_Paradigm,2021.1.4,60.0804109193435,
H,left,Distractor,0,9,9,9,599.6135390875279,601.615940615593,left,1,1,0.86398612591438,L09A05,2022-11-30_09h02.49.125,t1_Paradigm,2021.1.4,60.0804109193435,
L,left,Lure,0,10,10,10,603.113173372607,605.1139779454679,left,1,1,0.8463079794601072,L09A05,2022-11-30_09h02.49.125,t1_Paradigm,2021.1.4,60.0804109193435,
X,left,Pretarget,0,11,11,11,606.6126286498329,608.6146705582214,left,1,1,0.6058991743193474,L09A05,2022-11-30_09h02.49.125,t1_Paradigm,2021.1.4,60.0804109193435,
X,right,Target,0,12,12,12,610.112207436061,612.111625500198,right,1,1,0.7685204136359971,L09A05,2022-11-30_09h02.49.125,t1_Paradigm,2021.1.4,60.0804109193435,
X,right,Target,0,13,13,13,613.6114711941627,615.6113656501111,right,1,1,0.7776889511151239,L09A05,2022-11-30_09h02.49.125,t1_Paradigm,2021.1.4,60.0804109193435,
R,left,Distractor,0,14,14,14,617.1109223009553,619.112789371924,left,1,1,0.532387906772783,L09A05,2022-11-30_09h02.49.125,t1_Paradigm,2021.1.4,60.0804109193435,
T,left,Distractor,0,15,15,15,620.6103631420992,622.6118150945113,left,1,1,0.5628798703546636,L09A05,2022-11-30_09h02.49.125,t1_Paradigm,2021.1.4,60.0804109193435,
V,left,Pretarget,0,16,16,16,624.1099412867043,626.1106679045188,left,1,1,0.605364717222983,L09A05,2022-11-30_09h02.49.125,t1_Paradigm,2021.1.4,60.0804109193435,
V,right,Target,0,17,17,17,627.6090571548266,629.608422607329,right,1,1,0.5675610214530025,L09A05,2022-11-30_09h02.49.125,t1_Paradigm,2021.1.4,60.0804109193435,
N,left,Distractor,0,18,18,18,631.1086564724101,633.1102575980476,left,1,1,0.5340089221426751,L09A05,2022-11-30_09h02.49.125,t1_Paradigm,2021.1.4,60.0804109193435,
B,left,Distractor,0,19,19,19,634.6083889230795,636.6092364834622,left,1,1,0.45422018991666846,L09A05,2022-11-30_09h02.49.125,t1_Paradigm,2021.1.4,60.0804109193435,
V,left,Lure,0,20,20,20,638.10743838505,640.1092547691951,left,1,1,0.838182691950351,L09A05,2022-11-30_09h02.49.125,t1_Paradigm,2021.1.4,60.0804109193435,
P,left,Distractor,0,21,21,21,641.6064410098479,643.6093558220018,left,1,1,0.5163731216161977,L09A05,2022-11-30_09h02.49.125,t1_Paradigm,2021.1.4,60.0804109193435,
K,left,Pretarget,0,22,22,22,645.1061593451886,647.1075477787235,left,1,1,0.45821771075134166,L09A05,2022-11-30_09h02.49.125,t1_Paradigm,2021.1.4,60.0804109193435,
K,right,Target,0,23,23,23,648.6057079759776,650.6055437250761,right,1,1,0.554586482263403,L09A05,2022-11-30_09h02.49.125,t1_Paradigm,2021.1.4,60.0804109193435,
J,left,Pretarget,0,24,24,24,652.1050872229971,654.1058805677749,left,1,1,0.9260704058979172,L09A05,2022-11-30_09h02.49.125,t1_Paradigm,2021.1.4,60.0804109193435,
J,right,Target,0,25,25,25,655.6046647260082,657.6043955726491,right,1,1,0.48401729509350844,L09A05,2022-11-30_09h02.49.125,t1_Paradigm,2021.1.4,60.0804109193435,
H,left,Distractor,0,26,26,26,659.1039733964717,661.1056614596164,left,1,1,0.4307935821416322,L09A05,2022-11-30_09h02.49.125,t1_Paradigm,2021.1.4,60.0804109193435,
J,left,Lure,0,27,27,27,662.619888732821,664.6209011857572,left,1,1,0.7501486919936724,L09A05,2022-11-30_09h02.49.125,t1_Paradigm,2021.1.4,60.0804109193435,
V,left,Distractor,0,28,28,28,666.1192073481798,668.1200359812065,left,1,1,0.5155101626878604,L09A05,2022-11-30_09h02.49.125,t1_Paradigm,2021.1.4,60.0804109193435,
Z,left,Pretarget,0,29,29,29,669.6186812319502,671.6197292939469,left,1,1,0.42694683850277215,L09A05,2022-11-30_09h02.49.125,t1_Paradigm,2021.1.4,60.0804109193435,
Z,right,Target,0,30,30,30,673.1180813311366,675.1176142425975,right,1,1,0.5195163452299312,L09A05,2022-11-30_09h02.49.125,t1_Paradigm,2021.1.4,60.0804109193435,
T,left,Distractor,0,31,31,31,676.6175574605586,678.6186780239223,left,1,1,0.5558446699578781,L09A05,2022-11-30_09h02.49.125,t1_Paradigm,2021.1.4,60.0804109193435,
Z,left,Lure,0,32,32,32,680.1173710742441,682.1183280283294,left,1,1,0.9727911299269181,L09A05,2022-11-30_09h02.49.125,t1_Paradigm,2021.1.4,60.0804109193435,
F,left,Distractor,0,33,33,33,683.6163063305139,685.6177146538103,left,1,1,0.4771479496557731,L09A05,2022-11-30_09h02.49.125,t1_Paradigm,2021.1.4,60.0804109193435,
Y,left,Pretarget,0,34,34,34,687.1158559237083,689.1171628733864,left,1,1,0.5841134717338718,L09A05,2022-11-30_09h02.49.125,t1_Paradigm,2021.1.4,60.0804109193435,
Y,right,Target,0,35,35,35,690.6151270602713,692.6148441123951,right,1,1,0.5140296588360798,L09A05,2022-11-30_09h02.49.125,t1_Paradigm,2021.1.4,60.0804109193435,
Y,right,Target,0,36,36,36,694.1146622173546,696.1145300466742,right,1,1,0.5190871113736648,L09A05,2022-11-30_09h02.49.125,t1_Paradigm,2021.1.4,60.0804109193435,
W,left,Distractor,0,37,37,37,697.61419224157,699.6151873711497,left,1,1,0.3848706941062119,L09A05,2022-11-30_09h02.49.125,t1_Paradigm,2021.1.4,60.0804109193435,
Q,left,Distractor,0,38,38,38,701.1136282706575,703.1151857671503,left,1,1,0.5610423132311553,L09A05,2022-11-30_09h02.49.125,t1_Paradigm,2021.1.4,60.0804109193435,
P,left,Pretarget,0,39,39,39,704.612920580199,706.6149621677469,left,1,1,0.5090469533170108,L09A05,2022-11-30_09h02.49.125,t1_Paradigm,2021.1.4,60.0804109193435,
P,right,Target,0,40,40,40,708.1125587148708,710.1122414411511,right,1,1,0.5575875903305132,L09A05,2022-11-30_09h02.49.125,t1_Paradigm,2021.1.4,60.0804109193435,
J,left,Distractor,0,41,41,41,711.6117727485835,713.6115982319752,left,1,1,0.45701149306842126,L09A05,2022-11-30_09h02.49.125,t1_Paradigm,2021.1.4,60.0804109193435,
P,left,Lure,0,42,42,42,715.1111006671854,717.1121073456598,left,1,1,0.4202773530851118,L09A05,2022-11-30_09h02.49.125,t1_Paradigm,2021.1.4,60.0804109193435,
L,left,Distractor,0,43,43,43,718.6107432931312,720.6116941519431,left,1,1,0.42979588615708053,L09A05,2022-11-30_09h02.49.125,t1_Paradigm,2021.1.4,60.0804109193435,
Z,left,Distractor,0,44,44,44,722.1103076432482,724.1111523164145,left,1,1,0.5859827882959507,L09A05,2022-11-30_09h02.49.125,t1_Paradigm,2021.1.4,60.0804109193435,
F,left,Pretarget,0,45,45,45,725.6095345090434,727.610368916532,left,1,1,0.5264950843411498,L09A05,2022-11-30_09h02.49.125,t1_Paradigm,2021.1.4,60.0804109193435,
F,right,Target,0,46,46,46,729.1091072000272,731.1082913990831,right,1,1,0.42367465229472145,L09A05,2022-11-30_09h02.49.125,t1_Paradigm,2021.1.4,60.0804109193435,
G,left,Pretarget,0,47,47,47,732.6080536843801,734.6103904102929,left,1,1,0.8827229209127836,L09A05,2022-11-30_09h02.49.125,t1_Paradigm,2021.1.4,60.0804109193435,
G,right,Target,0,48,48,48,736.1079981855291,738.1073062143987,right,1,1,0.711889456550125,L09A05,2022-11-30_09h02.49.125,t1_Paradigm,2021.1.4,60.0804109193435,
V,left,Distractor,0,49,49,49,739.6072693220922,741.6068025543645,left,1,1,0.4602753384388052,L09A05,2022-11-30_09h02.49.125,t1_Paradigm,2021.1.4,60.0804109193435,
G,left,Lure,0,50,50,50,743.1068859630323,745.1085794797982,left,1,1,0.5157866945082787,L09A05,2022-11-30_09h02.49.125,t1_Paradigm,2021.1.4,60.0804109193435,
Q,left,Pretarget,0,51,51,51,746.6060768989264,748.6076398490695,left,1,1,0.4688362758315634,L09A05,2022-11-30_09h02.49.125,t1_Paradigm,2021.1.4,60.0804109193435,
Q,right,Target,0,52,52,52,750.105692577461,752.1051157744369,right,1,1,0.4558588494255673,L09A05,2022-11-30_09h02.49.125,t1_Paradigm,2021.1.4,60.0804109193435,
Y,left,Distractor,0,53,53,53,753.6049990023021,755.6068734517321,left,1,1,0.4180997452349402,L09A05,2022-11-30_09h02.49.125,t1_Paradigm,2021.1.4,60.0804109193435,
V,left,Distractor,0,54,54,54,757.1210625494423,759.1220660198887,left,1,1,0.5055139545875136,L09A05,2022-11-30_09h02.49.125,t1_Paradigm,2021.1.4,60.0804109193435,
B,left,Distractor,0,55,55,55,760.6204369844345,762.6225340708334,left,1,1,0.4038330132898409,L09A05,2022-11-30_09h02.49.125,t1_Paradigm,2021.1.4,60.0804109193435,
J,left,Pretarget,0,56,56,56,764.1197822263639,766.1219206963142,left,1,1,0.6737428228370845,L09A05,2022-11-30_09h02.49.125,t1_Paradigm,2021.1.4,60.0804109193435,
J,right,Target,0,57,57,57,767.6193385564256,769.6190453428717,right,1,1,0.5190389909839723,L09A05,2022-11-30_09h02.49.125,t1_Paradigm,2021.1.4,60.0804109193435,
H,left,Distractor,0,58,58,58,771.11861707145,773.1206140674476,left,1,1,0.4777176950010471,L09A05,2022-11-30_09h02.49.125,t1_Paradigm,2021.1.4,60.0804109193435,
J,left,Lure,0,59,59,59,774.6179379324021,776.6179498020792,left,1,1,0.6810138131259009,L09A05,2022-11-30_09h02.49.125,t1_Paradigm,2021.1.4,60.0804109193435,
D,left,Pretarget,0,60,60,60,778.1174740518909,780.1200850640016,left,1,1,0.5001562308461871,L09A05,2022-11-30_09h02.49.125,t1_Paradigm,2021.1.4,60.0804109193435,
D,right,Target,0,61,61,61,781.6169601261499,783.6165828623343,right,1,1,0.6022413833998144,L09A05,2022-11-30_09h02.49.125,t1_Paradigm,2021.1.4,60.0804109193435,
R,left,Distractor,0,62,62,62,785.1163884559646,787.1163602253655,left,1,1,0.4361198672268074,L09A05,2022-11-30_09h02.49.125,t1_Paradigm,2021.1.4,60.0804109193435,
F,left,Distractor,0,63,63,63,788.6156721038278,790.6169302915223,left,1,1,0.47731444620876573,L09A05,2022-11-30_09h02.49.125,t1_Paradigm,2021.1.4,60.0804109193435,
F,left,Distractor,0,0,0,0,891.1318546687253,893.1318030195253,None,0,2,,L09A05,2022-11-30_09h02.49.125,t1_Paradigm,2021.1.4,60.0804109193435,
N,left,Pretarget,0,1,1,1,894.6313429886359,896.6329903098231,None,0,2,,L09A05,2022-11-30_09h02.49.125,t1_Paradigm,2021.1.4,60.0804109193435,
V,left,Distractor,0,2,2,2,898.1310930834152,900.1298974522506,left,1,2,0.7190282761876006,L09A05,2022-11-30_09h02.49.125,t1_Paradigm,2021.1.4,60.0804109193435,
N,right,Target,0,3,3,3,901.6304755384626,903.6323262485093,right,1,2,0.6281901409674902,L09A05,2022-11-30_09h02.49.125,t1_Paradigm,2021.1.4,60.0804109193435,
N,left,Lure,0,4,4,4,905.1298823745165,907.1296536423033,left,1,2,0.603124873683555,L09A05,2022-11-30_09h02.49.125,t1_Paradigm,2021.1.4,60.0804109193435,
X,left,Distractor,0,5,5,5,908.629174684058,910.6302917186113,left,1,2,0.9089604007604066,L09A05,2022-11-30_09h02.49.125,t1_Paradigm,2021.1.4,60.0804109193435,
G,left,Pretarget,0,6,6,6,912.1288182724093,914.129736409348,left,1,2,0.7273386667657178,L09A05,2022-11-30_09h02.49.125,t1_Paradigm,2021.1.4,60.0804109193435,
H,left,Pretarget,0,7,7,7,915.6281019202434,917.630173342448,left,1,2,0.511870015936438,L09A05,2022-11-30_09h02.49.125,t1_Paradigm,2021.1.4,60.0804109193435,
G,right,Target,0,8,8,8,919.1266903889482,921.1398288582277,right,1,2,1.2243969072005711,L09A05,2022-11-30_09h02.49.125,t1_Paradigm,2021.1.4,60.0804109193435,
H,right,Target,0,9,9,9,922.6268495070108,924.627351242234,None,0,2,,L09A05,2022-11-30_09h02.49.125,t1_Paradigm,2021.1.4,60.0804109193435,
T,left,Pretarget,0,10,10,10,926.1263214659702,928.1283691487915,left,1,2,1.1193250827200245,L09A05,2022-11-30_09h02.49.125,t1_Paradigm,2021.1.4,60.0804109193435,
K,left,Distractor,0,11,11,11,929.6257003922074,931.6277118243161,left,1,2,1.1576802381314337,L09A05,2022-11-30_09h02.49.125,t1_Paradigm,2021.1.4,60.0804109193435,
T,right,Target,0,12,12,12,933.1250876592821,935.1274381797411,right,1,2,0.4541412724647671,L09A05,2022-11-30_09h02.49.125,t1_Paradigm,2021.1.4,60.0804109193435,
T,left,Lure,0,13,13,13,936.6243725903623,938.6241348756594,left,1,2,0.5723634359601419,L09A05,2022-11-30_09h02.49.125,t1_Paradigm,2021.1.4,60.0804109193435,
J,left,Distractor,0,14,14,14,940.1239917977073,942.1260009842226,left,1,2,0.5755268700886518,L09A05,2022-11-30_09h02.49.125,t1_Paradigm,2021.1.4,60.0804109193435,
Q,left,Pretarget,0,15,15,15,943.6232841072488,945.6245981145767,left,1,2,0.6105309218401089,L09A05,2022-11-30_09h02.49.125,t1_Paradigm,2021.1.4,60.0804109193435,
M,left,Distractor,0,16,16,16,947.1228654598817,949.1242487605778,left,1,2,0.982586515659932,L09A05,2022-11-30_09h02.49.125,t1_Paradigm,2021.1.4,60.0804109193435,
Q,right,Target,0,17,17,17,950.6220596038329,952.6221048369771,right,1,2,0.6801534206315409,L09A05,2022-11-30_09h02.49.125,t1_Paradigm,2021.1.4,60.0804109193435,
R,left,Distractor,0,18,18,18,954.1215700590983,956.1224792136054,left,1,2,0.7869052881724201,L09A05,2022-11-30_09h02.49.125,t1_Paradigm,2021.1.4,60.0804109193435,
W,left,Distractor,0,19,19,19,957.6209836320195,959.6229780615831,left,1,2,0.5475740588735789,L09A05,2022-11-30_09h02.49.125,t1_Paradigm,2021.1.4,60.0804109193435,
C,left,Pretarget,0,20,20,20,961.1205871200364,963.1230874552566,left,1,2,0.5930879236548208,L09A05,2022-11-30_09h02.49.125,t1_Paradigm,2021.1.4,60.0804109193435,
T,left,Distractor,0,21,21,21,964.6200523421285,966.6216569966055,left,1,2,0.9866789940278977,L09A05,2022-11-30_09h02.49.125,t1_Paradigm,2021.1.4,60.0804109193435,
C,right,Target,0,22,22,22,968.1192211426678,970.1212492565392,right,1,2,0.5235209236852825,L09A05,2022-11-30_09h02.49.125,t1_Paradigm,2021.1.4,60.0804109193435,
F,left,Pretarget,0,23,23,23,971.6188271971187,973.6210378476535,left,1,2,0.5451221648254432,L09A05,2022-11-30_09h02.49.125,t1_Paradigm,2021.1.4,60.0804109193435,
C,right,Target,0,24,24,24,975.1182327499555,977.1201190690626,left,0,2,0.7915120130928699,L09A05,2022-11-30_09h02.49.125,t1_Paradigm,2021.1.4,60.0804109193435,
F,right,Target,0,25,25,25,978.6177990248834,980.6193212330691,right,1,2,0.4713356486754492,L09A05,2022-11-30_09h02.49.125,t1_Paradigm,2021.1.4,60.0804109193435,
H,left,Distractor,0,26,26,26,982.1171696102247,984.1190222450823,left,1,2,0.394903794513084,L09A05,2022-11-30_09h02.49.125,t1_Paradigm,2021.1.4,60.0804109193435,
H,left,Lure,0,27,27,27,985.6167795142974,987.6160593125387,left,1,2,0.3699790387763642,L09A05,2022-11-30_09h02.49.125,t1_Paradigm,2021.1.4,60.0804109193435,
P,left,Distractor,0,28,28,28,989.1159306706977,991.1280156243593,left,1,2,1.1539778556325473,L09A05,2022-11-30_09h02.49.125,t1_Paradigm,2021.1.4,60.0804109193435,
G,left,Pretarget,0,29,29,29,992.6319865185942,994.6339629832364,left,1,2,0.9940465458785184,L09A05,2022-11-30_09h02.49.125,t1_Paradigm,2021.1.4,60.0804109193435,
K,left,Distractor,0,30,30,30,996.1311950986565,998.1333088667889,left,1,2,1.0321967084601056,L09A05,2022-11-30_09h02.49.125,t1_Paradigm,2021.1.4,60.0804109193435,
G,right,Target,0,31,31,31,999.6309503262746,1001.6327885250212,right,1,2,0.41427898660185747,L09A05,2022-11-30_09h02.49.125,t1_Paradigm,2021.1.4,60.0804109193435,
M,left,Pretarget,0,32,32,32,1003.1301694928261,1005.1321729048796,left,1,2,0.9252626250381581,L09A05,2022-11-30_09h02.49.125,t1_Paradigm,2021.1.4,60.0804109193435,
B,left,Distractor,0,33,33,33,1006.6292795864865,1008.6316034803167,left,1,2,0.6704523508960847,L09A05,2022-11-30_09h02.49.125,t1_Paradigm,2021.1.4,60.0804109193435,
M,right,Target,0,34,34,34,1010.1292282580689,1012.1302869065548,right,1,2,0.7173010751430411,L09A05,2022-11-30_09h02.49.125,t1_Paradigm,2021.1.4,60.0804109193435,
M,left,Lure,0,35,35,35,1013.6284461414034,1015.6281843665056,left,1,2,1.344341780495597,L09A05,2022-11-30_09h02.49.125,t1_Paradigm,2021.1.4,60.0804109193435,
T,left,Distractor,0,36,36,36,1017.1280127371429,1019.1298592767271,left,1,2,0.6958249470335431,L09A05,2022-11-30_09h02.49.125,t1_Paradigm,2021.1.4,60.0804109193435,
F,left,Distractor,0,37,37,37,1020.6273307108786,1022.629186553735,left,1,2,0.9220234814565629,L09A05,2022-11-30_09h02.49.125,t1_Paradigm,2021.1.4,60.0804109193435,
X,left,Distractor,0,38,38,38,1024.12671380752,1026.1288882073422,left,1,2,1.1927847010665573,L09A05,2022-11-30_09h02.49.125,t1_Paradigm,2021.1.4,60.0804109193435,
C,left,Distractor,0,39,39,39,1027.6260381973116,1029.6283312940795,left,1,2,0.7821214802388567,L09A05,2022-11-30_09h02.49.125,t1_Paradigm,2021.1.4,60.0804109193435,
R,left,Distractor,0,40,40,40,1031.124692430516,1033.1273791520507,left,1,2,1.2487596168357413,L09A05,2022-11-30_09h02.49.125,t1_Paradigm,2021.1.4,60.0804109193435,
B,left,Pretarget,0,41,41,41,1034.6248704759637,1036.627095241798,None,0,2,,L09A05,2022-11-30_09h02.49.125,t1_Paradigm,2021.1.4,60.0804109193435,
H,left,Distractor,0,42,42,42,1038.1245236883697,1040.1258851744933,left,1,2,0.963179243291961,L09A05,2022-11-30_09h02.49.125,t1_Paradigm,2021.1.4,60.0804109193435,
B,right,Target,0,43,43,43,1041.6240206699586,1043.6259422773437,left,0,2,0.8377133577596396,L09A05,2022-11-30_09h02.49.125,t1_Paradigm,2021.1.4,60.0804109193435,
W,left,Pretarget,0,44,44,44,1045.1233222827432,1047.1255005322164,left,1,2,1.030840996769257,L09A05,2022-11-30_09h02.49.125,t1_Paradigm,2021.1.4,60.0804109193435,
L,left,Pretarget,0,45,45,45,1048.6228202267375,1050.6223531381693,left,1,2,1.0799747977289371,L09A05,2022-11-30_09h02.49.125,t1_Paradigm,2021.1.4,60.0804109193435,
W,right,Target,0,46,46,46,1052.1219117138535,1054.123419485928,right,1,2,0.7005089853482787,L09A05,2022-11-30_09h02.49.125,t1_Paradigm,2021.1.4,60.0804109193435,
L,right,Target,0,47,47,47,1055.6220685862936,1057.6226976801408,right,1,2,1.33818076713942,L09A05,2022-11-30_09h02.49.125,t1_Paradigm,2021.1.4,60.0804109193435,
W,right,Target,0,48,48,48,1059.12101924108,1061.1229960265337,right,1,2,1.3716946908971295,L09A05,2022-11-30_09h02.49.125,t1_Paradigm,2021.1.4,60.0804109193435,
X,left,Distractor,0,49,49,49,1062.620360954228,1064.6223037345917,left,1,2,0.546152903494658,L09A05,2022-11-30_09h02.49.125,t1_Paradigm,2021.1.4,60.0804109193435,
R,left,Distractor,0,50,50,50,1066.1199865776289,1068.121343251696,left,1,2,0.7599578722147271,L09A05,2022-11-30_09h02.49.125,t1_Paradigm,2021.1.4,60.0804109193435,
V,left,Pretarget,0,51,51,51,1069.6192041401519,1071.6205473405134,left,1,2,0.7739872102683876,L09A05,2022-11-30_09h02.49.125,t1_Paradigm,2021.1.4,60.0804109193435,
Z,left,Distractor,0,52,52,52,1073.1188916784304,1075.1194216442818,left,1,2,0.5484241856902372,L09A05,2022-11-30_09h02.49.125,t1_Paradigm,2021.1.4,60.0804109193435,
V,right,Target,0,53,53,53,1076.617815706617,1078.6202541269595,right,1,2,1.2905107882688753,L09A05,2022-11-30_09h02.49.125,t1_Paradigm,2021.1.4,60.0804109193435,
V,left,Lure,0,54,54,54,1080.1173669038108,1082.1171644773858,left,1,2,1.2865260995458812,L09A05,2022-11-30_09h02.49.125,t1_Paradigm,2021.1.4,60.0804109193435,
N,left,Distractor,0,55,55,55,1083.6167246570694,1085.618721011473,left,1,2,0.8866928527131677,L09A05,2022-11-30_09h02.49.125,t1_Paradigm,2021.1.4,60.0804109193435,
B,left,Distractor,0,56,56,56,1087.116343543632,1089.1180611205928,left,1,2,0.7049800108070485,L09A05,2022-11-30_09h02.49.125,t1_Paradigm,2021.1.4,60.0804109193435,
V,left,Lure,0,57,57,57,1090.6322207044577,1092.6333887466171,left,1,2,0.5400759403710254,L09A05,2022-11-30_09h02.49.125,t1_Paradigm,2021.1.4,60.0804109193435,
J,left,Distractor,0,58,58,58,1094.1313991290808,1096.1337332885887,left,1,2,0.5365593026217539,L09A05,2022-11-30_09h02.49.125,t1_Paradigm,2021.1.4,60.0804109193435,
H,left,Distractor,0,59,59,59,1097.6303821849287,1099.633100665902,left,1,2,0.5587707101949491,L09A05,2022-11-30_09h02.49.125,t1_Paradigm,2021.1.4,60.0804109193435,
X,left,Pretarget,0,60,60,60,1101.1305948770314,1103.132172584068,left,1,2,0.5367505009053275,L09A05,2022-11-30_09h02.49.125,t1_Paradigm,2021.1.4,60.0804109193435,
P,left,Distractor,0,61,61,61,1104.6301961194258,1106.630736992578,left,1,2,0.46999308990780264,L09A05,2022-11-30_09h02.49.125,t1_Paradigm,2021.1.4,60.0804109193435,
X,right,Target,0,62,62,62,1108.1296295821085,1110.1304534031078,right,1,2,0.5287160005245823,L09A05,2022-11-30_09h02.49.125,t1_Paradigm,2021.1.4,60.0804109193435,
Q,left,Distractor,0,63,63,63,1111.6288073651085,1113.6310549079208,left,1,2,0.8638606921304017,L09A05,2022-11-30_09h02.49.125,t1_Paradigm,2021.1.4,60.0804109193435,
B,left,Pretarget,0,0,0,0,1141.3546177284443,1143.3405922400416,left,1,2,0.9547411732783075,L09A05,2022-11-30_09h02.49.125,t1_Paradigm,2021.1.4,60.0804109193435,
F,left,Distractor,0,1,1,1,1144.8399913768226,1146.841237053217,left,1,2,0.45777724881190807,L09A05,2022-11-30_09h02.49.125,t1_Paradigm,2021.1.4,60.0804109193435,
B,right,Target,0,2,2,2,1148.3393722278706,1150.3402374323923,right,1,2,0.5860655553697143,L09A05,2022-11-30_09h02.49.125,t1_Paradigm,2021.1.4,60.0804109193435,
V,left,Distractor,0,3,3,3,1151.83886375578,1153.8403712070722,left,1,2,0.8477474205719773,L09A05,2022-11-30_09h02.49.125,t1_Paradigm,2021.1.4,60.0804109193435,
G,left,Pretarget,0,4,4,4,1155.3379311827011,1157.3404405004112,left,1,2,0.583792669174727,L09A05,2022-11-30_09h02.49.125,t1_Paradigm,2021.1.4,60.0804109193435,
B,left,Lure,0,5,5,5,1158.8379606965464,1160.8378067113226,left,1,2,1.3787796157121193,L09A05,2022-11-30_09h02.49.125,t1_Paradigm,2021.1.4,60.0804109193435,
G,right,Target,0,6,6,6,1162.3372058481036,1164.33888332473,right,1,2,0.8037942603405099,L09A05,2022-11-30_09h02.49.125,t1_Paradigm,2021.1.4,60.0804109193435,
Y,left,Pretarget,0,7,7,7,1165.8364625485265,1167.8378737590392,left,1,2,0.536980516393669,L09A05,2022-11-30_09h02.49.125,t1_Paradigm,2021.1.4,60.0804109193435,
P,left,Distractor,0,8,8,8,1169.3360525628668,1171.3355559604825,left,1,2,0.7119221784523688,L09A05,2022-11-30_09h02.49.125,t1_Paradigm,2021.1.4,60.0804109193435,
Y,right,Target,0,9,9,9,1172.8355899655435,1174.8370711110183,right,1,2,0.6993890635785647,L09A05,2022-11-30_09h02.49.125,t1_Paradigm,2021.1.4,60.0804109193435,
X,left,Distractor,0,10,10,10,1176.3346990967984,1178.3345284298412,left,1,2,0.6136898647528142,L09A05,2022-11-30_09h02.49.125,t1_Paradigm,2021.1.4,60.0804109193435,
Y,right,Target,0,11,11,11,1179.8343250410107,1181.836389726348,right,1,2,0.7186766765662469,L09A05,2022-11-30_09h02.49.125,t1_Paradigm,2021.1.4,60.0804109193435,
N,left,Distractor,0,12,12,12,1183.3338861830998,1185.3353660453577,left,1,2,1.3853108352341224,L09A05,2022-11-30_09h02.49.125,t1_Paradigm,2021.1.4,60.0804109193435,
Y,right,Target,0,13,13,13,1186.832969970943,1188.8349438691803,left,0,2,0.9996461547561921,L09A05,2022-11-30_09h02.49.125,t1_Paradigm,2021.1.4,60.0804109193435,
Y,left,Lure,0,14,14,14,1190.332624466566,1192.3322026112,None,0,2,,L09A05,2022-11-30_09h02.49.125,t1_Paradigm,2021.1.4,60.0804109193435,
K,left,Distractor,0,15,15,15,1193.832151603594,1195.8336475059914,left,1,2,0.9468799062888138,L09A05,2022-11-30_09h02.49.125,t1_Paradigm,2021.1.4,60.0804109193435,
T,left,Pretarget,0,16,16,16,1197.3309367242618,1199.3324310226308,left,1,2,0.7781740045757033,L09A05,2022-11-30_09h02.49.125,t1_Paradigm,2021.1.4,60.0804109193435,
J,left,Distractor,0,17,17,17,1200.8307163328864,1202.8318301594118,left,1,2,0.9710979339724872,L09A05,2022-11-30_09h02.49.125,t1_Paradigm,2021.1.4,60.0804109193435,
T,right,Target,0,18,18,18,1204.3301475499175,1206.332386110269,right,1,2,0.784411048196489,L09A05,2022-11-30_09h02.49.125,t1_Paradigm,2021.1.4,60.0804109193435,
S,left,Pretarget,0,19,19,19,1207.8302072192018,1209.8316960639495,left,1,2,0.6518287992221303,L09A05,2022-11-30_09h02.49.125,t1_Paradigm,2021.1.4,60.0804109193435,
R,left,Distractor,0,20,20,20,1211.3288232769119,1213.3298065367853,left,1,2,0.6755046705366112,L09A05,2022-11-30_09h02.49.125,t1_Paradigm,2021.1.4,60.0804109193435,
S,right,Target,0,21,21,21,1214.8284126496292,1216.8305447035236,right,1,2,0.48042623113724403,L09A05,2022-11-30_09h02.49.125,t1_Paradigm,2021.1.4,60.0804109193435,
Q,left,Distractor,0,22,22,22,1218.327836488199,1220.329525513749,left,1,2,0.4830917796934955,L09A05,2022-11-30_09h02.49.125,t1_Paradigm,2021.1.4,60.0804109193435,
D,left,Distractor,0,23,23,23,1221.8271451586625,1223.8288636980287,left,1,2,0.8191093750938307,L09A05,2022-11-30_09h02.49.125,t1_Paradigm,2021.1.4,60.0804109193435,
F,left,Distractor,0,24,24,24,1225.3268843461701,1227.3288280889683,left,1,2,1.1468794571701437,L09A05,2022-11-30_09h02.49.125,t1_Paradigm,2021.1.4,60.0804109193435,
Z,left,Distractor,0,25,25,25,1228.8262241344783,1230.8281306641584,left,1,2,0.6184467252751347,L09A05,2022-11-30_09h02.49.125,t1_Paradigm,2021.1.4,60.0804109193435,
P,left,Distractor,0,26,26,26,1232.3420852551935,1234.3434079241997,left,1,2,0.6903956843016203,L09A05,2022-11-30_09h02.49.125,t1_Paradigm,2021.1.4,60.0804109193435,
H,left,Distractor,0,27,27,27,1235.8414231186907,1237.8437502205488,left,1,2,1.2908886937075295,L09A05,2022-11-30_09h02.49.125,t1_Paradigm,2021.1.4,60.0804109193435,
Z,left,Pretarget,0,28,28,28,1239.3410272483306,1241.3432346908085,left,1,2,1.247555644804379,L09A05,2022-11-30_09h02.49.125,t1_Paradigm,2021.1.4,60.0804109193435,
J,left,Pretarget,0,29,29,29,1242.8406583253527,1244.84214171645,left,1,2,1.0749045131087769,L09A05,2022-11-30_09h02.49.125,t1_Paradigm,2021.1.4,60.0804109193435,
Z,right,Target,0,30,30,30,1246.3399977928784,1248.3419649542484,None,0,2,,L09A05,2022-11-30_09h02.49.125,t1_Paradigm,2021.1.4,60.0804109193435,
J,right,Target,0,31,31,31,1249.8392352451629,1251.8390350643604,None,0,2,,L09A05,2022-11-30_09h02.49.125,t1_Paradigm,2021.1.4,60.0804109193435,
V,left,Pretarget,0,32,32,32,1253.3378881951794,1255.3395140226057,left,1,2,0.7403340581513476,L09A05,2022-11-30_09h02.49.125,t1_Paradigm,2021.1.4,60.0804109193435,
Z,left,Lure,0,33,33,33,1256.8380177993968,1258.8395483484783,right,0,2,1.3363319818745367,L09A05,2022-11-30_09h02.49.125,t1_Paradigm,2021.1.4,60.0804109193435,
V,right,Target,0,34,34,34,1260.33760460568,1262.3392564181413,right,1,2,0.9015851496660616,L09A05,2022-11-30_09h02.49.125,t1_Paradigm,2021.1.4,60.0804109193435,
X,left,Distractor,0,35,35,35,1263.8369726246165,1265.8392516060849,left,1,2,0.7397405733645428,L09A05,2022-11-30_09h02.49.125,t1_Paradigm,2021.1.4,60.0804109193435,
S,left,Distractor,0,36,36,36,1267.3366178169963,1269.338409178541,left,1,2,0.6972483480349183,L09A05,2022-11-30_09h02.49.125,t1_Paradigm,2021.1.4,60.0804109193435,
Q,left,Distractor,0,37,37,37,1270.8356351987168,1272.8368609853205,left,1,2,0.9769378239871003,L09A05,2022-11-30_09h02.49.125,t1_Paradigm,2021.1.4,60.0804109193435,
P,left,Distractor,0,38,38,38,1274.335042355553,1276.3371445748198,None,0,2,,L09A05,2022-11-30_09h02.49.125,t1_Paradigm,2021.1.4,60.0804109193435,
S,left,Lure,0,39,39,39,1277.833827476221,1279.8335628141067,right,0,2,0.558672544604633,L09A05,2022-11-30_09h02.49.125,t1_Paradigm,2021.1.4,60.0804109193435,
K,left,Pretarget,0,40,40,40,1281.334057491651,1283.3347825054661,left,1,2,0.4848638930998277,L09A05,2022-11-30_09h02.49.125,t1_Paradigm,2021.1.4,60.0804109193435,
L,left,Distractor,0,41,41,41,1284.833676699025,1286.8348325506668,left,1,2,0.873728900012793,L09A05,2022-11-30_09h02.49.125,t1_Paradigm,2021.1.4,60.0804109193435,
K,right,Target,0,42,42,42,1288.3324987119704,1290.3349759494304,right,1,2,0.9481133921653964,L09A05,2022-11-30_09h02.49.125,t1_Paradigm,2021.1.4,60.0804109193435,
B,left,Distractor,0,43,43,43,1291.832348255557,1293.8335041072278,left,1,2,0.6983419639873318,L09A05,2022-11-30_09h02.49.125,t1_Paradigm,2021.1.4,60.0804109193435,
N,left,Distractor,0,44,44,44,1295.3318105904618,1297.3317422594992,left,1,2,0.8195325136766769,L09A05,2022-11-30_09h02.49.125,t1_Paradigm,2021.1.4,60.0804109193435,
S,left,Pretarget,0,45,45,45,1298.8310952007305,1300.8325423411152,left,1,2,1.0561398083227687,L09A05,2022-11-30_09h02.49.125,t1_Paradigm,2021.1.4,60.0804109193435,
Z,left,Distractor,0,46,46,46,1302.3308279721823,1304.3317797933996,left,1,2,0.7849471092631575,L09A05,2022-11-30_09h02.49.125,t1_Paradigm,2021.1.4,60.0804109193435,
S,right,Target,0,47,47,47,1305.8299079104036,1307.8310984087584,right,1,2,0.5665498517628293,L09A05,2022-11-30_09h02.49.125,t1_Paradigm,2021.1.4,60.0804109193435,
C,left,Distractor,0,48,48,48,1309.329323728918,1311.3307917214988,left,1,2,0.5113666766847018,L09A05,2022-11-30_09h02.49.125,t1_Paradigm,2021.1.4,60.0804109193435,
T,left,Pretarget,0,49,49,49,1312.8289679588634,1314.8303971343266,left,1,2,0.663736349059036,L09A05,2022-11-30_09h02.49.125,t1_Paradigm,2021.1.4,60.0804109193435,
S,left,Lure,0,50,50,50,1316.3274605076003,1318.3279760373116,left,1,2,0.9894940365920775,L09A05,2022-11-30_09h02.49.125,t1_Paradigm,2021.1.4,60.0804109193435,
T,right,Target,0,51,51,51,1319.8278108240047,1321.82885150754,right,1,2,0.684368445596192,L09A05,2022-11-30_09h02.49.125,t1_Paradigm,2021.1.4,60.0804109193435,
N,left,Pretarget,0,52,52,52,1323.327013629605,1325.3278085783822,left,1,2,0.5359764043241739,L09A05,2022-11-30_09h02.49.125,t1_Paradigm,2021.1.4,60.0804109193435,
B,left,Distractor,0,53,53,53,1326.8266039647278,1328.8273260913265,left,1,2,0.6235221427632496,L09A05,2022-11-30_09h02.49.125,t1_Paradigm,2021.1.4,60.0804109193435,
N,right,Target,0,54,54,54,1330.326144896244,1332.3281313057814,right,1,2,0.5545928983192425,L09A05,2022-11-30_09h02.49.125,t1_Paradigm,2021.1.4,60.0804109193435,
N,left,Lure,0,55,55,55,1333.8420759519213,1335.8419822775759,left,1,2,0.9128549440065399,L09A05,2022-11-30_09h02.49.125,t1_Paradigm,2021.1.4,60.0804109193435,
X,left,Distractor,0,56,56,56,1337.341411569796,1339.3407173530431,left,1,2,1.0256869826698676,L09A05,2022-11-30_09h02.49.125,t1_Paradigm,2021.1.4,60.0804109193435,
W,left,Distractor,0,57,57,57,1340.8409011729236,1342.8415106977918,None,0,2,,L09A05,2022-11-30_09h02.49.125,t1_Paradigm,2021.1.4,60.0804109193435,
S,left,Distractor,0,58,58,58,1344.3403538837156,1346.3421811751614,left,1,2,0.9652099235681817,L09A05,2022-11-30_09h02.49.125,t1_Paradigm,2021.1.4,60.0804109193435,
L,left,Distractor,0,59,59,59,1347.8398017825093,1349.839537761989,left,1,2,0.8142655770643614,L09A05,2022-11-30_09h02.49.125,t1_Paradigm,2021.1.4,60.0804109193435,
K,left,Pretarget,0,60,60,60,1351.3392115057795,1353.3406759695208,left,1,2,0.7086028342309874,L09A05,2022-11-30_09h02.49.125,t1_Paradigm,2021.1.4,60.0804109193435,
V,left,Pretarget,0,61,61,61,1354.8389612797764,1356.8396882184024,left,1,2,0.5723047290812247,L09A05,2022-11-30_09h02.49.125,t1_Paradigm,2021.1.4,60.0804109193435,
K,right,Target,0,62,62,62,1358.337825317867,1360.3392846487695,right,1,2,0.7453026483417489,L09A05,2022-11-30_09h02.49.125,t1_Paradigm,2021.1.4,60.0804109193435,
V,right,Target,0,63,63,63,1361.8365777166618,1363.8392394155962,right,1,2,0.5059691734495573,L09A05,2022-11-30_09h02.49.125,t1_Paradigm,2021.1.4,60.0804109193435,
R,left,Distractor,0,0,0,0,1439.9908904901822,1441.9923934502294,left,1,3,0.4687377894297242,L09A05,2022-11-30_09h02.49.125,t1_Paradigm,2021.1.4,60.0804109193435,
P,left,Lure,0,1,1,1,1443.490736184147,1445.4927995862963,left,1,3,0.4246960876917001,L09A05,2022-11-30_09h02.49.125,t1_Paradigm,2021.1.4,60.0804109193435,
V,left,Distractor,0,2,2,2,1446.9898299168854,1448.9899627291597,left,1,3,0.3720180598902516,L09A05,2022-11-30_09h02.49.125,t1_Paradigm,2021.1.4,60.0804109193435,
P,left,Pretarget,0,3,3,3,1450.4893570538843,1452.4914361753617,left,1,3,0.7432588151714299,L09A05,2022-11-30_09h02.49.125,t1_Paradigm,2021.1.4,60.0804109193435,
Z,left,Distractor,0,4,4,4,1453.9887828172941,1455.99022482484,left,1,3,0.749911939696176,L09A05,2022-11-30_09h02.49.125,t1_Paradigm,2021.1.4,60.0804109193435,
L,left,Pretarget,0,5,5,5,1457.488042084151,1459.4898190096137,left,1,3,0.8250339569349308,L09A05,2022-11-30_09h02.49.125,t1_Paradigm,2021.1.4,60.0804109193435,
P,right,Target,0,6,6,6,1460.9877485498146,1462.9896910093667,left,0,3,0.7854036113421898,L09A05,2022-11-30_09h02.49.125,t1_Paradigm,2021.1.4,60.0804109193435,
S,left,Distractor,0,7,7,7,1464.4870809596614,1466.4896108087269,left,1,3,1.1946421479515266,L09A05,2022-11-30_09h02.49.125,t1_Paradigm,2021.1.4,60.0804109193435,
L,right,Target,0,8,8,8,1467.986452507408,1469.9988534516015,right,1,3,1.1092958319350146,L09A05,2022-11-30_09h02.49.125,t1_Paradigm,2021.1.4,60.0804109193435,
D,left,Distractor,0,9,9,9,1471.4860771684034,1473.4880186655791,left,1,3,1.1825838209188078,L09A05,2022-11-30_09h02.49.125,t1_Paradigm,2021.1.4,60.0804109193435,
G,left,Distractor,0,10,10,10,1474.9852928061155,1476.9876009806176,left,1,3,1.1313423470419366,L09A05,2022-11-30_09h02.49.125,t1_Paradigm,2021.1.4,60.0804109193435,
M,left,Pretarget,0,11,11,11,1478.4849521137949,1480.4857759347942,left,1,3,0.8490874129347503,L09A05,2022-11-30_09h02.49.125,t1_Paradigm,2021.1.4,60.0804109193435,
Y,left,Distractor,0,12,12,12,1481.9840593202389,1483.9861862412945,left,1,3,0.7443277293641586,L09A05,2022-11-30_09h02.49.125,t1_Paradigm,2021.1.4,60.0804109193435,
V,left,Distractor,0,13,13,13,1485.4835495649604,1487.4834635898587,left,1,3,0.984501065366203,L09A05,2022-11-30_09h02.49.125,t1_Paradigm,2021.1.4,60.0804109193435,
M,right,Target,0,14,14,14,1488.9830619450368,1490.9829259247635,right,1,3,0.619619900273392,L09A05,2022-11-30_09h02.49.125,t1_Paradigm,2021.1.4,60.0804109193435,
S,left,Pretarget,0,15,15,15,1492.4824857836356,1494.4831607522501,left,1,3,0.44947167023201473,L09A05,2022-11-30_09h02.49.125,t1_Paradigm,2021.1.4,60.0804109193435,
Q,left,Distractor,0,16,16,16,1495.9814037165488,1497.982685322815,left,1,3,0.7651933701708913,L09A05,2022-11-30_09h02.49.125,t1_Paradigm,2021.1.4,60.0804109193435,
R,left,Pretarget,0,17,17,17,1499.4810219614883,1501.4830616242543,left,1,3,0.9086078387626912,L09A05,2022-11-30_09h02.49.125,t1_Paradigm,2021.1.4,60.0804109193435,
S,right,Target,0,18,18,18,1502.980619995884,1504.981836158433,left,0,3,1.2049055846000556,L09A05,2022-11-30_09h02.49.125,t1_Paradigm,2021.1.4,60.0804109193435,
F,left,Distractor,0,19,19,19,1506.4800739898928,1508.4812259919418,None,0,3,,L09A05,2022-11-30_09h02.49.125,t1_Paradigm,2021.1.4,60.0804109193435,
R,right,Target,0,20,20,20,1509.979430139152,1511.9799645962194,left,0,3,0.8183638298942242,L09A05,2022-11-30_09h02.49.125,t1_Paradigm,2021.1.4,60.0804109193435,
P,left,Distractor,0,21,21,21,1513.478925837495,1515.4801997445174,left,1,3,1.1497269007668365,L09A05,2022-11-30_09h02.49.125,t1_Paradigm,2021.1.4,60.0804109193435,
L,left,Distractor,0,22,22,22,1516.9783750194765,1518.9793152918282,None,0,3,,L09A05,2022-11-30_09h02.49.125,t1_Paradigm,2021.1.4,60.0804109193435,
R,right,Target,0,23,23,23,1520.4779303871328,1522.478938990389,right,1,3,0.6893232412985526,L09A05,2022-11-30_09h02.49.125,t1_Paradigm,2021.1.4,60.0804109193435,
H,left,Pretarget,0,24,24,24,1523.976809182146,1525.979082068341,left,1,3,0.5641929152770899,L09A05,2022-11-30_09h02.49.125,t1_Paradigm,2021.1.4,60.0804109193435,
G,left,Pretarget,0,25,25,25,1527.476553181681,1529.4787375263986,left,1,3,0.44364717876305804,L09A05,2022-11-30_09h02.49.125,t1_Paradigm,2021.1.4,60.0804109193435,
T,left,Distractor,0,26,26,26,1530.9758650601725,1532.977960542572,left,1,3,0.5766140700143296,L09A05,2022-11-30_09h02.49.125,t1_Paradigm,2021.1.4,60.0804109193435,
H,right,Target,0,27,27,27,1534.4753280366713,1536.4877674771706,right,1,3,1.0128378772933502,L09A05,2022-11-30_09h02.49.125,t1_Paradigm,2021.1.4,60.0804109193435,
G,right,Target,0,28,28,28,1537.9915593635524,1539.993718364858,right,1,3,1.0080229514860548,L09A05,2022-11-30_09h02.49.125,t1_Paradigm,2021.1.4,60.0804109193435,
D,left,Distractor,0,29,29,29,1541.4905610259448,1543.4929635164153,left,1,3,1.0801791489648167,L09A05,2022-11-30_09h02.49.125,t1_Paradigm,2021.1.4,60.0804109193435,
N,left,Pretarget,0,30,30,30,1544.9904047950986,1546.9920726476703,left,1,3,1.350838674174156,L09A05,2022-11-30_09h02.49.125,t1_Paradigm,2021.1.4,60.0804109193435,
V,left,Distractor,0,31,31,31,1548.4897686436016,1550.4908693172038,left,1,3,0.6320734560722485,L09A05,2022-11-30_09h02.49.125,t1_Paradigm,2021.1.4,60.0804109193435,
R,left,Distractor,0,32,32,32,1551.9894346881192,1553.98939202138,left,1,3,0.9655737136781681,L09A05,2022-11-30_09h02.49.125,t1_Paradigm,2021.1.4,60.0804109193435,
N,right,Target,0,33,33,33,1555.4885588971083,1557.4908997934544,right,1,3,0.5658771287708078,L09A05,2022-11-30_09h02.49.125,t1_Paradigm,2021.1.4,60.0804109193435,
Z,left,Distractor,0,34,34,34,1558.9880026254395,1560.9894702972088,left,1,3,0.7848043521225918,L09A05,2022-11-30_09h02.49.125,t1_Paradigm,2021.1.4,60.0804109193435,
N,left,Lure,0,35,35,35,1562.4874646395328,1564.4867675355345,left,1,3,0.7850686934543774,L09A05,2022-11-30_09h02.49.125,t1_Paradigm,2021.1.4,60.0804109193435,
Y,left,Pretarget,0,36,36,36,1565.9869766988268,1567.9877353968914,left,1,3,0.5533119336760137,L09A05,2022-11-30_09h02.49.125,t1_Paradigm,2021.1.4,60.0804109193435,
Y,left,Lure,0,37,37,37,1569.4864095198864,1571.4858179599396,left,1,3,1.091007839771919,L09A05,2022-11-30_09h02.49.125,t1_Paradigm,2021.1.4,60.0804109193435,
B,left,Distractor,0,38,38,38,1572.9857066414552,1574.988189653348,left,1,3,0.9025459533731919,L09A05,2022-11-30_09h02.49.125,t1_Paradigm,2021.1.4,60.0804109193435,
Y,right,Target,0,39,39,39,1576.4854031622235,1578.4865179511544,right,1,3,0.5716092291113455,L09A05,2022-11-30_09h02.49.125,t1_Paradigm,2021.1.4,60.0804109193435,
J,left,Distractor,0,40,40,40,1579.9844984989613,1581.9864162567246,left,1,3,0.6586291721032467,L09A05,2022-11-30_09h02.49.125,t1_Paradigm,2021.1.4,60.0804109193435,
X,left,Distractor,0,41,41,41,1583.4839043726097,1585.485888215684,left,1,3,0.7258264034753665,L09A05,2022-11-30_09h02.49.125,t1_Paradigm,2021.1.4,60.0804109193435,
W,left,Pretarget,0,42,42,42,1586.9833628578635,1588.9856248367869,left,1,3,1.2211914478975814,L09A05,2022-11-30_09h02.49.125,t1_Paradigm,2021.1.4,60.0804109193435,
S,left,Pretarget,0,43,43,43,1590.4826830772217,1592.484223250358,left,1,3,1.4115265005384572,L09A05,2022-11-30_09h02.49.125,t1_Paradigm,2021.1.4,60.0804109193435,
R,left,Distractor,0,44,44,44,1593.9822256127372,1595.9833080006065,None,0,3,,L09A05,2022-11-30_09h02.49.125,t1_Paradigm,2021.1.4,60.0804109193435,
W,right,Target,0,45,45,45,1597.4816074261907,1599.480927003926,right,1,3,0.41869194677565247,L09A05,2022-11-30_09h02.49.125,t1_Paradigm,2021.1.4,60.0804109193435,
S,right,Target,0,46,46,46,1600.9811326383788,1602.9831498449494,left,0,3,1.323023166420171,L09A05,2022-11-30_09h02.49.125,t1_Paradigm,2021.1.4,60.0804109193435,
D,left,Distractor,0,47,47,47,1604.4806735698949,1606.4826266159653,left,1,3,0.7827438372187316,L09A05,2022-11-30_09h02.49.125,t1_Paradigm,2021.1.4,60.0804109193435,
T,left,Distractor,0,48,48,48,1607.979727202328,1609.9817719979037,left,1,3,0.6548206039879005,L09A05,2022-11-30_09h02.49.125,t1_Paradigm,2021.1.4,60.0804109193435,
S,right,Target,0,49,49,49,1611.479362770595,1613.480416286242,right,1,3,0.5071269499312621,L09A05,2022-11-30_09h02.49.125,t1_Paradigm,2021.1.4,60.0804109193435,
K,left,Distractor,0,50,50,50,1614.978613054991,1616.9780083421501,left,1,3,1.3630686305696145,L09A05,2022-11-30_09h02.49.125,t1_Paradigm,2021.1.4,60.0804109193435,
S,left,Lure,0,51,51,51,1618.478155911318,1620.4804432336532,right,0,3,1.0768395942286588,L09A05,2022-11-30_09h02.49.125,t1_Paradigm,2021.1.4,60.0804109193435,
T,left,Pretarget,0,52,52,52,1621.977649684879,1623.9788369751768,left,1,3,1.0191515926853754,L09A05,2022-11-30_09h02.49.125,t1_Paradigm,2021.1.4,60.0804109193435,
V,left,Distractor,0,53,53,53,1625.477229112701,1627.478865847428,left,1,3,0.6859827241569292,L09A05,2022-11-30_09h02.49.125,t1_Paradigm,2021.1.4,60.0804109193435,
B,left,Distractor,0,54,54,54,1628.976298464433,1630.977607338922,left,1,3,0.6647686917276587,L09A05,2022-11-30_09h02.49.125,t1_Paradigm,2021.1.4,60.0804109193435,
T,right,Target,0,55,55,55,1632.4756145133579,1634.477114906971,right,1,3,0.7439405206241645,L09A05,2022-11-30_09h02.49.125,t1_Paradigm,2021.1.4,60.0804109193435,
Y,left,Pretarget,0,56,56,56,1635.9753832147107,1637.974684506713,left,1,3,0.743937954219291,L09A05,2022-11-30_09h02.49.125,t1_Paradigm,2021.1.4,60.0804109193435,
T,left,Lure,0,57,57,57,1639.474883083487,1641.475811806944,left,1,3,1.1560534482705407,L09A05,2022-11-30_09h02.49.125,t1_Paradigm,2021.1.4,60.0804109193435,
P,left,Pretarget,0,58,58,58,1642.9908144599758,1644.9915622507688,left,1,3,1.0029289274534676,L09A05,2022-11-30_09h02.49.125,t1_Paradigm,2021.1.4,60.0804109193435,
Y,right,Target,0,59,59,59,1646.489844032214,1648.4917800757103,right,1,3,1.139074330596486,L09A05,2022-11-30_09h02.49.125,t1_Paradigm,2021.1.4,60.0804109193435,
R,left,Distractor,0,60,60,60,1649.9894667683693,1651.9911166559905,left,1,3,0.7132137295848224,L09A05,2022-11-30_09h02.49.125,t1_Paradigm,2021.1.4,60.0804109193435,
P,right,Target,0,61,61,61,1653.4890266272414,1655.4912231624476,left,0,3,1.199553314509103,L09A05,2022-11-30_09h02.49.125,t1_Paradigm,2021.1.4,60.0804109193435,
L,left,Distractor,0,62,62,62,1656.9883513378445,1658.9899521426705,left,1,3,0.7460369654290844,L09A05,2022-11-30_09h02.49.125,t1_Paradigm,2021.1.4,60.0804109193435,
V,left,Distractor,0,63,63,63,1660.4875114767055,1662.489968182781,left,1,3,0.6743472148955334,L09A05,2022-11-30_09h02.49.125,t1_Paradigm,2021.1.4,60.0804109193435,
H,left,Lure,0,0,0,0,1719.3659051668947,1721.3624257422052,left,1,3,0.7307436652772594,L09A05,2022-11-30_09h02.49.125,t1_Paradigm,2021.1.4,60.0804109193435,
B,left,Distractor,0,1,1,1,1722.861162421701,1724.8600578984478,left,1,3,0.4332695363846142,L09A05,2022-11-30_09h02.49.125,t1_Paradigm,2021.1.4,60.0804109193435,
T,left,Distractor,0,2,2,2,1726.360144194332,1728.359070468141,left,1,3,0.9656179844459984,L09A05,2022-11-30_09h02.49.125,t1_Paradigm,2021.1.4,60.0804109193435,
R,left,Distractor,0,3,3,3,1729.8600553320139,1731.8613199357642,left,1,3,1.1405766490497626,L09A05,2022-11-30_09h02.49.125,t1_Paradigm,2021.1.4,60.0804109193435,
H,left,Pretarget,0,4,4,4,1733.359285405837,1735.3612743817794,left,1,3,0.9386856461933348,L09A05,2022-11-30_09h02.49.125,t1_Paradigm,2021.1.4,60.0804109193435,
K,left,Distractor,0,5,5,5,1736.858652462368,1738.8604402951023,left,1,3,0.47639630921185017,L09A05,2022-11-30_09h02.49.125,t1_Paradigm,2021.1.4,60.0804109193435,
G,left,Distractor,0,6,6,6,1740.3578273581516,1742.3597271509934,left,1,3,1.0942841964424588,L09A05,2022-11-30_09h02.49.125,t1_Paradigm,2021.1.4,60.0804109193435,
H,right,Target,0,7,7,7,1743.8575867562322,1745.858071168128,right,1,3,0.35950323080760427,L09A05,2022-11-30_09h02.49.125,t1_Paradigm,2021.1.4,60.0804109193435,
Y,left,Pretarget,0,8,8,8,1747.3565794361639,1749.3576608616277,left,1,3,0.5164764200453646,L09A05,2022-11-30_09h02.49.125,t1_Paradigm,2021.1.4,60.0804109193435,
S,left,Distractor,0,9,9,9,1750.8562108339975,1752.857356099179,left,1,3,0.8244619659672026,L09A05,2022-11-30_09h02.49.125,t1_Paradigm,2021.1.4,60.0804109193435,
P,left,Distractor,0,10,10,10,1754.3558146428259,1756.357141161454,left,1,3,0.6796006778022274,L09A05,2022-11-30_09h02.49.125,t1_Paradigm,2021.1.4,60.0804109193435,
Y,right,Target,0,11,11,11,1757.8545109011757,1759.8559054299549,right,1,3,0.5070579773746431,L09A05,2022-11-30_09h02.49.125,t1_Paradigm,2021.1.4,60.0804109193435,
H,left,Lure,0,12,12,12,1761.3544342293753,1763.3562076259986,left,1,3,1.2787389379227534,L09A05,2022-11-30_09h02.49.125,t1_Paradigm,2021.1.4,60.0804109193435,
Q,left,Distractor,0,13,13,13,1764.8545619087818,1766.8558056603651,left,1,3,0.60806395005784,L09A05,2022-11-30_09h02.49.125,t1_Paradigm,2021.1.4,60.0804109193435,
V,left,Pretarget,0,14,14,14,1768.3525790281128,1770.3654104893503,left,1,3,0.6616004455427174,L09A05,2022-11-30_09h02.49.125,t1_Paradigm,2021.1.4,60.0804109193435,
G,left,Distractor,0,15,15,15,1771.8526037299016,1773.8549013179145,left,1,3,0.85786906251451,L09A05,2022-11-30_09h02.49.125,t1_Paradigm,2021.1.4,60.0804109193435,
Z,left,Pretarget,0,16,16,16,1775.3522710576362,1777.3543675024412,left,1,3,0.6312291037174873,L09A05,2022-11-30_09h02.49.125,t1_Paradigm,2021.1.4,60.0804109193435,
V,right,Target,0,17,17,17,1778.8513352765294,1780.8533961122448,left,0,3,1.1030552595329937,L09A05,2022-11-30_09h02.49.125,t1_Paradigm,2021.1.4,60.0804109193435,
N,left,Distractor,0,18,18,18,1782.3511091107212,1784.3530935954186,left,1,3,0.7829209202318452,L09A05,2022-11-30_09h02.49.125,t1_Paradigm,2021.1.4,60.0804109193435,
Z,right,Target,0,19,19,19,1785.8506279068533,1787.8517715680355,right,1,3,0.6475072677712888,L09A05,2022-11-30_09h02.49.125,t1_Paradigm,2021.1.4,60.0804109193435,
R,left,Distractor,0,20,20,20,1789.3500167779566,1791.3515024146764,left,1,3,0.5389213719463442,L09A05,2022-11-30_09h02.49.125,t1_Paradigm,2021.1.4,60.0804109193435,
P,left,Distractor,0,21,21,21,1792.8491814080626,1794.8503003674268,left,1,3,1.0644158730574418,L09A05,2022-11-30_09h02.49.125,t1_Paradigm,2021.1.4,60.0804109193435,
Z,right,Target,0,22,22,22,1796.348644063779,1798.347745495761,right,1,3,1.369864191423403,L09A05,2022-11-30_09h02.49.125,t1_Paradigm,2021.1.4,60.0804109193435,
D,left,Pretarget,0,23,23,23,1799.847997646575,1801.8501749336428,left,1,3,0.5251342398114502,L09A05,2022-11-30_09h02.49.125,t1_Paradigm,2021.1.4,60.0804109193435,
K,left,Distractor,0,24,24,24,1803.3475533350138,1805.347198848176,left,1,3,0.5585961936158128,L09A05,2022-11-30_09h02.49.125,t1_Paradigm,2021.1.4,60.0804109193435,
W,left,Distractor,0,25,25,25,1806.8471237803751,1808.8476085130533,left,1,3,0.9917521658935584,L09A05,2022-11-30_09h02.49.125,t1_Paradigm,2021.1.4,60.0804109193435,
D,right,Target,0,26,26,26,1810.3629695025738,1812.3652318023087,right,1,3,1.2819427932263352,L09A05,2022-11-30_09h02.49.125,t1_Paradigm,2021.1.4,60.0804109193435,
G,left,Pretarget,0,27,27,27,1813.8623981532,1815.8636595488933,left,1,3,0.804195584350964,L09A05,2022-11-30_09h02.49.125,t1_Paradigm,2021.1.4,60.0804109193435,
V,left,Distractor,0,28,28,28,1817.3615101716714,1819.3630102445022,left,1,3,0.8024209045106545,L09A05,2022-11-30_09h02.49.125,t1_Paradigm,2021.1.4,60.0804109193435,
D,right,Target,0,29,29,29,1820.8611649881059,1822.8631619841326,right,1,3,0.4577531886170618,L09A05,2022-11-30_09h02.49.125,t1_Paradigm,2021.1.4,60.0804109193435,
G,right,Target,0,30,30,30,1824.3602763649833,1826.361926573416,right,1,3,0.9540113474358805,L09A05,2022-11-30_09h02.49.125,t1_Paradigm,2021.1.4,60.0804109193435,
B,left,Pretarget,0,31,31,31,1827.8598772865953,1829.8614565976604,left,1,3,0.4874136319558602,L09A05,2022-11-30_09h02.49.125,t1_Paradigm,2021.1.4,60.0804109193435,
N,left,Distractor,0,32,32,32,1831.3594044235942,1833.3613443167415,left,1,3,0.9173978291801177,L09A05,2022-11-30_09h02.49.125,t1_Paradigm,2021.1.4,60.0804109193435,
F,left,Distractor,0,33,33,33,1834.8589706985222,1836.8583849130373,left,1,3,0.6041729356802534,L09A05,2022-11-30_09h02.49.125,t1_Paradigm,2021.1.4,60.0804109193435,
B,right,Target,0,34,34,34,1838.358501685172,1840.3595818274189,left,0,3,0.5757928154198453,L09A05,2022-11-30_09h02.49.125,t1_Paradigm,2021.1.4,60.0804109193435,
Q,left,Pretarget,0,35,35,35,1841.8578494935355,1843.8595144588908,left,1,3,0.8752642611216288,L09A05,2022-11-30_09h02.49.125,t1_Paradigm,2021.1.4,60.0804109193435,
S,left,Pretarget,0,36,36,36,1845.3571129308257,1847.3583493039478,left,1,3,0.6825036202499177,L09A05,2022-11-30_09h02.49.125,t1_Paradigm,2021.1.4,60.0804109193435,
W,left,Distractor,0,37,37,37,1848.8567818625888,1850.8578774033522,left,1,3,0.6969711745914537,L09A05,2022-11-30_09h02.49.125,t1_Paradigm,2021.1.4,60.0804109193435,
Q,right,Target,0,38,38,38,1852.355901580333,1854.3568979931297,left,0,3,0.9651403094467241,L09A05,2022-11-30_09h02.49.125,t1_Paradigm,2021.1.4,60.0804109193435,
S,right,Target,0,39,39,39,1855.8554668928555,1857.8574112772185,left,0,3,1.447335445904173,L09A05,2022-11-30_09h02.49.125,t1_Paradigm,2021.1.4,60.0804109193435,
T,left,Distractor,0,40,40,40,1859.3546661696164,1861.3565666040522,left,1,3,0.5326005988754332,L09A05,2022-11-30_09h02.49.125,t1_Paradigm,2021.1.4,60.0804109193435,
G,left,Distractor,0,41,41,41,1862.8542683744454,1864.855358140776,left,1,3,0.832994672760833,L09A05,2022-11-30_09h02.49.125,t1_Paradigm,2021.1.4,60.0804109193435,
D,left,Distractor,0,42,42,42,1866.3537647144112,1868.3558406278316,left,1,3,0.7854587893816642,L09A05,2022-11-30_09h02.49.125,t1_Paradigm,2021.1.4,60.0804109193435,
S,left,Lure,0,43,43,43,1869.8531593599473,1871.85490228032,left,1,3,0.5804874402529094,L09A05,2022-11-30_09h02.49.125,t1_Paradigm,2021.1.4,60.0804109193435,
Z,left,Pretarget,0,44,44,44,1873.3530679312244,1875.3523958498263,left,1,3,0.48631648713489994,L09A05,2022-11-30_09h02.49.125,t1_Paradigm,2021.1.4,60.0804109193435,
J,left,Distractor,0,45,45,45,1876.8518700544082,1878.853339330206,left,1,3,0.4754951748182066,L09A05,2022-11-30_09h02.49.125,t1_Paradigm,2021.1.4,60.0804109193435,
M,left,Pretarget,0,46,46,46,1880.3513535622915,1882.3524680304108,None,0,3,,L09A05,2022-11-30_09h02.49.125,t1_Paradigm,2021.1.4,60.0804109193435,
Z,right,Target,0,47,47,47,1883.8508354661171,1885.8513798680797,right,1,3,0.9697114252485335,L09A05,2022-11-30_09h02.49.125,t1_Paradigm,2021.1.4,60.0804109193435,
P,left,Distractor,0,48,48,48,1887.3498509230267,1889.351061311143,left,1,3,0.8537720928725321,L09A05,2022-11-30_09h02.49.125,t1_Paradigm,2021.1.4,60.0804109193435,
M,right,Target,0,49,49,49,1890.8495731080184,1892.8513612615352,right,1,3,0.6228484573366586,L09A05,2022-11-30_09h02.49.125,t1_Paradigm,2021.1.4,60.0804109193435,
K,left,Distractor,0,50,50,50,1894.349129438051,1896.3511373413494,left,1,3,0.6861479374638293,L09A05,2022-11-30_09h02.49.125,t1_Paradigm,2021.1.4,60.0804109193435,
Y,left,Distractor,0,51,51,51,1897.848604284256,1899.8492243956134,left,1,3,0.5473424394149333,L09A05,2022-11-30_09h02.49.125,t1_Paradigm,2021.1.4,60.0804109193435,
X,left,Distractor,0,52,52,52,1901.347953696648,1903.34950028584,None,0,3,,L09A05,2022-11-30_09h02.49.125,t1_Paradigm,2021.1.4,60.0804109193435,
F,left,Pretarget,0,53,53,53,1904.847418277146,1906.8467484413704,left,1,3,0.9987049200281035,L09A05,2022-11-30_09h02.49.125,t1_Paradigm,2021.1.4,60.0804109193435,
M,left,Lure,0,54,54,54,1908.3465777744132,1910.347876062413,left,1,3,0.5909610025992151,L09A05,2022-11-30_09h02.49.125,t1_Paradigm,2021.1.4,60.0804109193435,
V,left,Distractor,0,55,55,55,1911.862832519866,1913.8641324118944,left,1,3,0.7354321948369034,L09A05,2022-11-30_09h02.49.125,t1_Paradigm,2021.1.4,60.0804109193435,
F,right,Target,0,56,56,56,1915.3623808298726,1917.3646877211577,right,1,3,0.9570102098514326,L09A05,2022-11-30_09h02.49.125,t1_Paradigm,2021.1.4,60.0804109193435,
S,left,Distractor,0,57,57,57,1918.861689500307,1920.862711577298,left,1,3,1.4295559258316644,L09A05,2022-11-30_09h02.49.125,t1_Paradigm,2021.1.4,60.0804109193435,
D,left,Distractor,0,58,58,58,1922.3611091684725,1924.363039437536,left,1,3,0.46470658434554935,L09A05,2022-11-30_09h02.49.125,t1_Paradigm,2021.1.4,60.0804109193435,
F,right,Target,0,59,59,59,1925.860519212525,1927.8620491200127,right,1,3,0.5452668468060438,L09A05,2022-11-30_09h02.49.125,t1_Paradigm,2021.1.4,60.0804109193435,
V,left,Pretarget,0,60,60,60,1929.3599696777237,1931.3610774090048,left,1,3,0.8455139930883888,L09A05,2022-11-30_09h02.49.125,t1_Paradigm,2021.1.4,60.0804109193435,
J,left,Distractor,0,61,61,61,1932.8592985587602,1934.8605984507885,left,1,3,0.4931290505337529,L09A05,2022-11-30_09h02.49.125,t1_Paradigm,2021.1.4,60.0804109193435,
V,left,Lure,0,62,62,62,1936.358664973668,1938.3608788322308,left,1,3,1.2412153027835302,L09A05,2022-11-30_09h02.49.125,t1_Paradigm,2021.1.4,60.0804109193435,
V,right,Target,0,63,63,63,1939.8583974243375,1941.8581629176624,right,1,3,0.8131748482992407,L09A05,2022-11-30_09h02.49.125,t1_Paradigm,2021.1.4,60.0804109193435,
R,left,Distractor,0,0,0,0,2005.4304846492596,2007.4326189487765,left,1,4,0.7081020614132285,L09A05,2022-11-30_09h02.49.125,t1_Paradigm,2021.1.4,60.0804109193435,
F,left,Distractor,0,1,1,1,2008.9300599066773,2010.932235910499,left,1,4,0.4741981700062752,L09A05,2022-11-30_09h02.49.125,t1_Paradigm,2021.1.4,60.0804109193435,
P,left,Pretarget,0,2,2,2,2012.4286820596317,2014.4287183103152,left,1,4,0.45100125690805726,L09A05,2022-11-30_09h02.49.125,t1_Paradigm,2021.1.4,60.0804109193435,
H,left,Distractor,0,3,3,3,2015.9289011677902,2017.9311544850352,left,1,4,0.40567377844126895,L09A05,2022-11-30_09h02.49.125,t1_Paradigm,2021.1.4,60.0804109193435,
Z,left,Distractor,0,4,4,4,2019.4282079134136,2021.4294940109248,left,1,4,0.49511289363726974,L09A05,2022-11-30_09h02.49.125,t1_Paradigm,2021.1.4,60.0804109193435,
T,left,Distractor,0,5,5,5,2022.9277504489582,2024.9289553834242,left,1,4,1.1700972224352881,L09A05,2022-11-30_09h02.49.125,t1_Paradigm,2021.1.4,60.0804109193435,
P,right,Target,0,6,6,6,2026.4272217663238,2028.4279711611161,right,1,4,0.4472350347205065,L09A05,2022-11-30_09h02.49.125,t1_Paradigm,2021.1.4,60.0804109193435,
G,left,Distractor,0,7,7,7,2029.9264717299084,2031.9258506561455,left,1,4,0.5531156024953816,L09A05,2022-11-30_09h02.49.125,t1_Paradigm,2021.1.4,60.0804109193435,
L,left,Distractor,0,8,8,8,2033.4260364008078,2035.427849576954,left,1,4,0.6432377063611057,L09A05,2022-11-30_09h02.49.125,t1_Paradigm,2021.1.4,60.0804109193435,
P,left,Lure,0,9,9,9,2036.9253367304045,2038.9266558705713,right,0,4,0.69527444979758,L09A05,2022-11-30_09h02.49.125,t1_Paradigm,2021.1.4,60.0804109193435,
Q,left,Pretarget,0,10,10,10,2040.42482954156,2042.4256360392028,left,1,4,1.0774815201875754,L09A05,2022-11-30_09h02.49.125,t1_Paradigm,2021.1.4,60.0804109193435,
D,left,Distractor,0,11,11,11,2043.924282893975,2045.9236704818613,left,1,4,1.0074836823623627,L09A05,2022-11-30_09h02.49.125,t1_Paradigm,2021.1.4,60.0804109193435,
M,left,Pretarget,0,12,12,12,2047.4236223614716,2049.425875999528,None,0,4,,L09A05,2022-11-30_09h02.49.125,t1_Paradigm,2021.1.4,60.0804109193435,
C,left,Distractor,0,13,13,13,2050.9223558329104,2052.924166763434,left,1,4,0.5336473776842467,L09A05,2022-11-30_09h02.49.125,t1_Paradigm,2021.1.4,60.0804109193435,
Q,right,Target,0,14,14,14,2054.4225082141347,2056.424228678341,right,1,4,0.670283929532161,L09A05,2022-11-30_09h02.49.125,t1_Paradigm,2021.1.4,60.0804109193435,
R,left,Distractor,0,15,15,15,2057.92199910045,2059.9231584809604,left,1,4,0.4694156452897005,L09A05,2022-11-30_09h02.49.125,t1_Paradigm,2021.1.4,60.0804109193435,
M,right,Target,0,16,16,16,2061.421341776004,2063.422296805249,left,0,4,0.6885610144236125,L09A05,2022-11-30_09h02.49.125,t1_Paradigm,2021.1.4,60.0804109193435,
S,left,Distractor,0,17,17,17,2064.920745724812,2066.921940072789,left,1,4,0.9109958930930588,L09A05,2022-11-30_09h02.49.125,t1_Paradigm,2021.1.4,60.0804109193435,
Z,left,Distractor,0,18,18,18,2068.420078776282,2070.4214200518327,left,1,4,0.8358485324133653,L09A05,2022-11-30_09h02.49.125,t1_Paradigm,2021.1.4,60.0804109193435,
L,left,Pretarget,0,19,19,19,2071.9197473872046,2073.9215538264834,left,1,4,0.7030436464701779,L09A05,2022-11-30_09h02.49.125,t1_Paradigm,2021.1.4,60.0804109193435,
M,right,Target,0,20,20,20,2075.4188780122495,2077.419681622676,right,1,4,0.4952890142449178,L09A05,2022-11-30_09h02.49.125,t1_Paradigm,2021.1.4,60.0804109193435,
P,left,Distractor,0,21,21,21,2078.9186056508624,2080.920235648722,left,1,4,0.8109706138202455,L09A05,2022-11-30_09h02.49.125,t1_Paradigm,2021.1.4,60.0804109193435,
F,left,Distractor,0,22,22,22,2082.4178697297757,2084.418959816918,left,1,4,0.809748356055934,L09A05,2022-11-30_09h02.49.125,t1_Paradigm,2021.1.4,60.0804109193435,
L,right,Target,0,23,23,23,2085.917208876461,2087.9185742122063,right,1,4,0.7227040320285596,L09A05,2022-11-30_09h02.49.125,t1_Paradigm,2021.1.4,60.0804109193435,
L,left,Lure,0,24,24,24,2089.416689176316,2091.416469105752,left,1,4,0.7144565187336411,L09A05,2022-11-30_09h02.49.125,t1_Paradigm,2021.1.4,60.0804109193435,
V,left,Pretarget,0,25,25,25,2092.916030889435,2094.9171251470107,left,1,4,0.5322268638992682,L09A05,2022-11-30_09h02.49.125,t1_Paradigm,2021.1.4,60.0804109193435,
Z,left,Distractor,0,26,26,26,2096.415589144279,2098.417606030067,left,1,4,1.161731974571012,L09A05,2022-11-30_09h02.49.125,t1_Paradigm,2021.1.4,60.0804109193435,
H,left,Distractor,0,27,27,27,2099.9148856242537,2101.9169147005014,left,1,4,0.5200755040859804,L09A05,2022-11-30_09h02.49.125,t1_Paradigm,2021.1.4,60.0804109193435,
X,left,Distractor,0,28,28,28,2103.4145301750104,2105.4151271885785,left,1,4,0.7072885060915723,L09A05,2022-11-30_09h02.49.125,t1_Paradigm,2021.1.4,60.0804109193435,
V,right,Target,0,29,29,29,2106.930445190548,2108.932162125915,None,0,4,,L09A05,2022-11-30_09h02.49.125,t1_Paradigm,2021.1.4,60.0804109193435,
C,left,Distractor,0,30,30,30,2110.4295597754535,2112.431247838598,left,1,4,0.6091084832441993,L09A05,2022-11-30_09h02.49.125,t1_Paradigm,2021.1.4,60.0804109193435,
S,left,Pretarget,0,31,31,31,2113.929294792528,2115.9308259832032,left,1,4,0.7990675552573521,L09A05,2022-11-30_09h02.49.125,t1_Paradigm,2021.1.4,60.0804109193435,
D,left,Distractor,0,32,32,32,2117.428765789082,2119.4295819108374,left,1,4,0.5862224278389476,L09A05,2022-11-30_09h02.49.125,t1_Paradigm,2021.1.4,60.0804109193435,
V,left,Distractor,0,33,33,33,2120.928280093998,2122.9272968341247,right,0,4,0.4276625490456354,L09A05,2022-11-30_09h02.49.125,t1_Paradigm,2021.1.4,60.0804109193435,
R,left,Distractor,0,34,34,34,2124.4274559521873,2126.428517808701,left,1,4,0.7748848158225883,L09A05,2022-11-30_09h02.49.125,t1_Paradigm,2021.1.4,60.0804109193435,
S,right,Target,0,35,35,35,2127.927122638328,2129.927851501765,None,0,4,,L09A05,2022-11-30_09h02.49.125,t1_Paradigm,2021.1.4,60.0804109193435,
Y,left,Distractor,0,36,36,36,2131.4263940956735,2133.428654149786,left,1,4,0.591091569251148,L09A05,2022-11-30_09h02.49.125,t1_Paradigm,2021.1.4,60.0804109193435,
N,left,Pretarget,0,37,37,37,2134.9251570809865,2136.927748203336,left,1,4,0.5733296932885423,L09A05,2022-11-30_09h02.49.125,t1_Paradigm,2021.1.4,60.0804109193435,
Z,left,Pretarget,0,38,38,38,2138.4244907740213,2140.4271614554455,left,1,4,0.6654738157812972,L09A05,2022-11-30_09h02.49.125,t1_Paradigm,2021.1.4,60.0804109193435,
P,left,Pretarget,0,39,39,39,2141.9249129502277,2143.9265743867436,left,1,4,1.0067676510370802,L09A05,2022-11-30_09h02.49.125,t1_Paradigm,2021.1.4,60.0804109193435,
M,left,Distractor,0,40,40,40,2145.4240608986,2147.4261159598536,left,1,4,1.4291661507159006,L09A05,2022-11-30_09h02.49.125,t1_Paradigm,2021.1.4,60.0804109193435,
N,right,Target,0,41,41,41,2148.923544085643,2150.9245844483958,right,1,4,1.4366321889392566,L09A05,2022-11-30_09h02.49.125,t1_Paradigm,2021.1.4,60.0804109193435,
Z,right,Target,0,42,42,42,2152.422832866345,2154.423804256541,left,0,4,0.8196393409161828,L09A05,2022-11-30_09h02.49.125,t1_Paradigm,2021.1.4,60.0804109193435,
P,right,Target,0,43,43,43,2155.922227511881,2157.9236509129114,right,1,4,0.9846585794584826,L09A05,2022-11-30_09h02.49.125,t1_Paradigm,2021.1.4,60.0804109193435,
X,left,Pretarget,0,44,44,44,2159.422121647047,2161.4230715434533,left,1,4,0.7957902361813467,L09A05,2022-11-30_09h02.49.125,t1_Paradigm,2021.1.4,60.0804109193435,
Z,left,Lure,0,45,45,45,2162.9210161613883,2164.922636535164,right,0,4,1.299777170526795,L09A05,2022-11-30_09h02.49.125,t1_Paradigm,2021.1.4,60.0804109193435,
R,left,Pretarget,0,46,46,46,2166.4206238198385,2168.422357436939,left,1,4,1.013282188825542,L09A05,2022-11-30_09h02.49.125,t1_Paradigm,2021.1.4,60.0804109193435,
K,left,Distractor,0,47,47,47,2169.919957833714,2171.9214113901544,left,1,4,0.6737450684595387,L09A05,2022-11-30_09h02.49.125,t1_Paradigm,2021.1.4,60.0804109193435,
X,right,Target,0,48,48,48,2173.4197550864774,2175.420693433989,right,1,4,1.3163873652520124,L09A05,2022-11-30_09h02.49.125,t1_Paradigm,2021.1.4,60.0804109193435,
B,left,Distractor,0,49,49,49,2176.9189556464844,2178.9204005412466,left,1,4,0.588889580394607,L09A05,2022-11-30_09h02.49.125,t1_Paradigm,2021.1.4,60.0804109193435,
R,right,Target,0,50,50,50,2180.4183406679367,2182.4198125101393,left,0,4,1.3417872296122368,L09A05,2022-11-30_09h02.49.125,t1_Paradigm,2021.1.4,60.0804109193435,
Y,left,Pretarget,0,51,51,51,2183.9172178589506,2185.918885390711,left,1,4,0.7819986128306482,L09A05,2022-11-30_09h02.49.125,t1_Paradigm,2021.1.4,60.0804109193435,
W,left,Pretarget,0,52,52,52,2187.417142470338,2189.4185049188673,left,1,4,0.9803463512798771,L09A05,2022-11-30_09h02.49.125,t1_Paradigm,2021.1.4,60.0804109193435,
Z,left,Distractor,0,53,53,53,2190.9165534768254,2192.9180737602,left,1,4,1.288442574092187,L09A05,2022-11-30_09h02.49.125,t1_Paradigm,2021.1.4,60.0804109193435,
Q,left,Distractor,0,54,54,54,2194.4159526136064,2196.41540757005,left,1,4,1.3706722931237891,L09A05,2022-11-30_09h02.49.125,t1_Paradigm,2021.1.4,60.0804109193435,
Y,right,Target,0,55,55,55,2197.9153177453263,2199.9175534184324,right,1,4,0.4452053168497514,L09A05,2022-11-30_09h02.49.125,t1_Paradigm,2021.1.4,60.0804109193435,
W,right,Target,0,56,56,56,2201.414714636485,2203.4162297870207,right,1,4,1.137520362943178,L09A05,2022-11-30_09h02.49.125,t1_Paradigm,2021.1.4,60.0804109193435,
H,left,Pretarget,0,57,57,57,2204.9142642296792,2206.9164203437394,left,1,4,0.5442229552136268,L09A05,2022-11-30_09h02.49.125,t1_Paradigm,2021.1.4,60.0804109193435,
M,left,Distractor,0,58,58,58,2208.430322964763,2210.4311689211463,left,1,4,0.6658061672351323,L09A05,2022-11-30_09h02.49.125,t1_Paradigm,2021.1.4,60.0804109193435,
R,left,Pretarget,0,59,59,59,2211.9296245775768,2213.9310874372895,left,1,4,0.6395564968697727,L09A05,2022-11-30_09h02.49.125,t1_Paradigm,2021.1.4,60.0804109193435,
J,left,Distractor,0,60,60,60,2215.4291353536537,2217.429392958118,left,1,4,0.7740183280839119,L09A05,2022-11-30_09h02.49.125,t1_Paradigm,2021.1.4,60.0804109193435,
H,right,Target,0,61,61,61,2218.928530640813,2220.9309235071996,left,0,4,1.1211263891600538,L09A05,2022-11-30_09h02.49.125,t1_Paradigm,2021.1.4,60.0804109193435,
Z,left,Distractor,0,62,62,62,2222.42802730159,2224.429613670276,None,0,4,,L09A05,2022-11-30_09h02.49.125,t1_Paradigm,2021.1.4,60.0804109193435,
R,right,Target,0,63,63,63,2225.9272994005296,2227.928830591205,right,1,4,0.8660514528746717,L09A05,2022-11-30_09h02.49.125,t1_Paradigm,2021.1.4,60.0804109193435,
J,left,Pretarget,0,0,0,0,2246.373902133404,2248.3754647627065,left,1,4,0.6349837770103477,L09A05,2022-11-30_09h02.49.125,t1_Paradigm,2021.1.4,60.0804109193435,
G,left,Pretarget,0,1,1,1,2249.873472257954,2251.87429190852,left,1,4,0.47493184549966827,L09A05,2022-11-30_09h02.49.125,t1_Paradigm,2021.1.4,60.0804109193435,
Z,left,Distractor,0,2,2,2,2253.372711635049,2255.3749251728004,left,1,4,0.4029196883784607,L09A05,2022-11-30_09h02.49.125,t1_Paradigm,2021.1.4,60.0804109193435,
F,left,Distractor,0,3,3,3,2256.8722252983425,2258.873650624184,left,1,4,0.42717813717899844,L09A05,2022-11-30_09h02.49.125,t1_Paradigm,2021.1.4,60.0804109193435,
J,right,Target,0,4,4,4,2260.371534610429,2262.3728928884957,right,1,4,0.40117035192088224,L09A05,2022-11-30_09h02.49.125,t1_Paradigm,2021.1.4,60.0804109193435,
G,right,Target,0,5,5,5,2263.871704314981,2265.872365489078,right,1,4,0.9704226445464883,L09A05,2022-11-30_09h02.49.125,t1_Paradigm,2021.1.4,60.0804109193435,
H,left,Distractor,0,6,6,6,2267.3705853556166,2269.3717190719035,left,1,4,1.0305968660395592,L09A05,2022-11-30_09h02.49.125,t1_Paradigm,2021.1.4,60.0804109193435,
P,left,Distractor,0,7,7,7,2270.8698747779126,2272.868824149511,left,1,4,0.9088782753096893,L09A05,2022-11-30_09h02.49.125,t1_Paradigm,2021.1.4,60.0804109193435,
G,left,Lure,0,8,8,8,2274.3689803803572,2276.3702757811407,left,1,4,1.1138499452499673,L09A05,2022-11-30_09h02.49.125,t1_Paradigm,2021.1.4,60.0804109193435,
S,left,Distractor,0,9,9,9,2277.8686618233914,2279.8697839907836,left,1,4,0.7022910436207894,L09A05,2022-11-30_09h02.49.125,t1_Paradigm,2021.1.4,60.0804109193435,
R,left,Pretarget,0,10,10,10,2281.368031125545,2283.367045620049,left,1,4,0.5693652151385322,L09A05,2022-11-30_09h02.49.125,t1_Paradigm,2021.1.4,60.0804109193435,
T,left,Pretarget,0,11,11,11,2284.867651295295,2286.8688276783214,left,1,4,0.5903627058141865,L09A05,2022-11-30_09h02.49.125,t1_Paradigm,2021.1.4,60.0804109193435,
X,left,Distractor,0,12,12,12,2288.367068076215,2290.3662590121385,left,1,4,0.7502022660337389,L09A05,2022-11-30_09h02.49.125,t1_Paradigm,2021.1.4,60.0804109193435,
F,left,Pretarget,0,13,13,13,2291.8665031428973,2293.868112930184,left,1,4,0.7790026376314927,L09A05,2022-11-30_09h02.49.125,t1_Paradigm,2021.1.4,60.0804109193435,
R,right,Target,0,14,14,14,2295.3657559936983,2297.3649482128385,right,1,4,0.7110948286135681,L09A05,2022-11-30_09h02.49.125,t1_Paradigm,2021.1.4,60.0804109193435,
T,right,Target,0,15,15,15,2298.8653120029485,2300.8666561657155,right,1,4,1.0535878238733858,L09A05,2022-11-30_09h02.49.125,t1_Paradigm,2021.1.4,60.0804109193435,
C,left,Distractor,0,16,16,16,2302.364826949459,2304.3662432928104,left,1,4,0.5713301308860537,L09A05,2022-11-30_09h02.49.125,t1_Paradigm,2021.1.4,60.0804109193435,
F,right,Target,0,17,17,17,2305.8640082612983,2307.866431603936,left,0,4,1.2058785787958186,L09A05,2022-11-30_09h02.49.125,t1_Paradigm,2021.1.4,60.0804109193435,
M,left,Distractor,0,18,18,18,2309.3633971324016,2311.3647666385805,left,1,4,1.0830763170088176,L09A05,2022-11-30_09h02.49.125,t1_Paradigm,2021.1.4,60.0804109193435,
N,left,Distractor,0,19,19,19,2312.8630118485016,2314.8647384079522,left,1,4,0.5678462149517145,L09A05,2022-11-30_09h02.49.125,t1_Paradigm,2021.1.4,60.0804109193435,
R,left,Lure,0,20,20,20,2316.3624238173943,2318.363597954827,left,1,4,0.9987976319389418,L09A05,2022-11-30_09h02.49.125,t1_Paradigm,2021.1.4,60.0804109193435,
F,right,Target,0,21,21,21,2319.861753019213,2321.862985221902,right,1,4,0.4106744489108678,L09A05,2022-11-30_09h02.49.125,t1_Paradigm,2021.1.4,60.0804109193435,
P,left,Distractor,0,22,22,22,2323.361226582201,2325.3610613688943,left,1,4,0.9606927025888581,L09A05,2022-11-30_09h02.49.125,t1_Paradigm,2021.1.4,60.0804109193435,
L,left,Pretarget,0,23,23,23,2326.860649779177,2328.8622156165366,left,1,4,1.1698364099138416,L09A05,2022-11-30_09h02.49.125,t1_Paradigm,2021.1.4,60.0804109193435,
T,left,Distractor,0,24,24,24,2330.3600970363477,2332.3606613280717,left,1,4,0.8515216628147755,L09A05,2022-11-30_09h02.49.125,t1_Paradigm,2021.1.4,60.0804109193435,
F,left,Distractor,0,25,25,25,2333.8594239925733,2335.8614591640653,left,1,4,0.7473397447029129,L09A05,2022-11-30_09h02.49.125,t1_Paradigm,2021.1.4,60.0804109193435,
V,left,Distractor,0,26,26,26,2337.358912312455,2339.3602446055447,left,1,4,0.558676394255599,L09A05,2022-11-30_09h02.49.125,t1_Paradigm,2021.1.4,60.0804109193435,
L,right,Target,0,27,27,27,2340.8750146767125,2342.876559661905,left,0,4,1.3562021723482758,L09A05,2022-11-30_09h02.49.125,t1_Paradigm,2021.1.4,60.0804109193435,
S,left,Pretarget,0,28,28,28,2344.3743903949216,2346.3866630180564,left,1,4,0.7483974307542667,L09A05,2022-11-30_09h02.49.125,t1_Paradigm,2021.1.4,60.0804109193435,
W,left,Distractor,0,29,29,29,2347.8738190455188,2349.8750775540248,left,1,4,0.4890914293646347,L09A05,2022-11-30_09h02.49.125,t1_Paradigm,2021.1.4,60.0804109193435,
Q,left,Distractor,0,30,30,30,2351.373026342364,2353.372680838016,left,1,4,0.5056996992789209,L09A05,2022-11-30_09h02.49.125,t1_Paradigm,2021.1.4,60.0804109193435,
L,right,Target,0,31,31,31,2354.872692386911,2356.874321422365,right,1,4,0.4615768344665412,L09A05,2022-11-30_09h02.49.125,t1_Paradigm,2021.1.4,60.0804109193435,
S,right,Target,0,32,32,32,2358.3721441352973,2360.3728704323294,right,1,4,0.5015090552915353,L09A05,2022-11-30_09h02.49.125,t1_Paradigm,2021.1.4,60.0804109193435,
Z,left,Pretarget,0,33,33,33,2361.8713264095422,2363.873478353198,left,1,4,1.2942481382051483,L09A05,2022-11-30_09h02.49.125,t1_Paradigm,2021.1.4,60.0804109193435,
F,left,Distractor,0,34,34,34,2365.3709144990426,2367.37219289731,left,1,4,0.8574597184197046,L09A05,2022-11-30_09h02.49.125,t1_Paradigm,2021.1.4,60.0804109193435,
V,left,Distractor,0,35,35,35,2368.8704201422806,2370.8715596330294,left,1,4,0.705338347266661,L09A05,2022-11-30_09h02.49.125,t1_Paradigm,2021.1.4,60.0804109193435,
M,left,Distractor,0,36,36,36,2372.369390366046,2374.368642575253,left,1,4,0.5964602002641186,L09A05,2022-11-30_09h02.49.125,t1_Paradigm,2021.1.4,60.0804109193435,
Z,right,Target,0,37,37,37,2375.8692196990596,2377.870488152432,left,0,4,0.9919690284586977,L09A05,2022-11-30_09h02.49.125,t1_Paradigm,2021.1.4,60.0804109193435,
H,left,Pretarget,0,38,38,38,2379.3678258119035,2381.3696899956267,left,1,4,0.8690904156246688,L09A05,2022-11-30_09h02.49.125,t1_Paradigm,2021.1.4,60.0804109193435,
L,left,Distractor,0,39,39,39,2382.8671027228993,2384.8700104774034,right,0,4,0.8500065123080276,L09A05,2022-11-30_09h02.49.125,t1_Paradigm,2021.1.4,60.0804109193435,
G,left,Distractor,0,40,40,40,2386.367500838882,2388.3686592569866,left,1,4,1.3104396855924278,L09A05,2022-11-30_09h02.49.125,t1_Paradigm,2021.1.4,60.0804109193435,
K,left,Distractor,0,41,41,41,2389.8666442960384,2391.868464850617,left,1,4,1.1862348749709781,L09A05,2022-11-30_09h02.49.125,t1_Paradigm,2021.1.4,60.0804109193435,
H,right,Target,0,42,42,42,2393.3661852275545,2395.3678440976364,None,0,4,,L09A05,2022-11-30_09h02.49.125,t1_Paradigm,2021.1.4,60.0804109193435,
B,left,Distractor,0,43,43,43,2396.865671622625,2398.8671373695834,left,1,4,1.1715806135034654,L09A05,2022-11-30_09h02.49.125,t1_Paradigm,2021.1.4,60.0804109193435,
Z,left,Distractor,0,44,44,44,2400.3651304286905,2402.3662388015655,left,1,4,0.868724379921332,L09A05,2022-11-30_09h02.49.125,t1_Paradigm,2021.1.4,60.0804109193435,
T,left,Pretarget,0,45,45,45,2403.86458987635,2405.8658240038494,left,1,4,0.7775968807982281,L09A05,2022-11-30_09h02.49.125,t1_Paradigm,2021.1.4,60.0804109193435,
H,right,Target,0,46,46,46,2407.364075309044,2409.364743540791,left,0,4,0.683046738995472,L09A05,2022-11-30_09h02.49.125,t1_Paradigm,2021.1.4,60.0804109193435,
F,left,Distractor,0,47,47,47,2410.863309232489,2412.864597896434,left,1,4,0.6486233399482444,L09A05,2022-11-30_09h02.49.125,t1_Paradigm,2021.1.4,60.0804109193435,
R,left,Distractor,0,48,48,48,2414.3631927811657,2416.362852088845,left,1,4,0.6850485470495187,L09A05,2022-11-30_09h02.49.125,t1_Paradigm,2021.1.4,60.0804109193435,
T,right,Target,0,49,49,49,2417.8622489800036,2419.8634304958687,None,0,4,,L09A05,2022-11-30_09h02.49.125,t1_Paradigm,2021.1.4,60.0804109193435,
H,right,Target,0,50,50,50,2421.361548988789,2423.360895193153,left,0,4,0.6923278781760018,L09A05,2022-11-30_09h02.49.125,t1_Paradigm,2021.1.4,60.0804109193435,
Y,left,Pretarget,0,51,51,51,2424.8610706721665,2426.862724088598,left,1,4,0.7942904841329437,L09A05,2022-11-30_09h02.49.125,t1_Paradigm,2021.1.4,60.0804109193435,
H,left,Distractor,0,52,52,52,2428.3603620192735,2430.359771421732,left,1,4,0.9172480143897701,L09A05,2022-11-30_09h02.49.125,t1_Paradigm,2021.1.4,60.0804109193435,
S,left,Distractor,0,53,53,53,2431.860161838471,2433.861686292279,None,0,4,,L09A05,2022-11-30_09h02.49.125,t1_Paradigm,2021.1.4,60.0804109193435,
Q,left,Distractor,0,54,54,54,2435.3592818770267,2437.360644646338,left,1,4,0.7562862867780495,L09A05,2022-11-30_09h02.49.125,t1_Paradigm,2021.1.4,60.0804109193435,
Y,right,Target,0,55,55,55,2438.8753085318604,2440.8757233296055,right,1,4,1.1636940031021368,L09A05,2022-11-30_09h02.49.125,t1_Paradigm,2021.1.4,60.0804109193435,
R,left,Distractor,0,56,56,56,2442.3747265959973,2444.3738071758416,left,1,4,0.6543435705825686,L09A05,2022-11-30_09h02.49.125,t1_Paradigm,2021.1.4,60.0804109193435,
H,left,Pretarget,0,57,57,57,2445.8740336624614,2447.8745908965066,left,1,4,0.757399792491924,L09A05,2022-11-30_09h02.49.125,t1_Paradigm,2021.1.4,60.0804109193435,
J,left,Distractor,0,58,58,58,2449.3733962277474,2451.3736352256674,left,1,4,0.568693133740453,L09A05,2022-11-30_09h02.49.125,t1_Paradigm,2021.1.4,60.0804109193435,
V,left,Distractor,0,59,59,59,2452.8730115854705,2454.8743538234266,left,1,4,0.5620432172436267,L09A05,2022-11-30_09h02.49.125,t1_Paradigm,2021.1.4,60.0804109193435,
Y,left,Lure,0,60,60,60,2456.3725701611256,2458.374073762767,left,1,4,1.0742734944506083,L09A05,2022-11-30_09h02.49.125,t1_Paradigm,2021.1.4,60.0804109193435,
H,right,Target,0,61,61,61,2459.8718230119266,2461.87393357206,right,1,4,0.4977046576095745,L09A05,2022-11-30_09h02.49.125,t1_Paradigm,2021.1.4,60.0804109193435,
L,left,Distractor,0,62,62,62,2463.371249737742,2465.372412967874,left,1,4,0.6238506445952225,L09A05,2022-11-30_09h02.49.125,t1_Paradigm,2021.1.4,60.0804109193435,
P,left,Distractor,0,63,63,63,2466.8704727539152,2468.872957049025,left,1,4,0.6011913965921849,L09A05,2022-11-30_09h02.49.125,t1_Paradigm,2021.1.4,60.0804109193435,
