Letter,CorrAnswer,Stimulus,nback_run.thisRepN,nback_run.thisTrialN,nback_run.thisN,nback_run.thisIndex,fixcross.started,nback_trial.started,trial_resp.keys,trial_resp.corr,currentlevel,trial_resp.rt,Participant,date,expName,psychopyVersion,frameRate,
H,left,Distractor,0,0,0,0,179.11652385642083,181.04817447765345,None,0,1,,G27R09,2022-08-31_15h59.50.412,t1_Paradigm,2021.1.4,60.04272269495204,
Q,left,Pretarget,0,1,1,1,182.5494480605921,184.55031454611344,left,1,1,0.47285696412473044,G27R09,2022-08-31_15h59.50.412,t1_Paradigm,2021.1.4,60.04272269495204,
Q,right,Target,0,2,2,2,186.0467504386961,188.0467626291629,right,1,1,0.49637911067475216,G27R09,2022-08-31_15h59.50.412,t1_Paradigm,2021.1.4,60.04272269495204,
T,left,Distractor,0,3,3,3,189.5467838020777,191.5486986677097,left,1,1,0.41864660158717015,G27R09,2022-08-31_15h59.50.412,t1_Paradigm,2021.1.4,60.04272269495204,
Q,left,Lure,0,4,4,4,193.0467821980692,195.04846095361427,left,1,1,0.6627003807916481,G27R09,2022-08-31_15h59.50.412,t1_Paradigm,2021.1.4,60.04272269495204,
L,left,Distractor,0,5,5,5,196.54668724075236,198.54862071288517,left,1,1,0.4904997770445334,G27R09,2022-08-31_15h59.50.412,t1_Paradigm,2021.1.4,60.04272269495204,
V,left,Pretarget,0,6,6,6,200.04669686480338,202.04917473750356,left,1,1,0.43003345962279127,G27R09,2022-08-31_15h59.50.412,t1_Paradigm,2021.1.4,60.04272269495204,
V,right,Target,0,7,7,7,203.54672766177282,205.54679535094147,right,1,1,0.4361841915324476,G27R09,2022-08-31_15h59.50.412,t1_Paradigm,2021.1.4,60.04272269495204,
K,left,Distractor,0,8,8,8,207.04657431853593,209.04910416111852,left,1,1,0.45400087899724895,G27R09,2022-08-31_15h59.50.412,t1_Paradigm,2021.1.4,60.04272269495204,
G,left,Pretarget,0,9,9,9,210.54669141117483,212.54872240703844,left,1,1,0.4585379781146912,G27R09,2022-08-31_15h59.50.412,t1_Paradigm,2021.1.4,60.04272269495204,
G,right,Target,0,10,10,10,214.04675974194652,216.04669975201978,right,1,1,0.49659821826753614,G27R09,2022-08-31_15h59.50.412,t1_Paradigm,2021.1.4,60.04272269495204,
G,right,Target,0,11,11,11,217.54689993231113,219.54677642363822,right,1,1,0.516591224788499,G27R09,2022-08-31_15h59.50.412,t1_Paradigm,2021.1.4,60.04272269495204,
P,left,Pretarget,0,12,12,12,221.0466346292651,223.04873491830767,left,1,1,0.4063624610625993,G27R09,2022-08-31_15h59.50.412,t1_Paradigm,2021.1.4,60.04272269495204,
P,right,Target,0,13,13,13,224.5465310103009,226.5465858673997,right,1,1,0.4764772118487599,G27R09,2022-08-31_15h59.50.412,t1_Paradigm,2021.1.4,60.04272269495204,
G,left,Lure,0,14,14,14,228.04684988723784,230.04894215623608,left,1,1,0.4462207950109587,G27R09,2022-08-31_15h59.50.412,t1_Paradigm,2021.1.4,60.04272269495204,
Y,left,Distractor,0,15,15,15,231.54663430846267,233.54974833102824,left,1,1,0.4492113089036138,G27R09,2022-08-31_15h59.50.412,t1_Paradigm,2021.1.4,60.04272269495204,
B,left,Distractor,0,16,16,16,235.0466708798631,237.04878785059555,left,1,1,0.45419368084731104,G27R09,2022-08-31_15h59.50.412,t1_Paradigm,2021.1.4,60.04272269495204,
T,left,Pretarget,0,17,17,17,238.54666927585458,240.5487567328255,left,1,1,0.5542337810657045,G27R09,2022-08-31_15h59.50.412,t1_Paradigm,2021.1.4,60.04272269495204,
T,right,Target,0,18,18,18,242.0465919626331,244.046758137938,right,1,1,0.4804256397601421,G27R09,2022-08-31_15h59.50.412,t1_Paradigm,2021.1.4,60.04272269495204,
S,left,Distractor,0,19,19,19,245.5466846743384,247.548831479633,left,1,1,0.46608387682499597,G27R09,2022-08-31_15h59.50.412,t1_Paradigm,2021.1.4,60.04272269495204,
T,left,Lure,0,20,20,20,249.04667601269102,251.04824024201298,left,1,1,0.5027200780186831,G27R09,2022-08-31_15h59.50.412,t1_Paradigm,2021.1.4,60.04272269495204,
J,left,Distractor,0,21,21,21,252.54680337098398,254.54860948482383,left,1,1,0.45855786782340147,G27R09,2022-08-31_15h59.50.412,t1_Paradigm,2021.1.4,60.04272269495204,
P,left,Distractor,0,22,22,22,256.04673568181533,258.04864637702485,left,1,1,0.39826157532843354,G27R09,2022-08-31_15h59.50.412,t1_Paradigm,2021.1.4,60.04272269495204,
F,left,Distractor,0,23,23,23,259.5465938874422,261.5488889031458,left,1,1,0.4500697743806086,G27R09,2022-08-31_15h59.50.412,t1_Paradigm,2021.1.4,60.04272269495204,
L,left,Distractor,0,24,24,24,263.04667922070803,265.0489620459448,left,1,1,0.4220778970793617,G27R09,2022-08-31_15h59.50.412,t1_Paradigm,2021.1.4,60.04272269495204,
W,left,Pretarget,0,25,25,25,266.54672958658193,268.54979580968757,left,1,1,0.42514668659896415,G27R09,2022-08-31_15h59.50.412,t1_Paradigm,2021.1.4,60.04272269495204,
W,right,Target,0,26,26,26,270.0466436117149,272.0468174862617,right,1,1,0.592229540065091,G27R09,2022-08-31_15h59.50.412,t1_Paradigm,2021.1.4,60.04272269495204,
V,left,Distractor,0,27,27,27,273.54669911041674,275.5483910188341,left,1,1,0.4665342824791878,G27R09,2022-08-31_15h59.50.412,t1_Paradigm,2021.1.4,60.04272269495204,
W,left,Lure,0,28,28,28,277.04652106544563,279.0481263573929,left,1,1,0.6150125593885605,G27R09,2022-08-31_15h59.50.412,t1_Paradigm,2021.1.4,60.04272269495204,
R,left,Pretarget,0,29,29,29,280.5465800929687,282.5491054443264,left,1,1,0.4579900487296982,G27R09,2022-08-31_15h59.50.412,t1_Paradigm,2021.1.4,60.04272269495204,
R,right,Target,0,30,30,30,284.0466073611169,286.04660030347804,right,1,1,0.4324875929924019,G27R09,2022-08-31_15h59.50.412,t1_Paradigm,2021.1.4,60.04272269495204,
G,left,Distractor,0,31,31,31,287.54663719567907,289.54890815125145,left,1,1,0.4819911522881739,G27R09,2022-08-31_15h59.50.412,t1_Paradigm,2021.1.4,60.04272269495204,
R,left,Lure,0,32,32,32,291.04657143132135,293.048825063599,left,1,1,0.5020974018261768,G27R09,2022-08-31_15h59.50.412,t1_Paradigm,2021.1.4,60.04272269495204,
S,left,Distractor,0,33,33,33,294.54666735104365,296.5477365832685,left,1,1,0.3633451923051325,G27R09,2022-08-31_15h59.50.412,t1_Paradigm,2021.1.4,60.04272269495204,
R,left,Lure,0,34,34,34,298.04668691994993,300.04861461765177,left,1,1,0.46244181458314415,G27R09,2022-08-31_15h59.50.412,t1_Paradigm,2021.1.4,60.04272269495204,
P,left,Pretarget,0,35,35,35,301.5457787302021,303.54885778537755,left,1,1,0.38606373047514353,G27R09,2022-08-31_15h59.50.412,t1_Paradigm,2021.1.4,60.04272269495204,
P,right,Target,0,36,36,36,305.0465329351118,307.04653357671486,right,1,1,0.5523538828238088,G27R09,2022-08-31_15h59.50.412,t1_Paradigm,2021.1.4,60.04272269495204,
Y,left,Pretarget,0,37,37,37,308.5466420077046,310.5488295548239,left,1,1,0.44219537468052295,G27R09,2022-08-31_15h59.50.412,t1_Paradigm,2021.1.4,60.04272269495204,
Y,right,Target,0,38,38,38,312.0466285340317,314.0466182683758,right,1,1,0.736277865642478,G27R09,2022-08-31_15h59.50.412,t1_Paradigm,2021.1.4,60.04272269495204,
J,left,Distractor,0,39,39,39,315.5465845841918,317.54886131419516,left,1,1,0.5462233614252909,G27R09,2022-08-31_15h59.50.412,t1_Paradigm,2021.1.4,60.04272269495204,
Y,left,Lure,0,40,40,40,319.04663366685963,321.04800958555643,left,1,1,0.5829015876479389,G27R09,2022-08-31_15h59.50.412,t1_Paradigm,2021.1.4,60.04272269495204,
T,left,Distractor,0,41,41,41,322.54664297011004,324.5486149384542,left,1,1,0.4584218478830735,G27R09,2022-08-31_15h59.50.412,t1_Paradigm,2021.1.4,60.04272269495204,
V,left,Distractor,0,42,42,42,326.0466712006637,328.0486877604508,left,1,1,0.5583150209004089,G27R09,2022-08-31_15h59.50.412,t1_Paradigm,2021.1.4,60.04272269495204,
N,left,Pretarget,0,43,43,43,329.54658843381367,331.5484952794013,left,1,1,0.5306070531478326,G27R09,2022-08-31_15h59.50.412,t1_Paradigm,2021.1.4,60.04272269495204,
N,right,Target,0,44,44,44,333.0466554813793,335.0466195515837,right,1,1,0.39236010637796426,G27R09,2022-08-31_15h59.50.412,t1_Paradigm,2021.1.4,60.04272269495204,
N,right,Target,0,45,45,45,336.5465781681578,338.54651079978976,right,1,1,0.428173771890215,G27R09,2022-08-31_15h59.50.412,t1_Paradigm,2021.1.4,60.04272269495204,
X,left,Distractor,0,46,46,46,340.04665227336045,342.04904673760575,left,1,1,0.5102271597188519,G27R09,2022-08-31_15h59.50.412,t1_Paradigm,2021.1.4,60.04272269495204,
Z,left,Distractor,0,47,47,47,343.54667344627705,345.54848340973695,left,1,1,0.5146564694478002,G27R09,2022-08-31_15h59.50.412,t1_Paradigm,2021.1.4,60.04272269495204,
H,left,Pretarget,0,48,48,48,347.0466333460572,349.0484811641254,left,1,1,0.42250424260419095,G27R09,2022-08-31_15h59.50.412,t1_Paradigm,2021.1.4,60.04272269495204,
H,right,Target,0,49,49,49,350.54650470455636,352.54658843381367,right,1,1,0.6202416278756573,G27R09,2022-08-31_15h59.50.412,t1_Paradigm,2021.1.4,60.04272269495204,
K,left,Distractor,0,50,50,50,354.0465935666416,356.04888537432635,left,1,1,0.5104648738124524,G27R09,2022-08-31_15h59.50.412,t1_Paradigm,2021.1.4,60.04272269495204,
V,left,Pretarget,0,51,51,51,357.5465191406365,359.548712462185,left,1,1,0.5463783086688636,G27R09,2022-08-31_15h59.50.412,t1_Paradigm,2021.1.4,60.04272269495204,
V,right,Target,0,52,52,52,361.0465435215683,363.0465932458392,right,1,1,0.6165363676900597,G27R09,2022-08-31_15h59.50.412,t1_Paradigm,2021.1.4,60.04272269495204,
R,left,Distractor,0,53,53,53,364.5465432007677,366.5485953695479,left,1,1,0.5542883173620794,G27R09,2022-08-31_15h59.50.412,t1_Paradigm,2021.1.4,60.04272269495204,
V,left,Lure,0,54,54,54,368.0466160227643,370.04872850227184,left,1,1,0.5903502834298706,G27R09,2022-08-31_15h59.50.412,t1_Paradigm,2021.1.4,60.04272269495204,
Y,left,Distractor,0,55,55,55,371.5465983786671,373.54779208197033,left,1,1,0.5155296918055683,G27R09,2022-08-31_15h59.50.412,t1_Paradigm,2021.1.4,60.04272269495204,
Q,left,Distractor,0,56,56,56,375.04648609805554,377.04848661775395,left,1,1,0.48632357989117736,G27R09,2022-08-31_15h59.50.412,t1_Paradigm,2021.1.4,60.04272269495204,
Z,left,Pretarget,0,57,57,57,378.54561832932814,380.54882763001297,left,1,1,0.5700435327980813,G27R09,2022-08-31_15h59.50.412,t1_Paradigm,2021.1.4,60.04272269495204,
Z,right,Target,0,58,58,58,382.0464867396586,384.04645882990735,right,1,1,0.4965728749302798,G27R09,2022-08-31_15h59.50.412,t1_Paradigm,2021.1.4,60.04272269495204,
B,left,Distractor,0,59,59,59,385.5465310103009,387.5488006826654,left,1,1,0.5142910762569954,G27R09,2022-08-31_15h59.50.412,t1_Paradigm,2021.1.4,60.04272269495204,
S,left,Pretarget,0,60,60,60,389.0467276617728,391.04869802610665,left,1,1,0.43824341795152577,G27R09,2022-08-31_15h59.50.412,t1_Paradigm,2021.1.4,60.04272269495204,
S,right,Target,0,61,61,61,392.5465355015258,394.5465111205922,right,1,1,0.6205919433832605,G27R09,2022-08-31_15h59.50.412,t1_Paradigm,2021.1.4,60.04272269495204,
T,left,Distractor,0,62,62,62,396.0465072709703,398.04818217689535,left,1,1,0.7026337823481299,G27R09,2022-08-31_15h59.50.412,t1_Paradigm,2021.1.4,60.04272269495204,
D,left,Distractor,0,63,63,63,399.546526519076,401.549339950403,left,1,1,0.6416310844051623,G27R09,2022-08-31_15h59.50.412,t1_Paradigm,2021.1.4,60.04272269495204,
R,left,Distractor,0,0,0,0,418.744786490397,420.7458140183935,None,0,1,,G27R09,2022-08-31_15h59.50.412,t1_Paradigm,2021.1.4,60.04272269495204,
V,left,Distractor,0,1,1,1,422.246503421351,424.24739909982964,left,1,1,0.599402987947542,G27R09,2022-08-31_15h59.50.412,t1_Paradigm,2021.1.4,60.04272269495204,
N,left,Pretarget,0,2,2,2,425.7465553912334,427.74865664268145,left,1,1,0.5541429941713432,G27R09,2022-08-31_15h59.50.412,t1_Paradigm,2021.1.4,60.04272269495204,
N,right,Target,0,3,3,3,429.2466147395571,431.24653646393017,right,1,1,0.5443951122633734,G27R09,2022-08-31_15h59.50.412,t1_Paradigm,2021.1.4,60.04272269495204,
S,left,Distractor,0,4,4,4,432.7463070906815,434.7484109085417,left,1,1,0.4664171898402856,G27R09,2022-08-31_15h59.50.412,t1_Paradigm,2021.1.4,60.04272269495204,
N,left,Lure,0,5,5,5,436.246668313448,438.2483890940239,left,1,1,0.7587311007664539,G27R09,2022-08-31_15h59.50.412,t1_Paradigm,2021.1.4,60.04272269495204,
Z,left,Distractor,0,6,6,6,439.7466785791039,441.74850907387736,left,1,1,0.6822426608578098,G27R09,2022-08-31_15h59.50.412,t1_Paradigm,2021.1.4,60.04272269495204,
L,left,Pretarget,0,7,7,7,443.2462949002147,445.2491096147496,left,1,1,0.6857698760741187,G27R09,2022-08-31_15h59.50.412,t1_Paradigm,2021.1.4,60.04272269495204,
L,right,Target,0,8,8,8,446.7466343084634,448.74654961680244,right,1,1,0.4362252541559428,G27R09,2022-08-31_15h59.50.412,t1_Paradigm,2021.1.4,60.04272269495204,
H,left,Distractor,0,9,9,9,450.2465563536389,452.24791109941907,left,1,1,0.5028827245041612,G27R09,2022-08-31_15h59.50.412,t1_Paradigm,2021.1.4,60.04272269495204,
L,left,Lure,0,10,10,10,453.7464575467002,455.74902075266436,left,1,1,0.45791081069728534,G27R09,2022-08-31_15h59.50.412,t1_Paradigm,2021.1.4,60.04272269495204,
X,left,Pretarget,0,11,11,11,457.24652683987733,459.24856072295916,left,1,1,0.43037607588848914,G27R09,2022-08-31_15h59.50.412,t1_Paradigm,2021.1.4,60.04272269495204,
X,right,Target,0,12,12,12,460.74648096522833,462.7465929250375,right,1,1,0.4521610809733829,G27R09,2022-08-31_15h59.50.412,t1_Paradigm,2021.1.4,60.04272269495204,
X,right,Target,0,13,13,13,464.2465229902573,466.24647519079736,right,1,1,0.42441557941674546,G27R09,2022-08-31_15h59.50.412,t1_Paradigm,2021.1.4,60.04272269495204,
R,left,Distractor,0,14,14,14,467.74653742633564,469.7483040815605,left,1,1,0.6504463956316613,G27R09,2022-08-31_15h59.50.412,t1_Paradigm,2021.1.4,60.04272269495204,
T,left,Distractor,0,15,15,15,471.2464395818024,473.2481885929319,left,1,1,0.5105874200799008,G27R09,2022-08-31_15h59.50.412,t1_Paradigm,2021.1.4,60.04272269495204,
V,left,Pretarget,0,16,16,16,474.7465326143101,476.74809331481265,left,1,1,0.45066903204497066,G27R09,2022-08-31_15h59.50.412,t1_Paradigm,2021.1.4,60.04272269495204,
V,right,Target,0,17,17,17,478.2464091056372,480.24664842374114,right,1,1,0.5681267423551617,G27R09,2022-08-31_15h59.50.412,t1_Paradigm,2021.1.4,60.04272269495204,
N,left,Distractor,0,18,18,18,481.746509837385,483.7478918513152,left,1,1,0.5069912324870529,G27R09,2022-08-31_15h59.50.412,t1_Paradigm,2021.1.4,60.04272269495204,
B,left,Distractor,0,19,19,19,485.24648256923683,487.2481584375673,left,1,1,0.49475617463212984,G27R09,2022-08-31_15h59.50.412,t1_Paradigm,2021.1.4,60.04272269495204,
V,left,Lure,0,20,20,20,488.74614925622154,490.74826879336797,left,1,1,0.5469307292787562,G27R09,2022-08-31_15h59.50.412,t1_Paradigm,2021.1.4,60.04272269495204,
P,left,Distractor,0,21,21,21,492.24646492513966,494.24857323422657,left,1,1,0.7102393501827464,G27R09,2022-08-31_15h59.50.412,t1_Paradigm,2021.1.4,60.04272269495204,
K,left,Pretarget,0,22,22,22,495.7462961834208,497.7478806232539,left,1,1,0.554902652709643,G27R09,2022-08-31_15h59.50.412,t1_Paradigm,2021.1.4,60.04272269495204,
K,right,Target,0,23,23,23,499.2465018173407,501.24647390758946,left,0,1,0.5763889913669118,G27R09,2022-08-31_15h59.50.412,t1_Paradigm,2021.1.4,60.04272269495204,
J,left,Pretarget,0,24,24,24,502.7464363737854,504.74831595122487,left,1,1,0.5785749344759097,G27R09,2022-08-31_15h59.50.412,t1_Paradigm,2021.1.4,60.04272269495204,
J,right,Target,0,25,25,25,506.24657431853666,508.2464774364089,right,1,1,0.4882570520239824,G27R09,2022-08-31_15h59.50.412,t1_Paradigm,2021.1.4,60.04272269495204,
H,left,Distractor,0,26,26,26,509.7464543386832,511.74840385090465,left,1,1,0.538440390224423,G27R09,2022-08-31_15h59.50.412,t1_Paradigm,2021.1.4,60.04272269495204,
J,left,Lure,0,27,27,27,513.2464748699949,515.2472794407786,left,1,1,0.44782352054244257,G27R09,2022-08-31_15h59.50.412,t1_Paradigm,2021.1.4,60.04272269495204,
V,left,Distractor,0,28,28,28,516.7464700579676,518.7485591189488,left,1,1,0.4983539662334806,G27R09,2022-08-31_15h59.50.412,t1_Paradigm,2021.1.4,60.04272269495204,
Z,left,Pretarget,0,29,29,29,520.2463892159285,522.2484721816763,left,1,1,0.5342603434510238,G27R09,2022-08-31_15h59.50.412,t1_Paradigm,2021.1.4,60.04272269495204,
Z,right,Target,0,30,30,30,523.7463860079097,525.7463648349949,right,1,1,0.3805815494088165,G27R09,2022-08-31_15h59.50.412,t1_Paradigm,2021.1.4,60.04272269495204,
T,left,Distractor,0,31,31,31,527.2463645141943,529.248299911138,left,1,1,0.4466198723839625,G27R09,2022-08-31_15h59.50.412,t1_Paradigm,2021.1.4,60.04272269495204,
Z,left,Lure,0,32,32,32,530.7465367847326,532.7484420263117,left,1,1,0.5785306638354086,G27R09,2022-08-31_15h59.50.412,t1_Paradigm,2021.1.4,60.04272269495204,
F,left,Distractor,0,33,33,33,534.2463632309864,536.2481385478586,left,1,1,0.6148056422625814,G27R09,2022-08-31_15h59.50.412,t1_Paradigm,2021.1.4,60.04272269495204,
Y,left,Pretarget,0,34,34,34,537.7464588299081,539.7485876703049,left,1,1,0.5062505012519978,G27R09,2022-08-31_15h59.50.412,t1_Paradigm,2021.1.4,60.04272269495204,
Y,right,Target,0,35,35,35,541.2464232209131,543.2463625893834,right,1,1,0.49653213310739375,G27R09,2022-08-31_15h59.50.412,t1_Paradigm,2021.1.4,60.04272269495204,
Y,right,Target,0,36,36,36,544.746463962736,546.7465679025008,right,1,1,0.436138958484662,G27R09,2022-08-31_15h59.50.412,t1_Paradigm,2021.1.4,60.04272269495204,
W,left,Distractor,0,37,37,37,548.2463895367291,550.2482970239216,left,1,1,0.5184294188020431,G27R09,2022-08-31_15h59.50.412,t1_Paradigm,2021.1.4,60.04272269495204,
Q,left,Distractor,0,38,38,38,551.7464601131142,553.7483563722453,left,1,1,0.7467382482300309,G27R09,2022-08-31_15h59.50.412,t1_Paradigm,2021.1.4,60.04272269495204,
P,left,Pretarget,0,39,39,39,555.2461078727956,557.248534738017,left,1,1,0.47824932070216164,G27R09,2022-08-31_15h59.50.412,t1_Paradigm,2021.1.4,60.04272269495204,
P,right,Target,0,40,40,40,558.7463674014089,560.7463067698791,right,1,1,0.4363234194897814,G27R09,2022-08-31_15h59.50.412,t1_Paradigm,2021.1.4,60.04272269495204,
J,left,Distractor,0,41,41,41,562.2461316121244,564.248391018833,left,1,1,0.5662429944914038,G27R09,2022-08-31_15h59.50.412,t1_Paradigm,2021.1.4,60.04272269495204,
P,left,Lure,0,42,42,42,565.746436694586,567.7482068786303,left,1,1,0.4745886519594933,G27R09,2022-08-31_15h59.50.412,t1_Paradigm,2021.1.4,60.04272269495204,
L,left,Distractor,0,43,43,43,569.2464174464822,571.2485636101737,left,1,1,0.6225321523543244,G27R09,2022-08-31_15h59.50.412,t1_Paradigm,2021.1.4,60.04272269495204,
Z,left,Distractor,0,44,44,44,572.746429636949,574.7485790086575,left,1,1,0.43411694506903586,G27R09,2022-08-31_15h59.50.412,t1_Paradigm,2021.1.4,60.04272269495204,
F,left,Pretarget,0,45,45,45,576.2463625893834,578.2480243424361,left,1,1,0.4227881521492236,G27R09,2022-08-31_15h59.50.412,t1_Paradigm,2021.1.4,60.04272269495204,
F,right,Target,0,46,46,46,579.7465175366269,581.7464168048791,right,1,1,0.42821964654103795,G27R09,2022-08-31_15h59.50.412,t1_Paradigm,2021.1.4,60.04272269495204,
G,left,Pretarget,0,47,47,47,583.2463468700971,585.248616863264,left,1,1,0.462232972646234,G27R09,2022-08-31_15h59.50.412,t1_Paradigm,2021.1.4,60.04272269495204,
G,right,Target,0,48,48,48,586.7463917823425,588.7462576872113,right,1,1,0.48438497492861643,G27R09,2022-08-31_15h59.50.412,t1_Paradigm,2021.1.4,60.04272269495204,
V,left,Distractor,0,49,49,49,590.2465278022828,592.2483666379012,left,1,1,0.4543319463991793,G27R09,2022-08-31_15h59.50.412,t1_Paradigm,2021.1.4,60.04272269495204,
G,left,Lure,0,50,50,50,593.7463949903595,595.7485911991243,left,1,1,0.5381741247729224,G27R09,2022-08-31_15h59.50.412,t1_Paradigm,2021.1.4,60.04272269495204,
Q,left,Pretarget,0,51,51,51,597.2463930655485,599.2482646229455,left,1,1,0.5263923597849498,G27R09,2022-08-31_15h59.50.412,t1_Paradigm,2021.1.4,60.04272269495204,
Q,right,Target,0,52,52,52,600.7463795918757,602.7464630003306,right,1,1,0.5484032093008864,G27R09,2022-08-31_15h59.50.412,t1_Paradigm,2021.1.4,60.04272269495204,
Y,left,Distractor,0,53,53,53,604.2463921031431,606.248000923908,left,1,1,0.9826783096323197,G27R09,2022-08-31_15h59.50.412,t1_Paradigm,2021.1.4,60.04272269495204,
V,left,Distractor,0,54,54,54,607.7462907297922,609.7485520613118,left,1,1,0.6982808234333788,G27R09,2022-08-31_15h59.50.412,t1_Paradigm,2021.1.4,60.04272269495204,
B,left,Distractor,0,55,55,55,611.2462881633783,613.2485976151602,left,1,1,0.6061606767634657,G27R09,2022-08-31_15h59.50.412,t1_Paradigm,2021.1.4,60.04272269495204,
J,left,Pretarget,0,56,56,56,614.7463786294702,616.7485703470102,left,1,1,0.6421049085874984,G27R09,2022-08-31_15h59.50.412,t1_Paradigm,2021.1.4,60.04272269495204,
J,right,Target,0,57,57,57,618.2461174968485,620.2462897673868,left,0,1,0.5843618772032642,G27R09,2022-08-31_15h59.50.412,t1_Paradigm,2021.1.4,60.04272269495204,
H,left,Distractor,0,58,58,58,621.7462868801704,623.7485796502624,left,1,1,0.8421819010072795,G27R09,2022-08-31_15h59.50.412,t1_Paradigm,2021.1.4,60.04272269495204,
J,left,Lure,0,59,59,59,625.246353927736,627.248145284695,left,1,1,0.558686509324616,G27R09,2022-08-31_15h59.50.412,t1_Paradigm,2021.1.4,60.04272269495204,
D,left,Pretarget,0,60,60,60,628.7463844039012,630.7478527135008,left,1,1,0.6113117904278624,G27R09,2022-08-31_15h59.50.412,t1_Paradigm,2021.1.4,60.04272269495204,
D,right,Target,0,61,61,61,632.2463741382453,634.2462612160307,right,1,1,0.4244726821270888,G27R09,2022-08-31_15h59.50.412,t1_Paradigm,2021.1.4,60.04272269495204,
R,left,Distractor,0,62,62,62,635.746348794908,637.7457078330153,left,1,1,0.47722660473118594,G27R09,2022-08-31_15h59.50.412,t1_Paradigm,2021.1.4,60.04272269495204,
F,left,Distractor,0,63,63,63,639.2463885743255,641.2480817659489,left,1,1,0.47872795691000647,G27R09,2022-08-31_15h59.50.412,t1_Paradigm,2021.1.4,60.04272269495204,
F,left,Distractor,0,0,0,0,743.1109986879201,745.1127942153016,None,0,2,,G27R09,2022-08-31_15h59.50.412,t1_Paradigm,2021.1.4,60.04272269495204,
N,left,Pretarget,0,1,1,1,746.6129177239745,748.6151691106406,left,1,2,1.0314565361750283,G27R09,2022-08-31_15h59.50.412,t1_Paradigm,2021.1.4,60.04272269495204,
V,left,Distractor,0,2,2,2,750.1128558092387,752.1149172812693,left,1,2,0.571711381084242,G27R09,2022-08-31_15h59.50.412,t1_Paradigm,2021.1.4,60.04272269495204,
N,right,Target,0,3,3,3,753.6128894934209,755.6145826850461,right,1,2,0.7199365454143845,G27R09,2022-08-31_15h59.50.412,t1_Paradigm,2021.1.4,60.04272269495204,
N,left,Lure,0,4,4,4,757.1126989371842,759.1128243706662,left,1,2,1.1418033549452957,G27R09,2022-08-31_15h59.50.412,t1_Paradigm,2021.1.4,60.04272269495204,
X,left,Distractor,0,5,5,5,760.6128878894124,762.6138413122062,right,0,2,1.0810694888659782,G27R09,2022-08-31_15h59.50.412,t1_Paradigm,2021.1.4,60.04272269495204,
G,left,Pretarget,0,6,6,6,764.1128506764107,766.1152663135708,left,1,2,0.555388667358784,G27R09,2022-08-31_15h59.50.412,t1_Paradigm,2021.1.4,60.04272269495204,
H,left,Pretarget,0,7,7,7,767.6128943054482,769.6119598099558,left,1,2,0.5946971471094002,G27R09,2022-08-31_15h59.50.412,t1_Paradigm,2021.1.4,60.04272269495204,
G,right,Target,0,8,8,8,771.1128914182318,773.1150927598246,left,0,2,0.8034527892104961,G27R09,2022-08-31_15h59.50.412,t1_Paradigm,2021.1.4,60.04272269495204,
H,right,Target,0,9,9,9,774.612830145099,776.6148149455112,left,0,2,0.9197123049925722,G27R09,2022-08-31_15h59.50.412,t1_Paradigm,2021.1.4,60.04272269495204,
T,left,Pretarget,0,10,10,10,778.1127833080427,780.1142452016065,left,1,2,0.8762147960187576,G27R09,2022-08-31_15h59.50.412,t1_Paradigm,2021.1.4,60.04272269495204,
K,left,Distractor,0,11,11,11,781.6129770722982,783.6148929003357,left,1,2,0.8316544708541187,G27R09,2022-08-31_15h59.50.412,t1_Paradigm,2021.1.4,60.04272269495204,
T,right,Target,0,12,12,12,785.1127958193101,787.1150658124789,right,1,2,0.8514213121452485,G27R09,2022-08-31_15h59.50.412,t1_Paradigm,2021.1.4,60.04272269495204,
T,left,Lure,0,13,13,13,788.6128067265709,790.6128064057702,left,1,2,0.6661095409654081,G27R09,2022-08-31_15h59.50.412,t1_Paradigm,2021.1.4,60.04272269495204,
J,left,Distractor,0,14,14,14,792.1128121801994,794.1150411107446,left,1,2,0.5875599498285737,G27R09,2022-08-31_15h59.50.412,t1_Paradigm,2021.1.4,60.04272269495204,
Q,left,Pretarget,0,15,15,15,795.6127768920087,797.6143767303256,left,1,2,0.8963229703658726,G27R09,2022-08-31_15h59.50.412,t1_Paradigm,2021.1.4,60.04272269495204,
M,left,Distractor,0,16,16,16,799.1128009521381,801.1143507453817,left,1,2,0.692330592613871,G27R09,2022-08-31_15h59.50.412,t1_Paradigm,2021.1.4,60.04272269495204,
Q,right,Target,0,17,17,17,802.6127919696919,804.6143337428912,right,1,2,0.6644882089349267,G27R09,2022-08-31_15h59.50.412,t1_Paradigm,2021.1.4,60.04272269495204,
R,left,Distractor,0,18,18,18,806.1129228568025,808.1149362085707,left,1,2,0.699544782321027,G27R09,2022-08-31_15h59.50.412,t1_Paradigm,2021.1.4,60.04272269495204,
W,left,Distractor,0,19,19,19,809.612878586162,811.6147572011978,left,1,2,1.3919148335517093,G27R09,2022-08-31_15h59.50.412,t1_Paradigm,2021.1.4,60.04272269495204,
C,left,Pretarget,0,20,20,20,813.1128660748946,815.1152120980769,left,1,2,0.5794834450243798,G27R09,2022-08-31_15h59.50.412,t1_Paradigm,2021.1.4,60.04272269495204,
T,left,Distractor,0,21,21,21,816.612865754094,818.614662885484,left,1,2,0.47196128564246465,G27R09,2022-08-31_15h59.50.412,t1_Paradigm,2021.1.4,60.04272269495204,
C,right,Target,0,22,22,22,820.1127836288433,822.1150686996953,left,0,2,0.8115783766770619,G27R09,2022-08-31_15h59.50.412,t1_Paradigm,2021.1.4,60.04272269495204,
F,left,Pretarget,0,23,23,23,823.6126164911329,825.6142705449456,left,1,2,0.6563241252515581,G27R09,2022-08-31_15h59.50.412,t1_Paradigm,2021.1.4,60.04272269495204,
C,right,Target,0,24,24,24,827.1127435286253,829.1149249805094,right,1,2,0.48354800316883484,G27R09,2022-08-31_15h59.50.412,t1_Paradigm,2021.1.4,60.04272269495204,
F,right,Target,0,25,25,25,830.6127476990478,832.6144578931671,right,1,2,0.744486861563928,G27R09,2022-08-31_15h59.50.412,t1_Paradigm,2021.1.4,60.04272269495204,
H,left,Distractor,0,26,26,26,834.1128230874601,836.1146038579609,left,1,2,0.47594211453179014,G27R09,2022-08-31_15h59.50.412,t1_Paradigm,2021.1.4,60.04272269495204,
H,left,Lure,0,27,27,27,837.6128330323154,839.6128198794431,left,1,2,0.9616147876768082,G27R09,2022-08-31_15h59.50.412,t1_Paradigm,2021.1.4,60.04272269495204,
P,left,Distractor,0,28,28,28,841.1127589271091,843.1149586646934,left,1,2,0.5798741815560788,G27R09,2022-08-31_15h59.50.412,t1_Paradigm,2021.1.4,60.04272269495204,
G,left,Pretarget,0,29,29,29,844.6127592479133,846.6148909755248,left,1,2,0.7440464007631817,G27R09,2022-08-31_15h59.50.412,t1_Paradigm,2021.1.4,60.04272269495204,
K,left,Distractor,0,30,30,30,848.1127711175759,850.115134464053,left,1,2,0.539447707709769,G27R09,2022-08-31_15h59.50.412,t1_Paradigm,2021.1.4,60.04272269495204,
G,right,Target,0,31,31,31,851.6127845912488,853.6146773215623,right,1,2,0.49597297565924237,G27R09,2022-08-31_15h59.50.412,t1_Paradigm,2021.1.4,60.04272269495204,
M,left,Pretarget,0,32,32,32,855.1127586063085,857.1147536723765,left,1,2,0.771535260922974,G27R09,2022-08-31_15h59.50.412,t1_Paradigm,2021.1.4,60.04272269495204,
B,left,Distractor,0,33,33,33,858.6127313381585,860.614965080731,left,1,2,0.6957028605902451,G27R09,2022-08-31_15h59.50.412,t1_Paradigm,2021.1.4,60.04272269495204,
M,right,Target,0,34,34,34,862.112759568714,864.1150209002335,right,1,2,0.3956460786794196,G27R09,2022-08-31_15h59.50.412,t1_Paradigm,2021.1.4,60.04272269495204,
M,left,Lure,0,35,35,35,865.6118051835147,867.6127136940631,left,1,2,0.7697285054819076,G27R09,2022-08-31_15h59.50.412,t1_Paradigm,2021.1.4,60.04272269495204,
T,left,Distractor,0,36,36,36,869.1127156188741,871.1148451008739,left,1,2,0.6756190671731019,G27R09,2022-08-31_15h59.50.412,t1_Paradigm,2021.1.4,60.04272269495204,
F,left,Distractor,0,37,37,37,872.6127435286253,874.6140065251057,left,1,2,0.696603992699238,G27R09,2022-08-31_15h59.50.412,t1_Paradigm,2021.1.4,60.04272269495204,
X,left,Distractor,0,38,38,38,876.1127194684959,878.1143462541586,left,1,2,0.4600621072204376,G27R09,2022-08-31_15h59.50.412,t1_Paradigm,2021.1.4,60.04272269495204,
C,left,Distractor,0,39,39,39,879.6126944459575,881.6145701737769,left,1,2,0.5759350568951049,G27R09,2022-08-31_15h59.50.412,t1_Paradigm,2021.1.4,60.04272269495204,
R,left,Distractor,0,40,40,40,883.112604942271,885.1148662737905,left,1,2,0.8675101613953302,G27R09,2022-08-31_15h59.50.412,t1_Paradigm,2021.1.4,60.04272269495204,
B,left,Pretarget,0,41,41,41,886.6125212130137,888.6144511563289,left,1,2,0.6319804054292035,G27R09,2022-08-31_15h59.50.412,t1_Paradigm,2021.1.4,60.04272269495204,
H,left,Distractor,0,42,42,42,890.1127733631874,892.1149490406424,left,1,2,0.5236142166504578,G27R09,2022-08-31_15h59.50.412,t1_Paradigm,2021.1.4,60.04272269495204,
B,right,Target,0,43,43,43,893.6127736839917,895.6128724909286,right,1,2,0.40156294611733756,G27R09,2022-08-31_15h59.50.412,t1_Paradigm,2021.1.4,60.04272269495204,
W,left,Pretarget,0,44,44,44,897.1127679095589,899.1146571110512,left,1,2,0.4997677395331266,G27R09,2022-08-31_15h59.50.412,t1_Paradigm,2021.1.4,60.04272269495204,
L,left,Pretarget,0,45,45,45,900.6127781752148,902.6149249805094,left,1,2,0.6636736932923668,G27R09,2022-08-31_15h59.50.412,t1_Paradigm,2021.1.4,60.04272269495204,
W,right,Target,0,46,46,46,904.1126065462813,906.1152467446627,right,1,2,1.003292388337286,G27R09,2022-08-31_15h59.50.412,t1_Paradigm,2021.1.4,60.04272269495204,
L,right,Target,0,47,47,47,907.6125465563528,909.6145031262131,right,1,2,0.4319464004438487,G27R09,2022-08-31_15h59.50.412,t1_Paradigm,2021.1.4,60.04272269495204,
W,right,Target,0,48,48,48,911.1126610825777,913.1138656931398,left,0,2,0.4205293870436435,G27R09,2022-08-31_15h59.50.412,t1_Paradigm,2021.1.4,60.04272269495204,
X,left,Distractor,0,49,49,49,914.6126652530002,916.6152977521415,left,1,2,0.4712346696833265,G27R09,2022-08-31_15h59.50.412,t1_Paradigm,2021.1.4,60.04272269495204,
R,left,Distractor,0,50,50,50,918.1126745562506,920.1147171009798,left,1,2,0.6677003968288773,G27R09,2022-08-31_15h59.50.412,t1_Paradigm,2021.1.4,60.04272269495204,
V,left,Pretarget,0,51,51,51,921.6126591577668,923.6147453315316,left,1,2,0.7836593213760352,G27R09,2022-08-31_15h59.50.412,t1_Paradigm,2021.1.4,60.04272269495204,
Z,left,Distractor,0,52,52,52,925.1126537041382,927.1138140440598,left,1,2,0.4846063281329407,G27R09,2022-08-31_15h59.50.412,t1_Paradigm,2021.1.4,60.04272269495204,
V,right,Target,0,53,53,53,928.6124936240631,930.6149676471432,right,1,2,0.967496046119777,G27R09,2022-08-31_15h59.50.412,t1_Paradigm,2021.1.4,60.04272269495204,
V,left,Lure,0,54,54,54,932.1126347768331,934.1127284509457,left,1,2,0.5896765997604234,G27R09,2022-08-31_15h59.50.412,t1_Paradigm,2021.1.4,60.04272269495204,
N,left,Distractor,0,55,55,55,935.612672310639,937.6146057827718,left,1,2,0.8799887077766471,G27R09,2022-08-31_15h59.50.412,t1_Paradigm,2021.1.4,60.04272269495204,
B,left,Distractor,0,56,56,56,939.112508060145,941.1147203089968,left,1,2,0.4677061712645809,G27R09,2022-08-31_15h59.50.412,t1_Paradigm,2021.1.4,60.04272269495204,
V,left,Lure,0,57,57,57,942.6126508169218,944.6148916171296,left,1,2,1.0956711012149754,G27R09,2022-08-31_15h59.50.412,t1_Paradigm,2021.1.4,60.04272269495204,
J,left,Distractor,0,58,58,58,946.1125946766151,948.1148864843017,left,1,2,0.4594285237690201,G27R09,2022-08-31_15h59.50.412,t1_Paradigm,2021.1.4,60.04272269495204,
H,left,Distractor,0,59,59,59,949.6126360600392,951.6128455435828,left,1,2,0.5936988120702154,G27R09,2022-08-31_15h59.50.412,t1_Paradigm,2021.1.4,60.04272269495204,
X,left,Pretarget,0,60,60,60,953.1125751077088,955.1143510661859,left,1,2,0.6121471581791411,G27R09,2022-08-31_15h59.50.412,t1_Paradigm,2021.1.4,60.04272269495204,
P,left,Distractor,0,61,61,61,956.6126854635113,958.6142262743051,left,1,2,0.7283046590055164,G27R09,2022-08-31_15h59.50.412,t1_Paradigm,2021.1.4,60.04272269495204,
X,right,Target,0,62,62,62,960.1126174535384,962.1147725996816,right,1,2,0.47552988429015386,G27R09,2022-08-31_15h59.50.412,t1_Paradigm,2021.1.4,60.04272269495204,
Q,left,Distractor,0,63,63,63,963.6127201100971,965.6148961083527,left,1,2,0.46372149275703123,G27R09,2022-08-31_15h59.50.412,t1_Paradigm,2021.1.4,60.04272269495204,
B,left,Pretarget,0,0,0,0,975.3274503639477,977.3314023206804,None,0,2,,G27R09,2022-08-31_15h59.50.412,t1_Paradigm,2021.1.4,60.04272269495204,
F,left,Distractor,0,1,1,1,978.8293629839682,980.8315912729086,left,1,2,0.5908879471571709,G27R09,2022-08-31_15h59.50.412,t1_Paradigm,2021.1.4,60.04272269495204,
B,right,Target,0,2,2,2,982.3293081268712,984.3316031425747,left,0,2,0.5308556745003443,G27R09,2022-08-31_15h59.50.412,t1_Paradigm,2021.1.4,60.04272269495204,
V,left,Distractor,0,3,3,3,985.8292795755151,987.8312701503601,left,1,2,0.4551750133941823,G27R09,2022-08-31_15h59.50.412,t1_Paradigm,2021.1.4,60.04272269495204,
G,left,Pretarget,0,4,4,4,989.3293485478898,991.3309124564112,left,1,2,0.6833959431423864,G27R09,2022-08-31_15h59.50.412,t1_Paradigm,2021.1.4,60.04272269495204,
B,left,Lure,0,5,5,5,992.8292766882987,994.8309118148063,left,1,2,0.5594580375254736,G27R09,2022-08-31_15h59.50.412,t1_Paradigm,2021.1.4,60.04272269495204,
G,right,Target,0,6,6,6,996.329329941389,998.331291323273,right,1,2,0.5632200796208053,G27R09,2022-08-31_15h59.50.412,t1_Paradigm,2021.1.4,60.04272269495204,
Y,left,Pretarget,0,7,7,7,999.8293039564487,1001.8315110724725,left,1,2,0.9508473978130496,G27R09,2022-08-31_15h59.50.412,t1_Paradigm,2021.1.4,60.04272269495204,
P,left,Distractor,0,8,8,8,1003.3293562471335,1005.3308896794879,None,0,2,,G27R09,2022-08-31_15h59.50.412,t1_Paradigm,2021.1.4,60.04272269495204,
Y,right,Target,0,9,9,9,1006.8294316355423,1008.8307526971403,right,1,2,0.7996118298833608,G27R09,2022-08-31_15h59.50.412,t1_Paradigm,2021.1.4,60.04272269495204,
X,left,Distractor,0,10,10,10,1010.329257440193,1012.3283537416719,left,1,2,0.6619532335207623,G27R09,2022-08-31_15h59.50.412,t1_Paradigm,2021.1.4,60.04272269495204,
Y,right,Target,0,11,11,11,1013.8284204684351,1015.8302580208438,right,1,2,0.7601237011549529,G27R09,2022-08-31_15h59.50.412,t1_Paradigm,2021.1.4,60.04272269495204,
N,left,Distractor,0,12,12,12,1017.3291628036786,1019.3314873331437,left,1,2,0.6028005992593535,G27R09,2022-08-31_15h59.50.412,t1_Paradigm,2021.1.4,60.04272269495204,
Y,right,Target,0,13,13,13,1020.8292920867825,1022.8314748218727,left,0,2,0.942927123465779,G27R09,2022-08-31_15h59.50.412,t1_Paradigm,2021.1.4,60.04272269495204,
Y,left,Lure,0,14,14,14,1024.3291830141898,1026.3292009790857,right,0,2,0.8051087678322801,G27R09,2022-08-31_15h59.50.412,t1_Paradigm,2021.1.4,60.04272269495204,
K,left,Distractor,0,15,15,15,1027.8292622522204,1029.8283081878217,left,1,2,0.6822028814422083,G27R09,2022-08-31_15h59.50.412,t1_Paradigm,2021.1.4,60.04272269495204,
T,left,Pretarget,0,16,16,16,1031.3292728386768,1033.3308883962782,None,0,2,,G27R09,2022-08-31_15h59.50.412,t1_Paradigm,2021.1.4,60.04272269495204,
J,left,Distractor,0,17,17,17,1034.829234021665,1036.8308746018047,left,1,2,0.3834334769489942,G27R09,2022-08-31_15h59.50.412,t1_Paradigm,2021.1.4,60.04272269495204,
T,right,Target,0,18,18,18,1038.3292179815799,1040.3310844061489,left,0,2,0.8672063621415873,G27R09,2022-08-31_15h59.50.412,t1_Paradigm,2021.1.4,60.04272269495204,
S,left,Pretarget,0,19,19,19,1041.829254232176,1043.8311177695286,left,1,2,0.6151928499712085,G27R09,2022-08-31_15h59.50.412,t1_Paradigm,2021.1.4,60.04272269495204,
R,left,Distractor,0,20,20,20,1045.3292985028165,1047.3310529675764,left,1,2,0.5396581536588201,G27R09,2022-08-31_15h59.50.412,t1_Paradigm,2021.1.4,60.04272269495204,
S,right,Target,0,21,21,21,1048.8289555657502,1050.8316955334776,right,1,2,0.43087363940139767,G27R09,2022-08-31_15h59.50.412,t1_Paradigm,2021.1.4,60.04272269495204,
Q,left,Distractor,0,22,22,22,1052.3293007484317,1054.331482841917,left,1,2,0.5789647085985052,G27R09,2022-08-31_15h59.50.412,t1_Paradigm,2021.1.4,60.04272269495204,
D,left,Distractor,0,23,23,23,1055.8292086783295,1057.8312242757092,left,1,2,1.0636531619820744,G27R09,2022-08-31_15h59.50.412,t1_Paradigm,2021.1.4,60.04272269495204,
F,left,Distractor,0,24,24,24,1059.329220547992,1061.3309923360466,left,1,2,0.6833054770468152,G27R09,2022-08-31_15h59.50.412,t1_Paradigm,2021.1.4,60.04272269495204,
Z,left,Distractor,0,25,25,25,1062.8294771893925,1064.8315691375865,right,0,2,0.7028467947093304,G27R09,2022-08-31_15h59.50.412,t1_Paradigm,2021.1.4,60.04272269495204,
P,left,Distractor,0,26,26,26,1066.329051806275,1068.3314337592492,left,1,2,0.7549379409028916,G27R09,2022-08-31_15h59.50.412,t1_Paradigm,2021.1.4,60.04272269495204,
H,left,Distractor,0,27,27,27,1069.8292263224248,1071.8283948042954,left,1,2,1.1140418132999912,G27R09,2022-08-31_15h59.50.412,t1_Paradigm,2021.1.4,60.04272269495204,
Z,left,Pretarget,0,28,28,28,1073.3292661018422,1075.3311517745133,left,1,2,0.5391535325106815,G27R09,2022-08-31_15h59.50.412,t1_Paradigm,2021.1.4,60.04272269495204,
J,left,Pretarget,0,29,29,29,1076.8291968086633,1078.8282879773142,left,1,2,0.6741000708971114,G27R09,2022-08-31_15h59.50.412,t1_Paradigm,2021.1.4,60.04272269495204,
Z,right,Target,0,30,30,30,1080.329143555573,1082.3313227618455,right,1,2,0.4189427015990077,G27R09,2022-08-31_15h59.50.412,t1_Paradigm,2021.1.4,60.04272269495204,
J,right,Target,0,31,31,31,1083.8292940115934,1085.8305207574776,left,0,2,0.8878220448532375,G27R09,2022-08-31_15h59.50.412,t1_Paradigm,2021.1.4,60.04272269495204,
V,left,Pretarget,0,32,32,32,1087.329097039321,1089.3312422406088,left,1,2,1.06701227708254,G27R09,2022-08-31_15h59.50.412,t1_Paradigm,2021.1.4,60.04272269495204,
Z,left,Lure,0,33,33,33,1090.8291807685782,1092.831253147866,left,1,2,0.9429524668048543,G27R09,2022-08-31_15h59.50.412,t1_Paradigm,2021.1.4,60.04272269495204,
V,right,Target,0,34,34,34,1094.3291730693345,1096.3311514537127,right,1,2,0.6112235699474695,G27R09,2022-08-31_15h59.50.412,t1_Paradigm,2021.1.4,60.04272269495204,
X,left,Distractor,0,35,35,35,1097.82923626728,1099.831268867154,left,1,2,0.8231015754572581,G27R09,2022-08-31_15h59.50.412,t1_Paradigm,2021.1.4,60.04272269495204,
S,left,Distractor,0,36,36,36,1101.32925294897,1103.3312204260874,left,1,2,0.7474023078502796,G27R09,2022-08-31_15h59.50.412,t1_Paradigm,2021.1.4,60.04272269495204,
Q,left,Distractor,0,37,37,37,1104.829098322527,1106.83132179944,left,1,2,0.8790984829283843,G27R09,2022-08-31_15h59.50.412,t1_Paradigm,2021.1.4,60.04272269495204,
P,left,Distractor,0,38,38,38,1108.3291595956616,1110.3306144315866,left,1,2,0.7716773760985234,G27R09,2022-08-31_15h59.50.412,t1_Paradigm,2021.1.4,60.04272269495204,
S,left,Lure,0,39,39,39,1111.8292048287076,1113.831014471365,left,1,2,0.5032474760919285,G27R09,2022-08-31_15h59.50.412,t1_Paradigm,2021.1.4,60.04272269495204,
K,left,Pretarget,0,40,40,40,1115.329165690895,1117.3311100702886,left,1,2,0.4430657098200754,G27R09,2022-08-31_15h59.50.412,t1_Paradigm,2021.1.4,60.04272269495204,
L,left,Distractor,0,41,41,41,1118.8291871846122,1120.8312409573991,left,1,2,0.4311116742937884,G27R09,2022-08-31_15h59.50.412,t1_Paradigm,2021.1.4,60.04272269495204,
K,right,Target,0,42,42,42,1122.3289209191607,1124.3311838546906,left,0,2,0.5150269954647229,G27R09,2022-08-31_15h59.50.412,t1_Paradigm,2021.1.4,60.04272269495204,
B,left,Distractor,0,43,43,43,1125.8291474051948,1127.8282902229257,left,1,2,1.114085442335636,G27R09,2022-08-31_15h59.50.412,t1_Paradigm,2021.1.4,60.04272269495204,
N,left,Distractor,0,44,44,44,1129.3291794853685,1131.331189949924,left,1,2,0.5396841385991138,G27R09,2022-08-31_15h59.50.412,t1_Paradigm,2021.1.4,60.04272269495204,
S,left,Pretarget,0,45,45,45,1132.8291201370448,1134.8310597044147,left,1,2,0.5592427795563708,G27R09,2022-08-31_15h59.50.412,t1_Paradigm,2021.1.4,60.04272269495204,
Z,left,Distractor,0,46,46,46,1136.3291368187383,1138.330816536687,left,1,2,0.5315081852568255,G27R09,2022-08-31_15h59.50.412,t1_Paradigm,2021.1.4,60.04272269495204,
S,right,Target,0,47,47,47,1139.8291560668404,1141.831402641481,right,1,2,0.7109550588829734,G27R09,2022-08-31_15h59.50.412,t1_Paradigm,2021.1.4,60.04272269495204,
C,left,Distractor,0,48,48,48,1143.3291628036786,1145.331238390987,left,1,2,0.7952126755189965,G27R09,2022-08-31_15h59.50.412,t1_Paradigm,2021.1.4,60.04272269495204,
T,left,Pretarget,0,49,49,49,1146.8291984126736,1148.8281968696174,left,1,2,0.8982455352415855,G27R09,2022-08-31_15h59.50.412,t1_Paradigm,2021.1.4,60.04272269495204,
S,left,Lure,0,50,50,50,1150.32906014712,1152.3310420603157,left,1,2,0.4831739483306592,G27R09,2022-08-31_15h59.50.412,t1_Paradigm,2021.1.4,60.04272269495204,
T,right,Target,0,51,51,51,1153.8291108337944,1155.8282732204316,right,1,2,0.4260798988834722,G27R09,2022-08-31_15h59.50.412,t1_Paradigm,2021.1.4,60.04272269495204,
N,left,Pretarget,0,52,52,52,1157.3293241669562,1159.3312220300977,left,1,2,0.45894860435146256,G27R09,2022-08-31_15h59.50.412,t1_Paradigm,2021.1.4,60.04272269495204,
B,left,Distractor,0,53,53,53,1160.8291246282715,1162.8308790930278,left,1,2,0.5115203115637996,G27R09,2022-08-31_15h59.50.412,t1_Paradigm,2021.1.4,60.04272269495204,
N,right,Target,0,54,54,54,1164.3291923174402,1166.3311716642238,right,1,2,0.6272190658892214,G27R09,2022-08-31_15h59.50.412,t1_Paradigm,2021.1.4,60.04272269495204,
N,left,Lure,0,55,55,55,1167.8291749941454,1169.828980588285,left,1,2,0.7451554124054383,G27R09,2022-08-31_15h59.50.412,t1_Paradigm,2021.1.4,60.04272269495204,
X,left,Distractor,0,56,56,56,1171.3291419515663,1173.3311780802578,left,1,2,0.5708035121351713,G27R09,2022-08-31_15h59.50.412,t1_Paradigm,2021.1.4,60.04272269495204,
W,left,Distractor,0,57,57,57,1174.8290040068132,1176.8313779397467,left,1,2,0.5427734594304638,G27R09,2022-08-31_15h59.50.412,t1_Paradigm,2021.1.4,60.04272269495204,
S,left,Distractor,0,58,58,58,1178.3291958462578,1180.3311411880568,left,1,2,0.40306878951741965,G27R09,2022-08-31_15h59.50.412,t1_Paradigm,2021.1.4,60.04272269495204,
L,left,Distractor,0,59,59,59,1181.8291259114776,1183.8311533785236,left,1,2,0.519062039849814,G27R09,2022-08-31_15h59.50.412,t1_Paradigm,2021.1.4,60.04272269495204,
K,left,Pretarget,0,60,60,60,1185.3291939214469,1187.3307854189188,left,1,2,0.5074656982760644,G27R09,2022-08-31_15h59.50.412,t1_Paradigm,2021.1.4,60.04272269495204,
V,left,Pretarget,0,61,61,61,1188.8290976809221,1190.8281352756821,left,1,2,0.6901420830945426,G27R09,2022-08-31_15h59.50.412,t1_Paradigm,2021.1.4,60.04272269495204,
K,right,Target,0,62,62,62,1192.3290572599035,1194.329674161665,right,1,2,0.5646498930109374,G27R09,2022-08-31_15h59.50.412,t1_Paradigm,2021.1.4,60.04272269495204,
V,right,Target,0,63,63,63,1195.8289854003124,1197.8311764762475,right,1,2,0.7272100834379671,G27R09,2022-08-31_15h59.50.412,t1_Paradigm,2021.1.4,60.04272269495204,
R,left,Distractor,0,0,0,0,1274.9429075545595,1276.9468267895136,None,0,3,,G27R09,2022-08-31_15h59.50.412,t1_Paradigm,2021.1.4,60.04272269495204,
P,left,Lure,0,1,1,1,1278.4454803845765,1280.4477070695066,left,1,3,0.8626432780802133,G27R09,2022-08-31_15h59.50.412,t1_Paradigm,2021.1.4,60.04272269495204,
V,left,Distractor,0,2,2,2,1281.9447784703516,1283.9476980870604,left,1,3,0.7865208729635924,G27R09,2022-08-31_15h59.50.412,t1_Paradigm,2021.1.4,60.04272269495204,
P,left,Pretarget,0,3,3,3,1285.445439321953,1287.4480718210943,right,0,3,0.8860749585328449,G27R09,2022-08-31_15h59.50.412,t1_Paradigm,2021.1.4,60.04272269495204,
Z,left,Distractor,0,4,4,4,1288.9456439934693,1290.9472062979803,left,1,3,0.7472653255026671,G27R09,2022-08-31_15h59.50.412,t1_Paradigm,2021.1.4,60.04272269495204,
L,left,Pretarget,0,5,5,5,1292.4455795123176,1294.448010868764,left,1,3,0.4942435334378388,G27R09,2022-08-31_15h59.50.412,t1_Paradigm,2021.1.4,60.04272269495204,
P,right,Target,0,6,6,6,1295.9456536175203,1297.9478398814317,right,1,3,0.6585880231868941,G27R09,2022-08-31_15h59.50.412,t1_Paradigm,2021.1.4,60.04272269495204,
S,left,Distractor,0,7,7,7,1299.4456735072272,1301.4478655455714,left,1,3,0.4700348711485276,G27R09,2022-08-31_15h59.50.412,t1_Paradigm,2021.1.4,60.04272269495204,
L,right,Target,0,8,8,8,1302.945727722723,1304.9474908491284,left,0,3,0.9543595353497949,G27R09,2022-08-31_15h59.50.412,t1_Paradigm,2021.1.4,60.04272269495204,
D,left,Distractor,0,9,9,9,1306.4457055874045,1308.447642588355,left,1,3,0.44659837866856833,G27R09,2022-08-31_15h59.50.412,t1_Paradigm,2021.1.4,60.04272269495204,
G,left,Distractor,0,10,10,10,1309.9456542591251,1311.9466968648048,left,1,3,0.43542998662087484,G27R09,2022-08-31_15h59.50.412,t1_Paradigm,2021.1.4,60.04272269495204,
M,left,Pretarget,0,11,11,11,1313.4456686952035,1315.4472929144504,left,1,3,0.5027919376079808,G27R09,2022-08-31_15h59.50.412,t1_Paradigm,2021.1.4,60.04272269495204,
Y,left,Distractor,0,12,12,12,1316.9455660386448,1318.9473166537791,left,1,3,1.082785136615712,G27R09,2022-08-31_15h59.50.412,t1_Paradigm,2021.1.4,60.04272269495204,
V,left,Distractor,0,13,13,13,1320.4456927553329,1322.4478851144777,left,1,3,0.7502051527153526,G27R09,2022-08-31_15h59.50.412,t1_Paradigm,2021.1.4,60.04272269495204,
M,right,Target,0,14,14,14,1323.9456863392988,1325.947699691067,right,1,3,0.8823501294464222,G27R09,2022-08-31_15h59.50.412,t1_Paradigm,2021.1.4,60.04272269495204,
S,left,Pretarget,0,15,15,15,1327.4456006852306,1329.4477866283414,left,1,3,1.0624729323535576,G27R09,2022-08-31_15h59.50.412,t1_Paradigm,2021.1.4,60.04272269495204,
Q,left,Distractor,0,16,16,16,1330.9455410161063,1332.9478366734147,left,1,3,0.9381025859838701,G27R09,2022-08-31_15h59.50.412,t1_Paradigm,2021.1.4,60.04272269495204,
R,left,Pretarget,0,17,17,17,1334.4456751112375,1336.4477535857623,left,1,3,1.118408245885803,G27R09,2022-08-31_15h59.50.412,t1_Paradigm,2021.1.4,60.04272269495204,
S,right,Target,0,18,18,18,1337.9456966049547,1339.9646601586683,right,1,3,0.7374452631993336,G27R09,2022-08-31_15h59.50.412,t1_Paradigm,2021.1.4,60.04272269495204,
F,left,Distractor,0,19,19,19,1341.4456096676804,1343.447739149684,left,1,3,0.7422957856251742,G27R09,2022-08-31_15h59.50.412,t1_Paradigm,2021.1.4,60.04272269495204,
R,right,Target,0,20,20,20,1344.945593948396,1346.9473683028627,right,1,3,0.9385340643311793,G27R09,2022-08-31_15h59.50.412,t1_Paradigm,2021.1.4,60.04272269495204,
P,left,Distractor,0,21,21,21,1348.4456285949855,1350.447879340045,left,1,3,0.4944235032198776,G27R09,2022-08-31_15h59.50.412,t1_Paradigm,2021.1.4,60.04272269495204,
L,left,Distractor,0,22,22,22,1351.9456834520824,1353.9474170647263,left,1,3,1.154675204270461,G27R09,2022-08-31_15h59.50.412,t1_Paradigm,2021.1.4,60.04272269495204,
R,right,Target,0,23,23,23,1355.4455766251012,1357.4479810342018,right,1,3,0.886089394614828,G27R09,2022-08-31_15h59.50.412,t1_Paradigm,2021.1.4,60.04272269495204,
H,left,Pretarget,0,24,24,24,1358.9456693368047,1360.9476721021165,left,1,3,0.5704471013959846,G27R09,2022-08-31_15h59.50.412,t1_Paradigm,2021.1.4,60.04272269495204,
G,left,Pretarget,0,25,25,25,1362.4456590711488,1364.4478453350603,left,1,3,0.6383191271634132,G27R09,2022-08-31_15h59.50.412,t1_Paradigm,2021.1.4,60.04272269495204,
T,left,Distractor,0,26,26,26,1365.9455637930296,1367.9461235920826,left,1,3,0.5800894395288196,G27R09,2022-08-31_15h59.50.412,t1_Paradigm,2021.1.4,60.04272269495204,
H,right,Target,0,27,27,27,1369.4456609959598,1371.4472611550773,right,1,3,0.4227830193231057,G27R09,2022-08-31_15h59.50.412,t1_Paradigm,2021.1.4,60.04272269495204,
G,right,Target,0,28,28,28,1372.94555641459,1374.947592222481,right,1,3,0.5385594076687994,G27R09,2022-08-31_15h59.50.412,t1_Paradigm,2021.1.4,60.04272269495204,
D,left,Distractor,0,29,29,29,1376.4456680535986,1378.447483470689,left,1,3,0.47876484911103034,G27R09,2022-08-31_15h59.50.412,t1_Paradigm,2021.1.4,60.04272269495204,
N,left,Pretarget,0,30,30,30,1379.9455390912954,1381.947399420631,left,1,3,0.6747314087369887,G27R09,2022-08-31_15h59.50.412,t1_Paradigm,2021.1.4,60.04272269495204,
V,left,Distractor,0,31,31,31,1383.4454550412374,1385.4472053355748,left,1,3,1.3988319608361053,G27R09,2022-08-31_15h59.50.412,t1_Paradigm,2021.1.4,60.04272269495204,
R,left,Distractor,0,32,32,32,1386.9456154421132,1388.9479624276973,None,0,3,,G27R09,2022-08-31_15h59.50.412,t1_Paradigm,2021.1.4,60.04272269495204,
N,right,Target,0,33,33,33,1390.445643672665,1392.4470622579938,right,1,3,1.0550072340774932,G27R09,2022-08-31_15h59.50.412,t1_Paradigm,2021.1.4,60.04272269495204,
Z,left,Distractor,0,34,34,34,1393.9455795123176,1395.9470593707774,left,1,3,0.6269505548261805,G27R09,2022-08-31_15h59.50.412,t1_Paradigm,2021.1.4,60.04272269495204,
N,left,Lure,0,35,35,35,1397.44567928166,1399.4469843031693,left,1,3,0.9830510812607827,G27R09,2022-08-31_15h59.50.412,t1_Paradigm,2021.1.4,60.04272269495204,
Y,left,Pretarget,0,36,36,36,1400.9454948206549,1402.9475944680926,left,1,3,0.8586823389014171,G27R09,2022-08-31_15h59.50.412,t1_Paradigm,2021.1.4,60.04272269495204,
Y,left,Lure,0,37,37,37,1404.4454617780757,1406.445604855653,left,1,3,1.328376518595178,G27R09,2022-08-31_15h59.50.412,t1_Paradigm,2021.1.4,60.04272269495204,
B,left,Distractor,0,38,38,38,1407.9455159935715,1409.9476618364606,left,1,3,1.2343970049914788,G27R09,2022-08-31_15h59.50.412,t1_Paradigm,2021.1.4,60.04272269495204,
Y,right,Target,0,39,39,39,1411.4455471113397,1413.4582656174316,left,0,3,0.6998171430022921,G27R09,2022-08-31_15h59.50.412,t1_Paradigm,2021.1.4,60.04272269495204,
J,left,Distractor,0,40,40,40,1414.945630840597,1416.9471883330807,left,1,3,0.5868750380941492,G27R09,2022-08-31_15h59.50.412,t1_Paradigm,2021.1.4,60.04272269495204,
X,left,Distractor,0,41,41,41,1418.4455612266174,1420.4475659167401,None,0,3,,G27R09,2022-08-31_15h59.50.412,t1_Paradigm,2021.1.4,60.04272269495204,
W,left,Pretarget,0,42,42,42,1421.9455159935715,1423.947339430706,None,0,3,,G27R09,2022-08-31_15h59.50.412,t1_Paradigm,2021.1.4,60.04272269495204,
S,left,Pretarget,0,43,43,43,1425.4455050863107,1427.447844693459,left,1,3,0.5821698388608638,G27R09,2022-08-31_15h59.50.412,t1_Paradigm,2021.1.4,60.04272269495204,
R,left,Distractor,0,44,44,44,1428.945562830624,1430.9476871797997,None,0,3,,G27R09,2022-08-31_15h59.50.412,t1_Paradigm,2021.1.4,60.04272269495204,
W,right,Target,0,45,45,45,1432.4455933067911,1434.4474908491284,right,1,3,0.7984479611441202,G27R09,2022-08-31_15h59.50.412,t1_Paradigm,2021.1.4,60.04272269495204,
S,right,Target,0,46,46,46,1435.9454447755816,1437.947433104815,left,0,3,0.738681312337576,G27R09,2022-08-31_15h59.50.412,t1_Paradigm,2021.1.4,60.04272269495204,
D,left,Distractor,0,47,47,47,1439.4453767656123,1441.4476053753533,left,1,3,1.1263179337802285,G27R09,2022-08-31_15h59.50.412,t1_Paradigm,2021.1.4,60.04272269495204,
T,left,Distractor,0,48,48,48,1442.9456029308458,1444.9471299471625,left,1,3,0.4749668772201403,G27R09,2022-08-31_15h59.50.412,t1_Paradigm,2021.1.4,60.04272269495204,
S,right,Target,0,49,49,49,1446.4455525649682,1448.4465322935066,right,1,3,0.5755513780059118,G27R09,2022-08-31_15h59.50.412,t1_Paradigm,2021.1.4,60.04272269495204,
K,left,Distractor,0,50,50,50,1449.945503482304,1451.947431821609,left,1,3,0.7545901918056188,G27R09,2022-08-31_15h59.50.412,t1_Paradigm,2021.1.4,60.04272269495204,
S,left,Lure,0,51,51,51,1453.4454752517486,1455.4476454755713,left,1,3,0.42228577661444433,G27R09,2022-08-31_15h59.50.412,t1_Paradigm,2021.1.4,60.04272269495204,
T,left,Pretarget,0,52,52,52,1456.94559266519,1458.9477259968116,right,0,3,0.4261565705019166,G27R09,2022-08-31_15h59.50.412,t1_Paradigm,2021.1.4,60.04272269495204,
V,left,Distractor,0,53,53,53,1460.445471081326,1462.4476387387367,left,1,3,0.4464790404163068,G27R09,2022-08-31_15h59.50.412,t1_Paradigm,2021.1.4,60.04272269495204,
B,left,Distractor,0,54,54,54,1463.945478138965,1465.9476448339701,left,1,3,0.46636169113844517,G27R09,2022-08-31_15h59.50.412,t1_Paradigm,2021.1.4,60.04272269495204,
T,right,Target,0,55,55,55,1467.4454726853364,1469.4472107892034,left,0,3,0.5187181403780414,G27R09,2022-08-31_15h59.50.412,t1_Paradigm,2021.1.4,60.04272269495204,
Y,left,Pretarget,0,56,56,56,1470.9453985801301,1472.9475104180347,left,1,3,0.6664322675242147,G27R09,2022-08-31_15h59.50.412,t1_Paradigm,2021.1.4,60.04272269495204,
T,left,Lure,0,57,57,57,1474.4454284146923,1476.4477324128457,right,0,3,0.8305069630041544,G27R09,2022-08-31_15h59.50.412,t1_Paradigm,2021.1.4,60.04272269495204,
P,left,Pretarget,0,58,58,58,1477.9454264898814,1479.9476108289819,left,1,3,0.8183203462103847,G27R09,2022-08-31_15h59.50.412,t1_Paradigm,2021.1.4,60.04272269495204,
Y,right,Target,0,59,59,59,1481.4454576076532,1483.4477875907469,left,0,3,0.5821942197944736,G27R09,2022-08-31_15h59.50.412,t1_Paradigm,2021.1.4,60.04272269495204,
R,left,Distractor,0,60,60,60,1484.9455618682223,1486.9468919122664,left,1,3,0.9389411617521546,G27R09,2022-08-31_15h59.50.412,t1_Paradigm,2021.1.4,60.04272269495204,
P,right,Target,0,61,61,61,1488.4454059585696,1490.4472239420757,right,1,3,0.4470468595100101,G27R09,2022-08-31_15h59.50.412,t1_Paradigm,2021.1.4,60.04272269495204,
L,left,Distractor,0,62,62,62,1491.9454085249854,1493.9471546488967,left,1,3,0.8348227089154534,G27R09,2022-08-31_15h59.50.412,t1_Paradigm,2021.1.4,60.04272269495204,
V,left,Distractor,0,63,63,63,1495.4454553620417,1497.4472422277759,left,1,3,0.6310234538141231,G27R09,2022-08-31_15h59.50.412,t1_Paradigm,2021.1.4,60.04272269495204,
H,left,Lure,0,0,0,0,1508.1527292208666,1510.1478546383114,None,0,3,,G27R09,2022-08-31_15h59.50.412,t1_Paradigm,2021.1.4,60.04272269495204,
B,left,Distractor,0,1,1,1,1511.6454373971428,1513.6474356712279,left,1,3,0.4468992907095526,G27R09,2022-08-31_15h59.50.412,t1_Paradigm,2021.1.4,60.04272269495204,
T,left,Distractor,0,2,2,2,1515.1455127855515,1517.1475322325568,left,1,3,0.7064978393973433,G27R09,2022-08-31_15h59.50.412,t1_Paradigm,2021.1.4,60.04272269495204,
R,left,Distractor,0,3,3,3,1518.645439963555,1520.6477195807747,left,1,3,1.142176768178615,G27R09,2022-08-31_15h59.50.412,t1_Paradigm,2021.1.4,60.04272269495204,
H,left,Pretarget,0,4,4,4,1522.1446402047986,1524.1476698565057,left,1,3,1.2903756267660356,G27R09,2022-08-31_15h59.50.412,t1_Paradigm,2021.1.4,60.04272269495204,
K,left,Distractor,0,5,5,5,1525.6454582492552,1527.6468771553846,left,1,3,0.6071830719301943,G27R09,2022-08-31_15h59.50.412,t1_Paradigm,2021.1.4,60.04272269495204,
G,left,Distractor,0,6,6,6,1529.1454357931325,1531.1477186183693,left,1,3,0.9144412114765146,G27R09,2022-08-31_15h59.50.412,t1_Paradigm,2021.1.4,60.04272269495204,
H,right,Target,0,7,7,7,1532.645472364533,1534.6473436011293,right,1,3,0.7265354373666923,G27R09,2022-08-31_15h59.50.412,t1_Paradigm,2021.1.4,60.04272269495204,
Y,left,Pretarget,0,8,8,8,1536.1455647554358,1538.1477789290984,left,1,3,0.5541686583128467,G27R09,2022-08-31_15h59.50.412,t1_Paradigm,2021.1.4,60.04272269495204,
S,left,Distractor,0,9,9,9,1539.6453183796948,1541.6476849341889,left,1,3,0.7822368864290183,G27R09,2022-08-31_15h59.50.412,t1_Paradigm,2021.1.4,60.04272269495204,
P,left,Distractor,0,10,10,10,1543.145495783061,1545.146880042601,left,1,3,0.6593704586484819,G27R09,2022-08-31_15h59.50.412,t1_Paradigm,2021.1.4,60.04272269495204,
Y,right,Target,0,11,11,11,1546.6454534372315,1548.6474857163012,left,0,3,0.8864477301685838,G27R09,2022-08-31_15h59.50.412,t1_Paradigm,2021.1.4,60.04272269495204,
H,left,Lure,0,12,12,12,1550.145444133981,1552.1473753605023,left,1,3,0.8267166903497127,G27R09,2022-08-31_15h59.50.412,t1_Paradigm,2021.1.4,60.04272269495204,
Q,left,Distractor,0,13,13,13,1553.6444467613474,1555.6473150497732,left,1,3,0.52654121179512,G27R09,2022-08-31_15h59.50.412,t1_Paradigm,2021.1.4,60.04272269495204,
V,left,Pretarget,0,14,14,14,1557.1454900086283,1559.147301896901,left,1,3,0.6588934264509589,G27R09,2022-08-31_15h59.50.412,t1_Paradigm,2021.1.4,60.04272269495204,
G,left,Distractor,0,15,15,15,1560.6453940889078,1562.6479803925977,left,1,3,0.9978981069507427,G27R09,2022-08-31_15h59.50.412,t1_Paradigm,2021.1.4,60.04272269495204,
Z,left,Pretarget,0,16,16,16,1564.145468514911,1566.1472438317833,left,1,3,0.6186446767751477,G27R09,2022-08-31_15h59.50.412,t1_Paradigm,2021.1.4,60.04272269495204,
V,right,Target,0,17,17,17,1567.6453815776367,1569.6474398416503,right,1,3,0.734468222981377,G27R09,2022-08-31_15h59.50.412,t1_Paradigm,2021.1.4,60.04272269495204,
N,left,Distractor,0,18,18,18,1571.1453976177254,1573.1476544580219,left,1,3,0.7700188310627709,G27R09,2022-08-31_15h59.50.412,t1_Paradigm,2021.1.4,60.04272269495204,
Z,right,Target,0,19,19,19,1574.645375482407,1576.6470067592927,right,1,3,0.615087626996683,G27R09,2022-08-31_15h59.50.412,t1_Paradigm,2021.1.4,60.04272269495204,
R,left,Distractor,0,20,20,20,1578.1452638433984,1580.145484234199,left,1,3,0.4443158742324158,G27R09,2022-08-31_15h59.50.412,t1_Paradigm,2021.1.4,60.04272269495204,
P,left,Distractor,0,21,21,21,1581.645350780669,1583.6472492854155,left,1,3,0.44671803772143903,G27R09,2022-08-31_15h59.50.412,t1_Paradigm,2021.1.4,60.04272269495204,
Z,right,Target,0,22,22,22,1585.1454146202195,1587.147447540894,left,0,3,0.530931062912714,G27R09,2022-08-31_15h59.50.412,t1_Paradigm,2021.1.4,60.04272269495204,
D,left,Pretarget,0,23,23,23,1588.645361046325,1590.647572974376,left,1,3,0.4543868034998013,G27R09,2022-08-31_15h59.50.412,t1_Paradigm,2021.1.4,60.04272269495204,
K,left,Distractor,0,24,24,24,1592.145399863337,1594.1473721524817,left,1,3,0.4746159201094997,G27R09,2022-08-31_15h59.50.412,t1_Paradigm,2021.1.4,60.04272269495204,
W,left,Distractor,0,25,25,25,1595.6454037129588,1597.6472364533438,left,1,3,1.0227512599485635,G27R09,2022-08-31_15h59.50.412,t1_Paradigm,2021.1.4,60.04272269495204,
D,right,Target,0,26,26,26,1599.145366179153,1601.1474905283285,None,0,3,,G27R09,2022-08-31_15h59.50.412,t1_Paradigm,2021.1.4,60.04272269495204,
G,left,Pretarget,0,27,27,27,1602.6452320840253,1604.6475553302807,left,1,3,1.0306150731921662,G27R09,2022-08-31_15h59.50.412,t1_Paradigm,2021.1.4,60.04272269495204,
V,left,Distractor,0,28,28,28,1606.145280845889,1608.147602167337,left,1,3,0.6502253632279462,G27R09,2022-08-31_15h59.50.412,t1_Paradigm,2021.1.4,60.04272269495204,
D,right,Target,0,29,29,29,1609.6453010564,1611.6475578966965,left,0,3,0.43090347396355355,G27R09,2022-08-31_15h59.50.412,t1_Paradigm,2021.1.4,60.04272269495204,
G,right,Target,0,30,30,30,1613.145268013821,1615.147507530819,left,0,3,0.3863434695995238,G27R09,2022-08-31_15h59.50.412,t1_Paradigm,2021.1.4,60.04272269495204,
B,left,Pretarget,0,31,31,31,1616.6454085249861,1618.6474879619127,left,1,3,0.6464973261172418,G27R09,2022-08-31_15h59.50.412,t1_Paradigm,2021.1.4,60.04272269495204,
N,left,Distractor,0,32,32,32,1620.145425206676,1622.146803050182,left,1,3,0.7633002800575923,G27R09,2022-08-31_15h59.50.412,t1_Paradigm,2021.1.4,60.04272269495204,
F,left,Distractor,0,33,33,33,1623.6454406051598,1625.6472476814051,left,1,3,0.4309352333366405,G27R09,2022-08-31_15h59.50.412,t1_Paradigm,2021.1.4,60.04272269495204,
B,right,Target,0,34,34,34,1627.1453764448088,1629.1475072100184,right,1,3,0.3863556600663287,G27R09,2022-08-31_15h59.50.412,t1_Paradigm,2021.1.4,60.04272269495204,
Q,left,Pretarget,0,35,35,35,1630.6452417080764,1632.6474225183592,left,1,3,0.45451159537697094,G27R09,2022-08-31_15h59.50.412,t1_Paradigm,2021.1.4,60.04272269495204,
S,left,Pretarget,0,36,36,36,1634.145347572652,1636.147602167337,left,1,3,0.8421251190957264,G27R09,2022-08-31_15h59.50.412,t1_Paradigm,2021.1.4,60.04272269495204,
W,left,Distractor,0,37,37,37,1637.6452445952928,1639.6474834706896,left,1,3,0.63844423984483,G27R09,2022-08-31_15h59.50.412,t1_Paradigm,2021.1.4,60.04272269495204,
Q,right,Target,0,38,38,38,1641.1451608660354,1643.1473994206317,right,1,3,0.6105473198622349,G27R09,2022-08-31_15h59.50.412,t1_Paradigm,2021.1.4,60.04272269495204,
S,right,Target,0,39,39,39,1644.6446161446693,1646.64666863425,right,1,3,0.5991104167515005,G27R09,2022-08-31_15h59.50.412,t1_Paradigm,2021.1.4,60.04272269495204,
T,left,Distractor,0,40,40,40,1648.1453434022296,1650.1473246738242,left,1,3,0.650479438212642,G27R09,2022-08-31_15h59.50.412,t1_Paradigm,2021.1.4,60.04272269495204,
G,left,Distractor,0,41,41,41,1651.644399924291,1653.646878759395,left,1,3,0.6229684427307802,G27R09,2022-08-31_15h59.50.412,t1_Paradigm,2021.1.4,60.04272269495204,
D,left,Distractor,0,42,42,42,1655.145218931153,1657.1473314106624,left,1,3,0.8023800281662261,G27R09,2022-08-31_15h59.50.412,t1_Paradigm,2021.1.4,60.04272269495204,
S,left,Lure,0,43,43,43,1658.6453648959468,1660.6472027691598,left,1,3,0.48662224631698336,G27R09,2022-08-31_15h59.50.412,t1_Paradigm,2021.1.4,60.04272269495204,
Z,left,Pretarget,0,44,44,44,1662.145339873412,1664.1473997414323,left,1,3,0.4423442266888742,G27R09,2022-08-31_15h59.50.412,t1_Paradigm,2021.1.4,60.04272269495204,
J,left,Distractor,0,45,45,45,1665.6452664098106,1667.64749277394,left,1,3,0.4625120701675769,G27R09,2022-08-31_15h59.50.412,t1_Paradigm,2021.1.4,60.04272269495204,
M,left,Pretarget,0,46,46,46,1669.1451307106727,1671.147100754206,left,1,3,0.9149654015309352,G27R09,2022-08-31_15h59.50.412,t1_Paradigm,2021.1.4,60.04272269495204,
Z,right,Target,0,47,47,47,1672.6451720940968,1674.6467597419469,right,1,3,0.7430028326780302,G27R09,2022-08-31_15h59.50.412,t1_Paradigm,2021.1.4,60.04272269495204,
P,left,Distractor,0,48,48,48,1676.1452112319093,1678.1473160121786,left,1,3,0.5066046663814632,G27R09,2022-08-31_15h59.50.412,t1_Paradigm,2021.1.4,60.04272269495204,
M,right,Target,0,49,49,49,1679.6454710813268,1681.6474186687374,right,1,3,0.7344560325145721,G27R09,2022-08-31_15h59.50.412,t1_Paradigm,2021.1.4,60.04272269495204,
K,left,Distractor,0,50,50,50,1683.1452006454529,1685.1475578966965,left,1,3,0.48222629996962496,G27R09,2022-08-31_15h59.50.412,t1_Paradigm,2021.1.4,60.04272269495204,
Y,left,Distractor,0,51,51,51,1686.6452606353778,1688.6475954304988,left,1,3,0.42230149589886423,G27R09,2022-08-31_15h59.50.412,t1_Paradigm,2021.1.4,60.04272269495204,
X,left,Distractor,0,52,52,52,1690.1454781389657,1692.1474853955006,left,1,3,0.50645228555004,G27R09,2022-08-31_15h59.50.412,t1_Paradigm,2021.1.4,60.04272269495204,
F,left,Pretarget,0,53,53,53,1693.645306189228,1695.6475139468566,left,1,3,1.0223974156215263,G27R09,2022-08-31_15h59.50.412,t1_Paradigm,2021.1.4,60.04272269495204,
M,left,Lure,0,54,54,54,1697.145297848383,1699.1457152114563,left,1,3,1.2200642245115887,G27R09,2022-08-31_15h59.50.412,t1_Paradigm,2021.1.4,60.04272269495204,
V,left,Distractor,0,55,55,55,1700.6453437230339,1702.6475171548736,left,1,3,1.0305390431749402,G27R09,2022-08-31_15h59.50.412,t1_Paradigm,2021.1.4,60.04272269495204,
F,right,Target,0,56,56,56,1704.1453225501173,1706.1469502981854,right,1,3,0.9868031785044877,G27R09,2022-08-31_15h59.50.412,t1_Paradigm,2021.1.4,60.04272269495204,
S,left,Distractor,0,57,57,57,1707.6453488558618,1709.646592283436,left,1,3,0.6552009983352036,G27R09,2022-08-31_15h59.50.412,t1_Paradigm,2021.1.4,60.04272269495204,
D,left,Distractor,0,58,58,58,1711.1452936779606,1713.1472172052381,left,1,3,0.7225751397891145,G27R09,2022-08-31_15h59.50.412,t1_Paradigm,2021.1.4,60.04272269495204,
F,right,Target,0,59,59,59,1714.6452247055822,1716.6474051950645,left,0,3,0.35835127149766777,G27R09,2022-08-31_15h59.50.412,t1_Paradigm,2021.1.4,60.04272269495204,
V,left,Pretarget,0,60,60,60,1718.145289507538,1720.147489565923,left,1,3,0.8742139555179165,G27R09,2022-08-31_15h59.50.412,t1_Paradigm,2021.1.4,60.04272269495204,
J,left,Distractor,0,61,61,61,1721.6453498182636,1723.6469618470474,left,1,3,0.9909123280922358,G27R09,2022-08-31_15h59.50.412,t1_Paradigm,2021.1.4,60.04272269495204,
V,left,Lure,0,62,62,62,1725.1450498686318,1727.1472361325432,right,0,3,0.9786416612405446,G27R09,2022-08-31_15h59.50.412,t1_Paradigm,2021.1.4,60.04272269495204,
V,right,Target,0,63,63,63,1728.645297848383,1730.6452599937766,right,1,3,0.4085378177151142,G27R09,2022-08-31_15h59.50.412,t1_Paradigm,2021.1.4,60.04272269495204,
R,left,Distractor,0,0,0,0,1806.9294762269856,1808.9304925269244,None,0,4,,G27R09,2022-08-31_15h59.50.412,t1_Paradigm,2021.1.4,60.04272269495204,
F,left,Distractor,0,1,1,1,1810.4285414106926,1812.4305547624608,left,1,4,0.41509757185122,G27R09,2022-08-31_15h59.50.412,t1_Paradigm,2021.1.4,60.04272269495204,
P,left,Pretarget,0,2,2,2,1813.9284143732002,1815.9304963765426,left,1,4,0.4671582418777689,G27R09,2022-08-31_15h59.50.412,t1_Paradigm,2021.1.4,60.04272269495204,
H,left,Distractor,0,3,3,3,1817.4284782127506,1819.4276001783655,left,1,4,0.4421960162835603,G27R09,2022-08-31_15h59.50.412,t1_Paradigm,2021.1.4,60.04272269495204,
Z,left,Distractor,0,4,4,4,1820.92845832304,1822.927557832536,left,1,4,1.3582271212180785,G27R09,2022-08-31_15h59.50.412,t1_Paradigm,2021.1.4,60.04272269495204,
T,left,Distractor,0,5,5,5,1824.428541089892,1826.429937219098,left,1,4,1.3918586932450125,G27R09,2022-08-31_15h59.50.412,t1_Paradigm,2021.1.4,60.04272269495204,
P,right,Target,0,6,6,6,1827.9284782127506,1829.9307754740657,right,1,4,1.0271096724936797,G27R09,2022-08-31_15h59.50.412,t1_Paradigm,2021.1.4,60.04272269495204,
G,left,Distractor,0,7,7,7,1831.4286472752683,1833.4306323964847,left,1,4,0.9030065539773204,G27R09,2022-08-31_15h59.50.412,t1_Paradigm,2021.1.4,60.04272269495204,
L,left,Distractor,0,8,8,8,1834.9284429245563,1836.9286812802566,left,1,4,0.6209964743902674,G27R09,2022-08-31_15h59.50.412,t1_Paradigm,2021.1.4,60.04272269495204,
P,left,Lure,0,9,9,9,1838.4285330698476,1840.4296501015342,left,1,4,0.43211225494815153,G27R09,2022-08-31_15h59.50.412,t1_Paradigm,2021.1.4,60.04272269495204,
Q,left,Pretarget,0,10,10,10,1841.9284576814352,1843.930420346529,left,1,4,0.451889041090908,G27R09,2022-08-31_15h59.50.412,t1_Paradigm,2021.1.4,60.04272269495204,
D,left,Distractor,0,11,11,11,1845.4285141425462,1847.430439273834,left,1,4,0.48698507309381966,G27R09,2022-08-31_15h59.50.412,t1_Paradigm,2021.1.4,60.04272269495204,
M,left,Pretarget,0,12,12,12,1848.9284843079804,1850.9298890988357,left,1,4,0.39590528649205226,G27R09,2022-08-31_15h59.50.412,t1_Paradigm,2021.1.4,60.04272269495204,
C,left,Distractor,0,13,13,13,1852.428381330621,1854.4306776295307,left,1,4,0.5911195660191879,G27R09,2022-08-31_15h59.50.412,t1_Paradigm,2021.1.4,60.04272269495204,
Q,right,Target,0,14,14,14,1855.92844003734,1857.929250703357,None,0,4,,G27R09,2022-08-31_15h59.50.412,t1_Paradigm,2021.1.4,60.04272269495204,
R,left,Distractor,0,15,15,15,1859.4282918269346,1861.4304918853195,left,1,4,0.5831101087824209,G27R09,2022-08-31_15h59.50.412,t1_Paradigm,2021.1.4,60.04272269495204,
M,right,Target,0,16,16,16,1862.9282145137113,1864.9308521456805,left,0,4,0.6349138166078774,G27R09,2022-08-31_15h59.50.412,t1_Paradigm,2021.1.4,60.04272269495204,
S,left,Distractor,0,17,17,17,1866.4275799678544,1868.4306009579122,right,0,4,0.8150253914573113,G27R09,2022-08-31_15h59.50.412,t1_Paradigm,2021.1.4,60.04272269495204,
Z,left,Distractor,0,18,18,18,1869.9284416413502,1871.9303398252923,left,1,4,0.5477105983263755,G27R09,2022-08-31_15h59.50.412,t1_Paradigm,2021.1.4,60.04272269495204,
L,left,Pretarget,0,19,19,19,1873.4282411402564,1875.430397248805,left,1,4,0.4871682508928643,G27R09,2022-08-31_15h59.50.412,t1_Paradigm,2021.1.4,60.04272269495204,
M,right,Target,0,20,20,20,1876.9284172604166,1878.9302830433808,left,0,4,0.36370930228804355,G27R09,2022-08-31_15h59.50.412,t1_Paradigm,2021.1.4,60.04272269495204,
P,left,Distractor,0,21,21,21,1880.4284403581441,1882.4306670430742,left,1,4,0.5112973543473345,G27R09,2022-08-31_15h59.50.412,t1_Paradigm,2021.1.4,60.04272269495204,
F,left,Distractor,0,22,22,22,1883.928336097575,1885.9300138907165,left,1,4,0.8196471822375315,G27R09,2022-08-31_15h59.50.412,t1_Paradigm,2021.1.4,60.04272269495204,
L,right,Target,0,23,23,23,1887.4276370705666,1889.4297659109652,left,0,4,0.7920101116687874,G27R09,2022-08-31_15h59.50.412,t1_Paradigm,2021.1.4,60.04272269495204,
L,left,Lure,0,24,24,24,1890.9285006688697,1892.9283306439465,right,0,4,0.46125228170421906,G27R09,2022-08-31_15h59.50.412,t1_Paradigm,2021.1.4,60.04272269495204,
V,left,Pretarget,0,25,25,25,1894.4281959072105,1896.4304925269244,left,1,4,0.6392295625228144,G27R09,2022-08-31_15h59.50.412,t1_Paradigm,2021.1.4,60.04272269495204,
Z,left,Distractor,0,26,26,26,1897.9284239972549,1899.930307745115,left,1,4,0.6432456796028418,G27R09,2022-08-31_15h59.50.412,t1_Paradigm,2021.1.4,60.04272269495204,
H,left,Distractor,0,27,27,27,1901.4284689094966,1903.4296616503962,left,1,4,0.4240588478751306,G27R09,2022-08-31_15h59.50.412,t1_Paradigm,2021.1.4,60.04272269495204,
X,left,Distractor,0,28,28,28,1904.9281458621372,1906.9448144001472,left,1,4,0.5249250125889375,G27R09,2022-08-31_15h59.50.412,t1_Paradigm,2021.1.4,60.04272269495204,
V,right,Target,0,29,29,29,1908.42831717027,1910.4304245169515,right,1,4,0.5436601554611116,G27R09,2022-08-31_15h59.50.412,t1_Paradigm,2021.1.4,60.04272269495204,
C,left,Distractor,0,30,30,30,1911.9283133206518,1913.9305428927983,left,1,4,0.6273278176813619,G27R09,2022-08-31_15h59.50.412,t1_Paradigm,2021.1.4,60.04272269495204,
S,left,Pretarget,0,31,31,31,1915.4282761076465,1917.427515807507,left,1,4,0.9541856608011585,G27R09,2022-08-31_15h59.50.412,t1_Paradigm,2021.1.4,60.04272269495204,
D,left,Distractor,0,32,32,32,1918.928180187926,1920.9296411190844,left,1,4,0.8920864624888054,G27R09,2022-08-31_15h59.50.412,t1_Paradigm,2021.1.4,60.04272269495204,
V,left,Distractor,0,33,33,33,1922.428392879483,1924.4295156856024,left,1,4,1.07214061382183,G27R09,2022-08-31_15h59.50.412,t1_Paradigm,2021.1.4,60.04272269495204,
R,left,Distractor,0,34,34,34,1925.9283745937828,1927.9274997674183,left,1,4,0.5019754971617658,G27R09,2022-08-31_15h59.50.412,t1_Paradigm,2021.1.4,60.04272269495204,
S,right,Target,0,35,35,35,1929.4284541526176,1931.4292946531968,left,0,4,0.7766228558393777,G27R09,2022-08-31_15h59.50.412,t1_Paradigm,2021.1.4,60.04272269495204,
Y,left,Distractor,0,36,36,36,1932.9283008093807,1934.9306317548799,left,1,4,0.5070791321704746,G27R09,2022-08-31_15h59.50.412,t1_Paradigm,2021.1.4,60.04272269495204,
N,left,Pretarget,0,37,37,37,1936.4283524584644,1938.4303901911662,left,1,4,1.0553350934642367,G27R09,2022-08-31_15h59.50.412,t1_Paradigm,2021.1.4,60.04272269495204,
Z,left,Pretarget,0,38,38,38,1939.9283582328935,1941.9303985320112,left,1,4,0.9633439090976026,G27R09,2022-08-31_15h59.50.412,t1_Paradigm,2021.1.4,60.04272269495204,
P,left,Pretarget,0,39,39,39,1943.4283187742803,1945.4305752937726,left,1,4,0.6149702135553525,G27R09,2022-08-31_15h59.50.412,t1_Paradigm,2021.1.4,60.04272269495204,
M,left,Distractor,0,40,40,40,1946.9284445285666,1948.9304575595306,right,0,4,0.5552292288884928,G27R09,2022-08-31_15h59.50.412,t1_Paradigm,2021.1.4,60.04272269495204,
N,right,Target,0,41,41,41,1950.4283688193536,1952.4303523365597,right,1,4,0.8794051693985239,G27R09,2022-08-31_15h59.50.412,t1_Paradigm,2021.1.4,60.04272269495204,
Z,right,Target,0,42,42,42,1953.9283816514217,1955.92959043241,left,0,4,0.4999826767052582,G27R09,2022-08-31_15h59.50.412,t1_Paradigm,2021.1.4,60.04272269495204,
P,right,Target,0,43,43,43,1957.4284272052719,1959.4303712638612,left,0,4,0.4233293446995958,G27R09,2022-08-31_15h59.50.412,t1_Paradigm,2021.1.4,60.04272269495204,
X,left,Pretarget,0,44,44,44,1960.9282414610607,1962.9298140312276,left,1,4,0.7799296802550089,G27R09,2022-08-31_15h59.50.412,t1_Paradigm,2021.1.4,60.04272269495204,
Z,left,Lure,0,45,45,45,1964.4283922378818,1966.4289270143927,right,0,4,1.12066540698288,G27R09,2022-08-31_15h59.50.412,t1_Paradigm,2021.1.4,60.04272269495204,
R,left,Pretarget,0,46,46,46,1967.9283675361476,1969.93013387057,left,1,4,0.5796290890211822,G27R09,2022-08-31_15h59.50.412,t1_Paradigm,2021.1.4,60.04272269495204,
K,left,Distractor,0,47,47,47,1971.42826552119,1973.4304007776227,left,1,4,1.095336504993611,G27R09,2022-08-31_15h59.50.412,t1_Paradigm,2021.1.4,60.04272269495204,
X,right,Target,0,48,48,48,1974.9282966389583,1976.9290380118,left,0,4,0.4444217388081597,G27R09,2022-08-31_15h59.50.412,t1_Paradigm,2021.1.4,60.04272269495204,
B,left,Distractor,0,49,49,49,1978.428257180345,1980.4301171888765,left,1,4,0.38337220381436055,G27R09,2022-08-31_15h59.50.412,t1_Paradigm,2021.1.4,60.04272269495204,
R,right,Target,0,50,50,50,1981.9284073155613,1983.9303430333093,left,0,4,0.4032253407713142,G27R09,2022-08-31_15h59.50.412,t1_Paradigm,2021.1.4,60.04272269495204,
Y,left,Pretarget,0,51,51,51,1985.4281009498918,1987.4300703518238,right,0,4,0.6637769914559613,G27R09,2022-08-31_15h59.50.412,t1_Paradigm,2021.1.4,60.04272269495204,
W,left,Pretarget,0,52,52,52,1988.9281740926926,1990.9300684270129,left,1,4,0.491426894092001,G27R09,2022-08-31_15h59.50.412,t1_Paradigm,2021.1.4,60.04272269495204,
Z,left,Distractor,0,53,53,53,1992.4280573208562,1994.4303792839055,left,1,4,0.7671033847800572,G27R09,2022-08-31_15h59.50.412,t1_Paradigm,2021.1.4,60.04272269495204,
Q,left,Distractor,0,54,54,54,1995.9283919170775,1997.9298242968835,left,1,4,0.643680686771404,G27R09,2022-08-31_15h59.50.412,t1_Paradigm,2021.1.4,60.04272269495204,
Y,right,Target,0,55,55,55,1999.428324227909,2001.4294672445358,right,1,4,1.400100410945015,G27R09,2022-08-31_15h59.50.412,t1_Paradigm,2021.1.4,60.04272269495204,
W,right,Target,0,56,56,56,2002.9283652905324,2004.9299769985155,right,1,4,0.6835669304709882,G27R09,2022-08-31_15h59.50.412,t1_Paradigm,2021.1.4,60.04272269495204,
H,left,Pretarget,0,57,57,57,2006.4282080976773,2008.430267644897,left,1,4,0.5435764262037992,G27R09,2022-08-31_15h59.50.412,t1_Paradigm,2021.1.4,60.04272269495204,
M,left,Distractor,0,58,58,58,2009.9283598369038,2011.9303510533537,left,1,4,0.5313583708411898,G27R09,2022-08-31_15h59.50.412,t1_Paradigm,2021.1.4,60.04272269495204,
R,left,Pretarget,0,59,59,59,2013.4283774809992,2015.4303231435988,left,1,4,0.40733256554813124,G27R09,2022-08-31_15h59.50.412,t1_Paradigm,2021.1.4,60.04272269495204,
J,left,Distractor,0,60,60,60,2016.9284756463348,2018.9303205771866,left,1,4,0.491347335260798,G27R09,2022-08-31_15h59.50.412,t1_Paradigm,2021.1.4,60.04272269495204,
H,right,Target,0,61,61,61,2020.428264237984,2022.4302198454388,right,1,4,0.831427022414573,G27R09,2022-08-31_15h59.50.412,t1_Paradigm,2021.1.4,60.04272269495204,
Z,left,Distractor,0,62,62,62,2023.9282873357079,2025.9290720167846,left,1,4,0.4684074438846437,G27R09,2022-08-31_15h59.50.412,t1_Paradigm,2021.1.4,60.04272269495204,
R,right,Target,0,63,63,63,2027.4282616715682,2029.4308062710334,left,0,4,1.1750294335615763,G27R09,2022-08-31_15h59.50.412,t1_Paradigm,2021.1.4,60.04272269495204,
J,left,Pretarget,0,0,0,0,2046.5095566840646,2048.5124663559145,left,1,4,1.1491651134492713,G27R09,2022-08-31_15h59.50.412,t1_Paradigm,2021.1.4,60.04272269495204,
G,left,Pretarget,0,1,1,1,2050.011663389141,2052.0137562997443,left,1,4,0.33571421697342885,G27R09,2022-08-31_15h59.50.412,t1_Paradigm,2021.1.4,60.04272269495204,
Z,left,Distractor,0,2,2,2,2053.5116287425517,2055.512338035216,left,1,4,0.645302981210989,G27R09,2022-08-31_15h59.50.412,t1_Paradigm,2021.1.4,60.04272269495204,
F,left,Distractor,0,3,3,3,2057.011596020773,2059.013750204511,left,1,4,0.871818528867152,G27R09,2022-08-31_15h59.50.412,t1_Paradigm,2021.1.4,60.04272269495204,
J,right,Target,0,4,4,4,2060.5116139856727,2062.5122289626233,right,1,4,0.8133354078527191,G27R09,2022-08-31_15h59.50.412,t1_Paradigm,2021.1.4,60.04272269495204,
G,right,Target,0,5,5,5,2064.010841174262,2066.013493563114,right,1,4,0.6880668165867974,G27R09,2022-08-31_15h59.50.412,t1_Paradigm,2021.1.4,60.04272269495204,
H,left,Distractor,0,6,6,6,2067.511630988167,2069.513835537775,left,1,4,1.07561874637031,G27R09,2022-08-31_15h59.50.412,t1_Paradigm,2021.1.4,60.04272269495204,
P,left,Distractor,0,7,7,7,2071.0116495946677,2073.0136453023406,left,1,4,1.0158777616998123,G27R09,2022-08-31_15h59.50.412,t1_Paradigm,2021.1.4,60.04272269495204,
G,left,Lure,0,8,8,8,2074.5117432687766,2076.5116210433116,left,1,4,0.8460074618487852,G27R09,2022-08-31_15h59.50.412,t1_Paradigm,2021.1.4,60.04272269495204,
S,left,Distractor,0,9,9,9,2078.0116383666063,2080.013598786085,left,1,4,1.0558503010724962,G27R09,2022-08-31_15h59.50.412,t1_Paradigm,2021.1.4,60.04272269495204,
R,left,Pretarget,0,10,10,10,2081.5116143064733,2083.5132959492366,left,1,4,0.7882410119382257,G27R09,2022-08-31_15h59.50.412,t1_Paradigm,2021.1.4,60.04272269495204,
T,left,Pretarget,0,11,11,11,2085.0114863065755,2087.0130370622246,left,1,4,0.9203353019875067,G27R09,2022-08-31_15h59.50.412,t1_Paradigm,2021.1.4,60.04272269495204,
X,left,Distractor,0,12,12,12,2088.511536672453,2090.514087367148,left,1,4,0.9235182969277957,G27R09,2022-08-31_15h59.50.412,t1_Paradigm,2021.1.4,60.04272269495204,
F,left,Pretarget,0,13,13,13,2092.0116110984563,2094.013246224964,right,0,4,0.7043266531727568,G27R09,2022-08-31_15h59.50.412,t1_Paradigm,2021.1.4,60.04272269495204,
R,right,Target,0,14,14,14,2095.5114596800304,2097.513175969383,right,1,4,0.5964824088368914,G27R09,2022-08-31_15h59.50.412,t1_Paradigm,2021.1.4,60.04272269495204,
T,right,Target,0,15,15,15,2099.0114721913014,2101.0136045605177,left,0,4,1.1598102778443717,G27R09,2022-08-31_15h59.50.412,t1_Paradigm,2021.1.4,60.04272269495204,
C,left,Distractor,0,16,16,16,2102.511559128572,2104.5138560690866,left,1,4,0.7958080835633154,G27R09,2022-08-31_15h59.50.412,t1_Paradigm,2021.1.4,60.04272269495204,
F,right,Target,0,17,17,17,2106.0115613741873,2108.012771438378,left,0,4,0.7687869523542759,G27R09,2022-08-31_15h59.50.412,t1_Paradigm,2021.1.4,60.04272269495204,
M,left,Distractor,0,18,18,18,2109.5114786073354,2111.5135243600816,left,1,4,0.5318244957779825,G27R09,2022-08-31_15h59.50.412,t1_Paradigm,2021.1.4,60.04272269495204,
N,left,Distractor,0,19,19,19,2113.01157484786,2115.013703688259,left,1,4,0.7439167968586844,G27R09,2022-08-31_15h59.50.412,t1_Paradigm,2021.1.4,60.04272269495204,
R,left,Lure,0,20,20,20,2116.5112877302963,2118.5136029565074,left,1,4,0.8597913505436736,G27R09,2022-08-31_15h59.50.412,t1_Paradigm,2021.1.4,60.04272269495204,
F,right,Target,0,21,21,21,2120.0114869481804,2122.0119687924052,right,1,4,0.6895582239158102,G27R09,2022-08-31_15h59.50.412,t1_Paradigm,2021.1.4,60.04272269495204,
P,left,Distractor,0,22,22,22,2123.5115642614,2125.513028400579,left,1,4,0.7725082526230835,G27R09,2022-08-31_15h59.50.412,t1_Paradigm,2021.1.4,60.04272269495204,
L,left,Pretarget,0,23,23,23,2127.0114340158907,2129.013420420313,left,1,4,0.6803807275136933,G27R09,2022-08-31_15h59.50.412,t1_Paradigm,2021.1.4,60.04272269495204,
T,left,Distractor,0,24,24,24,2130.5114914394035,2132.512768871966,left,1,4,0.6207215472895768,G27R09,2022-08-31_15h59.50.412,t1_Paradigm,2021.1.4,60.04272269495204,
F,left,Distractor,0,25,25,25,2134.0107308184597,2136.013489713492,left,1,4,1.0239199407151318,G27R09,2022-08-31_15h59.50.412,t1_Paradigm,2021.1.4,60.04272269495204,
V,left,Distractor,0,26,26,26,2137.511489514596,2139.51363599909,left,1,4,0.6919395352852007,G27R09,2022-08-31_15h59.50.412,t1_Paradigm,2021.1.4,60.04272269495204,
L,right,Target,0,27,27,27,2141.011550146126,2143.013738014044,right,1,4,0.9675284470940824,G27R09,2022-08-31_15h59.50.412,t1_Paradigm,2021.1.4,60.04272269495204,
S,left,Pretarget,0,28,28,28,2144.5114596800304,2146.513478485431,left,1,4,0.6839140379634046,G27R09,2022-08-31_15h59.50.412,t1_Paradigm,2021.1.4,60.04272269495204,
W,left,Distractor,0,29,29,29,2148.011271048603,2150.013446405257,left,1,4,0.8319916334912705,G27R09,2022-08-31_15h59.50.412,t1_Paradigm,2021.1.4,60.04272269495204,
Q,left,Distractor,0,30,30,30,2151.5113977652945,2153.5136472271515,left,1,4,0.7559994738876412,G27R09,2022-08-31_15h59.50.412,t1_Paradigm,2021.1.4,60.04272269495204,
L,right,Target,0,31,31,31,2155.0113926324666,2157.013815648068,right,1,4,0.7278173611484817,G27R09,2022-08-31_15h59.50.412,t1_Paradigm,2021.1.4,60.04272269495204,
S,right,Target,0,32,32,32,2158.5112373644224,2160.5131108466267,right,1,4,0.6684212383588601,G27R09,2022-08-31_15h59.50.412,t1_Paradigm,2021.1.4,60.04272269495204,
Z,left,Pretarget,0,33,33,33,2162.0112399308346,2164.0126482505075,left,1,4,0.6409128092927858,G27R09,2022-08-31_15h59.50.412,t1_Paradigm,2021.1.4,60.04272269495204,
F,left,Distractor,0,34,34,34,2165.5113303969265,2167.5137842094955,left,1,4,1.0755751173346653,G27R09,2022-08-31_15h59.50.412,t1_Paradigm,2021.1.4,60.04272269495204,
V,left,Distractor,0,35,35,35,2169.0114583968243,2171.013753412528,left,1,4,0.6316644157086557,G27R09,2022-08-31_15h59.50.412,t1_Paradigm,2021.1.4,60.04272269495204,
M,left,Distractor,0,36,36,36,2172.5114061061395,2174.5127820248345,left,1,4,0.6366105370543664,G27R09,2022-08-31_15h59.50.412,t1_Paradigm,2021.1.4,60.04272269495204,
Z,right,Target,0,37,37,37,2176.0112011138226,2178.0136943850084,right,1,4,0.7996852934847993,G27R09,2022-08-31_15h59.50.412,t1_Paradigm,2021.1.4,60.04272269495204,
H,left,Pretarget,0,38,38,38,2179.5116444618398,2181.5128712077203,left,1,4,0.7086664592134184,G27R09,2022-08-31_15h59.50.412,t1_Paradigm,2021.1.4,60.04272269495204,
L,left,Distractor,0,39,39,39,2183.011440111124,2185.0133960393796,left,1,4,0.8561281153852178,G27R09,2022-08-31_15h59.50.412,t1_Paradigm,2021.1.4,60.04272269495204,
G,left,Distractor,0,40,40,40,2186.5114885521907,2188.5128651124905,left,1,4,0.6525097924713918,G27R09,2022-08-31_15h59.50.412,t1_Paradigm,2021.1.4,60.04272269495204,
K,left,Distractor,0,41,41,41,2190.011431770279,2192.01352981371,left,1,4,0.671975080120319,G27R09,2022-08-31_15h59.50.412,t1_Paradigm,2021.1.4,60.04272269495204,
H,right,Target,0,42,42,42,2193.5114455647563,2195.513291778814,left,0,4,0.7881492626365798,G27R09,2022-08-31_15h59.50.412,t1_Paradigm,2021.1.4,60.04272269495204,
B,left,Distractor,0,43,43,43,2197.0114580760237,2199.013022946947,left,1,4,0.9841450152234756,G27R09,2022-08-31_15h59.50.412,t1_Paradigm,2021.1.4,60.04272269495204,
Z,left,Distractor,0,44,44,44,2200.511491118603,2202.5119354290255,left,1,4,1.0374292231135769,G27R09,2022-08-31_15h59.50.412,t1_Paradigm,2021.1.4,60.04272269495204,
T,left,Pretarget,0,45,45,45,2204.011414126184,2206.0131127714376,left,1,4,0.6563597342501453,G27R09,2022-08-31_15h59.50.412,t1_Paradigm,2021.1.4,60.04272269495204,
H,right,Target,0,46,46,46,2207.5116810332365,2209.5128343155193,right,1,4,1.0605413850280456,G27R09,2022-08-31_15h59.50.412,t1_Paradigm,2021.1.4,60.04272269495204,
F,left,Distractor,0,47,47,47,2211.01133649216,2213.012714335666,right,0,4,0.6488334044443036,G27R09,2022-08-31_15h59.50.412,t1_Paradigm,2021.1.4,60.04272269495204,
R,left,Distractor,0,48,48,48,2214.5114215046233,2216.513714595516,left,1,4,0.6996390980311844,G27R09,2022-08-31_15h59.50.412,t1_Paradigm,2021.1.4,60.04272269495204,
T,right,Target,0,49,49,49,2218.010534487792,2220.01339764339,left,0,4,1.1040613501245389,G27R09,2022-08-31_15h59.50.412,t1_Paradigm,2021.1.4,60.04272269495204,
H,right,Target,0,50,50,50,2221.511428562262,2223.5134775230254,left,0,4,1.0440082253553555,G27R09,2022-08-31_15h59.50.412,t1_Paradigm,2021.1.4,60.04272269495204,
Y,left,Pretarget,0,51,51,51,2225.011383650017,2227.0135795379792,left,1,4,0.5197552924255433,G27R09,2022-08-31_15h59.50.412,t1_Paradigm,2021.1.4,60.04272269495204,
H,left,Distractor,0,52,52,52,2228.511277143836,2230.5131413227937,left,1,4,0.42836561133663054,G27R09,2022-08-31_15h59.50.412,t1_Paradigm,2021.1.4,60.04272269495204,
S,left,Distractor,0,53,53,53,2232.0114449231514,2234.012909062327,left,1,4,1.1045354951093032,G27R09,2022-08-31_15h59.50.412,t1_Paradigm,2021.1.4,60.04272269495204,
Q,left,Distractor,0,54,54,54,2235.511502988269,2237.513015247707,left,1,4,1.09268026652353,G27R09,2022-08-31_15h59.50.412,t1_Paradigm,2021.1.4,60.04272269495204,
Y,right,Target,0,55,55,55,2239.011482777758,2241.013414004279,right,1,4,0.7599616962688742,G27R09,2022-08-31_15h59.50.412,t1_Paradigm,2021.1.4,60.04272269495204,
R,left,Distractor,0,56,56,56,2242.511348361826,2244.5137912671344,None,0,4,,G27R09,2022-08-31_15h59.50.412,t1_Paradigm,2021.1.4,60.04272269495204,
H,left,Pretarget,0,57,57,57,2246.0114218254275,2248.0134775230254,right,0,4,0.8480198512115749,G27R09,2022-08-31_15h59.50.412,t1_Paradigm,2021.1.4,60.04272269495204,
J,left,Distractor,0,58,58,58,2249.5113727427597,2251.512885964603,left,1,4,0.6928063416089572,G27R09,2022-08-31_15h59.50.412,t1_Paradigm,2021.1.4,60.04272269495204,
V,left,Distractor,0,59,59,59,2253.0114551888073,2255.0241181961937,left,1,4,1.0212364340950444,G27R09,2022-08-31_15h59.50.412,t1_Paradigm,2021.1.4,60.04272269495204,
Y,left,Lure,0,60,60,60,2256.511233835601,2258.511957564344,right,0,4,1.1173059710854432,G27R09,2022-08-31_15h59.50.412,t1_Paradigm,2021.1.4,60.04272269495204,
H,right,Target,0,61,61,61,2260.0111007028754,2262.012548160361,left,0,4,0.5449504200914816,G27R09,2022-08-31_15h59.50.412,t1_Paradigm,2021.1.4,60.04272269495204,
L,left,Distractor,0,62,62,62,2263.5113676099318,2265.513358826378,left,1,4,0.980330040838453,G27R09,2022-08-31_15h59.50.412,t1_Paradigm,2021.1.4,60.04272269495204,
P,left,Distractor,0,63,63,63,2267.011380121199,2269.013768490211,left,1,4,0.9514479386889434,G27R09,2022-08-31_15h59.50.412,t1_Paradigm,2021.1.4,60.04272269495204,
