Letter,CorrAnswer,Stimulus,nback_run.thisRepN,nback_run.thisTrialN,nback_run.thisN,nback_run.thisIndex,fixcross.started,nback_trial.started,trial_resp.keys,trial_resp.corr,currentlevel,trial_resp.rt,Participant,date,expName,psychopyVersion,frameRate,
H,left,Distractor,0,0,0,0,211.81350992400257,213.7612663969776,None,0,1,,L15G05,2022-09-01_09h05.56.979,t1_Paradigm,2021.1.4,59.98933844633179,
Q,left,Pretarget,0,1,1,1,215.2638109964464,217.26306801958708,left,1,1,0.8754804808122572,L15G05,2022-09-01_09h05.56.979,t1_Paradigm,2021.1.4,59.98933844633179,
Q,right,Target,0,2,2,2,218.7606870290183,220.7607832695503,right,1,1,0.7696630619320786,L15G05,2022-09-01_09h05.56.979,t1_Paradigm,2021.1.4,59.98933844633179,
T,left,Distractor,0,3,3,3,222.26061741504236,224.26276646595215,left,1,1,0.6441519445361337,L15G05,2022-09-01_09h05.56.979,t1_Paradigm,2021.1.4,59.98933844633179,
Q,left,Lure,0,4,4,4,225.76083908905275,227.76259162899805,left,1,1,0.9199458486546064,L15G05,2022-09-01_09h05.56.979,t1_Paradigm,2021.1.4,59.98933844633179,
L,left,Distractor,0,5,5,5,229.26070371070819,231.26210946397623,left,1,1,0.5085573866235791,L15G05,2022-09-01_09h05.56.979,t1_Paradigm,2021.1.4,59.98933844633179,
V,left,Pretarget,0,6,6,6,232.76068446261343,234.7638020139857,left,1,1,0.5746864964894485,L15G05,2022-09-01_09h05.56.979,t1_Paradigm,2021.1.4,59.98933844633179,
V,right,Target,0,7,7,7,236.26069986108632,238.26065655285493,right,1,1,0.40590403536043596,L15G05,2022-09-01_09h05.56.979,t1_Paradigm,2021.1.4,59.98933844633179,
K,left,Distractor,0,8,8,8,239.76040023226233,241.7621364113147,left,1,1,0.4883982047904283,L15G05,2022-09-01_09h05.56.979,t1_Paradigm,2021.1.4,59.98933844633179,
G,left,Pretarget,0,9,9,9,243.26037296411232,245.26205139885133,left,1,1,0.3805536396539537,L15G05,2022-09-01_09h05.56.979,t1_Paradigm,2021.1.4,59.98933844633179,
G,right,Target,0,10,10,10,246.7605747484049,248.7607229588175,right,1,1,0.6098527840804309,L15G05,2022-09-01_09h05.56.979,t1_Paradigm,2021.1.4,59.98933844633179,
G,right,Target,0,11,11,11,250.26087084841856,252.26017246302217,right,1,1,0.40636663147597574,L15G05,2022-09-01_09h05.56.979,t1_Paradigm,2021.1.4,59.98933844633179,
P,left,Pretarget,0,12,12,12,253.7609141566645,255.76206840135274,left,1,1,0.520447582603083,L15G05,2022-09-01_09h05.56.979,t1_Paradigm,2021.1.4,59.98933844633179,
P,right,Target,0,13,13,13,257.26070788114157,259.2606992194924,right,1,1,0.7177342414215673,L15G05,2022-09-01_09h05.56.979,t1_Paradigm,2021.1.4,59.98933844633179,
G,left,Lure,0,14,14,14,260.7606658561126,262.7615621761943,left,1,1,0.7209284644195577,L15G05,2022-09-01_09h05.56.979,t1_Paradigm,2021.1.4,59.98933844633179,
Y,left,Distractor,0,15,15,15,264.2606892746262,266.26215180980216,left,1,1,0.4522663039388135,L15G05,2022-09-01_09h05.56.979,t1_Paradigm,2021.1.4,59.98933844633179,
B,left,Distractor,0,16,16,16,267.7606982570869,269.7625249022385,left,1,1,0.5199586807284504,L15G05,2022-09-01_09h05.56.979,t1_Paradigm,2021.1.4,59.98933844633179,
T,left,Pretarget,0,17,17,17,271.2606357007462,273.2620988775161,left,1,1,0.41253212027368136,L15G05,2022-09-01_09h05.56.979,t1_Paradigm,2021.1.4,59.98933844633179,
T,right,Target,0,18,18,18,274.7606382671511,276.7606081117847,right,1,1,0.7218786791927414,L15G05,2022-09-01_09h05.56.979,t1_Paradigm,2021.1.4,59.98933844633179,
S,left,Distractor,0,19,19,19,278.2608105377003,280.2620616645145,left,1,1,0.4364106775756227,L15G05,2022-09-01_09h05.56.979,t1_Paradigm,2021.1.4,59.98933844633179,
T,left,Lure,0,20,20,20,281.760627359894,283.76251976939966,left,1,1,0.9999582957825623,L15G05,2022-09-01_09h05.56.979,t1_Paradigm,2021.1.4,59.98933844633179,
J,left,Distractor,0,21,21,21,285.26058276846015,287.2621348073153,left,1,1,0.4602071096160216,L15G05,2022-09-01_09h05.56.979,t1_Paradigm,2021.1.4,59.98933844633179,
P,left,Distractor,0,22,22,22,288.7606055453798,290.7620225267019,left,1,1,0.44841219174850266,L15G05,2022-09-01_09h05.56.979,t1_Paradigm,2021.1.4,59.98933844633179,
F,left,Distractor,0,23,23,23,292.260586938879,294.2621319200989,left,1,1,0.5323955228814157,L15G05,2022-09-01_09h05.56.979,t1_Paradigm,2021.1.4,59.98933844633179,
L,left,Distractor,0,24,24,24,295.7605660867557,297.75971949094674,left,1,1,0.6187181403802242,L15G05,2022-09-01_09h05.56.979,t1_Paradigm,2021.1.4,59.98933844633179,
W,left,Pretarget,0,25,25,25,299.2606315303128,301.2636082497338,left,1,1,0.42704679534654133,L15G05,2022-09-01_09h05.56.979,t1_Paradigm,2021.1.4,59.98933844633179,
W,right,Target,0,26,26,26,302.76063473834074,304.76061164060957,right,1,1,0.673931329176412,L15G05,2022-09-01_09h05.56.979,t1_Paradigm,2021.1.4,59.98933844633179,
V,left,Distractor,0,27,27,27,306.2606049037713,308.26181657197594,left,1,1,0.7087242035340751,L15G05,2022-09-01_09h05.56.979,t1_Paradigm,2021.1.4,59.98933844633179,
W,left,Lure,0,28,28,28,309.7605587083235,311.76216047145135,left,1,1,0.6646611210744595,L15G05,2022-09-01_09h05.56.979,t1_Paradigm,2021.1.4,59.98933844633179,
R,left,Pretarget,0,29,29,29,313.2605198913079,315.26266060138005,left,1,1,0.4439142304472625,L15G05,2022-09-01_09h05.56.979,t1_Paradigm,2021.1.4,59.98933844633179,
R,right,Target,0,30,30,30,316.7605375354033,318.76071558037074,right,1,1,0.4979718913527904,L15G05,2022-09-01_09h05.56.979,t1_Paradigm,2021.1.4,59.98933844633179,
G,left,Distractor,0,31,31,31,320.2606004125555,322.2618034190964,left,1,1,0.5006476987327915,L15G05,2022-09-01_09h05.56.979,t1_Paradigm,2021.1.4,59.98933844633179,
R,left,Lure,0,32,32,32,323.7606109990011,325.76222463179147,left,1,1,0.7443348015367519,L15G05,2022-09-01_09h05.56.979,t1_Paradigm,2021.1.4,59.98933844633179,
S,left,Distractor,0,33,33,33,327.2603357511107,329.2615031486639,left,1,1,0.4768236777454149,L15G05,2022-09-01_09h05.56.979,t1_Paradigm,2021.1.4,59.98933844633179,
R,left,Lure,0,34,34,34,330.76059367571725,332.7606825378025,left,1,1,0.44977624078455847,L15G05,2022-09-01_09h05.56.979,t1_Paradigm,2021.1.4,59.98933844633179,
P,left,Pretarget,0,35,35,35,334.2607043523167,336.2613584670762,left,1,1,0.6455840035487199,L15G05,2022-09-01_09h05.56.979,t1_Paradigm,2021.1.4,59.98933844633179,
P,right,Target,0,36,36,36,337.7606020165549,339.76062254786666,right,1,1,0.45788899617036805,L15G05,2022-09-01_09h05.56.979,t1_Paradigm,2021.1.4,59.98933844633179,
Y,left,Pretarget,0,37,37,37,341.26059656293364,343.26129174031666,left,1,1,0.5412069845042424,L15G05,2022-09-01_09h05.56.979,t1_Paradigm,2021.1.4,59.98933844633179,
Y,right,Target,0,38,38,38,344.7605805228377,346.7606020165549,right,1,1,0.6579217179532861,L15G05,2022-09-01_09h05.56.979,t1_Paradigm,2021.1.4,59.98933844633179,
J,left,Distractor,0,39,39,39,348.2605811644462,350.26258104253793,left,1,1,0.8517934421688551,L15G05,2022-09-01_09h05.56.979,t1_Paradigm,2021.1.4,59.98933844633179,
Y,left,Lure,0,40,40,40,351.76058437245956,353.76221179972345,left,1,1,0.6482370339945192,L15G05,2022-09-01_09h05.56.979,t1_Paradigm,2021.1.4,59.98933844633179,
T,left,Distractor,0,41,41,41,355.26068029218004,357.2622365014686,left,1,1,0.46028153561928775,L15G05,2022-09-01_09h05.56.979,t1_Paradigm,2021.1.4,59.98933844633179,
V,left,Distractor,0,42,42,42,358.76053849780874,360.76174471237755,left,1,1,0.6567953830235638,L15G05,2022-09-01_09h05.56.979,t1_Paradigm,2021.1.4,59.98933844633179,
N,left,Pretarget,0,43,43,43,362.26046856303583,364.2629509269609,left,1,1,0.43547971089719795,L15G05,2022-09-01_09h05.56.979,t1_Paradigm,2021.1.4,59.98933844633179,
N,right,Target,0,44,44,44,365.76056127474294,367.7605776356213,right,1,1,0.633776895221672,L15G05,2022-09-01_09h05.56.979,t1_Paradigm,2021.1.4,59.98933844633179,
N,right,Target,0,45,45,45,369.26055838752654,371.26037360570626,right,1,1,0.3981926029518945,L15G05,2022-09-01_09h05.56.979,t1_Paradigm,2021.1.4,59.98933844633179,
X,left,Distractor,0,46,46,46,372.7603107285686,374.7627510674647,left,1,1,0.5441378292598529,L15G05,2022-09-01_09h05.56.979,t1_Paradigm,2021.1.4,59.98933844633179,
Z,left,Distractor,0,47,47,47,376.2603242022451,378.2628437791718,left,1,1,0.6277291406586301,L15G05,2022-09-01_09h05.56.979,t1_Paradigm,2021.1.4,59.98933844633179,
H,left,Pretarget,0,48,48,48,379.76038868339674,381.7620696845552,left,1,1,0.44040433851478156,L15G05,2022-09-01_09h05.56.979,t1_Paradigm,2021.1.4,59.98933844633179,
H,right,Target,0,49,49,49,383.26034697916475,385.26051892890246,left,0,1,0.5099968240538146,L15G05,2022-09-01_09h05.56.979,t1_Paradigm,2021.1.4,59.98933844633179,
K,left,Distractor,0,50,50,50,386.7603559616109,388.76247196995246,left,1,1,0.6400341333064716,L15G05,2022-09-01_09h05.56.979,t1_Paradigm,2021.1.4,59.98933844633179,
V,left,Pretarget,0,51,51,51,390.26037136009836,392.261924040562,left,1,1,0.5966623786225682,L15G05,2022-09-01_09h05.56.979,t1_Paradigm,2021.1.4,59.98933844633179,
V,right,Target,0,52,52,52,393.7603832297609,395.76049486878037,right,1,1,0.44199615679099225,L15G05,2022-09-01_09h05.56.979,t1_Paradigm,2021.1.4,59.98933844633179,
R,left,Distractor,0,53,53,53,397.26034184634045,399.2610803319694,left,1,1,0.5094309297855943,L15G05,2022-09-01_09h05.56.979,t1_Paradigm,2021.1.4,59.98933844633179,
V,left,Lure,0,54,54,54,400.7608021968481,402.76207642139343,left,1,1,0.7202919937553816,L15G05,2022-09-01_09h05.56.979,t1_Paradigm,2021.1.4,59.98933844633179,
Y,left,Distractor,0,55,55,55,404.26024849302485,406.2615564017615,left,1,1,0.5489678203739459,L15G05,2022-09-01_09h05.56.979,t1_Paradigm,2021.1.4,59.98933844633179,
Q,left,Distractor,0,56,56,56,407.7605105880648,409.76064724959724,left,1,1,0.48971220875682775,L15G05,2022-09-01_09h05.56.979,t1_Paradigm,2021.1.4,59.98933844633179,
Z,left,Pretarget,0,57,57,57,411.2606761217612,413.2616019556008,left,1,1,0.49285189545480534,L15G05,2022-09-01_09h05.56.979,t1_Paradigm,2021.1.4,59.98933844633179,
Z,right,Target,0,58,58,58,414.76036269844917,416.76035114959814,right,1,1,0.43396648904308677,L15G05,2022-09-01_09h05.56.979,t1_Paradigm,2021.1.4,59.98933844633179,
B,left,Distractor,0,59,59,59,418.2605506882828,420.26207642139343,left,1,1,0.5001716289407341,L15G05,2022-09-01_09h05.56.979,t1_Paradigm,2021.1.4,59.98933844633179,
S,left,Pretarget,0,60,60,60,421.76038002174755,423.7616680407664,left,1,1,0.5686589524557348,L15G05,2022-09-01_09h05.56.979,t1_Paradigm,2021.1.4,59.98933844633179,
S,right,Target,0,61,61,61,425.26004189670493,427.2603270894615,left,0,1,1.2620106570393546,L15G05,2022-09-01_09h05.56.979,t1_Paradigm,2021.1.4,59.98933844633179,
T,left,Distractor,0,62,62,62,428.76047850788746,430.76176139406743,left,1,1,0.5606138862203807,L15G05,2022-09-01_09h05.56.979,t1_Paradigm,2021.1.4,59.98933844633179,
D,left,Distractor,0,63,63,63,432.2605250241322,434.2623956191237,left,1,1,0.46793137409258634,L15G05,2022-09-01_09h05.56.979,t1_Paradigm,2021.1.4,59.98933844633179,
R,left,Distractor,0,0,0,0,457.44098883929837,459.44494721207593,left,1,1,1.1733862870023586,L15G05,2022-09-01_09h05.56.979,t1_Paradigm,2021.1.4,59.98933844633179,
V,left,Distractor,0,1,1,1,460.9436556642322,462.94466298172483,left,1,1,0.5855972847348312,L15G05,2022-09-01_09h05.56.979,t1_Paradigm,2021.1.4,59.98933844633179,
N,left,Pretarget,0,2,2,2,464.443785268144,466.44506109668873,left,1,1,0.541384708674741,L15G05,2022-09-01_09h05.56.979,t1_Paradigm,2021.1.4,59.98933844633179,
N,right,Target,0,3,3,3,467.94381029067154,469.9437650576292,right,1,1,0.67459763441002,L15G05,2022-09-01_09h05.56.979,t1_Paradigm,2021.1.4,59.98933844633179,
S,left,Distractor,0,4,4,4,471.4435276643344,473.4458278128732,left,1,1,0.6610373445291771,L15G05,2022-09-01_09h05.56.979,t1_Paradigm,2021.1.4,59.98933844633179,
N,left,Lure,0,5,5,5,474.9437932881847,476.9453087556467,left,1,1,0.6488558605633443,L15G05,2022-09-01_09h05.56.979,t1_Paradigm,2021.1.4,59.98933844633179,
Z,left,Distractor,0,6,6,6,478.4439312329341,480.44505788867536,left,1,1,0.589361251637456,L15G05,2022-09-01_09h05.56.979,t1_Paradigm,2021.1.4,59.98933844633179,
L,left,Pretarget,0,7,7,7,481.94375639598,483.9451939086139,left,1,1,0.5293286581872962,L15G05,2022-09-01_09h05.56.979,t1_Paradigm,2021.1.4,59.98933844633179,
L,right,Target,0,8,8,8,485.44349911298195,487.4436101103929,right,1,1,0.6628104158007773,L15G05,2022-09-01_09h05.56.979,t1_Paradigm,2021.1.4,59.98933844633179,
H,left,Distractor,0,9,9,9,488.9437926465762,490.94431523262756,left,1,1,0.5700724049529526,L15G05,2022-09-01_09h05.56.979,t1_Paradigm,2021.1.4,59.98933844633179,
L,left,Lure,0,10,10,10,492.44376954885956,494.4600521623652,left,1,1,0.5263808109302772,L15G05,2022-09-01_09h05.56.979,t1_Paradigm,2021.1.4,59.98933844633179,
X,left,Pretarget,0,11,11,11,495.94373426066886,497.9443338391284,left,1,1,0.577935576584423,L15G05,2022-09-01_09h05.56.979,t1_Paradigm,2021.1.4,59.98933844633179,
X,right,Target,0,12,12,12,499.44345035111473,501.44372848623607,right,1,1,0.7426088881329633,L15G05,2022-09-01_09h05.56.979,t1_Paradigm,2021.1.4,59.98933844633179,
X,right,Target,0,13,13,13,502.9437644160207,504.9437153333565,right,1,1,0.6507742550165858,L15G05,2022-09-01_09h05.56.979,t1_Paradigm,2021.1.4,59.98933844633179,
R,left,Distractor,0,14,14,14,506.4438609773497,508.4448410266923,left,1,1,0.7334535270492779,L15G05,2022-09-01_09h05.56.979,t1_Paradigm,2021.1.4,59.98933844633179,
T,left,Distractor,0,15,15,15,509.94345227592567,511.94562634937756,left,1,1,0.5128628668753663,L15G05,2022-09-01_09h05.56.979,t1_Paradigm,2021.1.4,59.98933844633179,
V,left,Pretarget,0,16,16,16,513.4437207869923,515.4444307212543,left,1,1,0.517830161144957,L15G05,2022-09-01_09h05.56.979,t1_Paradigm,2021.1.4,59.98933844633179,
V,right,Target,0,17,17,17,516.9438635437691,518.943823764348,right,1,1,0.4905700326344231,L15G05,2022-09-01_09h05.56.979,t1_Paradigm,2021.1.4,59.98933844633179,
N,left,Distractor,0,18,18,18,520.4438635437691,522.444617427871,left,1,1,0.6056660004687728,L15G05,2022-09-01_09h05.56.979,t1_Paradigm,2021.1.4,59.98933844633179,
B,left,Distractor,0,19,19,19,523.9437368270737,525.9443880546169,left,1,1,0.6256891623488627,L15G05,2022-09-01_09h05.56.979,t1_Paradigm,2021.1.4,59.98933844633179,
V,left,Lure,0,20,20,20,527.443265569309,529.4452051366825,left,1,1,0.7411931900278432,L15G05,2022-09-01_09h05.56.979,t1_Paradigm,2021.1.4,59.98933844633179,
P,left,Distractor,0,21,21,21,530.9436585514486,532.9446985907125,left,1,1,0.5216047145077027,L15G05,2022-09-01_09h05.56.979,t1_Paradigm,2021.1.4,59.98933844633179,
K,left,Pretarget,0,22,22,22,534.4437233533972,536.4454527956259,left,1,1,0.44496613937371876,L15G05,2022-09-01_09h05.56.979,t1_Paradigm,2021.1.4,59.98933844633179,
K,right,Target,0,23,23,23,537.9437272030191,539.9434420102771,right,1,1,0.5309262508817483,L15G05,2022-09-01_09h05.56.979,t1_Paradigm,2021.1.4,59.98933844633179,
J,left,Pretarget,0,24,24,24,541.4435238147125,543.4452000038436,left,1,1,0.6132667562633287,L15G05,2022-09-01_09h05.56.979,t1_Paradigm,2021.1.4,59.98933844633179,
J,right,Target,0,25,25,25,544.9437320150464,546.9435603861202,right,1,1,0.6505079895723611,L15G05,2022-09-01_09h05.56.979,t1_Paradigm,2021.1.4,59.98933844633179,
H,left,Distractor,0,26,26,26,548.4437137293571,550.444836535462,left,1,1,0.781707884350908,L15G05,2022-09-01_09h05.56.979,t1_Paradigm,2021.1.4,59.98933844633179,
J,left,Lure,0,27,27,27,551.9436967268557,553.9563645462767,left,1,1,0.5021054218814243,L15G05,2022-09-01_09h05.56.979,t1_Paradigm,2021.1.4,59.98933844633179,
V,left,Distractor,0,28,28,28,555.4436643258814,557.4453626503382,left,1,1,0.45289507537381724,L15G05,2022-09-01_09h05.56.979,t1_Paradigm,2021.1.4,59.98933844633179,
Z,left,Pretarget,0,29,29,29,558.9435918246891,560.9446312223445,left,1,1,0.5217205239314353,L15G05,2022-09-01_09h05.56.979,t1_Paradigm,2021.1.4,59.98933844633179,
Z,right,Target,0,30,30,30,562.4435927870945,564.4437300902355,right,1,1,0.6065802854427602,L15G05,2022-09-01_09h05.56.979,t1_Paradigm,2021.1.4,59.98933844633179,
T,left,Distractor,0,31,31,31,565.9433528273803,567.9450104100106,left,1,1,0.6410218818782596,L15G05,2022-09-01_09h05.56.979,t1_Paradigm,2021.1.4,59.98933844633179,
Z,left,Lure,0,32,32,32,569.4432713437418,571.4452330464264,left,1,1,0.7251575938571477,L15G05,2022-09-01_09h05.56.979,t1_Paradigm,2021.1.4,59.98933844633179,
F,left,Distractor,0,33,33,33,572.9438144611049,574.9457126450434,left,1,1,0.5045550640206784,L15G05,2022-09-01_09h05.56.979,t1_Paradigm,2021.1.4,59.98933844633179,
Y,left,Pretarget,0,34,34,34,576.4435424212134,578.444124676389,left,1,1,0.46225414556101896,L15G05,2022-09-01_09h05.56.979,t1_Paradigm,2021.1.4,59.98933844633179,
Y,right,Target,0,35,35,35,579.9434471431014,581.9437557543861,right,1,1,0.4825413272919832,L15G05,2022-09-01_09h05.56.979,t1_Paradigm,2021.1.4,59.98933844633179,
Y,right,Target,0,36,36,36,583.4437281654245,585.44372912783,right,1,1,0.43850743779330514,L15G05,2022-09-01_09h05.56.979,t1_Paradigm,2021.1.4,59.98933844633179,
W,left,Distractor,0,37,37,37,586.9436367369344,588.9450620590942,left,1,1,0.5372219851851696,L15G05,2022-09-01_09h05.56.979,t1_Paradigm,2021.1.4,59.98933844633179,
Q,left,Distractor,0,38,38,38,590.4436652882869,592.4450582094723,left,1,1,0.49314671226602513,L15G05,2022-09-01_09h05.56.979,t1_Paradigm,2021.1.4,59.98933844633179,
P,left,Pretarget,0,39,39,39,593.9435340803757,595.9450630214997,left,1,1,0.5774697724555153,L15G05,2022-09-01_09h05.56.979,t1_Paradigm,2021.1.4,59.98933844633179,
P,right,Target,0,40,40,40,597.4436348121235,599.4436861403956,right,1,1,0.6626955687534064,L15G05,2022-09-01_09h05.56.979,t1_Paradigm,2021.1.4,59.98933844633179,
J,left,Distractor,0,41,41,41,600.9435911830806,602.9450800240011,left,1,1,0.6010974627715768,L15G05,2022-09-01_09h05.56.979,t1_Paradigm,2021.1.4,59.98933844633179,
P,left,Lure,0,42,42,42,604.4437673032371,606.4449099990743,left,1,1,0.6054741610132623,L15G05,2022-09-01_09h05.56.979,t1_Paradigm,2021.1.4,59.98933844633179,
L,left,Distractor,0,43,43,43,607.943566160553,609.9452298384131,left,1,1,0.41697105405910406,L15G05,2022-09-01_09h05.56.979,t1_Paradigm,2021.1.4,59.98933844633179,
Z,left,Distractor,0,44,44,44,611.4437243158027,613.4446334679669,left,1,1,0.3737106175685767,L15G05,2022-09-01_09h05.56.979,t1_Paradigm,2021.1.4,59.98933844633179,
F,left,Pretarget,0,45,45,45,614.9434763360623,616.9442186712986,left,1,1,0.3939252981072059,L15G05,2022-09-01_09h05.56.979,t1_Paradigm,2021.1.4,59.98933844633179,
F,right,Target,0,46,46,46,618.443468316007,620.4437082757213,right,1,1,0.6705532867636066,L15G05,2022-09-01_09h05.56.979,t1_Paradigm,2021.1.4,59.98933844633179,
G,left,Pretarget,0,47,47,47,621.9437942505901,623.943853278106,left,1,1,0.5787109544035047,L15G05,2022-09-01_09h05.56.979,t1_Paradigm,2021.1.4,59.98933844633179,
G,right,Target,0,48,48,48,625.4436110727984,627.4435446668358,right,1,1,0.7267606401874218,L15G05,2022-09-01_09h05.56.979,t1_Paradigm,2021.1.4,59.98933844633179,
V,left,Distractor,0,49,49,49,628.9437932881847,630.9451255778404,left,1,1,0.4731251543853432,L15G05,2022-09-01_09h05.56.979,t1_Paradigm,2021.1.4,59.98933844633179,
G,left,Lure,0,50,50,50,632.4435838046484,634.4451868509786,left,1,1,0.7811917143408209,L15G05,2022-09-01_09h05.56.979,t1_Paradigm,2021.1.4,59.98933844633179,
Q,left,Pretarget,0,51,51,51,635.943551724471,637.9451573372207,left,1,1,0.5291785229637753,L15G05,2022-09-01_09h05.56.979,t1_Paradigm,2021.1.4,59.98933844633179,
Q,right,Target,0,52,52,52,639.4435754637962,641.4436723459221,right,1,1,0.6306259804405272,L15G05,2022-09-01_09h05.56.979,t1_Paradigm,2021.1.4,59.98933844633179,
Y,left,Distractor,0,53,53,53,642.9434384814522,644.9450553222559,left,1,1,0.5531096917547984,L15G05,2022-09-01_09h05.56.979,t1_Paradigm,2021.1.4,59.98933844633179,
V,left,Distractor,0,54,54,54,646.443619413636,648.4454922542354,left,1,1,0.7968997719144681,L15G05,2022-09-01_09h05.56.979,t1_Paradigm,2021.1.4,59.98933844633179,
B,left,Distractor,0,55,55,55,649.9436316041101,651.9455852867395,left,1,1,0.4967756216356065,L15G05,2022-09-01_09h05.56.979,t1_Paradigm,2021.1.4,59.98933844633179,
J,left,Pretarget,0,56,56,56,653.443223865077,655.4441978191899,left,1,1,0.4539498715166701,L15G05,2022-09-01_09h05.56.979,t1_Paradigm,2021.1.4,59.98933844633179,
J,right,Target,0,57,57,57,656.9436861403956,658.9434333486279,right,1,1,0.6346013557049446,L15G05,2022-09-01_09h05.56.979,t1_Paradigm,2021.1.4,59.98933844633179,
H,left,Distractor,0,58,58,58,660.4436052983656,662.4444810871355,left,1,1,0.5577991717000259,L15G05,2022-09-01_09h05.56.979,t1_Paradigm,2021.1.4,59.98933844633179,
J,left,Lure,0,59,59,59,663.9436662506923,665.9450168260519,left,1,1,0.4972407841705717,L15G05,2022-09-01_09h05.56.979,t1_Paradigm,2021.1.4,59.98933844633179,
D,left,Pretarget,0,60,60,60,667.4437076341128,669.4440871425904,left,1,1,0.4701587006129557,L15G05,2022-09-01_09h05.56.979,t1_Paradigm,2021.1.4,59.98933844633179,
D,right,Target,0,61,61,61,670.9436107519869,672.943619413636,left,0,1,0.6342940276372246,L15G05,2022-09-01_09h05.56.979,t1_Paradigm,2021.1.4,59.98933844633179,
R,left,Distractor,0,62,62,62,674.4436508522049,676.4450440942019,left,1,1,0.49301133392145857,L15G05,2022-09-01_09h05.56.979,t1_Paradigm,2021.1.4,59.98933844633179,
F,left,Distractor,0,63,63,63,677.9435514036595,679.9448201745836,left,1,1,0.4493858250643825,L15G05,2022-09-01_09h05.56.979,t1_Paradigm,2021.1.4,59.98933844633179,
F,left,Distractor,0,0,0,0,828.2901805793081,830.293444095485,left,1,2,0.6445760444476036,L15G05,2022-09-01_09h05.56.979,t1_Paradigm,2021.1.4,59.98933844633179,
N,left,Pretarget,0,1,1,1,831.793444737079,833.7939355637645,left,1,2,0.45612202014308423,L15G05,2022-09-01_09h05.56.979,t1_Paradigm,2021.1.4,59.98933844633179,
V,left,Distractor,0,2,2,2,835.2932169678388,837.2952672118117,left,1,2,0.6507174731086707,L15G05,2022-09-01_09h05.56.979,t1_Paradigm,2021.1.4,59.98933844633179,
N,right,Target,0,3,3,3,838.7935201255023,840.795231923621,right,1,2,1.454851003625663,L15G05,2022-09-01_09h05.56.979,t1_Paradigm,2021.1.4,59.98933844633179,
N,left,Lure,0,4,4,4,842.2937199849839,844.2932326871232,left,1,2,1.4447701295139268,L15G05,2022-09-01_09h05.56.979,t1_Paradigm,2021.1.4,59.98933844633179,
X,left,Distractor,0,5,5,5,845.7934216393624,847.795477978565,left,1,2,0.5505044607562013,L15G05,2022-09-01_09h05.56.979,t1_Paradigm,2021.1.4,59.98933844633179,
G,left,Pretarget,0,6,6,6,849.2932204966637,851.2953252769366,left,1,2,0.922767620839295,L15G05,2022-09-01_09h05.56.979,t1_Paradigm,2021.1.4,59.98933844633179,
H,left,Pretarget,0,7,7,7,852.7931759052153,854.7944812475325,left,1,2,0.6396527000324568,L15G05,2022-09-01_09h05.56.979,t1_Paradigm,2021.1.4,59.98933844633179,
G,right,Target,0,8,8,8,856.2933741606976,858.2947696483025,right,1,2,1.2032564585388172,L15G05,2022-09-01_09h05.56.979,t1_Paradigm,2021.1.4,59.98933844633179,
H,right,Target,0,9,9,9,859.7935753033962,861.7943497188098,right,1,2,1.2077104700001655,L15G05,2022-09-01_09h05.56.979,t1_Paradigm,2021.1.4,59.98933844633179,
T,left,Pretarget,0,10,10,10,863.2935063310142,865.2942191525071,left,1,2,0.9239276399603114,L15G05,2022-09-01_09h05.56.979,t1_Paradigm,2021.1.4,59.98933844633179,
K,left,Distractor,0,11,11,11,866.7931967573386,868.7941793730861,left,1,2,1.0239228279242525,L15G05,2022-09-01_09h05.56.979,t1_Paradigm,2021.1.4,59.98933844633179,
T,right,Target,0,12,12,12,870.2934113736992,872.2944629618287,right,1,2,0.6598096362431534,L15G05,2022-09-01_09h05.56.979,t1_Paradigm,2021.1.4,59.98933844633179,
T,left,Lure,0,13,13,13,873.7931617899449,875.7934501907148,left,1,2,0.984504313179059,L15G05,2022-09-01_09h05.56.979,t1_Paradigm,2021.1.4,59.98933844633179,
J,left,Distractor,0,14,14,14,877.2932509728271,879.2952601541765,None,0,2,,L15G05,2022-09-01_09h05.56.979,t1_Paradigm,2021.1.4,59.98933844633179,
Q,left,Pretarget,0,15,15,15,880.7932766369631,882.7938791026536,left,1,2,0.6401993462059181,L15G05,2022-09-01_09h05.56.979,t1_Paradigm,2021.1.4,59.98933844633179,
M,left,Distractor,0,16,16,16,884.2935903810721,886.2949111218768,left,1,2,0.6430394040799001,L15G05,2022-09-01_09h05.56.979,t1_Paradigm,2021.1.4,59.98933844633179,
Q,right,Target,0,17,17,17,887.7931858500815,889.7941476137203,right,1,2,0.8398121384961996,L15G05,2022-09-01_09h05.56.979,t1_Paradigm,2021.1.4,59.98933844633179,
R,left,Distractor,0,18,18,18,891.293473288446,893.2943253378762,left,1,2,0.7638145252567483,L15G05,2022-09-01_09h05.56.979,t1_Paradigm,2021.1.4,59.98933844633179,
W,left,Distractor,0,19,19,19,894.7932362159481,896.7945332174131,left,1,2,0.7194187713903375,L15G05,2022-09-01_09h05.56.979,t1_Paradigm,2021.1.4,59.98933844633179,
C,left,Pretarget,0,20,20,20,898.2931566571206,900.2948613976041,left,1,2,0.7712282536522252,L15G05,2022-09-01_09h05.56.979,t1_Paradigm,2021.1.4,59.98933844633179,
T,left,Distractor,0,21,21,21,901.7934896493243,903.7956518531137,left,1,2,0.5823087460157694,L15G05,2022-09-01_09h05.56.979,t1_Paradigm,2021.1.4,59.98933844633179,
C,right,Target,0,22,22,22,905.2935602257203,907.2942470622511,right,1,2,0.7638690615567612,L15G05,2022-09-01_09h05.56.979,t1_Paradigm,2021.1.4,59.98933844633179,
F,left,Pretarget,0,23,23,23,908.7932535392465,910.794810710926,left,1,2,0.7510944151581498,L15G05,2022-09-01_09h05.56.979,t1_Paradigm,2021.1.4,59.98933844633179,
C,right,Target,0,24,24,24,912.2933465717506,914.2943968766776,right,1,2,0.9477093151217559,L15G05,2022-09-01_09h05.56.979,t1_Paradigm,2021.1.4,59.98933844633179,
F,right,Target,0,25,25,25,915.7934052784694,917.7952640037984,right,1,2,1.382545818501967,L15G05,2022-09-01_09h05.56.979,t1_Paradigm,2021.1.4,59.98933844633179,
H,left,Distractor,0,26,26,26,919.2930318652361,921.2956868204928,left,1,2,0.6183049477258464,L15G05,2022-09-01_09h05.56.979,t1_Paradigm,2021.1.4,59.98933844633179,
H,left,Lure,0,27,27,27,922.7931909829058,924.7933311732631,left,1,2,1.2328972568211611,L15G05,2022-09-01_09h05.56.979,t1_Paradigm,2021.1.4,59.98933844633179,
P,left,Distractor,0,28,28,28,926.2932551432459,928.2955710110691,left,1,2,1.442370532444329,L15G05,2022-09-01_09h05.56.979,t1_Paradigm,2021.1.4,59.98933844633179,
G,left,Pretarget,0,29,29,29,929.793254501652,931.7951071317366,left,1,2,0.9028605891799089,L15G05,2022-09-01_09h05.56.979,t1_Paradigm,2021.1.4,59.98933844633179,
K,left,Distractor,0,30,30,30,933.2933603662241,935.2959129857336,left,1,2,0.826043969093007,L15G05,2022-09-01_09h05.56.979,t1_Paradigm,2021.1.4,59.98933844633179,
G,right,Target,0,31,31,31,936.7930402060738,938.7951844449562,right,1,2,1.0069036536006024,L15G05,2022-09-01_09h05.56.979,t1_Paradigm,2021.1.4,59.98933844633179,
M,left,Pretarget,0,32,32,32,940.2933417597233,942.2949656581768,left,1,2,1.074989654138335,L15G05,2022-09-01_09h05.56.979,t1_Paradigm,2021.1.4,59.98933844633179,
B,left,Distractor,0,33,33,33,943.7930764566845,945.8061741504353,left,1,2,1.1480243424302898,L15G05,2022-09-01_09h05.56.979,t1_Paradigm,2021.1.4,59.98933844633179,
M,right,Target,0,34,34,34,947.2930241659924,949.29444210972,right,1,2,0.6835188102122629,L15G05,2022-09-01_09h05.56.979,t1_Paradigm,2021.1.4,59.98933844633179,
M,left,Lure,0,35,35,35,950.7935185214883,952.7929176598118,left,1,2,1.2971891350898659,L15G05,2022-09-01_09h05.56.979,t1_Paradigm,2021.1.4,59.98933844633179,
T,left,Distractor,0,36,36,36,954.2933395141154,956.2936154036142,left,1,2,0.9002508669655072,L15G05,2022-09-01_09h05.56.979,t1_Paradigm,2021.1.4,59.98933844633179,
F,left,Distractor,0,37,37,37,957.7933311732631,959.7948482447246,left,1,2,0.8871056945499731,L15G05,2022-09-01_09h05.56.979,t1_Paradigm,2021.1.4,59.98933844633179,
X,left,Distractor,0,38,38,38,961.293170451594,963.2942108116549,left,1,2,0.6995775040995795,L15G05,2022-09-01_09h05.56.979,t1_Paradigm,2021.1.4,59.98933844633179,
C,left,Distractor,0,39,39,39,964.7931271433481,966.7941447265039,left,1,2,0.6878069671802223,L15G05,2022-09-01_09h05.56.979,t1_Paradigm,2021.1.4,59.98933844633179,
R,left,Distractor,0,40,40,40,968.2931961157301,970.2951353622921,left,1,2,0.9629483605531277,L15G05,2022-09-01_09h05.56.979,t1_Paradigm,2021.1.4,59.98933844633179,
B,left,Pretarget,0,41,41,41,971.7933610078326,973.7943904606364,left,1,2,0.5995633888232987,L15G05,2022-09-01_09h05.56.979,t1_Paradigm,2021.1.4,59.98933844633179,
H,left,Distractor,0,42,42,42,975.2932012485544,977.2954856778088,left,1,2,0.6663863928843057,L15G05,2022-09-01_09h05.56.979,t1_Paradigm,2021.1.4,59.98933844633179,
B,right,Target,0,43,43,43,978.7933003763028,980.7953255977336,right,1,2,0.4948206557746744,L15G05,2022-09-01_09h05.56.979,t1_Paradigm,2021.1.4,59.98933844633179,
W,left,Pretarget,0,44,44,44,982.2931123864691,984.2948668512254,left,1,2,0.6593011654767906,L15G05,2022-09-01_09h05.56.979,t1_Paradigm,2021.1.4,59.98933844633179,
L,left,Pretarget,0,45,45,45,985.7931245769432,987.7944956836145,left,1,2,0.6635617334832205,L15G05,2022-09-01_09h05.56.979,t1_Paradigm,2021.1.4,59.98933844633179,
W,right,Target,0,46,46,46,989.2929731585173,991.2952344900405,right,1,2,0.8267699434509268,L15G05,2022-09-01_09h05.56.979,t1_Paradigm,2021.1.4,59.98933844633179,
L,right,Target,0,47,47,47,992.793281769802,994.7923228933796,right,1,2,1.05762048510951,L15G05,2022-09-01_09h05.56.979,t1_Paradigm,2021.1.4,59.98933844633179,
W,right,Target,0,48,48,48,996.293280486585,998.2939172780607,right,1,2,1.1400142436032183,L15G05,2022-09-01_09h05.56.979,t1_Paradigm,2021.1.4,59.98933844633179,
X,left,Distractor,0,49,49,49,999.7932195342582,1001.7952027306601,left,1,2,0.6311132783157518,L15G05,2022-09-01_09h05.56.979,t1_Paradigm,2021.1.4,59.98933844633179,
R,left,Distractor,0,50,50,50,1003.2932779201801,1005.2938595337473,left,1,2,0.7482039914175402,L15G05,2022-09-01_09h05.56.979,t1_Paradigm,2021.1.4,59.98933844633179,
V,left,Pretarget,0,51,51,51,1006.7932753537607,1008.7940667716757,left,1,2,0.5601006034412421,L15G05,2022-09-01_09h05.56.979,t1_Paradigm,2021.1.4,59.98933844633179,
Z,left,Distractor,0,52,52,52,1010.2933061507356,1012.2939602654951,left,1,2,0.5961032211635029,L15G05,2022-09-01_09h05.56.979,t1_Paradigm,2021.1.4,59.98933844633179,
V,right,Target,0,53,53,53,1013.7932682961255,1015.8060958748101,right,1,2,0.7636438587214798,L15G05,2022-09-01_09h05.56.979,t1_Paradigm,2021.1.4,59.98933844633179,
V,left,Lure,0,54,54,54,1017.2932583512738,1019.2933321356686,None,0,2,,L15G05,2022-09-01_09h05.56.979,t1_Paradigm,2021.1.4,59.98933844633179,
N,left,Distractor,0,55,55,55,1020.7933013387083,1022.7943202050519,left,1,2,0.9279870652680984,L15G05,2022-09-01_09h05.56.979,t1_Paradigm,2021.1.4,59.98933844633179,
B,left,Distractor,0,56,56,56,1024.2928682563506,1026.3065013682208,left,1,2,0.6476156410062686,L15G05,2022-09-01_09h05.56.979,t1_Paradigm,2021.1.4,59.98933844633179,
V,left,Lure,0,57,57,57,1027.7930960255908,1029.793839964841,left,1,2,0.5679669830715284,L15G05,2022-09-01_09h05.56.979,t1_Paradigm,2021.1.4,59.98933844633179,
J,left,Distractor,0,58,58,58,1031.293296526681,1033.2950493874232,left,1,2,0.5228895254986128,L15G05,2022-09-01_09h05.56.979,t1_Paradigm,2021.1.4,59.98933844633179,
H,left,Distractor,0,59,59,59,1034.7931775092293,1036.79522999881,left,1,2,0.5107176655874355,L15G05,2022-09-01_09h05.56.979,t1_Paradigm,2021.1.4,59.98933844633179,
X,left,Pretarget,0,60,60,60,1038.2932455192058,1040.295544063716,left,1,2,0.5944960044143954,L15G05,2022-09-01_09h05.56.979,t1_Paradigm,2021.1.4,59.98933844633179,
P,left,Distractor,0,61,61,61,1041.7930543213588,1043.794261498333,left,1,2,0.535579159433837,L15G05,2022-09-01_09h05.56.979,t1_Paradigm,2021.1.4,59.98933844633179,
X,right,Target,0,62,62,62,1045.2933106419514,1047.2941604457883,right,1,2,0.5398015520477202,L15G05,2022-09-01_09h05.56.979,t1_Paradigm,2021.1.4,59.98933844633179,
Q,left,Distractor,0,63,63,63,1048.793170772391,1050.7952364148514,left,1,2,0.5589598324149847,L15G05,2022-09-01_09h05.56.979,t1_Paradigm,2021.1.4,59.98933844633179,
B,left,Pretarget,0,0,0,0,1071.4918067233666,1073.4956662891927,left,1,2,0.578324388305191,L15G05,2022-09-01_09h05.56.979,t1_Paradigm,2021.1.4,59.98933844633179,
F,left,Distractor,0,1,1,1,1074.9932208174578,1076.9933398349094,left,1,2,0.4565304007846862,L15G05,2022-09-01_09h05.56.979,t1_Paradigm,2021.1.4,59.98933844633179,
B,right,Target,0,2,2,2,1078.4931896997005,1080.494268876777,right,1,2,0.7477603225997882,L15G05,2022-09-01_09h05.56.979,t1_Paradigm,2021.1.4,59.98933844633179,
V,left,Distractor,0,3,3,3,1081.993119444116,1083.9938373984187,left,1,2,0.7679932888277108,L15G05,2022-09-01_09h05.56.979,t1_Paradigm,2021.1.4,59.98933844633179,
G,left,Pretarget,0,4,4,4,1085.4931637147529,1087.4952915927424,left,1,2,0.6265543646732112,L15G05,2022-09-01_09h05.56.979,t1_Paradigm,2021.1.4,59.98933844633179,
B,left,Lure,0,5,5,5,1088.99328369461,1090.9959842037206,left,1,2,0.7264998283790192,L15G05,2022-09-01_09h05.56.979,t1_Paradigm,2021.1.4,59.98933844633179,
G,right,Target,0,6,6,6,1092.493103083223,1094.4942034332198,right,1,2,0.5077438333828468,L15G05,2022-09-01_09h05.56.979,t1_Paradigm,2021.1.4,59.98933844633179,
Y,left,Pretarget,0,7,7,7,1095.9931807172397,1097.9950513122312,left,1,2,0.6387166005297331,L15G05,2022-09-01_09h05.56.979,t1_Paradigm,2021.1.4,59.98933844633179,
P,left,Distractor,0,8,8,8,1099.4932897898398,1101.505773148252,left,1,2,0.6160285385267343,L15G05,2022-09-01_09h05.56.979,t1_Paradigm,2021.1.4,59.98933844633179,
Y,right,Target,0,9,9,9,1102.993079343898,1104.9938829522725,None,0,2,,L15G05,2022-09-01_09h05.56.979,t1_Paradigm,2021.1.4,59.98933844633179,
X,left,Distractor,0,10,10,10,1106.4932217798632,1108.493763293227,left,1,2,0.7961994616925949,L15G05,2022-09-01_09h05.56.979,t1_Paradigm,2021.1.4,59.98933844633179,
Y,right,Target,0,11,11,11,1109.993147033063,1111.9932737497584,left,0,2,0.816463224880863,L15G05,2022-09-01_09h05.56.979,t1_Paradigm,2021.1.4,59.98933844633179,
N,left,Distractor,0,12,12,12,1113.4928919956728,1115.4938354736078,left,1,2,0.548098447630764,L15G05,2022-09-01_09h05.56.979,t1_Paradigm,2021.1.4,59.98933844633179,
Y,right,Target,0,13,13,13,1116.9931630731444,1118.9953486954619,right,1,2,0.7587856370519148,L15G05,2022-09-01_09h05.56.979,t1_Paradigm,2021.1.4,59.98933844633179,
Y,left,Lure,0,14,14,14,1120.4932083062013,1122.4932779201772,left,1,2,1.0525226245372323,L15G05,2022-09-01_09h05.56.979,t1_Paradigm,2021.1.4,59.98933844633179,
K,left,Distractor,0,15,15,15,1123.9932891482313,1125.9946766157955,left,1,2,1.007240495455335,L15G05,2022-09-01_09h05.56.979,t1_Paradigm,2021.1.4,59.98933844633179,
T,left,Pretarget,0,16,16,16,1127.49293017108,1129.4941938091652,left,1,2,0.6116550482984167,L15G05,2022-09-01_09h05.56.979,t1_Paradigm,2021.1.4,59.98933844633179,
J,left,Distractor,0,17,17,17,1130.9930511133425,1132.9948443951143,left,1,2,0.5349083629844245,L15G05,2022-09-01_09h05.56.979,t1_Paradigm,2021.1.4,59.98933844633179,
T,right,Target,0,18,18,18,1134.4933616494382,1136.493774521281,right,1,2,0.7962039529229514,L15G05,2022-09-01_09h05.56.979,t1_Paradigm,2021.1.4,59.98933844633179,
S,left,Pretarget,0,19,19,19,1137.9931637147529,1139.9938925763272,left,1,2,0.5757310269691516,L15G05,2022-09-01_09h05.56.979,t1_Paradigm,2021.1.4,59.98933844633179,
R,left,Distractor,0,20,20,20,1141.4932079853897,1143.4944279944466,left,1,2,0.5955552917876048,L15G05,2022-09-01_09h05.56.979,t1_Paradigm,2021.1.4,59.98933844633179,
S,right,Target,0,21,21,21,1144.99303924368,1146.9950580490695,right,1,2,0.6626849823078373,L15G05,2022-09-01_09h05.56.979,t1_Paradigm,2021.1.4,59.98933844633179,
Q,left,Distractor,0,22,22,22,1148.4931367673998,1150.4940744709165,left,1,2,0.5557688174303621,L15G05,2022-09-01_09h05.56.979,t1_Paradigm,2021.1.4,59.98933844633179,
D,left,Distractor,0,23,23,23,1151.9931402962247,1153.9953570362995,left,1,2,0.686406667547999,L15G05,2022-09-01_09h05.56.979,t1_Paradigm,2021.1.4,59.98933844633179,
F,left,Distractor,0,24,24,24,1155.4928679355362,1157.495466750508,left,1,2,0.6422422117320821,L15G05,2022-09-01_09h05.56.979,t1_Paradigm,2021.1.4,59.98933844633179,
Z,left,Distractor,0,25,25,25,1158.9930876847357,1160.9935335991759,left,1,2,0.5361578857846325,L15G05,2022-09-01_09h05.56.979,t1_Paradigm,2021.1.4,59.98933844633179,
P,left,Distractor,0,26,26,26,1162.4931714139966,1164.4949589213356,left,1,2,1.0027771807363024,L15G05,2022-09-01_09h05.56.979,t1_Paradigm,2021.1.4,59.98933844633179,
H,left,Distractor,0,27,27,27,1165.9927283867873,1167.9938255287561,left,1,2,0.8323432322067674,L15G05,2022-09-01_09h05.56.979,t1_Paradigm,2021.1.4,59.98933844633179,
Z,left,Pretarget,0,28,28,28,1169.4931188025075,1171.4952415476728,left,1,2,0.946719641724485,L15G05,2022-09-01_09h05.56.979,t1_Paradigm,2021.1.4,59.98933844633179,
J,left,Pretarget,0,29,29,29,1172.9931075744535,1174.9954956226575,left,1,2,0.6622689024370629,L15G05,2022-09-01_09h05.56.979,t1_Paradigm,2021.1.4,59.98933844633179,
Z,right,Target,0,30,30,30,1176.4931643563614,1178.4949541093083,right,1,2,0.4591125340521103,L15G05,2022-09-01_09h05.56.979,t1_Paradigm,2021.1.4,59.98933844633179,
J,right,Target,0,31,31,31,1179.9930238451925,1181.9943680045108,right,1,2,1.0554942111339187,L15G05,2022-09-01_09h05.56.979,t1_Paradigm,2021.1.4,59.98933844633179,
V,left,Pretarget,0,32,32,32,1183.4930456597067,1185.4936676943034,left,1,2,0.7242032086651307,L15G05,2022-09-01_09h05.56.979,t1_Paradigm,2021.1.4,59.98933844633179,
Z,left,Lure,0,33,33,33,1186.9931463914545,1188.9949393524294,left,1,2,0.7268889608967584,L15G05,2022-09-01_09h05.56.979,t1_Paradigm,2021.1.4,59.98933844633179,
V,right,Target,0,34,34,34,1190.4933209076116,1192.494361588484,right,1,2,0.6833558429207187,L15G05,2022-09-01_09h05.56.979,t1_Paradigm,2021.1.4,59.98933844633179,
X,left,Distractor,0,35,35,35,1193.9929933690291,1195.994947051673,left,1,2,0.6066463706083596,L15G05,2022-09-01_09h05.56.979,t1_Paradigm,2021.1.4,59.98933844633179,
S,left,Distractor,0,36,36,36,1197.4931078952504,1199.4941094383103,left,1,2,0.611745835194597,L15G05,2022-09-01_09h05.56.979,t1_Paradigm,2021.1.4,59.98933844633179,
Q,left,Distractor,0,37,37,37,1200.9932297999185,1202.994317959441,left,1,2,0.5674023720057448,L15G05,2022-09-01_09h05.56.979,t1_Paradigm,2021.1.4,59.98933844633179,
P,left,Distractor,0,38,38,38,1204.492656527189,1206.4944228616077,left,1,2,0.5074528662080411,L15G05,2022-09-01_09h05.56.979,t1_Paradigm,2021.1.4,59.98933844633179,
S,left,Lure,0,39,39,39,1207.9921409987874,1209.992570873117,left,1,2,0.4333880835038144,L15G05,2022-09-01_09h05.56.979,t1_Paradigm,2021.1.4,59.98933844633179,
K,left,Pretarget,0,40,40,40,1211.492926321458,1213.4945450870728,left,1,2,0.6116896948806243,L15G05,2022-09-01_09h05.56.979,t1_Paradigm,2021.1.4,59.98933844633179,
L,left,Distractor,0,41,41,41,1214.9930151835433,1216.9944616786233,left,1,2,0.679371164413169,L15G05,2022-09-01_09h05.56.979,t1_Paradigm,2021.1.4,59.98933844633179,
K,right,Target,0,42,42,42,1218.4930187123682,1220.4949691869842,right,1,2,0.4268427654315019,L15G05,2022-09-01_09h05.56.979,t1_Paradigm,2021.1.4,59.98933844633179,
B,left,Distractor,0,43,43,43,1221.993175905227,1223.9957795322116,left,1,2,0.5582226300030015,L15G05,2022-09-01_09h05.56.979,t1_Paradigm,2021.1.4,59.98933844633179,
N,left,Distractor,0,44,44,44,1225.4928374593728,1227.4953384297987,left,1,2,0.5945861497020815,L15G05,2022-09-01_09h05.56.979,t1_Paradigm,2021.1.4,59.98933844633179,
S,left,Pretarget,0,45,45,45,1228.9930639454105,1230.9937530275638,left,1,2,0.4720292956189951,L15G05,2022-09-01_09h05.56.979,t1_Paradigm,2021.1.4,59.98933844633179,
Z,left,Distractor,0,46,46,46,1232.4930369980575,1234.4955046051036,left,1,2,0.58617312386923,L15G05,2022-09-01_09h05.56.979,t1_Paradigm,2021.1.4,59.98933844633179,
S,right,Target,0,47,47,47,1235.993106932845,1237.9946073226165,right,1,2,0.8313920550281182,L15G05,2022-09-01_09h05.56.979,t1_Paradigm,2021.1.4,59.98933844633179,
C,left,Distractor,0,48,48,48,1239.4930020306783,1241.4937430827122,left,1,2,0.6285770196845988,L15G05,2022-09-01_09h05.56.979,t1_Paradigm,2021.1.4,59.98933844633179,
T,left,Pretarget,0,49,49,49,1242.9929625720542,1244.9942862000753,left,1,2,0.6476721021172125,L15G05,2022-09-01_09h05.56.979,t1_Paradigm,2021.1.4,59.98933844633179,
S,left,Lure,0,50,50,50,1246.4929757249338,1248.4940959646337,left,1,2,0.8275786846497795,L15G05,2022-09-01_09h05.56.979,t1_Paradigm,2021.1.4,59.98933844633179,
T,right,Target,0,51,51,51,1249.9929856697854,1252.005747804913,right,1,2,0.7239064670429798,L15G05,2022-09-01_09h05.56.979,t1_Paradigm,2021.1.4,59.98933844633179,
N,left,Pretarget,0,52,52,52,1253.4929465319728,1255.4952280739963,left,1,2,0.7225504380476195,L15G05,2022-09-01_09h05.56.979,t1_Paradigm,2021.1.4,59.98933844633179,
B,left,Distractor,0,53,53,53,1256.9930174291512,1258.993774521281,left,1,2,0.5359429486125009,L15G05,2022-09-01_09h05.56.979,t1_Paradigm,2021.1.4,59.98933844633179,
N,right,Target,0,54,54,54,1260.4930193539622,1262.4950121744187,right,1,2,0.5867130332044326,L15G05,2022-09-01_09h05.56.979,t1_Paradigm,2021.1.4,59.98933844633179,
N,left,Lure,0,55,55,55,1263.9929346623103,1265.9929523064056,left,1,2,0.880851022870047,L15G05,2022-09-01_09h05.56.979,t1_Paradigm,2021.1.4,59.98933844633179,
X,left,Distractor,0,56,56,56,1267.4926956650015,1269.494264706358,left,1,2,0.8353751295362599,L15G05,2022-09-01_09h05.56.979,t1_Paradigm,2021.1.4,59.98933844633179,
W,left,Distractor,0,57,57,57,1270.9930389228684,1272.9954179886408,left,1,2,0.5502314584737178,L15G05,2022-09-01_09h05.56.979,t1_Paradigm,2021.1.4,59.98933844633179,
S,left,Distractor,0,58,58,58,1274.493144787455,1276.4956098280818,left,1,2,0.5381815032160375,L15G05,2022-09-01_09h05.56.979,t1_Paradigm,2021.1.4,59.98933844633179,
L,left,Distractor,0,59,59,59,1277.9928615195095,1279.9950221192848,left,1,2,0.5273018327425234,L15G05,2022-09-01_09h05.56.979,t1_Paradigm,2021.1.4,59.98933844633179,
K,left,Pretarget,0,60,60,60,1281.493117519305,1283.49379986462,left,1,2,0.8198601945914561,L15G05,2022-09-01_09h05.56.979,t1_Paradigm,2021.1.4,59.98933844633179,
V,left,Pretarget,0,61,61,61,1284.9929930482176,1286.995027893703,left,1,2,1.1266278282710118,L15G05,2022-09-01_09h05.56.979,t1_Paradigm,2021.1.4,59.98933844633179,
K,right,Target,0,62,62,62,1288.4930597749917,1290.4946175882797,None,0,2,,L15G05,2022-09-01_09h05.56.979,t1_Paradigm,2021.1.4,59.98933844633179,
V,right,Target,0,63,63,63,1291.9930142211379,1293.9950538786507,right,1,2,0.6385571620630799,L15G05,2022-09-01_09h05.56.979,t1_Paradigm,2021.1.4,59.98933844633179,
R,left,Distractor,0,0,0,0,1398.7715426393552,1400.7609356503817,left,1,3,0.576642103944323,L15G05,2022-09-01_09h05.56.979,t1_Paradigm,2021.1.4,59.98933844633179,
P,left,Lure,0,1,1,1,1402.2595250850864,1404.2603543576115,left,1,3,0.8533053808059776,L15G05,2022-09-01_09h05.56.979,t1_Paradigm,2021.1.4,59.98933844633179,
V,left,Distractor,0,2,2,2,1405.759561656494,1407.7617254642828,left,1,3,0.4559510328108445,L15G05,2022-09-01_09h05.56.979,t1_Paradigm,2021.1.4,59.98933844633179,
P,left,Pretarget,0,3,3,3,1409.259600473495,1411.260888171717,left,1,3,1.1326531266968232,L15G05,2022-09-01_09h05.56.979,t1_Paradigm,2021.1.4,59.98933844633179,
Z,left,Distractor,0,4,4,4,1412.7595565236552,1414.7608795100678,left,1,3,0.7526705141499406,L15G05,2022-09-01_09h05.56.979,t1_Paradigm,2021.1.4,59.98933844633179,
L,left,Pretarget,0,5,5,5,1416.2595266891003,1418.260423329979,left,1,3,0.677121381755569,L15G05,2022-09-01_09h05.56.979,t1_Paradigm,2021.1.4,59.98933844633179,
P,right,Target,0,6,6,6,1419.7595789797779,1421.7614935246093,right,1,3,0.6642816125968238,L15G05,2022-09-01_09h05.56.979,t1_Paradigm,2021.1.4,59.98933844633179,
S,left,Distractor,0,7,7,7,1423.2594683031784,1425.26121314388,left,1,3,0.6203773270099191,L15G05,2022-09-01_09h05.56.979,t1_Paradigm,2021.1.4,59.98933844633179,
L,right,Target,0,8,8,8,1426.7594978169363,1428.7608034800505,left,0,3,0.8812128872523317,L15G05,2022-09-01_09h05.56.979,t1_Paradigm,2021.1.4,59.98933844633179,
D,left,Distractor,0,9,9,9,1430.25946862399,1432.2608304274036,left,1,3,0.6606985778780654,L15G05,2022-09-01_09h05.56.979,t1_Paradigm,2021.1.4,59.98933844633179,
G,left,Distractor,0,10,10,10,1433.7593505689438,1435.7615997099929,left,1,3,0.6640528809512034,L15G05,2022-09-01_09h05.56.979,t1_Paradigm,2021.1.4,59.98933844633179,
M,left,Pretarget,0,11,11,11,1437.258509105959,1439.2610623670626,left,1,3,0.6205319534637965,L15G05,2022-09-01_09h05.56.979,t1_Paradigm,2021.1.4,59.98933844633179,
Y,left,Distractor,0,12,12,12,1440.7593784786877,1442.7613523718464,left,1,3,0.8001478896039771,L15G05,2022-09-01_09h05.56.979,t1_Paradigm,2021.1.4,59.98933844633179,
V,left,Distractor,0,13,13,13,1444.2594843432744,1446.2613045723847,left,1,3,0.8681864114769269,L15G05,2022-09-01_09h05.56.979,t1_Paradigm,2021.1.4,59.98933844633179,
M,right,Target,0,14,14,14,1447.7596655962552,1449.7602286033216,left,0,3,0.9532643181883032,L15G05,2022-09-01_09h05.56.979,t1_Paradigm,2021.1.4,59.98933844633179,
S,left,Pretarget,0,15,15,15,1451.25968580677,1453.2607576053997,left,1,3,0.7166678964131279,L15G05,2022-09-01_09h05.56.979,t1_Paradigm,2021.1.4,59.98933844633179,
Q,left,Distractor,0,16,16,16,1454.7594163332978,1456.7596999220405,left,1,3,1.121860072700656,L15G05,2022-09-01_09h05.56.979,t1_Paradigm,2021.1.4,59.98933844633179,
R,left,Pretarget,0,17,17,17,1458.2595003833558,1460.2599530346197,left,1,3,1.013712349900743,L15G05,2022-09-01_09h05.56.979,t1_Paradigm,2021.1.4,59.98933844633179,
S,right,Target,0,18,18,18,1461.7594073508517,1463.7606764425582,right,1,3,0.5528357270377455,L15G05,2022-09-01_09h05.56.979,t1_Paradigm,2021.1.4,59.98933844633179,
F,left,Distractor,0,19,19,19,1465.2595417667762,1467.2608355602279,left,1,3,1.4528158373432234,L15G05,2022-09-01_09h05.56.979,t1_Paradigm,2021.1.4,59.98933844633179,
R,right,Target,0,20,20,20,1468.7593913107557,1470.761462406852,None,0,3,,L15G05,2022-09-01_09h05.56.979,t1_Paradigm,2021.1.4,59.98933844633179,
P,left,Distractor,0,21,21,21,1472.2595452956011,1474.2608387682412,left,1,3,0.8366897750820499,L15G05,2022-09-01_09h05.56.979,t1_Paradigm,2021.1.4,59.98933844633179,
L,left,Distractor,0,22,22,22,1475.759235721911,1477.7601612349536,left,1,3,0.7773016723367618,L15G05,2022-09-01_09h05.56.979,t1_Paradigm,2021.1.4,59.98933844633179,
R,right,Target,0,23,23,23,1479.259483380869,1481.2606337759353,left,0,3,0.7652562083094381,L15G05,2022-09-01_09h05.56.979,t1_Paradigm,2021.1.4,59.98933844633179,
H,left,Pretarget,0,24,24,24,1482.7593088647118,1484.760585655662,left,1,3,0.9768089208664605,L15G05,2022-09-01_09h05.56.979,t1_Paradigm,2021.1.4,59.98933844633179,
G,left,Pretarget,0,25,25,25,1486.2586213865725,1488.2603110493656,left,1,3,0.8051716449699597,L15G05,2022-09-01_09h05.56.979,t1_Paradigm,2021.1.4,59.98933844633179,
T,left,Distractor,0,26,26,26,1489.7593111103197,1491.7609173646779,left,1,3,0.7288397563243052,L15G05,2022-09-01_09h05.56.979,t1_Paradigm,2021.1.4,59.98933844633179,
H,right,Target,0,27,27,27,1493.2593967643916,1495.2597907089366,right,1,3,0.49380531824135687,L15G05,2022-09-01_09h05.56.979,t1_Paradigm,2021.1.4,59.98933844633179,
G,right,Target,0,28,28,28,1496.7591571254889,1498.7604419364798,right,1,3,0.46547852392541245,L15G05,2022-09-01_09h05.56.979,t1_Paradigm,2021.1.4,59.98933844633179,
D,left,Distractor,0,29,29,29,1500.2594031804329,1502.2609670889506,left,1,3,0.5967018372321036,L15G05,2022-09-01_09h05.56.979,t1_Paradigm,2021.1.4,59.98933844633179,
N,left,Pretarget,0,30,30,30,1503.7594342981902,1505.7608355602279,left,1,3,1.0165379716927418,L15G05,2022-09-01_09h05.56.979,t1_Paradigm,2021.1.4,59.98933844633179,
V,left,Distractor,0,31,31,31,1507.2594156916894,1509.261748882811,left,1,3,0.6996647621854208,L15G05,2022-09-01_09h05.56.979,t1_Paradigm,2021.1.4,59.98933844633179,
R,left,Distractor,0,32,32,32,1510.7593242631992,1512.7615002614475,left,1,3,1.0880353780230507,L15G05,2022-09-01_09h05.56.979,t1_Paradigm,2021.1.4,59.98933844633179,
N,right,Target,0,33,33,33,1514.2593816867156,1516.272124573734,right,1,3,0.47333880835503805,L15G05,2022-09-01_09h05.56.979,t1_Paradigm,2021.1.4,59.98933844633179,
Z,left,Distractor,0,34,34,34,1517.759164503921,1519.7612458656658,left,1,3,0.6162162075488595,L15G05,2022-09-01_09h05.56.979,t1_Paradigm,2021.1.4,59.98933844633179,
N,left,Lure,0,35,35,35,1521.2595719221426,1523.2609471992328,left,1,3,0.8608535251260037,L15G05,2022-09-01_09h05.56.979,t1_Paradigm,2021.1.4,59.98933844633179,
Y,left,Pretarget,0,36,36,36,1524.759384573932,1526.7601849742787,left,1,3,1.1053326874534832,L15G05,2022-09-01_09h05.56.979,t1_Paradigm,2021.1.4,59.98933844633179,
Y,left,Lure,0,37,37,37,1528.2592668396828,1530.2593768746883,left,1,3,1.1422223220288288,L15G05,2022-09-01_09h05.56.979,t1_Paradigm,2021.1.4,59.98933844633179,
B,left,Distractor,0,38,38,38,1531.7595266891003,1533.7600880921527,left,1,3,1.0495536043745233,L15G05,2022-09-01_09h05.56.979,t1_Paradigm,2021.1.4,59.98933844633179,
Y,right,Target,0,39,39,39,1535.2595353507495,1537.2605150792806,None,0,3,,L15G05,2022-09-01_09h05.56.979,t1_Paradigm,2021.1.4,59.98933844633179,
J,left,Distractor,0,40,40,40,1538.7593643634173,1540.7602221872949,left,1,3,0.9453697079734411,L15G05,2022-09-01_09h05.56.979,t1_Paradigm,2021.1.4,59.98933844633179,
X,left,Distractor,0,41,41,41,1542.2594910801126,1544.2609959611,left,1,3,0.9004430272034369,L15G05,2022-09-01_09h05.56.979,t1_Paradigm,2021.1.4,59.98933844633179,
W,left,Pretarget,0,42,42,42,1545.7594881928962,1547.7615041110694,left,1,3,0.6159704734163824,L15G05,2022-09-01_09h05.56.979,t1_Paradigm,2021.1.4,59.98933844633179,
S,left,Pretarget,0,43,43,43,1549.2592424587492,1551.2606764425582,left,1,3,0.5408464033243945,L15G05,2022-09-01_09h05.56.979,t1_Paradigm,2021.1.4,59.98933844633179,
R,left,Distractor,0,44,44,44,1552.7593781578908,1554.7614691436756,left,1,3,0.8960133966902504,L15G05,2022-09-01_09h05.56.979,t1_Paradigm,2021.1.4,59.98933844633179,
W,right,Target,0,45,45,45,1556.2595420875878,1558.2609943571006,right,1,3,1.0286135910864687,L15G05,2022-09-01_09h05.56.979,t1_Paradigm,2021.1.4,59.98933844633179,
S,right,Target,0,46,46,46,1559.7591208748927,1561.7602943676757,right,1,3,1.1453899184853071,L15G05,2022-09-01_09h05.56.979,t1_Paradigm,2021.1.4,59.98933844633179,
D,left,Distractor,0,47,47,47,1563.259124403703,1565.2597438718803,left,1,3,0.8457909206626937,L15G05,2022-09-01_09h05.56.979,t1_Paradigm,2021.1.4,59.98933844633179,
T,left,Distractor,0,48,48,48,1566.7593396616867,1568.7594009348104,left,1,3,1.2981775252701482,L15G05,2022-09-01_09h05.56.979,t1_Paradigm,2021.1.4,59.98933844633179,
S,right,Target,0,49,49,49,1570.2590480528888,1572.2613536550489,right,1,3,0.7721701275731903,L15G05,2022-09-01_09h05.56.979,t1_Paradigm,2021.1.4,59.98933844633179,
K,left,Distractor,0,50,50,50,1573.7591157420538,1575.7611502667423,left,1,3,1.2083947401406476,L15G05,2022-09-01_09h05.56.979,t1_Paradigm,2021.1.4,59.98933844633179,
S,left,Lure,0,51,51,51,1577.2590105190902,1579.260902928596,left,1,3,1.1164712449390208,L15G05,2022-09-01_09h05.56.979,t1_Paradigm,2021.1.4,59.98933844633179,
T,left,Pretarget,0,52,52,52,1580.759399972405,1582.7607739662926,left,1,3,1.1846210850053467,L15G05,2022-09-01_09h05.56.979,t1_Paradigm,2021.1.4,59.98933844633179,
V,left,Distractor,0,53,53,53,1584.2593778370938,1586.260460863792,left,1,3,1.0932047773821978,L15G05,2022-09-01_09h05.56.979,t1_Paradigm,2021.1.4,59.98933844633179,
B,left,Distractor,0,54,54,54,1587.7593842531205,1589.7607466981426,left,1,3,0.824493855034234,L15G05,2022-09-01_09h05.56.979,t1_Paradigm,2021.1.4,59.98933844633179,
T,right,Target,0,55,55,55,1591.2594516214886,1593.2614001713082,right,1,3,0.8122071481047897,L15G05,2022-09-01_09h05.56.979,t1_Paradigm,2021.1.4,59.98933844633179,
Y,left,Pretarget,0,56,56,56,1594.7592382883304,1596.7612031990284,left,1,3,1.0882843201834476,L15G05,2022-09-01_09h05.56.979,t1_Paradigm,2021.1.4,59.98933844633179,
T,left,Lure,0,57,57,57,1598.259396122783,1600.2609722217749,left,1,3,0.7725416160101304,L15G05,2022-09-01_09h05.56.979,t1_Paradigm,2021.1.4,59.98933844633179,
P,left,Pretarget,0,58,58,58,1601.7590631305793,1603.7594038220268,left,1,3,0.9538998264470138,L15G05,2022-09-01_09h05.56.979,t1_Paradigm,2021.1.4,59.98933844633179,
Y,right,Target,0,59,59,59,1605.2591747695842,1607.259616513591,left,0,3,0.5738569031673251,L15G05,2022-09-01_09h05.56.979,t1_Paradigm,2021.1.4,59.98933844633179,
R,left,Distractor,0,60,60,60,1608.758947641938,1610.7598872702656,left,1,3,0.6256644606182817,L15G05,2022-09-01_09h05.56.979,t1_Paradigm,2021.1.4,59.98933844633179,
P,right,Target,0,61,61,61,1612.259437506218,1614.2608727732295,left,0,3,0.6446248063148232,L15G05,2022-09-01_09h05.56.979,t1_Paradigm,2021.1.4,59.98933844633179,
L,left,Distractor,0,62,62,62,1615.7592254562624,1617.7598888742796,left,1,3,1.1615724418370519,L15G05,2022-09-01_09h05.56.979,t1_Paradigm,2021.1.4,59.98933844633179,
V,left,Distractor,0,63,63,63,1619.2592957118468,1621.2602555506746,left,1,3,1.069076315528946,L15G05,2022-09-01_09h05.56.979,t1_Paradigm,2021.1.4,59.98933844633179,
H,left,Lure,0,0,0,0,1642.1415980418242,1644.1447694879025,left,1,3,0.5205512015527347,L15G05,2022-09-01_09h05.56.979,t1_Paradigm,2021.1.4,59.98933844633179,
B,left,Distractor,0,1,1,1,1645.6427760258375,1647.6445413978654,left,1,3,0.3488350084517151,L15G05,2022-09-01_09h05.56.979,t1_Paradigm,2021.1.4,59.98933844633179,
T,left,Distractor,0,2,2,2,1649.1425148932176,1651.1434452182875,left,1,3,0.4981553899560822,L15G05,2022-09-01_09h05.56.979,t1_Paradigm,2021.1.4,59.98933844633179,
R,left,Distractor,0,3,3,3,1652.6426072841277,1654.6449289263692,left,1,3,0.7565650473698042,L15G05,2022-09-01_09h05.56.979,t1_Paradigm,2021.1.4,59.98933844633179,
H,left,Pretarget,0,4,4,4,1656.1426862013468,1658.1433422409318,left,1,3,0.9540323175751837,L15G05,2022-09-01_09h05.56.979,t1_Paradigm,2021.1.4,59.98933844633179,
K,left,Distractor,0,5,5,5,1659.642625569817,1661.6443271022872,left,1,3,1.0530394361558137,L15G05,2022-09-01_09h05.56.979,t1_Paradigm,2021.1.4,59.98933844633179,
G,left,Distractor,0,6,6,6,1663.1423018808564,1665.1437262406253,left,1,3,1.1216537971631624,L15G05,2022-09-01_09h05.56.979,t1_Paradigm,2021.1.4,59.98933844633179,
H,right,Target,0,7,7,7,1666.6427798754594,1668.6440095085563,right,1,3,0.7254447114246432,L15G05,2022-09-01_09h05.56.979,t1_Paradigm,2021.1.4,59.98933844633179,
Y,left,Pretarget,0,8,8,8,1670.142694221402,1672.1440961250337,left,1,3,0.9532832455006428,L15G05,2022-09-01_09h05.56.979,t1_Paradigm,2021.1.4,59.98933844633179,
S,left,Distractor,0,9,9,9,1673.642446562444,1675.6435347219813,left,1,3,0.7497685415291926,L15G05,2022-09-01_09h05.56.979,t1_Paradigm,2021.1.4,59.98933844633179,
P,left,Distractor,0,10,10,10,1677.142654441981,1679.1448371770675,left,1,3,1.1684610177762806,L15G05,2022-09-01_09h05.56.979,t1_Paradigm,2021.1.4,59.98933844633179,
Y,right,Target,0,11,11,11,1680.64227172549,1682.643991864461,right,1,3,0.6135740843456006,L15G05,2022-09-01_09h05.56.979,t1_Paradigm,2021.1.4,59.98933844633179,
H,left,Lure,0,12,12,12,1684.1427647977835,1686.143568406158,left,1,3,0.9378032779495697,L15G05,2022-09-01_09h05.56.979,t1_Paradigm,2021.1.4,59.98933844633179,
Q,left,Distractor,0,13,13,13,1687.6425906024378,1689.644632184747,left,1,3,1.212862866872456,L15G05,2022-09-01_09h05.56.979,t1_Paradigm,2021.1.4,59.98933844633179,
V,left,Pretarget,0,14,14,14,1691.1422155851906,1693.1440932378173,left,1,3,0.7532588645553915,L15G05,2022-09-01_09h05.56.979,t1_Paradigm,2021.1.4,59.98933844633179,
G,left,Distractor,0,15,15,15,1694.6421065125905,1696.6438645061717,left,1,3,1.0134675781737315,L15G05,2022-09-01_09h05.56.979,t1_Paradigm,2021.1.4,59.98933844633179,
Z,left,Pretarget,0,16,16,16,1698.142393630158,1700.143980636407,left,1,3,1.0654390653216979,L15G05,2022-09-01_09h05.56.979,t1_Paradigm,2021.1.4,59.98933844633179,
V,right,Target,0,17,17,17,1701.6425787327607,1703.643119925313,right,1,3,0.5263541843887651,L15G05,2022-09-01_09h05.56.979,t1_Paradigm,2021.1.4,59.98933844633179,
N,left,Distractor,0,18,18,18,1705.1423734196433,1707.1429652988736,left,1,3,0.786325825509266,L15G05,2022-09-01_09h05.56.979,t1_Paradigm,2021.1.4,59.98933844633179,
Z,right,Target,0,19,19,19,1708.6426079257217,1710.6440277942602,right,1,3,0.6616035596089205,L15G05,2022-09-01_09h05.56.979,t1_Paradigm,2021.1.4,59.98933844633179,
R,left,Distractor,0,20,20,20,1712.1424241063214,1714.1441474533203,left,1,3,0.9372393084922805,L15G05,2022-09-01_09h05.56.979,t1_Paradigm,2021.1.4,59.98933844633179,
P,left,Distractor,0,21,21,21,1715.6424911538925,1717.6436999348807,left,1,3,1.1015420939947944,L15G05,2022-09-01_09h05.56.979,t1_Paradigm,2021.1.4,59.98933844633179,
Z,right,Target,0,22,22,22,1719.1423711740354,1721.143966521122,None,0,3,,L15G05,2022-09-01_09h05.56.979,t1_Paradigm,2021.1.4,59.98933844633179,
D,left,Pretarget,0,23,23,23,1722.6425729583425,1724.6436656090955,left,1,3,0.8216730452695629,L15G05,2022-09-01_09h05.56.979,t1_Paradigm,2021.1.4,59.98933844633179,
K,left,Distractor,0,24,24,24,1726.1425893192209,1728.1444769167138,left,1,3,0.5850394104927545,L15G05,2022-09-01_09h05.56.979,t1_Paradigm,2021.1.4,59.98933844633179,
W,left,Distractor,0,25,25,25,1729.6425517854223,1731.6427567777428,left,1,3,1.118514431262156,L15G05,2022-09-01_09h05.56.979,t1_Paradigm,2021.1.4,59.98933844633179,
D,right,Target,0,26,26,26,1733.1425748831389,1735.1442029520113,right,1,3,0.7695748414553236,L15G05,2022-09-01_09h05.56.979,t1_Paradigm,2021.1.4,59.98933844633179,
G,left,Pretarget,0,27,27,27,1736.6426666324405,1738.6441070322908,left,1,3,0.8053044569096528,L15G05,2022-09-01_09h05.56.979,t1_Paradigm,2021.1.4,59.98933844633179,
V,left,Distractor,0,28,28,28,1740.142570391923,1742.1432306019124,left,1,3,0.9861365524702705,L15G05,2022-09-01_09h05.56.979,t1_Paradigm,2021.1.4,59.98933844633179,
D,right,Target,0,29,29,29,1743.6425190636364,1745.6610870688019,right,1,3,0.5402923787187319,L15G05,2022-09-01_09h05.56.979,t1_Paradigm,2021.1.4,59.98933844633179,
G,right,Target,0,30,30,30,1747.1424831338518,1749.143785588938,right,1,3,0.9456212165532634,L15G05,2022-09-01_09h05.56.979,t1_Paradigm,2021.1.4,59.98933844633179,
B,left,Pretarget,0,31,31,31,1750.6426281362365,1752.6437666616403,left,1,3,0.693551884876797,L15G05,2022-09-01_09h05.56.979,t1_Paradigm,2021.1.4,59.98933844633179,
N,left,Distractor,0,32,32,32,1754.1425787327607,1756.1431927473168,left,1,3,0.7786179219110636,L15G05,2022-09-01_09h05.56.979,t1_Paradigm,2021.1.4,59.98933844633179,
F,left,Distractor,0,33,33,33,1757.6422778207343,1759.6428748327744,left,1,3,1.0223874707735376,L15G05,2022-09-01_09h05.56.979,t1_Paradigm,2021.1.4,59.98933844633179,
B,right,Target,0,34,34,34,1761.1426367978856,1763.1434073636774,right,1,3,0.5460478828754276,L15G05,2022-09-01_09h05.56.979,t1_Paradigm,2021.1.4,59.98933844633179,
Q,left,Pretarget,0,35,35,35,1764.6423304322088,1766.6440021301241,left,1,3,0.9332523843622766,L15G05,2022-09-01_09h05.56.979,t1_Paradigm,2021.1.4,59.98933844633179,
S,left,Pretarget,0,36,36,36,1768.1426743316842,1770.1437098797323,left,1,3,0.6495086921349866,L15G05,2022-09-01_09h05.56.979,t1_Paradigm,2021.1.4,59.98933844633179,
W,left,Distractor,0,37,37,37,1771.642337169047,1773.6440399847343,left,1,3,0.8613767527858727,L15G05,2022-09-01_09h05.56.979,t1_Paradigm,2021.1.4,59.98933844633179,
Q,right,Target,0,38,38,38,1775.1423628331977,1777.14454043546,None,0,3,,L15G05,2022-09-01_09h05.56.979,t1_Paradigm,2021.1.4,59.98933844633179,
S,right,Target,0,39,39,39,1778.642187675432,1780.6444663302536,left,0,3,0.996933776899823,L15G05,2022-09-01_09h05.56.979,t1_Paradigm,2021.1.4,59.98933844633179,
T,left,Distractor,0,40,40,40,1782.1425203468534,1784.1435751429963,left,1,3,0.8578296478517586,L15G05,2022-09-01_09h05.56.979,t1_Paradigm,2021.1.4,59.98933844633179,
G,left,Distractor,0,41,41,41,1785.6425123267982,1787.6437332982605,left,1,3,0.8296889185439795,L15G05,2022-09-01_09h05.56.979,t1_Paradigm,2021.1.4,59.98933844633179,
D,left,Distractor,0,42,42,42,1789.1424298807542,1791.1429345018987,left,1,3,1.1862732140143635,L15G05,2022-09-01_09h05.56.979,t1_Paradigm,2021.1.4,59.98933844633179,
S,left,Lure,0,43,43,43,1792.642612737749,1794.6426499507506,left,1,3,1.030763283590204,L15G05,2022-09-01_09h05.56.979,t1_Paradigm,2021.1.4,59.98933844633179,
Z,left,Pretarget,0,44,44,44,1796.1426117753435,1798.1429861509823,left,1,3,1.082626018949668,L15G05,2022-09-01_09h05.56.979,t1_Paradigm,2021.1.4,59.98933844633179,
J,left,Distractor,0,45,45,45,1799.642434051173,1801.6431337197864,left,1,3,0.8302297902991995,L15G05,2022-09-01_09h05.56.979,t1_Paradigm,2021.1.4,59.98933844633179,
M,left,Pretarget,0,46,46,46,1803.1424991739332,1805.1438603357528,left,1,3,0.8975564530846896,L15G05,2022-09-01_09h05.56.979,t1_Paradigm,2021.1.4,59.98933844633179,
Z,right,Target,0,47,47,47,1806.642325940993,1808.6414899316296,right,1,3,0.48774441082787234,L15G05,2022-09-01_09h05.56.979,t1_Paradigm,2021.1.4,59.98933844633179,
P,left,Distractor,0,48,48,48,1810.1421854298242,1812.1431693287886,left,1,3,0.5700400039640954,L15G05,2022-09-01_09h05.56.979,t1_Paradigm,2021.1.4,59.98933844633179,
M,right,Target,0,49,49,49,1813.642397158983,1815.641671826219,right,1,3,0.575677132292185,L15G05,2022-09-01_09h05.56.979,t1_Paradigm,2021.1.4,59.98933844633179,
K,left,Distractor,0,50,50,50,1817.1423445474938,1819.1431564967206,left,1,3,1.0581940786505584,L15G05,2022-09-01_09h05.56.979,t1_Paradigm,2021.1.4,59.98933844633179,
Y,left,Distractor,0,51,51,51,1820.6424818506348,1822.6435453084268,left,1,3,0.7257052024360746,L15G05,2022-09-01_09h05.56.979,t1_Paradigm,2021.1.4,59.98933844633179,
X,left,Distractor,0,52,52,52,1824.142503344352,1826.1441150523315,left,1,3,0.9852132850501221,L15G05,2022-09-01_09h05.56.979,t1_Paradigm,2021.1.4,59.98933844633179,
F,left,Pretarget,0,53,53,53,1827.64224445734,1829.6433573186077,left,1,3,1.0056509227870265,L15G05,2022-09-01_09h05.56.979,t1_Paradigm,2021.1.4,59.98933844633179,
M,left,Lure,0,54,54,54,1831.1421774097835,1833.1442959845153,left,1,3,1.0410157866426744,L15G05,2022-09-01_09h05.56.979,t1_Paradigm,2021.1.4,59.98933844633179,
V,left,Distractor,0,55,55,55,1834.642450412066,1836.6430936195684,left,1,3,0.5825422896887176,L15G05,2022-09-01_09h05.56.979,t1_Paradigm,2021.1.4,59.98933844633179,
F,right,Target,0,56,56,56,1838.1422678758681,1840.1435113034531,right,1,3,0.48953993820759933,L15G05,2022-09-01_09h05.56.979,t1_Paradigm,2021.1.4,59.98933844633179,
S,left,Distractor,0,57,57,57,1841.6419044074864,1843.644690249872,left,1,3,0.652547326288186,L15G05,2022-09-01_09h05.56.979,t1_Paradigm,2021.1.4,59.98933844633179,
D,left,Distractor,0,58,58,58,1845.1421193446586,1847.1415034053061,left,1,3,0.6758516484405845,L15G05,2022-09-01_09h05.56.979,t1_Paradigm,2021.1.4,59.98933844633179,
F,right,Target,0,59,59,59,1848.642490512284,1850.6436309624987,right,1,3,0.7417177008755971,L15G05,2022-09-01_09h05.56.979,t1_Paradigm,2021.1.4,59.98933844633179,
V,left,Pretarget,0,60,60,60,1852.1424661313504,1854.143130190976,left,1,3,0.9700801042054081,L15G05,2022-09-01_09h05.56.979,t1_Paradigm,2021.1.4,59.98933844633179,
J,left,Distractor,0,61,61,61,1855.6421857506211,1857.6436598346627,left,1,3,0.7655978621769464,L15G05,2022-09-01_09h05.56.979,t1_Paradigm,2021.1.4,59.98933844633179,
V,left,Lure,0,62,62,62,1859.1422807079362,1861.144484295146,left,1,3,1.0888319287478225,L15G05,2022-09-01_09h05.56.979,t1_Paradigm,2021.1.4,59.98933844633179,
V,right,Target,0,63,63,63,1862.6424151238753,1864.6421921666624,left,0,3,0.9193013579497347,L15G05,2022-09-01_09h05.56.979,t1_Paradigm,2021.1.4,59.98933844633179,
R,left,Distractor,0,0,0,0,1978.0172764573217,1980.0108049236587,left,1,4,0.5424571488983929,L15G05,2022-09-01_09h05.56.979,t1_Paradigm,2021.1.4,59.98933844633179,
F,left,Distractor,0,1,1,1,1981.5089484439522,1983.5100317914475,left,1,4,0.4990581260644831,L15G05,2022-09-01_09h05.56.979,t1_Paradigm,2021.1.4,59.98933844633179,
P,left,Pretarget,0,2,2,2,1985.0090392308484,1987.011491439407,left,1,4,0.45364735546172597,L15G05,2022-09-01_09h05.56.979,t1_Paradigm,2021.1.4,59.98933844633179,
H,left,Distractor,0,3,3,3,1988.508886850017,1990.51078407155,left,1,4,0.5703547104931204,L15G05,2022-09-01_09h05.56.979,t1_Paradigm,2021.1.4,59.98933844633179,
Z,left,Distractor,0,4,4,4,1992.00903858924,1994.0107927331992,left,1,4,1.4383820043003652,L15G05,2022-09-01_09h05.56.979,t1_Paradigm,2021.1.4,59.98933844633179,
T,left,Distractor,0,5,5,5,1995.5087402436184,1997.5112267779623,left,1,4,0.5300058706779964,L15G05,2022-09-01_09h05.56.979,t1_Paradigm,2021.1.4,59.98933844633179,
P,right,Target,0,6,6,6,1999.0089994514274,2001.0108870489057,right,1,4,0.5823542998696212,L15G05,2022-09-01_09h05.56.979,t1_Paradigm,2021.1.4,59.98933844633179,
G,left,Distractor,0,7,7,7,2002.5090167747258,2004.509353937363,left,1,4,0.9398323490022449,L15G05,2022-09-01_09h05.56.979,t1_Paradigm,2021.1.4,59.98933844633179,
L,left,Distractor,0,8,8,8,2006.0089516519656,2008.0096728142962,left,1,4,0.8795934800145915,L15G05,2022-09-01_09h05.56.979,t1_Paradigm,2021.1.4,59.98933844633179,
P,left,Lure,0,9,9,9,2009.5090825390798,2011.5216813861189,right,0,4,1.4475784280075459,L15G05,2022-09-01_09h05.56.979,t1_Paradigm,2021.1.4,59.98933844633179,
Q,left,Pretarget,0,10,10,10,2013.0090305691992,2015.0100420571107,left,1,4,0.5351739868201548,L15G05,2022-09-01_09h05.56.979,t1_Paradigm,2021.1.4,59.98933844633179,
D,left,Distractor,0,11,11,11,2016.5088108199998,2018.5103654252744,left,1,4,0.7150500931893475,L15G05,2022-09-01_09h05.56.979,t1_Paradigm,2021.1.4,59.98933844633179,
M,left,Pretarget,0,12,12,12,2020.0089211758022,2022.0112351188,left,1,4,0.7978374754165998,L15G05,2022-09-01_09h05.56.979,t1_Paradigm,2021.1.4,59.98933844633179,
C,left,Distractor,0,13,13,13,2023.5089959226025,2025.511156201581,left,1,4,1.2498846717790002,L15G05,2022-09-01_09h05.56.979,t1_Paradigm,2021.1.4,59.98933844633179,
Q,right,Target,0,14,14,14,2027.008790609485,2029.0106252746773,right,1,4,0.662597724236548,L15G05,2022-09-01_09h05.56.979,t1_Paradigm,2021.1.4,59.98933844633179,
R,left,Distractor,0,15,15,15,2030.5088400129607,2032.5090571957408,left,1,4,0.7801459006295772,L15G05,2022-09-01_09h05.56.979,t1_Paradigm,2021.1.4,59.98933844633179,
M,right,Target,0,16,16,16,2034.0089702584664,2036.0112521213014,right,1,4,0.7017422742937924,L15G05,2022-09-01_09h05.56.979,t1_Paradigm,2021.1.4,59.98933844633179,
S,left,Distractor,0,17,17,17,2037.5087870806747,2039.510401355059,left,1,4,1.074804230738664,L15G05,2022-09-01_09h05.56.979,t1_Paradigm,2021.1.4,59.98933844633179,
Z,left,Distractor,0,18,18,18,2041.0087456972396,2043.0108694048104,left,1,4,0.5501432379824109,L15G05,2022-09-01_09h05.56.979,t1_Paradigm,2021.1.4,59.98933844633179,
L,left,Pretarget,0,19,19,19,2044.5086218677752,2046.510759049008,left,1,4,0.602340248748078,L15G05,2022-09-01_09h05.56.979,t1_Paradigm,2021.1.4,59.98933844633179,
M,right,Target,0,20,20,20,2048.0089298374514,2050.011130858242,left,0,4,1.1498519500019029,L15G05,2022-09-01_09h05.56.979,t1_Paradigm,2021.1.4,59.98933844633179,
P,left,Distractor,0,21,21,21,2051.5087428100233,2053.5107090039382,left,1,4,0.8502766915044049,L15G05,2022-09-01_09h05.56.979,t1_Paradigm,2021.1.4,59.98933844633179,
F,left,Distractor,0,22,22,22,2055.008697576981,2057.0115116499073,left,1,4,1.1734992092242464,L15G05,2022-09-01_09h05.56.979,t1_Paradigm,2021.1.4,59.98933844633179,
L,right,Target,0,23,23,23,2058.5088881332194,2060.5094553107047,right,1,4,0.49171850288985297,L15G05,2022-09-01_09h05.56.979,t1_Paradigm,2021.1.4,59.98933844633179,
L,left,Lure,0,24,24,24,2062.0086067900847,2064.008870168327,left,1,4,1.0402615817438345,L15G05,2022-09-01_09h05.56.979,t1_Paradigm,2021.1.4,59.98933844633179,
V,left,Pretarget,0,25,25,25,2065.5087344691856,2067.510698096681,left,1,4,0.818299494087114,L15G05,2022-09-01_09h05.56.979,t1_Paradigm,2021.1.4,59.98933844633179,
Z,left,Distractor,0,26,26,26,2069.0089189301943,2071.010731460061,None,0,4,,L15G05,2022-09-01_09h05.56.979,t1_Paradigm,2021.1.4,59.98933844633179,
H,left,Distractor,0,27,27,27,2072.508908343734,2074.511267519789,left,1,4,1.3378789871640038,L15G05,2022-09-01_09h05.56.979,t1_Paradigm,2021.1.4,59.98933844633179,
X,left,Distractor,0,28,28,28,2076.0088916620443,2078.009824553519,left,1,4,0.5113769131858135,L15G05,2022-09-01_09h05.56.979,t1_Paradigm,2021.1.4,59.98933844633179,
V,right,Target,0,29,29,29,2079.508855411448,2081.5102852248383,left,0,4,0.7068407764600124,L15G05,2022-09-01_09h05.56.979,t1_Paradigm,2021.1.4,59.98933844633179,
C,left,Distractor,0,30,30,30,2083.0086648552096,2085.0111465775262,left,1,4,0.9178567876952002,L15G05,2022-09-01_09h05.56.979,t1_Paradigm,2021.1.4,59.98933844633179,
S,left,Pretarget,0,31,31,31,2086.508850920218,2088.510282337622,left,1,4,0.6346982378308894,L15G05,2022-09-01_09h05.56.979,t1_Paradigm,2021.1.4,59.98933844633179,
D,left,Distractor,0,32,32,32,2090.0087296571583,2092.0104366432497,left,1,4,0.6384038188261911,L15G05,2022-09-01_09h05.56.979,t1_Paradigm,2021.1.4,59.98933844633179,
V,left,Distractor,0,33,33,33,2093.5089593512093,2095.509413927284,right,0,4,1.3957413567986805,L15G05,2022-09-01_09h05.56.979,t1_Paradigm,2021.1.4,59.98933844633179,
R,left,Distractor,0,34,34,34,2097.0087344691856,2099.021955350807,left,1,4,0.7791889490181347,L15G05,2022-09-01_09h05.56.979,t1_Paradigm,2021.1.4,59.98933844633179,
S,right,Target,0,35,35,35,2100.508891020436,2102.5107831091445,left,0,4,0.9383335632446688,L15G05,2022-09-01_09h05.56.979,t1_Paradigm,2021.1.4,59.98933844633179,
Y,left,Distractor,0,36,36,36,2104.008577276327,2106.0090315316047,left,1,4,0.7199487358739134,L15G05,2022-09-01_09h05.56.979,t1_Paradigm,2021.1.4,59.98933844633179,
N,left,Pretarget,0,37,37,37,2107.5087986295257,2109.511139840688,left,1,4,0.8977091547276359,L15G05,2022-09-01_09h05.56.979,t1_Paradigm,2021.1.4,59.98933844633179,
Z,left,Pretarget,0,38,38,38,2111.008987260968,2113.0095011853555,left,1,4,1.1116268177429447,L15G05,2022-09-01_09h05.56.979,t1_Paradigm,2021.1.4,59.98933844633179,
P,left,Pretarget,0,39,39,39,2114.5085913915973,2116.509731521015,left,1,4,0.6192275735520525,L15G05,2022-09-01_09h05.56.979,t1_Paradigm,2021.1.4,59.98933844633179,
M,left,Distractor,0,40,40,40,2118.008741847618,2120.0103676708823,left,1,4,1.0067608968238346,L15G05,2022-09-01_09h05.56.979,t1_Paradigm,2021.1.4,59.98933844633179,
N,right,Target,0,41,41,41,2121.5085833715566,2123.509602558712,right,1,4,0.40339921531267464,L15G05,2022-09-01_09h05.56.979,t1_Paradigm,2021.1.4,59.98933844633179,
Z,right,Target,0,42,42,42,2125.0088990404765,2127.0110782467527,right,1,4,0.437920370590291,L15G05,2022-09-01_09h05.56.979,t1_Paradigm,2021.1.4,59.98933844633179,
P,right,Target,0,43,43,43,2128.5087149002793,2130.509219200627,right,1,4,0.907901026235777,L15G05,2022-09-01_09h05.56.979,t1_Paradigm,2021.1.4,59.98933844633179,
X,left,Pretarget,0,44,44,44,2132.008790609485,2134.0095239622897,left,1,4,1.11954292167502,L15G05,2022-09-01_09h05.56.979,t1_Paradigm,2021.1.4,59.98933844633179,
Z,left,Lure,0,45,45,45,2135.508845466582,2137.510163961764,left,1,4,1.3949861894943751,L15G05,2022-09-01_09h05.56.979,t1_Paradigm,2021.1.4,59.98933844633179,
R,left,Pretarget,0,46,46,46,2139.0086706296424,2141.010773805887,left,1,4,1.0945226309559075,L15G05,2022-09-01_09h05.56.979,t1_Paradigm,2021.1.4,59.98933844633179,
K,left,Distractor,0,47,47,47,2142.5088983988826,2144.5105402622285,left,1,4,0.522555891686352,L15G05,2022-09-01_09h05.56.979,t1_Paradigm,2021.1.4,59.98933844633179,
X,right,Target,0,48,48,48,2146.008779381431,2148.0109999711276,right,1,4,0.6058013788133394,L15G05,2022-09-01_09h05.56.979,t1_Paradigm,2021.1.4,59.98933844633179,
B,left,Distractor,0,49,49,49,2149.5087177874957,2151.510213044443,left,1,4,1.1548647980962414,L15G05,2022-09-01_09h05.56.979,t1_Paradigm,2021.1.4,59.98933844633179,
R,right,Target,0,50,50,50,2153.0088262184872,2155.0106740365445,None,0,4,,L15G05,2022-09-01_09h05.56.979,t1_Paradigm,2021.1.4,59.98933844633179,
Y,left,Pretarget,0,51,51,51,2156.5088753011514,2158.510284262433,left,1,4,0.8588225292769494,L15G05,2022-09-01_09h05.56.979,t1_Paradigm,2021.1.4,59.98933844633179,
W,left,Pretarget,0,52,52,52,2160.0087306195637,2162.009233957506,left,1,4,0.703683766463655,L15G05,2022-09-01_09h05.56.979,t1_Paradigm,2021.1.4,59.98933844633179,
Z,left,Distractor,0,53,53,53,2163.508861506678,2165.509651320579,left,1,4,0.8672621816367609,L15G05,2022-09-01_09h05.56.979,t1_Paradigm,2021.1.4,59.98933844633179,
Q,left,Distractor,0,54,54,54,2167.0087710405787,2169.009884543455,left,1,4,0.9990067977778381,L15G05,2022-09-01_09h05.56.979,t1_Paradigm,2021.1.4,59.98933844633179,
Y,right,Target,0,55,55,55,2170.508790609485,2172.509478408436,right,1,4,0.3958975872519659,L15G05,2022-09-01_09h05.56.979,t1_Paradigm,2021.1.4,59.98933844633179,
W,right,Target,0,56,56,56,2174.008872734732,2176.0101893051033,right,1,4,0.6706476024846779,L15G05,2022-09-01_09h05.56.979,t1_Paradigm,2021.1.4,59.98933844633179,
H,left,Pretarget,0,57,57,57,2177.508862148272,2179.5104716106434,left,1,4,0.7066020999627654,L15G05,2022-09-01_09h05.56.979,t1_Paradigm,2021.1.4,59.98933844633179,
M,left,Distractor,0,58,58,58,2181.0087970255263,2183.0090796518634,left,1,4,0.5358399712567916,L15G05,2022-09-01_09h05.56.979,t1_Paradigm,2021.1.4,59.98933844633179,
R,left,Pretarget,0,59,59,59,2184.508759491713,2186.5101338064123,left,1,4,0.634775230253581,L15G05,2022-09-01_09h05.56.979,t1_Paradigm,2021.1.4,59.98933844633179,
J,left,Distractor,0,60,60,60,2188.008791892702,2190.0108960313664,left,1,4,0.7499700050393585,L15G05,2022-09-01_09h05.56.979,t1_Paradigm,2021.1.4,59.98933844633179,
H,right,Target,0,61,61,61,2191.508815952824,2193.509639130105,left,0,4,1.0273339129053056,L15G05,2022-09-01_09h05.56.979,t1_Paradigm,2021.1.4,59.98933844633179,
Z,left,Distractor,0,62,62,62,2195.0087909302965,2197.010543470242,right,0,4,0.9823610367020592,L15G05,2022-09-01_09h05.56.979,t1_Paradigm,2021.1.4,59.98933844633179,
R,right,Target,0,63,63,63,2198.508754358889,2200.510401355059,left,0,4,0.5066335385490675,L15G05,2022-09-01_09h05.56.979,t1_Paradigm,2021.1.4,59.98933844633179,
J,left,Pretarget,0,0,0,0,2223.790006383948,2225.793117519308,left,1,4,0.6158078269218095,L15G05,2022-09-01_09h05.56.979,t1_Paradigm,2021.1.4,59.98933844633179,
G,left,Pretarget,0,1,1,1,2227.2918946230348,2229.292789659914,left,1,4,0.44414039567345753,L15G05,2022-09-01_09h05.56.979,t1_Paradigm,2021.1.4,59.98933844633179,
Z,left,Distractor,0,2,2,2,2230.792029359771,2232.7936561454408,left,1,4,0.5115539957478177,L15G05,2022-09-01_09h05.56.979,t1_Paradigm,2021.1.4,59.98933844633179,
F,left,Distractor,0,3,3,3,2234.2921551140607,2236.29400678174,left,1,4,0.4669131493428722,L15G05,2022-09-01_09h05.56.979,t1_Paradigm,2021.1.4,59.98933844633179,
J,right,Target,0,4,4,4,2237.7917775304086,2239.793088647144,right,1,4,1.0639957782404963,L15G05,2022-09-01_09h05.56.979,t1_Paradigm,2021.1.4,59.98933844633179,
G,right,Target,0,5,5,5,2241.2920662519755,2243.2939573782787,right,1,4,0.986997905158205,L15G05,2022-09-01_09h05.56.979,t1_Paradigm,2021.1.4,59.98933844633179,
H,left,Distractor,0,6,6,6,2244.7920178109052,2246.792520186442,left,1,4,0.9924874646821991,L15G05,2022-09-01_09h05.56.979,t1_Paradigm,2021.1.4,59.98933844633179,
P,left,Distractor,0,7,7,7,2248.2919145127526,2250.292656206395,left,1,4,1.2041604778642068,L15G05,2022-09-01_09h05.56.979,t1_Paradigm,2021.1.4,59.98933844633179,
G,left,Lure,0,8,8,8,2251.7920591943403,2253.7938996339653,left,1,4,1.0791523776133545,L15G05,2022-09-01_09h05.56.979,t1_Paradigm,2021.1.4,59.98933844633179,
S,left,Distractor,0,9,9,9,2255.2920354550006,2257.29344056666,left,1,4,1.0994036295596743,L15G05,2022-09-01_09h05.56.979,t1_Paradigm,2021.1.4,59.98933844633179,
R,left,Pretarget,0,10,10,10,2258.7918458611675,2260.7925147328206,left,1,4,1.0244588876521448,L15G05,2022-09-01_09h05.56.979,t1_Paradigm,2021.1.4,59.98933844633179,
T,left,Pretarget,0,11,11,11,2262.291890452616,2264.29322947911,left,1,4,0.7717158723098692,L15G05,2022-09-01_09h05.56.979,t1_Paradigm,2021.1.4,59.98933844633179,
X,left,Distractor,0,12,12,12,2265.791806723355,2267.7927040058566,left,1,4,0.6963649953977438,L15G05,2022-09-01_09h05.56.979,t1_Paradigm,2021.1.4,59.98933844633179,
F,left,Pretarget,0,13,13,13,2269.2920004876214,2271.2933023011137,left,1,4,0.6515303847409086,L15G05,2022-09-01_09h05.56.979,t1_Paradigm,2021.1.4,59.98933844633179,
R,right,Target,0,14,14,14,2272.791675194647,2274.7923816000985,left,0,4,0.6566847064241301,L15G05,2022-09-01_09h05.56.979,t1_Paradigm,2021.1.4,59.98933844633179,
T,right,Target,0,15,15,15,2276.292006903648,2278.292475915805,right,1,4,0.9003509571048198,L15G05,2022-09-01_09h05.56.979,t1_Paradigm,2021.1.4,59.98933844633179,
C,left,Distractor,0,16,16,16,2279.792108918613,2281.792705930653,left,1,4,0.5840439626626903,L15G05,2022-09-01_09h05.56.979,t1_Paradigm,2021.1.4,59.98933844633179,
F,right,Target,0,17,17,17,2283.292002091621,2285.2922414097266,right,1,4,1.0845392805786105,L15G05,2022-09-01_09h05.56.979,t1_Paradigm,2021.1.4,59.98933844633179,
M,left,Distractor,0,18,18,18,2286.7918176306266,2288.792740256453,left,1,4,0.9283316063520033,L15G05,2022-09-01_09h05.56.979,t1_Paradigm,2021.1.4,59.98933844633179,
N,left,Distractor,0,19,19,19,2290.291985409931,2292.2926372790826,left,1,4,0.9001963306654943,L15G05,2022-09-01_09h05.56.979,t1_Paradigm,2021.1.4,59.98933844633179,
R,left,Lure,0,20,20,20,2293.792032246987,2295.793031544439,left,1,4,1.383759732314502,L15G05,2022-09-01_09h05.56.979,t1_Paradigm,2021.1.4,59.98933844633179,
F,right,Target,0,21,21,21,2297.2918076857604,2299.2931024416175,None,0,4,,L15G05,2022-09-01_09h05.56.979,t1_Paradigm,2021.1.4,59.98933844633179,
P,left,Distractor,0,22,22,22,2300.7917544326774,2302.7928964868916,left,1,4,0.687977954512462,L15G05,2022-09-01_09h05.56.979,t1_Paradigm,2021.1.4,59.98933844633179,
L,left,Pretarget,0,23,23,23,2304.2920075452566,2306.3048226126703,left,1,4,0.6004022853885544,L15G05,2022-09-01_09h05.56.979,t1_Paradigm,2021.1.4,59.98933844633179,
T,left,Distractor,0,24,24,24,2307.7920729888137,2309.792176286981,left,1,4,1.016646081887302,L15G05,2022-09-01_09h05.56.979,t1_Paradigm,2021.1.4,59.98933844633179,
F,left,Distractor,0,25,25,25,2311.291966161836,2313.293037318872,right,0,4,0.5076568961230805,L15G05,2022-09-01_09h05.56.979,t1_Paradigm,2021.1.4,59.98933844633179,
V,left,Distractor,0,26,26,26,2314.7917618111096,2316.7927588629536,left,1,4,1.2481828184972983,L15G05,2022-09-01_09h05.56.979,t1_Paradigm,2021.1.4,59.98933844633179,
L,right,Target,0,27,27,27,2318.2920303221763,2320.29430576897,right,1,4,0.7386264552333159,L15G05,2022-09-01_09h05.56.979,t1_Paradigm,2021.1.4,59.98933844633179,
S,left,Pretarget,0,28,28,28,2321.7919571793755,2323.7939544910623,left,1,4,0.9347627189854393,L15G05,2022-09-01_09h05.56.979,t1_Paradigm,2021.1.4,59.98933844633179,
W,left,Distractor,0,29,29,29,2325.2919972795935,2327.2938791026536,left,1,4,1.0189202454785118,L15G05,2022-09-01_09h05.56.979,t1_Paradigm,2021.1.4,59.98933844633179,
Q,left,Distractor,0,30,30,30,2328.791671345025,2330.7939426213998,left,1,4,0.9749049624806503,L15G05,2022-09-01_09h05.56.979,t1_Paradigm,2021.1.4,59.98933844633179,
L,right,Target,0,31,31,31,2332.291988938756,2334.292688607369,left,0,4,1.460226999319275,L15G05,2022-09-01_09h05.56.979,t1_Paradigm,2021.1.4,59.98933844633179,
S,right,Target,0,32,32,32,2335.7918952646432,2337.7927826022787,left,0,4,0.6000381753983675,L15G05,2022-09-01_09h05.56.979,t1_Paradigm,2021.1.4,59.98933844633179,
Z,left,Pretarget,0,33,33,33,2339.291910021522,2341.293354912603,left,1,4,0.9715403937443625,L15G05,2022-09-01_09h05.56.979,t1_Paradigm,2021.1.4,59.98933844633179,
F,left,Distractor,0,34,34,34,2342.791697329958,2344.793829699178,left,1,4,1.0390720488649094,L15G05,2022-09-01_09h05.56.979,t1_Paradigm,2021.1.4,59.98933844633179,
V,left,Distractor,0,35,35,35,2346.29197289866,2348.2929455695703,left,1,4,0.8677985621761763,L15G05,2022-09-01_09h05.56.979,t1_Paradigm,2021.1.4,59.98933844633179,
M,left,Distractor,0,36,36,36,2349.791718823675,2351.7928640859172,left,1,4,1.2560036443028366,L15G05,2022-09-01_09h05.56.979,t1_Paradigm,2021.1.4,59.98933844633179,
Z,right,Target,0,37,37,37,2353.2916620417673,2355.2927903015225,None,0,4,,L15G05,2022-09-01_09h05.56.979,t1_Paradigm,2021.1.4,59.98933844633179,
H,left,Pretarget,0,38,38,38,2356.7920046580402,2358.792422662722,left,1,4,0.6883725406514714,L15G05,2022-09-01_09h05.56.979,t1_Paradigm,2021.1.4,59.98933844633179,
L,left,Distractor,0,39,39,39,2360.291697009161,2362.2924932391034,left,1,4,1.25234939159418,L15G05,2022-09-01_09h05.56.979,t1_Paradigm,2021.1.4,59.98933844633179,
G,left,Distractor,0,40,40,40,2363.7921137306403,2365.7929385119205,left,1,4,0.47189006765256636,L15G05,2022-09-01_09h05.56.979,t1_Paradigm,2021.1.4,59.98933844633179,
K,left,Distractor,0,41,41,41,2367.291012418238,2369.2937231929973,left,1,4,0.7631154982664157,L15G05,2022-09-01_09h05.56.979,t1_Paradigm,2021.1.4,59.98933844633179,
H,right,Target,0,42,42,42,2370.7917435254203,2372.793025449195,right,1,4,0.4157686891121557,L15G05,2022-09-01_09h05.56.979,t1_Paradigm,2021.1.4,59.98933844633179,
B,left,Distractor,0,43,43,43,2374.291905209495,2376.2936933584424,left,1,4,0.49903502833331004,L15G05,2022-09-01_09h05.56.979,t1_Paradigm,2021.1.4,59.98933844633179,
Z,left,Distractor,0,44,44,44,2377.7917707935703,2379.793085118319,left,1,4,0.8235118808952393,L15G05,2022-09-01_09h05.56.979,t1_Paradigm,2021.1.4,59.98933844633179,
T,left,Pretarget,0,45,45,45,2381.291930873631,2383.293318661992,left,1,4,1.2596315912669525,L15G05,2022-09-01_09h05.56.979,t1_Paradigm,2021.1.4,59.98933844633179,
H,right,Target,0,46,46,46,2384.791987334742,2386.7925240360637,None,0,4,,L15G05,2022-09-01_09h05.56.979,t1_Paradigm,2021.1.4,59.98933844633179,
F,left,Distractor,0,47,47,47,2388.2920646479615,2390.2927267827763,left,1,4,0.9801600159116788,L15G05,2022-09-01_09h05.56.979,t1_Paradigm,2021.1.4,59.98933844633179,
R,left,Distractor,0,48,48,48,2391.7918580516416,2393.792450251669,left,1,4,0.6964528950775275,L15G05,2022-09-01_09h05.56.979,t1_Paradigm,2021.1.4,59.98933844633179,
T,right,Target,0,49,49,49,2395.2916873851063,2397.2941087967047,right,1,4,0.6186340903223027,L15G05,2022-09-01_09h05.56.979,t1_Paradigm,2021.1.4,59.98933844633179,
H,right,Target,0,50,50,50,2398.7919382520777,2400.7935201255023,right,1,4,0.7990552388509968,L15G05,2022-09-01_09h05.56.979,t1_Paradigm,2021.1.4,59.98933844633179,
Y,left,Pretarget,0,51,51,51,2402.292122071478,2404.292716196316,left,1,4,0.9642591564770555,L15G05,2022-09-01_09h05.56.979,t1_Paradigm,2021.1.4,59.98933844633179,
H,left,Distractor,0,52,52,52,2405.7917688687594,2407.7926404871105,left,1,4,1.4642697429371765,L15G05,2022-09-01_09h05.56.979,t1_Paradigm,2021.1.4,59.98933844633179,
S,left,Distractor,0,53,53,53,2409.291653059321,2411.292511524807,left,1,4,1.116377891623415,L15G05,2022-09-01_09h05.56.979,t1_Paradigm,2021.1.4,59.98933844633179,
Q,left,Distractor,0,54,54,54,2412.7915317962616,2414.7924621213315,left,1,4,0.6244187874399358,L15G05,2022-09-01_09h05.56.979,t1_Paradigm,2021.1.4,59.98933844633179,
Y,right,Target,0,55,55,55,2416.2918766581424,2418.3047837956547,left,0,4,1.2239821762486827,L15G05,2022-09-01_09h05.56.979,t1_Paradigm,2021.1.4,59.98933844633179,
R,left,Distractor,0,56,56,56,2419.791952046551,2421.7918311042886,left,1,4,0.8089099477510899,L15G05,2022-09-01_09h05.56.979,t1_Paradigm,2021.1.4,59.98933844633179,
H,left,Pretarget,0,57,57,57,2423.2919292696315,2425.292209329549,left,1,4,0.9085849755647359,L15G05,2022-09-01_09h05.56.979,t1_Paradigm,2021.1.4,59.98933844633179,
J,left,Distractor,0,58,58,58,2426.7920280765684,2428.7924383820064,left,1,4,0.65642293219571,L15G05,2022-09-01_09h05.56.979,t1_Paradigm,2021.1.4,59.98933844633179,
V,left,Distractor,0,59,59,59,2430.2920495702856,2432.2925676651066,left,1,4,1.4441933279595105,L15G05,2022-09-01_09h05.56.979,t1_Paradigm,2021.1.4,59.98933844633179,
Y,left,Lure,0,60,60,60,2433.7919125879416,2435.7922689986735,right,0,4,1.2405461328889942,L15G05,2022-09-01_09h05.56.979,t1_Paradigm,2021.1.4,59.98933844633179,
H,right,Target,0,61,61,61,2437.2917669439485,2439.2935390528,left,0,4,1.0991655946563696,L15G05,2022-09-01_09h05.56.979,t1_Paradigm,2021.1.4,59.98933844633179,
L,left,Distractor,0,62,62,62,2440.7917040667962,2442.7940106313617,left,1,4,0.5109666077478323,L15G05,2022-09-01_09h05.56.979,t1_Paradigm,2021.1.4,59.98933844633179,
P,left,Distractor,0,63,63,63,2444.2918259714643,2446.293326361236,left,1,4,0.5477959315903718,L15G05,2022-09-01_09h05.56.979,t1_Paradigm,2021.1.4,59.98933844633179,
