Letter,CorrAnswer,Stimulus,finaln_nback_run.thisRepN,finaln_nback_run.thisTrialN,finaln_nback_run.thisN,finaln_nback_run.thisIndex,finaln_fixcross.started,finaln_nback_trial.started,finaln_trial_resp.keys,finaln_trial_resp.corr,finaln_trial_resp.rt,finaln_level,finaln_money,Participant,date,expName,psychopyVersion,frameRate,
F,left,Distractor,0,0,0,0,2880.5890767004894,2882.591700537989,left,1,0.6167952546966262,1,1.97,L15G05,2022-09-01_09h05.56.979,t1_Paradigm,2021.1.4,59.98933844633179,
T,left,Pretarget,0,1,1,1,2884.091348297661,2886.0925278856885,left,1,0.34801696400973015,1,1.97,L15G05,2022-09-01_09h05.56.979,t1_Paradigm,2021.1.4,59.98933844633179,
B,left,Distractor,0,2,2,2,2887.591411174799,2889.592158642874,left,1,0.8162158867489779,1,1.97,L15G05,2022-09-01_09h05.56.979,t1_Paradigm,2021.1.4,59.98933844633179,
T,right,Target,0,3,3,3,2891.091193671222,2893.092362993586,right,1,0.5801789432152873,1,1.97,L15G05,2022-09-01_09h05.56.979,t1_Paradigm,2021.1.4,59.98933844633179,
Z,left,Distractor,0,4,4,4,2894.591912267133,2896.6097773956717,left,1,0.8865859957149951,1,1.97,L15G05,2022-09-01_09h05.56.979,t1_Paradigm,2021.1.4,59.98933844633179,
T,right,Target,0,5,5,5,2898.0914698815322,2900.0930713238486,right,1,0.47552122264460195,1,1.97,L15G05,2022-09-01_09h05.56.979,t1_Paradigm,2021.1.4,59.98933844633179,
L,left,Distractor,0,6,6,6,2901.591850031604,2903.591211636114,left,1,0.8010631369979819,1,1.97,L15G05,2022-09-01_09h05.56.979,t1_Paradigm,2021.1.4,59.98933844633179,
T,right,Target,0,7,7,7,2905.0912235057767,2907.0938123758824,right,1,0.7706023694481701,1,1.97,L15G05,2022-09-01_09h05.56.979,t1_Paradigm,2021.1.4,59.98933844633179,
Z,left,Lure,0,8,8,8,2908.5917630943295,2910.5913823026494,left,1,0.761138397094328,1,1.97,L15G05,2022-09-01_09h05.56.979,t1_Paradigm,2021.1.4,59.98933844633179,
J,left,Distractor,0,9,9,9,2912.0914807887893,2914.0921002569667,left,1,0.9404226242186269,1,1.97,L15G05,2022-09-01_09h05.56.979,t1_Paradigm,2021.1.4,59.98933844633179,
D,left,Pretarget,0,10,10,10,2915.591394172312,2917.5921304123185,left,1,0.9443046461819904,1,1.97,L15G05,2022-09-01_09h05.56.979,t1_Paradigm,2021.1.4,59.98933844633179,
H,left,Distractor,0,11,11,11,2919.091555856401,2921.092061439951,left,1,0.8202499687176896,1,1.97,L15G05,2022-09-01_09h05.56.979,t1_Paradigm,2021.1.4,59.98933844633179,
D,right,Target,0,12,12,12,2922.5911484381795,2924.59355605529,right,1,0.4548737805598648,1,1.97,L15G05,2022-09-01_09h05.56.979,t1_Paradigm,2021.1.4,59.98933844633179,
S,left,Distractor,0,13,13,13,2926.091423365273,2928.092764637375,left,1,1.0036067740438739,1,1.97,L15G05,2022-09-01_09h05.56.979,t1_Paradigm,2021.1.4,59.98933844633179,
R,left,Pretarget,0,14,14,14,2929.591045781621,2931.5916540217295,left,1,0.8489257953478955,1,1.97,L15G05,2022-09-01_09h05.56.979,t1_Paradigm,2021.1.4,59.98933844633179,
Z,left,Distractor,0,15,15,15,2933.091443254976,2935.0935781906155,left,1,0.6588780279707862,1,1.97,L15G05,2022-09-01_09h05.56.979,t1_Paradigm,2021.1.4,59.98933844633179,
R,right,Target,0,16,16,16,2936.591791645682,2938.5918031945475,right,1,0.8246940353274113,1,1.97,L15G05,2022-09-01_09h05.56.979,t1_Paradigm,2021.1.4,59.98933844633179,
T,left,Distractor,0,17,17,17,2940.0911776311405,2942.0925317353103,left,1,0.9718589498806978,1,1.97,L15G05,2022-09-01_09h05.56.979,t1_Paradigm,2021.1.4,59.98933844633179,
M,left,Distractor,0,18,18,18,2943.5918516356032,2945.5911433053407,left,1,0.8813498695963062,1,1.97,L15G05,2022-09-01_09h05.56.979,t1_Paradigm,2021.1.4,59.98933844633179,
R,left,Lure,0,19,19,19,2947.0915131897636,2949.0933828223497,left,1,1.1709600633912487,1,1.97,L15G05,2022-09-01_09h05.56.979,t1_Paradigm,2021.1.4,59.98933844633179,
J,left,Distractor,0,20,20,20,2950.591737430179,2952.592351765532,left,1,1.080141409416683,1,1.97,L15G05,2022-09-01_09h05.56.979,t1_Paradigm,2021.1.4,59.98933844633179,
K,left,Distractor,0,21,21,21,2954.091204257682,2956.0924181714945,left,1,1.1321427311195293,1,1.97,L15G05,2022-09-01_09h05.56.979,t1_Paradigm,2021.1.4,59.98933844633179,
Z,left,Distractor,0,22,22,22,2957.59148880883,2959.5908934007894,left,1,0.9776337021467043,1,1.97,L15G05,2022-09-01_09h05.56.979,t1_Paradigm,2021.1.4,59.98933844633179,
W,left,Pretarget,0,23,23,23,2961.0913733202033,2963.092127525102,None,0,,1,1.97,L15G05,2022-09-01_09h05.56.979,t1_Paradigm,2021.1.4,59.98933844633179,
Q,left,Distractor,0,24,24,24,2964.5917178612726,2966.5912013704656,left,1,1.1451534875959624,1,1.97,L15G05,2022-09-01_09h05.56.979,t1_Paradigm,2021.1.4,59.98933844633179,
W,right,Target,0,25,25,25,2968.0912899117393,2970.0936500501994,right,1,0.442545369383879,1,1.97,L15G05,2022-09-01_09h05.56.979,t1_Paradigm,2021.1.4,59.98933844633179,
D,left,Pretarget,0,26,26,26,2971.5912966485776,2973.5920684975863,left,1,0.8002252028236398,1,1.97,L15G05,2022-09-01_09h05.56.979,t1_Paradigm,2021.1.4,59.98933844633179,
W,right,Target,0,27,27,27,2975.0913460520533,2977.0929362663155,right,1,1.0914297812996665,1,1.97,L15G05,2022-09-01_09h05.56.979,t1_Paradigm,2021.1.4,59.98933844633179,
D,right,Target,0,28,28,28,2978.5915773501183,2980.591507415331,right,1,0.6329389610473299,1,1.97,L15G05,2022-09-01_09h05.56.979,t1_Paradigm,2021.1.4,59.98933844633179,
L,left,Pretarget,0,29,29,29,2982.091349901675,2984.0919007182674,left,1,1.1325568861793727,1,1.97,L15G05,2022-09-01_09h05.56.979,t1_Paradigm,2021.1.4,59.98933844633179,
P,left,Distractor,0,30,30,30,2985.591473731154,2987.591648888905,left,1,0.5293238461599685,1,1.97,L15G05,2022-09-01_09h05.56.979,t1_Paradigm,2021.1.4,59.98933844633179,
L,right,Target,0,31,31,31,2989.091357921716,2991.0933045467245,right,1,0.6270978028333047,1,1.97,L15G05,2022-09-01_09h05.56.979,t1_Paradigm,2021.1.4,59.98933844633179,
R,left,Distractor,0,32,32,32,2992.591536287495,2994.5914961872622,left,1,0.5367818451923085,1,1.97,L15G05,2022-09-01_09h05.56.979,t1_Paradigm,2021.1.4,59.98933844633179,
V,left,Distractor,0,33,33,33,2996.091134643706,2998.091466994316,left,1,0.7167609289172105,1,1.97,L15G05,2022-09-01_09h05.56.979,t1_Paradigm,2021.1.4,59.98933844633179,
L,left,Lure,0,34,34,34,2999.591570934077,3001.591330653566,left,1,0.7370391281874618,1,1.97,L15G05,2022-09-01_09h05.56.979,t1_Paradigm,2021.1.4,59.98933844633179,
H,left,Distractor,0,35,35,35,3003.0912498115213,3005.093210872612,left,1,0.5149086196324788,1,1.97,L15G05,2022-09-01_09h05.56.979,t1_Paradigm,2021.1.4,59.98933844633179,
K,left,Pretarget,0,36,36,36,3006.5913251999445,3008.590954032319,left,1,0.761394717686926,1,1.97,L15G05,2022-09-01_09h05.56.979,t1_Paradigm,2021.1.4,59.98933844633179,
F,left,Distractor,0,37,37,37,3010.091038723971,3012.0919927883806,left,1,0.796392263539019,1,1.97,L15G05,2022-09-01_09h05.56.979,t1_Paradigm,2021.1.4,59.98933844633179,
K,right,Target,0,38,38,38,3013.591290232551,3015.5916581921483,right,1,0.4807798048859695,1,1.97,L15G05,2022-09-01_09h05.56.979,t1_Paradigm,2021.1.4,59.98933844633179,
S,left,Pretarget,0,39,39,39,3017.0911359269085,3019.0933616494294,left,1,1.3148829554847907,1,1.97,L15G05,2022-09-01_09h05.56.979,t1_Paradigm,2021.1.4,59.98933844633179,
W,left,Distractor,0,40,40,40,3020.59052062915,3022.592437740401,left,1,0.5360911590250907,1,1.97,L15G05,2022-09-01_09h05.56.979,t1_Paradigm,2021.1.4,59.98933844633179,
S,right,Target,0,41,41,41,3024.091449029409,3026.0928329681483,right,1,0.5233575752499746,1,1.97,L15G05,2022-09-01_09h05.56.979,t1_Paradigm,2021.1.4,59.98933844633179,
F,left,Pretarget,0,42,42,42,3027.5905321780156,3029.5914692399238,left,1,0.5289051998843206,1,1.97,L15G05,2022-09-01_09h05.56.979,t1_Paradigm,2021.1.4,59.98933844633179,
Y,left,Distractor,0,43,43,43,3031.0912498115213,3033.093190662097,left,1,0.883003602604731,1,1.97,L15G05,2022-09-01_09h05.56.979,t1_Paradigm,2021.1.4,59.98933844633179,
F,right,Target,0,44,44,44,3034.5915317962645,3036.591914191944,right,1,0.6645571813132847,1,1.97,L15G05,2022-09-01_09h05.56.979,t1_Paradigm,2021.1.4,59.98933844633179,
F,left,Lure,0,45,45,45,3038.0913399568235,3040.0914438965847,left,1,0.9088765843625879,1,1.97,L15G05,2022-09-01_09h05.56.979,t1_Paradigm,2021.1.4,59.98933844633179,
B,left,Pretarget,0,46,46,46,3041.5917159364617,3043.591918041566,left,1,0.9443749017518712,1,1.97,L15G05,2022-09-01_09h05.56.979,t1_Paradigm,2021.1.4,59.98933844633179,
W,left,Distractor,0,47,47,47,3045.0912382626702,3047.0923851289117,left,1,0.8358143071091035,1,1.97,L15G05,2022-09-01_09h05.56.979,t1_Paradigm,2021.1.4,59.98933844633179,
B,right,Target,0,48,48,48,3048.59176662314,3050.5909954157396,right,1,0.6654647294490132,1,1.97,L15G05,2022-09-01_09h05.56.979,t1_Paradigm,2021.1.4,59.98933844633179,
R,left,Pretarget,0,49,49,49,3052.0910897314607,3054.0930963463907,left,1,0.47534959370386787,1,1.97,L15G05,2022-09-01_09h05.56.979,t1_Paradigm,2021.1.4,59.98933844633179,
N,left,Distractor,0,50,50,50,3055.591591144592,3057.591229921818,left,1,0.6730340466892812,1,1.97,L15G05,2022-09-01_09h05.56.979,t1_Paradigm,2021.1.4,59.98933844633179,
R,right,Target,0,51,51,51,3059.0912793252937,3061.093422280959,right,1,0.46676205172843765,1,1.97,L15G05,2022-09-01_09h05.56.979,t1_Paradigm,2021.1.4,59.98933844633179,
V,left,Distractor,0,52,52,52,3062.5904648096475,3064.5914220820705,left,1,1.1929824617691338,1,1.97,L15G05,2022-09-01_09h05.56.979,t1_Paradigm,2021.1.4,59.98933844633179,
G,left,Distractor,0,53,53,53,3066.091314292673,3068.0928470834333,left,1,0.7635341445275117,1,1.97,L15G05,2022-09-01_09h05.56.979,t1_Paradigm,2021.1.4,59.98933844633179,
H,left,Distractor,0,54,54,54,3069.591617129525,3071.5914685983153,left,1,0.7047947029204806,1,1.97,L15G05,2022-09-01_09h05.56.979,t1_Paradigm,2021.1.4,59.98933844633179,
V,left,Lure,0,55,55,55,3073.091275475672,3075.093126822554,left,1,0.8031332706741523,1,1.97,L15G05,2022-09-01_09h05.56.979,t1_Paradigm,2021.1.4,59.98933844633179,
L,left,Distractor,0,56,56,56,3076.5915593852114,3078.591089089852,left,1,0.5371533336146967,1,1.97,L15G05,2022-09-01_09h05.56.979,t1_Paradigm,2021.1.4,59.98933844633179,
K,left,Distractor,0,57,57,57,3080.0912504531298,3082.091888207011,left,1,0.7164045181707479,1,1.97,L15G05,2022-09-01_09h05.56.979,t1_Paradigm,2021.1.4,59.98933844633179,
D,left,Pretarget,0,58,58,58,3083.591539816305,3085.5907329999172,left,1,0.6895473166514421,1,1.97,L15G05,2022-09-01_09h05.56.979,t1_Paradigm,2021.1.4,59.98933844633179,
T,left,Pretarget,0,59,59,59,3087.0912876661314,3089.091390643487,left,1,0.5970284134091344,1,1.97,L15G05,2022-09-01_09h05.56.979,t1_Paradigm,2021.1.4,59.98933844633179,
D,right,Target,0,60,60,60,3090.591576387713,3092.5906909748883,right,1,0.42559324263129383,1,1.97,L15G05,2022-09-01_09h05.56.979,t1_Paradigm,2021.1.4,59.98933844633179,
T,right,Target,0,61,61,61,3094.0912417914806,3096.091916437552,right,1,0.49225712900806684,1,1.97,L15G05,2022-09-01_09h05.56.979,t1_Paradigm,2021.1.4,59.98933844633179,
T,left,Lure,0,62,62,62,3097.5911449093546,3099.590366965116,left,1,0.9939955536829075,1,1.97,L15G05,2022-09-01_09h05.56.979,t1_Paradigm,2021.1.4,59.98933844633179,
F,left,Distractor,0,63,63,63,3101.091271946847,3103.0924800862267,left,1,0.8036536111030728,1,1.97,L15G05,2022-09-01_09h05.56.979,t1_Paradigm,2021.1.4,59.98933844633179,
