Letter,CorrAnswer,Stimulus,finaln_nback_run.thisRepN,finaln_nback_run.thisTrialN,finaln_nback_run.thisN,finaln_nback_run.thisIndex,finaln_fixcross.started,finaln_nback_trial.started,finaln_trial_resp.keys,finaln_trial_resp.corr,finaln_level,finaln_money,finaln_trial_resp.rt,Participant,date,expName,psychopyVersion,frameRate,
T,left,Distractor,0,0,0,0,2904.8304580923577,2906.8226751161637,None,0,0,3.0,,L18G09,2022-08-23_14h39.23.303,t1_Paradigm,2021.1.4,60.03493641570167,
F,left,Distractor,0,1,1,1,2908.3229096223913,2910.323403336599,left,1,0,3.0,1.0579891235320247,L18G09,2022-08-23_14h39.23.303,t1_Paradigm,2021.1.4,60.03493641570167,
G,left,Distractor,0,2,2,2,2911.823453381705,2913.8246782035603,left,1,0,3.0,0.7405812546458037,L18G09,2022-08-23_14h39.23.303,t1_Paradigm,2021.1.4,60.03493641570167,
V,left,Distractor,0,3,3,3,2915.3230995371487,2917.323811075883,left,1,0,3.0,0.45745909454126377,L18G09,2022-08-23_14h39.23.303,t1_Paradigm,2021.1.4,60.03493641570167,
H,left,Distractor,0,4,4,4,2918.822921492065,2920.823764559598,left,1,0,3.0,0.6054039730697696,L18G09,2022-08-23_14h39.23.303,t1_Paradigm,2021.1.4,60.03493641570167,
C,left,Pretarget,0,5,5,5,2922.3232114970306,2924.3230488504414,left,1,0,3.0,0.5142724789147906,L18G09,2022-08-23_14h39.23.303,t1_Paradigm,2021.1.4,60.03493641570167,
C,right,Target,0,6,6,6,2925.8229631963186,2927.8232673165694,right,1,0,3.0,0.4378115788967989,L18G09,2022-08-23_14h39.23.303,t1_Paradigm,2021.1.4,60.03493641570167,
C,right,Target,0,7,7,7,2929.32329875516,2931.323454664911,right,1,0,3.0,0.42582770112130675,L18G09,2022-08-23_14h39.23.303,t1_Paradigm,2021.1.4,60.03493641570167,
W,left,Distractor,0,8,8,8,2932.823156319093,2934.824239025689,left,1,0,3.0,0.5570296048899763,L18G09,2022-08-23_14h39.23.303,t1_Paradigm,2021.1.4,60.03493641570167,
R,left,Pretarget,0,9,9,9,2936.323246143642,2938.3229144344223,left,1,0,3.0,0.4823276619827084,L18G09,2022-08-23_14h39.23.303,t1_Paradigm,2021.1.4,60.03493641570167,
R,right,Target,0,10,10,10,2939.8229362489546,2941.823078364221,right,1,0,3.0,0.662056635661429,L18G09,2022-08-23_14h39.23.303,t1_Paradigm,2021.1.4,60.03493641570167,
Z,left,Distractor,0,11,11,11,2943.3234322087737,2945.323558604745,left,1,0,3.0,0.5056621544827067,L18G09,2022-08-23_14h39.23.303,t1_Paradigm,2021.1.4,60.03493641570167,
R,left,Lure,0,12,12,12,2946.823181983251,2948.8249313163033,None,0,0,3.0,,L18G09,2022-08-23_14h39.23.303,t1_Paradigm,2021.1.4,60.03493641570167,
H,left,Pretarget,0,13,13,13,2950.3230482088366,2952.3238030558314,left,1,0,3.0,0.7374037112931546,L18G09,2022-08-23_14h39.23.303,t1_Paradigm,2021.1.4,60.03493641570167,
H,right,Target,0,14,14,14,2953.823183266457,2955.822937852965,right,1,0,3.0,0.5340961148322094,L18G09,2022-08-23_14h39.23.303,t1_Paradigm,2021.1.4,60.03493641570167,
K,left,Distractor,0,15,15,15,2957.3234059030146,2959.323273091006,left,1,0,3.0,0.5059592170873657,L18G09,2022-08-23_14h39.23.303,t1_Paradigm,2021.1.4,60.03493641570167,
J,left,Distractor,0,16,16,16,2960.8229673667447,2962.822904168759,left,1,0,3.0,0.5262855496657721,L18G09,2022-08-23_14h39.23.303,t1_Paradigm,2021.1.4,60.03493641570167,
H,left,Lure,0,17,17,17,2964.3231495822547,2966.3238341736214,right,0,0,3.0,0.7214194331536419,L18G09,2022-08-23_14h39.23.303,t1_Paradigm,2021.1.4,60.03493641570167,
S,left,Distractor,0,18,18,18,2967.8231688303713,2969.8235589255455,left,1,0,3.0,0.4375231779413298,L18G09,2022-08-23_14h39.23.303,t1_Paradigm,2021.1.4,60.03493641570167,
T,left,Pretarget,0,19,19,19,2971.322888449464,2973.3235082388383,left,1,0,3.0,0.6015444047625351,L18G09,2022-08-23_14h39.23.303,t1_Paradigm,2021.1.4,60.03493641570167,
T,right,Target,0,20,20,20,2974.8230648905374,2976.823504710017,right,1,0,3.0,0.6376243588783836,L18G09,2022-08-23_14h39.23.303,t1_Paradigm,2021.1.4,60.03493641570167,
X,left,Pretarget,0,21,21,21,2978.3231499030553,2980.323458193732,left,1,0,3.0,0.4978855943263625,L18G09,2022-08-23_14h39.23.303,t1_Paradigm,2021.1.4,60.03493641570167,
X,right,Target,0,22,22,22,2981.8231890408933,2983.82310306597,right,1,0,3.0,0.582325159728498,L18G09,2022-08-23_14h39.23.303,t1_Paradigm,2021.1.4,60.03493641570167,
W,left,Distractor,0,23,23,23,2985.3231790960344,2987.323792790172,left,1,0,3.0,0.5373256280981877,L18G09,2022-08-23_14h39.23.303,t1_Paradigm,2021.1.4,60.03493641570167,
K,left,Distractor,0,24,24,24,2988.823145732629,2990.8235454518654,left,1,0,3.0,0.6694841632888711,L18G09,2022-08-23_14h39.23.303,t1_Paradigm,2021.1.4,60.03493641570167,
F,left,Pretarget,0,25,25,25,2992.323150865461,2994.3256110956427,left,1,0,3.0,0.5277166471823875,L18G09,2022-08-23_14h39.23.303,t1_Paradigm,2021.1.4,60.03493641570167,
F,right,Target,0,26,26,26,2995.82308830908,2997.8235608503564,right,1,0,3.0,0.453604338268633,L18G09,2022-08-23_14h39.23.303,t1_Paradigm,2021.1.4,60.03493641570167,
Z,left,Distractor,0,27,27,27,2999.3231829456563,3001.3235217125184,left,1,0,3.0,0.4737436433097173,L18G09,2022-08-23_14h39.23.303,t1_Paradigm,2021.1.4,60.03493641570167,
F,left,Lure,0,28,28,28,3002.8230379431734,3004.8233526498916,left,1,0,3.0,0.5419105296168709,L18G09,2022-08-23_14h39.23.303,t1_Paradigm,2021.1.4,60.03493641570167,
P,left,Distractor,0,29,29,29,3006.323343346634,3008.322873050969,left,1,0,3.0,0.5144460327719571,L18G09,2022-08-23_14h39.23.303,t1_Paradigm,2021.1.4,60.03493641570167,
F,left,Lure,0,30,30,30,3009.8231130108325,3011.82413284024,left,1,0,3.0,0.6291109166304523,L18G09,2022-08-23_14h39.23.303,t1_Paradigm,2021.1.4,60.03493641570167,
R,left,Distractor,0,31,31,31,3013.323305812806,3015.3250801684117,left,1,0,3.0,0.5999734375982371,L18G09,2022-08-23_14h39.23.303,t1_Paradigm,2021.1.4,60.03493641570167,
V,left,Distractor,0,32,32,32,3016.823510163649,3018.8228785046012,left,1,0,3.0,0.4624312040214136,L18G09,2022-08-23_14h39.23.303,t1_Paradigm,2021.1.4,60.03493641570167,
M,left,Pretarget,0,33,33,33,3020.323261862937,3022.3229426649923,left,1,0,3.0,0.46669466198363807,L18G09,2022-08-23_14h39.23.303,t1_Paradigm,2021.1.4,60.03493641570167,
M,right,Target,0,34,34,34,3023.82316530155,3025.823191607309,right,1,0,3.0,0.5019732528198801,L18G09,2022-08-23_14h39.23.303,t1_Paradigm,2021.1.4,60.03493641570167,
M,right,Target,0,35,35,35,3027.3235300533706,3029.323240048405,right,1,0,3.0,0.49000381112637115,L18G09,2022-08-23_14h39.23.303,t1_Paradigm,2021.1.4,60.03493641570167,
D,left,Distractor,0,36,36,36,3030.822928870508,3032.822905451965,left,1,0,3.0,0.4143821290235792,L18G09,2022-08-23_14h39.23.303,t1_Paradigm,2021.1.4,60.03493641570167,
M,left,Lure,0,37,37,37,3034.323238765195,3036.323923035765,left,1,0,3.0,0.7212683354337059,L18G09,2022-08-23_14h39.23.303,t1_Paradigm,2021.1.4,60.03493641570167,
F,left,Distractor,0,38,38,38,3037.8232297827417,3039.823384730087,left,1,0,3.0,0.8057797604778898,L18G09,2022-08-23_14h39.23.303,t1_Paradigm,2021.1.4,60.03493641570167,
T,left,Pretarget,0,39,39,39,3041.3234062238153,3043.3233982037673,left,1,0,3.0,0.5058305755046604,L18G09,2022-08-23_14h39.23.303,t1_Paradigm,2021.1.4,60.03493641570167,
T,right,Target,0,40,40,40,3044.8229009607385,3046.823444720052,right,1,0,3.0,0.46183162516899756,L18G09,2022-08-23_14h39.23.303,t1_Paradigm,2021.1.4,60.03493641570167,
Z,left,Distractor,0,41,41,41,3048.3233802388568,3050.323720609729,left,1,0,3.0,0.4814945393081871,L18G09,2022-08-23_14h39.23.303,t1_Paradigm,2021.1.4,60.03493641570167,
S,left,Distractor,0,42,42,42,3051.823387938104,3053.824292599613,left,1,0,3.0,0.468889909752761,L18G09,2022-08-23_14h39.23.303,t1_Paradigm,2021.1.4,60.03493641570167,
D,left,Distractor,0,43,43,43,3055.3230379431734,3057.324943827578,left,1,0,3.0,0.6160953397738922,L18G09,2022-08-23_14h39.23.303,t1_Paradigm,2021.1.4,60.03493641570167,
Y,left,Pretarget,0,44,44,44,3058.8229907852874,3060.8236728102383,left,1,0,3.0,0.44574340719918837,L18G09,2022-08-23_14h39.23.303,t1_Paradigm,2021.1.4,60.03493641570167,
Y,right,Target,0,45,45,45,3062.3231223140865,3064.323290735112,right,1,0,3.0,0.5140716568930657,L18G09,2022-08-23_14h39.23.303,t1_Paradigm,2021.1.4,60.03493641570167,
Z,left,Pretarget,0,46,46,46,3065.823211817831,3067.8249759077735,left,1,0,3.0,0.4360503761708969,L18G09,2022-08-23_14h39.23.303,t1_Paradigm,2021.1.4,60.03493641570167,
Z,right,Target,0,47,47,47,3069.323315757665,3071.323430283963,left,0,0,3.0,0.3775316086175735,L18G09,2022-08-23_14h39.23.303,t1_Paradigm,2021.1.4,60.03493641570167,
H,left,Pretarget,0,48,48,48,3072.823148299045,3074.824516198576,left,1,0,3.0,0.6526154341663641,L18G09,2022-08-23_14h39.23.303,t1_Paradigm,2021.1.4,60.03493641570167,
H,right,Target,0,49,49,49,3076.3231329005503,3078.322968970755,right,1,0,3.0,0.4502509954472771,L18G09,2022-08-23_14h39.23.303,t1_Paradigm,2021.1.4,60.03493641570167,
Z,left,Lure,0,50,50,50,3079.823160489519,3081.8244071259105,left,1,0,3.0,0.6129027187344036,L18G09,2022-08-23_14h39.23.303,t1_Paradigm,2021.1.4,60.03493641570167,
R,left,Distractor,0,51,51,51,3083.3229955973147,3085.3232830358647,left,1,0,3.0,0.5858279962594679,L18G09,2022-08-23_14h39.23.303,t1_Paradigm,2021.1.4,60.03493641570167,
H,left,Lure,0,52,52,52,3086.822885241443,3088.8228242890727,left,1,0,3.0,0.6543253085801553,L18G09,2022-08-23_14h39.23.303,t1_Paradigm,2021.1.4,60.03493641570167,
L,left,Distractor,0,53,53,53,3090.323125522107,3092.3233051712014,left,1,0,3.0,0.466246180851158,L18G09,2022-08-23_14h39.23.303,t1_Paradigm,2021.1.4,60.03493641570167,
N,left,Pretarget,0,54,54,54,3093.8229400985765,3095.823633030799,left,1,0,3.0,0.6296806609025225,L18G09,2022-08-23_14h39.23.303,t1_Paradigm,2021.1.4,60.03493641570167,
N,right,Target,0,55,55,55,3097.3230148454313,3099.3231271261175,right,1,0,3.0,0.6339457228750689,L18G09,2022-08-23_14h39.23.303,t1_Paradigm,2021.1.4,60.03493641570167,
W,left,Distractor,0,56,56,56,3100.823326664933,3102.822949722635,left,1,0,3.0,0.670208213301521,L18G09,2022-08-23_14h39.23.303,t1_Paradigm,2021.1.4,60.03493641570167,
R,left,Pretarget,0,57,57,57,3104.3232493516625,3106.322817873035,left,1,0,3.0,0.5145942432718584,L18G09,2022-08-23_14h39.23.303,t1_Paradigm,2021.1.4,60.03493641570167,
R,right,Target,0,58,58,58,3107.8231614519245,3109.823510805254,right,1,0,3.0,0.5816748941688274,L18G09,2022-08-23_14h39.23.303,t1_Paradigm,2021.1.4,60.03493641570167,
Q,left,Distractor,0,59,59,59,3111.3235778528615,3113.323371898008,left,1,0,3.0,0.6818805923794571,L18G09,2022-08-23_14h39.23.303,t1_Paradigm,2021.1.4,60.03493641570167,
R,left,Lure,0,60,60,60,3114.822529472076,3116.824472248707,left,1,0,3.0,0.5406982190361305,L18G09,2022-08-23_14h39.23.303,t1_Paradigm,2021.1.4,60.03493641570167,
Z,left,Distractor,0,61,61,61,3118.3225724595395,3120.3233462338503,left,1,0,3.0,0.5939221503504086,L18G09,2022-08-23_14h39.23.303,t1_Paradigm,2021.1.4,60.03493641570167,
K,left,Pretarget,0,62,62,62,3121.823376389235,3123.8234549857116,left,1,0,3.0,0.4696040148992324,L18G09,2022-08-23_14h39.23.303,t1_Paradigm,2021.1.4,60.03493641570167,
K,right,Target,0,63,63,63,3125.323100499554,3127.3231155772446,right,1,0,3.0,0.569976850933017,L18G09,2022-08-23_14h39.23.303,t1_Paradigm,2021.1.4,60.03493641570167,
