Letter,CorrAnswer,Stimulus,nback_run.thisRepN,nback_run.thisTrialN,nback_run.thisN,nback_run.thisIndex,fixcross.started,nback_trial.started,trial_resp.keys,trial_resp.corr,currentlevel,trial_resp.rt,Participant,date,expName,psychopyVersion,frameRate,
H,left,Distractor,0,0,0,0,329.15748809504294,331.09165440134166,None,0,1,,L18G09,2022-08-23_14h39.23.303,t1_Paradigm,2021.1.4,60.03493641570167,
Q,left,Pretarget,0,1,1,1,332.5906923162802,334.5926678147116,left,1,1,0.7091696105599112,L18G09,2022-08-23_14h39.23.303,t1_Paradigm,2021.1.4,60.03493641570167,
Q,right,Target,0,2,2,2,336.0909794340296,338.0900510331776,right,1,1,0.6035038630980125,L18G09,2022-08-23_14h39.23.303,t1_Paradigm,2021.1.4,60.03493641570167,
T,left,Distractor,0,3,3,3,339.59063360952496,341.59108561947505,left,1,1,0.5585392988832609,L18G09,2022-08-23_14h39.23.303,t1_Paradigm,2021.1.4,60.03493641570167,
Q,left,Lure,0,4,4,4,343.0911186620797,345.09013861211133,left,1,1,0.9156611664111551,L18G09,2022-08-23_14h39.23.303,t1_Paradigm,2021.1.4,60.03493641570167,
L,left,Distractor,0,5,5,5,346.5909531282705,348.59278041619837,left,1,1,0.612926458077709,L18G09,2022-08-23_14h39.23.303,t1_Paradigm,2021.1.4,60.03493641570167,
V,left,Pretarget,0,6,6,6,350.090512667186,352.0905986421094,left,1,1,0.6349463041697163,L18G09,2022-08-23_14h39.23.303,t1_Paradigm,2021.1.4,60.03493641570167,
V,right,Target,0,7,7,7,353.5906705017478,355.59077444158174,right,1,1,0.974910079214169,L18G09,2022-08-23_14h39.23.303,t1_Paradigm,2021.1.4,60.03493641570167,
K,left,Distractor,0,8,8,8,357.09104295281577,359.0905447473815,left,1,1,0.7710651394809247,L18G09,2022-08-23_14h39.23.303,t1_Paradigm,2021.1.4,60.03493641570167,
G,left,Pretarget,0,9,9,9,360.5904767373686,362.59245191499576,left,1,1,0.6771542171991314,L18G09,2022-08-23_14h39.23.303,t1_Paradigm,2021.1.4,60.03493641570167,
G,right,Target,0,10,10,10,364.090955373882,366.0900725269057,right,1,1,0.9075715035505709,L18G09,2022-08-23_14h39.23.303,t1_Paradigm,2021.1.4,60.03493641570167,
G,right,Target,0,11,11,11,367.5904837950111,369.5907962561141,right,1,1,0.6228632985876175,L18G09,2022-08-23_14h39.23.303,t1_Paradigm,2021.1.4,60.03493641570167,
P,left,Pretarget,0,12,12,12,371.090955373882,373.0908825518418,left,1,1,0.5468566541385371,L18G09,2022-08-23_14h39.23.303,t1_Paradigm,2021.1.4,60.03493641570167,
P,right,Target,0,13,13,13,374.59067916340064,376.591057388905,right,1,1,0.47058021524208016,L18G09,2022-08-23_14h39.23.303,t1_Paradigm,2021.1.4,60.03493641570167,
G,left,Lure,0,14,14,14,378.0905604666805,380.09200407546814,left,1,1,0.8576200729621632,L18G09,2022-08-23_14h39.23.303,t1_Paradigm,2021.1.4,60.03493641570167,
Y,left,Distractor,0,15,15,15,381.59093997539094,383.5927922858682,left,1,1,0.7967437318511656,L18G09,2022-08-23_14h39.23.303,t1_Paradigm,2021.1.4,60.03493641570167,
B,left,Distractor,0,16,16,16,385.0904459403828,387.09076513832406,left,1,1,0.7548293526087946,L18G09,2022-08-23_14h39.23.303,t1_Paradigm,2021.1.4,60.03493641570167,
T,left,Pretarget,0,17,17,17,388.5906284766934,390.59106861697364,left,1,1,0.6466356857526989,L18G09,2022-08-23_14h39.23.303,t1_Paradigm,2021.1.4,60.03493641570167,
T,right,Target,0,18,18,18,392.0906932786893,394.0910208174828,right,1,1,0.5066296931727265,L18G09,2022-08-23_14h39.23.303,t1_Paradigm,2021.1.4,60.03493641570167,
S,left,Distractor,0,19,19,19,395.5909572986966,397.59232616062945,left,1,1,0.5732849606756645,L18G09,2022-08-23_14h39.23.303,t1_Paradigm,2021.1.4,60.03493641570167,
T,left,Lure,0,20,20,20,399.0903952536719,401.09045973486354,left,1,1,0.7232018088106997,L18G09,2022-08-23_14h39.23.303,t1_Paradigm,2021.1.4,60.03493641570167,
J,left,Distractor,0,21,21,21,402.5907917648874,404.5922546217953,left,1,1,0.5973232926589844,L18G09,2022-08-23_14h39.23.303,t1_Paradigm,2021.1.4,60.03493641570167,
P,left,Distractor,0,22,22,22,406.0905723363503,408.0909880956824,left,1,1,0.6025273419509176,L18G09,2022-08-23_14h39.23.303,t1_Paradigm,2021.1.4,60.03493641570167,
F,left,Distractor,0,23,23,23,409.59055950427137,411.5924384413156,left,1,1,0.637217581999721,L18G09,2022-08-23_14h39.23.303,t1_Paradigm,2021.1.4,60.03493641570167,
L,left,Distractor,0,24,24,24,413.090960185913,415.09092650170714,left,1,1,0.5468264987575822,L18G09,2022-08-23_14h39.23.303,t1_Paradigm,2021.1.4,60.03493641570167,
W,left,Pretarget,0,25,25,25,416.59059383008207,418.5909024415596,left,1,1,0.5030084807185631,L18G09,2022-08-23_14h39.23.303,t1_Paradigm,2021.1.4,60.03493641570167,
W,right,Target,0,26,26,26,420.09039749928706,422.090916236044,right,1,1,0.5706344949358026,L18G09,2022-08-23_14h39.23.303,t1_Paradigm,2021.1.4,60.03493641570167,
V,left,Distractor,0,27,27,27,423.5908896094843,425.5903580406448,left,1,1,0.5432864491958753,L18G09,2022-08-23_14h39.23.303,t1_Paradigm,2021.1.4,60.03493641570167,
W,left,Lure,0,28,28,28,427.09070418595365,429.09286735352725,left,1,1,1.0247742516621656,L18G09,2022-08-23_14h39.23.303,t1_Paradigm,2021.1.4,60.03493641570167,
R,left,Pretarget,0,29,29,29,430.5904343915099,432.5923155741657,left,1,1,0.6135160920675844,L18G09,2022-08-23_14h39.23.303,t1_Paradigm,2021.1.4,60.03493641570167,
R,right,Target,0,30,30,30,434.0906814090158,436.0907141308162,right,1,1,0.6988359380338807,L18G09,2022-08-23_14h39.23.303,t1_Paradigm,2021.1.4,60.03493641570167,
G,left,Distractor,0,31,31,31,437.5903618902703,439.591473789842,left,1,1,0.8941289392896579,L18G09,2022-08-23_14h39.23.303,t1_Paradigm,2021.1.4,60.03493641570167,
R,left,Lure,0,32,32,32,441.09091655684824,443.091560085566,left,1,1,0.6261005111009581,L18G09,2022-08-23_14h39.23.303,t1_Paradigm,2021.1.4,60.03493641570167,
S,left,Distractor,0,33,33,33,444.5905498802131,446.59193221583337,left,1,1,0.5977579793070618,L18G09,2022-08-23_14h39.23.303,t1_Paradigm,2021.1.4,60.03493641570167,
R,left,Lure,0,34,34,34,448.0906730681636,450.0912668725796,left,1,1,0.7464118301504641,L18G09,2022-08-23_14h39.23.303,t1_Paradigm,2021.1.4,60.03493641570167,
P,left,Pretarget,0,35,35,35,451.5907458902075,453.5904016697132,left,1,1,0.5112322388013126,L18G09,2022-08-23_14h39.23.303,t1_Paradigm,2021.1.4,60.03493641570167,
P,right,Target,0,36,36,36,455.0906438751881,457.09066408571016,right,1,1,0.4992156392218021,L18G09,2022-08-23_14h39.23.303,t1_Paradigm,2021.1.4,60.03493641570167,
Y,left,Pretarget,0,37,37,37,458.5909370881709,460.59094190020187,left,1,1,0.5345638440812763,L18G09,2022-08-23_14h39.23.303,t1_Paradigm,2021.1.4,60.03493641570167,
Y,right,Target,0,38,38,38,462.0902499303884,464.09073305812854,right,1,1,0.6032372766749177,L18G09,2022-08-23_14h39.23.303,t1_Paradigm,2021.1.4,60.03493641570167,
J,left,Distractor,0,39,39,39,465.5909146320337,467.5903551534284,left,1,1,0.5432951108487032,L18G09,2022-08-23_14h39.23.303,t1_Paradigm,2021.1.4,60.03493641570167,
Y,left,Lure,0,40,40,40,469.09084758442623,471.0908331483406,left,1,1,0.722784124667669,L18G09,2022-08-23_14h39.23.303,t1_Paradigm,2021.1.4,60.03493641570167,
T,left,Distractor,0,41,41,41,472.59093323854904,474.592460255848,left,1,1,0.549019821712136,L18G09,2022-08-23_14h39.23.303,t1_Paradigm,2021.1.4,60.03493641570167,
V,left,Distractor,0,42,42,42,476.091233509178,478.09159216576154,left,1,1,0.5219518360790971,L18G09,2022-08-23_14h39.23.303,t1_Paradigm,2021.1.4,60.03493641570167,
N,left,Pretarget,0,43,43,43,479.59091976486525,481.6036209558115,left,1,1,0.5460414963745279,L18G09,2022-08-23_14h39.23.303,t1_Paradigm,2021.1.4,60.03493641570167,
N,right,Target,0,44,44,44,483.0903570782393,485.0904533188259,right,1,1,0.6272239595418796,L18G09,2022-08-23_14h39.23.303,t1_Paradigm,2021.1.4,60.03493641570167,
N,right,Target,0,45,45,45,486.59073434133825,488.5906024917349,right,1,1,0.48698281912948005,L18G09,2022-08-23_14h39.23.303,t1_Paradigm,2021.1.4,60.03493641570167,
X,left,Distractor,0,46,46,46,490.0909518450608,492.0911513838764,left,1,1,0.5064789162533998,L18G09,2022-08-23_14h39.23.303,t1_Paradigm,2021.1.4,60.03493641570167,
Z,left,Distractor,0,47,47,47,493.5905396145499,495.59122901795126,left,1,1,0.5743971810516086,L18G09,2022-08-23_14h39.23.303,t1_Paradigm,2021.1.4,60.03493641570167,
H,left,Pretarget,0,48,48,48,497.09062398546666,499.0909435042122,left,1,1,0.4831405741315393,L18G09,2022-08-23_14h39.23.303,t1_Paradigm,2021.1.4,60.03493641570167,
H,right,Target,0,49,49,49,500.59054827620275,502.5906342511298,right,1,1,0.6310931519037695,L18G09,2022-08-23_14h39.23.303,t1_Paradigm,2021.1.4,60.03493641570167,
K,left,Distractor,0,50,50,50,504.0906374591468,506.0908100505985,left,1,1,0.5706601590936771,L18G09,2022-08-23_14h39.23.303,t1_Paradigm,2021.1.4,60.03493641570167,
V,left,Pretarget,0,51,51,51,507.5906137198035,509.5914176494989,left,1,1,0.5261995747423498,L18G09,2022-08-23_14h39.23.303,t1_Paradigm,2021.1.4,60.03493641570167,
V,right,Target,0,52,52,52,511.09094286260733,513.0908623413161,right,1,1,0.5628887317652698,L18G09,2022-08-23_14h39.23.303,t1_Paradigm,2021.1.4,60.03493641570167,
R,left,Distractor,0,53,53,53,514.5911664615705,516.590875173395,left,1,1,0.5665086610133585,L18G09,2022-08-23_14h39.23.303,t1_Paradigm,2021.1.4,60.03493641570167,
V,left,Lure,0,54,54,54,518.0904279754723,520.0926601154642,left,1,1,0.5049791671226558,L18G09,2022-08-23_14h39.23.303,t1_Paradigm,2021.1.4,60.03493641570167,
Y,left,Distractor,0,55,55,55,521.590908215996,523.5909646771397,left,1,1,0.5586695444726502,L18G09,2022-08-23_14h39.23.303,t1_Paradigm,2021.1.4,60.03493641570167,
Q,left,Distractor,0,56,56,56,525.0905004767119,527.0903227524323,left,1,1,0.659306079709495,L18G09,2022-08-23_14h39.23.303,t1_Paradigm,2021.1.4,60.03493641570167,
Z,left,Pretarget,0,57,57,57,528.5902688577044,530.5903782511705,left,1,1,0.5351711221774167,L18G09,2022-08-23_14h39.23.303,t1_Paradigm,2021.1.4,60.03493641570167,
Z,right,Target,0,58,58,58,532.0909175192537,534.0905171584163,right,1,1,0.44313528731800034,L18G09,2022-08-23_14h39.23.303,t1_Paradigm,2021.1.4,60.03493641570167,
B,left,Distractor,0,59,59,59,535.5909005167487,537.5922520553795,left,1,1,0.7817943608170026,L18G09,2022-08-23_14h39.23.303,t1_Paradigm,2021.1.4,60.03493641570167,
S,left,Pretarget,0,60,60,60,539.0906393839578,541.0915033036217,left,1,1,0.49818009051523404,L18G09,2022-08-23_14h39.23.303,t1_Paradigm,2021.1.4,60.03493641570167,
S,right,Target,0,61,61,61,542.5906637649096,544.5902534592096,right,1,1,0.45524876908166334,L18G09,2022-08-23_14h39.23.303,t1_Paradigm,2021.1.4,60.03493641570167,
T,left,Distractor,0,62,62,62,546.091136306186,548.0903317348857,left,1,1,0.5232863722048933,L18G09,2022-08-23_14h39.23.303,t1_Paradigm,2021.1.4,60.03493641570167,
D,left,Distractor,0,63,63,63,549.5907455694069,551.5920098499046,left,1,1,0.5416109005927865,L18G09,2022-08-23_14h39.23.303,t1_Paradigm,2021.1.4,60.03493641570167,
R,left,Distractor,0,0,0,0,573.0156961979847,575.0091088506706,None,0,1,,L18G09,2022-08-23_14h39.23.303,t1_Paradigm,2021.1.4,60.03493641570167,
V,left,Distractor,0,1,1,1,576.5075613020454,578.5070050314607,left,1,1,0.5704971917002695,L18G09,2022-08-23_14h39.23.303,t1_Paradigm,2021.1.4,60.03493641570167,
N,left,Pretarget,0,2,2,2,580.0072642394371,582.0085846602778,left,1,1,0.5250889583840035,L18G09,2022-08-23_14h39.23.303,t1_Paradigm,2021.1.4,60.03493641570167,
N,right,Target,0,3,3,3,583.5071619036135,585.5076107055465,right,1,1,0.49794815070708864,L18G09,2022-08-23_14h39.23.303,t1_Paradigm,2021.1.4,60.03493641570167,
S,left,Distractor,0,4,4,4,587.0071362394592,589.0079895726558,left,1,1,0.5015446614088432,L18G09,2022-08-23_14h39.23.303,t1_Paradigm,2021.1.4,60.03493641570167,
N,left,Lure,0,5,5,5,590.507509332132,592.5073360990755,left,1,1,0.7627701633646211,L18G09,2022-08-23_14h39.23.303,t1_Paradigm,2021.1.4,60.03493641570167,
Z,left,Distractor,0,6,6,6,594.0069527407395,596.0090289709842,left,1,1,0.5084848908700224,L18G09,2022-08-23_14h39.23.303,t1_Paradigm,2021.1.4,60.03493641570167,
L,left,Pretarget,0,7,7,7,597.5074669862734,599.5075417331282,left,1,1,0.514173671912431,L18G09,2022-08-23_14h39.23.303,t1_Paradigm,2021.1.4,60.03493641570167,
L,right,Target,0,8,8,8,601.0073223045911,603.0072652018425,right,1,1,0.5824428940431972,L18G09,2022-08-23_14h39.23.303,t1_Paradigm,2021.1.4,60.03493641570167,
H,left,Distractor,0,9,9,9,604.5073091517115,606.5073838985663,left,1,1,0.5222428034503537,L18G09,2022-08-23_14h39.23.303,t1_Paradigm,2021.1.4,60.03493641570167,
L,left,Lure,0,10,10,10,608.007539487513,610.0074900840118,left,1,1,0.4942072791236569,L18G09,2022-08-23_14h39.23.303,t1_Paradigm,2021.1.4,60.03493641570167,
X,left,Pretarget,0,11,11,11,611.5070223547664,613.5092317178205,left,1,1,0.5762241481752426,L18G09,2022-08-23_14h39.23.303,t1_Paradigm,2021.1.4,60.03493641570167,
X,right,Target,0,12,12,12,615.0071833973452,617.0072119487195,right,1,1,0.4864862177055329,L18G09,2022-08-23_14h39.23.303,t1_Paradigm,2021.1.4,60.03493641570167,
X,right,Target,0,13,13,13,618.5072292720251,620.5070220339621,right,1,1,0.5065921593450184,L18G09,2022-08-23_14h39.23.303,t1_Paradigm,2021.1.4,60.03493641570167,
R,left,Distractor,0,14,14,14,622.0070695126524,624.0081701841555,left,1,1,0.42953135967763956,L18G09,2022-08-23_14h39.23.303,t1_Paradigm,2021.1.4,60.03493641570167,
T,left,Distractor,0,15,15,15,625.5071769813076,627.5074624950466,left,1,1,0.5142461731520598,L18G09,2022-08-23_14h39.23.303,t1_Paradigm,2021.1.4,60.03493641570167,
V,left,Pretarget,0,16,16,16,629.0069264349804,631.0077945250669,left,1,1,0.5177326487864775,L18G09,2022-08-23_14h39.23.303,t1_Paradigm,2021.1.4,60.03493641570167,
V,right,Target,0,17,17,17,632.5074458133422,634.507401221872,right,1,1,0.6662475923803868,L18G09,2022-08-23_14h39.23.303,t1_Paradigm,2021.1.4,60.03493641570167,
N,left,Distractor,0,18,18,18,636.0072260640045,638.0075545652071,left,1,1,0.49419540945382323,L18G09,2022-08-23_14h39.23.303,t1_Paradigm,2021.1.4,60.03493641570167,
B,left,Distractor,0,19,19,19,639.5070659838311,641.5070547557625,left,1,1,0.5784360776415269,L18G09,2022-08-23_14h39.23.303,t1_Paradigm,2021.1.4,60.03493641570167,
V,left,Lure,0,20,20,20,643.0075215226061,645.0075475075646,left,1,1,0.46996010507064057,L18G09,2022-08-23_14h39.23.303,t1_Paradigm,2021.1.4,60.03493641570167,
P,left,Distractor,0,21,21,21,646.5075099737332,648.5080267856829,left,1,1,0.5215508336368657,L18G09,2022-08-23_14h39.23.303,t1_Paradigm,2021.1.4,60.03493641570167,
K,left,Pretarget,0,22,22,22,650.0074663446685,652.0073338534603,left,1,1,0.5901466321593034,L18G09,2022-08-23_14h39.23.303,t1_Paradigm,2021.1.4,60.03493641570167,
K,right,Target,0,23,23,23,653.5071317482325,655.5070319788247,right,1,1,0.9626939408226463,L18G09,2022-08-23_14h39.23.303,t1_Paradigm,2021.1.4,60.03493641570167,
J,left,Pretarget,0,24,24,24,657.0071635076238,659.0082362693574,left,1,1,0.5332151926668303,L18G09,2022-08-23_14h39.23.303,t1_Paradigm,2021.1.4,60.03493641570167,
J,right,Target,0,25,25,25,660.5073656128552,662.5073739537074,right,1,1,0.6020070011800271,L18G09,2022-08-23_14h39.23.303,t1_Paradigm,2021.1.4,60.03493641570167,
H,left,Distractor,0,26,26,26,664.0072761091105,666.0075657932757,left,1,1,0.44610527180338977,L18G09,2022-08-23_14h39.23.303,t1_Paradigm,2021.1.4,60.03493641570167,
J,left,Lure,0,27,27,27,667.5072571817946,669.5075616228496,left,1,1,0.5141050202946644,L18G09,2022-08-23_14h39.23.303,t1_Paradigm,2021.1.4,60.03493641570167,
V,left,Distractor,0,28,28,28,671.0072613522207,673.0071997582454,left,1,1,0.6145025580772199,L18G09,2022-08-23_14h39.23.303,t1_Paradigm,2021.1.4,60.03493641570167,
Z,left,Pretarget,0,29,29,29,674.5073598384188,676.506892429974,left,1,1,0.4906941769295372,L18G09,2022-08-23_14h39.23.303,t1_Paradigm,2021.1.4,60.03493641570167,
Z,right,Target,0,30,30,30,678.00759434465,680.0075224850116,right,1,1,0.44618515148977167,L18G09,2022-08-23_14h39.23.303,t1_Paradigm,2021.1.4,60.03493641570167,
T,left,Distractor,0,31,31,31,681.5073261542166,683.5076078183301,left,1,1,0.46631387006345904,L18G09,2022-08-23_14h39.23.303,t1_Paradigm,2021.1.4,60.03493641570167,
Z,left,Lure,0,32,32,32,685.0073168509589,687.0080360889369,left,1,1,0.693812500237982,L18G09,2022-08-23_14h39.23.303,t1_Paradigm,2021.1.4,60.03493641570167,
F,left,Distractor,0,33,33,33,688.5070865151574,690.5073784449341,left,1,1,0.5061225052813825,L18G09,2022-08-23_14h39.23.303,t1_Paradigm,2021.1.4,60.03493641570167,
Y,left,Pretarget,0,34,34,34,692.0072305552312,694.00895743215,left,1,1,0.5247890085556719,L18G09,2022-08-23_14h39.23.303,t1_Paradigm,2021.1.4,60.03493641570167,
Y,right,Target,0,35,35,35,695.5070563597728,697.5073813321505,right,1,1,0.49836872206651606,L18G09,2022-08-23_14h39.23.303,t1_Paradigm,2021.1.4,60.03493641570167,
Y,right,Target,0,36,36,36,699.0070659838311,701.0072443497156,right,1,1,0.5502090345544275,L18G09,2022-08-23_14h39.23.303,t1_Paradigm,2021.1.4,60.03493641570167,
W,left,Distractor,0,37,37,37,702.5075301842589,704.50816922175,left,1,1,0.6012149411581049,L18G09,2022-08-23_14h39.23.303,t1_Paradigm,2021.1.4,60.03493641570167,
Q,left,Distractor,0,38,38,38,706.0076151967769,708.0074596078266,left,1,1,0.6061508000166214,L18G09,2022-08-23_14h39.23.303,t1_Paradigm,2021.1.4,60.03493641570167,
P,left,Pretarget,0,39,39,39,709.5072174023517,711.5068930715788,left,1,1,0.6907263854482153,L18G09,2022-08-23_14h39.23.303,t1_Paradigm,2021.1.4,60.03493641570167,
P,right,Target,0,40,40,40,713.0075167105751,715.007111858511,right,1,1,0.5985988012253074,L18G09,2022-08-23_14h39.23.303,t1_Paradigm,2021.1.4,60.03493641570167,
J,left,Distractor,0,41,41,41,716.507500349675,718.5069405502654,left,1,1,0.4746418887807522,L18G09,2022-08-23_14h39.23.303,t1_Paradigm,2021.1.4,60.03493641570167,
P,left,Lure,0,42,42,42,720.0070842695422,722.008723888328,left,1,1,0.5089093118549499,L18G09,2022-08-23_14h39.23.303,t1_Paradigm,2021.1.4,60.03493641570167,
L,left,Distractor,0,43,43,43,723.5069453622964,725.5072305552312,left,1,1,0.5144668848952278,L18G09,2022-08-23_14h39.23.303,t1_Paradigm,2021.1.4,60.03493641570167,
Z,left,Distractor,0,44,44,44,727.0069739136707,729.0068157583082,left,1,1,0.6148663474887144,L18G09,2022-08-23_14h39.23.303,t1_Paradigm,2021.1.4,60.03493641570167,
F,left,Pretarget,0,45,45,45,730.5075029160907,732.506923547764,left,1,1,0.5066842295018432,L18G09,2022-08-23_14h39.23.303,t1_Paradigm,2021.1.4,60.03493641570167,
F,right,Target,0,46,46,46,734.0071965502248,736.0071397682805,right,1,1,0.5584270181971078,L18G09,2022-08-23_14h39.23.303,t1_Paradigm,2021.1.4,60.03493641570167,
G,left,Pretarget,0,47,47,47,737.5072841291585,739.5075654724715,left,1,1,0.4338884918070107,L18G09,2022-08-23_14h39.23.303,t1_Paradigm,2021.1.4,60.03493641570167,
G,right,Target,0,48,48,48,741.0071471467236,743.0070233171718,right,1,1,0.6466456306116015,L18G09,2022-08-23_14h39.23.303,t1_Paradigm,2021.1.4,60.03493641570167,
V,left,Distractor,0,49,49,49,744.5070967808169,746.5090453318844,left,1,1,0.45655571624229196,L18G09,2022-08-23_14h39.23.303,t1_Paradigm,2021.1.4,60.03493641570167,
G,left,Lure,0,50,50,50,748.0074390765039,750.0090636175955,left,1,1,0.9405358290860022,L18G09,2022-08-23_14h39.23.303,t1_Paradigm,2021.1.4,60.03493641570167,
Q,left,Pretarget,0,51,51,51,751.5073486103502,753.5069543447498,left,1,1,0.5630144861352164,L18G09,2022-08-23_14h39.23.303,t1_Paradigm,2021.1.4,60.03493641570167,
Q,right,Target,0,52,52,52,755.0069665352239,757.0068661242149,right,1,1,0.45459978672806756,L18G09,2022-08-23_14h39.23.303,t1_Paradigm,2021.1.4,60.03493641570167,
Y,left,Distractor,0,53,53,53,758.5069774424919,760.5068885803521,left,1,1,0.5386839035709272,L18G09,2022-08-23_14h39.23.303,t1_Paradigm,2021.1.4,60.03493641570167,
V,left,Distractor,0,54,54,54,762.0073665752607,764.0086135324564,left,1,1,0.509016138905281,L18G09,2022-08-23_14h39.23.303,t1_Paradigm,2021.1.4,60.03493641570167,
B,left,Distractor,0,55,55,55,765.5071689612596,767.5073595176182,left,1,1,0.498343699513498,L18G09,2022-08-23_14h39.23.303,t1_Paradigm,2021.1.4,60.03493641570167,
J,left,Pretarget,0,56,56,56,769.0074916880221,771.0075041993005,left,1,1,0.501933794173965,L18G09,2022-08-23_14h39.23.303,t1_Paradigm,2021.1.4,60.03493641570167,
J,right,Target,0,57,57,57,772.5072212519772,774.5074583246205,right,1,1,0.633979727881524,L18G09,2022-08-23_14h39.23.303,t1_Paradigm,2021.1.4,60.03493641570167,
H,left,Distractor,0,58,58,58,776.0069119988948,778.0071673572493,left,1,1,0.4782435323104437,L18G09,2022-08-23_14h39.23.303,t1_Paradigm,2021.1.4,60.03493641570167,
J,left,Lure,0,59,59,59,779.5071429763011,781.5087562893241,left,1,1,1.040850279161532,L18G09,2022-08-23_14h39.23.303,t1_Paradigm,2021.1.4,60.03493641570167,
D,left,Pretarget,0,60,60,60,783.0069293221968,785.0084948357326,left,1,1,0.6131959317172004,L18G09,2022-08-23_14h39.23.303,t1_Paradigm,2021.1.4,60.03493641570167,
D,right,Target,0,61,61,61,786.5075888910142,788.5069970114091,right,1,1,0.6182896251375496,L18G09,2022-08-23_14h39.23.303,t1_Paradigm,2021.1.4,60.03493641570167,
R,left,Distractor,0,62,62,62,790.0072838083579,792.007316209354,left,1,1,0.6221835192482104,L18G09,2022-08-23_14h39.23.303,t1_Paradigm,2021.1.4,60.03493641570167,
F,left,Distractor,0,63,63,63,793.5071789061185,795.5075802293613,left,1,1,0.5301018097088672,L18G09,2022-08-23_14h39.23.303,t1_Paradigm,2021.1.4,60.03493641570167,
F,left,Distractor,0,0,0,0,938.263529822394,940.2572542945782,None,0,2,,L18G09,2022-08-23_14h39.23.303,t1_Paradigm,2021.1.4,60.03493641570167,
N,left,Pretarget,0,1,1,1,941.757127898607,943.7588720988279,None,0,2,,L18G09,2022-08-23_14h39.23.303,t1_Paradigm,2021.1.4,60.03493641570167,
V,left,Distractor,0,2,2,2,945.2572562193891,947.2574836679742,left,1,2,0.5720004696559045,L18G09,2022-08-23_14h39.23.303,t1_Paradigm,2021.1.4,60.03493641570167,
N,right,Target,0,3,3,3,948.7571971918296,950.756873502658,right,1,2,0.8647903174278326,L18G09,2022-08-23_14h39.23.303,t1_Paradigm,2021.1.4,60.03493641570167,
N,left,Lure,0,4,4,4,952.2571558083764,954.257105763274,left,1,2,0.8362915550824255,L18G09,2022-08-23_14h39.23.303,t1_Paradigm,2021.1.4,60.03493641570167,
X,left,Distractor,0,5,5,5,955.7571458635175,957.7568443096825,left,1,2,0.8247452511677693,L18G09,2022-08-23_14h39.23.303,t1_Paradigm,2021.1.4,60.03493641570167,
G,left,Pretarget,0,6,6,6,959.2571593371977,961.2569184149324,left,1,2,0.8605605436714541,L18G09,2022-08-23_14h39.23.303,t1_Paradigm,2021.1.4,60.03493641570167,
H,left,Pretarget,0,7,7,7,962.757146825923,964.7569630064027,left,1,2,0.8004008741227153,L18G09,2022-08-23_14h39.23.303,t1_Paradigm,2021.1.4,60.03493641570167,
G,right,Target,0,8,8,8,966.2569989362237,968.2590642592004,left,0,2,0.8343840666675533,L18G09,2022-08-23_14h39.23.303,t1_Paradigm,2021.1.4,60.03493641570167,
H,right,Target,0,9,9,9,969.7571644700292,971.7588714572266,right,1,2,0.7266000639065169,L18G09,2022-08-23_14h39.23.303,t1_Paradigm,2021.1.4,60.03493641570167,
T,left,Pretarget,0,10,10,10,973.2574053922981,975.2578557982415,left,1,2,0.7157858300488442,L18G09,2022-08-23_14h39.23.303,t1_Paradigm,2021.1.4,60.03493641570167,
K,left,Distractor,0,11,11,11,976.7573964098447,978.7575048409017,left,1,2,0.8322937211378303,L18G09,2022-08-23_14h39.23.303,t1_Paradigm,2021.1.4,60.03493641570167,
T,right,Target,0,12,12,12,980.2574227156038,982.256887617943,right,1,2,0.628482465606794,L18G09,2022-08-23_14h39.23.303,t1_Paradigm,2021.1.4,60.03493641570167,
T,left,Lure,0,13,13,13,983.7571923797987,985.7573316078488,left,1,2,0.5520398512999236,L18G09,2022-08-23_14h39.23.303,t1_Paradigm,2021.1.4,60.03493641570167,
J,left,Distractor,0,14,14,14,987.2572860539694,989.2576536930101,left,1,2,0.8919192554312758,L18G09,2022-08-23_14h39.23.303,t1_Paradigm,2021.1.4,60.03493641570167,
Q,left,Pretarget,0,15,15,15,990.7569453622964,992.756915527716,left,1,2,0.6885734835377662,L18G09,2022-08-23_14h39.23.303,t1_Paradigm,2021.1.4,60.03493641570167,
M,left,Distractor,0,16,16,16,994.2571295026173,996.2584011615618,left,1,2,0.7231771070619288,L18G09,2022-08-23_14h39.23.303,t1_Paradigm,2021.1.4,60.03493641570167,
Q,right,Target,0,17,17,17,997.7571349562495,999.7580550162529,right,1,2,0.4394871274998877,L18G09,2022-08-23_14h39.23.303,t1_Paradigm,2021.1.4,60.03493641570167,
R,left,Distractor,0,18,18,18,1001.2571397682805,1003.2586225149098,left,1,2,0.5549142368072353,L18G09,2022-08-23_14h39.23.303,t1_Paradigm,2021.1.4,60.03493641570167,
W,left,Distractor,0,19,19,19,1004.757160941208,1006.7568231367513,left,1,2,0.7845468415762298,L18G09,2022-08-23_14h39.23.303,t1_Paradigm,2021.1.4,60.03493641570167,
C,left,Pretarget,0,20,20,20,1008.2572100239086,1010.2586112868412,left,1,2,1.0267969079795876,L18G09,2022-08-23_14h39.23.303,t1_Paradigm,2021.1.4,60.03493641570167,
T,left,Distractor,0,21,21,21,1011.7571112169062,1013.7421114799654,left,1,2,0.9353535943300813,L18G09,2022-08-23_14h39.23.303,t1_Paradigm,2021.1.4,60.03493641570167,
C,right,Target,0,22,22,22,1015.2573595176182,1017.2573694624771,right,1,2,0.5082266452955082,L18G09,2022-08-23_14h39.23.303,t1_Paradigm,2021.1.4,60.03493641570167,
F,left,Pretarget,0,23,23,23,1018.7572860539694,1020.7568250615623,left,1,2,0.8006148490239866,L18G09,2022-08-23_14h39.23.303,t1_Paradigm,2021.1.4,60.03493641570167,
C,right,Target,0,24,24,24,1022.2570290916046,1024.2580919084794,right,1,2,0.5795348243336775,L18G09,2022-08-23_14h39.23.303,t1_Paradigm,2021.1.4,60.03493641570167,
F,right,Target,0,25,25,25,1025.7570987056315,1027.7568051718408,right,1,2,0.7769566673559893,L18G09,2022-08-23_14h39.23.303,t1_Paradigm,2021.1.4,60.03493641570167,
H,left,Distractor,0,26,26,26,1029.2570188259451,1031.2581089109808,left,1,2,0.6034284746383491,L18G09,2022-08-23_14h39.23.303,t1_Paradigm,2021.1.4,60.03493641570167,
H,left,Lure,0,27,27,27,1032.757020750756,1034.7571914173932,None,0,2,,L18G09,2022-08-23_14h39.23.303,t1_Paradigm,2021.1.4,60.03493641570167,
P,left,Distractor,0,28,28,28,1036.257204891077,1038.2568510465208,left,1,2,0.7726710740571434,L18G09,2022-08-23_14h39.23.303,t1_Paradigm,2021.1.4,60.03493641570167,
G,left,Pretarget,0,29,29,29,1039.756949853523,1041.7579873270406,left,1,2,0.9034524064627476,L18G09,2022-08-23_14h39.23.303,t1_Paradigm,2021.1.4,60.03493641570167,
K,left,Distractor,0,30,30,30,1043.256882485115,1045.2570011818352,left,1,2,0.7326356318553735,L18G09,2022-08-23_14h39.23.303,t1_Paradigm,2021.1.4,60.03493641570167,
G,right,Target,0,31,31,31,1046.7569152069118,1048.7573457231338,right,1,2,0.5922048974898644,L18G09,2022-08-23_14h39.23.303,t1_Paradigm,2021.1.4,60.03493641570167,
M,left,Pretarget,0,32,32,32,1050.2570945352054,1052.258808900846,left,1,2,0.6587331274204189,L18G09,2022-08-23_14h39.23.303,t1_Paradigm,2021.1.4,60.03493641570167,
B,left,Distractor,0,33,33,33,1053.7570043898559,1055.757352139175,left,1,2,0.8081950783853245,L18G09,2022-08-23_14h39.23.303,t1_Paradigm,2021.1.4,60.03493641570167,
M,right,Target,0,34,34,34,1057.2572889411895,1059.258812108863,right,1,2,0.5867066728096688,L18G09,2022-08-23_14h39.23.303,t1_Paradigm,2021.1.4,60.03493641570167,
M,left,Lure,0,35,35,35,1060.757127898607,1062.7570473773158,left,1,2,1.1843193288332259,L18G09,2022-08-23_14h39.23.303,t1_Paradigm,2021.1.4,60.03493641570167,
T,left,Distractor,0,36,36,36,1064.2570810615216,1066.2568131918924,left,1,2,0.8045498057872464,L18G09,2022-08-23_14h39.23.303,t1_Paradigm,2021.1.4,60.03493641570167,
F,left,Distractor,0,37,37,37,1067.7570454525048,1069.7583851214622,left,1,2,1.2072255507191585,L18G09,2022-08-23_14h39.23.303,t1_Paradigm,2021.1.4,60.03493641570167,
X,left,Distractor,0,38,38,38,1071.2570175427354,1073.2569912369763,left,1,2,1.1486458307917928,L18G09,2022-08-23_14h39.23.303,t1_Paradigm,2021.1.4,60.03493641570167,
C,left,Distractor,0,39,39,39,1074.757107688085,1076.7580617530948,left,1,2,0.991512221913581,L18G09,2022-08-23_14h39.23.303,t1_Paradigm,2021.1.4,60.03493641570167,
R,left,Distractor,0,40,40,40,1078.2574576830157,1080.2588403394366,left,1,2,0.7866997434866789,L18G09,2022-08-23_14h39.23.303,t1_Paradigm,2021.1.4,60.03493641570167,
B,left,Pretarget,0,41,41,41,1081.757084911147,1083.7567515979172,left,1,2,0.6968896325779497,L18G09,2022-08-23_14h39.23.303,t1_Paradigm,2021.1.4,60.03493641570167,
H,left,Distractor,0,42,42,42,1085.2571519587545,1087.2568138334937,left,1,2,0.8765528418589383,L18G09,2022-08-23_14h39.23.303,t1_Paradigm,2021.1.4,60.03493641570167,
B,right,Target,0,43,43,43,1088.7572530113684,1090.7580117079888,right,1,2,0.575525762320467,L18G09,2022-08-23_14h39.23.303,t1_Paradigm,2021.1.4,60.03493641570167,
W,left,Pretarget,0,44,44,44,1092.2569838585296,1094.2575157481697,left,1,2,0.5961132276897843,L18G09,2022-08-23_14h39.23.303,t1_Paradigm,2021.1.4,60.03493641570167,
L,left,Pretarget,0,45,45,45,1095.7569800089077,1097.759660309228,left,1,2,0.7257553923591331,L18G09,2022-08-23_14h39.23.303,t1_Paradigm,2021.1.4,60.03493641570167,
W,right,Target,0,46,46,46,1099.2571256529955,1101.256755447539,right,1,2,1.228670840511768,L18G09,2022-08-23_14h39.23.303,t1_Paradigm,2021.1.4,60.03493641570167,
L,right,Target,0,47,47,47,1102.757115708133,1104.7573928810198,right,1,2,1.200300719752704,L18G09,2022-08-23_14h39.23.303,t1_Paradigm,2021.1.4,60.03493641570167,
W,right,Target,0,48,48,48,1106.2571311066276,1108.2568449512837,right,1,2,1.348815021745395,L18G09,2022-08-23_14h39.23.303,t1_Paradigm,2021.1.4,60.03493641570167,
X,left,Distractor,0,49,49,49,1109.7571051216692,1111.7573502143605,left,1,2,0.632259267003974,L18G09,2022-08-23_14h39.23.303,t1_Paradigm,2021.1.4,60.03493641570167,
R,left,Distractor,0,50,50,50,1113.2574717983007,1115.2572947156223,left,1,2,0.9082448668450525,L18G09,2022-08-23_14h39.23.303,t1_Paradigm,2021.1.4,60.03493641570167,
V,left,Pretarget,0,51,51,51,1116.757060530199,1118.7569453622964,left,1,2,0.8002773653715849,L18G09,2022-08-23_14h39.23.303,t1_Paradigm,2021.1.4,60.03493641570167,
Z,left,Distractor,0,52,52,52,1120.2569889913611,1122.2581923194884,left,1,2,1.0271905319787038,L18G09,2022-08-23_14h39.23.303,t1_Paradigm,2021.1.4,60.03493641570167,
V,right,Target,0,53,53,53,1123.7569520991383,1125.7581053821596,right,1,2,0.6156760516205395,L18G09,2022-08-23_14h39.23.303,t1_Paradigm,2021.1.4,60.03493641570167,
V,left,Lure,0,54,54,54,1127.2570945352054,1129.2568109462773,left,1,2,0.8290237868241093,L18G09,2022-08-23_14h39.23.303,t1_Paradigm,2021.1.4,60.03493641570167,
N,left,Distractor,0,55,55,55,1130.7570614926044,1132.756826344772,left,1,2,0.8647967334654822,L18G09,2022-08-23_14h39.23.303,t1_Paradigm,2021.1.4,60.03493641570167,
B,left,Distractor,0,56,56,56,1134.257088119164,1136.2569219437537,left,1,2,0.7408244225225644,L18G09,2022-08-23_14h39.23.303,t1_Paradigm,2021.1.4,60.03493641570167,
V,left,Lure,0,57,57,57,1137.757008560282,1139.7580710563525,left,1,2,0.6475409888662398,L18G09,2022-08-23_14h39.23.303,t1_Paradigm,2021.1.4,60.03493641570167,
J,left,Distractor,0,58,58,58,1141.256999577825,1143.2574503045726,left,1,2,0.8279555163171608,L18G09,2022-08-23_14h39.23.303,t1_Paradigm,2021.1.4,60.03493641570167,
H,left,Distractor,0,59,59,59,1144.7571038384594,1146.759267006033,left,1,2,0.6383115166609059,L18G09,2022-08-23_14h39.23.303,t1_Paradigm,2021.1.4,60.03493641570167,
X,left,Pretarget,0,60,60,60,1148.2571712068711,1150.258385763067,left,1,2,0.7071992449600657,L18G09,2022-08-23_14h39.23.303,t1_Paradigm,2021.1.4,60.03493641570167,
P,left,Distractor,0,61,61,61,1151.7569251517743,1153.7589375424286,left,1,2,0.7906257177965017,L18G09,2022-08-23_14h39.23.303,t1_Paradigm,2021.1.4,60.03493641570167,
X,right,Target,0,62,62,62,1155.2570723998688,1157.256858745768,right,1,2,0.4606786629483395,L18G09,2022-08-23_14h39.23.303,t1_Paradigm,2021.1.4,60.03493641570167,
Q,left,Distractor,0,63,63,63,1158.7569703848494,1160.7569087908741,left,1,2,0.5605998098253622,L18G09,2022-08-23_14h39.23.303,t1_Paradigm,2021.1.4,60.03493641570167,
B,left,Pretarget,0,0,0,0,1171.0293334890303,1173.0239574898915,None,0,2,,L18G09,2022-08-23_14h39.23.303,t1_Paradigm,2021.1.4,60.03493641570167,
F,left,Distractor,0,1,1,1,1174.5237688583438,1176.5236222518506,None,0,2,,L18G09,2022-08-23_14h39.23.303,t1_Paradigm,2021.1.4,60.03493641570167,
B,right,Target,0,2,2,2,1178.0235879260435,1180.025802101125,right,1,2,0.7315391307820391,L18G09,2022-08-23_14h39.23.303,t1_Paradigm,2021.1.4,60.03493641570167,
V,left,Distractor,0,3,3,3,1181.523692828283,1183.5237515350382,left,1,2,0.6095439222772256,L18G09,2022-08-23_14h39.23.303,t1_Paradigm,2021.1.4,60.03493641570167,
G,left,Pretarget,0,4,4,4,1185.0237152844165,1187.0239497906477,left,1,2,0.9976674489953439,L18G09,2022-08-23_14h39.23.303,t1_Paradigm,2021.1.4,60.03493641570167,
B,left,Lure,0,5,5,5,1188.5236007581225,1190.5234878358315,left,1,2,1.0178375510258775,L18G09,2022-08-23_14h39.23.303,t1_Paradigm,2021.1.4,60.03493641570167,
G,right,Target,0,6,6,6,1192.0237300413064,1194.0234750037562,right,1,2,0.9260580369227682,L18G09,2022-08-23_14h39.23.303,t1_Paradigm,2021.1.4,60.03493641570167,
Y,left,Pretarget,0,7,7,7,1195.5237537806534,1197.524803444645,left,1,2,0.6084621780937596,L18G09,2022-08-23_14h39.23.303,t1_Paradigm,2021.1.4,60.03493641570167,
P,left,Distractor,0,8,8,8,1199.0237284372997,1201.0234750037562,left,1,2,0.8059732040564995,L18G09,2022-08-23_14h39.23.303,t1_Paradigm,2021.1.4,60.03493641570167,
Y,right,Target,0,9,9,9,1202.523810241797,1204.5234371491242,right,1,2,0.6179620863404125,L18G09,2022-08-23_14h39.23.303,t1_Paradigm,2021.1.4,60.03493641570167,
X,left,Distractor,0,10,10,10,1206.0237544222582,1208.0240614297254,left,1,2,0.5894963665996329,L18G09,2022-08-23_14h39.23.303,t1_Paradigm,2021.1.4,60.03493641570167,
Y,right,Target,0,11,11,11,1209.5234891190412,1211.5234223922344,right,1,2,0.5780193559039617,L18G09,2022-08-23_14h39.23.303,t1_Paradigm,2021.1.4,60.03493641570167,
N,left,Distractor,0,12,12,12,1213.023518632821,1215.023522803247,left,1,2,0.869864762727957,L18G09,2022-08-23_14h39.23.303,t1_Paradigm,2021.1.4,60.03493641570167,
Y,right,Target,0,13,13,13,1216.5238156954292,1218.525411364346,right,1,2,0.9360048222952173,L18G09,2022-08-23_14h39.23.303,t1_Paradigm,2021.1.4,60.03493641570167,
Y,left,Lure,0,14,14,14,1220.023692828283,1222.0236296302974,None,0,2,,L18G09,2022-08-23_14h39.23.303,t1_Paradigm,2021.1.4,60.03493641570167,
K,left,Distractor,0,15,15,15,1223.523623855861,1225.5247309434017,left,1,2,1.0568284620640043,L18G09,2022-08-23_14h39.23.303,t1_Paradigm,2021.1.4,60.03493641570167,
T,left,Pretarget,0,16,16,16,1227.024019404671,1229.0238410387828,left,1,2,0.613702157203079,L18G09,2022-08-23_14h39.23.303,t1_Paradigm,2021.1.4,60.03493641570167,
J,left,Distractor,0,17,17,17,1230.5240149134443,1232.5239327881427,left,1,2,0.6013002744766709,L18G09,2022-08-23_14h39.23.303,t1_Paradigm,2021.1.4,60.03493641570167,
T,right,Target,0,18,18,18,1234.023733890932,1236.0255393643274,right,1,2,1.099975041608559,L18G09,2022-08-23_14h39.23.303,t1_Paradigm,2021.1.4,60.03493641570167,
S,left,Pretarget,0,19,19,19,1237.5237034147467,1239.5254351036929,left,1,2,0.7839854381563782,L18G09,2022-08-23_14h39.23.303,t1_Paradigm,2021.1.4,60.03493641570167,
R,left,Distractor,0,20,20,20,1241.0234467731825,1243.02542644204,left,1,2,0.8040791893181449,L18G09,2022-08-23_14h39.23.303,t1_Paradigm,2021.1.4,60.03493641570167,
S,right,Target,0,21,21,21,1244.5236062117547,1246.5255063217264,right,1,2,0.7760189632426773,L18G09,2022-08-23_14h39.23.303,t1_Paradigm,2021.1.4,60.03493641570167,
Q,left,Distractor,0,22,22,22,1248.0237387029592,1250.0254854695995,left,1,2,0.699873732351989,L18G09,2022-08-23_14h39.23.303,t1_Paradigm,2021.1.4,60.03493641570167,
D,left,Distractor,0,23,23,23,1251.5236790337985,1253.5240097806127,left,1,2,0.6734393305778212,L18G09,2022-08-23_14h39.23.303,t1_Paradigm,2021.1.4,60.03493641570167,
F,left,Distractor,0,24,24,24,1255.0236655601148,1257.0237877856598,left,1,2,0.7097306931755156,L18G09,2022-08-23_14h39.23.303,t1_Paradigm,2021.1.4,60.03493641570167,
Z,left,Distractor,0,25,25,25,1258.5239911740973,1260.5243248081315,left,1,2,0.7771818703258759,L18G09,2022-08-23_14h39.23.303,t1_Paradigm,2021.1.4,60.03493641570167,
P,left,Distractor,0,26,26,26,1262.023504517536,1264.0244868131158,left,1,2,0.5730944043134514,L18G09,2022-08-23_14h39.23.303,t1_Paradigm,2021.1.4,60.03493641570167,
H,left,Distractor,0,27,27,27,1265.5238089585873,1267.5239440162113,left,1,2,0.6574913030599419,L18G09,2022-08-23_14h39.23.303,t1_Paradigm,2021.1.4,60.03493641570167,
Z,left,Pretarget,0,28,28,28,1269.024095755536,1271.0240033645714,left,1,2,0.645596929025487,L18G09,2022-08-23_14h39.23.303,t1_Paradigm,2021.1.4,60.03493641570167,
J,left,Pretarget,0,29,29,29,1272.523816978639,1274.5238917254937,left,1,2,0.8735401907106279,L18G09,2022-08-23_14h39.23.303,t1_Paradigm,2021.1.4,60.03493641570167,
Z,right,Target,0,30,30,30,1276.0237775199967,1278.0255307026746,right,1,2,0.7480552985580289,L18G09,2022-08-23_14h39.23.303,t1_Paradigm,2021.1.4,60.03493641570167,
J,right,Target,0,31,31,31,1279.5239648683382,1281.5241092292163,right,1,2,0.6251239899575012,L18G09,2022-08-23_14h39.23.303,t1_Paradigm,2021.1.4,60.03493641570167,
V,left,Pretarget,0,32,32,32,1283.0235664323118,1285.0233954448704,left,1,2,0.8699885922833346,L18G09,2022-08-23_14h39.23.303,t1_Paradigm,2021.1.4,60.03493641570167,
Z,left,Lure,0,33,33,33,1286.523432337097,1288.5252795147426,left,1,2,0.8402983714804577,L18G09,2022-08-23_14h39.23.303,t1_Paradigm,2021.1.4,60.03493641570167,
V,right,Target,0,34,34,34,1290.0240768282201,1292.023404748128,right,1,2,0.6220609729025455,L18G09,2022-08-23_14h39.23.303,t1_Paradigm,2021.1.4,60.03493641570167,
X,left,Distractor,0,35,35,35,1293.5238330187349,1295.5239825124445,left,1,2,0.6414666038763244,L18G09,2022-08-23_14h39.23.303,t1_Paradigm,2021.1.4,60.03493641570167,
S,left,Distractor,0,36,36,36,1297.0239831540493,1299.0245554647336,left,1,2,0.7889758333476493,L18G09,2022-08-23_14h39.23.303,t1_Paradigm,2021.1.4,60.03493641570167,
Q,left,Distractor,0,37,37,37,1300.5236206478403,1302.5242224723079,left,1,2,0.6172046729298017,L18G09,2022-08-23_14h39.23.303,t1_Paradigm,2021.1.4,60.03493641570167,
P,left,Distractor,0,38,38,38,1304.0235170288106,1306.0252557753993,left,1,2,1.0842069839854958,L18G09,2022-08-23_14h39.23.303,t1_Paradigm,2021.1.4,60.03493641570167,
S,left,Lure,0,39,39,39,1307.5234365075194,1309.5234753245568,left,1,2,0.8340934200969059,L18G09,2022-08-23_14h39.23.303,t1_Paradigm,2021.1.4,60.03493641570167,
K,left,Pretarget,0,40,40,40,1311.0236498408194,1313.023824357082,left,1,2,0.8375933694078412,L18G09,2022-08-23_14h39.23.303,t1_Paradigm,2021.1.4,60.03493641570167,
L,left,Distractor,0,41,41,41,1314.523631875909,1316.5240123470285,left,1,2,0.6657176275548409,L18G09,2022-08-23_14h39.23.303,t1_Paradigm,2021.1.4,60.03493641570167,
K,right,Target,0,42,42,42,1318.023570602738,1320.0234307330866,right,1,2,0.5580564919400786,L18G09,2022-08-23_14h39.23.303,t1_Paradigm,2021.1.4,60.03493641570167,
B,left,Distractor,0,43,43,43,1321.523532748106,1323.5366487359788,left,1,2,0.5648777038804838,L18G09,2022-08-23_14h39.23.303,t1_Paradigm,2021.1.4,60.03493641570167,
N,left,Distractor,0,44,44,44,1325.0239818708433,1327.0236055701498,left,1,2,0.7259985602431698,L18G09,2022-08-23_14h39.23.303,t1_Paradigm,2021.1.4,60.03493641570167,
S,left,Pretarget,0,45,45,45,1328.5236514448297,1330.5233871040182,left,1,2,1.1619491670062416,L18G09,2022-08-23_14h39.23.303,t1_Paradigm,2021.1.4,60.03493641570167,
Z,left,Distractor,0,46,46,46,1332.0234669837046,1334.0234580012511,left,1,2,0.7981241426568886,L18G09,2022-08-23_14h39.23.303,t1_Paradigm,2021.1.4,60.03493641570167,
S,right,Target,0,47,47,47,1335.5234130889767,1337.52451536449,right,1,2,0.5449979276199883,L18G09,2022-08-23_14h39.23.303,t1_Paradigm,2021.1.4,60.03493641570167,
C,left,Distractor,0,48,48,48,1339.02341148497,1341.023889159078,left,1,2,0.5977153126477788,L18G09,2022-08-23_14h39.23.303,t1_Paradigm,2021.1.4,60.03493641570167,
T,left,Pretarget,0,49,49,49,1342.5239260513008,1344.524223755514,left,1,2,0.6658716124911734,L18G09,2022-08-23_14h39.23.303,t1_Paradigm,2021.1.4,60.03493641570167,
S,left,Lure,0,50,50,50,1346.0237220212584,1348.0240870938833,left,1,2,0.9892678914475255,L18G09,2022-08-23_14h39.23.303,t1_Paradigm,2021.1.4,60.03493641570167,
T,right,Target,0,51,51,51,1349.5237512142376,1351.524016517451,left,0,2,1.0254453693523828,L18G09,2022-08-23_14h39.23.303,t1_Paradigm,2021.1.4,60.03493641570167,
N,left,Pretarget,0,52,52,52,1353.0235491090061,1355.0239122568164,left,1,2,0.8535256776303868,L18G09,2022-08-23_14h39.23.303,t1_Paradigm,2021.1.4,60.03493641570167,
B,left,Distractor,0,53,53,53,1356.5237079059734,1358.5249253493857,left,1,2,0.8246419529386912,L18G09,2022-08-23_14h39.23.303,t1_Paradigm,2021.1.4,60.03493641570167,
N,right,Target,0,54,54,54,1360.023686733046,1362.0234804573884,right,1,2,0.6539278349591768,L18G09,2022-08-23_14h39.23.303,t1_Paradigm,2021.1.4,60.03493641570167,
N,left,Lure,0,55,55,55,1363.5234185426125,1365.5238365475561,left,1,2,1.3615037014133122,L18G09,2022-08-23_14h39.23.303,t1_Paradigm,2021.1.4,60.03493641570167,
X,left,Distractor,0,56,56,56,1367.0236790337985,1369.02398347485,left,1,2,1.0613995690982847,L18G09,2022-08-23_14h39.23.303,t1_Paradigm,2021.1.4,60.03493641570167,
W,left,Distractor,0,57,57,57,1370.5236023621292,1372.5239651891388,left,1,2,1.001359237874567,L18G09,2022-08-23_14h39.23.303,t1_Paradigm,2021.1.4,60.03493641570167,
S,left,Distractor,0,58,58,58,1374.023283805789,1376.0246436852722,left,1,2,0.8928184633077763,L18G09,2022-08-23_14h39.23.303,t1_Paradigm,2021.1.4,60.03493641570167,
L,left,Distractor,0,59,59,59,1377.5234012193068,1379.5260609883044,left,1,2,0.8475035833580478,L18G09,2022-08-23_14h39.23.303,t1_Paradigm,2021.1.4,60.03493641570167,
K,left,Pretarget,0,60,60,60,1381.0238179410444,1383.0239966277331,left,1,2,0.7415452645145706,L18G09,2022-08-23_14h39.23.303,t1_Paradigm,2021.1.4,60.03493641570167,
V,left,Pretarget,0,61,61,61,1384.5240428232137,1386.525539685128,left,1,2,1.015788909749972,L18G09,2022-08-23_14h39.23.303,t1_Paradigm,2021.1.4,60.03493641570167,
K,right,Target,0,62,62,62,1388.0234304122823,1390.0249118757056,right,1,2,0.7807113334201858,L18G09,2022-08-23_14h39.23.303,t1_Paradigm,2021.1.4,60.03493641570167,
V,right,Target,0,63,63,63,1391.5236790337985,1393.5254428029366,right,1,2,0.8961573700398731,L18G09,2022-08-23_14h39.23.303,t1_Paradigm,2021.1.4,60.03493641570167,
R,left,Distractor,0,0,0,0,1486.6974208806168,1488.6919775130664,None,0,3,,L18G09,2022-08-23_14h39.23.303,t1_Paradigm,2021.1.4,60.03493641570167,
P,left,Lure,0,1,1,1,1490.1902750170993,1492.1904784055405,None,0,3,,L18G09,2022-08-23_14h39.23.303,t1_Paradigm,2021.1.4,60.03493641570167,
V,left,Distractor,0,2,2,2,1493.6900331324287,1495.6901643404271,None,0,3,,L18G09,2022-08-23_14h39.23.303,t1_Paradigm,2021.1.4,60.03493641570167,
P,left,Pretarget,0,3,3,3,1497.1906760195416,1499.1911761497868,left,1,3,0.6701809451333247,L18G09,2022-08-23_14h39.23.303,t1_Paradigm,2021.1.4,60.03493641570167,
Z,left,Distractor,0,4,4,4,1500.6901723604751,1502.6913121698162,left,1,3,1.1381446996456361,L18G09,2022-08-23_14h39.23.303,t1_Paradigm,2021.1.4,60.03493641570167,
L,left,Pretarget,0,5,5,5,1504.1901717188703,1506.1901466963172,left,1,3,1.1593513127882034,L18G09,2022-08-23_14h39.23.303,t1_Paradigm,2021.1.4,60.03493641570167,
P,right,Target,0,6,6,6,1507.690149262733,1509.6906901348266,None,0,3,,L18G09,2022-08-23_14h39.23.303,t1_Paradigm,2021.1.4,60.03493641570167,
S,left,Distractor,0,7,7,7,1511.1902631474295,1513.1902410120929,left,1,3,1.103086499755591,L18G09,2022-08-23_14h39.23.303,t1_Paradigm,2021.1.4,60.03493641570167,
L,right,Target,0,8,8,8,1514.690268280261,1516.6908207012239,right,1,3,0.962777028526034,L18G09,2022-08-23_14h39.23.303,t1_Paradigm,2021.1.4,60.03493641570167,
D,left,Distractor,0,9,9,9,1518.1904107163282,1520.1906455433564,left,1,3,0.9186436621712346,L18G09,2022-08-23_14h39.23.303,t1_Paradigm,2021.1.4,60.03493641570167,
G,left,Distractor,0,10,10,10,1521.6901755684958,1523.690174926891,left,1,3,0.9712805259114248,L18G09,2022-08-23_14h39.23.303,t1_Paradigm,2021.1.4,60.03493641570167,
M,left,Pretarget,0,11,11,11,1525.1905666260755,1527.1900639294145,None,0,3,,L18G09,2022-08-23_14h39.23.303,t1_Paradigm,2021.1.4,60.03493641570167,
Y,left,Distractor,0,12,12,12,1528.6899320798111,1530.6914206008769,left,1,3,1.1060776571721362,L18G09,2022-08-23_14h39.23.303,t1_Paradigm,2021.1.4,60.03493641570167,
V,left,Distractor,0,13,13,13,1532.1901531123585,1534.1904078291082,left,1,3,0.839037619804003,L18G09,2022-08-23_14h39.23.303,t1_Paradigm,2021.1.4,60.03493641570167,
M,right,Target,0,14,14,14,1535.6902291424194,1537.6903327614527,right,1,3,0.6831131134858879,L18G09,2022-08-23_14h39.23.303,t1_Paradigm,2021.1.4,60.03493641570167,
S,left,Pretarget,0,15,15,15,1539.190034736439,1541.1906246912295,left,1,3,0.7346720826571982,L18G09,2022-08-23_14h39.23.303,t1_Paradigm,2021.1.4,60.03493641570167,
Q,left,Distractor,0,16,16,16,1542.69027822512,1544.6911806410171,left,1,3,0.7222528766287724,L18G09,2022-08-23_14h39.23.303,t1_Paradigm,2021.1.4,60.03493641570167,
R,left,Pretarget,0,17,17,17,1546.1899930321815,1548.1904723103034,left,1,3,0.9507684490017709,L18G09,2022-08-23_14h39.23.303,t1_Paradigm,2021.1.4,60.03493641570167,
S,right,Target,0,18,18,18,1549.690042114882,1551.6900995384312,right,1,3,0.875385122748412,L18G09,2022-08-23_14h39.23.303,t1_Paradigm,2021.1.4,60.03493641570167,
F,left,Distractor,0,19,19,19,1553.1899994482228,1555.190600631082,left,1,3,0.8309681674654712,L18G09,2022-08-23_14h39.23.303,t1_Paradigm,2021.1.4,60.03493641570167,
R,right,Target,0,20,20,20,1556.690283037151,1558.6903792777339,left,0,3,0.8349124274791393,L18G09,2022-08-23_14h39.23.303,t1_Paradigm,2021.1.4,60.03493641570167,
P,left,Distractor,0,21,21,21,1560.190042114882,1562.1900100346866,left,1,3,1.1274927915801527,L18G09,2022-08-23_14h39.23.303,t1_Paradigm,2021.1.4,60.03493641570167,
L,left,Distractor,0,22,22,22,1563.6906400897242,1565.6900931223936,left,1,3,1.0833905430117738,L18G09,2022-08-23_14h39.23.303,t1_Paradigm,2021.1.4,60.03493641570167,
R,right,Target,0,23,23,23,1567.1903010020578,1569.1924526207622,right,1,3,0.84509339827855,L18G09,2022-08-23_14h39.23.303,t1_Paradigm,2021.1.4,60.03493641570167,
H,left,Pretarget,0,24,24,24,1570.6902846411576,1572.6919974027878,left,1,3,0.7214431725005852,L18G09,2022-08-23_14h39.23.303,t1_Paradigm,2021.1.4,60.03493641570167,
G,left,Pretarget,0,25,25,25,1574.1901463755166,1576.19015535797,left,1,3,0.8233106248335389,L18G09,2022-08-23_14h39.23.303,t1_Paradigm,2021.1.4,60.03493641570167,
T,left,Distractor,0,26,26,26,1577.6902833579516,1579.6899160397152,left,1,3,0.811932100339618,L18G09,2022-08-23_14h39.23.303,t1_Paradigm,2021.1.4,60.03493641570167,
H,right,Target,0,27,27,27,1581.1905605308384,1583.190609613539,right,1,3,0.5748222436377546,L18G09,2022-08-23_14h39.23.303,t1_Paradigm,2021.1.4,60.03493641570167,
G,right,Target,0,28,28,28,1584.6900790071086,1586.6904370220873,right,1,3,0.6430096612748457,L18G09,2022-08-23_14h39.23.303,t1_Paradigm,2021.1.4,60.03493641570167,
D,left,Distractor,0,29,29,29,1588.1900186963394,1590.191185773845,left,1,3,0.5182363078529306,L18G09,2022-08-23_14h39.23.303,t1_Paradigm,2021.1.4,60.03493641570167,
N,left,Pretarget,0,30,30,30,1591.690058796583,1593.6909108465734,left,1,3,0.714742902899161,L18G09,2022-08-23_14h39.23.303,t1_Paradigm,2021.1.4,60.03493641570167,
V,left,Distractor,0,31,31,31,1595.190255127378,1597.1908149267874,left,1,3,0.8147744056477677,L18G09,2022-08-23_14h39.23.303,t1_Paradigm,2021.1.4,60.03493641570167,
R,left,Distractor,0,32,32,32,1598.6902538441718,1600.6900668166309,left,1,3,1.027377880320273,L18G09,2022-08-23_14h39.23.303,t1_Paradigm,2021.1.4,60.03493641570167,
N,right,Target,0,33,33,33,1602.1904565910045,1604.190130977022,right,1,3,0.647416838510253,L18G09,2022-08-23_14h39.23.303,t1_Paradigm,2021.1.4,60.03493641570167,
Z,left,Distractor,0,34,34,34,1605.6902240095915,1607.6911238590692,left,1,3,1.1464197860368586,L18G09,2022-08-23_14h39.23.303,t1_Paradigm,2021.1.4,60.03493641570167,
N,left,Lure,0,35,35,35,1609.1901226361733,1611.1900315284183,right,0,3,0.9112616884194722,L18G09,2022-08-23_14h39.23.303,t1_Paradigm,2021.1.4,60.03493641570167,
Y,left,Pretarget,0,36,36,36,1612.6899391374536,1614.6919601897607,left,1,3,0.8333311946516915,L18G09,2022-08-23_14h39.23.303,t1_Paradigm,2021.1.4,60.03493641570167,
Y,left,Lure,0,37,37,37,1616.1903067764943,1618.1901470171215,left,1,3,1.383413833234954,L18G09,2022-08-23_14h39.23.303,t1_Paradigm,2021.1.4,60.03493641570167,
B,left,Distractor,0,38,38,38,1619.6903070972949,1621.690056871772,left,1,3,0.9553020222047053,L18G09,2022-08-23_14h39.23.303,t1_Paradigm,2021.1.4,60.03493641570167,
Y,right,Target,0,39,39,39,1623.1905473779589,1625.1899997690234,right,1,3,0.8156614230538253,L18G09,2022-08-23_14h39.23.303,t1_Paradigm,2021.1.4,60.03493641570167,
J,left,Distractor,0,40,40,40,1626.6902743754981,1628.690377352923,left,1,3,1.107123471538216,L18G09,2022-08-23_14h39.23.303,t1_Paradigm,2021.1.4,60.03493641570167,
X,left,Distractor,0,41,41,41,1630.1906538842086,1632.1905191473888,left,1,3,1.0470340576175658,L18G09,2022-08-23_14h39.23.303,t1_Paradigm,2021.1.4,60.03493641570167,
W,left,Pretarget,0,42,42,42,1633.6903690120744,1635.6905297338526,left,1,3,0.8109350478698616,L18G09,2022-08-23_14h39.23.303,t1_Paradigm,2021.1.4,60.03493641570167,
S,left,Pretarget,0,43,43,43,1637.1901579243859,1639.1917827862817,left,1,3,1.1975989256970934,L18G09,2022-08-23_14h39.23.303,t1_Paradigm,2021.1.4,60.03493641570167,
R,left,Distractor,0,44,44,44,1640.690147979527,1642.6919486408915,left,1,3,0.7855387612180493,L18G09,2022-08-23_14h39.23.303,t1_Paradigm,2021.1.4,60.03493641570167,
W,right,Target,0,45,45,45,1644.1904370220873,1646.190397563445,right,1,3,0.6950081291215611,L18G09,2022-08-23_14h39.23.303,t1_Paradigm,2021.1.4,60.03493641570167,
S,right,Target,0,46,46,46,1647.6902503153506,1649.6900565509713,right,1,3,0.9873594406235497,L18G09,2022-08-23_14h39.23.303,t1_Paradigm,2021.1.4,60.03493641570167,
D,left,Distractor,0,47,47,47,1651.1901284106061,1653.1915620745385,left,1,3,0.8459816988906823,L18G09,2022-08-23_14h39.23.303,t1_Paradigm,2021.1.4,60.03493641570167,
T,left,Distractor,0,48,48,48,1654.6901566411798,1656.6916660143725,left,1,3,0.9139333270868519,L18G09,2022-08-23_14h39.23.303,t1_Paradigm,2021.1.4,60.03493641570167,
S,right,Target,0,49,49,49,1658.1904283604345,1660.1904219443968,right,1,3,1.0790680574900762,L18G09,2022-08-23_14h39.23.303,t1_Paradigm,2021.1.4,60.03493641570167,
K,left,Distractor,0,50,50,50,1661.6900392276657,1663.6919739842451,left,1,3,1.049279671293334,L18G09,2022-08-23_14h39.23.303,t1_Paradigm,2021.1.4,60.03493641570167,
S,left,Lure,0,51,51,51,1665.1905502651753,1667.1918575331365,left,1,3,1.1176383971724135,L18G09,2022-08-23_14h39.23.303,t1_Paradigm,2021.1.4,60.03493641570167,
T,left,Pretarget,0,52,52,52,1668.6902082902925,1670.6924449215148,right,0,3,1.2169105616994784,L18G09,2022-08-23_14h39.23.303,t1_Paradigm,2021.1.4,60.03493641570167,
V,left,Distractor,0,53,53,53,1672.1901704356642,1674.1914850820685,left,1,3,1.1580135686381254,L18G09,2022-08-23_14h39.23.303,t1_Paradigm,2021.1.4,60.03493641570167,
B,left,Distractor,0,54,54,54,1675.6901483003276,1677.6904822551624,left,1,3,1.050806046991056,L18G09,2022-08-23_14h39.23.303,t1_Paradigm,2021.1.4,60.03493641570167,
T,right,Target,0,55,55,55,1679.1902438993093,1681.1900328116244,right,1,3,1.0554053845953604,L18G09,2022-08-23_14h39.23.303,t1_Paradigm,2021.1.4,60.03493641570167,
Y,left,Pretarget,0,56,56,56,1682.6905239594162,1684.6900174131333,left,1,3,0.8193188861223462,L18G09,2022-08-23_14h39.23.303,t1_Paradigm,2021.1.4,60.03493641570167,
T,left,Lure,0,57,57,57,1686.1902817539412,1688.1919406208435,left,1,3,0.7575003496749559,L18G09,2022-08-23_14h39.23.303,t1_Paradigm,2021.1.4,60.03493641570167,
P,left,Pretarget,0,58,58,58,1689.690594856649,1691.6917077186263,left,1,3,0.7777201760036405,L18G09,2022-08-23_14h39.23.303,t1_Paradigm,2021.1.4,60.03493641570167,
Y,right,Target,0,59,59,59,1693.1899285509899,1695.1903532927754,right,1,3,0.7030519173022185,L18G09,2022-08-23_14h39.23.303,t1_Paradigm,2021.1.4,60.03493641570167,
R,left,Distractor,0,60,60,60,1696.6900985760258,1698.6908534230242,left,1,3,0.7545021346195426,L18G09,2022-08-23_14h39.23.303,t1_Paradigm,2021.1.4,60.03493641570167,
P,right,Target,0,61,61,61,1700.1899548567526,1702.1905877990066,left,0,3,0.9666978700042819,L18G09,2022-08-23_14h39.23.303,t1_Paradigm,2021.1.4,60.03493641570167,
L,left,Distractor,0,62,62,62,1703.690168190049,1705.6905586060275,left,1,3,0.874846175462153,L18G09,2022-08-23_14h39.23.303,t1_Paradigm,2021.1.4,60.03493641570167,
V,left,Distractor,0,63,63,63,1707.1899631976012,1709.1905364706909,left,1,3,0.9268395104809315,L18G09,2022-08-23_14h39.23.303,t1_Paradigm,2021.1.4,60.03493641570167,
H,left,Lure,0,0,0,0,1723.3637428990514,1725.3572052760392,None,0,3,,L18G09,2022-08-23_14h39.23.303,t1_Paradigm,2021.1.4,60.03493641570167,
B,left,Distractor,0,1,1,1,1726.8568706796032,1728.8579418373229,None,0,3,,L18G09,2022-08-23_14h39.23.303,t1_Paradigm,2021.1.4,60.03493641570167,
T,left,Distractor,0,2,2,2,1730.3571587597544,1732.3577714914863,None,0,3,,L18G09,2022-08-23_14h39.23.303,t1_Paradigm,2021.1.4,60.03493641570167,
R,left,Distractor,0,3,3,3,1733.8566345693653,1735.857056744735,left,1,3,0.9004699107026681,L18G09,2022-08-23_14h39.23.303,t1_Paradigm,2021.1.4,60.03493641570167,
H,left,Pretarget,0,4,4,4,1737.3570448750615,1739.3578783185367,left,1,3,1.1755944781034486,L18G09,2022-08-23_14h39.23.303,t1_Paradigm,2021.1.4,60.03493641570167,
K,left,Distractor,0,5,5,5,1740.8566711407875,1742.856733376364,left,1,3,1.020626282406738,L18G09,2022-08-23_14h39.23.303,t1_Paradigm,2021.1.4,60.03493641570167,
G,left,Distractor,0,6,6,6,1744.356657346303,1746.3571234715419,left,1,3,1.0403889659537526,L18G09,2022-08-23_14h39.23.303,t1_Paradigm,2021.1.4,60.03493641570167,
H,right,Target,0,7,7,7,1747.856901476589,1749.856979752265,right,1,3,0.7245129263937997,L18G09,2022-08-23_14h39.23.303,t1_Paradigm,2021.1.4,60.03493641570167,
Y,left,Pretarget,0,8,8,8,1751.356986489107,1753.3586264286932,left,1,3,0.8403323764869128,L18G09,2022-08-23_14h39.23.303,t1_Paradigm,2021.1.4,60.03493641570167,
S,left,Distractor,0,9,9,9,1754.8571783286752,1756.8567122034365,left,1,3,0.9566721673509164,L18G09,2022-08-23_14h39.23.303,t1_Paradigm,2021.1.4,60.03493641570167,
P,left,Distractor,0,10,10,10,1758.356847581861,1760.3565902986957,left,1,3,0.8970216105008149,L18G09,2022-08-23_14h39.23.303,t1_Paradigm,2021.1.4,60.03493641570167,
Y,right,Target,0,11,11,11,1761.8569996419865,1763.858730047723,right,1,3,0.6265249320858857,L18G09,2022-08-23_14h39.23.303,t1_Paradigm,2021.1.4,60.03493641570167,
H,left,Lure,0,12,12,12,1765.3568767748402,1767.356645155829,left,1,3,0.71331084297708,L18G09,2022-08-23_14h39.23.303,t1_Paradigm,2021.1.4,60.03493641570167,
Q,left,Distractor,0,13,13,13,1768.8568620179503,1770.8581641530764,left,1,3,1.0191955056943698,L18G09,2022-08-23_14h39.23.303,t1_Paradigm,2021.1.4,60.03493641570167,
V,left,Pretarget,0,14,14,14,1772.3568639427613,1774.3577532057752,left,1,3,1.16759111095962,L18G09,2022-08-23_14h39.23.303,t1_Paradigm,2021.1.4,60.03493641570167,
G,left,Distractor,0,15,15,15,1775.857306328653,1777.8572107296714,left,1,3,1.2840569769941794,L18G09,2022-08-23_14h39.23.303,t1_Paradigm,2021.1.4,60.03493641570167,
Z,left,Pretarget,0,16,16,16,1779.357112885078,1781.3579861079925,left,1,3,0.8073212138624513,L18G09,2022-08-23_14h39.23.303,t1_Paradigm,2021.1.4,60.03493641570167,
V,right,Target,0,17,17,17,1782.8567519828794,1784.8572886845468,left,0,3,0.7641881079980521,L18G09,2022-08-23_14h39.23.303,t1_Paradigm,2021.1.4,60.03493641570167,
N,left,Distractor,0,18,18,18,1786.3566624791347,1788.3572412058566,right,0,3,0.7520447916540434,L18G09,2022-08-23_14h39.23.303,t1_Paradigm,2021.1.4,60.03493641570167,
Z,right,Target,0,19,19,19,1789.85690628862,1791.856808444023,right,1,3,0.8685369634440576,L18G09,2022-08-23_14h39.23.303,t1_Paradigm,2021.1.4,60.03493641570167,
R,left,Distractor,0,20,20,20,1793.3571590805586,1795.359027751936,left,1,3,0.8704005019899341,L18G09,2022-08-23_14h39.23.303,t1_Paradigm,2021.1.4,60.03493641570167,
P,left,Distractor,0,21,21,21,1796.8570022084023,1798.8584913710692,left,1,3,0.9868852953368332,L18G09,2022-08-23_14h39.23.303,t1_Paradigm,2021.1.4,60.03493641570167,
Z,right,Target,0,22,22,22,1800.3568889653143,1802.3586623585106,right,1,3,0.654757108011836,L18G09,2022-08-23_14h39.23.303,t1_Paradigm,2021.1.4,60.03493641570167,
D,left,Pretarget,0,23,23,23,1803.8571340580056,1805.8572896469523,left,1,3,0.596205297850247,L18G09,2022-08-23_14h39.23.303,t1_Paradigm,2021.1.4,60.03493641570167,
K,left,Distractor,0,24,24,24,1807.357160042964,1809.3572132960871,left,1,3,1.0964176687448344,L18G09,2022-08-23_14h39.23.303,t1_Paradigm,2021.1.4,60.03493641570167,
W,left,Distractor,0,25,25,25,1810.8572874013407,1812.8573605441852,left,1,3,1.0359975080100412,L18G09,2022-08-23_14h39.23.303,t1_Paradigm,2021.1.4,60.03493641570167,
D,right,Target,0,26,26,26,1814.3571757622594,1816.357769887476,right,1,3,0.7835010272065119,L18G09,2022-08-23_14h39.23.303,t1_Paradigm,2021.1.4,60.03493641570167,
G,left,Pretarget,0,27,27,27,1817.8572646243992,1819.8569759026432,left,1,3,1.1564448470853677,L18G09,2022-08-23_14h39.23.303,t1_Paradigm,2021.1.4,60.03493641570167,
V,left,Distractor,0,28,28,28,1821.3569900179282,1823.3570419878452,left,1,3,1.3682751890482905,L18G09,2022-08-23_14h39.23.303,t1_Paradigm,2021.1.4,60.03493641570167,
D,right,Target,0,29,29,29,1824.8570201733128,1826.8566101884135,right,1,3,0.7809124762425199,L18G09,2022-08-23_14h39.23.303,t1_Paradigm,2021.1.4,60.03493641570167,
G,right,Target,0,30,30,30,1828.3569800730693,1830.3588140978354,right,1,3,0.6706236518293736,L18G09,2022-08-23_14h39.23.303,t1_Paradigm,2021.1.4,60.03493641570167,
B,left,Pretarget,0,31,31,31,1831.8565216470743,1833.8572052760392,left,1,3,0.9963502361752035,L18G09,2022-08-23_14h39.23.303,t1_Paradigm,2021.1.4,60.03493641570167,
N,left,Distractor,0,32,32,32,1835.3572498675094,1837.358248523993,left,1,3,1.079308017353469,L18G09,2022-08-23_14h39.23.303,t1_Paradigm,2021.1.4,60.03493641570167,
F,left,Distractor,0,33,33,33,1838.8568138976552,1840.858969686782,left,1,3,0.8584390803516726,L18G09,2022-08-23_14h39.23.303,t1_Paradigm,2021.1.4,60.03493641570167,
B,right,Target,0,34,34,34,1842.35682929615,1844.358415661809,right,1,3,0.7827737691768561,L18G09,2022-08-23_14h39.23.303,t1_Paradigm,2021.1.4,60.03493641570167,
Q,left,Pretarget,0,35,35,35,1845.856516835047,1847.8581920628494,left,1,3,0.9152592015634582,L18G09,2022-08-23_14h39.23.303,t1_Paradigm,2021.1.4,60.03493641570167,
S,left,Pretarget,0,36,36,36,1849.357083692099,1851.356524855095,left,1,3,0.9048863911957596,L18G09,2022-08-23_14h39.23.303,t1_Paradigm,2021.1.4,60.03493641570167,
W,left,Distractor,0,37,37,37,1852.85679817836,1854.8577923436133,left,1,3,0.891602944706392,L18G09,2022-08-23_14h39.23.303,t1_Paradigm,2021.1.4,60.03493641570167,
Q,right,Target,0,38,38,38,1856.356808444023,1858.3572456970833,right,1,3,0.6881445713261201,L18G09,2022-08-23_14h39.23.303,t1_Paradigm,2021.1.4,60.03493641570167,
S,right,Target,0,39,39,39,1859.8568700379983,1861.8569409352276,right,1,3,0.5965524055645801,L18G09,2022-08-23_14h39.23.303,t1_Paradigm,2021.1.4,60.03493641570167,
T,left,Distractor,0,40,40,40,1863.3568459778508,1865.357069576814,left,1,3,0.5841633549207472,L18G09,2022-08-23_14h39.23.303,t1_Paradigm,2021.1.4,60.03493641570167,
G,left,Distractor,0,41,41,41,1866.8568039527963,1868.8566798024403,left,1,3,1.1171895952356863,L18G09,2022-08-23_14h39.23.303,t1_Paradigm,2021.1.4,60.03493641570167,
D,left,Distractor,0,42,42,42,1870.3573027998318,1872.3575976168286,left,1,3,0.7835876437347906,L18G09,2022-08-23_14h39.23.303,t1_Paradigm,2021.1.4,60.03493641570167,
S,left,Lure,0,43,43,43,1873.8567000129624,1875.8569749402377,left,1,3,0.9485866749128036,L18G09,2022-08-23_14h39.23.303,t1_Paradigm,2021.1.4,60.03493641570167,
Z,left,Pretarget,0,44,44,44,1877.3571321331947,1879.3583701079333,left,1,3,0.6791258660050516,L18G09,2022-08-23_14h39.23.303,t1_Paradigm,2021.1.4,60.03493641570167,
J,left,Distractor,0,45,45,45,1880.856833466576,1882.8576027496601,left,1,3,0.7639016318571521,L18G09,2022-08-23_14h39.23.303,t1_Paradigm,2021.1.4,60.03493641570167,
M,left,Pretarget,0,46,46,46,1884.3568799828572,1886.3571744790497,left,1,3,0.7520499244856182,L18G09,2022-08-23_14h39.23.303,t1_Paradigm,2021.1.4,60.03493641570167,
Z,right,Target,0,47,47,47,1887.856796253549,1889.8565861282696,left,0,3,1.4448483697487973,L18G09,2022-08-23_14h39.23.303,t1_Paradigm,2021.1.4,60.03493641570167,
P,left,Distractor,0,48,48,48,1891.3568215969026,1893.3577413361018,left,1,3,1.3834590663100244,L18G09,2022-08-23_14h39.23.303,t1_Paradigm,2021.1.4,60.03493641570167,
M,right,Target,0,49,49,49,1894.8565838826544,1896.8565408951945,left,0,3,0.9888178063047235,L18G09,2022-08-23_14h39.23.303,t1_Paradigm,2021.1.4,60.03493641570167,
K,left,Distractor,0,50,50,50,1898.357116093095,1900.3569139878637,left,1,3,0.8966594250960043,L18G09,2022-08-23_14h39.23.303,t1_Paradigm,2021.1.4,60.03493641570167,
Y,left,Distractor,0,51,51,51,1901.856930669568,1903.8565902986957,left,1,3,0.852657908344554,L18G09,2022-08-23_14h39.23.303,t1_Paradigm,2021.1.4,60.03493641570167,
X,left,Distractor,0,52,52,52,1905.3569630705642,1907.357745827332,left,1,3,0.8234610809486185,L18G09,2022-08-23_14h39.23.303,t1_Paradigm,2021.1.4,60.03493641570167,
F,left,Pretarget,0,53,53,53,1908.8568539978987,1910.8571318123904,left,1,3,0.9882095657994796,L18G09,2022-08-23_14h39.23.303,t1_Paradigm,2021.1.4,60.03493641570167,
M,left,Lure,0,54,54,54,1912.3568539978987,1914.3582164437976,left,1,3,0.8793354779991205,L18G09,2022-08-23_14h39.23.303,t1_Paradigm,2021.1.4,60.03493641570167,
V,left,Distractor,0,55,55,55,1915.856593827517,1917.8573425792747,left,1,3,0.7880406956537627,L18G09,2022-08-23_14h39.23.303,t1_Paradigm,2021.1.4,60.03493641570167,
F,right,Target,0,56,56,56,1919.3571520229161,1921.3566916721102,right,1,3,1.416845567222481,L18G09,2022-08-23_14h39.23.303,t1_Paradigm,2021.1.4,60.03493641570167,
S,left,Distractor,0,57,57,57,1922.8568774164414,1924.8571561933386,left,1,3,0.972229137289105,L18G09,2022-08-23_14h39.23.303,t1_Paradigm,2021.1.4,60.03493641570167,
D,left,Distractor,0,58,58,58,1926.3567340179688,1928.35653897038,left,1,3,0.7367358016235812,L18G09,2022-08-23_14h39.23.303,t1_Paradigm,2021.1.4,60.03493641570167,
F,right,Target,0,59,59,59,1929.8569659577806,1931.8571286043734,right,1,3,1.0604669978201855,L18G09,2022-08-23_14h39.23.303,t1_Paradigm,2021.1.4,60.03493641570167,
V,left,Pretarget,0,60,60,60,1933.356944784853,1935.3565739377955,left,1,3,0.6969380736736639,L18G09,2022-08-23_14h39.23.303,t1_Paradigm,2021.1.4,60.03493641570167,
J,left,Distractor,0,61,61,61,1936.8570554615253,1938.856630078135,left,1,3,0.8449214484317054,L18G09,2022-08-23_14h39.23.303,t1_Paradigm,2021.1.4,60.03493641570167,
V,left,Lure,0,62,62,62,1940.357120905126,1942.3571423988578,None,0,3,,L18G09,2022-08-23_14h39.23.303,t1_Paradigm,2021.1.4,60.03493641570167,
V,right,Target,0,63,63,63,1943.8568754916305,1945.8568235217135,right,1,3,0.7727227231698635,L18G09,2022-08-23_14h39.23.303,t1_Paradigm,2021.1.4,60.03493641570167,
R,left,Distractor,0,0,0,0,2028.9459676477672,2030.9405323002684,None,0,4,,L18G09,2022-08-23_14h39.23.303,t1_Paradigm,2021.1.4,60.03493641570167,
F,left,Distractor,0,1,1,1,2032.4401030672525,2034.4405335834745,None,0,4,,L18G09,2022-08-23_14h39.23.303,t1_Paradigm,2021.1.4,60.03493641570167,
P,left,Pretarget,0,2,2,2,2035.9399689720376,2037.9411880194602,None,0,4,,L18G09,2022-08-23_14h39.23.303,t1_Paradigm,2021.1.4,60.03493641570167,
H,left,Distractor,0,3,3,3,2039.44017011486,2041.440437342888,None,0,4,,L18G09,2022-08-23_14h39.23.303,t1_Paradigm,2021.1.4,60.03493641570167,
Z,left,Distractor,0,4,4,4,2042.9400985760258,2044.9403346862637,left,1,4,0.7449329331429908,L18G09,2022-08-23_14h39.23.303,t1_Paradigm,2021.1.4,60.03493641570167,
T,left,Distractor,0,5,5,5,2046.440174285286,2048.425202137314,left,1,4,1.2122307028002979,L18G09,2022-08-23_14h39.23.303,t1_Paradigm,2021.1.4,60.03493641570167,
P,right,Target,0,6,6,6,2049.9399580647696,2051.941366064544,left,0,4,1.1519029330265766,L18G09,2022-08-23_14h39.23.303,t1_Paradigm,2021.1.4,60.03493641570167,
G,left,Distractor,0,7,7,7,2053.423731581159,2055.4237030297845,left,1,4,0.7415731742839853,L18G09,2022-08-23_14h39.23.303,t1_Paradigm,2021.1.4,60.03493641570167,
L,left,Distractor,0,8,8,8,2056.923450237846,2058.9234733355843,left,1,4,0.6980024945551122,L18G09,2022-08-23_14h39.23.303,t1_Paradigm,2021.1.4,60.03493641570167,
P,left,Lure,0,9,9,9,2060.4234524834574,2062.4233581676854,right,0,4,0.9420137636880099,L18G09,2022-08-23_14h39.23.303,t1_Paradigm,2021.1.4,60.03493641570167,
Q,left,Pretarget,0,10,10,10,2063.9238124232506,2065.924403661251,left,1,4,0.8970533698957297,L18G09,2022-08-23_14h39.23.303,t1_Paradigm,2021.1.4,60.03493641570167,
D,left,Distractor,0,11,11,11,2067.4235557816864,2069.425266297705,left,1,4,0.6121898967940069,L18G09,2022-08-23_14h39.23.303,t1_Paradigm,2021.1.4,60.03493641570167,
M,left,Pretarget,0,12,12,12,2070.9401434883002,2072.939982766522,left,1,4,1.16136113702305,L18G09,2022-08-23_14h39.23.303,t1_Paradigm,2021.1.4,60.03493641570167,
C,left,Distractor,0,13,13,13,2074.4400077890714,2076.4418629867723,left,1,4,0.9874893654159678,L18G09,2022-08-23_14h39.23.303,t1_Paradigm,2021.1.4,60.03493641570167,
Q,right,Target,0,14,14,14,2077.9403757489126,2079.9403353278685,right,1,4,0.5931377895722107,L18G09,2022-08-23_14h39.23.303,t1_Paradigm,2021.1.4,60.03493641570167,
R,left,Distractor,0,15,15,15,2081.44026186422,2083.4408213428287,left,1,4,0.7083631144487299,L18G09,2022-08-23_14h39.23.303,t1_Paradigm,2021.1.4,60.03493641570167,
M,right,Target,0,16,16,16,2084.940013242707,2086.939816911912,None,0,4,,L18G09,2022-08-23_14h39.23.303,t1_Paradigm,2021.1.4,60.03493641570167,
S,left,Distractor,0,17,17,17,2088.4399609519896,2090.440654846614,left,1,4,0.9407254230427498,L18G09,2022-08-23_14h39.23.303,t1_Paradigm,2021.1.4,60.03493641570167,
Z,left,Distractor,0,18,18,18,2091.9401944958117,2093.9401341850426,left,1,4,1.0090937729764846,L18G09,2022-08-23_14h39.23.303,t1_Paradigm,2021.1.4,60.03493641570167,
L,left,Pretarget,0,19,19,19,2095.440123277778,2097.4412874680675,left,1,4,1.012193361450045,L18G09,2022-08-23_14h39.23.303,t1_Paradigm,2021.1.4,60.03493641570167,
M,right,Target,0,20,20,20,2098.939982766522,2100.9405541148008,right,1,4,0.6166913898050552,L18G09,2022-08-23_14h39.23.303,t1_Paradigm,2021.1.4,60.03493641570167,
P,left,Distractor,0,21,21,21,2102.4400767614934,2104.4413952575233,left,1,4,0.7801781605739961,L18G09,2022-08-23_14h39.23.303,t1_Paradigm,2021.1.4,60.03493641570167,
F,left,Distractor,0,22,22,22,2105.940440230108,2107.9413939743135,left,1,4,0.8800768513174262,L18G09,2022-08-23_14h39.23.303,t1_Paradigm,2021.1.4,60.03493641570167,
L,right,Target,0,23,23,23,2109.4403427063116,2111.440712270163,right,1,4,0.8685138657019706,L18G09,2022-08-23_14h39.23.303,t1_Paradigm,2021.1.4,60.03493641570167,
L,left,Lure,0,24,24,24,2112.939797984596,2114.9402522401615,left,1,4,0.744991960702464,L18G09,2022-08-23_14h39.23.303,t1_Paradigm,2021.1.4,60.03493641570167,
V,left,Pretarget,0,25,25,25,2116.4401678692484,2118.4405040696947,left,1,4,0.8929740522544307,L18G09,2022-08-23_14h39.23.303,t1_Paradigm,2021.1.4,60.03493641570167,
Z,left,Distractor,0,26,26,26,2119.940520430595,2121.941480590842,left,1,4,0.719959142661537,L18G09,2022-08-23_14h39.23.303,t1_Paradigm,2021.1.4,60.03493641570167,
H,left,Distractor,0,27,27,27,2123.4399763504807,2125.440552831591,left,1,4,0.6928077485245012,L18G09,2022-08-23_14h39.23.303,t1_Paradigm,2021.1.4,60.03493641570167,
X,left,Distractor,0,28,28,28,2126.940083819136,2128.9402878491783,left,1,4,0.9850528745810152,L18G09,2022-08-23_14h39.23.303,t1_Paradigm,2021.1.4,60.03493641570167,
V,right,Target,0,29,29,29,2130.4402900947935,2132.440679548363,right,1,4,0.49279478812240995,L18G09,2022-08-23_14h39.23.303,t1_Paradigm,2021.1.4,60.03493641570167,
C,left,Distractor,0,30,30,30,2133.9397992678023,2135.940525884227,left,1,4,1.0088852517073974,L18G09,2022-08-23_14h39.23.303,t1_Paradigm,2021.1.4,60.03493641570167,
S,left,Pretarget,0,31,31,31,2137.4400283203977,2139.440319287769,left,1,4,0.949318744973425,L18G09,2022-08-23_14h39.23.303,t1_Paradigm,2021.1.4,60.03493641570167,
D,left,Distractor,0,32,32,32,2140.940184550949,2142.9403532927754,left,1,4,1.1450011997985712,L18G09,2022-08-23_14h39.23.303,t1_Paradigm,2021.1.4,60.03493641570167,
V,left,Distractor,0,33,33,33,2144.440391468208,2146.440151508348,right,0,4,0.42921087852300843,L18G09,2022-08-23_14h39.23.303,t1_Paradigm,2021.1.4,60.03493641570167,
R,left,Distractor,0,34,34,34,2147.939742485858,2149.9402785459206,left,1,4,0.9772256277137785,L18G09,2022-08-23_14h39.23.303,t1_Paradigm,2021.1.4,60.03493641570167,
S,right,Target,0,35,35,35,2151.440055588566,2153.441770916608,right,1,4,0.9956916297633143,L18G09,2022-08-23_14h39.23.303,t1_Paradigm,2021.1.4,60.03493641570167,
Y,left,Distractor,0,36,36,36,2154.9399728216595,2156.9404052626924,left,1,4,1.0167882078312687,L18G09,2022-08-23_14h39.23.303,t1_Paradigm,2021.1.4,60.03493641570167,
N,left,Pretarget,0,37,37,37,2158.4400363404457,2160.4406192375973,left,1,4,0.7173494187700271,L18G09,2022-08-23_14h39.23.303,t1_Paradigm,2021.1.4,60.03493641570167,
Z,left,Pretarget,0,38,38,38,2161.940043398088,2163.94132275628,left,1,4,0.624084591625433,L18G09,2022-08-23_14h39.23.303,t1_Paradigm,2021.1.4,60.03493641570167,
P,left,Pretarget,0,39,39,39,2165.4400437188924,2167.4401389970735,left,1,4,0.7730448083348165,L18G09,2022-08-23_14h39.23.303,t1_Paradigm,2021.1.4,60.03493641570167,
M,left,Distractor,0,40,40,40,2168.940327628621,2170.9420904353574,left,1,4,0.9511816419144452,L18G09,2022-08-23_14h39.23.303,t1_Paradigm,2021.1.4,60.03493641570167,
N,right,Target,0,41,41,41,2172.4405647012645,2174.440027999597,right,1,4,0.5413921136605495,L18G09,2022-08-23_14h39.23.303,t1_Paradigm,2021.1.4,60.03493641570167,
Z,right,Target,0,42,42,42,2175.9400020146386,2177.941768029392,right,1,4,0.8479818990708736,L18G09,2022-08-23_14h39.23.303,t1_Paradigm,2021.1.4,60.03493641570167,
P,right,Target,0,43,43,43,2179.44014060108,2181.4398076086545,None,0,4,,L18G09,2022-08-23_14h39.23.303,t1_Paradigm,2021.1.4,60.03493641570167,
X,left,Pretarget,0,44,44,44,2182.9401300146164,2184.9397655835965,left,1,4,1.065723337829695,L18G09,2022-08-23_14h39.23.303,t1_Paradigm,2021.1.4,60.03493641570167,
Z,left,Lure,0,45,45,45,2186.423054368235,2188.4236346989674,left,1,4,1.053632953804481,L18G09,2022-08-23_14h39.23.303,t1_Paradigm,2021.1.4,60.03493641570167,
R,left,Pretarget,0,46,46,46,2189.923695972142,2191.925416433016,left,1,4,0.9120171770191519,L18G09,2022-08-23_14h39.23.303,t1_Paradigm,2021.1.4,60.03493641570167,
K,left,Distractor,0,47,47,47,2193.440012921903,2195.4397967013865,left,1,4,0.6776899564611085,L18G09,2022-08-23_14h39.23.303,t1_Paradigm,2021.1.4,60.03493641570167,
X,right,Target,0,48,48,48,2196.940262185024,2198.9399458742955,left,0,4,0.6172178258093481,L18G09,2022-08-23_14h39.23.303,t1_Paradigm,2021.1.4,60.03493641570167,
B,left,Distractor,0,49,49,49,2200.439834876819,2202.439757242748,left,1,4,0.9256442024052376,L18G09,2022-08-23_14h39.23.303,t1_Paradigm,2021.1.4,60.03493641570167,
R,right,Target,0,50,50,50,2203.940095368005,2205.9402522401615,right,1,4,0.7531605408476025,L18G09,2022-08-23_14h39.23.303,t1_Paradigm,2021.1.4,60.03493641570167,
Y,left,Pretarget,0,51,51,51,2207.440342385511,2209.4409596084697,left,1,4,0.7402039915432397,L18G09,2022-08-23_14h39.23.303,t1_Paradigm,2021.1.4,60.03493641570167,
W,left,Pretarget,0,52,52,52,2210.9398120998812,2212.939927909385,left,1,4,0.9213772156181221,L18G09,2022-08-23_14h39.23.303,t1_Paradigm,2021.1.4,60.03493641570167,
Z,left,Distractor,0,53,53,53,2214.4403818441497,2216.4398547665405,left,1,4,1.26145712097059,L18G09,2022-08-23_14h39.23.303,t1_Paradigm,2021.1.4,60.03493641570167,
Q,left,Distractor,0,54,54,54,2217.9401678692484,2219.9398541249357,left,1,4,0.6734948293160414,L18G09,2022-08-23_14h39.23.303,t1_Paradigm,2021.1.4,60.03493641570167,
Y,right,Target,0,55,55,55,2221.4399911073706,2223.4402933028105,right,1,4,0.5008918294297473,L18G09,2022-08-23_14h39.23.303,t1_Paradigm,2021.1.4,60.03493641570167,
W,right,Target,0,56,56,56,2224.940116220132,2226.940819418014,right,1,4,0.6487500914263364,L18G09,2022-08-23_14h39.23.303,t1_Paradigm,2021.1.4,60.03493641570167,
H,left,Pretarget,0,57,57,57,2228.4399599895805,2230.441688470506,left,1,4,0.859436132821429,L18G09,2022-08-23_14h39.23.303,t1_Paradigm,2021.1.4,60.03493641570167,
M,left,Distractor,0,58,58,58,2231.940438946898,2233.939792530964,left,1,4,0.9295788383606123,L18G09,2022-08-23_14h39.23.303,t1_Paradigm,2021.1.4,60.03493641570167,
R,left,Pretarget,0,59,59,59,2235.440066816631,2237.4229013457007,left,1,4,0.918379321363318,L18G09,2022-08-23_14h39.23.303,t1_Paradigm,2021.1.4,60.03493641570167,
J,left,Distractor,0,60,60,60,2238.9233344283384,2240.9239478016752,left,1,4,0.6495132792770164,L18G09,2022-08-23_14h39.23.303,t1_Paradigm,2021.1.4,60.03493641570167,
H,right,Target,0,61,61,61,2242.423414308025,2244.423782267866,right,1,4,0.5735951761671458,L18G09,2022-08-23_14h39.23.303,t1_Paradigm,2021.1.4,60.03493641570167,
Z,left,Distractor,0,62,62,62,2245.923409816798,2247.9247353704704,left,1,4,0.6566386114682246,L18G09,2022-08-23_14h39.23.303,t1_Paradigm,2021.1.4,60.03493641570167,
R,right,Target,0,63,63,63,2249.4399641600066,2251.4399660848176,right,1,4,1.157393779267295,L18G09,2022-08-23_14h39.23.303,t1_Paradigm,2021.1.4,60.03493641570167,
J,left,Pretarget,0,0,0,0,2264.0387304198557,2266.0400601439505,None,0,4,,L18G09,2022-08-23_14h39.23.303,t1_Paradigm,2021.1.4,60.03493641570167,
G,left,Pretarget,0,1,1,1,2267.539812164043,2269.5405602741957,None,0,4,,L18G09,2022-08-23_14h39.23.303,t1_Paradigm,2021.1.4,60.03493641570167,
Z,left,Distractor,0,2,2,2,2271.0400049660166,2273.0403726050536,None,0,4,,L18G09,2022-08-23_14h39.23.303,t1_Paradigm,2021.1.4,60.03493641570167,
F,left,Distractor,0,3,3,3,2274.5396264197116,2276.541169156306,None,0,4,,L18G09,2022-08-23_14h39.23.303,t1_Paradigm,2021.1.4,60.03493641570167,
J,right,Target,0,4,4,4,2278.0404428606817,2280.040419442139,right,1,4,0.5089869459261536,L18G09,2022-08-23_14h39.23.303,t1_Paradigm,2021.1.4,60.03493641570167,
G,right,Target,0,5,5,5,2281.540398590012,2283.5398503394754,right,1,4,1.0415262088790769,L18G09,2022-08-23_14h39.23.303,t1_Paradigm,2021.1.4,60.03493641570167,
H,left,Distractor,0,6,6,6,2285.040036725408,2287.0414030209286,left,1,4,0.9159944796410855,L18G09,2022-08-23_14h39.23.303,t1_Paradigm,2021.1.4,60.03493641570167,
P,left,Distractor,0,7,7,7,2288.5403799835003,2290.5403280135833,left,1,4,0.8251077573768271,L18G09,2022-08-23_14h39.23.303,t1_Paradigm,2021.1.4,60.03493641570167,
G,left,Lure,0,8,8,8,2292.0403292967894,2294.042111993247,right,0,4,1.0191874856427603,L18G09,2022-08-23_14h39.23.303,t1_Paradigm,2021.1.4,60.03493641570167,
S,left,Distractor,0,9,9,9,2295.540067843198,2297.5410738781247,left,1,4,0.8644759315138799,L18G09,2022-08-23_14h39.23.303,t1_Paradigm,2021.1.4,60.03493641570167,
R,left,Pretarget,0,10,10,10,2299.040044424655,2301.0410514219875,left,1,4,0.8362325275193143,L18G09,2022-08-23_14h39.23.303,t1_Paradigm,2021.1.4,60.03493641570167,
T,left,Pretarget,0,11,11,11,2302.5400931865515,2304.540282459704,left,1,4,0.9209778171862126,L18G09,2022-08-23_14h39.23.303,t1_Paradigm,2021.1.4,60.03493641570167,
X,left,Distractor,0,12,12,12,2306.0400992817886,2308.0403835123216,left,1,4,1.004897683425952,L18G09,2022-08-23_14h39.23.303,t1_Paradigm,2021.1.4,60.03493641570167,
F,left,Pretarget,0,13,13,13,2309.5400482742807,2311.5401932767636,left,1,4,0.8972089588423842,L18G09,2022-08-23_14h39.23.303,t1_Paradigm,2021.1.4,60.03493641570167,
R,right,Target,0,14,14,14,2313.039936956,2315.0410912014304,left,0,4,1.3161281898937887,L18G09,2022-08-23_14h39.23.303,t1_Paradigm,2021.1.4,60.03493641570167,
T,right,Target,0,15,15,15,2316.539947863268,2318.5402728356457,right,1,4,1.0491718818375375,L18G09,2022-08-23_14h39.23.303,t1_Paradigm,2021.1.4,60.03493641570167,
C,left,Distractor,0,16,16,16,2320.0401339284,2322.0416064093697,left,1,4,0.9397482602944365,L18G09,2022-08-23_14h39.23.303,t1_Paradigm,2021.1.4,60.03493641570167,
F,right,Target,0,17,17,17,2323.5400264597483,2325.54187909103,right,1,4,1.1353806700135465,L18G09,2022-08-23_14h39.23.303,t1_Paradigm,2021.1.4,60.03493641570167,
M,left,Distractor,0,18,18,18,2327.040051161497,2329.040283101309,left,1,4,0.8689501563603699,L18G09,2022-08-23_14h39.23.303,t1_Paradigm,2021.1.4,60.03493641570167,
N,left,Distractor,0,19,19,19,2330.539933747983,2332.541843161209,left,1,4,0.9353936945735768,L18G09,2022-08-23_14h39.23.303,t1_Paradigm,2021.1.4,60.03493641570167,
R,left,Lure,0,20,20,20,2334.039910650241,2336.0404656376195,left,1,4,0.8929779018799309,L18G09,2022-08-23_14h39.23.303,t1_Paradigm,2021.1.4,60.03493641570167,
F,right,Target,0,21,21,21,2337.5398753620284,2339.541680193819,right,1,4,0.6555376191608957,L18G09,2022-08-23_14h39.23.303,t1_Paradigm,2021.1.4,60.03493641570167,
P,left,Distractor,0,22,22,22,2341.040063993576,2343.040328655188,left,1,4,0.9008096399702481,L18G09,2022-08-23_14h39.23.303,t1_Paradigm,2021.1.4,60.03493641570167,
L,left,Pretarget,0,23,23,23,2344.5398872316982,2346.5397752718163,left,1,4,0.8415154940921639,L18G09,2022-08-23_14h39.23.303,t1_Paradigm,2021.1.4,60.03493641570167,
T,left,Distractor,0,24,24,24,2348.039765647758,2350.0398362241867,left,1,4,1.1816887528111693,L18G09,2022-08-23_14h39.23.303,t1_Paradigm,2021.1.4,60.03493641570167,
F,left,Distractor,0,25,25,25,2351.5399488256735,2353.541179421969,left,1,4,1.0082568006801012,L18G09,2022-08-23_14h39.23.303,t1_Paradigm,2021.1.4,60.03493641570167,
V,left,Distractor,0,26,26,26,2355.0399401640207,2357.0401910311484,left,1,4,0.9972311583369446,L18G09,2022-08-23_14h39.23.303,t1_Paradigm,2021.1.4,60.03493641570167,
L,right,Target,0,27,27,27,2358.539822429706,2360.540548404526,left,0,4,0.9366733735660091,L18G09,2022-08-23_14h39.23.303,t1_Paradigm,2021.1.4,60.03493641570167,
S,left,Pretarget,0,28,28,28,2362.0397027705767,2364.056702066093,left,1,4,1.212625930806098,L18G09,2022-08-23_14h39.23.303,t1_Paradigm,2021.1.4,60.03493641570167,
W,left,Distractor,0,29,29,29,2365.5400091364427,2367.5402330562065,left,1,4,0.6089292657343321,L18G09,2022-08-23_14h39.23.303,t1_Paradigm,2021.1.4,60.03493641570167,
Q,left,Distractor,0,30,30,30,2369.0401175675033,2371.0419204744794,left,1,4,0.6755232600698946,L18G09,2022-08-23_14h39.23.303,t1_Paradigm,2021.1.4,60.03493641570167,
L,right,Target,0,31,31,31,2372.539942409636,2374.5401952015745,left,0,4,0.7293050659791334,L18G09,2022-08-23_14h39.23.303,t1_Paradigm,2021.1.4,60.03493641570167,
S,right,Target,0,32,32,32,2376.0398724748084,2378.0422756022417,left,0,4,1.0190139317892317,L18G09,2022-08-23_14h39.23.303,t1_Paradigm,2021.1.4,60.03493641570167,
Z,left,Pretarget,0,33,33,33,2379.540030630171,2381.5407639834375,left,1,4,0.7684881373861572,L18G09,2022-08-23_14h39.23.303,t1_Paradigm,2021.1.4,60.03493641570167,
F,left,Distractor,0,34,34,34,2383.03980061517,2385.0409057778998,left,1,4,0.7884163547387288,L18G09,2022-08-23_14h39.23.303,t1_Paradigm,2021.1.4,60.03493641570167,
V,left,Distractor,0,35,35,35,2386.540349507315,2388.5397502492633,left,1,4,0.713735905563226,L18G09,2022-08-23_14h39.23.303,t1_Paradigm,2021.1.4,60.03493641570167,
M,left,Distractor,0,36,36,36,2390.039799331964,2392.041093767846,left,1,4,0.7803969475062331,L18G09,2022-08-23_14h39.23.303,t1_Paradigm,2021.1.4,60.03493641570167,
Z,right,Target,0,37,37,37,2393.539723943504,2395.540970259095,right,1,4,1.2161740004121384,L18G09,2022-08-23_14h39.23.303,t1_Paradigm,2021.1.4,60.03493641570167,
H,left,Pretarget,0,38,38,38,2397.0396931465184,2399.040968334284,left,1,4,0.8362934798933566,L18G09,2022-08-23_14h39.23.303,t1_Paradigm,2021.1.4,60.03493641570167,
L,left,Distractor,0,39,39,39,2400.540055973528,2402.5402734772506,right,0,4,1.2409402320299705,L18G09,2022-08-23_14h39.23.303,t1_Paradigm,2021.1.4,60.03493641570167,
G,left,Distractor,0,40,40,40,2404.0396511214603,2406.040664534834,left,1,4,0.6685175870043167,L18G09,2022-08-23_14h39.23.303,t1_Paradigm,2021.1.4,60.03493641570167,
K,left,Distractor,0,41,41,41,2407.540040895834,2409.5407094471047,left,1,4,0.913022570341127,L18G09,2022-08-23_14h39.23.303,t1_Paradigm,2021.1.4,60.03493641570167,
H,right,Target,0,42,42,42,2411.0398801740557,2413.0407578882005,right,1,4,0.61259731527025,L18G09,2022-08-23_14h39.23.303,t1_Paradigm,2021.1.4,60.03493641570167,
B,left,Distractor,0,43,43,43,2414.5403052366455,2416.5408159533545,left,1,4,0.7766332989849616,L18G09,2022-08-23_14h39.23.303,t1_Paradigm,2021.1.4,60.03493641570167,
Z,left,Distractor,0,44,44,44,2418.039696033735,2420.041010680139,left,1,4,0.7162044766009785,L18G09,2022-08-23_14h39.23.303,t1_Paradigm,2021.1.4,60.03493641570167,
T,left,Pretarget,0,45,45,45,2421.540055973528,2423.539883702877,left,1,4,0.8333113049338863,L18G09,2022-08-23_14h39.23.303,t1_Paradigm,2021.1.4,60.03493641570167,
H,right,Target,0,46,46,46,2425.039722660298,2427.0394089159854,right,1,4,1.0299641856690869,L18G09,2022-08-23_14h39.23.303,t1_Paradigm,2021.1.4,60.03493641570167,
F,left,Distractor,0,47,47,47,2428.5400251765386,2430.5397457580366,None,0,4,,L18G09,2022-08-23_14h39.23.303,t1_Paradigm,2021.1.4,60.03493641570167,
R,left,Distractor,0,48,48,48,2432.039964544969,2434.0407251664,left,1,4,0.9406978340739443,L18G09,2022-08-23_14h39.23.303,t1_Paradigm,2021.1.4,60.03493641570167,
T,right,Target,0,49,49,49,2435.5400870913145,2437.53997096101,right,1,4,0.5451955416210694,L18G09,2022-08-23_14h39.23.303,t1_Paradigm,2021.1.4,60.03493641570167,
H,right,Target,0,50,50,50,2439.0403408456623,2441.0398025399845,right,1,4,0.6936267559103726,L18G09,2022-08-23_14h39.23.303,t1_Paradigm,2021.1.4,60.03493641570167,
Y,left,Pretarget,0,51,51,51,2442.5402795724876,2444.5398849860867,left,1,4,0.7295925045291369,L18G09,2022-08-23_14h39.23.303,t1_Paradigm,2021.1.4,60.03493641570167,
H,left,Distractor,0,52,52,52,2446.040016514886,2448.0415502690266,left,1,4,0.9398682402206759,L18G09,2022-08-23_14h39.23.303,t1_Paradigm,2021.1.4,60.03493641570167,
S,left,Distractor,0,53,53,53,2449.539860925939,2451.5403321840095,left,1,4,0.6568108821120404,L18G09,2022-08-23_14h39.23.303,t1_Paradigm,2021.1.4,60.03493641570167,
Q,left,Distractor,0,54,54,54,2453.0399347103885,2455.0397066201986,left,1,4,0.8375940110126976,L18G09,2022-08-23_14h39.23.303,t1_Paradigm,2021.1.4,60.03493641570167,
Y,right,Target,0,55,55,55,2456.5399622993573,2458.5403658682153,right,1,4,1.2889341290938319,L18G09,2022-08-23_14h39.23.303,t1_Paradigm,2021.1.4,60.03493641570167,
R,left,Distractor,0,56,56,56,2460.039850018671,2462.0401210963246,left,1,4,0.8934093805037264,L18G09,2022-08-23_14h39.23.303,t1_Paradigm,2021.1.4,60.03493641570167,
H,left,Pretarget,0,57,57,57,2463.5397024497724,2465.540174028647,right,0,4,0.8169921095577592,L18G09,2022-08-23_14h39.23.303,t1_Paradigm,2021.1.4,60.03493641570167,
J,left,Distractor,0,58,58,58,2467.0400672015967,2469.0413725447434,left,1,4,0.7560006005405739,L18G09,2022-08-23_14h39.23.303,t1_Paradigm,2021.1.4,60.03493641570167,
V,left,Distractor,0,59,59,59,2470.539867341977,2472.540280534893,left,1,4,0.665219742921181,L18G09,2022-08-23_14h39.23.303,t1_Paradigm,2021.1.4,60.03493641570167,
Y,left,Lure,0,60,60,60,2474.0403248055627,2476.040959351827,left,1,4,1.0682961694983533,L18G09,2022-08-23_14h39.23.303,t1_Paradigm,2021.1.4,60.03493641570167,
H,right,Target,0,61,61,61,2477.540245567481,2479.539906479815,right,1,4,0.6571987316747254,L18G09,2022-08-23_14h39.23.303,t1_Paradigm,2021.1.4,60.03493641570167,
L,left,Distractor,0,62,62,62,2481.0403241639615,2483.0409259884254,left,1,4,0.8202861040153948,L18G09,2022-08-23_14h39.23.303,t1_Paradigm,2021.1.4,60.03493641570167,
P,left,Distractor,0,63,63,63,2484.539948504873,2486.539750890868,None,0,4,,L18G09,2022-08-23_14h39.23.303,t1_Paradigm,2021.1.4,60.03493641570167,
