Letter,CorrAnswer,Stimulus,nback_run.thisRepN,nback_run.thisTrialN,nback_run.thisN,nback_run.thisIndex,fixcross.started,nback_trial.started,trial_resp.keys,trial_resp.corr,currentlevel,trial_resp.rt,Participant,date,expName,psychopyVersion,frameRate,
H,left,Distractor,0,0,0,0,407.4512485760497,409.3890024705033,None,0,1,,L20I01,2022-11-22_14h43.08.141,t1_Paradigm,2021.1.4,59.922242344305694,
Q,left,Pretarget,0,1,1,1,410.889745928318,412.88828820563504,left,1,1,0.624394206184661,L20I01,2022-11-22_14h43.08.141,t1_Paradigm,2021.1.4,59.922242344305694,
Q,right,Target,0,2,2,2,414.38601227836625,416.3859609501087,left,0,1,0.5185232473741053,L20I01,2022-11-22_14h43.08.141,t1_Paradigm,2021.1.4,59.922242344305694,
T,left,Distractor,0,3,3,3,417.8858167497674,419.88781213600305,left,1,1,0.7608577722567134,L20I01,2022-11-22_14h43.08.141,t1_Paradigm,2021.1.4,59.922242344305694,
Q,left,Lure,0,4,4,4,421.3860620026244,423.3863658017799,None,0,1,,L20I01,2022-11-22_14h43.08.141,t1_Paradigm,2021.1.4,59.922242344305694,
L,left,Distractor,0,5,5,5,424.88603489488014,426.88748074790055,None,0,1,,L20I01,2022-11-22_14h43.08.141,t1_Paradigm,2021.1.4,59.922242344305694,
V,left,Pretarget,0,6,6,6,428.38597089496034,430.3878540006117,None,0,1,,L20I01,2022-11-22_14h43.08.141,t1_Paradigm,2021.1.4,59.922242344305694,
V,right,Target,0,7,7,7,431.88597875459527,433.8860589550022,right,1,1,0.6667239832313498,L20I01,2022-11-22_14h43.08.141,t1_Paradigm,2021.1.4,59.922242344305694,
K,left,Distractor,0,8,8,8,435.3859240579186,437.3880686169141,left,1,1,0.6205612681515049,L20I01,2022-11-22_14h43.08.141,t1_Paradigm,2021.1.4,59.922242344305694,
G,left,Pretarget,0,9,9,9,438.88609841361176,440.88806107807613,left,1,1,1.2644608559494372,L20I01,2022-11-22_14h43.08.141,t1_Paradigm,2021.1.4,59.922242344305694,
G,right,Target,0,10,10,10,442.3860244688258,444.38588459930907,right,1,1,0.7907221597852185,L20I01,2022-11-22_14h43.08.141,t1_Paradigm,2021.1.4,59.922242344305694,
G,right,Target,0,11,11,11,445.88574392779265,447.8859652809333,right,1,1,0.45882206127862446,L20I01,2022-11-22_14h43.08.141,t1_Paradigm,2021.1.4,59.922242344305694,
P,left,Pretarget,0,12,12,12,449.3860373008938,451.3875101012527,left,1,1,0.6050636614818359,L20I01,2022-11-22_14h43.08.141,t1_Paradigm,2021.1.4,59.922242344305694,
P,right,Target,0,13,13,13,452.8860015315149,454.88579910567205,right,1,1,0.8026826075220015,L20I01,2022-11-22_14h43.08.141,t1_Paradigm,2021.1.4,59.922242344305694,
G,left,Lure,0,14,14,14,456.38615022307204,458.38698462815955,left,1,1,0.7099407767964294,L20I01,2022-11-22_14h43.08.141,t1_Paradigm,2021.1.4,59.922242344305694,
Y,left,Distractor,0,15,15,15,459.8859437872161,461.88846336334245,left,1,1,0.6805790854705265,L20I01,2022-11-22_14h43.08.141,t1_Paradigm,2021.1.4,59.922242344305694,
B,left,Distractor,0,16,16,16,463.3857200280763,465.38785432140867,left,1,1,1.116643157263752,L20I01,2022-11-22_14h43.08.141,t1_Paradigm,2021.1.4,59.922242344305694,
T,left,Pretarget,0,17,17,17,466.88575964707707,468.8878368377191,left,1,1,0.5926505626412109,L20I01,2022-11-22_14h43.08.141,t1_Paradigm,2021.1.4,59.922242344305694,
T,right,Target,0,18,18,18,470.3859285491344,472.3860908747738,right,1,1,0.6783844814053737,L20I01,2022-11-22_14h43.08.141,t1_Paradigm,2021.1.4,59.922242344305694,
S,left,Distractor,0,19,19,19,473.88607467428665,475.8886994733475,left,1,1,0.5997322589537362,L20I01,2022-11-22_14h43.08.141,t1_Paradigm,2021.1.4,59.922242344305694,
T,left,Lure,0,20,20,20,477.3859619125142,479.38746550981887,left,1,1,0.5571503318351461,L20I01,2022-11-22_14h43.08.141,t1_Paradigm,2021.1.4,59.922242344305694,
J,left,Distractor,0,21,21,21,480.88592229351343,482.8877662613668,left,1,1,0.6408773155126255,L20I01,2022-11-22_14h43.08.141,t1_Paradigm,2021.1.4,59.922242344305694,
P,left,Distractor,0,22,22,22,484.38574986261665,486.3876441963366,left,1,1,0.6611622451018775,L20I01,2022-11-22_14h43.08.141,t1_Paradigm,2021.1.4,59.922242344305694,
F,left,Distractor,0,23,23,23,487.88601436358294,489.8879930681287,left,1,1,0.4886277420882834,L20I01,2022-11-22_14h43.08.141,t1_Paradigm,2021.1.4,59.922242344305694,
L,left,Distractor,0,24,24,24,491.38594683483825,493.38774974008265,left,1,1,0.46117802856315393,L20I01,2022-11-22_14h43.08.141,t1_Paradigm,2021.1.4,59.922242344305694,
W,left,Pretarget,0,25,25,25,494.8860599174077,496.888289809649,left,1,1,0.48050183642772026,L20I01,2022-11-22_14h43.08.141,t1_Paradigm,2021.1.4,59.922242344305694,
W,right,Target,0,26,26,26,498.3859901430551,500.38506366789807,right,1,1,0.5514917116088327,L20I01,2022-11-22_14h43.08.141,t1_Paradigm,2021.1.4,59.922242344305694,
V,left,Distractor,0,27,27,27,501.8859255015268,503.8874759358732,left,1,1,0.5050887160905404,L20I01,2022-11-22_14h43.08.141,t1_Paradigm,2021.1.4,59.922242344305694,
W,left,Lure,0,28,28,28,505.3858631056064,507.38809588504955,left,1,1,0.44448768137954175,L20I01,2022-11-22_14h43.08.141,t1_Paradigm,2021.1.4,59.922242344305694,
R,left,Pretarget,0,29,29,29,508.8856505745207,510.88878833540366,left,1,1,0.6080987658497179,L20I01,2022-11-22_14h43.08.141,t1_Paradigm,2021.1.4,59.922242344305694,
R,right,Target,0,30,30,30,512.3859641581221,514.3858804288902,right,1,1,0.438562474999344,L20I01,2022-11-22_14h43.08.141,t1_Paradigm,2021.1.4,59.922242344305694,
G,left,Distractor,0,31,31,31,515.8859120278503,517.8875410586043,left,1,1,0.4730313285253942,L20I01,2022-11-22_14h43.08.141,t1_Paradigm,2021.1.4,59.922242344305694,
R,left,Lure,0,32,32,32,519.3859901430551,521.3877997851378,left,1,1,0.5727778631408,L20I01,2022-11-22_14h43.08.141,t1_Paradigm,2021.1.4,59.922242344305694,
S,left,Distractor,0,33,33,33,522.8850484298309,524.8875532490638,left,1,1,0.5610689239110798,L20I01,2022-11-22_14h43.08.141,t1_Paradigm,2021.1.4,59.922242344305694,
R,left,Lure,0,34,34,34,526.3859016017959,528.3874016702903,left,1,1,0.4050813697394915,L20I01,2022-11-22_14h43.08.141,t1_Paradigm,2021.1.4,59.922242344305694,
P,left,Pretarget,0,35,35,35,529.8859575816896,531.8874647078192,left,1,1,0.4412450183444889,L20I01,2022-11-22_14h43.08.141,t1_Paradigm,2021.1.4,59.922242344305694,
P,right,Target,0,36,36,36,533.3857322185358,535.385819476578,right,1,1,0.5427293354732683,L20I01,2022-11-22_14h43.08.141,t1_Paradigm,2021.1.4,59.922242344305694,
Y,left,Pretarget,0,37,37,37,536.8858969501744,538.8867371296801,left,1,1,0.5298440166225191,L20I01,2022-11-22_14h43.08.141,t1_Paradigm,2021.1.4,59.922242344305694,
Y,right,Target,0,38,38,38,540.3859420228109,542.3859930302715,left,0,1,0.5184058339800686,L20I01,2022-11-22_14h43.08.141,t1_Paradigm,2021.1.4,59.922242344305694,
J,left,Distractor,0,39,39,39,543.8858837973094,545.8877556749067,left,1,1,0.6646756647242,L20I01,2022-11-22_14h43.08.141,t1_Paradigm,2021.1.4,59.922242344305694,
Y,left,Lure,0,40,40,40,547.3858043989021,549.3874815499003,right,0,1,0.8928544962545857,L20I01,2022-11-22_14h43.08.141,t1_Paradigm,2021.1.4,59.922242344305694,
T,left,Distractor,0,41,41,41,550.8859444288246,552.8879754240334,left,1,1,0.6565683655644534,L20I01,2022-11-22_14h43.08.141,t1_Paradigm,2021.1.4,59.922242344305694,
V,left,Distractor,0,42,42,42,554.3859080178372,556.3876368179044,left,1,1,0.6770156207930995,L20I01,2022-11-22_14h43.08.141,t1_Paradigm,2021.1.4,59.922242344305694,
N,left,Pretarget,0,43,43,43,557.8858969501744,559.8878669930709,left,1,1,0.5206123076932272,L20I01,2022-11-22_14h43.08.141,t1_Paradigm,2021.1.4,59.922242344305694,
N,right,Target,0,44,44,44,561.385900960202,563.3858951857692,right,1,1,0.6065428778674686,L20I01,2022-11-22_14h43.08.141,t1_Paradigm,2021.1.4,59.922242344305694,
N,right,Target,0,45,45,45,564.8849820238829,566.8857525894418,right,1,1,0.4988449536758708,L20I01,2022-11-22_14h43.08.141,t1_Paradigm,2021.1.4,59.922242344305694,
X,left,Distractor,0,46,46,46,568.385793491645,570.3875367277797,left,1,1,0.5970577356347349,L20I01,2022-11-22_14h43.08.141,t1_Paradigm,2021.1.4,59.922242344305694,
Z,left,Distractor,0,47,47,47,571.8859620729054,573.8877855094615,left,1,1,0.8089873222343158,L20I01,2022-11-22_14h43.08.141,t1_Paradigm,2021.1.4,59.922242344305694,
H,left,Pretarget,0,48,48,48,575.3858910153504,577.3878405269352,left,1,1,0.7810342709126417,L20I01,2022-11-22_14h43.08.141,t1_Paradigm,2021.1.4,59.922242344305694,
H,right,Target,0,49,49,49,578.8855832061672,580.8857865944155,right,1,1,0.6907112846092787,L20I01,2022-11-22_14h43.08.141,t1_Paradigm,2021.1.4,59.922242344305694,
K,left,Distractor,0,50,50,50,582.3858396870783,584.3877391536225,left,1,1,0.5646975113195367,L20I01,2022-11-22_14h43.08.141,t1_Paradigm,2021.1.4,59.922242344305694,
V,left,Pretarget,0,51,51,51,585.8857942936447,587.8850163496681,left,1,1,0.5393929983692942,L20I01,2022-11-22_14h43.08.141,t1_Paradigm,2021.1.4,59.922242344305694,
V,right,Target,0,52,52,52,589.3858935817552,591.385859897593,right,1,1,0.6865219359460752,L20I01,2022-11-22_14h43.08.141,t1_Paradigm,2021.1.4,59.922242344305694,
R,left,Distractor,0,53,53,53,592.8857506646309,594.8875038456172,left,1,1,0.7369041550555266,L20I01,2022-11-22_14h43.08.141,t1_Paradigm,2021.1.4,59.922242344305694,
V,left,Lure,0,54,54,54,596.3858351958625,598.3875521262671,right,0,1,1.0290177919669077,L20I01,2022-11-22_14h43.08.141,t1_Paradigm,2021.1.4,59.922242344305694,
Y,left,Distractor,0,55,55,55,599.8857718375366,601.8863085386838,left,1,1,0.9540945678309072,L20I01,2022-11-22_14h43.08.141,t1_Paradigm,2021.1.4,59.922242344305694,
Q,left,Distractor,0,56,56,56,603.3858486695244,605.3868274353445,left,1,1,1.4215789151203353,L20I01,2022-11-22_14h43.08.141,t1_Paradigm,2021.1.4,59.922242344305694,
Z,left,Pretarget,0,57,57,57,606.8857333413325,608.8876106725656,left,1,1,0.592731725453632,L20I01,2022-11-22_14h43.08.141,t1_Paradigm,2021.1.4,59.922242344305694,
Z,right,Target,0,58,58,58,610.3857431257929,612.3857649403071,right,1,1,0.5828946638066554,L20I01,2022-11-22_14h43.08.141,t1_Paradigm,2021.1.4,59.922242344305694,
B,left,Distractor,0,59,59,59,613.8858568499709,615.8878884867881,left,1,1,0.824493911335594,L20I01,2022-11-22_14h43.08.141,t1_Paradigm,2021.1.4,59.922242344305694,
S,left,Pretarget,0,60,60,60,617.3857813011855,619.3876929581893,left,1,1,0.5887322913476964,L20I01,2022-11-22_14h43.08.141,t1_Paradigm,2021.1.4,59.922242344305694,
S,right,Target,0,61,61,61,620.8857817823882,622.8858488299302,right,1,1,0.7065152568393387,L20I01,2022-11-22_14h43.08.141,t1_Paradigm,2021.1.4,59.922242344305694,
T,left,Distractor,0,62,62,62,624.3857716771308,626.3873885174253,left,1,1,0.5169481112970971,L20I01,2022-11-22_14h43.08.141,t1_Paradigm,2021.1.4,59.922242344305694,
D,left,Distractor,0,63,63,63,627.8857134516293,629.8873379911674,left,1,1,0.569041807189933,L20I01,2022-11-22_14h43.08.141,t1_Paradigm,2021.1.4,59.922242344305694,
R,left,Distractor,0,0,0,0,642.7302305184421,644.7210915211908,left,1,1,0.8233393462287495,L20I01,2022-11-22_14h43.08.141,t1_Paradigm,2021.1.4,59.922242344305694,
V,left,Distractor,0,1,1,1,646.2190873129148,648.2204096572968,left,1,1,0.6998467530502239,L20I01,2022-11-22_14h43.08.141,t1_Paradigm,2021.1.4,59.922242344305694,
N,left,Pretarget,0,2,2,2,649.7188613081526,651.7200851664238,left,1,1,0.7362205267563695,L20I01,2022-11-22_14h43.08.141,t1_Paradigm,2021.1.4,59.922242344305694,
N,right,Target,0,3,3,3,653.2188945111266,655.2189766363445,right,1,1,0.46930329260067083,L20I01,2022-11-22_14h43.08.141,t1_Paradigm,2021.1.4,59.922242344305694,
S,left,Distractor,0,4,4,4,656.7191307815374,658.7210148495942,left,1,1,0.48741639508807566,L20I01,2022-11-22_14h43.08.141,t1_Paradigm,2021.1.4,59.922242344305694,
N,left,Lure,0,5,5,5,660.2190443254949,662.2210140475945,left,1,1,0.795510765950894,L20I01,2022-11-22_14h43.08.141,t1_Paradigm,2021.1.4,59.922242344305694,
Z,left,Distractor,0,6,6,6,663.7190582803596,665.7212384483428,left,1,1,0.7512622742651729,L20I01,2022-11-22_14h43.08.141,t1_Paradigm,2021.1.4,59.922242344305694,
L,left,Pretarget,0,7,7,7,667.2190061500878,669.2206406344776,left,1,1,0.5798403113585664,L20I01,2022-11-22_14h43.08.141,t1_Paradigm,2021.1.4,59.922242344305694,
L,right,Target,0,8,8,8,670.7190143305343,672.7191375183611,right,1,1,0.6653227216447704,L20I01,2022-11-22_14h43.08.141,t1_Paradigm,2021.1.4,59.922242344305694,
H,left,Distractor,0,9,9,9,674.2191232426994,676.2210823783389,left,1,1,0.5872232404071838,L20I01,2022-11-22_14h43.08.141,t1_Paradigm,2021.1.4,59.922242344305694,
L,left,Lure,0,10,10,10,677.719074320441,679.7207678323321,left,1,1,0.5595059783081524,L20I01,2022-11-22_14h43.08.141,t1_Paradigm,2021.1.4,59.922242344305694,
X,left,Pretarget,0,11,11,11,681.2189692579122,683.2211779772333,left,1,1,0.6272734009544365,L20I01,2022-11-22_14h43.08.141,t1_Paradigm,2021.1.4,59.922242344305694,
X,right,Target,0,12,12,12,684.7190576387657,686.7190197841701,right,1,1,0.5852201549423626,L20I01,2022-11-22_14h43.08.141,t1_Paradigm,2021.1.4,59.922242344305694,
X,right,Target,0,13,13,13,688.2190430422779,690.2190757640492,right,1,1,0.5409877033525845,L20I01,2022-11-22_14h43.08.141,t1_Paradigm,2021.1.4,59.922242344305694,
R,left,Distractor,0,14,14,14,691.718970059912,693.7210231904319,left,1,1,0.5114216613728786,L20I01,2022-11-22_14h43.08.141,t1_Paradigm,2021.1.4,59.922242344305694,
T,left,Distractor,0,15,15,15,695.2189615586685,697.2206964539655,left,1,1,0.6436493625224102,L20I01,2022-11-22_14h43.08.141,t1_Paradigm,2021.1.4,59.922242344305694,
V,left,Pretarget,0,16,16,16,698.7190127265349,700.7379445147963,left,1,1,0.5663236548571149,L20I01,2022-11-22_14h43.08.141,t1_Paradigm,2021.1.4,59.922242344305694,
V,right,Target,0,17,17,17,702.2190170573449,704.2190513831301,right,1,1,0.49330150125024375,L20I01,2022-11-22_14h43.08.141,t1_Paradigm,2021.1.4,59.922242344305694,
N,left,Distractor,0,18,18,18,705.7187685964745,707.7207524338446,left,1,1,0.5116917763371021,L20I01,2022-11-22_14h43.08.141,t1_Paradigm,2021.1.4,59.922242344305694,
B,left,Distractor,0,19,19,19,709.2190658191976,711.2209935162828,left,1,1,0.6113786418573,L20I01,2022-11-22_14h43.08.141,t1_Paradigm,2021.1.4,59.922242344305694,
V,left,Lure,0,20,20,20,712.7186447670392,714.7199898883409,left,1,1,0.4883338877843926,L20I01,2022-11-22_14h43.08.141,t1_Paradigm,2021.1.4,59.922242344305694,
P,left,Distractor,0,21,21,21,716.2190189821558,718.220299943132,left,1,1,0.6359344037628034,L20I01,2022-11-22_14h43.08.141,t1_Paradigm,2021.1.4,59.922242344305694,
K,left,Pretarget,0,22,22,22,719.718610120457,721.7208769048884,left,1,1,0.5434463271667482,L20I01,2022-11-22_14h43.08.141,t1_Paradigm,2021.1.4,59.922242344305694,
K,right,Target,0,23,23,23,723.2190728768328,725.2190735184413,right,1,1,0.5655466732714558,L20I01,2022-11-22_14h43.08.141,t1_Paradigm,2021.1.4,59.922242344305694,
J,left,Pretarget,0,24,24,24,726.7189373381407,728.7207376769657,left,1,1,0.6956673492240952,L20I01,2022-11-22_14h43.08.141,t1_Paradigm,2021.1.4,59.922242344305694,
J,right,Target,0,25,25,25,730.2189965260477,732.2189204960596,left,0,1,0.5410807358275633,L20I01,2022-11-22_14h43.08.141,t1_Paradigm,2021.1.4,59.922242344305694,
H,left,Distractor,0,26,26,26,733.7189103908022,735.7208021581027,left,1,1,0.575633318600012,L20I01,2022-11-22_14h43.08.141,t1_Paradigm,2021.1.4,59.922242344305694,
J,left,Lure,0,27,27,27,737.218909267991,739.2192566961749,left,1,1,0.5811709965928458,L20I01,2022-11-22_14h43.08.141,t1_Paradigm,2021.1.4,59.922242344305694,
V,left,Distractor,0,28,28,28,740.718981287966,742.7199664698128,left,1,1,0.5362427262152778,L20I01,2022-11-22_14h43.08.141,t1_Paradigm,2021.1.4,59.922242344305694,
Z,left,Pretarget,0,29,29,29,744.2189230624645,746.2210474109597,left,1,1,0.5389390640484635,L20I01,2022-11-22_14h43.08.141,t1_Paradigm,2021.1.4,59.922242344305694,
Z,right,Target,0,30,30,30,747.7188157543133,749.7188998043566,right,1,1,0.5135354234080296,L20I01,2022-11-22_14h43.08.141,t1_Paradigm,2021.1.4,59.922242344305694,
T,left,Distractor,0,31,31,31,751.2190517039271,753.2208629500092,left,1,1,0.67569359720801,L20I01,2022-11-22_14h43.08.141,t1_Paradigm,2021.1.4,59.922242344305694,
Z,left,Lure,0,32,32,32,754.7189081451943,756.7204698075948,left,1,1,0.9037739426275948,L20I01,2022-11-22_14h43.08.141,t1_Paradigm,2021.1.4,59.922242344305694,
F,left,Distractor,0,33,33,33,758.2189535386278,760.2208719324553,left,1,1,0.6992523076041834,L20I01,2022-11-22_14h43.08.141,t1_Paradigm,2021.1.4,59.922242344305694,
Y,left,Pretarget,0,34,34,34,761.7191404055775,763.7209192506998,left,1,1,0.623344543215353,L20I01,2022-11-22_14h43.08.141,t1_Paradigm,2021.1.4,59.922242344305694,
Y,right,Target,0,35,35,35,765.2186763659993,767.2188489572873,right,1,1,0.8053385243401863,L20I01,2022-11-22_14h43.08.141,t1_Paradigm,2021.1.4,59.922242344305694,
Y,right,Target,0,36,36,36,768.7188433432602,770.7189719847229,right,1,1,0.4572636068769498,L20I01,2022-11-22_14h43.08.141,t1_Paradigm,2021.1.4,59.922242344305694,
W,left,Distractor,0,37,37,37,772.2189275536948,774.2203451761598,left,1,1,0.5396512437000638,L20I01,2022-11-22_14h43.08.141,t1_Paradigm,2021.1.4,59.922242344305694,
Q,left,Distractor,0,38,38,38,775.7188914635044,777.720967370944,left,1,1,0.6713229956076248,L20I01,2022-11-22_14h43.08.141,t1_Paradigm,2021.1.4,59.922242344305694,
P,left,Pretarget,0,39,39,39,779.2189240248699,781.2208886141452,left,1,1,0.5794617654173635,L20I01,2022-11-22_14h43.08.141,t1_Paradigm,2021.1.4,59.922242344305694,
P,right,Target,0,40,40,40,782.7189078243973,784.7188946715178,right,1,1,0.601260878785979,L20I01,2022-11-22_14h43.08.141,t1_Paradigm,2021.1.4,59.922242344305694,
J,left,Distractor,0,41,41,41,786.2189817691687,788.2211481426784,left,1,1,0.5710997497371864,L20I01,2022-11-22_14h43.08.141,t1_Paradigm,2021.1.4,59.922242344305694,
P,left,Lure,0,42,42,42,789.7186569574988,791.7209737869853,left,1,1,0.6392723448807374,L20I01,2022-11-22_14h43.08.141,t1_Paradigm,2021.1.4,59.922242344305694,
L,left,Distractor,0,43,43,43,793.2190010172635,795.2201116325596,left,1,1,0.8040681498096092,L20I01,2022-11-22_14h43.08.141,t1_Paradigm,2021.1.4,59.922242344305694,
Z,left,Distractor,0,44,44,44,796.7188135087054,798.720714579249,left,1,1,1.0154350503289606,L20I01,2022-11-22_14h43.08.141,t1_Paradigm,2021.1.4,59.922242344305694,
F,left,Pretarget,0,45,45,45,800.2186654587422,802.2205729453271,left,1,1,0.6035270216088975,L20I01,2022-11-22_14h43.08.141,t1_Paradigm,2021.1.4,59.922242344305694,
F,right,Target,0,46,46,46,803.718981608763,805.7188455888681,right,1,1,0.5453024854650721,L20I01,2022-11-22_14h43.08.141,t1_Paradigm,2021.1.4,59.922242344305694,
G,left,Pretarget,0,47,47,47,807.2188791126391,809.2208716116584,left,1,1,0.5155699474271387,L20I01,2022-11-22_14h43.08.141,t1_Paradigm,2021.1.4,59.922242344305694,
G,right,Target,0,48,48,48,810.7188019598543,812.7189103908022,right,1,1,0.6973890916560777,L20I01,2022-11-22_14h43.08.141,t1_Paradigm,2021.1.4,59.922242344305694,
V,left,Distractor,0,49,49,49,814.2189127968159,816.2207269301143,left,1,1,0.4434697777614929,L20I01,2022-11-22_14h43.08.141,t1_Paradigm,2021.1.4,59.922242344305694,
G,left,Lure,0,50,50,50,817.7189107115992,819.7206305292202,left,1,1,0.5916098821035121,L20I01,2022-11-22_14h43.08.141,t1_Paradigm,2021.1.4,59.922242344305694,
Q,left,Pretarget,0,51,51,51,821.2188630725577,823.2208106593462,left,1,1,0.627443425837555,L20I01,2022-11-22_14h43.08.141,t1_Paradigm,2021.1.4,59.922242344305694,
Q,right,Target,0,52,52,52,824.7189488870063,826.7188000350434,right,1,1,0.48934890420059673,L20I01,2022-11-22_14h43.08.141,t1_Paradigm,2021.1.4,59.922242344305694,
Y,left,Distractor,0,53,53,53,828.2188399748411,830.2200118632463,left,1,1,0.5563496109243715,L20I01,2022-11-22_14h43.08.141,t1_Paradigm,2021.1.4,59.922242344305694,
V,left,Distractor,0,54,54,54,831.7185312032525,833.7203745295119,left,1,1,0.7358156750706257,L20I01,2022-11-22_14h43.08.141,t1_Paradigm,2021.1.4,59.922242344305694,
B,left,Distractor,0,55,55,55,835.2187616992451,837.2203435721458,left,1,1,0.6280215103906812,L20I01,2022-11-22_14h43.08.141,t1_Paradigm,2021.1.4,59.922242344305694,
J,left,Pretarget,0,56,56,56,838.7185860603349,840.7199270112178,left,1,1,0.6001226745429449,L20I01,2022-11-22_14h43.08.141,t1_Paradigm,2021.1.4,59.922242344305694,
J,right,Target,0,57,57,57,842.2187742105016,844.2187783809204,right,1,1,0.7974965281318873,L20I01,2022-11-22_14h43.08.141,t1_Paradigm,2021.1.4,59.922242344305694,
H,left,Distractor,0,58,58,58,845.7188125462999,847.720768473926,left,1,1,0.5274598187825177,L20I01,2022-11-22_14h43.08.141,t1_Paradigm,2021.1.4,59.922242344305694,
J,left,Lure,0,59,59,59,849.2187421303388,851.2207330253441,right,0,1,0.7873858226812445,L20I01,2022-11-22_14h43.08.141,t1_Paradigm,2021.1.4,59.922242344305694,
D,left,Pretarget,0,60,60,60,852.718717909811,854.7209160426864,left,1,1,0.5031914951687213,L20I01,2022-11-22_14h43.08.141,t1_Paradigm,2021.1.4,59.922242344305694,
D,right,Target,0,61,61,61,856.2187931377994,858.2188229723542,right,1,1,0.573290504180477,L20I01,2022-11-22_14h43.08.141,t1_Paradigm,2021.1.4,59.922242344305694,
R,left,Distractor,0,62,62,62,859.7185892683628,861.7204406146484,left,1,1,0.49584513749869075,L20I01,2022-11-22_14h43.08.141,t1_Paradigm,2021.1.4,59.922242344305694,
F,left,Distractor,0,63,63,63,863.2188085362868,865.2207112108299,left,1,1,0.7394118615047773,L20I01,2022-11-22_14h43.08.141,t1_Paradigm,2021.1.4,59.922242344305694,
F,left,Distractor,0,0,0,0,971.6768568239931,973.6687305975211,left,1,2,0.8191589799826033,L20I01,2022-11-22_14h43.08.141,t1_Paradigm,2021.1.4,59.922242344305694,
N,left,Pretarget,0,1,1,1,975.1687544972374,977.169097113394,None,0,2,,L20I01,2022-11-22_14h43.08.141,t1_Paradigm,2021.1.4,59.922242344305694,
V,left,Distractor,0,2,2,2,978.6687527328322,980.6704051821143,None,0,2,,L20I01,2022-11-22_14h43.08.141,t1_Paradigm,2021.1.4,59.922242344305694,
N,right,Target,0,3,3,3,982.1684304875816,984.1702799090708,None,0,2,,L20I01,2022-11-22_14h43.08.141,t1_Paradigm,2021.1.4,59.922242344305694,
N,left,Lure,0,4,4,4,985.6684402720275,987.668680231669,None,0,2,,L20I01,2022-11-22_14h43.08.141,t1_Paradigm,2021.1.4,59.922242344305694,
X,left,Distractor,0,5,5,5,989.168500743137,991.170551307252,None,0,2,,L20I01,2022-11-22_14h43.08.141,t1_Paradigm,2021.1.4,59.922242344305694,
G,left,Pretarget,0,6,6,6,992.6684454048664,994.670083097255,left,1,2,0.10561848792713135,L20I01,2022-11-22_14h43.08.141,t1_Paradigm,2021.1.4,59.922242344305694,
H,left,Pretarget,0,7,7,7,996.1686977153586,998.1701236786612,left,1,2,1.0378106442658463,L20I01,2022-11-22_14h43.08.141,t1_Paradigm,2021.1.4,59.922242344305694,
G,right,Target,0,8,8,8,999.6686767028441,1001.6703945956542,right,1,2,1.1375700109492755,L20I01,2022-11-22_14h43.08.141,t1_Paradigm,2021.1.4,59.922242344305694,
H,right,Target,0,9,9,9,1003.1685568834364,1005.1693062760751,right,1,2,0.7106109314481728,L20I01,2022-11-22_14h43.08.141,t1_Paradigm,2021.1.4,59.922242344305694,
T,left,Pretarget,0,10,10,10,1006.6687283519132,1008.6705440892256,None,0,2,,L20I01,2022-11-22_14h43.08.141,t1_Paradigm,2021.1.4,59.922242344305694,
K,left,Distractor,0,11,11,11,1010.168658256749,1012.1700713879982,None,0,2,,L20I01,2022-11-22_14h43.08.141,t1_Paradigm,2021.1.4,59.922242344305694,
T,right,Target,0,12,12,12,1013.6684123622836,1015.6703509666258,right,1,2,0.8655420858121943,L20I01,2022-11-22_14h43.08.141,t1_Paradigm,2021.1.4,59.922242344305694,
T,left,Lure,0,13,13,13,1017.1685286528809,1019.1685748483287,None,0,2,,L20I01,2022-11-22_14h43.08.141,t1_Paradigm,2021.1.4,59.922242344305694,
J,left,Distractor,0,14,14,14,1020.6684925627051,1022.670428279831,left,1,2,1.4494585028587608,L20I01,2022-11-22_14h43.08.141,t1_Paradigm,2021.1.4,59.922242344305694,
Q,left,Pretarget,0,15,15,15,1024.1685629786662,1026.1702587361506,left,1,2,0.861833618793753,L20I01,2022-11-22_14h43.08.141,t1_Paradigm,2021.1.4,59.922242344305694,
M,left,Distractor,0,16,16,16,1027.6684745978127,1029.6703679691127,left,1,2,0.5935378999856766,L20I01,2022-11-22_14h43.08.141,t1_Paradigm,2021.1.4,59.922242344305694,
Q,right,Target,0,17,17,17,1031.1686816752772,1033.1700932025124,right,1,2,0.6943167743011145,L20I01,2022-11-22_14h43.08.141,t1_Paradigm,2021.1.4,59.922242344305694,
R,left,Distractor,0,18,18,18,1034.6686045224778,1036.6699839695502,left,1,2,1.130044325167546,L20I01,2022-11-22_14h43.08.141,t1_Paradigm,2021.1.4,59.922242344305694,
W,left,Distractor,0,19,19,19,1038.1676737164962,1040.1677625785524,left,1,2,0.7040547082287958,L20I01,2022-11-22_14h43.08.141,t1_Paradigm,2021.1.4,59.922242344305694,
C,left,Pretarget,0,20,20,20,1041.668559610247,1043.6703220944764,left,1,2,0.6095269747602288,L20I01,2022-11-22_14h43.08.141,t1_Paradigm,2021.1.4,59.922242344305694,
T,left,Distractor,0,21,21,21,1045.1684901566914,1047.1706019939156,left,1,2,0.6931631715851836,L20I01,2022-11-22_14h43.08.141,t1_Paradigm,2021.1.4,59.922242344305694,
C,right,Target,0,22,22,22,1048.6685830287606,1050.6704189765733,right,1,2,0.8257963660289533,L20I01,2022-11-22_14h43.08.141,t1_Paradigm,2021.1.4,59.922242344305694,
F,left,Pretarget,0,23,23,23,1052.1685017055424,1054.1704951669672,left,1,2,1.1976924096088624,L20I01,2022-11-22_14h43.08.141,t1_Paradigm,2021.1.4,59.922242344305694,
C,right,Target,0,24,24,24,1055.66846882338,1057.6697613332071,right,1,2,0.706175848696148,L20I01,2022-11-22_14h43.08.141,t1_Paradigm,2021.1.4,59.922242344305694,
F,right,Target,0,25,25,25,1059.168630347005,1061.1696707067458,right,1,2,0.6145058162946953,L20I01,2022-11-22_14h43.08.141,t1_Paradigm,2021.1.4,59.922242344305694,
H,left,Distractor,0,26,26,26,1062.6685788583418,1064.6697584459907,left,1,2,0.5061711008456768,L20I01,2022-11-22_14h43.08.141,t1_Paradigm,2021.1.4,59.922242344305694,
H,left,Lure,0,27,27,27,1066.168476683015,1068.1686479911004,left,1,2,0.8792752834269777,L20I01,2022-11-22_14h43.08.141,t1_Paradigm,2021.1.4,59.922242344305694,
P,left,Distractor,0,28,28,28,1069.6685416453547,1071.6704221846012,left,1,2,1.0093959593796171,L20I01,2022-11-22_14h43.08.141,t1_Paradigm,2021.1.4,59.922242344305694,
G,left,Pretarget,0,29,29,29,1073.168604362072,1075.1701637788647,left,1,2,0.5496650670538656,L20I01,2022-11-22_14h43.08.141,t1_Paradigm,2021.1.4,59.922242344305694,
K,left,Distractor,0,30,30,30,1076.668309384957,1078.6702973927604,left,1,2,0.5375599377730396,L20I01,2022-11-22_14h43.08.141,t1_Paradigm,2021.1.4,59.922242344305694,
G,right,Target,0,31,31,31,1080.1685305776919,1082.1701028265525,right,1,2,0.4778792829893064,L20I01,2022-11-22_14h43.08.141,t1_Paradigm,2021.1.4,59.922242344305694,
M,left,Pretarget,0,32,32,32,1083.668455670515,1085.6703022047732,left,1,2,0.5297051094967173,L20I01,2022-11-22_14h43.08.141,t1_Paradigm,2021.1.4,59.922242344305694,
B,left,Distractor,0,33,33,33,1087.1685212744487,1089.1696357393666,left,1,2,0.6947274004050996,L20I01,2022-11-22_14h43.08.141,t1_Paradigm,2021.1.4,59.922242344305694,
M,right,Target,0,34,34,34,1090.668589444802,1092.6708321690967,right,1,2,0.4253072718420299,L20I01,2022-11-22_14h43.08.141,t1_Paradigm,2021.1.4,59.922242344305694,
M,left,Lure,0,35,35,35,1094.16858030195,1096.1686107781134,left,1,2,0.7032421176700154,L20I01,2022-11-22_14h43.08.141,t1_Paradigm,2021.1.4,59.922242344305694,
T,left,Distractor,0,36,36,36,1097.6684447632579,1099.6706457833352,left,1,2,0.6091795465908945,L20I01,2022-11-22_14h43.08.141,t1_Paradigm,2021.1.4,59.922242344305694,
F,left,Distractor,0,37,37,37,1101.1685212744487,1103.1702696434077,left,1,2,0.694085155511857,L20I01,2022-11-22_14h43.08.141,t1_Paradigm,2021.1.4,59.922242344305694,
X,left,Distractor,0,38,38,38,1104.6685031491506,1106.6705184250895,left,1,2,0.5533122609485872,L20I01,2022-11-22_14h43.08.141,t1_Paradigm,2021.1.4,59.922242344305694,
C,left,Distractor,0,39,39,39,1108.1685809435585,1110.170342786194,left,1,2,0.5258166727726348,L20I01,2022-11-22_14h43.08.141,t1_Paradigm,2021.1.4,59.922242344305694,
R,left,Distractor,0,40,40,40,1111.668281154416,1113.6701835081767,left,1,2,0.6417479711817577,L20I01,2022-11-22_14h43.08.141,t1_Paradigm,2021.1.4,59.922242344305694,
B,left,Pretarget,0,41,41,41,1115.1685090839892,1117.170311668422,left,1,2,0.629675242875237,L20I01,2022-11-22_14h43.08.141,t1_Paradigm,2021.1.4,59.922242344305694,
H,left,Distractor,0,42,42,42,1118.66847940984,1120.6702402900555,left,1,2,0.7778243296634173,L20I01,2022-11-22_14h43.08.141,t1_Paradigm,2021.1.4,59.922242344305694,
B,right,Target,0,43,43,43,1122.1684927230963,1124.1692475693708,right,1,2,0.5425872203632025,L20I01,2022-11-22_14h43.08.141,t1_Paradigm,2021.1.4,59.922242344305694,
W,left,Pretarget,0,44,44,44,1125.6685018659482,1127.6703015631792,left,1,2,0.6576161037228303,L20I01,2022-11-22_14h43.08.141,t1_Paradigm,2021.1.4,59.922242344305694,
L,left,Pretarget,0,45,45,45,1129.1683907081751,1131.168528652881,left,1,2,0.6473312029993394,L20I01,2022-11-22_14h43.08.141,t1_Paradigm,2021.1.4,59.922242344305694,
W,right,Target,0,46,46,46,1132.6685005827458,1134.6705296531436,right,1,2,0.4893578866322059,L20I01,2022-11-22_14h43.08.141,t1_Paradigm,2021.1.4,59.922242344305694,
L,right,Target,0,47,47,47,1136.1684423572442,1138.1702340344345,right,1,2,0.9416567672597012,L20I01,2022-11-22_14h43.08.141,t1_Paradigm,2021.1.4,59.922242344305694,
W,right,Target,0,48,48,48,1139.6685140564077,1141.6702742950438,right,1,2,0.5935022909980034,L20I01,2022-11-22_14h43.08.141,t1_Paradigm,2021.1.4,59.922242344305694,
X,left,Distractor,0,49,49,49,1143.1683746680937,1145.1684821366507,left,1,2,0.5995086602051742,L20I01,2022-11-22_14h43.08.141,t1_Paradigm,2021.1.4,59.922242344305694,
R,left,Distractor,0,50,50,50,1146.6685130940023,1148.669026055839,left,1,2,0.6186929193645483,L20I01,2022-11-22_14h43.08.141,t1_Paradigm,2021.1.4,59.922242344305694,
V,left,Pretarget,0,51,51,51,1150.1684442820551,1152.1703992472758,left,1,2,0.5891153285192559,L20I01,2022-11-22_14h43.08.141,t1_Paradigm,2021.1.4,59.922242344305694,
Z,left,Distractor,0,52,52,52,1153.6684855050698,1155.670415447763,left,1,2,0.5774471310869558,L20I01,2022-11-22_14h43.08.141,t1_Paradigm,2021.1.4,59.922242344305694,
V,right,Target,0,53,53,53,1157.168422788338,1159.1699488417653,right,1,2,0.6619430763239507,L20I01,2022-11-22_14h43.08.141,t1_Paradigm,2021.1.4,59.922242344305694,
V,left,Lure,0,54,54,54,1160.668414607906,1162.668468502583,left,1,2,0.7156728605914395,L20I01,2022-11-22_14h43.08.141,t1_Paradigm,2021.1.4,59.922242344305694,
N,left,Distractor,0,55,55,55,1164.1684176555136,1166.1703678087215,left,1,2,0.6373173796600895,L20I01,2022-11-22_14h43.08.141,t1_Paradigm,2021.1.4,59.922242344305694,
B,left,Distractor,0,56,56,56,1167.6684216655412,1169.6704035781004,left,1,2,0.5933313037385233,L20I01,2022-11-22_14h43.08.141,t1_Paradigm,2021.1.4,59.922242344305694,
V,left,Lure,0,57,57,57,1171.1683804425265,1173.1705596481042,left,1,2,0.661270676064305,L20I01,2022-11-22_14h43.08.141,t1_Paradigm,2021.1.4,59.922242344305694,
J,left,Distractor,0,58,58,58,1174.6684011342295,1176.6704189765733,left,1,2,0.6976845499739284,L20I01,2022-11-22_14h43.08.141,t1_Paradigm,2021.1.4,59.922242344305694,
H,left,Distractor,0,59,59,59,1178.1684292043792,1180.1700264757674,left,1,2,0.5576857497653691,L20I01,2022-11-22_14h43.08.141,t1_Paradigm,2021.1.4,59.922242344305694,
X,left,Pretarget,0,60,60,60,1181.6683299162687,1183.6701902450004,left,1,2,0.5297140919428784,L20I01,2022-11-22_14h43.08.141,t1_Paradigm,2021.1.4,59.922242344305694,
P,left,Distractor,0,61,61,61,1185.168487269475,1187.1674921427766,left,1,2,0.5844720455061179,L20I01,2022-11-22_14h43.08.141,t1_Paradigm,2021.1.4,59.922242344305694,
X,right,Target,0,62,62,62,1188.6683382571064,1190.6701405207568,right,1,2,0.5856323850603076,L20I01,2022-11-22_14h43.08.141,t1_Paradigm,2021.1.4,59.922242344305694,
Q,left,Distractor,0,63,63,63,1192.1684834198531,1194.1703453525988,left,1,2,0.8137066352501279,L20I01,2022-11-22_14h43.08.141,t1_Paradigm,2021.1.4,59.922242344305694,
B,left,Pretarget,0,0,0,0,1202.8931313480716,1204.886042273327,left,1,2,1.0257876402174588,L20I01,2022-11-22_14h43.08.141,t1_Paradigm,2021.1.4,59.922242344305694,
F,left,Distractor,0,1,1,1,1206.3849517081253,1208.3870911342965,left,1,2,0.6127587305381894,L20I01,2022-11-22_14h43.08.141,t1_Paradigm,2021.1.4,59.922242344305694,
B,right,Target,0,2,2,2,1209.8850416929927,1211.886859675913,right,1,2,0.5848060000134865,L20I01,2022-11-22_14h43.08.141,t1_Paradigm,2021.1.4,59.922242344305694,
V,left,Distractor,0,3,3,3,1213.3850107356266,1215.3870144626999,left,1,2,0.8128340547555126,L20I01,2022-11-22_14h43.08.141,t1_Paradigm,2021.1.4,59.922242344305694,
G,left,Pretarget,0,4,4,4,1216.8847686907975,1218.887179194353,left,1,2,0.6406216366012814,L20I01,2022-11-22_14h43.08.141,t1_Paradigm,2021.1.4,59.922242344305694,
B,left,Lure,0,5,5,5,1220.3849953371537,1222.3871742219198,left,1,2,0.468452847446315,L20I01,2022-11-22_14h43.08.141,t1_Paradigm,2021.1.4,59.922242344305694,
G,right,Target,0,6,6,6,1223.884942886085,1225.8869308938738,right,1,2,0.7767287920432864,L20I01,2022-11-22_14h43.08.141,t1_Paradigm,2021.1.4,59.922242344305694,
Y,left,Pretarget,0,7,7,7,1227.3852879082551,1229.3866320671514,left,1,2,0.5731589755014284,L20I01,2022-11-22_14h43.08.141,t1_Paradigm,2021.1.4,59.922242344305694,
P,left,Distractor,0,8,8,8,1230.8849614925857,1232.8867214104102,left,1,2,0.6730351139849517,L20I01,2022-11-22_14h43.08.141,t1_Paradigm,2021.1.4,59.922242344305694,
Y,right,Target,0,9,9,9,1234.3850906152365,1236.3870430140523,left,0,2,0.5325547905085841,L20I01,2022-11-22_14h43.08.141,t1_Paradigm,2021.1.4,59.922242344305694,
X,left,Distractor,0,10,10,10,1237.884797562947,1239.887138773338,left,1,2,0.5685930056788493,L20I01,2022-11-22_14h43.08.141,t1_Paradigm,2021.1.4,59.922242344305694,
Y,right,Target,0,11,11,11,1241.3847560191207,1243.385276680201,right,1,2,0.478496826151968,L20I01,2022-11-22_14h43.08.141,t1_Paradigm,2021.1.4,59.922242344305694,
N,left,Distractor,0,12,12,12,1244.8847279489855,1246.885430825394,left,1,2,1.0582909420772921,L20I01,2022-11-22_14h43.08.141,t1_Paradigm,2021.1.4,59.922242344305694,
Y,right,Target,0,13,13,13,1248.385080670385,1250.3865393554734,right,1,2,0.7412054635060485,L20I01,2022-11-22_14h43.08.141,t1_Paradigm,2021.1.4,59.922242344305694,
Y,left,Lure,0,14,14,14,1251.8850497130334,1253.8850715275476,left,1,2,1.178549854652374,L20I01,2022-11-22_14h43.08.141,t1_Paradigm,2021.1.4,59.922242344305694,
K,left,Distractor,0,15,15,15,1255.3849363096524,1257.38698815697,left,1,2,0.9567318781482754,L20I01,2022-11-22_14h43.08.141,t1_Paradigm,2021.1.4,59.922242344305694,
T,left,Pretarget,0,16,16,16,1258.8850567706686,1260.8866639869084,left,1,2,0.6570636833057506,L20I01,2022-11-22_14h43.08.141,t1_Paradigm,2021.1.4,59.922242344305694,
J,left,Distractor,0,17,17,17,1262.3849655025988,1264.3861412406259,left,1,2,0.5977959002193529,L20I01,2022-11-22_14h43.08.141,t1_Paradigm,2021.1.4,59.922242344305694,
T,right,Target,0,18,18,18,1265.8849306956254,1267.886619716286,right,1,2,0.9049512846686412,L20I01,2022-11-22_14h43.08.141,t1_Paradigm,2021.1.4,59.922242344305694,
S,left,Pretarget,0,19,19,19,1269.384697312431,1271.3861823032348,left,1,2,0.9255493166710949,L20I01,2022-11-22_14h43.08.141,t1_Paradigm,2021.1.4,59.922242344305694,
R,left,Distractor,0,20,20,20,1272.8847433474584,1274.886991204592,left,1,2,0.6566036537406035,L20I01,2022-11-22_14h43.08.141,t1_Paradigm,2021.1.4,59.922242344305694,
S,right,Target,0,21,21,21,1276.3847370918375,1278.3867523677618,right,1,2,0.6928215178340906,L20I01,2022-11-22_14h43.08.141,t1_Paradigm,2021.1.4,59.922242344305694,
Q,left,Distractor,0,22,22,22,1279.8848142446222,1281.8861619323288,left,1,2,0.7775375329947565,L20I01,2022-11-22_14h43.08.141,t1_Paradigm,2021.1.4,59.922242344305694,
D,left,Distractor,0,23,23,23,1283.3846985956334,1285.386365480983,left,1,2,0.589321603969438,L20I01,2022-11-22_14h43.08.141,t1_Paradigm,2021.1.4,59.922242344305694,
F,left,Distractor,0,24,24,24,1286.8848803297587,1288.886450653823,left,1,2,0.6572908108646516,L20I01,2022-11-22_14h43.08.141,t1_Paradigm,2021.1.4,59.922242344305694,
Z,left,Distractor,0,25,25,25,1290.3850068860193,1292.3865355058515,left,1,2,0.6769835406303173,L20I01,2022-11-22_14h43.08.141,t1_Paradigm,2021.1.4,59.922242344305694,
P,left,Distractor,0,26,26,26,1293.8847279489855,1295.8869077961572,left,1,2,0.7607997071754653,L20I01,2022-11-22_14h43.08.141,t1_Paradigm,2021.1.4,59.922242344305694,
H,left,Distractor,0,27,27,27,1297.3847046908631,1299.3977330872585,left,1,2,1.1860482723132009,L20I01,2022-11-22_14h43.08.141,t1_Paradigm,2021.1.4,59.922242344305694,
Z,left,Pretarget,0,28,28,28,1300.8848700641101,1302.8870297007816,right,0,2,0.6566710220795358,L20I01,2022-11-22_14h43.08.141,t1_Paradigm,2021.1.4,59.922242344305694,
J,left,Pretarget,0,29,29,29,1304.3848529012175,1306.3866760169767,left,1,2,0.6130201838677749,L20I01,2022-11-22_14h43.08.141,t1_Paradigm,2021.1.4,59.922242344305694,
Z,right,Target,0,30,30,30,1307.8846718087007,1309.8839525714138,left,0,2,0.8118796698690858,L20I01,2022-11-22_14h43.08.141,t1_Paradigm,2021.1.4,59.922242344305694,
J,right,Target,0,31,31,31,1311.384853542826,1313.3862804685486,right,1,2,0.5733636469522025,L20I01,2022-11-22_14h43.08.141,t1_Paradigm,2021.1.4,59.922242344305694,
V,left,Pretarget,0,32,32,32,1314.8848293222982,1316.8851905449555,left,1,2,0.7383445544401184,L20I01,2022-11-22_14h43.08.141,t1_Paradigm,2021.1.4,59.922242344305694,
Z,left,Lure,0,33,33,33,1318.3849988659786,1320.3867129091668,right,0,2,0.5488402860210044,L20I01,2022-11-22_14h43.08.141,t1_Paradigm,2021.1.4,59.922242344305694,
V,right,Target,0,34,34,34,1321.8839791979408,1323.8868676959537,left,0,2,0.5687206847505877,L20I01,2022-11-22_14h43.08.141,t1_Paradigm,2021.1.4,59.922242344305694,
X,left,Distractor,0,35,35,35,1325.3848541844345,1327.3843052928132,left,1,2,0.8474511186504969,L20I01,2022-11-22_14h43.08.141,t1_Paradigm,2021.1.4,59.922242344305694,
S,left,Distractor,0,36,36,36,1328.8849339036387,1330.8851446703193,left,1,2,0.7704266437212937,L20I01,2022-11-22_14h43.08.141,t1_Paradigm,2021.1.4,59.922242344305694,
Q,left,Distractor,0,37,37,37,1332.3846065255639,1334.386616347867,left,1,2,1.109267606632784,L20I01,2022-11-22_14h43.08.141,t1_Paradigm,2021.1.4,59.922242344305694,
P,left,Distractor,0,38,38,38,1335.884884820989,1337.8867611898022,left,1,2,1.2090962664806284,L20I01,2022-11-22_14h43.08.141,t1_Paradigm,2021.1.4,59.922242344305694,
S,left,Lure,0,39,39,39,1339.3848618836637,1341.3864665334986,left,1,2,0.7010808769846335,L20I01,2022-11-22_14h43.08.141,t1_Paradigm,2021.1.4,59.922242344305694,
K,left,Pretarget,0,40,40,40,1342.884898294651,1344.8865722376358,left,1,2,0.6570575880759861,L20I01,2022-11-22_14h43.08.141,t1_Paradigm,2021.1.4,59.922242344305694,
L,left,Distractor,0,41,41,41,1346.3848573924479,1348.3852644897415,left,1,2,0.6623777625354705,L20I01,2022-11-22_14h43.08.141,t1_Paradigm,2021.1.4,59.922242344305694,
K,right,Target,0,42,42,42,1349.8847850516759,1351.8864955660392,left,0,2,0.6652014586143196,L20I01,2022-11-22_14h43.08.141,t1_Paradigm,2021.1.4,59.922242344305694,
B,left,Distractor,0,43,43,43,1353.3847791168519,1355.3867061723286,left,1,2,0.8450072517152876,L20I01,2022-11-22_14h43.08.141,t1_Paradigm,2021.1.4,59.922242344305694,
N,left,Distractor,0,44,44,44,1356.8846198388346,1358.886187275668,left,1,2,0.673447664899868,L20I01,2022-11-22_14h43.08.141,t1_Paradigm,2021.1.4,59.922242344305694,
S,left,Pretarget,0,45,45,45,1360.3848634876776,1362.3868030544254,left,1,2,1.1568299792998005,L20I01,2022-11-22_14h43.08.141,t1_Paradigm,2021.1.4,59.922242344305694,
Z,left,Distractor,0,46,46,46,1363.884677262322,1365.886159686721,left,1,2,0.6977240085689118,L20I01,2022-11-22_14h43.08.141,t1_Paradigm,2021.1.4,59.922242344305694,
S,right,Target,0,47,47,47,1367.3846103751857,1369.3864065435919,right,1,2,0.5572048680915032,L20I01,2022-11-22_14h43.08.141,t1_Paradigm,2021.1.4,59.922242344305694,
C,left,Distractor,0,48,48,48,1370.8847898637032,1372.886803856425,left,1,2,0.6887842291325796,L20I01,2022-11-22_14h43.08.141,t1_Paradigm,2021.1.4,59.922242344305694,
T,left,Pretarget,0,49,49,49,1374.3848349363252,1376.386257370832,left,1,2,0.5816400085896021,L20I01,2022-11-22_14h43.08.141,t1_Paradigm,2021.1.4,59.922242344305694,
S,left,Lure,0,50,50,50,1377.8848187358526,1379.8865061524994,right,0,2,0.53699885570677,L20I01,2022-11-22_14h43.08.141,t1_Paradigm,2021.1.4,59.922242344305694,
T,right,Target,0,51,51,51,1381.3840666163887,1383.3862326691014,right,1,2,1.0532954188529402,L20I01,2022-11-22_14h43.08.141,t1_Paradigm,2021.1.4,59.922242344305694,
N,left,Pretarget,0,52,52,52,1384.8848569112452,1386.8862196766277,left,1,2,0.977280506718671,L20I01,2022-11-22_14h43.08.141,t1_Paradigm,2021.1.4,59.922242344305694,
B,left,Distractor,0,53,53,53,1388.38478489127,1390.3866413703945,left,1,2,0.6450554361363174,L20I01,2022-11-22_14h43.08.141,t1_Paradigm,2021.1.4,59.922242344305694,
N,right,Target,0,54,54,54,1391.8847991669463,1393.884929412423,right,1,2,0.5545723698014626,L20I01,2022-11-22_14h43.08.141,t1_Paradigm,2021.1.4,59.922242344305694,
N,left,Lure,0,55,55,55,1395.3845555181033,1397.3848968510429,None,0,2,,L20I01,2022-11-22_14h43.08.141,t1_Paradigm,2021.1.4,59.922242344305694,
X,left,Distractor,0,56,56,56,1398.8847946757305,1400.886169952384,left,1,2,0.8813313011632999,L20I01,2022-11-22_14h43.08.141,t1_Paradigm,2021.1.4,59.922242344305694,
W,left,Distractor,0,57,57,57,1402.3847268261743,1404.385290153863,left,1,2,0.5825687293399824,L20I01,2022-11-22_14h43.08.141,t1_Paradigm,2021.1.4,59.922242344305694,
S,left,Distractor,0,58,58,58,1405.8847725404194,1407.8863399772526,left,1,2,0.5530902661994332,L20I01,2022-11-22_14h43.08.141,t1_Paradigm,2021.1.4,59.922242344305694,
L,left,Distractor,0,59,59,59,1409.384775588027,1411.3865791348799,left,1,2,0.5569674748840043,L20I01,2022-11-22_14h43.08.141,t1_Paradigm,2021.1.4,59.922242344305694,
K,left,Pretarget,0,60,60,60,1412.884766124378,1414.8861497418693,left,1,2,0.7373378788761329,L20I01,2022-11-22_14h43.08.141,t1_Paradigm,2021.1.4,59.922242344305694,
V,left,Pretarget,0,61,61,61,1416.3846985956334,1418.386201872141,left,1,2,0.5492101703130174,L20I01,2022-11-22_14h43.08.141,t1_Paradigm,2021.1.4,59.922242344305694,
K,right,Target,0,62,62,62,1419.8846913775924,1421.8866790645843,right,1,2,0.7927432101423619,L20I01,2022-11-22_14h43.08.141,t1_Paradigm,2021.1.4,59.922242344305694,
V,right,Target,0,63,63,63,1423.3847454326751,1425.3859853310278,right,1,2,0.5097072973730974,L20I01,2022-11-22_14h43.08.141,t1_Paradigm,2021.1.4,59.922242344305694,
R,left,Distractor,0,0,0,0,1498.5969034300506,1500.5863304494414,None,0,3,,L20I01,2022-11-22_14h43.08.141,t1_Paradigm,2021.1.4,59.922242344305694,
P,left,Lure,0,1,1,1,1502.0844099703972,1504.0853585808509,left,1,3,0.4179182475490961,L20I01,2022-11-22_14h43.08.141,t1_Paradigm,2021.1.4,59.922242344305694,
V,left,Distractor,0,2,2,2,1505.5845756644412,1507.586448183647,left,1,3,0.8209124817803968,L20I01,2022-11-22_14h43.08.141,t1_Paradigm,2021.1.4,59.922242344305694,
P,left,Pretarget,0,3,3,3,1509.0847326968506,1511.0864874818508,left,1,3,0.6488854869676288,L20I01,2022-11-22_14h43.08.141,t1_Paradigm,2021.1.4,59.922242344305694,
Z,left,Distractor,0,4,4,4,1512.5844341909105,1514.5866201333265,None,0,3,,L20I01,2022-11-22_14h43.08.141,t1_Paradigm,2021.1.4,59.922242344305694,
L,left,Pretarget,0,5,5,5,1516.084616887456,1518.0868971455493,left,1,3,0.5446352180588292,L20I01,2022-11-22_14h43.08.141,t1_Paradigm,2021.1.4,59.922242344305694,
P,right,Target,0,6,6,6,1519.5847161755664,1521.5848480250424,right,1,3,0.9989426377724158,L20I01,2022-11-22_14h43.08.141,t1_Paradigm,2021.1.4,59.922242344305694,
S,left,Distractor,0,7,7,7,1523.0846111130231,1525.0851972176315,left,1,3,0.5861062090843916,L20I01,2022-11-22_14h43.08.141,t1_Paradigm,2021.1.4,59.922242344305694,
L,right,Target,0,8,8,8,1526.584620255875,1528.5862162440608,right,1,3,0.6850995014392538,L20I01,2022-11-22_14h43.08.141,t1_Paradigm,2021.1.4,59.922242344305694,
D,left,Distractor,0,9,9,9,1530.0845642759814,1532.085915171716,left,1,3,0.5617939356307033,L20I01,2022-11-22_14h43.08.141,t1_Paradigm,2021.1.4,59.922242344305694,
G,left,Distractor,0,10,10,10,1533.5846000453748,1535.586778609344,left,1,3,0.8206353091518395,L20I01,2022-11-22_14h43.08.141,t1_Paradigm,2021.1.4,59.922242344305694,
M,left,Pretarget,0,11,11,11,1537.0845508023194,1539.0865394517168,left,1,3,0.4888304887281265,L20I01,2022-11-22_14h43.08.141,t1_Paradigm,2021.1.4,59.922242344305694,
Y,left,Distractor,0,12,12,12,1540.5845625115762,1542.5862531362363,left,1,3,0.5891701855871361,L20I01,2022-11-22_14h43.08.141,t1_Paradigm,2021.1.4,59.922242344305694,
V,left,Distractor,0,13,13,13,1544.08465442124,1546.0850390624255,left,1,3,0.530400286661461,L20I01,2022-11-22_14h43.08.141,t1_Paradigm,2021.1.4,59.922242344305694,
M,right,Target,0,14,14,14,1547.5845355642377,1549.5858938384044,right,1,3,0.4693944002792705,L20I01,2022-11-22_14h43.08.141,t1_Paradigm,2021.1.4,59.922242344305694,
S,left,Pretarget,0,15,15,15,1551.0843422812468,1553.086205176398,left,1,3,0.5051727661193581,L20I01,2022-11-22_14h43.08.141,t1_Paradigm,2021.1.4,59.922242344305694,
Q,left,Distractor,0,16,16,16,1554.5846539400372,1556.5852775784442,left,1,3,0.6060873395181261,L20I01,2022-11-22_14h43.08.141,t1_Paradigm,2021.1.4,59.922242344305694,
R,left,Pretarget,0,17,17,17,1558.0846377395646,1560.0865872511495,left,1,3,0.4648903451889055,L20I01,2022-11-22_14h43.08.141,t1_Paradigm,2021.1.4,59.922242344305694,
S,right,Target,0,18,18,18,1561.5846407871722,1563.5863910809567,right,1,3,0.6769800118054263,L20I01,2022-11-22_14h43.08.141,t1_Paradigm,2021.1.4,59.922242344305694,
F,left,Distractor,0,19,19,19,1565.084509098102,1567.085848444971,left,1,3,0.7455648370523704,L20I01,2022-11-22_14h43.08.141,t1_Paradigm,2021.1.4,59.922242344305694,
R,right,Target,0,20,20,20,1568.58455352913,1570.5862056576007,left,0,3,0.6370764576276997,L20I01,2022-11-22_14h43.08.141,t1_Paradigm,2021.1.4,59.922242344305694,
P,left,Distractor,0,21,21,21,1572.0850159646943,1574.085961687946,left,1,3,0.6571374676714186,L20I01,2022-11-22_14h43.08.141,t1_Paradigm,2021.1.4,59.922242344305694,
L,left,Distractor,0,22,22,22,1575.5846587520646,1577.5863808152935,left,1,3,0.532794108541566,L20I01,2022-11-22_14h43.08.141,t1_Paradigm,2021.1.4,59.922242344305694,
R,right,Target,0,23,23,23,1579.0846727069438,1581.0860941790306,right,1,3,0.5212324172607623,L20I01,2022-11-22_14h43.08.141,t1_Paradigm,2021.1.4,59.922242344305694,
H,left,Pretarget,0,24,24,24,1582.5845605867653,1584.5861187203554,left,1,3,0.6691996095323702,L20I01,2022-11-22_14h43.08.141,t1_Paradigm,2021.1.4,59.922242344305694,
G,left,Pretarget,0,25,25,25,1586.0845751832385,1588.0865481133515,left,1,3,0.6408211752277566,L20I01,2022-11-22_14h43.08.141,t1_Paradigm,2021.1.4,59.922242344305694,
T,left,Distractor,0,26,26,26,1589.5844595342496,1591.585034731601,left,1,3,0.6303697784314863,L20I01,2022-11-22_14h43.08.141,t1_Paradigm,2021.1.4,59.922242344305694,
H,right,Target,0,27,27,27,1593.0844106119912,1595.0864515520661,right,1,3,0.7129078712168848,L20I01,2022-11-22_14h43.08.141,t1_Paradigm,2021.1.4,59.922242344305694,
G,right,Target,0,28,28,28,1596.5845467922918,1598.586037557543,right,1,3,1.0852228817529976,L20I01,2022-11-22_14h43.08.141,t1_Paradigm,2021.1.4,59.922242344305694,
D,left,Distractor,0,29,29,29,1600.0844478249928,1602.0861503193155,left,1,3,0.5931173290300649,L20I01,2022-11-22_14h43.08.141,t1_Paradigm,2021.1.4,59.922242344305694,
N,left,Pretarget,0,30,30,30,1603.5844540806138,1605.5863936473615,left,1,3,0.5971103471092647,L20I01,2022-11-22_14h43.08.141,t1_Paradigm,2021.1.4,59.922242344305694,
V,left,Distractor,0,31,31,31,1607.0845453486836,1609.0859456478647,left,1,3,0.5853009969578125,L20I01,2022-11-22_14h43.08.141,t1_Paradigm,2021.1.4,59.922242344305694,
R,left,Distractor,0,32,32,32,1610.5845503211167,1612.5860956226388,left,1,3,0.4771314943500329,L20I01,2022-11-22_14h43.08.141,t1_Paradigm,2021.1.4,59.922242344305694,
N,right,Target,0,33,33,33,1614.0846104714146,1616.0848703207594,right,1,3,0.6741476540919393,L20I01,2022-11-22_14h43.08.141,t1_Paradigm,2021.1.4,59.922242344305694,
Z,left,Distractor,0,34,34,34,1617.5841204469034,1619.5860997930577,left,1,3,0.6452969997626496,L20I01,2022-11-22_14h43.08.141,t1_Paradigm,2021.1.4,59.922242344305694,
N,left,Lure,0,35,35,35,1621.0843143715028,1623.0847821002972,left,1,3,0.7784582337044412,L20I01,2022-11-22_14h43.08.141,t1_Paradigm,2021.1.4,59.922242344305694,
Y,left,Pretarget,0,36,36,36,1624.5844807071553,1626.585071623791,left,1,3,0.7021167454950046,L20I01,2022-11-22_14h43.08.141,t1_Paradigm,2021.1.4,59.922242344305694,
Y,left,Lure,0,37,37,37,1628.0842312838795,1630.0844000255456,right,0,3,0.6745910019526491,L20I01,2022-11-22_14h43.08.141,t1_Paradigm,2021.1.4,59.922242344305694,
B,left,Distractor,0,38,38,38,1631.584488406399,1633.5852352326183,left,1,3,0.7900821604998782,L20I01,2022-11-22_14h43.08.141,t1_Paradigm,2021.1.4,59.922242344305694,
Y,right,Target,0,39,39,39,1635.0844516746001,1637.086058249246,right,1,3,0.9211629957862897,L20I01,2022-11-22_14h43.08.141,t1_Paradigm,2021.1.4,59.922242344305694,
J,left,Distractor,0,40,40,40,1638.5844675542903,1640.5865158727975,left,1,3,0.49260087046422996,L20I01,2022-11-22_14h43.08.141,t1_Paradigm,2021.1.4,59.922242344305694,
X,left,Distractor,0,41,41,41,1642.0844783011416,1644.0863286850363,left,1,3,0.5130317648145137,L20I01,2022-11-22_14h43.08.141,t1_Paradigm,2021.1.4,59.922242344305694,
W,left,Pretarget,0,42,42,42,1645.584525619386,1647.5857568561041,left,1,3,0.5494369770749472,L20I01,2022-11-22_14h43.08.141,t1_Paradigm,2021.1.4,59.922242344305694,
S,left,Pretarget,0,43,43,43,1649.084109379255,1651.0856668712368,left,1,3,0.5855124052322935,L20I01,2022-11-22_14h43.08.141,t1_Paradigm,2021.1.4,59.922242344305694,
R,left,Distractor,0,44,44,44,1652.5834480466583,1654.5858880639717,left,1,3,0.44548537449736614,L20I01,2022-11-22_14h43.08.141,t1_Paradigm,2021.1.4,59.922242344305694,
W,right,Target,0,45,45,45,1656.0842354542983,1658.086320344184,right,1,3,0.6091054414137034,L20I01,2022-11-22_14h43.08.141,t1_Paradigm,2021.1.4,59.922242344305694,
S,right,Target,0,46,46,46,1659.5844540806138,1661.585082851845,left,0,3,0.6302395329694264,L20I01,2022-11-22_14h43.08.141,t1_Paradigm,2021.1.4,59.922242344305694,
D,left,Distractor,0,47,47,47,1663.0842309630825,1665.0856155429792,left,1,3,0.537590734733385,L20I01,2022-11-22_14h43.08.141,t1_Paradigm,2021.1.4,59.922242344305694,
T,left,Distractor,0,48,48,48,1666.5845095793047,1668.5864786597958,left,1,3,0.556762482621707,L20I01,2022-11-22_14h43.08.141,t1_Paradigm,2021.1.4,59.922242344305694,
S,right,Target,0,49,49,49,1670.0842261510552,1672.086321948198,right,1,3,0.656949798707501,L20I01,2022-11-22_14h43.08.141,t1_Paradigm,2021.1.4,59.922242344305694,
K,left,Distractor,0,50,50,50,1673.5844277748838,1675.586168123802,left,1,3,0.5489830427395646,L20I01,2022-11-22_14h43.08.141,t1_Paradigm,2021.1.4,59.922242344305694,
S,left,Lure,0,51,51,51,1677.0842126773787,1679.0837516854226,left,1,3,0.7635778494150145,L20I01,2022-11-22_14h43.08.141,t1_Paradigm,2021.1.4,59.922242344305694,
T,left,Pretarget,0,52,52,52,1680.5842388227175,1682.5863596423878,left,1,3,0.6208140598319005,L20I01,2022-11-22_14h43.08.141,t1_Paradigm,2021.1.4,59.922242344305694,
V,left,Distractor,0,53,53,53,1684.0842883865698,1686.0853887362173,left,1,3,0.5621503462607507,L20I01,2022-11-22_14h43.08.141,t1_Paradigm,2021.1.4,59.922242344305694,
B,left,Distractor,0,54,54,54,1687.584461138249,1689.5849391327065,left,1,3,0.6143313001957722,L20I01,2022-11-22_14h43.08.141,t1_Paradigm,2021.1.4,59.922242344305694,
T,right,Target,0,55,55,55,1691.0844436545594,1693.0860239234753,right,1,3,0.8572593081335071,L20I01,2022-11-22_14h43.08.141,t1_Paradigm,2021.1.4,59.922242344305694,
Y,left,Pretarget,0,56,56,56,1694.5839956550626,1696.5860426903673,left,1,3,0.685091160601587,L20I01,2022-11-22_14h43.08.141,t1_Paradigm,2021.1.4,59.922242344305694,
T,left,Lure,0,57,57,57,1698.0843480556796,1700.083886422115,left,1,3,1.0913601380161708,L20I01,2022-11-22_14h43.08.141,t1_Paradigm,2021.1.4,59.922242344305694,
P,left,Pretarget,0,58,58,58,1701.584475895128,1703.5861559333425,left,1,3,0.5489679650781909,L20I01,2022-11-22_14h43.08.141,t1_Paradigm,2021.1.4,59.922242344305694,
Y,right,Target,0,59,59,59,1705.0843663413689,1707.0852511123085,left,0,3,0.4739886006282177,L20I01,2022-11-22_14h43.08.141,t1_Paradigm,2021.1.4,59.922242344305694,
R,left,Distractor,0,60,60,60,1708.584239785123,1710.5845644363872,left,1,3,0.6066266070847632,L20I01,2022-11-22_14h43.08.141,t1_Paradigm,2021.1.4,59.922242344305694,
P,right,Target,0,61,61,61,1712.0841876548511,1714.085583142005,left,0,3,0.5296836157940561,L20I01,2022-11-22_14h43.08.141,t1_Paradigm,2021.1.4,59.922242344305694,
L,left,Distractor,0,62,62,62,1715.5843151735025,1717.5864946998772,left,1,3,0.4525709204317536,L20I01,2022-11-22_14h43.08.141,t1_Paradigm,2021.1.4,59.922242344305694,
V,left,Distractor,0,63,63,63,1719.0843666621658,1721.086015261826,left,1,3,0.5851123655884294,L20I01,2022-11-22_14h43.08.141,t1_Paradigm,2021.1.4,59.922242344305694,
H,left,Lure,0,0,0,0,1732.276322175967,1734.2692215523566,left,1,3,1.0984376639098627,L20I01,2022-11-22_14h43.08.141,t1_Paradigm,2021.1.4,59.922242344305694,
B,left,Distractor,0,1,1,1,1735.7677765013505,1737.7679510174494,left,1,3,0.3510952649230603,L20I01,2022-11-22_14h43.08.141,t1_Paradigm,2021.1.4,59.922242344305694,
T,left,Distractor,0,2,2,2,1739.2677631880797,1741.269583416608,left,1,3,0.41747265406593215,L20I01,2022-11-22_14h43.08.141,t1_Paradigm,2021.1.4,59.922242344305694,
R,left,Distractor,0,3,3,3,1742.7675926820084,1744.7685133827326,left,1,3,0.5665648976864759,L20I01,2022-11-22_14h43.08.141,t1_Paradigm,2021.1.4,59.922242344305694,
H,left,Pretarget,0,4,4,4,1746.2672486222436,1748.2686681695195,left,1,3,0.9704070106818108,L20I01,2022-11-22_14h43.08.141,t1_Paradigm,2021.1.4,59.922242344305694,
K,left,Distractor,0,5,5,5,1749.767723889876,1751.7693176324537,left,1,3,0.5098327308078296,L20I01,2022-11-22_14h43.08.141,t1_Paradigm,2021.1.4,59.922242344305694,
G,left,Distractor,0,6,6,6,1753.2674969227228,1755.2688243999291,left,1,3,0.5463550356653286,L20I01,2022-11-22_14h43.08.141,t1_Paradigm,2021.1.4,59.922242344305694,
H,right,Target,0,7,7,7,1756.7675965316303,1758.768425483082,left,0,3,0.6628435665334109,L20I01,2022-11-22_14h43.08.141,t1_Paradigm,2021.1.4,59.922242344305694,
Y,left,Pretarget,0,8,8,8,1760.267461634532,1762.2689257732418,left,1,3,0.5219327272643568,L20I01,2022-11-22_14h43.08.141,t1_Paradigm,2021.1.4,59.922242344305694,
S,left,Distractor,0,9,9,9,1763.7676841104694,1765.7695617624995,left,1,3,0.6376192540046759,L20I01,2022-11-22_14h43.08.141,t1_Paradigm,2021.1.4,59.922242344305694,
P,left,Distractor,0,10,10,10,1767.2675883511838,1769.269593682271,left,1,3,0.4977609649213264,L20I01,2022-11-22_14h43.08.141,t1_Paradigm,2021.1.4,59.922242344305694,
Y,right,Target,0,11,11,11,1770.7674293939635,1772.7678307168244,left,0,3,0.43928107067767996,L20I01,2022-11-22_14h43.08.141,t1_Paradigm,2021.1.4,59.922242344305694,
H,left,Lure,0,12,12,12,1774.2676852332806,1776.2693771411577,left,1,3,0.64963808763423,L20I01,2022-11-22_14h43.08.141,t1_Paradigm,2021.1.4,59.922242344305694,
Q,left,Distractor,0,13,13,13,1777.7675022159383,1779.7696496621502,left,1,3,0.5574778703012271,L20I01,2022-11-22_14h43.08.141,t1_Paradigm,2021.1.4,59.922242344305694,
V,left,Pretarget,0,14,14,14,1781.2674087022606,1783.2686113876262,left,1,3,0.5466809701320017,L20I01,2022-11-22_14h43.08.141,t1_Paradigm,2021.1.4,59.922242344305694,
G,left,Distractor,0,15,15,15,1784.7676446518744,1786.769468088416,left,1,3,0.5015467451303266,L20I01,2022-11-22_14h43.08.141,t1_Paradigm,2021.1.4,59.922242344305694,
Z,left,Pretarget,0,16,16,16,1788.2672983465018,1790.268243107348,left,1,3,0.6506755601440091,L20I01,2022-11-22_14h43.08.141,t1_Paradigm,2021.1.4,59.922242344305694,
V,right,Target,0,17,17,17,1791.7673334742722,1793.7693740935356,left,0,3,0.5577322660101345,L20I01,2022-11-22_14h43.08.141,t1_Paradigm,2021.1.4,59.922242344305694,
N,left,Distractor,0,18,18,18,1795.2674844114517,1797.2694531711459,left,1,3,0.48177445655164775,L20I01,2022-11-22_14h43.08.141,t1_Paradigm,2021.1.4,59.922242344305694,
Z,right,Target,0,19,19,19,1798.7675442409527,1800.7693602990767,right,1,3,0.6777836199325975,L20I01,2022-11-22_14h43.08.141,t1_Paradigm,2021.1.4,59.922242344305694,
R,left,Distractor,0,20,20,20,1802.267597654427,1804.2680647416273,left,1,3,0.6189469942619326,L20I01,2022-11-22_14h43.08.141,t1_Paradigm,2021.1.4,59.922242344305694,
P,left,Distractor,0,21,21,21,1805.7679272781243,1807.7682179244148,left,1,3,0.4789959935005754,L20I01,2022-11-22_14h43.08.141,t1_Paradigm,2021.1.4,59.922242344305694,
Z,right,Target,0,22,22,22,1809.267611769712,1811.2699446392653,right,1,3,0.5612277207255829,L20I01,2022-11-22_14h43.08.141,t1_Paradigm,2021.1.4,59.922242344305694,
D,left,Pretarget,0,23,23,23,1812.767920220489,1814.7682201700227,left,1,3,0.4708007946901489,L20I01,2022-11-22_14h43.08.141,t1_Paradigm,2021.1.4,59.922242344305694,
K,left,Distractor,0,24,24,24,1816.2675312484935,1818.2833782081434,left,1,3,0.5074697059026221,L20I01,2022-11-22_14h43.08.141,t1_Paradigm,2021.1.4,59.922242344305694,
W,left,Distractor,0,25,25,25,1819.767920541286,1821.7684453727852,left,1,3,0.4789969559205929,L20I01,2022-11-22_14h43.08.141,t1_Paradigm,2021.1.4,59.922242344305694,
D,right,Target,0,26,26,26,1823.2675642910617,1825.2680390774913,left,0,3,0.6910340110771358,L20I01,2022-11-22_14h43.08.141,t1_Paradigm,2021.1.4,59.922242344305694,
G,left,Pretarget,0,27,27,27,1826.7676067972789,1828.76802833064,left,1,3,0.6631512153107906,L20I01,2022-11-22_14h43.08.141,t1_Paradigm,2021.1.4,59.922242344305694,
V,left,Distractor,0,28,28,28,1830.2672884016501,1832.268007959734,left,1,3,0.5869742983340984,L20I01,2022-11-22_14h43.08.141,t1_Paradigm,2021.1.4,59.922242344305694,
D,right,Target,0,29,29,29,1833.7679750775715,1835.7696984240029,right,1,3,0.6053998616116587,L20I01,2022-11-22_14h43.08.141,t1_Paradigm,2021.1.4,59.922242344305694,
G,right,Target,0,30,30,30,1837.2676306970097,1839.2690762292186,right,1,3,0.4338806957966881,L20I01,2022-11-22_14h43.08.141,t1_Paradigm,2021.1.4,59.922242344305694,
B,left,Pretarget,0,31,31,31,1840.7678769122722,1842.767736721944,left,1,3,0.7112567051517544,L20I01,2022-11-22_14h43.08.141,t1_Paradigm,2021.1.4,59.922242344305694,
N,left,Distractor,0,32,32,32,1844.267715709444,1846.2807842060429,left,1,3,0.47829311710665934,L20I01,2022-11-22_14h43.08.141,t1_Paradigm,2021.1.4,59.922242344305694,
F,left,Distractor,0,33,33,33,1847.7679680199362,1849.7694552563626,left,1,3,0.653522033142508,L20I01,2022-11-22_14h43.08.141,t1_Paradigm,2021.1.4,59.922242344305694,
B,right,Target,0,34,34,34,1851.2673483915569,1853.2676958197408,right,1,3,0.4032165497628739,L20I01,2022-11-22_14h43.08.141,t1_Paradigm,2021.1.4,59.922242344305694,
Q,left,Pretarget,0,35,35,35,1854.7678887819202,1856.769112961003,left,1,3,0.5178707368322648,L20I01,2022-11-22_14h43.08.141,t1_Paradigm,2021.1.4,59.922242344305694,
S,left,Pretarget,0,36,36,36,1858.2675145668036,1860.2692533117224,left,1,3,0.537527216001763,L20I01,2022-11-22_14h43.08.141,t1_Paradigm,2021.1.4,59.922242344305694,
W,left,Distractor,0,37,37,37,1861.7677145866328,1863.7694446699024,left,1,3,0.5576491783867823,L20I01,2022-11-22_14h43.08.141,t1_Paradigm,2021.1.4,59.922242344305694,
Q,right,Target,0,38,38,38,1865.266591941283,1867.2695885494468,right,1,3,0.44934750549145974,L20I01,2022-11-22_14h43.08.141,t1_Paradigm,2021.1.4,59.922242344305694,
S,right,Target,0,39,39,39,1868.7679782855848,1870.7685384052602,right,1,3,0.47043893043883145,L20I01,2022-11-22_14h43.08.141,t1_Paradigm,2021.1.4,59.922242344305694,
T,left,Distractor,0,40,40,40,1872.2674978851283,1874.2677336743363,left,1,3,0.9552032583160326,L20I01,2022-11-22_14h43.08.141,t1_Paradigm,2021.1.4,59.922242344305694,
G,left,Distractor,0,41,41,41,1875.7675580354262,1877.7686776331684,left,1,3,0.7986353739688639,L20I01,2022-11-22_14h43.08.141,t1_Paradigm,2021.1.4,59.922242344305694,
D,left,Distractor,0,42,42,42,1879.2675360605208,1881.2684503452037,left,1,3,0.4664067745616194,L20I01,2022-11-22_14h43.08.141,t1_Paradigm,2021.1.4,59.922242344305694,
S,left,Lure,0,43,43,43,1882.7674909878842,1884.7696211108123,left,1,3,0.5173382060893346,L20I01,2022-11-22_14h43.08.141,t1_Paradigm,2021.1.4,59.922242344305694,
Z,left,Pretarget,0,44,44,44,1886.2675376645202,1888.2677856442024,left,1,3,0.8431876647809986,L20I01,2022-11-22_14h43.08.141,t1_Paradigm,2021.1.4,59.922242344305694,
J,left,Distractor,0,45,45,45,1889.7675737547106,1891.7695043390122,left,1,3,0.5895554683665978,L20I01,2022-11-22_14h43.08.141,t1_Paradigm,2021.1.4,59.922242344305694,
M,left,Pretarget,0,46,46,46,1893.2675662158726,1895.2694140333479,left,1,3,0.5456139838643139,L20I01,2022-11-22_14h43.08.141,t1_Paradigm,2021.1.4,59.922242344305694,
Z,right,Target,0,47,47,47,1896.7678910275426,1898.767747308404,right,1,3,0.8072485773300286,L20I01,2022-11-22_14h43.08.141,t1_Paradigm,2021.1.4,59.922242344305694,
P,left,Distractor,0,48,48,48,1900.2672338653647,1902.2694833264977,left,1,3,0.9854028835543431,L20I01,2022-11-22_14h43.08.141,t1_Paradigm,2021.1.4,59.922242344305694,
M,right,Target,0,49,49,49,1903.7675323713047,1905.766978667656,right,1,3,0.6559630128467688,L20I01,2022-11-22_14h43.08.141,t1_Paradigm,2021.1.4,59.922242344305694,
K,left,Distractor,0,50,50,50,1907.2675139252096,1909.2680788568978,left,1,3,0.595049838128034,L20I01,2022-11-22_14h43.08.141,t1_Paradigm,2021.1.4,59.922242344305694,
Y,left,Distractor,0,51,51,51,1910.7675589978317,1912.7698270654655,left,1,3,0.5811119690770283,L20I01,2022-11-22_14h43.08.141,t1_Paradigm,2021.1.4,59.922242344305694,
X,left,Distractor,0,52,52,52,1914.2674468776531,1916.2683816936478,left,1,3,0.6346438187465537,L20I01,2022-11-22_14h43.08.141,t1_Paradigm,2021.1.4,59.922242344305694,
F,left,Pretarget,0,53,53,53,1917.7673527223815,1919.7699136819137,left,1,3,0.6209879343223292,L20I01,2022-11-22_14h43.08.141,t1_Paradigm,2021.1.4,59.922242344305694,
M,left,Lure,0,54,54,54,1921.267396832598,1923.269304319183,left,1,3,0.7695989755011396,L20I01,2022-11-22_14h43.08.141,t1_Paradigm,2021.1.4,59.922242344305694,
V,left,Distractor,0,55,55,55,1924.7677838797827,1926.7686118688289,left,1,3,0.6146071896073408,L20I01,2022-11-22_14h43.08.141,t1_Paradigm,2021.1.4,59.922242344305694,
F,right,Target,0,56,56,56,1928.2673609028134,1930.269027788163,left,0,3,0.4098375749163097,L20I01,2022-11-22_14h43.08.141,t1_Paradigm,2021.1.4,59.922242344305694,
S,left,Distractor,0,57,57,57,1931.7677187570516,1933.7697818324377,left,1,3,0.5572000560787274,L20I01,2022-11-22_14h43.08.141,t1_Paradigm,2021.1.4,59.922242344305694,
D,left,Distractor,0,58,58,58,1935.2673580156115,1937.269213853113,left,1,3,0.5618921009299811,L20I01,2022-11-22_14h43.08.141,t1_Paradigm,2021.1.4,59.922242344305694,
F,right,Target,0,59,59,59,1938.7676863560919,1940.7693179532507,left,0,3,0.5335171954502584,L20I01,2022-11-22_14h43.08.141,t1_Paradigm,2021.1.4,59.922242344305694,
V,left,Pretarget,0,60,60,60,1942.2673362010974,1944.2693335121294,left,1,3,0.48962190639576875,L20I01,2022-11-22_14h43.08.141,t1_Paradigm,2021.1.4,59.922242344305694,
J,left,Distractor,0,61,61,61,1945.767764631688,1947.7691023745429,left,1,3,0.6058983873663237,L20I01,2022-11-22_14h43.08.141,t1_Paradigm,2021.1.4,59.922242344305694,
V,left,Lure,0,62,62,62,1949.2673179153935,1951.269328058508,right,0,3,0.625475949345855,L20I01,2022-11-22_14h43.08.141,t1_Paradigm,2021.1.4,59.922242344305694,
V,right,Target,0,63,63,63,1952.767749233215,1954.7672147776757,left,0,3,0.5516251650988124,L20I01,2022-11-22_14h43.08.141,t1_Paradigm,2021.1.4,59.922242344305694,
R,left,Distractor,0,0,0,0,2015.9310266839602,2017.9348153513856,None,0,4,,L20I01,2022-11-22_14h43.08.141,t1_Paradigm,2021.1.4,59.922242344305694,
F,left,Distractor,0,1,1,1,2019.4337026508874,2021.4343166652397,None,0,4,,L20I01,2022-11-22_14h43.08.141,t1_Paradigm,2021.1.4,59.922242344305694,
P,left,Pretarget,0,2,2,2,2022.933987683151,2024.934805406534,left,1,4,0.38398705757572316,L20I01,2022-11-22_14h43.08.141,t1_Paradigm,2021.1.4,59.922242344305694,
H,left,Distractor,0,3,3,3,2026.4337174077664,2028.433213107579,left,1,4,0.5817545347672421,L20I01,2022-11-22_14h43.08.141,t1_Paradigm,2021.1.4,59.922242344305694,
Z,left,Distractor,0,4,4,4,2029.9339376380958,2031.9347688351554,left,1,4,0.6481502095994074,L20I01,2022-11-22_14h43.08.141,t1_Paradigm,2021.1.4,59.922242344305694,
T,left,Distractor,0,5,5,5,2033.43400677084,2035.435711189988,left,1,4,0.8911221673624823,L20I01,2022-11-22_14h43.08.141,t1_Paradigm,2021.1.4,59.922242344305694,
P,right,Target,0,6,6,6,2036.9337804452807,2038.9362958509882,right,1,4,1.15043832732772,L20I01,2022-11-22_14h43.08.141,t1_Paradigm,2021.1.4,59.922242344305694,
G,left,Distractor,0,7,7,7,2040.4340096580563,2042.4346817375044,left,1,4,1.1401771659147926,L20I01,2022-11-22_14h43.08.141,t1_Paradigm,2021.1.4,59.922242344305694,
L,left,Distractor,0,8,8,8,2043.9339203147974,2045.9353356916545,left,1,4,1.1594910289422842,L20I01,2022-11-22_14h43.08.141,t1_Paradigm,2021.1.4,59.922242344305694,
P,left,Lure,0,9,9,9,2047.433567593398,2049.4360169139545,left,1,4,0.9228420715953689,L20I01,2022-11-22_14h43.08.141,t1_Paradigm,2021.1.4,59.922242344305694,
Q,left,Pretarget,0,10,10,10,2050.93372590901,2052.934541065988,left,1,4,0.6243460859550396,L20I01,2022-11-22_14h43.08.141,t1_Paradigm,2021.1.4,59.922242344305694,
D,left,Distractor,0,11,11,11,2054.4337228613877,2056.436112512849,left,1,4,0.6907058309880085,L20I01,2022-11-22_14h43.08.141,t1_Paradigm,2021.1.4,59.922242344305694,
M,left,Pretarget,0,12,12,12,2057.9336893376167,2059.9357774355303,left,1,4,0.5669232331274543,L20I01,2022-11-22_14h43.08.141,t1_Paradigm,2021.1.4,59.922242344305694,
C,left,Distractor,0,13,13,13,2061.433956404988,2063.4348998826317,left,1,4,0.5878532948408974,L20I01,2022-11-22_14h43.08.141,t1_Paradigm,2021.1.4,59.922242344305694,
Q,right,Target,0,14,14,14,2064.933969397447,2066.9355470999435,right,1,4,1.0393087879492668,L20I01,2022-11-22_14h43.08.141,t1_Paradigm,2021.1.4,59.922242344305694,
R,left,Distractor,0,15,15,15,2068.433879733391,2070.43591169102,left,1,4,0.850782002118649,L20I01,2022-11-22_14h43.08.141,t1_Paradigm,2021.1.4,59.922242344305694,
M,right,Target,0,16,16,16,2071.9339703598525,2073.9360950291593,right,1,4,0.9184682619816158,L20I01,2022-11-22_14h43.08.141,t1_Paradigm,2021.1.4,59.922242344305694,
S,left,Distractor,0,17,17,17,2075.433649397819,2077.434598649881,left,1,4,0.5241138576384401,L20I01,2022-11-22_14h43.08.141,t1_Paradigm,2021.1.4,59.922242344305694,
Z,left,Distractor,0,18,18,18,2078.9339203147974,2080.9347540782765,left,1,4,0.5440038804226788,L20I01,2022-11-22_14h43.08.141,t1_Paradigm,2021.1.4,59.922242344305694,
L,left,Pretarget,0,19,19,19,2082.4339942595834,2084.4349524940917,left,1,4,0.5480777405027766,L20I01,2022-11-22_14h43.08.141,t1_Paradigm,2021.1.4,59.922242344305694,
M,right,Target,0,20,20,20,2085.9339382796898,2087.934554218853,left,0,4,1.0643508851353545,L20I01,2022-11-22_14h43.08.141,t1_Paradigm,2021.1.4,59.922242344305694,
P,left,Distractor,0,21,21,21,2089.4336542098317,2091.4355469395377,left,1,4,0.8116329734039027,L20I01,2022-11-22_14h43.08.141,t1_Paradigm,2021.1.4,59.922242344305694,
F,left,Distractor,0,22,22,22,2092.933953678177,2094.9358213853557,left,1,4,0.7668333445180906,L20I01,2022-11-22_14h43.08.141,t1_Paradigm,2021.1.4,59.922242344305694,
L,right,Target,0,23,23,23,2096.4340831216396,2098.4359710393182,right,1,4,0.8027140460762894,L20I01,2022-11-22_14h43.08.141,t1_Paradigm,2021.1.4,59.922242344305694,
L,left,Lure,0,24,24,24,2099.9339270516357,2101.9340778284095,left,1,4,0.7606800481589744,L20I01,2022-11-22_14h43.08.141,t1_Paradigm,2021.1.4,59.922242344305694,
V,left,Pretarget,0,25,25,25,2103.433837708377,2105.433107243036,left,1,4,0.8296094143734081,L20I01,2022-11-22_14h43.08.141,t1_Paradigm,2021.1.4,59.922242344305694,
Z,left,Distractor,0,26,26,26,2106.933831773553,2108.934266780576,left,1,4,0.6085302440478699,L20I01,2022-11-22_14h43.08.141,t1_Paradigm,2021.1.4,59.922242344305694,
H,left,Distractor,0,27,27,27,2110.4336378489534,2112.435071832311,left,1,4,0.5154226994782221,L20I01,2022-11-22_14h43.08.141,t1_Paradigm,2021.1.4,59.922242344305694,
X,left,Distractor,0,28,28,28,2113.933915181973,2115.9343825899705,left,1,4,0.5522751092357794,L20I01,2022-11-22_14h43.08.141,t1_Paradigm,2021.1.4,59.922242344305694,
V,right,Target,0,29,29,29,2117.433795041754,2119.436038407657,right,1,4,0.6666181186883477,L20I01,2022-11-22_14h43.08.141,t1_Paradigm,2021.1.4,59.922242344305694,
C,left,Distractor,0,30,30,30,2120.9338083550247,2122.9341297982755,left,1,4,0.7206664590048604,L20I01,2022-11-22_14h43.08.141,t1_Paradigm,2021.1.4,59.922242344305694,
S,left,Pretarget,0,31,31,31,2124.4337482047267,2126.4358141673147,left,1,4,0.8510097713005962,L20I01,2022-11-22_14h43.08.141,t1_Paradigm,2021.1.4,59.922242344305694,
D,left,Distractor,0,32,32,32,2127.9338462096202,2129.934380985971,left,1,4,0.7126085632917238,L20I01,2022-11-22_14h43.08.141,t1_Paradigm,2021.1.4,59.922242344305694,
V,left,Distractor,0,33,33,33,2131.4336227712774,2133.435866778789,left,1,4,0.6510492940578843,L20I01,2022-11-22_14h43.08.141,t1_Paradigm,2021.1.4,59.922242344305694,
R,left,Distractor,0,34,34,34,2134.9335292575997,2136.9357646034623,left,1,4,0.6229890949907713,L20I01,2022-11-22_14h43.08.141,t1_Paradigm,2021.1.4,59.922242344305694,
S,right,Target,0,35,35,35,2138.433757828767,2140.4342881138873,left,0,4,0.7404535044479417,L20I01,2022-11-22_14h43.08.141,t1_Paradigm,2021.1.4,59.922242344305694,
Y,left,Distractor,0,36,36,36,2141.933924806028,2143.934654308963,left,1,4,0.5199934813135769,L20I01,2022-11-22_14h43.08.141,t1_Paradigm,2021.1.4,59.922242344305694,
N,left,Pretarget,0,37,37,37,2145.4335672725865,2147.433194501078,left,1,4,0.5254737358191051,L20I01,2022-11-22_14h43.08.141,t1_Paradigm,2021.1.4,59.922242344305694,
Z,left,Pretarget,0,38,38,38,2148.933834981566,2150.9354020976025,left,1,4,0.5755268124339636,L20I01,2022-11-22_14h43.08.141,t1_Paradigm,2021.1.4,59.922242344305694,
P,left,Pretarget,0,39,39,39,2152.433861447702,2154.4348969954153,left,1,4,0.6918716241634684,L20I01,2022-11-22_14h43.08.141,t1_Paradigm,2021.1.4,59.922242344305694,
M,left,Distractor,0,40,40,40,2155.933997307191,2157.9339122947567,left,1,4,0.6648636544850888,L20I01,2022-11-22_14h43.08.141,t1_Paradigm,2021.1.4,59.922242344305694,
N,right,Target,0,41,41,41,2159.433904755919,2161.4351478622993,left,0,4,0.5874131549790036,L20I01,2022-11-22_14h43.08.141,t1_Paradigm,2021.1.4,59.922242344305694,
Z,right,Target,0,42,42,42,2162.9335831522767,2164.9353267092083,left,0,4,0.7032886339002289,L20I01,2022-11-22_14h43.08.141,t1_Paradigm,2021.1.4,59.922242344305694,
P,right,Target,0,43,43,43,2166.433837066783,2168.4506579802255,right,1,4,0.9961083552479977,L20I01,2022-11-22_14h43.08.141,t1_Paradigm,2021.1.4,59.922242344305694,
X,left,Pretarget,0,44,44,44,2169.933707302509,2171.935856994329,left,1,4,0.7748334959323984,L20I01,2022-11-22_14h43.08.141,t1_Paradigm,2021.1.4,59.922242344305694,
Z,left,Lure,0,45,45,45,2173.433714199753,2175.4348584992113,left,1,4,0.6198478052829159,L20I01,2022-11-22_14h43.08.141,t1_Paradigm,2021.1.4,59.922242344305694,
R,left,Pretarget,0,46,46,46,2176.933784615714,2178.9467401901347,left,1,4,0.5959872205421561,L20I01,2022-11-22_14h43.08.141,t1_Paradigm,2021.1.4,59.922242344305694,
K,left,Distractor,0,47,47,47,2180.4335130571126,2182.4357666886644,left,1,4,0.5630056034424342,L20I01,2022-11-22_14h43.08.141,t1_Paradigm,2021.1.4,59.922242344305694,
X,right,Target,0,48,48,48,2183.933957848596,2185.935433536157,left,0,4,0.7431501630780986,L20I01,2022-11-22_14h43.08.141,t1_Paradigm,2021.1.4,59.922242344305694,
B,left,Distractor,0,49,49,49,2187.433798249782,2189.43596430248,left,1,4,0.44318554751225747,L20I01,2022-11-22_14h43.08.141,t1_Paradigm,2021.1.4,59.922242344305694,
R,right,Target,0,50,50,50,2190.9337454779015,2192.9358534655184,left,0,4,0.6068469978199573,L20I01,2022-11-22_14h43.08.141,t1_Paradigm,2021.1.4,59.922242344305694,
Y,left,Pretarget,0,51,51,51,2194.4334607664496,2196.434212404696,left,1,4,0.596640693504014,L20I01,2022-11-22_14h43.08.141,t1_Paradigm,2021.1.4,59.922242344305694,
W,left,Pretarget,0,52,52,52,2197.933755101956,2199.9340925852885,left,1,4,0.5843527072865982,L20I01,2022-11-22_14h43.08.141,t1_Paradigm,2021.1.4,59.922242344305694,
Z,left,Distractor,0,53,53,53,2201.4335284556,2203.435423430914,left,1,4,0.5392018005950376,L20I01,2022-11-22_14h43.08.141,t1_Paradigm,2021.1.4,59.922242344305694,
Q,left,Distractor,0,54,54,54,2204.9336877336173,2206.935555119984,left,1,4,0.6391385705937864,L20I01,2022-11-22_14h43.08.141,t1_Paradigm,2021.1.4,59.922242344305694,
Y,right,Target,0,55,55,55,2208.433833537958,2210.435356704169,left,0,4,0.9317456004500855,L20I01,2022-11-22_14h43.08.141,t1_Paradigm,2021.1.4,59.922242344305694,
W,right,Target,0,56,56,56,2211.933802580592,2213.9360693650233,right,1,4,0.9984280719363596,L20I01,2022-11-22_14h43.08.141,t1_Paradigm,2021.1.4,59.922242344305694,
H,left,Pretarget,0,57,57,57,2215.433773868848,2217.4356675609597,right,0,4,1.4350192208221415,L20I01,2022-11-22_14h43.08.141,t1_Paradigm,2021.1.4,59.922242344305694,
M,left,Distractor,0,58,58,58,2218.9337297586317,2220.9353263884113,left,1,4,0.991286064920132,L20I01,2022-11-22_14h43.08.141,t1_Paradigm,2021.1.4,59.922242344305694,
R,left,Pretarget,0,59,59,59,2222.4336580594536,2224.435938317547,left,1,4,0.594769778297632,L20I01,2022-11-22_14h43.08.141,t1_Paradigm,2021.1.4,59.922242344305694,
J,left,Distractor,0,60,60,60,2225.933672655927,2227.935131982609,left,1,4,0.45552967399999034,L20I01,2022-11-22_14h43.08.141,t1_Paradigm,2021.1.4,59.922242344305694,
H,right,Target,0,61,61,61,2229.4336744203465,2231.4354468494275,right,1,4,0.8430878954823129,L20I01,2022-11-22_14h43.08.141,t1_Paradigm,2021.1.4,59.922242344305694,
Z,left,Distractor,0,62,62,62,2232.933718530563,2234.93563949081,left,1,4,0.5910295519279316,L20I01,2022-11-22_14h43.08.141,t1_Paradigm,2021.1.4,59.922242344305694,
R,right,Target,0,63,63,63,2236.4336686459137,2238.4355418067134,right,1,4,0.8829770135926083,L20I01,2022-11-22_14h43.08.141,t1_Paradigm,2021.1.4,59.922242344305694,
J,left,Pretarget,0,0,0,0,2248.1289558451826,2250.119312868541,left,1,4,0.8310032975132344,L20I01,2022-11-22_14h43.08.141,t1_Paradigm,2021.1.4,59.922242344305694,
G,left,Pretarget,0,1,1,1,2251.6167555982393,2253.618933841397,left,1,4,0.3395746362657519,L20I01,2022-11-22_14h43.08.141,t1_Paradigm,2021.1.4,59.922242344305694,
Z,left,Distractor,0,2,2,2,2255.1170136831643,2257.1188967888156,left,1,4,0.35959875413391273,L20I01,2022-11-22_14h43.08.141,t1_Paradigm,2021.1.4,59.922242344305694,
F,left,Distractor,0,3,3,3,2258.6170654926245,2260.6190028137644,left,1,4,0.37968125789484475,L20I01,2022-11-22_14h43.08.141,t1_Paradigm,2021.1.4,59.922242344305694,
J,right,Target,0,4,4,4,2262.1169998886908,2264.1184736514406,right,1,4,0.5761501300439704,L20I01,2022-11-22_14h43.08.141,t1_Paradigm,2021.1.4,59.922242344305694,
G,right,Target,0,5,5,5,2265.616799227253,2267.6174777227425,right,1,4,0.7571271699416684,L20I01,2022-11-22_14h43.08.141,t1_Paradigm,2021.1.4,59.922242344305694,
H,left,Distractor,0,6,6,6,2269.1171378333966,2271.118815626003,left,1,4,0.7439303526916774,L20I01,2022-11-22_14h43.08.141,t1_Paradigm,2021.1.4,59.922242344305694,
P,left,Distractor,0,7,7,7,2272.616995237069,2274.6175081988913,left,1,4,1.1330380461149616,L20I01,2022-11-22_14h43.08.141,t1_Paradigm,2021.1.4,59.922242344305694,
G,left,Lure,0,8,8,8,2276.116769553104,2278.1184537617373,left,1,4,0.8478995993500575,L20I01,2022-11-22_14h43.08.141,t1_Paradigm,2021.1.4,59.922242344305694,
S,left,Distractor,0,9,9,9,2279.617027958826,2281.6174093919835,left,1,4,0.6450374712439952,L20I01,2022-11-22_14h43.08.141,t1_Paradigm,2021.1.4,59.922242344305694,
R,left,Pretarget,0,10,10,10,2283.117016249569,2285.118132318501,left,1,4,0.6324020568426931,L20I01,2022-11-22_14h43.08.141,t1_Paradigm,2021.1.4,59.922242344305694,
T,left,Pretarget,0,11,11,11,2286.6169224150945,2288.6185925084574,left,1,4,0.5559871050645597,L20I01,2022-11-22_14h43.08.141,t1_Paradigm,2021.1.4,59.922242344305694,
X,left,Distractor,0,12,12,12,2290.1167146960215,2292.1188137011923,left,1,4,0.5918078167160274,L20I01,2022-11-22_14h43.08.141,t1_Paradigm,2021.1.4,59.922242344305694,
F,left,Pretarget,0,13,13,13,2293.6168402898766,2295.618948277479,left,1,4,0.451532164690434,L20I01,2022-11-22_14h43.08.141,t1_Paradigm,2021.1.4,59.922242344305694,
R,right,Target,0,14,14,14,2297.116909743432,2299.1170768810844,left,0,4,0.5373581535532139,L20I01,2022-11-22_14h43.08.141,t1_Paradigm,2021.1.4,59.922242344305694,
T,right,Target,0,15,15,15,2300.61702956284,2302.618710242663,right,1,4,0.5078639711282449,L20I01,2022-11-22_14h43.08.141,t1_Paradigm,2021.1.4,59.922242344305694,
C,left,Distractor,0,16,16,16,2304.1169646005,2306.116094907251,left,1,4,0.6584569248370826,L20I01,2022-11-22_14h43.08.141,t1_Paradigm,2021.1.4,59.922242344305694,
F,right,Target,0,17,17,17,2307.6167607310636,2309.617467777891,left,0,4,0.773097638215404,L20I01,2022-11-22_14h43.08.141,t1_Paradigm,2021.1.4,59.922242344305694,
M,left,Distractor,0,18,18,18,2311.1169601092843,2313.1175853516906,left,1,4,0.6970156785391737,L20I01,2022-11-22_14h43.08.141,t1_Paradigm,2021.1.4,59.922242344305694,
N,left,Distractor,0,19,19,19,2314.617031487651,2316.619028477886,left,1,4,0.923548476814176,L20I01,2022-11-22_14h43.08.141,t1_Paradigm,2021.1.4,59.922242344305694,
R,left,Lure,0,20,20,20,2318.116646686074,2320.1188104931643,left,1,4,0.7034695660258876,L20I01,2022-11-22_14h43.08.141,t1_Paradigm,2021.1.4,59.922242344305694,
F,right,Target,0,21,21,21,2321.6167953776458,2323.61757203842,right,1,4,0.5970153898233548,L20I01,2022-11-22_14h43.08.141,t1_Paradigm,2021.1.4,59.922242344305694,
P,left,Distractor,0,22,22,22,2325.117006946326,2327.1179401583067,left,1,4,0.5844252084643813,L20I01,2022-11-22_14h43.08.141,t1_Paradigm,2021.1.4,59.922242344305694,
L,left,Pretarget,0,23,23,23,2328.6167241596704,2330.617303848252,left,1,4,1.0211440364073496,L20I01,2022-11-22_14h43.08.141,t1_Paradigm,2021.1.4,59.922242344305694,
T,left,Distractor,0,24,24,24,2332.1171096028556,2334.118558663875,left,1,4,0.7996616184245795,L20I01,2022-11-22_14h43.08.141,t1_Paradigm,2021.1.4,59.922242344305694,
F,left,Distractor,0,25,25,25,2335.617038224489,2337.618665651229,right,0,4,1.1877382553793723,L20I01,2022-11-22_14h43.08.141,t1_Paradigm,2021.1.4,59.922242344305694,
V,left,Distractor,0,26,26,26,2339.116989623042,2341.1190719465085,left,1,4,0.9033254619425861,L20I01,2022-11-22_14h43.08.141,t1_Paradigm,2021.1.4,59.922242344305694,
L,right,Target,0,27,27,27,2342.6169833674066,2344.618257270733,left,0,4,0.6521496437053429,L20I01,2022-11-22_14h43.08.141,t1_Paradigm,2021.1.4,59.922242344305694,
S,left,Pretarget,0,28,28,28,2346.1169585052703,2348.1176472664083,left,1,4,0.6408776363095967,L20I01,2022-11-22_14h43.08.141,t1_Paradigm,2021.1.4,59.922242344305694,
W,left,Distractor,0,29,29,29,2349.616932359946,2351.6187468140415,left,1,4,0.6596275300544221,L20I01,2022-11-22_14h43.08.141,t1_Paradigm,2021.1.4,59.922242344305694,
Q,left,Distractor,0,30,30,30,2353.116704430373,2355.118837440503,left,1,4,1.0314430524158524,L20I01,2022-11-22_14h43.08.141,t1_Paradigm,2021.1.4,59.922242344305694,
L,right,Target,0,31,31,31,2356.616891297337,2358.618471245427,left,0,4,0.6358994363836246,L20I01,2022-11-22_14h43.08.141,t1_Paradigm,2021.1.4,59.922242344305694,
S,right,Target,0,32,32,32,2360.1166348164115,2362.118776809002,left,0,4,0.7354823621571995,L20I01,2022-11-22_14h43.08.141,t1_Paradigm,2021.1.4,59.922242344305694,
Z,left,Pretarget,0,33,33,33,2363.616664811372,2365.6173901438888,left,1,4,0.6609909370308742,L20I01,2022-11-22_14h43.08.141,t1_Paradigm,2021.1.4,59.922242344305694,
F,left,Distractor,0,34,34,34,2367.116795538037,2369.118731255163,left,1,4,0.5357538245152682,L20I01,2022-11-22_14h43.08.141,t1_Paradigm,2021.1.4,59.922242344305694,
V,left,Distractor,0,35,35,35,2370.616790244807,2372.61734298605,left,1,4,0.5571374997525709,L20I01,2022-11-22_14h43.08.141,t1_Paradigm,2021.1.4,59.922242344305694,
M,left,Distractor,0,36,36,36,2374.116626154777,2376.116989943839,left,1,4,0.4656115072866669,L20I01,2022-11-22_14h43.08.141,t1_Paradigm,2021.1.4,59.922242344305694,
Z,right,Target,0,37,37,37,2377.616906375013,2379.619209730823,left,0,4,0.6113138399232412,L20I01,2022-11-22_14h43.08.141,t1_Paradigm,2021.1.4,59.922242344305694,
H,left,Pretarget,0,38,38,38,2381.116787838808,2383.1178140832635,left,1,4,0.5045385412668111,L20I01,2022-11-22_14h43.08.141,t1_Paradigm,2021.1.4,59.922242344305694,
L,left,Distractor,0,39,39,39,2384.616854725944,2386.6190900718066,left,1,4,0.6032947612111457,L20I01,2022-11-22_14h43.08.141,t1_Paradigm,2021.1.4,59.922242344305694,
G,left,Distractor,0,40,40,40,2388.116843337484,2390.1182436366653,left,1,4,0.3360868807794759,L20I01,2022-11-22_14h43.08.141,t1_Paradigm,2021.1.4,59.922242344305694,
K,left,Distractor,0,41,41,41,2391.616715498036,2393.6190964878333,left,1,4,0.45161685632774606,L20I01,2022-11-22_14h43.08.141,t1_Paradigm,2021.1.4,59.922242344305694,
H,right,Target,0,42,42,42,2395.1165565408155,2397.1173017630354,left,0,4,0.857056561493664,L20I01,2022-11-22_14h43.08.141,t1_Paradigm,2021.1.4,59.922242344305694,
B,left,Distractor,0,43,43,43,2398.616605783871,2400.618786593448,left,1,4,0.49160510215733666,L20I01,2022-11-22_14h43.08.141,t1_Paradigm,2021.1.4,59.922242344305694,
Z,left,Distractor,0,44,44,44,2402.1167647410766,2404.1188339116925,left,1,4,0.5436574146297062,L20I01,2022-11-22_14h43.08.141,t1_Paradigm,2021.1.4,59.922242344305694,
T,left,Pretarget,0,45,45,45,2405.616905091796,2407.6190846181707,left,1,4,0.7233637592289597,L20I01,2022-11-22_14h43.08.141,t1_Paradigm,2021.1.4,59.922242344305694,
H,right,Target,0,46,46,46,2409.115877724529,2411.1178766395897,left,0,4,0.48851546151854564,L20I01,2022-11-22_14h43.08.141,t1_Paradigm,2021.1.4,59.922242344305694,
F,left,Distractor,0,47,47,47,2412.616761693469,2414.617517822946,left,1,4,0.5729090710228775,L20I01,2022-11-22_14h43.08.141,t1_Paradigm,2021.1.4,59.922242344305694,
R,left,Distractor,0,48,48,48,2416.1168218437815,2418.117952669578,left,1,4,0.6727675654110499,L20I01,2022-11-22_14h43.08.141,t1_Paradigm,2021.1.4,59.922242344305694,
T,right,Target,0,49,49,49,2419.616634014412,2421.6186874657433,left,0,4,0.6118418794358149,L20I01,2022-11-22_14h43.08.141,t1_Paradigm,2021.1.4,59.922242344305694,
H,right,Target,0,50,50,50,2423.116800991673,2425.1175003392564,right,1,4,0.5208208287513116,L20I01,2022-11-22_14h43.08.141,t1_Paradigm,2021.1.4,59.922242344305694,
Y,left,Pretarget,0,51,51,51,2426.6167392373463,2428.61760893061,left,1,4,0.6527495427726535,L20I01,2022-11-22_14h43.08.141,t1_Paradigm,2021.1.4,59.922242344305694,
H,left,Distractor,0,52,52,52,2430.1167942548345,2432.118775525785,left,1,4,0.8475274694501422,L20I01,2022-11-22_14h43.08.141,t1_Paradigm,2021.1.4,59.922242344305694,
S,left,Distractor,0,53,53,53,2433.616745332576,2435.6182377018413,left,1,4,0.5485441860946594,L20I01,2022-11-22_14h43.08.141,t1_Paradigm,2021.1.4,59.922242344305694,
Q,left,Distractor,0,54,54,54,2437.1166944855213,2439.117582785271,left,1,4,0.5207566684257472,L20I01,2022-11-22_14h43.08.141,t1_Paradigm,2021.1.4,59.922242344305694,
Y,right,Target,0,55,55,55,2440.616535528301,2442.6184609797783,left,0,4,0.5719197187427199,L20I01,2022-11-22_14h43.08.141,t1_Paradigm,2021.1.4,59.922242344305694,
R,left,Distractor,0,56,56,56,2444.1165100245707,2446.1178086296277,left,1,4,0.6085793267120607,L20I01,2022-11-22_14h43.08.141,t1_Paradigm,2021.1.4,59.922242344305694,
H,left,Pretarget,0,57,57,57,2447.6165438691532,2449.6173160387116,right,0,4,0.8849679086124524,L20I01,2022-11-22_14h43.08.141,t1_Paradigm,2021.1.4,59.922242344305694,
J,left,Distractor,0,58,58,58,2451.116711808805,2453.118526583712,left,1,4,0.5517095359246014,L20I01,2022-11-22_14h43.08.141,t1_Paradigm,2021.1.4,59.922242344305694,
V,left,Distractor,0,59,59,59,2454.6165454731527,2456.6172586152097,left,1,4,0.6849753512069583,L20I01,2022-11-22_14h43.08.141,t1_Paradigm,2021.1.4,59.922242344305694,
Y,left,Lure,0,60,60,60,2458.1168426958757,2460.118558663875,left,1,4,0.8156821317679714,L20I01,2022-11-22_14h43.08.141,t1_Paradigm,2021.1.4,59.922242344305694,
H,right,Target,0,61,61,61,2461.6165640796535,2463.618259195544,left,0,4,0.8040190671745222,L20I01,2022-11-22_14h43.08.141,t1_Paradigm,2021.1.4,59.922242344305694,
L,left,Distractor,0,62,62,62,2465.1168420542817,2467.1166643301694,left,1,4,0.6498161325434921,L20I01,2022-11-22_14h43.08.141,t1_Paradigm,2021.1.4,59.922242344305694,
P,left,Distractor,0,63,63,63,2468.616486766463,2470.617954433983,left,1,4,0.5883251940540504,L20I01,2022-11-22_14h43.08.141,t1_Paradigm,2021.1.4,59.922242344305694,
