Currentstep,EDround.thisRepN,EDround.thisTrialN,EDround.thisN,EDround.thisIndex,question.started,EDclick.clicked_name,EDleftbutton.wasclicked,EDrightbutton.wasclicked,EDleftbutton.value,EDrightbutton.value,EDleftbutton.nback,EDrightbutton.nback,Participant,date,expName,psychopyVersion,frameRate,
,,,,,,,,,,,,,L24I04,2022-12-01_15h45.33.235,t1_Paradigm,2021.1.4,59.942080596870014,
0,0,0,0,0,2999.6563830326486,EDleftbutton,1,0,1.00,2.00,2,4,L24I04,2022-12-01_15h45.33.235,t1_Paradigm,2021.1.4,59.942080596870014,
1,0,1,1,1,3009.378590497974,EDrightbutton,0,1,0.50,2.00,2,4,L24I04,2022-12-01_15h45.33.235,t1_Paradigm,2021.1.4,59.942080596870014,
2,0,2,2,2,3018.598068578518,EDleftbutton,1,0,0.75,2.00,2,4,L24I04,2022-12-01_15h45.33.235,t1_Paradigm,2021.1.4,59.942080596870014,
3,0,3,3,3,3024.7934396599885,EDrightbutton,0,1,0.62,2.00,2,4,L24I04,2022-12-01_15h45.33.235,t1_Paradigm,2021.1.4,59.942080596870014,
4,0,4,4,4,3027.45314203258,EDrightbutton,0,1,0.68,2.00,2,4,L24I04,2022-12-01_15h45.33.235,t1_Paradigm,2021.1.4,59.942080596870014,
5,0,5,5,5,3029.7839673346316,EDleftbutton,1,0,0.71,2.00,2,4,L24I04,2022-12-01_15h45.33.235,t1_Paradigm,2021.1.4,59.942080596870014,
0,0,0,0,0,3032.3913058123435,EDleftbutton,1,0,1.00,2.00,1,4,L24I04,2022-12-01_15h45.33.235,t1_Paradigm,2021.1.4,59.942080596870014,
1,0,1,1,1,3035.884946551145,EDleftbutton,1,0,0.50,2.00,1,4,L24I04,2022-12-01_15h45.33.235,t1_Paradigm,2021.1.4,59.942080596870014,
2,0,2,2,2,3038.8179223183834,EDrightbutton,0,1,0.25,2.00,1,4,L24I04,2022-12-01_15h45.33.235,t1_Paradigm,2021.1.4,59.942080596870014,
3,0,3,3,3,3042.0940251880966,EDrightbutton,0,1,0.38,2.00,1,4,L24I04,2022-12-01_15h45.33.235,t1_Paradigm,2021.1.4,59.942080596870014,
4,0,4,4,4,3045.8592201427673,EDrightbutton,0,1,0.44,2.00,1,4,L24I04,2022-12-01_15h45.33.235,t1_Paradigm,2021.1.4,59.942080596870014,
5,0,5,5,5,3048.5400280894246,EDleftbutton,1,0,0.47,2.00,1,4,L24I04,2022-12-01_15h45.33.235,t1_Paradigm,2021.1.4,59.942080596870014,
0,0,0,0,0,3051.1020962496113,EDleftbutton,1,0,1.00,2.00,2,3,L24I04,2022-12-01_15h45.33.235,t1_Paradigm,2021.1.4,59.942080596870014,
1,0,1,1,1,3056.0703788609244,EDrightbutton,0,1,0.50,2.00,2,3,L24I04,2022-12-01_15h45.33.235,t1_Paradigm,2021.1.4,59.942080596870014,
2,0,2,2,2,3058.1988601257617,EDleftbutton,1,0,0.75,2.00,2,3,L24I04,2022-12-01_15h45.33.235,t1_Paradigm,2021.1.4,59.942080596870014,
3,0,3,3,3,3060.5239905478666,EDrightbutton,0,1,0.62,2.00,2,3,L24I04,2022-12-01_15h45.33.235,t1_Paradigm,2021.1.4,59.942080596870014,
4,0,4,4,4,3063.083668731968,EDrightbutton,0,1,0.68,2.00,2,3,L24I04,2022-12-01_15h45.33.235,t1_Paradigm,2021.1.4,59.942080596870014,
5,0,5,5,5,3065.7522727228934,EDleftbutton,1,0,0.71,2.00,2,3,L24I04,2022-12-01_15h45.33.235,t1_Paradigm,2021.1.4,59.942080596870014,
0,0,0,0,0,3066.6184606885654,EDleftbutton,1,0,1.00,2.00,1,3,L24I04,2022-12-01_15h45.33.235,t1_Paradigm,2021.1.4,59.942080596870014,
1,0,1,1,1,3069.1453561000235,EDleftbutton,1,0,0.50,2.00,1,3,L24I04,2022-12-01_15h45.33.235,t1_Paradigm,2021.1.4,59.942080596870014,
2,0,2,2,2,3075.702674142638,EDleftbutton,1,0,0.25,2.00,1,3,L24I04,2022-12-01_15h45.33.235,t1_Paradigm,2021.1.4,59.942080596870014,
3,0,3,3,3,3080.0213150578784,EDrightbutton,0,1,0.12,2.00,1,3,L24I04,2022-12-01_15h45.33.235,t1_Paradigm,2021.1.4,59.942080596870014,
4,0,4,4,4,3081.804592667875,EDrightbutton,0,1,0.18,2.00,1,3,L24I04,2022-12-01_15h45.33.235,t1_Paradigm,2021.1.4,59.942080596870014,
5,0,5,5,5,3083.785350312741,EDleftbutton,1,0,0.21,2.00,1,3,L24I04,2022-12-01_15h45.33.235,t1_Paradigm,2021.1.4,59.942080596870014,
0,0,0,0,0,3084.6892290033284,EDleftbutton,1,0,1.00,2.00,3,4,L24I04,2022-12-01_15h45.33.235,t1_Paradigm,2021.1.4,59.942080596870014,
1,0,1,1,1,3091.4009805638634,EDleftbutton,1,0,0.50,2.00,3,4,L24I04,2022-12-01_15h45.33.235,t1_Paradigm,2021.1.4,59.942080596870014,
2,0,2,2,2,3092.8073769097973,EDrightbutton,0,1,0.25,2.00,3,4,L24I04,2022-12-01_15h45.33.235,t1_Paradigm,2021.1.4,59.942080596870014,
3,0,3,3,3,3094.5428723213845,EDrightbutton,0,1,0.38,2.00,3,4,L24I04,2022-12-01_15h45.33.235,t1_Paradigm,2021.1.4,59.942080596870014,
4,0,4,4,4,3095.784563064255,EDrightbutton,0,1,0.44,2.00,3,4,L24I04,2022-12-01_15h45.33.235,t1_Paradigm,2021.1.4,59.942080596870014,
5,0,5,5,5,3096.8030771984777,EDrightbutton,0,1,0.47,2.00,3,4,L24I04,2022-12-01_15h45.33.235,t1_Paradigm,2021.1.4,59.942080596870014,
0,0,0,0,0,3098.0723100899195,EDleftbutton,1,0,1.00,2.00,1,2,L24I04,2022-12-01_15h45.33.235,t1_Paradigm,2021.1.4,59.942080596870014,
1,0,1,1,1,3105.6020975328283,EDleftbutton,1,0,0.50,2.00,1,2,L24I04,2022-12-01_15h45.33.235,t1_Paradigm,2021.1.4,59.942080596870014,
2,0,2,2,2,3108.190996944031,EDrightbutton,0,1,0.25,2.00,1,2,L24I04,2022-12-01_15h45.33.235,t1_Paradigm,2021.1.4,59.942080596870014,
3,0,3,3,3,3109.1286962022714,EDrightbutton,0,1,0.38,2.00,1,2,L24I04,2022-12-01_15h45.33.235,t1_Paradigm,2021.1.4,59.942080596870014,
4,0,4,4,4,3111.2338830599037,EDleftbutton,1,0,0.44,2.00,1,2,L24I04,2022-12-01_15h45.33.235,t1_Paradigm,2021.1.4,59.942080596870014,
5,0,5,5,5,3112.870288138074,EDrightbutton,0,1,0.41,2.00,1,2,L24I04,2022-12-01_15h45.33.235,t1_Paradigm,2021.1.4,59.942080596870014,
