Letter,CorrAnswer,Stimulus,nback_run.thisRepN,nback_run.thisTrialN,nback_run.thisN,nback_run.thisIndex,fixcross.started,nback_trial.started,trial_resp.keys,trial_resp.corr,currentlevel,trial_resp.rt,Participant,date,expName,psychopyVersion,frameRate,
H,left,Distractor,0,0,0,0,571.680332197051,573.6288941371895,None,0,1,,L24I04,2022-12-01_15h45.33.235,t1_Paradigm,2021.1.4,59.942080596870014,
Q,left,Pretarget,0,1,1,1,575.127849605371,577.1312234816724,left,1,1,1.1045362708391622,L24I04,2022-12-01_15h45.33.235,t1_Paradigm,2021.1.4,59.942080596870014,
Q,right,Target,0,2,2,2,578.6276455752086,580.6277713296586,None,0,1,,L24I04,2022-12-01_15h45.33.235,t1_Paradigm,2021.1.4,59.942080596870014,
T,left,Distractor,0,3,3,3,582.1276972243504,584.1299040224112,left,1,1,0.9857624793658033,L24I04,2022-12-01_15h45.33.235,t1_Paradigm,2021.1.4,59.942080596870014,
Q,left,Lure,0,4,4,4,585.6277661968197,587.6291674606327,None,0,1,,L24I04,2022-12-01_15h45.33.235,t1_Paradigm,2021.1.4,59.942080596870014,
L,left,Distractor,0,5,5,5,589.1277392494376,591.1272788983188,None,0,1,,L24I04,2022-12-01_15h45.33.235,t1_Paradigm,2021.1.4,59.942080596870014,
V,left,Pretarget,0,6,6,6,592.6276908082946,594.63011093979,left,1,1,1.045710458100075,L24I04,2022-12-01_15h45.33.235,t1_Paradigm,2021.1.4,59.942080596870014,
V,right,Target,0,7,7,7,596.1276696353743,598.1273815550085,left,0,1,0.9882535081414972,L24I04,2022-12-01_15h45.33.235,t1_Paradigm,2021.1.4,59.942080596870014,
K,left,Distractor,0,8,8,8,599.627788652957,601.629409345478,left,1,1,0.8945439893577714,L24I04,2022-12-01_15h45.33.235,t1_Paradigm,2021.1.4,59.942080596870014,
G,left,Pretarget,0,9,9,9,603.1276988283498,605.1288408840483,left,1,1,1.2667938326485455,L24I04,2022-12-01_15h45.33.235,t1_Paradigm,2021.1.4,59.942080596870014,
G,right,Target,0,10,10,10,606.6276872794842,608.6273555700609,None,0,1,,L24I04,2022-12-01_15h45.33.235,t1_Paradigm,2021.1.4,59.942080596870014,
G,right,Target,0,11,11,11,610.1276003420935,612.1275567130069,right,1,1,0.8602210455283057,L24I04,2022-12-01_15h45.33.235,t1_Paradigm,2021.1.4,59.942080596870014,
P,left,Pretarget,0,12,12,12,613.6275971340656,615.6294106286659,left,1,1,1.278446650278056,L24I04,2022-12-01_15h45.33.235,t1_Paradigm,2021.1.4,59.942080596870014,
P,right,Target,0,13,13,13,617.1272551589645,619.1277658760082,right,1,1,1.011958221293753,L24I04,2022-12-01_15h45.33.235,t1_Paradigm,2021.1.4,59.942080596870014,
G,left,Lure,0,14,14,14,620.6272885224025,622.6283994602854,left,1,1,0.7592893077235203,L24I04,2022-12-01_15h45.33.235,t1_Paradigm,2021.1.4,59.942080596870014,
Y,left,Distractor,0,15,15,15,624.1274726628326,626.1294119118829,left,1,1,1.0984545035171323,L24I04,2022-12-01_15h45.33.235,t1_Paradigm,2021.1.4,59.942080596870014,
B,left,Distractor,0,16,16,16,627.6273632693046,629.6297599822283,left,1,1,0.7018689292308409,L24I04,2022-12-01_15h45.33.235,t1_Paradigm,2021.1.4,59.942080596870014,
T,left,Pretarget,0,17,17,17,631.1278034098505,633.1285258563294,left,1,1,0.6911701772187371,L24I04,2022-12-01_15h45.33.235,t1_Paradigm,2021.1.4,59.942080596870014,
T,right,Target,0,18,18,18,634.6275958508777,636.6278419061273,right,1,1,0.7117688838625327,L24I04,2022-12-01_15h45.33.235,t1_Paradigm,2021.1.4,59.942080596870014,
S,left,Distractor,0,19,19,19,638.1272054346337,640.1303922832885,left,1,1,0.8573460165644065,L24I04,2022-12-01_15h45.33.235,t1_Paradigm,2021.1.4,59.942080596870014,
T,left,Lure,0,20,20,20,641.6276718809677,643.6283590391977,left,1,1,1.1994962764438242,L24I04,2022-12-01_15h45.33.235,t1_Paradigm,2021.1.4,59.942080596870014,
J,left,Distractor,0,21,21,21,645.1273324723006,647.1291912000161,left,1,1,0.8183829903136939,L24I04,2022-12-01_15h45.33.235,t1_Paradigm,2021.1.4,59.942080596870014,
P,left,Distractor,0,22,22,22,648.6277280213544,650.6283221469494,left,1,1,1.2234027741651516,L24I04,2022-12-01_15h45.33.235,t1_Paradigm,2021.1.4,59.942080596870014,
F,left,Distractor,0,23,23,23,652.1275454849238,654.1277360414097,left,1,1,1.2279289718426298,L24I04,2022-12-01_15h45.33.235,t1_Paradigm,2021.1.4,59.942080596870014,
L,left,Distractor,0,24,24,24,655.6273199610005,657.6285431796277,None,0,1,,L24I04,2022-12-01_15h45.33.235,t1_Paradigm,2021.1.4,59.942080596870014,
W,left,Pretarget,0,25,25,25,659.1276542368578,661.1292797414062,left,1,1,0.9629171951673925,L24I04,2022-12-01_15h45.33.235,t1_Paradigm,2021.1.4,59.942080596870014,
W,right,Target,0,26,26,26,662.6277078108105,664.6277427782479,right,1,1,0.7760534661938436,L24I04,2022-12-01_15h45.33.235,t1_Paradigm,2021.1.4,59.942080596870014,
V,left,Distractor,0,27,27,27,666.1278457557491,668.1273119409452,left,1,1,1.2764993811724707,L24I04,2022-12-01_15h45.33.235,t1_Paradigm,2021.1.4,59.942080596870014,
W,left,Lure,0,28,28,28,669.6276789386175,671.626914146269,None,0,1,,L24I04,2022-12-01_15h45.33.235,t1_Paradigm,2021.1.4,59.942080596870014,
R,left,Pretarget,0,29,29,29,673.127617665421,675.1296781776764,None,0,1,,L24I04,2022-12-01_15h45.33.235,t1_Paradigm,2021.1.4,59.942080596870014,
R,right,Target,0,30,30,30,676.6277029987832,678.6276118909591,right,1,1,0.7920858748839237,L24I04,2022-12-01_15h45.33.235,t1_Paradigm,2021.1.4,59.942080596870014,
G,left,Distractor,0,31,31,31,680.1271791288455,682.1282310391543,left,1,1,0.7317417055019177,L24I04,2022-12-01_15h45.33.235,t1_Paradigm,2021.1.4,59.942080596870014,
R,left,Lure,0,32,32,32,683.6277219261101,685.6273161113786,left,1,1,1.0244326132524293,L24I04,2022-12-01_15h45.33.235,t1_Paradigm,2021.1.4,59.942080596870014,
S,left,Distractor,0,33,33,33,687.1277636303857,689.1297686438775,left,1,1,0.8819069507007953,L24I04,2022-12-01_15h45.33.235,t1_Paradigm,2021.1.4,59.942080596870014,
R,left,Lure,0,34,34,34,690.6276808634284,692.629973957286,left,1,1,0.8697430952161085,L24I04,2022-12-01_15h45.33.235,t1_Paradigm,2021.1.4,59.942080596870014,
P,left,Pretarget,0,35,35,35,694.1278694951034,696.1273135449737,left,1,1,0.9722441971825901,L24I04,2022-12-01_15h45.33.235,t1_Paradigm,2021.1.4,59.942080596870014,
P,right,Target,0,36,36,36,697.627754647925,699.6277209637046,right,1,1,0.9920559761230834,L24I04,2022-12-01_15h45.33.235,t1_Paradigm,2021.1.4,59.942080596870014,
Y,left,Pretarget,0,37,37,37,701.127928201895,703.1278277908277,left,1,1,0.5162678775086533,L24I04,2022-12-01_15h45.33.235,t1_Paradigm,2021.1.4,59.942080596870014,
Y,right,Target,0,38,38,38,704.6277068484051,706.6278322820435,right,1,1,0.9197968937223777,L24I04,2022-12-01_15h45.33.235,t1_Paradigm,2021.1.4,59.942080596870014,
J,left,Distractor,0,39,39,39,708.1274033695809,710.1280215553415,left,1,1,0.9237456475093495,L24I04,2022-12-01_15h45.33.235,t1_Paradigm,2021.1.4,59.942080596870014,
Y,left,Lure,0,40,40,40,711.6278117507172,713.6300201527774,right,0,1,1.4377204311895184,L24I04,2022-12-01_15h45.33.235,t1_Paradigm,2021.1.4,59.942080596870014,
T,left,Distractor,0,41,41,41,715.1278082219069,717.1273112993513,None,0,1,,L24I04,2022-12-01_15h45.33.235,t1_Paradigm,2021.1.4,59.942080596870014,
V,left,Distractor,0,42,42,42,718.6277414950309,720.6296948593808,left,1,1,1.4461918537854217,L24I04,2022-12-01_15h45.33.235,t1_Paradigm,2021.1.4,59.942080596870014,
N,left,Pretarget,0,43,43,43,722.1278085426893,724.1294311600213,left,1,1,1.3222810573352035,L24I04,2022-12-01_15h45.33.235,t1_Paradigm,2021.1.4,59.942080596870014,
N,right,Target,0,44,44,44,725.6273154697847,727.6279009337304,right,1,1,0.5919236131594516,L24I04,2022-12-01_15h45.33.235,t1_Paradigm,2021.1.4,59.942080596870014,
N,right,Target,0,45,45,45,729.1278557006153,731.1273010336736,right,1,1,0.6124042646260932,L24I04,2022-12-01_15h45.33.235,t1_Paradigm,2021.1.4,59.942080596870014,
X,left,Distractor,0,46,46,46,732.6277488734922,734.6294378968596,left,1,1,0.6464680003118701,L24I04,2022-12-01_15h45.33.235,t1_Paradigm,2021.1.4,59.942080596870014,
Z,left,Distractor,0,47,47,47,736.1276337055315,738.129706087464,left,1,1,0.6500061273400206,L24I04,2022-12-01_15h45.33.235,t1_Paradigm,2021.1.4,59.942080596870014,
H,left,Pretarget,0,48,48,48,739.6277594599524,741.6286256258027,left,1,1,1.0391407506831456,L24I04,2022-12-01_15h45.33.235,t1_Paradigm,2021.1.4,59.942080596870014,
H,right,Target,0,49,49,49,743.1277925025788,745.1279599613044,right,1,1,0.899891119741369,L24I04,2022-12-01_15h45.33.235,t1_Paradigm,2021.1.4,59.942080596870014,
K,left,Distractor,0,50,50,50,746.6277309085708,748.6284671495378,left,1,1,0.8712136523099616,L24I04,2022-12-01_15h45.33.235,t1_Paradigm,2021.1.4,59.942080596870014,
V,left,Pretarget,0,51,51,51,750.1274550187227,752.1276401215582,left,1,1,1.0680706893908791,L24I04,2022-12-01_15h45.33.235,t1_Paradigm,2021.1.4,59.942080596870014,
V,right,Target,0,52,52,52,753.6277453446819,755.6276638609124,right,1,1,0.7360353216063231,L24I04,2022-12-01_15h45.33.235,t1_Paradigm,2021.1.4,59.942080596870014,
R,left,Distractor,0,53,53,53,757.127772933658,759.129286799056,left,1,1,0.8024096091685351,L24I04,2022-12-01_15h45.33.235,t1_Paradigm,2021.1.4,59.942080596870014,
V,left,Lure,0,54,54,54,760.62689842697,762.6289878114476,None,0,1,,L24I04,2022-12-01_15h45.33.235,t1_Paradigm,2021.1.4,59.942080596870014,
Y,left,Distractor,0,55,55,55,764.1277347581927,766.1278422269097,left,1,1,0.7641270042804535,L24I04,2022-12-01_15h45.33.235,t1_Paradigm,2021.1.4,59.942080596870014,
Q,left,Distractor,0,56,56,56,767.6277325125702,769.6285720518499,left,1,1,0.9272770376992412,L24I04,2022-12-01_15h45.33.235,t1_Paradigm,2021.1.4,59.942080596870014,
Z,left,Pretarget,0,57,57,57,771.1277719712525,773.1284466181824,left,1,1,1.0913933271949645,L24I04,2022-12-01_15h45.33.235,t1_Paradigm,2021.1.4,59.942080596870014,
Z,right,Target,0,58,58,58,774.6278220163949,776.6278752695362,right,1,1,0.9517558464431204,L24I04,2022-12-01_15h45.33.235,t1_Paradigm,2021.1.4,59.942080596870014,
B,left,Distractor,0,59,59,59,778.1274081816082,780.1288960620295,left,1,1,0.7949907384463586,L24I04,2022-12-01_15h45.33.235,t1_Paradigm,2021.1.4,59.942080596870014,
S,left,Pretarget,0,60,60,60,781.6278457557491,783.6287340569252,left,1,1,0.8631592724996153,L24I04,2022-12-01_15h45.33.235,t1_Paradigm,2021.1.4,59.942080596870014,
S,right,Target,0,61,61,61,785.1274640011834,787.1278470389661,right,1,1,0.8838651270780247,L24I04,2022-12-01_15h45.33.235,t1_Paradigm,2021.1.4,59.942080596870014,
T,left,Distractor,0,62,62,62,788.6274694548047,790.6284822272428,None,0,1,,L24I04,2022-12-01_15h45.33.235,t1_Paradigm,2021.1.4,59.942080596870014,
D,left,Distractor,0,63,63,63,792.1277825577126,794.1287844228791,None,0,1,,L24I04,2022-12-01_15h45.33.235,t1_Paradigm,2021.1.4,59.942080596870014,
R,left,Distractor,0,0,0,0,811.2732772442687,813.2795069013955,None,0,1,,L24I04,2022-12-01_15h45.33.235,t1_Paradigm,2021.1.4,59.942080596870014,
V,left,Distractor,0,1,1,1,814.7777668705094,816.7794530066312,None,0,1,,L24I04,2022-12-01_15h45.33.235,t1_Paradigm,2021.1.4,59.942080596870014,
N,left,Pretarget,0,2,2,2,818.2778470710327,820.2772494165984,left,1,1,0.9344921990705188,L24I04,2022-12-01_15h45.33.235,t1_Paradigm,2021.1.4,59.942080596870014,
N,right,Target,0,3,3,3,821.7778486750321,823.7778188404336,None,0,1,,L24I04,2022-12-01_15h45.33.235,t1_Paradigm,2021.1.4,59.942080596870014,
S,left,Distractor,0,4,4,4,825.2778207652445,827.2795017685858,left,1,1,1.3723650112806354,L24I04,2022-12-01_15h45.33.235,t1_Paradigm,2021.1.4,59.942080596870014,
N,left,Lure,0,5,5,5,828.777526910475,830.7782294672215,right,0,1,1.3137021659931634,L24I04,2022-12-01_15h45.33.235,t1_Paradigm,2021.1.4,59.942080596870014,
Z,left,Distractor,0,6,6,6,832.2778595823329,834.2799566660251,left,1,1,0.9160736638878006,L24I04,2022-12-01_15h45.33.235,t1_Paradigm,2021.1.4,59.942080596870014,
L,left,Pretarget,0,7,7,7,835.7778813968762,837.7789814274583,left,1,1,1.128938087116694,L24I04,2022-12-01_15h45.33.235,t1_Paradigm,2021.1.4,59.942080596870014,
L,right,Target,0,8,8,8,839.2777675121033,841.2780543092231,None,0,1,,L24I04,2022-12-01_15h45.33.235,t1_Paradigm,2021.1.4,59.942080596870014,
H,left,Distractor,0,9,9,9,842.7778509206546,844.7799682149198,left,1,1,1.3279509147105273,L24I04,2022-12-01_15h45.33.235,t1_Paradigm,2021.1.4,59.942080596870014,
L,left,Lure,0,10,10,10,846.27782365249,848.2793769765412,right,0,1,0.5002819850924425,L24I04,2022-12-01_15h45.33.235,t1_Paradigm,2021.1.4,59.942080596870014,
X,left,Pretarget,0,11,11,11,849.7776796123071,851.7792345403868,left,1,1,0.6966915031662211,L24I04,2022-12-01_15h45.33.235,t1_Paradigm,2021.1.4,59.942080596870014,
X,right,Target,0,12,12,12,853.2774909806321,855.2773851159145,None,0,1,,L24I04,2022-12-01_15h45.33.235,t1_Paradigm,2021.1.4,59.942080596870014,
X,right,Target,0,13,13,13,856.7777732865361,858.7778040835401,right,1,1,0.8019203858857509,L24I04,2022-12-01_15h45.33.235,t1_Paradigm,2021.1.4,59.942080596870014,
R,left,Distractor,0,14,14,14,860.2778178780281,862.2799342098879,left,1,1,0.9157323303807061,L24I04,2022-12-01_15h45.33.235,t1_Paradigm,2021.1.4,59.942080596870014,
T,left,Distractor,0,15,15,15,863.7777967051079,865.7794360041444,left,1,1,0.9523907139373478,L24I04,2022-12-01_15h45.33.235,t1_Paradigm,2021.1.4,59.942080596870014,
V,left,Pretarget,0,16,16,16,867.277698539634,869.2793140993163,left,1,1,0.9565810317290016,L24I04,2022-12-01_15h45.33.235,t1_Paradigm,2021.1.4,59.942080596870014,
V,right,Target,0,17,17,17,870.7778769056313,872.777838088572,left,0,1,1.2500200501235668,L24I04,2022-12-01_15h45.33.235,t1_Paradigm,2021.1.4,59.942080596870014,
N,left,Distractor,0,18,18,18,874.2778826800641,876.2789727658092,left,1,1,1.4448820185789373,L24I04,2022-12-01_15h45.33.235,t1_Paradigm,2021.1.4,59.942080596870014,
B,left,Distractor,0,19,19,19,877.777808574785,879.7787915125955,left,1,1,0.7931012137269136,L24I04,2022-12-01_15h45.33.235,t1_Paradigm,2021.1.4,59.942080596870014,
V,left,Lure,0,20,20,20,881.2774742989277,883.2772757223865,None,0,1,,L24I04,2022-12-01_15h45.33.235,t1_Paradigm,2021.1.4,59.942080596870014,
P,left,Distractor,0,21,21,21,884.777777136158,886.7964824684605,None,0,1,,L24I04,2022-12-01_15h45.33.235,t1_Paradigm,2021.1.4,59.942080596870014,
K,left,Pretarget,0,22,22,22,888.2777710409136,890.2791241844243,None,0,1,,L24I04,2022-12-01_15h45.33.235,t1_Paradigm,2021.1.4,59.942080596870014,
K,right,Target,0,23,23,23,891.7778483542497,893.7778002339182,left,0,1,1.417992060771212,L24I04,2022-12-01_15h45.33.235,t1_Paradigm,2021.1.4,59.942080596870014,
J,left,Pretarget,0,24,24,24,895.2778143492178,897.2772600030876,None,0,1,,L24I04,2022-12-01_15h45.33.235,t1_Paradigm,2021.1.4,59.942080596870014,
J,right,Target,0,25,25,25,898.7778717727924,900.7778082539735,None,0,1,,L24I04,2022-12-01_15h45.33.235,t1_Paradigm,2021.1.4,59.942080596870014,
H,left,Distractor,0,26,26,26,902.2776889155793,904.2796746809327,left,1,1,1.2201216096873395,L24I04,2022-12-01_15h45.33.235,t1_Paradigm,2021.1.4,59.942080596870014,
J,left,Lure,0,27,27,27,905.7776748002798,907.777822369273,left,1,1,1.4339516473992262,L24I04,2022-12-01_15h45.33.235,t1_Paradigm,2021.1.4,59.942080596870014,
V,left,Distractor,0,28,28,28,909.2778188404336,911.2790212069522,None,0,1,,L24I04,2022-12-01_15h45.33.235,t1_Paradigm,2021.1.4,59.942080596870014,
Z,left,Pretarget,0,29,29,29,912.7777017476619,914.778180705267,left,1,1,1.409750011691358,L24I04,2022-12-01_15h45.33.235,t1_Paradigm,2021.1.4,59.942080596870014,
Z,right,Target,0,30,30,30,916.2771060180385,918.2775795220223,None,0,1,,L24I04,2022-12-01_15h45.33.235,t1_Paradigm,2021.1.4,59.942080596870014,
T,left,Distractor,0,31,31,31,919.7775984493492,921.7795893475704,None,0,1,,L24I04,2022-12-01_15h45.33.235,t1_Paradigm,2021.1.4,59.942080596870014,
Z,left,Lure,0,32,32,32,923.2778483542497,925.2798918639892,None,0,1,,L24I04,2022-12-01_15h45.33.235,t1_Paradigm,2021.1.4,59.942080596870014,
F,left,Distractor,0,33,33,33,926.7774534467899,928.7792335779814,None,0,1,,L24I04,2022-12-01_15h45.33.235,t1_Paradigm,2021.1.4,59.942080596870014,
Y,left,Pretarget,0,34,34,34,930.2778916625248,932.2773838327266,None,0,1,,L24I04,2022-12-01_15h45.33.235,t1_Paradigm,2021.1.4,59.942080596870014,
Y,right,Target,0,35,35,35,933.7778201236506,935.7778310309222,None,0,1,,L24I04,2022-12-01_15h45.33.235,t1_Paradigm,2021.1.4,59.942080596870014,
Y,right,Target,0,36,36,36,937.2779635222105,939.2778903793369,right,1,1,0.8621445752505679,L24I04,2022-12-01_15h45.33.235,t1_Paradigm,2021.1.4,59.942080596870014,
W,left,Distractor,0,37,37,37,940.7775314017199,942.7792845855001,left,1,1,1.248628731147619,L24I04,2022-12-01_15h45.33.235,t1_Paradigm,2021.1.4,59.942080596870014,
Q,left,Distractor,0,38,38,38,944.2778384093835,946.2800256384944,left,1,1,1.0758058710489422,L24I04,2022-12-01_15h45.33.235,t1_Paradigm,2021.1.4,59.942080596870014,
P,left,Pretarget,0,39,39,39,947.7778429005994,949.7798947512056,left,1,1,1.2398817394860089,L24I04,2022-12-01_15h45.33.235,t1_Paradigm,2021.1.4,59.942080596870014,
P,right,Target,0,40,40,40,951.2778977577691,953.2774678828719,None,0,1,,L24I04,2022-12-01_15h45.33.235,t1_Paradigm,2021.1.4,59.942080596870014,
J,left,Distractor,0,41,41,41,954.7776603641687,956.7787594323745,None,0,1,,L24I04,2022-12-01_15h45.33.235,t1_Paradigm,2021.1.4,59.942080596870014,
P,left,Lure,0,42,42,42,958.277824294084,960.2799508915923,right,0,1,1.4120684489316773,L24I04,2022-12-01_15h45.33.235,t1_Paradigm,2021.1.4,59.942080596870014,
L,left,Distractor,0,43,43,43,961.7773318627733,963.7796041044639,left,1,1,1.0002216743014287,L24I04,2022-12-01_15h45.33.235,t1_Paradigm,2021.1.4,59.942080596870014,
Z,left,Distractor,0,44,44,44,965.2776764042792,967.2775955621328,left,1,1,1.3742757089203224,L24I04,2022-12-01_15h45.33.235,t1_Paradigm,2021.1.4,59.942080596870014,
F,left,Pretarget,0,45,45,45,968.7773976272147,970.7798960344226,None,0,1,,L24I04,2022-12-01_15h45.33.235,t1_Paradigm,2021.1.4,59.942080596870014,
F,right,Target,0,46,46,46,972.2778339181386,974.277825577301,None,0,1,,L24I04,2022-12-01_15h45.33.235,t1_Paradigm,2021.1.4,59.942080596870014,
G,left,Pretarget,0,47,47,47,975.7778416174115,977.7779449156951,None,0,1,,L24I04,2022-12-01_15h45.33.235,t1_Paradigm,2021.1.4,59.942080596870014,
G,right,Target,0,48,48,48,979.2773539981281,981.277933687612,None,0,1,,L24I04,2022-12-01_15h45.33.235,t1_Paradigm,2021.1.4,59.942080596870014,
V,left,Distractor,0,49,49,49,982.7775484042359,984.7773392412055,None,0,1,,L24I04,2022-12-01_15h45.33.235,t1_Paradigm,2021.1.4,59.942080596870014,
G,left,Lure,0,50,50,50,986.2773103690124,988.2792942095839,right,0,1,0.7565490156703163,L24I04,2022-12-01_15h45.33.235,t1_Paradigm,2021.1.4,59.942080596870014,
Q,left,Pretarget,0,51,51,51,989.7779231011518,991.77741623373,left,1,1,1.1783223715319764,L24I04,2022-12-01_15h45.33.235,t1_Paradigm,2021.1.4,59.942080596870014,
Q,right,Target,0,52,52,52,993.2774832813884,995.2778894169314,left,0,1,1.3260710140748415,L24I04,2022-12-01_15h45.33.235,t1_Paradigm,2021.1.4,59.942080596870014,
Y,left,Distractor,0,53,53,53,996.7777094469056,998.7778813968762,None,0,1,,L24I04,2022-12-01_15h45.33.235,t1_Paradigm,2021.1.4,59.942080596870014,
V,left,Distractor,0,54,54,54,1000.2779109106632,1002.2778121035954,None,0,1,,L24I04,2022-12-01_15h45.33.235,t1_Paradigm,2021.1.4,59.942080596870014,
B,left,Distractor,0,55,55,55,1003.777902890608,1005.7778056875686,left,1,1,1.3700388747965917,L24I04,2022-12-01_15h45.33.235,t1_Paradigm,2021.1.4,59.942080596870014,
J,left,Pretarget,0,56,56,56,1007.2777219582058,1009.2775596322899,left,1,1,1.1181735706632026,L24I04,2022-12-01_15h45.33.235,t1_Paradigm,2021.1.4,59.942080596870014,
J,right,Target,0,57,57,57,1010.7779064194474,1012.7779516525334,left,0,1,1.1538798133842647,L24I04,2022-12-01_15h45.33.235,t1_Paradigm,2021.1.4,59.942080596870014,
H,left,Distractor,0,58,58,58,1014.2776895571733,1016.2786551716854,None,0,1,,L24I04,2022-12-01_15h45.33.235,t1_Paradigm,2021.1.4,59.942080596870014,
J,left,Lure,0,59,59,59,1017.7778162740287,1019.7792691870127,right,0,1,1.2088014638866298,L24I04,2022-12-01_15h45.33.235,t1_Paradigm,2021.1.4,59.942080596870014,
D,left,Pretarget,0,60,60,60,1021.2777944594854,1023.2785746503214,left,1,1,0.9253041043994017,L24I04,2022-12-01_15h45.33.235,t1_Paradigm,2021.1.4,59.942080596870014,
D,right,Target,0,61,61,61,1024.7779612766171,1026.7776176974876,left,0,1,1.0902708404173609,L24I04,2022-12-01_15h45.33.235,t1_Paradigm,2021.1.4,59.942080596870014,
R,left,Distractor,0,62,62,62,1028.2777870810241,1030.2793817885686,left,1,1,1.2205553342064377,L24I04,2022-12-01_15h45.33.235,t1_Paradigm,2021.1.4,59.942080596870014,
F,left,Distractor,0,63,63,63,1031.777730619855,1033.7795473224833,left,1,1,1.272414607257815,L24I04,2022-12-01_15h45.33.235,t1_Paradigm,2021.1.4,59.942080596870014,
F,left,Distractor,0,0,0,0,1210.2771425895044,1212.2779250259628,None,0,2,,L24I04,2022-12-01_15h45.33.235,t1_Paradigm,2021.1.4,59.942080596870014,
N,left,Pretarget,0,1,1,1,1213.7773536773166,1215.7793166657211,left,1,2,0.5366487595019862,L24I04,2022-12-01_15h45.33.235,t1_Paradigm,2021.1.4,59.942080596870014,
V,left,Distractor,0,2,2,2,1217.2778740184149,1219.279357086809,left,1,2,0.6685366224555764,L24I04,2022-12-01_15h45.33.235,t1_Paradigm,2021.1.4,59.942080596870014,
N,right,Target,0,3,3,3,1220.777712975745,1222.7800060695736,right,1,2,1.1359598047856707,L24I04,2022-12-01_15h45.33.235,t1_Paradigm,2021.1.4,59.942080596870014,
N,left,Lure,0,4,4,4,1224.2778788304422,1226.2773815871042,None,0,2,,L24I04,2022-12-01_15h45.33.235,t1_Paradigm,2021.1.4,59.942080596870014,
X,left,Distractor,0,5,5,5,1227.7780748405785,1229.7804038642498,None,0,2,,L24I04,2022-12-01_15h45.33.235,t1_Paradigm,2021.1.4,59.942080596870014,
G,left,Pretarget,0,6,6,6,1231.2780466099794,1233.2774880934157,None,0,2,,L24I04,2022-12-01_15h45.33.235,t1_Paradigm,2021.1.4,59.942080596870014,
H,left,Pretarget,0,7,7,7,1234.777543912991,1236.7774406147073,None,0,2,,L24I04,2022-12-01_15h45.33.235,t1_Paradigm,2021.1.4,59.942080596870014,
G,right,Target,0,8,8,8,1238.2774714117113,1240.277602940594,right,1,2,1.302348656754475,L24I04,2022-12-01_15h45.33.235,t1_Paradigm,2021.1.4,59.942080596870014,
H,right,Target,0,9,9,9,1241.7774460683286,1243.7787225401262,right,1,2,1.4172487621835899,L24I04,2022-12-01_15h45.33.235,t1_Paradigm,2021.1.4,59.942080596870014,
T,left,Pretarget,0,10,10,10,1245.277890379337,1247.2796268814127,None,0,2,,L24I04,2022-12-01_15h45.33.235,t1_Paradigm,2021.1.4,59.942080596870014,
K,left,Distractor,0,11,11,11,1248.777916685096,1250.779522299912,None,0,2,,L24I04,2022-12-01_15h45.33.235,t1_Paradigm,2021.1.4,59.942080596870014,
T,right,Target,0,12,12,12,1252.2773312211502,1254.280277468206,None,0,2,,L24I04,2022-12-01_15h45.33.235,t1_Paradigm,2021.1.4,59.942080596870014,
T,left,Lure,0,13,13,13,1255.7779936776205,1257.7779538981558,left,1,2,1.4666385002201423,L24I04,2022-12-01_15h45.33.235,t1_Paradigm,2021.1.4,59.942080596870014,
J,left,Distractor,0,14,14,14,1259.2779975272424,1261.2772981785529,left,1,2,0.9907028326124419,L24I04,2022-12-01_15h45.33.235,t1_Paradigm,2021.1.4,59.942080596870014,
Q,left,Pretarget,0,15,15,15,1262.777981487132,1264.7780203041912,None,0,2,,L24I04,2022-12-01_15h45.33.235,t1_Paradigm,2021.1.4,59.942080596870014,
M,left,Distractor,0,16,16,16,1266.2778117827838,1268.2793490667536,None,0,2,,L24I04,2022-12-01_15h45.33.235,t1_Paradigm,2021.1.4,59.942080596870014,
Q,right,Target,0,17,17,17,1269.7772484541929,1271.7793869214074,None,0,2,,L24I04,2022-12-01_15h45.33.235,t1_Paradigm,2021.1.4,59.942080596870014,
R,left,Distractor,0,18,18,18,1273.2776719130634,1275.2780716325506,None,0,2,,L24I04,2022-12-01_15h45.33.235,t1_Paradigm,2021.1.4,59.942080596870014,
W,left,Distractor,0,19,19,19,1276.7781075623934,1278.7786532468745,None,0,2,,L24I04,2022-12-01_15h45.33.235,t1_Paradigm,2021.1.4,59.942080596870014,
C,left,Pretarget,0,20,20,20,1280.2773017073632,1282.279338159482,left,1,2,0.7247719577862881,L24I04,2022-12-01_15h45.33.235,t1_Paradigm,2021.1.4,59.942080596870014,
T,left,Distractor,0,21,21,21,1283.777834880544,1285.7797526358627,left,1,2,1.2242763184476644,L24I04,2022-12-01_15h45.33.235,t1_Paradigm,2021.1.4,59.942080596870014,
C,right,Target,0,22,22,22,1287.2779327252065,1289.2786891767173,right,1,2,0.7171820994990412,L24I04,2022-12-01_15h45.33.235,t1_Paradigm,2021.1.4,59.942080596870014,
F,left,Pretarget,0,23,23,23,1290.7780681037111,1292.778836424899,None,0,2,,L24I04,2022-12-01_15h45.33.235,t1_Paradigm,2021.1.4,59.942080596870014,
C,right,Target,0,24,24,24,1294.2778188404336,1296.2781264897203,right,1,2,1.2378517034230754,L24I04,2022-12-01_15h45.33.235,t1_Paradigm,2021.1.4,59.942080596870014,
F,right,Target,0,25,25,25,1297.7779048154189,1299.7786394523573,right,1,2,1.4657880536979064,L24I04,2022-12-01_15h45.33.235,t1_Paradigm,2021.1.4,59.942080596870014,
H,left,Distractor,0,26,26,26,1301.277710409311,1303.2774547300069,left,1,2,1.1345219695067499,L24I04,2022-12-01_15h45.33.235,t1_Paradigm,2021.1.4,59.942080596870014,
H,left,Lure,0,27,27,27,1304.7779044946365,1306.7780767653894,None,0,2,,L24I04,2022-12-01_15h45.33.235,t1_Paradigm,2021.1.4,59.942080596870014,
P,left,Distractor,0,28,28,28,1308.2780610460613,1310.2794113023556,left,1,2,1.1406781629484612,L24I04,2022-12-01_15h45.33.235,t1_Paradigm,2021.1.4,59.942080596870014,
G,left,Pretarget,0,29,29,29,1311.777900324203,1313.7789544800762,None,0,2,,L24I04,2022-12-01_15h45.33.235,t1_Paradigm,2021.1.4,59.942080596870014,
K,left,Distractor,0,30,30,30,1315.277406930487,1317.2792842647177,None,0,2,,L24I04,2022-12-01_15h45.33.235,t1_Paradigm,2021.1.4,59.942080596870014,
G,right,Target,0,31,31,31,1318.7780161337869,1320.7794988813403,right,1,2,1.0406231774250045,L24I04,2022-12-01_15h45.33.235,t1_Paradigm,2021.1.4,59.942080596870014,
M,left,Pretarget,0,32,32,32,1322.277945557289,1324.2798684454465,None,0,2,,L24I04,2022-12-01_15h45.33.235,t1_Paradigm,2021.1.4,59.942080596870014,
B,left,Distractor,0,33,33,33,1325.7775317225023,1327.7791261092352,None,0,2,,L24I04,2022-12-01_15h45.33.235,t1_Paradigm,2021.1.4,59.942080596870014,
M,right,Target,0,34,34,34,1329.277648815303,1331.2780507804127,right,1,2,0.5420016643183772,L24I04,2022-12-01_15h45.33.235,t1_Paradigm,2021.1.4,59.942080596870014,
M,left,Lure,0,35,35,35,1332.7780748405785,1334.7776141686772,left,1,2,1.2985795521817636,L24I04,2022-12-01_15h45.33.235,t1_Paradigm,2021.1.4,59.942080596870014,
T,left,Distractor,0,36,36,36,1336.2780446851684,1338.279246410064,None,0,2,,L24I04,2022-12-01_15h45.33.235,t1_Paradigm,2021.1.4,59.942080596870014,
F,left,Distractor,0,37,37,37,1339.7779433116957,1341.7800496986602,None,0,2,,L24I04,2022-12-01_15h45.33.235,t1_Paradigm,2021.1.4,59.942080596870014,
X,left,Distractor,0,38,38,38,1343.2776635721966,1345.2780844646331,left,1,2,1.4060158745851368,L24I04,2022-12-01_15h45.33.235,t1_Paradigm,2021.1.4,59.942080596870014,
C,left,Distractor,0,39,39,39,1346.7779490861285,1348.7798889767728,None,0,2,,L24I04,2022-12-01_15h45.33.235,t1_Paradigm,2021.1.4,59.942080596870014,
R,left,Distractor,0,40,40,40,1350.2778483542497,1352.279180324811,left,1,2,1.0609055731620174,L24I04,2022-12-01_15h45.33.235,t1_Paradigm,2021.1.4,59.942080596870014,
B,left,Pretarget,0,41,41,41,1353.7780828606337,1355.7778294269228,None,0,2,,L24I04,2022-12-01_15h45.33.235,t1_Paradigm,2021.1.4,59.942080596870014,
H,left,Distractor,0,42,42,42,1357.278070670145,1359.2787661692128,None,0,2,,L24I04,2022-12-01_15h45.33.235,t1_Paradigm,2021.1.4,59.942080596870014,
B,right,Target,0,43,43,43,1360.7782512817648,1362.779759372701,right,1,2,0.6084484531893395,L24I04,2022-12-01_15h45.33.235,t1_Paradigm,2021.1.4,59.942080596870014,
W,left,Pretarget,0,44,44,44,1364.277953256562,1366.278898660501,None,0,2,,L24I04,2022-12-01_15h45.33.235,t1_Paradigm,2021.1.4,59.942080596870014,
L,left,Pretarget,0,45,45,45,1367.7780658581178,1369.7795495681057,left,1,2,1.0484998328611255,L24I04,2022-12-01_15h45.33.235,t1_Paradigm,2021.1.4,59.942080596870014,
W,right,Target,0,46,46,46,1371.2779445948836,1373.2797879241116,right,1,2,0.62020906037651,L24I04,2022-12-01_15h45.33.235,t1_Paradigm,2021.1.4,59.942080596870014,
L,right,Target,0,47,47,47,1374.7779234219634,1376.7793769765412,right,1,2,1.328792057960527,L24I04,2022-12-01_15h45.33.235,t1_Paradigm,2021.1.4,59.942080596870014,
W,right,Target,0,48,48,48,1378.2777219582058,1380.2798636334192,None,0,2,,L24I04,2022-12-01_15h45.33.235,t1_Paradigm,2021.1.4,59.942080596870014,
X,left,Distractor,0,49,49,49,1381.7779830911604,1383.7795027309912,left,1,2,1.1126942697737832,L24I04,2022-12-01_15h45.33.235,t1_Paradigm,2021.1.4,59.942080596870014,
R,left,Distractor,0,50,50,50,1385.278026078653,1387.2797038739373,None,0,2,,L24I04,2022-12-01_15h45.33.235,t1_Paradigm,2021.1.4,59.942080596870014,
V,left,Pretarget,0,51,51,51,1388.7774473515456,1390.7798414980643,left,1,2,1.3922688604216091,L24I04,2022-12-01_15h45.33.235,t1_Paradigm,2021.1.4,59.942080596870014,
Z,left,Distractor,0,52,52,52,1392.2778579783044,1394.2795604753774,left,1,2,1.4126218326273374,L24I04,2022-12-01_15h45.33.235,t1_Paradigm,2021.1.4,59.942080596870014,
V,right,Target,0,53,53,53,1395.777919893124,1397.7795672122156,left,0,2,0.7610854790254962,L24I04,2022-12-01_15h45.33.235,t1_Paradigm,2021.1.4,59.942080596870014,
V,left,Lure,0,54,54,54,1399.277545196208,1401.27787145201,right,0,2,1.1341376485070214,L24I04,2022-12-01_15h45.33.235,t1_Paradigm,2021.1.4,59.942080596870014,
N,left,Distractor,0,55,55,55,1402.7778047251632,1404.7791921944881,None,0,2,,L24I04,2022-12-01_15h45.33.235,t1_Paradigm,2021.1.4,59.942080596870014,
B,left,Distractor,0,56,56,56,1406.2779365748283,1408.2796750017442,None,0,2,,L24I04,2022-12-01_15h45.33.235,t1_Paradigm,2021.1.4,59.942080596870014,
V,left,Lure,0,57,57,57,1409.7776253967313,1411.7776892363618,left,1,2,0.8904319472785573,L24I04,2022-12-01_15h45.33.235,t1_Paradigm,2021.1.4,59.942080596870014,
J,left,Distractor,0,58,58,58,1413.2781855173234,1415.2792537884961,left,1,2,0.6848150864243507,L24I04,2022-12-01_15h45.33.235,t1_Paradigm,2021.1.4,59.942080596870014,
H,left,Distractor,0,59,59,59,1416.778130980936,1418.7797609767294,left,1,2,1.1842148656141944,L24I04,2022-12-01_15h45.33.235,t1_Paradigm,2021.1.4,59.942080596870014,
X,left,Pretarget,0,60,60,60,1420.2775423089915,1422.2782872116077,left,1,2,1.3979194696585182,L24I04,2022-12-01_15h45.33.235,t1_Paradigm,2021.1.4,59.942080596870014,
P,left,Distractor,0,61,61,61,1423.7780802941998,1425.7800792124472,None,0,2,,L24I04,2022-12-01_15h45.33.235,t1_Paradigm,2021.1.4,59.942080596870014,
X,right,Target,0,62,62,62,1427.2779750711052,1429.2773248051235,right,1,2,1.03866692588781,L24I04,2022-12-01_15h45.33.235,t1_Paradigm,2021.1.4,59.942080596870014,
Q,left,Distractor,0,63,63,63,1430.7776510609256,1432.779365748458,left,1,2,0.8968495944573078,L24I04,2022-12-01_15h45.33.235,t1_Paradigm,2021.1.4,59.942080596870014,
B,left,Pretarget,0,0,0,0,1449.2263288106478,1451.2296844012453,None,0,2,,L24I04,2022-12-01_15h45.33.235,t1_Paradigm,2021.1.4,59.942080596870014,
F,left,Distractor,0,1,1,1,1452.7279793377675,1454.7281246611383,left,1,2,0.9800935844250489,L24I04,2022-12-01_15h45.33.235,t1_Paradigm,2021.1.4,59.942080596870014,
B,right,Target,0,2,2,2,1456.2275295731379,1458.229445082834,right,1,2,0.934614103869535,L24I04,2022-12-01_15h45.33.235,t1_Paradigm,2021.1.4,59.942080596870014,
V,left,Distractor,0,3,3,3,1459.72799216985,1461.7290995788935,left,1,2,0.7150487651233561,L24I04,2022-12-01_15h45.33.235,t1_Paradigm,2021.1.4,59.942080596870014,
G,left,Pretarget,0,4,4,4,1463.2278340143966,1465.230007128208,left,1,2,1.1819256213784683,L24I04,2022-12-01_15h45.33.235,t1_Paradigm,2021.1.4,59.942080596870014,
B,left,Lure,0,5,5,5,1466.7276399290713,1468.7302900757059,right,0,2,0.7537846634804737,L24I04,2022-12-01_15h45.33.235,t1_Paradigm,2021.1.4,59.942080596870014,
G,right,Target,0,6,6,6,1470.2276748965087,1472.2275699941965,left,0,2,1.3045984423079062,L24I04,2022-12-01_15h45.33.235,t1_Paradigm,2021.1.4,59.942080596870014,
Y,left,Pretarget,0,7,7,7,1473.7279501447629,1475.7280547262635,left,1,2,0.7167438837641384,L24I04,2022-12-01_15h45.33.235,t1_Paradigm,2021.1.4,59.942080596870014,
P,left,Distractor,0,8,8,8,1477.227760871494,1479.228199728852,left,1,2,0.8639972077507991,L24I04,2022-12-01_15h45.33.235,t1_Paradigm,2021.1.4,59.942080596870014,
Y,right,Target,0,9,9,9,1480.7280101347715,1482.7289677292283,None,0,2,,L24I04,2022-12-01_15h45.33.235,t1_Paradigm,2021.1.4,59.942080596870014,
X,left,Distractor,0,10,10,10,1484.227822465502,1486.228895548731,left,1,2,1.3831356229493394,L24I04,2022-12-01_15h45.33.235,t1_Paradigm,2021.1.4,59.942080596870014,
Y,right,Target,0,11,11,11,1487.7280601799139,1489.729878807353,None,0,2,,L24I04,2022-12-01_15h45.33.235,t1_Paradigm,2021.1.4,59.942080596870014,
N,left,Distractor,0,12,12,12,1491.2280560094805,1493.229865654459,left,1,2,1.054287103790557,L24I04,2022-12-01_15h45.33.235,t1_Paradigm,2021.1.4,59.942080596870014,
Y,right,Target,0,13,13,13,1494.7281176034885,1496.7275667861977,right,1,2,1.3806410653924104,L24I04,2022-12-01_15h45.33.235,t1_Paradigm,2021.1.4,59.942080596870014,
Y,left,Lure,0,14,14,14,1498.2277473978174,1500.2280345157487,left,1,2,1.3199998331838287,L24I04,2022-12-01_15h45.33.235,t1_Paradigm,2021.1.4,59.942080596870014,
K,left,Distractor,0,15,15,15,1501.727682916564,1503.728817593801,left,1,2,1.0832651628588792,L24I04,2022-12-01_15h45.33.235,t1_Paradigm,2021.1.4,59.942080596870014,
T,left,Pretarget,0,16,16,16,1505.2281660446315,1507.2296847220568,None,0,2,,L24I04,2022-12-01_15h45.33.235,t1_Paradigm,2021.1.4,59.942080596870014,
J,left,Distractor,0,17,17,17,1508.728044460615,1510.7295939350442,left,1,2,1.0426471182727255,L24I04,2022-12-01_15h45.33.235,t1_Paradigm,2021.1.4,59.942080596870014,
T,right,Target,0,18,18,18,1512.227696069458,1514.2293915088812,right,1,2,0.7427288586623035,L24I04,2022-12-01_15h45.33.235,t1_Paradigm,2021.1.4,59.942080596870014,
S,left,Pretarget,0,19,19,19,1515.7276466659387,1517.728621583694,left,1,2,1.21183176105842,L24I04,2022-12-01_15h45.33.235,t1_Paradigm,2021.1.4,59.942080596870014,
R,left,Distractor,0,20,20,20,1519.2281044505944,1521.2287312980334,left,1,2,0.959459910314763,L24I04,2022-12-01_15h45.33.235,t1_Paradigm,2021.1.4,59.942080596870014,
S,right,Target,0,21,21,21,1522.7280829568626,1524.7294976943813,right,1,2,0.5308075937500689,L24I04,2022-12-01_15h45.33.235,t1_Paradigm,2021.1.4,59.942080596870014,
Q,left,Distractor,0,22,22,22,1526.2280685207515,1528.2286433982372,left,1,2,0.8074856617604382,L24I04,2022-12-01_15h45.33.235,t1_Paradigm,2021.1.4,59.942080596870014,
D,left,Distractor,0,23,23,23,1529.7277002398914,1531.729866296053,left,1,2,0.8584011348721106,L24I04,2022-12-01_15h45.33.235,t1_Paradigm,2021.1.4,59.942080596870014,
F,left,Distractor,0,24,24,24,1533.2281557789538,1535.2404829227307,left,1,2,1.203693972696783,L24I04,2022-12-01_15h45.33.235,t1_Paradigm,2021.1.4,59.942080596870014,
Z,left,Distractor,0,25,25,25,1536.7275295731379,1538.7293523710105,left,1,2,0.8506534419138916,L24I04,2022-12-01_15h45.33.235,t1_Paradigm,2021.1.4,59.942080596870014,
P,left,Distractor,0,26,26,26,1540.2277297536784,1542.227620680962,left,1,2,1.0003522407496348,L24I04,2022-12-01_15h45.33.235,t1_Paradigm,2021.1.4,59.942080596870014,
H,left,Distractor,0,27,27,27,1543.7274612422916,1545.727618756151,left,1,2,1.052496386168059,L24I04,2022-12-01_15h45.33.235,t1_Paradigm,2021.1.4,59.942080596870014,
Z,left,Pretarget,0,28,28,28,1547.2280758992129,1549.2275828263082,None,0,2,,L24I04,2022-12-01_15h45.33.235,t1_Paradigm,2021.1.4,59.942080596870014,
J,left,Pretarget,0,29,29,29,1550.7280114179885,1552.7288708469714,None,0,2,,L24I04,2022-12-01_15h45.33.235,t1_Paradigm,2021.1.4,59.942080596870014,
Z,right,Target,0,30,30,30,1554.2282077489072,1556.2276527611539,right,1,2,1.0164629252394661,L24I04,2022-12-01_15h45.33.235,t1_Paradigm,2021.1.4,59.942080596870014,
J,right,Target,0,31,31,31,1557.728151287709,1559.7280653127527,left,0,2,1.2284477089124266,L24I04,2022-12-01_15h45.33.235,t1_Paradigm,2021.1.4,59.942080596870014,
V,left,Pretarget,0,32,32,32,1561.228005964338,1563.2287130123004,left,1,2,1.1514080327469856,L24I04,2022-12-01_15h45.33.235,t1_Paradigm,2021.1.4,59.942080596870014,
Z,left,Lure,0,33,33,33,1564.7279844706063,1566.7300584565673,right,0,2,1.394328089489136,L24I04,2022-12-01_15h45.33.235,t1_Paradigm,2021.1.4,59.942080596870014,
V,right,Target,0,34,34,34,1568.2279042700538,1570.2286382653983,left,0,2,0.7120643426314928,L24I04,2022-12-01_15h45.33.235,t1_Paradigm,2021.1.4,59.942080596870014,
X,left,Distractor,0,35,35,35,1571.7277233376517,1573.729440591589,None,0,2,,L24I04,2022-12-01_15h45.33.235,t1_Paradigm,2021.1.4,59.942080596870014,
S,left,Distractor,0,36,36,36,1575.2279087612987,1577.2280829568626,None,0,2,,L24I04,2022-12-01_15h45.33.235,t1_Paradigm,2021.1.4,59.942080596870014,
Q,left,Distractor,0,37,37,37,1578.7280710871855,1580.729426155507,left,1,2,0.88258673044038,L24I04,2022-12-01_15h45.33.235,t1_Paradigm,2021.1.4,59.942080596870014,
P,left,Distractor,0,38,38,38,1582.227726866462,1584.2295730829064,None,0,2,,L24I04,2022-12-01_15h45.33.235,t1_Paradigm,2021.1.4,59.942080596870014,
S,left,Lure,0,39,39,39,1585.7281432676828,1587.7291451328201,left,1,2,1.2590929768048227,L24I04,2022-12-01_15h45.33.235,t1_Paradigm,2021.1.4,59.942080596870014,
K,left,Pretarget,0,40,40,40,1589.2277329617064,1591.229661945079,left,1,2,1.118453630944714,L24I04,2022-12-01_15h45.33.235,t1_Paradigm,2021.1.4,59.942080596870014,
L,left,Distractor,0,41,41,41,1592.7280335533433,1594.7292070476396,left,1,2,0.9310522374871653,L24I04,2022-12-01_15h45.33.235,t1_Paradigm,2021.1.4,59.942080596870014,
K,right,Target,0,42,42,42,1596.2277656835213,1598.2276078488794,right,1,2,1.1126118235988542,L24I04,2022-12-01_15h45.33.235,t1_Paradigm,2021.1.4,59.942080596870014,
B,left,Distractor,0,43,43,43,1599.7277188464068,1601.7277105055691,left,1,2,1.1486189787974581,L24I04,2022-12-01_15h45.33.235,t1_Paradigm,2021.1.4,59.942080596870014,
N,left,Distractor,0,44,44,44,1603.2279867162288,1605.2290184159647,left,1,2,0.9273488973558415,L24I04,2022-12-01_15h45.33.235,t1_Paradigm,2021.1.4,59.942080596870014,
S,left,Pretarget,0,45,45,45,1606.7280332325317,1608.7292035188002,left,1,2,0.9310211197007447,L24I04,2022-12-01_15h45.33.235,t1_Paradigm,2021.1.4,59.942080596870014,
Z,left,Distractor,0,46,46,46,1610.2279867162288,1612.229726747115,left,1,2,1.3983641014492605,L24I04,2022-12-01_15h45.33.235,t1_Paradigm,2021.1.4,59.942080596870014,
S,right,Target,0,47,47,47,1613.7280778240238,1615.729147699225,right,1,2,0.5390255826932844,L24I04,2022-12-01_15h45.33.235,t1_Paradigm,2021.1.4,59.942080596870014,
C,left,Distractor,0,48,48,48,1617.228193312796,1619.2285654433072,left,1,2,1.3116852828243282,L24I04,2022-12-01_15h45.33.235,t1_Paradigm,2021.1.4,59.942080596870014,
T,left,Pretarget,0,49,49,49,1620.7280463854258,1622.7301713789348,left,1,2,1.0103936691593844,L24I04,2022-12-01_15h45.33.235,t1_Paradigm,2021.1.4,59.942080596870014,
S,left,Lure,0,50,50,50,1624.2280758992129,1626.2291329423315,None,0,2,,L24I04,2022-12-01_15h45.33.235,t1_Paradigm,2021.1.4,59.942080596870014,
T,right,Target,0,51,51,51,1627.7282696637267,1629.7301838902058,None,0,2,,L24I04,2022-12-01_15h45.33.235,t1_Paradigm,2021.1.4,59.942080596870014,
N,left,Pretarget,0,52,52,52,1631.2282616436714,1633.2280784656468,left,1,2,0.6401193255733233,L24I04,2022-12-01_15h45.33.235,t1_Paradigm,2021.1.4,59.942080596870014,
B,left,Distractor,0,53,53,53,1634.7280746159959,1636.72922822056,left,1,2,0.7869469450961333,L24I04,2022-12-01_15h45.33.235,t1_Paradigm,2021.1.4,59.942080596870014,
N,right,Target,0,54,54,54,1638.22810733784,1640.228759849415,right,1,2,1.2235137717216276,L24I04,2022-12-01_15h45.33.235,t1_Paradigm,2021.1.4,59.942080596870014,
N,left,Lure,0,55,55,55,1641.7279321798414,1643.728134285222,None,0,2,,L24I04,2022-12-01_15h45.33.235,t1_Paradigm,2021.1.4,59.942080596870014,
X,left,Distractor,0,56,56,56,1645.2281236987328,1647.2288429371838,left,1,2,1.1193076062772889,L24I04,2022-12-01_15h45.33.235,t1_Paradigm,2021.1.4,59.942080596870014,
W,left,Distractor,0,57,57,57,1648.7281586661702,1650.7289186464914,None,0,2,,L24I04,2022-12-01_15h45.33.235,t1_Paradigm,2021.1.4,59.942080596870014,
S,left,Distractor,0,58,58,58,1652.2279347462754,1654.2301091433037,left,1,2,1.270052540989127,L24I04,2022-12-01_15h45.33.235,t1_Paradigm,2021.1.4,59.942080596870014,
L,left,Distractor,0,59,59,59,1655.7283161800297,1657.7292468271044,left,1,2,0.9868580187612679,L24I04,2022-12-01_15h45.33.235,t1_Paradigm,2021.1.4,59.942080596870014,
K,left,Pretarget,0,60,60,60,1659.2280989969731,1661.229458235728,left,1,2,1.0067727751738857,L24I04,2022-12-01_15h45.33.235,t1_Paradigm,2021.1.4,59.942080596870014,
V,left,Pretarget,0,61,61,61,1662.7276649516425,1664.7292378446436,left,1,2,0.9154262851225212,L24I04,2022-12-01_15h45.33.235,t1_Paradigm,2021.1.4,59.942080596870014,
K,right,Target,0,62,62,62,1666.2278028965811,1668.2292368822382,left,0,2,0.870956368977204,L24I04,2022-12-01_15h45.33.235,t1_Paradigm,2021.1.4,59.942080596870014,
V,right,Target,0,63,63,63,1669.7278006509587,1671.7292192380992,right,1,2,1.050890129758045,L24I04,2022-12-01_15h45.33.235,t1_Paradigm,2021.1.4,59.942080596870014,
R,left,Distractor,0,0,0,0,1716.6914149492513,1718.696743793902,None,0,3,,L24I04,2022-12-01_15h45.33.235,t1_Paradigm,2021.1.4,59.942080596870014,
P,left,Lure,0,1,1,1,1720.1946325949102,1722.1943897476594,None,0,3,,L24I04,2022-12-01_15h45.33.235,t1_Paradigm,2021.1.4,59.942080596870014,
V,left,Distractor,0,2,2,2,1723.6946425397764,1725.6958596631594,None,0,3,,L24I04,2022-12-01_15h45.33.235,t1_Paradigm,2021.1.4,59.942080596870014,
P,left,Pretarget,0,3,3,3,1727.1947638029815,1729.1957746505796,right,0,3,1.2489187363244127,L24I04,2022-12-01_15h45.33.235,t1_Paradigm,2021.1.4,59.942080596870014,
Z,left,Distractor,0,4,4,4,1730.6948725549155,1732.6961288161692,left,1,3,0.8360502068244386,L24I04,2022-12-01_15h45.33.235,t1_Paradigm,2021.1.4,59.942080596870014,
L,left,Pretarget,0,5,5,5,1734.1944882339449,1736.19682495686,left,1,3,0.8233858999738004,L24I04,2022-12-01_15h45.33.235,t1_Paradigm,2021.1.4,59.942080596870014,
P,right,Target,0,6,6,6,1737.694764765387,1739.6953855175816,right,1,3,1.197045989567414,L24I04,2022-12-01_15h45.33.235,t1_Paradigm,2021.1.4,59.942080596870014,
S,left,Distractor,0,7,7,7,1741.194703171379,1743.1956960540556,left,1,3,0.8806882232893258,L24I04,2022-12-01_15h45.33.235,t1_Paradigm,2021.1.4,59.942080596870014,
L,right,Target,0,8,8,8,1744.6948622892378,1746.695792615501,left,0,3,1.364491243060911,L24I04,2022-12-01_15h45.33.235,t1_Paradigm,2021.1.4,59.942080596870014,
D,left,Distractor,0,9,9,9,1748.1944526248844,1750.1960130065854,left,1,3,0.9841440324671566,L24I04,2022-12-01_15h45.33.235,t1_Paradigm,2021.1.4,59.942080596870014,
G,left,Distractor,0,10,10,10,1751.6947894671466,1753.6957525152538,None,0,3,,L24I04,2022-12-01_15h45.33.235,t1_Paradigm,2021.1.4,59.942080596870014,
M,left,Pretarget,0,11,11,11,1755.1943445145735,1757.1966215682914,None,0,3,,L24I04,2022-12-01_15h45.33.235,t1_Paradigm,2021.1.4,59.942080596870014,
Y,left,Distractor,0,12,12,12,1758.694278108509,1760.6965522750106,None,0,3,,L24I04,2022-12-01_15h45.33.235,t1_Paradigm,2021.1.4,59.942080596870014,
V,left,Distractor,0,13,13,13,1762.1947262691392,1764.1960187810473,left,1,3,0.9520118465588894,L24I04,2022-12-01_15h45.33.235,t1_Paradigm,2021.1.4,59.942080596870014,
M,right,Target,0,14,14,14,1765.6943817276042,1767.6942075320403,None,0,3,,L24I04,2022-12-01_15h45.33.235,t1_Paradigm,2021.1.4,59.942080596870014,
S,left,Pretarget,0,15,15,15,1769.1948064696626,1771.1963495280652,left,1,3,0.656283904769225,L24I04,2022-12-01_15h45.33.235,t1_Paradigm,2021.1.4,59.942080596870014,
Q,left,Distractor,0,16,16,16,1772.6949046351365,1774.6948035824462,left,1,3,0.677537047828082,L24I04,2022-12-01_15h45.33.235,t1_Paradigm,2021.1.4,59.942080596870014,
R,left,Pretarget,0,17,17,17,1776.1942495571275,1778.1969064406003,left,1,3,1.3515366102801636,L24I04,2022-12-01_15h45.33.235,t1_Paradigm,2021.1.4,59.942080596870014,
S,right,Target,0,18,18,18,1779.6948051864747,1781.6962888964626,left,0,3,0.8920937024522573,L24I04,2022-12-01_15h45.33.235,t1_Paradigm,2021.1.4,59.942080596870014,
F,left,Distractor,0,19,19,19,1783.1944750810508,1785.1961166256806,left,1,3,1.0240839013131335,L24I04,2022-12-01_15h45.33.235,t1_Paradigm,2021.1.4,59.942080596870014,
R,right,Target,0,20,20,20,1786.69435798825,1788.6963633225532,None,0,3,,L24I04,2022-12-01_15h45.33.235,t1_Paradigm,2021.1.4,59.942080596870014,
P,left,Distractor,0,21,21,21,1790.1945199933543,1792.1962141495605,None,0,3,,L24I04,2022-12-01_15h45.33.235,t1_Paradigm,2021.1.4,59.942080596870014,
L,left,Distractor,0,22,22,22,1793.6946037227171,1795.6944333767751,left,1,3,1.4218205137585755,L24I04,2022-12-01_15h45.33.235,t1_Paradigm,2021.1.4,59.942080596870014,
R,right,Target,0,23,23,23,1797.1943551010336,1799.195573186822,None,0,3,,L24I04,2022-12-01_15h45.33.235,t1_Paradigm,2021.1.4,59.942080596870014,
H,left,Pretarget,0,24,24,24,1800.694713757839,1802.695465718105,left,1,3,0.788775196619099,L24I04,2022-12-01_15h45.33.235,t1_Paradigm,2021.1.4,59.942080596870014,
G,left,Pretarget,0,25,25,25,1804.211454176926,1806.195106098894,left,1,3,1.129348393093096,L24I04,2022-12-01_15h45.33.235,t1_Paradigm,2021.1.4,59.942080596870014,
T,left,Distractor,0,26,26,26,1807.6947573869547,1809.6956941292447,left,1,3,0.8605607750068884,L24I04,2022-12-01_15h45.33.235,t1_Paradigm,2021.1.4,59.942080596870014,
H,right,Target,0,27,27,27,1811.1946473518037,1813.195900725841,left,0,3,0.6403634560119826,L24I04,2022-12-01_15h45.33.235,t1_Paradigm,2021.1.4,59.942080596870014,
G,right,Target,0,28,28,28,1814.6942556523718,1816.694422790286,None,0,3,,L24I04,2022-12-01_15h45.33.235,t1_Paradigm,2021.1.4,59.942080596870014,
D,left,Distractor,0,29,29,29,1818.1949764948222,1820.1967842149897,left,1,3,0.8395678024971858,L24I04,2022-12-01_15h45.33.235,t1_Paradigm,2021.1.4,59.942080596870014,
N,left,Pretarget,0,30,30,30,1821.6945770961174,1823.6958356029936,left,1,3,1.100337932992261,L24I04,2022-12-01_15h45.33.235,t1_Paradigm,2021.1.4,59.942080596870014,
V,left,Distractor,0,31,31,31,1825.1944231110974,1827.1967944806674,left,1,3,1.1995456799631938,L24I04,2022-12-01_15h45.33.235,t1_Paradigm,2021.1.4,59.942080596870014,
R,left,Distractor,0,32,32,32,1828.694747762871,1830.6964415982657,left,1,3,0.9481811480072793,L24I04,2022-12-01_15h45.33.235,t1_Paradigm,2021.1.4,59.942080596870014,
N,right,Target,0,33,33,33,1832.194781126309,1834.1960659389442,right,1,3,0.8722001189307775,L24I04,2022-12-01_15h45.33.235,t1_Paradigm,2021.1.4,59.942080596870014,
Z,left,Distractor,0,34,34,34,1835.6945373166527,1837.6943952013098,left,1,3,1.1178742622432765,L24I04,2022-12-01_15h45.33.235,t1_Paradigm,2021.1.4,59.942080596870014,
N,left,Lure,0,35,35,35,1839.1947638029815,1841.1956007758272,None,0,3,,L24I04,2022-12-01_15h45.33.235,t1_Paradigm,2021.1.4,59.942080596870014,
Y,left,Pretarget,0,36,36,36,1842.6945078028657,1844.6943486849777,None,0,3,,L24I04,2022-12-01_15h45.33.235,t1_Paradigm,2021.1.4,59.942080596870014,
Y,left,Lure,0,37,37,37,1846.1943156423804,1848.1947747102531,None,0,3,,L24I04,2022-12-01_15h45.33.235,t1_Paradigm,2021.1.4,59.942080596870014,
B,left,Distractor,0,38,38,38,1849.6943490057893,1851.6951628808747,left,1,3,1.021085042739287,L24I04,2022-12-01_15h45.33.235,t1_Paradigm,2021.1.4,59.942080596870014,
Y,right,Target,0,39,39,39,1853.1948478531558,1855.1965859592601,right,1,3,0.7676808506366797,L24I04,2022-12-01_15h45.33.235,t1_Paradigm,2021.1.4,59.942080596870014,
J,left,Distractor,0,40,40,40,1856.6945325046254,1858.69646726246,left,1,3,1.059729833243182,L24I04,2022-12-01_15h45.33.235,t1_Paradigm,2021.1.4,59.942080596870014,
X,left,Distractor,0,41,41,41,1860.1947060585953,1862.196511853952,left,1,3,0.9037301591888536,L24I04,2022-12-01_15h45.33.235,t1_Paradigm,2021.1.4,59.942080596870014,
W,left,Pretarget,0,42,42,42,1863.694777918281,1865.6941080833785,left,1,3,0.9422658769763075,L24I04,2022-12-01_15h45.33.235,t1_Paradigm,2021.1.4,59.942080596870014,
S,left,Pretarget,0,43,43,43,1867.1947224195173,1869.1969231223338,left,1,3,0.7192737295699771,L24I04,2022-12-01_15h45.33.235,t1_Paradigm,2021.1.4,59.942080596870014,
R,left,Distractor,0,44,44,44,1870.6946643543197,1872.6952405149932,left,1,3,0.7731386577652302,L24I04,2022-12-01_15h45.33.235,t1_Paradigm,2021.1.4,59.942080596870014,
W,right,Target,0,45,45,45,1874.1947808054974,1876.1963049365731,None,0,3,,L24I04,2022-12-01_15h45.33.235,t1_Paradigm,2021.1.4,59.942080596870014,
S,right,Target,0,46,46,46,1877.6947586701426,1879.695821487694,None,0,3,,L24I04,2022-12-01_15h45.33.235,t1_Paradigm,2021.1.4,59.942080596870014,
D,left,Distractor,0,47,47,47,1881.1943814068218,1883.1959883048257,left,1,3,0.9284739505383186,L24I04,2022-12-01_15h45.33.235,t1_Paradigm,2021.1.4,59.942080596870014,
T,left,Distractor,0,48,48,48,1884.6945863993897,1886.6961807861226,left,1,3,0.8201034522789996,L24I04,2022-12-01_15h45.33.235,t1_Paradigm,2021.1.4,59.942080596870014,
S,right,Target,0,49,49,49,1888.1947512917104,1890.1965323852783,right,1,3,1.14415918715531,L24I04,2022-12-01_15h45.33.235,t1_Paradigm,2021.1.4,59.942080596870014,
K,left,Distractor,0,50,50,50,1891.6943287952454,1893.6964913226257,left,1,3,0.6837981435819529,L24I04,2022-12-01_15h45.33.235,t1_Paradigm,2021.1.4,59.942080596870014,
S,left,Lure,0,51,51,51,1895.1948055072571,1897.1961939390167,left,1,3,1.2643900620751083,L24I04,2022-12-01_15h45.33.235,t1_Paradigm,2021.1.4,59.942080596870014,
T,left,Pretarget,0,52,52,52,1898.6947567453317,1900.6953771767148,left,1,3,1.077003746322589,L24I04,2022-12-01_15h45.33.235,t1_Paradigm,2021.1.4,59.942080596870014,
V,left,Distractor,0,53,53,53,1902.1948253969895,1904.1963328463607,left,1,3,0.7121686033497099,L24I04,2022-12-01_15h45.33.235,t1_Paradigm,2021.1.4,59.942080596870014,
B,left,Distractor,0,54,54,54,1905.6946909808903,1907.6942886949982,left,1,3,0.5580068048438989,L24I04,2022-12-01_15h45.33.235,t1_Paradigm,2021.1.4,59.942080596870014,
T,right,Target,0,55,55,55,1909.1945450159255,1911.1965128163574,right,1,3,0.9439366146107204,L24I04,2022-12-01_15h45.33.235,t1_Paradigm,2021.1.4,59.942080596870014,
Y,left,Pretarget,0,56,56,56,1912.6947516124928,1914.6962552122131,left,1,3,0.8519395377661567,L24I04,2022-12-01_15h45.33.235,t1_Paradigm,2021.1.4,59.942080596870014,
T,left,Lure,0,57,57,57,1916.1943544594396,1918.1953527957376,right,0,3,0.8410714022174943,L24I04,2022-12-01_15h45.33.235,t1_Paradigm,2021.1.4,59.942080596870014,
P,left,Pretarget,0,58,58,58,1919.6946797528071,1921.6961878437723,left,1,3,0.7962845335423481,L24I04,2022-12-01_15h45.33.235,t1_Paradigm,2021.1.4,59.942080596870014,
Y,right,Target,0,59,59,59,1923.1948064696626,1925.1957861994742,right,1,3,0.9448217077879235,L24I04,2022-12-01_15h45.33.235,t1_Paradigm,2021.1.4,59.942080596870014,
R,left,Distractor,0,60,60,60,1926.6949020687025,1928.696184956556,None,0,3,,L24I04,2022-12-01_15h45.33.235,t1_Paradigm,2021.1.4,59.942080596870014,
P,right,Target,0,61,61,61,1930.194653447048,1932.1954490364005,left,0,3,0.7607499199511949,L24I04,2022-12-01_15h45.33.235,t1_Paradigm,2021.1.4,59.942080596870014,
L,left,Distractor,0,62,62,62,1933.695041296858,1935.6943361737067,left,1,3,0.7503328322491143,L24I04,2022-12-01_15h45.33.235,t1_Paradigm,2021.1.4,59.942080596870014,
V,left,Distractor,0,63,63,63,1937.1946114219609,1939.1962224903982,left,1,3,1.4241376677528024,L24I04,2022-12-01_15h45.33.235,t1_Paradigm,2021.1.4,59.942080596870014,
H,left,Lure,0,0,0,0,1971.477893202391,1973.4795257645892,None,0,3,,L24I04,2022-12-01_15h45.33.235,t1_Paradigm,2021.1.4,59.942080596870014,
B,left,Distractor,0,1,1,1,1974.9780061247584,1976.9782602000632,None,0,3,,L24I04,2022-12-01_15h45.33.235,t1_Paradigm,2021.1.4,59.942080596870014,
T,left,Distractor,0,2,2,2,1978.4781652426173,1980.479345473752,None,0,3,,L24I04,2022-12-01_15h45.33.235,t1_Paradigm,2021.1.4,59.942080596870014,
R,left,Distractor,0,3,3,3,1981.9780981949589,1983.9794048221665,left,1,3,1.20089465304045,L24I04,2022-12-01_15h45.33.235,t1_Paradigm,2021.1.4,59.942080596870014,
H,left,Pretarget,0,4,4,4,1985.478216891759,1987.4793380953197,None,0,3,,L24I04,2022-12-01_15h45.33.235,t1_Paradigm,2021.1.4,59.942080596870014,
K,left,Distractor,0,5,5,5,1988.9777048915275,1990.9795010628004,left,1,3,1.4008089347335044,L24I04,2022-12-01_15h45.33.235,t1_Paradigm,2021.1.4,59.942080596870014,
G,left,Distractor,0,6,6,6,1992.4776814729557,1994.4779169417452,left,1,3,1.262474873161409,L24I04,2022-12-01_15h45.33.235,t1_Paradigm,2021.1.4,59.942080596870014,
H,right,Target,0,7,7,7,1995.9778216635168,1997.9777716183744,right,1,3,1.2025336312945,L24I04,2022-12-01_15h45.33.235,t1_Paradigm,2021.1.4,59.942080596870014,
Y,left,Pretarget,0,8,8,8,1999.4780519994674,2001.4795719600806,left,1,3,1.1409530903911218,L24I04,2022-12-01_15h45.33.235,t1_Paradigm,2021.1.4,59.942080596870014,
S,left,Distractor,0,9,9,9,2002.977517222258,2004.9799322209146,left,1,3,0.968400666519301,L24I04,2022-12-01_15h45.33.235,t1_Paradigm,2021.1.4,59.942080596870014,
P,left,Distractor,0,10,10,10,2006.4782425559242,2008.4792797093105,left,1,3,1.1490899163472932,L24I04,2022-12-01_15h45.33.235,t1_Paradigm,2021.1.4,59.942080596870014,
Y,right,Target,0,11,11,11,2009.9781652426173,2011.9777225356374,None,0,3,,L24I04,2022-12-01_15h45.33.235,t1_Paradigm,2021.1.4,59.942080596870014,
H,left,Lure,0,12,12,12,2013.4778822951193,2015.4798674188787,right,0,3,1.1565896292158868,L24I04,2022-12-01_15h45.33.235,t1_Paradigm,2021.1.4,59.942080596870014,
Q,left,Distractor,0,13,13,13,2016.9781280295574,2018.9799566018628,left,1,3,0.9203910193464253,L24I04,2022-12-01_15h45.33.235,t1_Paradigm,2021.1.4,59.942080596870014,
V,left,Pretarget,0,14,14,14,2020.4772025153507,2022.4777421045583,None,0,3,,L24I04,2022-12-01_15h45.33.235,t1_Paradigm,2021.1.4,59.942080596870014,
G,left,Distractor,0,15,15,15,2023.9778431572486,2025.979858436418,left,1,3,1.4405989889637567,L24I04,2022-12-01_15h45.33.235,t1_Paradigm,2021.1.4,59.942080596870014,
Z,left,Pretarget,0,16,16,16,2027.4781851323496,2029.478919769288,left,1,3,1.189507780421991,L24I04,2022-12-01_15h45.33.235,t1_Paradigm,2021.1.4,59.942080596870014,
V,right,Target,0,17,17,17,2030.9781739042664,2032.9776583751955,right,1,3,1.178660176199628,L24I04,2022-12-01_15h45.33.235,t1_Paradigm,2021.1.4,59.942080596870014,
N,left,Distractor,0,18,18,18,2034.4781732626725,2036.479809353681,left,1,3,1.1325166352035012,L24I04,2022-12-01_15h45.33.235,t1_Paradigm,2021.1.4,59.942080596870014,
Z,right,Target,0,19,19,19,2037.9781966812152,2039.9799742460018,right,1,3,1.2003804071864579,L24I04,2022-12-01_15h45.33.235,t1_Paradigm,2021.1.4,59.942080596870014,
R,left,Distractor,0,20,20,20,2041.4781556185626,2043.4776256533805,left,1,3,1.1108284844085574,L24I04,2022-12-01_15h45.33.235,t1_Paradigm,2021.1.4,59.942080596870014,
P,left,Distractor,0,21,21,21,2044.978169733833,2046.979858436418,left,1,3,1.0646538255969062,L24I04,2022-12-01_15h45.33.235,t1_Paradigm,2021.1.4,59.942080596870014,
Z,right,Target,0,22,22,22,2048.478214325354,2050.479794917599,left,0,3,1.3246796950988937,L24I04,2022-12-01_15h45.33.235,t1_Paradigm,2021.1.4,59.942080596870014,
D,left,Pretarget,0,23,23,23,2051.9781902651885,2053.9782091925154,left,1,3,1.074268907919759,L24I04,2022-12-01_15h45.33.235,t1_Paradigm,2021.1.4,59.942080596870014,
K,left,Distractor,0,24,24,24,2055.478051678656,2057.4777193276095,left,1,3,0.8865990030753892,L24I04,2022-12-01_15h45.33.235,t1_Paradigm,2021.1.4,59.942080596870014,
W,left,Distractor,0,25,25,25,2058.9781719794555,2060.9782210621925,left,1,3,1.1143034134001937,L24I04,2022-12-01_15h45.33.235,t1_Paradigm,2021.1.4,59.942080596870014,
D,right,Target,0,26,26,26,2062.4781498441007,2064.4796945065027,None,0,3,,L24I04,2022-12-01_15h45.33.235,t1_Paradigm,2021.1.4,59.942080596870014,
G,left,Pretarget,0,27,27,27,2065.9783217940712,2067.979641574144,None,0,3,,L24I04,2022-12-01_15h45.33.235,t1_Paradigm,2021.1.4,59.942080596870014,
V,left,Distractor,0,28,28,28,2069.478177433106,2071.479679749609,left,1,3,0.8207065603346564,L24I04,2022-12-01_15h45.33.235,t1_Paradigm,2021.1.4,59.942080596870014,
D,right,Target,0,29,29,29,2072.9780475082225,2074.9777684103465,right,1,3,1.0827817140088882,L24I04,2022-12-01_15h45.33.235,t1_Paradigm,2021.1.4,59.942080596870014,
G,right,Target,0,30,30,30,2076.4782079092984,2078.479676862393,right,1,3,1.4527602780144662,L24I04,2022-12-01_15h45.33.235,t1_Paradigm,2021.1.4,59.942080596870014,
B,left,Pretarget,0,31,31,31,2079.977954154805,2081.978590305487,left,1,3,1.0099528869905043,L24I04,2022-12-01_15h45.33.235,t1_Paradigm,2021.1.4,59.942080596870014,
N,left,Distractor,0,32,32,32,2083.478245763952,2085.478896029934,left,1,3,1.1736011261236854,L24I04,2022-12-01_15h45.33.235,t1_Paradigm,2021.1.4,59.942080596870014,
F,left,Distractor,0,33,33,33,2086.9778608013585,2088.9804108577373,None,0,3,,L24I04,2022-12-01_15h45.33.235,t1_Paradigm,2021.1.4,59.942080596870014,
B,right,Target,0,34,34,34,2090.4782473679807,2092.479894366261,right,1,3,1.1806186733592767,L24I04,2022-12-01_15h45.33.235,t1_Paradigm,2021.1.4,59.942080596870014,
Q,left,Pretarget,0,35,35,35,2093.9784209219506,2095.9777337637206,left,1,3,0.6747348409553524,L24I04,2022-12-01_15h45.33.235,t1_Paradigm,2021.1.4,59.942080596870014,
S,left,Pretarget,0,36,36,36,2097.478188019566,2099.4795928122185,left,1,3,0.8050385828828439,L24I04,2022-12-01_15h45.33.235,t1_Paradigm,2021.1.4,59.942080596870014,
W,left,Distractor,0,37,37,37,2100.978074776416,2102.979904952721,left,1,3,0.9685373282118235,L24I04,2022-12-01_15h45.33.235,t1_Paradigm,2021.1.4,59.942080596870014,
Q,right,Target,0,38,38,38,2104.4783060747723,2106.4797041305865,right,1,3,0.6047367722203489,L24I04,2022-12-01_15h45.33.235,t1_Paradigm,2021.1.4,59.942080596870014,
S,right,Target,0,39,39,39,2107.978095628554,2109.9795896041906,None,0,3,,L24I04,2022-12-01_15h45.33.235,t1_Paradigm,2021.1.4,59.942080596870014,
T,left,Distractor,0,40,40,40,2111.4780606611166,2113.479673654365,left,1,3,0.8527627161238343,L24I04,2022-12-01_15h45.33.235,t1_Paradigm,2021.1.4,59.942080596870014,
G,left,Distractor,0,41,41,41,2114.9782448015467,2116.9796386869275,left,1,3,1.0007561306993011,L24I04,2022-12-01_15h45.33.235,t1_Paradigm,2021.1.4,59.942080596870014,
D,left,Distractor,0,42,42,42,2118.4781581849675,2120.48052474251,None,0,3,,L24I04,2022-12-01_15h45.33.235,t1_Paradigm,2021.1.4,59.942080596870014,
S,left,Lure,0,43,43,43,2121.9780404505727,2123.977665112063,None,0,3,,L24I04,2022-12-01_15h45.33.235,t1_Paradigm,2021.1.4,59.942080596870014,
Z,left,Pretarget,0,44,44,44,2125.47780081135,2127.4796162307903,left,1,3,0.8687835759483278,L24I04,2022-12-01_15h45.33.235,t1_Paradigm,2021.1.4,59.942080596870014,
J,left,Distractor,0,45,45,45,2128.978345212643,2130.979813844926,left,1,3,0.7765266493661329,L24I04,2022-12-01_15h45.33.235,t1_Paradigm,2021.1.4,59.942080596870014,
M,left,Pretarget,0,46,46,46,2132.478225232626,2134.4796451029833,None,0,3,,L24I04,2022-12-01_15h45.33.235,t1_Paradigm,2021.1.4,59.942080596870014,
Z,right,Target,0,47,47,47,2135.9778928815795,2137.9800165918714,left,0,3,1.3285517771728337,L24I04,2022-12-01_15h45.33.235,t1_Paradigm,2021.1.4,59.942080596870014,
P,left,Distractor,0,48,48,48,2139.4780054831353,2141.478900841961,left,1,3,1.1255022959958296,L24I04,2022-12-01_15h45.33.235,t1_Paradigm,2021.1.4,59.942080596870014,
M,right,Target,0,49,49,49,2142.9782277990307,2144.979887308611,left,0,3,1.0007416945882142,L24I04,2022-12-01_15h45.33.235,t1_Paradigm,2021.1.4,59.942080596870014,
K,left,Distractor,0,50,50,50,2146.4778168514604,2148.479861644446,left,1,3,1.0045608443033416,L24I04,2022-12-01_15h45.33.235,t1_Paradigm,2021.1.4,59.942080596870014,
Y,left,Distractor,0,51,51,51,2149.978213042137,2151.977607046865,None,0,3,,L24I04,2022-12-01_15h45.33.235,t1_Paradigm,2021.1.4,59.942080596870014,
X,left,Distractor,0,52,52,52,2153.4781575433735,2155.479155558889,left,1,3,0.9332455618714448,L24I04,2022-12-01_15h45.33.235,t1_Paradigm,2021.1.4,59.942080596870014,
F,left,Pretarget,0,53,53,53,2156.9781986060552,2158.9781649218057,left,1,3,0.7943010137823876,L24I04,2022-12-01_15h45.33.235,t1_Paradigm,2021.1.4,59.942080596870014,
M,left,Lure,0,54,54,54,2160.4781844907557,2162.479733965185,right,0,3,0.9567228262894787,L24I04,2022-12-01_15h45.33.235,t1_Paradigm,2021.1.4,59.942080596870014,
V,left,Distractor,0,55,55,55,2163.9778688214137,2165.9795418046706,left,1,3,0.9611174950550776,L24I04,2022-12-01_15h45.33.235,t1_Paradigm,2021.1.4,59.942080596870014,
F,right,Target,0,56,56,56,2167.4782236285973,2169.479444922443,None,0,3,,L24I04,2022-12-01_15h45.33.235,t1_Paradigm,2021.1.4,59.942080596870014,
S,left,Distractor,0,57,57,57,2170.978090495715,2172.9796033987077,None,0,3,,L24I04,2022-12-01_15h45.33.235,t1_Paradigm,2021.1.4,59.942080596870014,
D,left,Distractor,0,58,58,58,2174.478239668708,2176.4797474388615,left,1,3,0.828826062992448,L24I04,2022-12-01_15h45.33.235,t1_Paradigm,2021.1.4,59.942080596870014,
F,right,Target,0,59,59,59,2177.9780481498165,2179.979075679148,right,1,3,0.7534276106744073,L24I04,2022-12-01_15h45.33.235,t1_Paradigm,2021.1.4,59.942080596870014,
V,left,Pretarget,0,60,60,60,2181.4781851323496,2183.490838211117,left,1,3,1.033723685395671,L24I04,2022-12-01_15h45.33.235,t1_Paradigm,2021.1.4,59.942080596870014,
J,left,Distractor,0,61,61,61,2184.978406165028,2186.979822506575,left,1,3,0.8566408934129868,L24I04,2022-12-01_15h45.33.235,t1_Paradigm,2021.1.4,59.942080596870014,
V,left,Lure,0,62,62,62,2188.4778293627605,2190.4791834686766,left,1,3,0.5571114460180979,L24I04,2022-12-01_15h45.33.235,t1_Paradigm,2021.1.4,59.942080596870014,
V,right,Target,0,63,63,63,2191.978007087164,2193.978342004615,right,1,3,1.0741521359304897,L24I04,2022-12-01_15h45.33.235,t1_Paradigm,2021.1.4,59.942080596870014,
R,left,Distractor,0,0,0,0,2303.094252636831,2305.096955074201,None,0,4,,L24I04,2022-12-01_15h45.33.235,t1_Paradigm,2021.1.4,59.942080596870014,
F,left,Distractor,0,1,1,1,2306.594634070585,2308.596077038703,None,0,4,,L24I04,2022-12-01_15h45.33.235,t1_Paradigm,2021.1.4,59.942080596870014,
P,left,Pretarget,0,2,2,2,2310.094980536931,2312.094449288561,None,0,4,,L24I04,2022-12-01_15h45.33.235,t1_Paradigm,2021.1.4,59.942080596870014,
H,left,Distractor,0,3,3,3,2313.594501579297,2315.5967481568223,None,0,4,,L24I04,2022-12-01_15h45.33.235,t1_Paradigm,2021.1.4,59.942080596870014,
Z,left,Distractor,0,4,4,4,2317.094668717211,2319.097292878898,left,1,4,0.6433587857754901,L24I04,2022-12-01_15h45.33.235,t1_Paradigm,2021.1.4,59.942080596870014,
T,left,Distractor,0,5,5,5,2320.5949211885163,2322.5958829534065,left,1,4,0.872692229488166,L24I04,2022-12-01_15h45.33.235,t1_Paradigm,2021.1.4,59.942080596870014,
P,right,Target,0,6,6,6,2324.0949574391707,2326.095027053234,None,0,4,,L24I04,2022-12-01_15h45.33.235,t1_Paradigm,2021.1.4,59.942080596870014,
G,left,Distractor,0,7,7,7,2327.5950142211514,2329.5959727780137,left,1,4,0.8806933560990728,L24I04,2022-12-01_15h45.33.235,t1_Paradigm,2021.1.4,59.942080596870014,
L,left,Distractor,0,8,8,8,2331.094752446603,2333.095737309224,left,1,4,0.7568573065509554,L24I04,2022-12-01_15h45.33.235,t1_Paradigm,2021.1.4,59.942080596870014,
P,left,Lure,0,9,9,9,2334.5949298501946,2336.5962663119717,None,0,4,,L24I04,2022-12-01_15h45.33.235,t1_Paradigm,2021.1.4,59.942080596870014,
Q,left,Pretarget,0,10,10,10,2338.0949183013,2340.0963455501187,left,1,4,0.7161439837072976,L24I04,2022-12-01_15h45.33.235,t1_Paradigm,2021.1.4,59.942080596870014,
D,left,Distractor,0,11,11,11,2341.594879163429,2343.5957793343114,left,1,4,0.8006012474070303,L24I04,2022-12-01_15h45.33.235,t1_Paradigm,2021.1.4,59.942080596870014,
M,left,Pretarget,0,12,12,12,2345.094520185812,2347.0961055900843,left,1,4,0.6926006340363529,L24I04,2022-12-01_15h45.33.235,t1_Paradigm,2021.1.4,59.942080596870014,
C,left,Distractor,0,13,13,13,2348.5946651884005,2350.596715114196,left,1,4,0.8398866798379458,L24I04,2022-12-01_15h45.33.235,t1_Paradigm,2021.1.4,59.942080596870014,
Q,right,Target,0,14,14,14,2352.0949875945807,2354.0957937703934,left,0,4,0.7648821725742891,L24I04,2022-12-01_15h45.33.235,t1_Paradigm,2021.1.4,59.942080596870014,
R,left,Distractor,0,15,15,15,2355.5949991434463,2357.5962098508026,None,0,4,,L24I04,2022-12-01_15h45.33.235,t1_Paradigm,2021.1.4,59.942080596870014,
M,right,Target,0,16,16,16,2359.0949481358984,2361.096325981169,right,1,4,1.268171998730395,L24I04,2022-12-01_15h45.33.235,t1_Paradigm,2021.1.4,59.942080596870014,
S,left,Distractor,0,17,17,17,2362.594942040654,2364.5949304917885,None,0,4,,L24I04,2022-12-01_15h45.33.235,t1_Paradigm,2021.1.4,59.942080596870014,
Z,left,Distractor,0,18,18,18,2366.094825910288,2368.095137729979,left,1,4,0.07718147072591819,L24I04,2022-12-01_15h45.33.235,t1_Paradigm,2021.1.4,59.942080596870014,
L,left,Pretarget,0,19,19,19,2369.5944804063474,2371.5962268533185,None,0,4,,L24I04,2022-12-01_15h45.33.235,t1_Paradigm,2021.1.4,59.942080596870014,
M,right,Target,0,20,20,20,2373.094905148406,2375.0958758957568,None,0,4,,L24I04,2022-12-01_15h45.33.235,t1_Paradigm,2021.1.4,59.942080596870014,
P,left,Distractor,0,21,21,21,2376.594949739927,2378.5966015502345,None,0,4,,L24I04,2022-12-01_15h45.33.235,t1_Paradigm,2021.1.4,59.942080596870014,
F,left,Distractor,0,22,22,22,2380.0945092785405,2382.0945420003845,None,0,4,,L24I04,2022-12-01_15h45.33.235,t1_Paradigm,2021.1.4,59.942080596870014,
L,right,Target,0,23,23,23,2383.5949292085716,2385.595482271514,left,0,4,1.2972036317223683,L24I04,2022-12-01_15h45.33.235,t1_Paradigm,2021.1.4,59.942080596870014,
L,left,Lure,0,24,24,24,2387.0946979102155,2389.0948117949883,left,1,4,1.0298496785399038,L24I04,2022-12-01_15h45.33.235,t1_Paradigm,2021.1.4,59.942080596870014,
V,left,Pretarget,0,25,25,25,2390.5946626219957,2392.5948150030163,left,1,4,1.0978709643823095,L24I04,2022-12-01_15h45.33.235,t1_Paradigm,2021.1.4,59.942080596870014,
Z,left,Distractor,0,26,26,26,2394.094873709808,2396.096888668166,left,1,4,0.891778033139417,L24I04,2022-12-01_15h45.33.235,t1_Paradigm,2021.1.4,59.942080596870014,
H,left,Distractor,0,27,27,27,2397.5951486372505,2399.595101158542,left,1,4,1.1055192086787429,L24I04,2022-12-01_15h45.33.235,t1_Paradigm,2021.1.4,59.942080596870014,
X,left,Distractor,0,28,28,28,2401.0950023514742,2403.0944281156117,left,1,4,0.7581998635723721,L24I04,2022-12-01_15h45.33.235,t1_Paradigm,2021.1.4,59.942080596870014,
V,right,Target,0,29,29,29,2404.5947713739297,2406.594997539447,None,0,4,,L24I04,2022-12-01_15h45.33.235,t1_Paradigm,2021.1.4,59.942080596870014,
C,left,Distractor,0,30,30,30,2408.0944557045877,2410.095664487133,left,1,4,0.6528067301842384,L24I04,2022-12-01_15h45.33.235,t1_Paradigm,2021.1.4,59.942080596870014,
S,left,Pretarget,0,31,31,31,2411.5946212385024,2413.5964392243477,left,1,4,1.28025918250205,L24I04,2022-12-01_15h45.33.235,t1_Paradigm,2021.1.4,59.942080596870014,
D,left,Distractor,0,32,32,32,2415.095077419188,2417.0967972395592,left,1,4,0.787759536964586,L24I04,2022-12-01_15h45.33.235,t1_Paradigm,2021.1.4,59.942080596870014,
V,left,Distractor,0,33,33,33,2418.59493787025,2420.5960093494505,left,1,4,1.1287093551654834,L24I04,2022-12-01_15h45.33.235,t1_Paradigm,2021.1.4,59.942080596870014,
R,left,Distractor,0,34,34,34,2422.094967384037,2424.0962961465702,None,0,4,,L24I04,2022-12-01_15h45.33.235,t1_Paradigm,2021.1.4,59.942080596870014,
S,right,Target,0,35,35,35,2425.5947877348226,2427.5951316347346,left,0,4,0.8655158851470333,L24I04,2022-12-01_15h45.33.235,t1_Paradigm,2021.1.4,59.942080596870014,
Y,left,Distractor,0,36,36,36,2429.094550341222,2431.095722231519,left,1,4,0.9809629582741763,L24I04,2022-12-01_15h45.33.235,t1_Paradigm,2021.1.4,59.942080596870014,
N,left,Pretarget,0,37,37,37,2432.594650431507,2434.5963426629023,left,1,4,1.1601659317093436,L24I04,2022-12-01_15h45.33.235,t1_Paradigm,2021.1.4,59.942080596870014,
Z,left,Pretarget,0,38,38,38,2436.094933379005,2438.096874232084,left,1,4,0.7477911167370621,L24I04,2022-12-01_15h45.33.235,t1_Paradigm,2021.1.4,59.942080596870014,
P,left,Pretarget,0,39,39,39,2439.5948445168033,2441.595885199,left,1,4,0.8647620000701863,L24I04,2022-12-01_15h45.33.235,t1_Paradigm,2021.1.4,59.942080596870014,
M,left,Distractor,0,40,40,40,2443.094972196064,2445.096714472602,None,0,4,,L24I04,2022-12-01_15h45.33.235,t1_Paradigm,2021.1.4,59.942080596870014,
N,right,Target,0,41,41,41,2446.5951316347346,2448.596782803448,None,0,4,,L24I04,2022-12-01_15h45.33.235,t1_Paradigm,2021.1.4,59.942080596870014,
Z,right,Target,0,42,42,42,2450.094981820119,2452.096865249623,None,0,4,,L24I04,2022-12-01_15h45.33.235,t1_Paradigm,2021.1.4,59.942080596870014,
P,right,Target,0,43,43,43,2453.5951091785973,2455.596968227095,None,0,4,,L24I04,2022-12-01_15h45.33.235,t1_Paradigm,2021.1.4,59.942080596870014,
X,left,Pretarget,0,44,44,44,2457.0947790731734,2459.095815264154,left,1,4,1.380907010345254,L24I04,2022-12-01_15h45.33.235,t1_Paradigm,2021.1.4,59.942080596870014,
Z,left,Lure,0,45,45,45,2460.59503346929,2462.5961966979085,None,0,4,,L24I04,2022-12-01_15h45.33.235,t1_Paradigm,2021.1.4,59.942080596870014,
R,left,Pretarget,0,46,46,46,2464.0950479053718,2466.0950963465148,None,0,4,,L24I04,2022-12-01_15h45.33.235,t1_Paradigm,2021.1.4,59.942080596870014,
K,left,Distractor,0,47,47,47,2467.5950411685335,2469.5966631442425,None,0,4,,L24I04,2022-12-01_15h45.33.235,t1_Paradigm,2021.1.4,59.942080596870014,
X,right,Target,0,48,48,48,2471.094976687309,2473.0969486581744,left,0,4,1.0436088831338566,L24I04,2022-12-01_15h45.33.235,t1_Paradigm,2021.1.4,59.942080596870014,
B,left,Distractor,0,49,49,49,2474.594663584401,2476.5945343011117,left,1,4,0.9220466792758089,L24I04,2022-12-01_15h45.33.235,t1_Paradigm,2021.1.4,59.942080596870014,
R,right,Target,0,50,50,50,2478.0949715544702,2480.096239043807,None,0,4,,L24I04,2022-12-01_15h45.33.235,t1_Paradigm,2021.1.4,59.942080596870014,
Y,left,Pretarget,0,51,51,51,2481.5945288474904,2483.595133238763,left,1,4,0.9295338808733504,L24I04,2022-12-01_15h45.33.235,t1_Paradigm,2021.1.4,59.942080596870014,
W,left,Pretarget,0,52,52,52,2485.0951781510666,2487.0959532090637,left,1,4,0.8366193098481745,L24I04,2022-12-01_15h45.33.235,t1_Paradigm,2021.1.4,59.942080596870014,
Z,left,Distractor,0,53,53,53,2488.595011333935,2490.5967202470347,left,1,4,1.2399487871443853,L24I04,2022-12-01_15h45.33.235,t1_Paradigm,2021.1.4,59.942080596870014,
Q,left,Distractor,0,54,54,54,2492.09485285767,2494.096940638119,left,1,4,0.8756391181086656,L24I04,2022-12-01_15h45.33.235,t1_Paradigm,2021.1.4,59.942080596870014,
Y,right,Target,0,55,55,55,2495.5951749430387,2497.5957658606058,left,0,4,0.8007918038929347,L24I04,2022-12-01_15h45.33.235,t1_Paradigm,2021.1.4,59.942080596870014,
W,right,Target,0,56,56,56,2499.095007484313,2501.0944188123394,right,1,4,0.8381957316596527,L24I04,2022-12-01_15h45.33.235,t1_Paradigm,2021.1.4,59.942080596870014,
H,left,Pretarget,0,57,57,57,2502.59506169986,2504.594566702144,left,1,4,0.8101242595002986,L24I04,2022-12-01_15h45.33.235,t1_Paradigm,2021.1.4,59.942080596870014,
M,left,Distractor,0,58,58,58,2506.0941843059554,2508.0945073537296,right,0,4,1.31014639485511,L24I04,2022-12-01_15h45.33.235,t1_Paradigm,2021.1.4,59.942080596870014,
R,left,Pretarget,0,59,59,59,2509.594724536815,2511.5944255491777,left,1,4,1.04226311808452,L24I04,2022-12-01_15h45.33.235,t1_Paradigm,2021.1.4,59.942080596870014,
J,left,Distractor,0,60,60,60,2513.0949677048484,2515.096229098941,left,1,4,0.8523238587658852,L24I04,2022-12-01_15h45.33.235,t1_Paradigm,2021.1.4,59.942080596870014,
H,right,Target,0,61,61,61,2516.594982461742,2518.5966095702897,left,0,4,1.015983967576176,L24I04,2022-12-01_15h45.33.235,t1_Paradigm,2021.1.4,59.942080596870014,
Z,left,Distractor,0,62,62,62,2520.0951008377306,2522.096240326995,None,0,4,,L24I04,2022-12-01_15h45.33.235,t1_Paradigm,2021.1.4,59.942080596870014,
R,right,Target,0,63,63,63,2523.5950004266633,2525.594487143215,None,0,4,,L24I04,2022-12-01_15h45.33.235,t1_Paradigm,2021.1.4,59.942080596870014,
J,left,Pretarget,0,0,0,0,2537.224251616688,2539.2292776241084,None,0,4,,L24I04,2022-12-01_15h45.33.235,t1_Paradigm,2021.1.4,59.942080596870014,
G,left,Pretarget,0,1,1,1,2540.728459899401,2542.727862565778,None,0,4,,L24I04,2022-12-01_15h45.33.235,t1_Paradigm,2021.1.4,59.942080596870014,
Z,left,Distractor,0,2,2,2,2544.2283161800297,2546.2291990275844,None,0,4,,L24I04,2022-12-01_15h45.33.235,t1_Paradigm,2021.1.4,59.942080596870014,
F,left,Distractor,0,3,3,3,2547.728211598529,2549.730017073074,left,1,4,0.8108364403015003,L24I04,2022-12-01_15h45.33.235,t1_Paradigm,2021.1.4,59.942080596870014,
J,right,Target,0,4,4,4,2551.2283331825456,2553.2294813334884,left,0,4,1.1349900198401883,L24I04,2022-12-01_15h45.33.235,t1_Paradigm,2021.1.4,59.942080596870014,
G,right,Target,0,5,5,5,2554.7277775531984,2556.7281070170284,left,0,4,1.0925690670846961,L24I04,2022-12-01_15h45.33.235,t1_Paradigm,2021.1.4,59.942080596870014,
H,left,Distractor,0,6,6,6,2558.2282513779937,2560.2301091433037,left,1,4,0.9984030468331184,L24I04,2022-12-01_15h45.33.235,t1_Paradigm,2021.1.4,59.942080596870014,
P,left,Distractor,0,7,7,7,2561.7280672375637,2563.7279039492714,left,1,4,0.7648186537262518,L24I04,2022-12-01_15h45.33.235,t1_Paradigm,2021.1.4,59.942080596870014,
G,left,Lure,0,8,8,8,2565.227900420432,2567.229400491342,None,0,4,,L24I04,2022-12-01_15h45.33.235,t1_Paradigm,2021.1.4,59.942080596870014,
S,left,Distractor,0,9,9,9,2568.7279491823574,2570.7281188867055,None,0,4,,L24I04,2022-12-01_15h45.33.235,t1_Paradigm,2021.1.4,59.942080596870014,
R,left,Pretarget,0,10,10,10,2572.2284967916494,2574.229559609201,None,0,4,,L24I04,2022-12-01_15h45.33.235,t1_Paradigm,2021.1.4,59.942080596870014,
T,left,Pretarget,0,11,11,11,2575.728165082226,2577.728077824024,left,1,4,1.1806491495808586,L24I04,2022-12-01_15h45.33.235,t1_Paradigm,2021.1.4,59.942080596870014,
X,left,Distractor,0,12,12,12,2579.228035478154,2581.2292529223487,left,1,4,1.0713419090316165,L24I04,2022-12-01_15h45.33.235,t1_Paradigm,2021.1.4,59.942080596870014,
F,left,Pretarget,0,13,13,13,2582.7282956487034,2584.7408018000715,None,0,4,,L24I04,2022-12-01_15h45.33.235,t1_Paradigm,2021.1.4,59.942080596870014,
R,right,Target,0,14,14,14,2586.2283906061202,2588.22790362846,left,0,4,1.0968322069966234,L24I04,2022-12-01_15h45.33.235,t1_Paradigm,2021.1.4,59.942080596870014,
T,right,Target,0,15,15,15,2589.7283437690057,2591.730676642328,None,0,4,,L24I04,2022-12-01_15h45.33.235,t1_Paradigm,2021.1.4,59.942080596870014,
C,left,Distractor,0,16,16,16,2593.2274009314715,2595.229230145371,None,0,4,,L24I04,2022-12-01_15h45.33.235,t1_Paradigm,2021.1.4,59.942080596870014,
F,right,Target,0,17,17,17,2596.728289553459,2598.727899778838,left,0,4,1.204725672461791,L24I04,2022-12-01_15h45.33.235,t1_Paradigm,2021.1.4,59.942080596870014,
M,left,Distractor,0,18,18,18,2600.2285288718704,2602.2275109666225,left,1,4,1.3530267362948507,L24I04,2022-12-01_15h45.33.235,t1_Paradigm,2021.1.4,59.942080596870014,
N,left,Distractor,0,19,19,19,2603.728015588422,2605.729335047683,None,0,4,,L24I04,2022-12-01_15h45.33.235,t1_Paradigm,2021.1.4,59.942080596870014,
R,left,Lure,0,20,20,20,2607.2284249319637,2609.230266657163,None,0,4,,L24I04,2022-12-01_15h45.33.235,t1_Paradigm,2021.1.4,59.942080596870014,
F,right,Target,0,21,21,21,2610.7285490824142,2612.7276611020206,None,0,4,,L24I04,2022-12-01_15h45.33.235,t1_Paradigm,2021.1.4,59.942080596870014,
P,left,Distractor,0,22,22,22,2614.2283941349597,2616.230813624832,None,0,4,,L24I04,2022-12-01_15h45.33.235,t1_Paradigm,2021.1.4,59.942080596870014,
L,left,Pretarget,0,23,23,23,2617.7284371224523,2619.7407992336666,left,1,4,1.3918242286308669,L24I04,2022-12-01_15h45.33.235,t1_Paradigm,2021.1.4,59.942080596870014,
T,left,Distractor,0,24,24,24,2621.228235017101,2623.229083538812,None,0,4,,L24I04,2022-12-01_15h45.33.235,t1_Paradigm,2021.1.4,59.942080596870014,
F,left,Distractor,0,25,25,25,2624.728247528372,2626.729355899821,None,0,4,,L24I04,2022-12-01_15h45.33.235,t1_Paradigm,2021.1.4,59.942080596870014,
V,left,Distractor,0,26,26,26,2628.228299498325,2630.2284679194563,None,0,4,,L24I04,2022-12-01_15h45.33.235,t1_Paradigm,2021.1.4,59.942080596870014,
L,right,Target,0,27,27,27,2631.72833927779,2633.7278753978608,None,0,4,,L24I04,2022-12-01_15h45.33.235,t1_Paradigm,2021.1.4,59.942080596870014,
S,left,Pretarget,0,28,28,28,2635.2285009620828,2637.2279851122003,left,1,4,1.3927673869766295,L24I04,2022-12-01_15h45.33.235,t1_Paradigm,2021.1.4,59.942080596870014,
W,left,Distractor,0,29,29,29,2638.7284810723504,2640.7282125609345,left,1,4,0.7724341762077529,L24I04,2022-12-01_15h45.33.235,t1_Paradigm,2021.1.4,59.942080596870014,
Q,left,Distractor,0,30,30,30,2642.2284570121847,2644.228647889453,left,1,4,0.9198312195658218,L24I04,2022-12-01_15h45.33.235,t1_Paradigm,2021.1.4,59.942080596870014,
L,right,Target,0,31,31,31,2645.7283925309603,2647.7286148468556,None,0,4,,L24I04,2022-12-01_15h45.33.235,t1_Paradigm,2021.1.4,59.942080596870014,
S,right,Target,0,32,32,32,2649.2279944154725,2651.2285651224956,None,0,4,,L24I04,2022-12-01_15h45.33.235,t1_Paradigm,2021.1.4,59.942080596870014,
Z,left,Pretarget,0,33,33,33,2652.728488771594,2654.7301700957178,left,1,4,1.3786684528749902,L24I04,2022-12-01_15h45.33.235,t1_Paradigm,2021.1.4,59.942080596870014,
F,left,Distractor,0,34,34,34,2656.228306555975,2658.229182345851,left,1,4,1.3354820661770646,L24I04,2022-12-01_15h45.33.235,t1_Paradigm,2021.1.4,59.942080596870014,
V,left,Distractor,0,35,35,35,2659.7284833179438,2661.7296465465915,left,1,4,1.3710561384505127,L24I04,2022-12-01_15h45.33.235,t1_Paradigm,2021.1.4,59.942080596870014,
M,left,Distractor,0,36,36,36,2663.22834986425,2665.230385674775,left,1,4,1.262420978397131,L24I04,2022-12-01_15h45.33.235,t1_Paradigm,2021.1.4,59.942080596870014,
Z,right,Target,0,37,37,37,2666.728410816664,2668.729882656975,None,0,4,,L24I04,2022-12-01_15h45.33.235,t1_Paradigm,2021.1.4,59.942080596870014,
H,left,Pretarget,0,38,38,38,2670.2284031174204,2672.230290717329,left,1,4,0.9983372823917307,L24I04,2022-12-01_15h45.33.235,t1_Paradigm,2021.1.4,59.942080596870014,
L,left,Distractor,0,39,39,39,2673.72830912238,2675.730132241064,left,1,4,0.9385882010101341,L24I04,2022-12-01_15h45.33.235,t1_Paradigm,2021.1.4,59.942080596870014,
G,left,Distractor,0,40,40,40,2677.2280547262635,2679.227931859059,left,1,4,1.0726584810763597,L24I04,2022-12-01_15h45.33.235,t1_Paradigm,2021.1.4,59.942080596870014,
K,left,Distractor,0,41,41,41,2680.728361733927,2682.7300023161806,left,1,4,0.9948450301017147,L24I04,2022-12-01_15h45.33.235,t1_Paradigm,2021.1.4,59.942080596870014,
H,right,Target,0,42,42,42,2684.2283729620103,2686.2300892535714,None,0,4,,L24I04,2022-12-01_15h45.33.235,t1_Paradigm,2021.1.4,59.942080596870014,
B,left,Distractor,0,43,43,43,2687.7282728717546,2689.7284740147006,left,1,4,0.9562323197897058,L24I04,2022-12-01_15h45.33.235,t1_Paradigm,2021.1.4,59.942080596870014,
Z,left,Distractor,0,44,44,44,2691.228347297845,2693.2289436690626,None,0,4,,L24I04,2022-12-01_15h45.33.235,t1_Paradigm,2021.1.4,59.942080596870014,
T,left,Pretarget,0,45,45,45,2694.7283604507393,2696.729160210525,None,0,4,,L24I04,2022-12-01_15h45.33.235,t1_Paradigm,2021.1.4,59.942080596870014,
H,right,Target,0,46,46,46,2698.228262606077,2700.2295031480317,left,0,4,1.1752753925975412,L24I04,2022-12-01_15h45.33.235,t1_Paradigm,2021.1.4,59.942080596870014,
F,left,Distractor,0,47,47,47,2701.728448671318,2703.7283691123885,left,1,4,1.1964152925065719,L24I04,2022-12-01_15h45.33.235,t1_Paradigm,2021.1.4,59.942080596870014,
R,left,Distractor,0,48,48,48,2705.228582445823,2707.2292189173168,left,1,4,0.7833334295719396,L24I04,2022-12-01_15h45.33.235,t1_Paradigm,2021.1.4,59.942080596870014,
T,right,Target,0,49,49,49,2708.7283428066003,2710.7284942252445,left,0,4,0.932601070322562,L24I04,2022-12-01_15h45.33.235,t1_Paradigm,2021.1.4,59.942080596870014,
H,right,Target,0,50,50,50,2712.227996019472,2714.228645323048,left,0,4,1.2720655745361,L24I04,2022-12-01_15h45.33.235,t1_Paradigm,2021.1.4,59.942080596870014,
Y,left,Pretarget,0,51,51,51,2715.728382586094,2717.7299942961254,None,0,4,,L24I04,2022-12-01_15h45.33.235,t1_Paradigm,2021.1.4,59.942080596870014,
H,left,Distractor,0,52,52,52,2719.228354355495,2721.2300206019136,None,0,4,,L24I04,2022-12-01_15h45.33.235,t1_Paradigm,2021.1.4,59.942080596870014,
S,left,Distractor,0,53,53,53,2722.7282209018013,2724.728399588581,None,0,4,,L24I04,2022-12-01_15h45.33.235,t1_Paradigm,2021.1.4,59.942080596870014,
Q,left,Distractor,0,54,54,54,2726.2283925309603,2728.2288570524834,left,1,4,1.239916065329453,L24I04,2022-12-01_15h45.33.235,t1_Paradigm,2021.1.4,59.942080596870014,
Y,right,Target,0,55,55,55,2729.728380661254,2731.728403438232,left,0,4,0.7804407565272413,L24I04,2022-12-01_15h45.33.235,t1_Paradigm,2021.1.4,59.942080596870014,
R,left,Distractor,0,56,56,56,2733.227910365298,2735.229253243131,left,1,4,1.24759574822383,L24I04,2022-12-01_15h45.33.235,t1_Paradigm,2021.1.4,59.942080596870014,
H,left,Pretarget,0,57,57,57,2736.728450596129,2738.7289330825733,None,0,4,,L24I04,2022-12-01_15h45.33.235,t1_Paradigm,2021.1.4,59.942080596870014,
J,left,Distractor,0,58,58,58,2740.228268701321,2742.227680350159,None,0,4,,L24I04,2022-12-01_15h45.33.235,t1_Paradigm,2021.1.4,59.942080596870014,
V,left,Distractor,0,59,59,59,2743.7284207615303,2745.7282834582147,None,0,4,,L24I04,2022-12-01_15h45.33.235,t1_Paradigm,2021.1.4,59.942080596870014,
Y,left,Lure,0,60,60,60,2747.2284582954017,2749.2303080406273,left,1,4,1.2945627883600537,L24I04,2022-12-01_15h45.33.235,t1_Paradigm,2021.1.4,59.942080596870014,
H,right,Target,0,61,61,61,2750.728371999605,2752.7277573426836,right,1,4,0.8209170065529179,L24I04,2022-12-01_15h45.33.235,t1_Paradigm,2021.1.4,59.942080596870014,
L,left,Distractor,0,62,62,62,2754.227916139731,2756.228123698733,left,1,4,1.1285255355178379,L24I04,2022-12-01_15h45.33.235,t1_Paradigm,2021.1.4,59.942080596870014,
P,left,Distractor,0,63,63,63,2757.7286267165327,2759.729783849907,left,1,4,1.0029520214593504,L24I04,2022-12-01_15h45.33.235,t1_Paradigm,2021.1.4,59.942080596870014,
