Letter,CorrAnswer,Stimulus,finaln_nback_run.thisRepN,finaln_nback_run.thisTrialN,finaln_nback_run.thisN,finaln_nback_run.thisIndex,finaln_fixcross.started,finaln_nback_trial.started,finaln_trial_resp.keys,finaln_trial_resp.corr,finaln_level,finaln_money,finaln_trial_resp.rt,Participant,date,expName,psychopyVersion,frameRate,
D,left,Distractor,0,0,0,0,3147.247700008913,3149.245342433831,None,0,2,3.0,,L24I04,2022-12-01_15h45.33.235,t1_Paradigm,2021.1.4,59.942080596870014,
M,left,Pretarget,0,1,1,1,3150.7449584336428,3152.7296699651342,None,0,2,3.0,,L24I04,2022-12-01_15h45.33.235,t1_Paradigm,2021.1.4,59.942080596870014,
T,left,Distractor,0,2,2,2,3154.228516039788,3156.2306455245125,None,0,2,3.0,,L24I04,2022-12-01_15h45.33.235,t1_Paradigm,2021.1.4,59.942080596870014,
G,left,Pretarget,0,3,3,3,3157.7284858843777,3159.7297447120363,left,1,2,3.0,0.939159228844801,L24I04,2022-12-01_15h45.33.235,t1_Paradigm,2021.1.4,59.942080596870014,
M,right,Target,0,4,4,4,3161.2449584336428,3163.229509243276,None,0,2,3.0,,L24I04,2022-12-01_15h45.33.235,t1_Paradigm,2021.1.4,59.942080596870014,
P,left,Distractor,0,5,5,5,3164.7448913860135,3166.7297973236127,None,0,2,3.0,,L24I04,2022-12-01_15h45.33.235,t1_Paradigm,2021.1.4,59.942080596870014,
G,right,Target,0,6,6,6,3168.2447303433146,3170.2305662863655,None,0,2,3.0,,L24I04,2022-12-01_15h45.33.235,t1_Paradigm,2021.1.4,59.942080596870014,
J,left,Distractor,0,7,7,7,3171.7449202582065,3173.729351408605,left,1,2,3.0,1.2754959120065905,L24I04,2022-12-01_15h45.33.235,t1_Paradigm,2021.1.4,59.942080596870014,
M,left,Lure,0,8,8,8,3175.228479468322,3177.2299538750667,None,0,2,3.0,,L24I04,2022-12-01_15h45.33.235,t1_Paradigm,2021.1.4,59.942080596870014,
F,left,Pretarget,0,9,9,9,3178.7287210323557,3180.730246125837,left,1,2,3.0,1.3628099189372733,L24I04,2022-12-01_15h45.33.235,t1_Paradigm,2021.1.4,59.942080596870014,
R,left,Distractor,0,10,10,10,3182.2286703456193,3184.2307680709346,None,0,2,3.0,,L24I04,2022-12-01_15h45.33.235,t1_Paradigm,2021.1.4,59.942080596870014,
G,left,Distractor,0,11,11,11,3185.7285702553345,3187.728661042347,left,1,2,3.0,1.212406959355576,L24I04,2022-12-01_15h45.33.235,t1_Paradigm,2021.1.4,59.942080596870014,
F,right,Target,0,12,12,12,3189.2287707566866,3191.2279559191957,None,0,2,3.0,,L24I04,2022-12-01_15h45.33.235,t1_Paradigm,2021.1.4,59.942080596870014,
F,left,Lure,0,13,13,13,3192.7286745160527,3194.7287280900055,None,0,2,3.0,,L24I04,2022-12-01_15h45.33.235,t1_Paradigm,2021.1.4,59.942080596870014,
S,left,Distractor,0,14,14,14,3196.228167648631,3198.2279074780818,None,0,2,3.0,,L24I04,2022-12-01_15h45.33.235,t1_Paradigm,2021.1.4,59.942080596870014,
F,right,Target,0,15,15,15,3199.7286411526147,3201.7284236487467,None,0,2,3.0,,L24I04,2022-12-01_15h45.33.235,t1_Paradigm,2021.1.4,59.942080596870014,
T,left,Pretarget,0,16,16,16,3203.2285105861374,3205.2449635664816,left,1,2,3.0,0.9917755950591527,L24I04,2022-12-01_15h45.33.235,t1_Paradigm,2021.1.4,59.942080596870014,
Z,left,Distractor,0,17,17,17,3206.7285166813817,3208.728979278094,left,1,2,3.0,1.060281612968538,L24I04,2022-12-01_15h45.33.235,t1_Paradigm,2021.1.4,59.942080596870014,
W,left,Distractor,0,18,18,18,3210.2286193380714,3212.227965864062,left,1,2,3.0,1.0170086096622981,L24I04,2022-12-01_15h45.33.235,t1_Paradigm,2021.1.4,59.942080596870014,
T,right,Target,0,19,19,19,3213.7283835484996,3215.7304392487276,left,0,2,3.0,1.3065944733389188,L24I04,2022-12-01_15h45.33.235,t1_Paradigm,2021.1.4,59.942080596870014,
V,left,Distractor,0,20,20,20,3217.2286049019895,3219.2287110874895,left,1,2,3.0,0.8161713801964652,L24I04,2022-12-01_15h45.33.235,t1_Paradigm,2021.1.4,59.942080596870014,
N,left,Distractor,0,21,21,21,3220.7287807015528,3222.7298268373997,left,1,2,3.0,1.315227259445237,L24I04,2022-12-01_15h45.33.235,t1_Paradigm,2021.1.4,59.942080596870014,
P,left,Pretarget,0,22,22,22,3224.2285131525714,3226.2281718190643,left,1,2,3.0,1.1928916015895084,L24I04,2022-12-01_15h45.33.235,t1_Paradigm,2021.1.4,59.942080596870014,
T,left,Lure,0,23,23,23,3227.7285609520914,3229.7287839095807,left,1,2,3.0,1.4521193153050262,L24I04,2022-12-01_15h45.33.235,t1_Paradigm,2021.1.4,59.942080596870014,
L,left,Pretarget,0,24,24,24,3231.2286109972047,3233.2296372433193,left,1,2,3.0,1.4392984570295084,L24I04,2022-12-01_15h45.33.235,t1_Paradigm,2021.1.4,59.942080596870014,
P,right,Target,0,25,25,25,3234.7283710371994,3236.7288689221605,left,0,2,3.0,0.9642129151325207,L24I04,2022-12-01_15h45.33.235,t1_Paradigm,2021.1.4,59.942080596870014,
G,left,Pretarget,0,26,26,26,3238.228091618512,3240.2299250028736,left,1,2,3.0,1.0790835067455191,L24I04,2022-12-01_15h45.33.235,t1_Paradigm,2021.1.4,59.942080596870014,
L,right,Target,0,27,27,27,3241.728324200085,3243.7299006218964,None,0,2,3.0,,L24I04,2022-12-01_15h45.33.235,t1_Paradigm,2021.1.4,59.942080596870014,
F,left,Distractor,0,28,28,28,3245.2284371224523,3247.22813556841,None,0,2,3.0,,L24I04,2022-12-01_15h45.33.235,t1_Paradigm,2021.1.4,59.942080596870014,
G,right,Target,0,29,29,29,3248.7283437690057,3250.7278314479627,None,0,2,3.0,,L24I04,2022-12-01_15h45.33.235,t1_Paradigm,2021.1.4,59.942080596870014,
R,left,Pretarget,0,30,30,30,3252.22855357363,3254.2301777949615,left,1,2,3.0,1.2068468163488433,L24I04,2022-12-01_15h45.33.235,t1_Paradigm,2021.1.4,59.942080596870014,
X,left,Distractor,0,31,31,31,3255.7283816236595,3257.7292442606704,None,0,2,3.0,,L24I04,2022-12-01_15h45.33.235,t1_Paradigm,2021.1.4,59.942080596870014,
W,left,Distractor,0,32,32,32,3259.229363919876,3261.2289651627943,None,0,2,3.0,,L24I04,2022-12-01_15h45.33.235,t1_Paradigm,2021.1.4,59.942080596870014,
R,right,Target,0,33,33,33,3262.728579237795,3264.7285073781095,None,0,2,3.0,,L24I04,2022-12-01_15h45.33.235,t1_Paradigm,2021.1.4,59.942080596870014,
S,left,Distractor,0,34,34,34,3266.228197162418,3268.2280781448353,left,1,2,3.0,0.7451996768941171,L24I04,2022-12-01_15h45.33.235,t1_Paradigm,2021.1.4,59.942080596870014,
D,left,Distractor,0,35,35,35,3269.730401394074,3271.729993975314,left,1,2,3.0,1.019430024403846,L24I04,2022-12-01_15h45.33.235,t1_Paradigm,2021.1.4,59.942080596870014,
R,right,Target,0,36,36,36,3273.228588861879,3275.230756522069,left,0,2,3.0,0.6701688638422638,L24I04,2022-12-01_15h45.33.235,t1_Paradigm,2021.1.4,59.942080596870014,
T,left,Distractor,0,37,37,37,3276.744931807072,3278.72904953378,left,1,2,3.0,0.8358926929649897,L24I04,2022-12-01_15h45.33.235,t1_Paradigm,2021.1.4,59.942080596870014,
G,left,Distractor,0,38,38,38,3280.228589503473,3282.2281307563826,None,0,2,3.0,,L24I04,2022-12-01_15h45.33.235,t1_Paradigm,2021.1.4,59.942080596870014,
K,left,Pretarget,0,39,39,39,3283.7283062351635,3285.7295143760857,left,1,2,3.0,1.4193660564196762,L24I04,2022-12-01_15h45.33.235,t1_Paradigm,2021.1.4,59.942080596870014,
R,left,Lure,0,40,40,40,3287.244651425979,3289.2294277595065,left,1,2,3.0,0.8957319197361358,L24I04,2022-12-01_15h45.33.235,t1_Paradigm,2021.1.4,59.942080596870014,
Q,left,Pretarget,0,41,41,41,3290.744984097837,3292.7447537618864,left,1,2,3.0,0.7882298329204787,L24I04,2022-12-01_15h45.33.235,t1_Paradigm,2021.1.4,59.942080596870014,
K,right,Target,0,42,42,42,3294.2282799293753,3296.2286318493716,left,0,2,3.0,0.8563175248273183,L24I04,2022-12-01_15h45.33.235,t1_Paradigm,2021.1.4,59.942080596870014,
Z,left,Distractor,0,43,43,43,3297.728520210192,3299.7278773226717,None,0,2,3.0,,L24I04,2022-12-01_15h45.33.235,t1_Paradigm,2021.1.4,59.942080596870014,
Q,right,Target,0,44,44,44,3301.2283145760302,3303.229081613972,right,1,2,3.0,0.9436549503298011,L24I04,2022-12-01_15h45.33.235,t1_Paradigm,2021.1.4,59.942080596870014,
W,left,Distractor,0,45,45,45,3304.744551014912,3306.7292253333435,left,1,2,3.0,1.0599563195719384,L24I04,2022-12-01_15h45.33.235,t1_Paradigm,2021.1.4,59.942080596870014,
X,left,Distractor,0,46,46,46,3308.2448166391114,3310.230038566835,left,1,2,3.0,0.7909476688364521,L24I04,2022-12-01_15h45.33.235,t1_Paradigm,2021.1.4,59.942080596870014,
R,left,Distractor,0,47,47,47,3311.728353713872,3313.7282728717546,left,1,2,3.0,1.2127858267049305,L24I04,2022-12-01_15h45.33.235,t1_Paradigm,2021.1.4,59.942080596870014,
P,left,Pretarget,0,48,48,48,3315.22805248067,3317.229476521432,left,1,2,3.0,1.0072469207807444,L24I04,2022-12-01_15h45.33.235,t1_Paradigm,2021.1.4,59.942080596870014,
Z,left,Pretarget,0,49,49,49,3318.7284772227285,3320.7287713983096,left,1,2,3.0,0.7882567803317215,L24I04,2022-12-01_15h45.33.235,t1_Paradigm,2021.1.4,59.942080596870014,
V,left,Distractor,0,50,50,50,3322.2286411526147,3324.229948100605,None,0,2,3.0,,L24I04,2022-12-01_15h45.33.235,t1_Paradigm,2021.1.4,59.942080596870014,
P,right,Target,0,51,51,51,3325.728476901917,3327.730000712181,left,0,2,3.0,0.779109427559888,L24I04,2022-12-01_15h45.33.235,t1_Paradigm,2021.1.4,59.942080596870014,
Z,right,Target,0,52,52,52,3329.2284098542586,3331.2309919908585,None,0,2,3.0,,L24I04,2022-12-01_15h45.33.235,t1_Paradigm,2021.1.4,59.942080596870014,
H,left,Distractor,0,53,53,53,3332.7286199796654,3334.729441874806,left,1,2,3.0,0.8835330968431663,L24I04,2022-12-01_15h45.33.235,t1_Paradigm,2021.1.4,59.942080596870014,
L,left,Distractor,0,54,54,54,3336.228319067246,3338.2302012135333,left,1,2,3.0,0.7908835083944723,L24I04,2022-12-01_15h45.33.235,t1_Paradigm,2021.1.4,59.942080596870014,
Z,right,Target,0,55,55,55,3339.728245603561,3341.7279302550305,None,0,2,3.0,,L24I04,2022-12-01_15h45.33.235,t1_Paradigm,2021.1.4,59.942080596870014,
Z,left,Lure,0,56,56,56,3343.228326766519,3345.2286450022366,left,1,2,3.0,1.0883694460208062,L24I04,2022-12-01_15h45.33.235,t1_Paradigm,2021.1.4,59.942080596870014,
B,left,Distractor,0,57,57,57,3346.728591428284,3348.730119729764,left,1,2,3.0,1.2668477274128236,L24I04,2022-12-01_15h45.33.235,t1_Paradigm,2021.1.4,59.942080596870014,
J,left,Distractor,0,58,58,58,3350.2286344157765,3352.229572120501,None,0,2,3.0,,L24I04,2022-12-01_15h45.33.235,t1_Paradigm,2021.1.4,59.942080596870014,
X,left,Pretarget,0,59,59,59,3353.728588861879,3355.7297440704424,None,0,2,3.0,,L24I04,2022-12-01_15h45.33.235,t1_Paradigm,2021.1.4,59.942080596870014,
R,left,Distractor,0,60,60,60,3357.2449019724736,3359.229526887386,None,0,2,3.0,,L24I04,2022-12-01_15h45.33.235,t1_Paradigm,2021.1.4,59.942080596870014,
F,left,Distractor,0,61,61,61,3360.7285564608464,3362.730235860159,None,0,2,3.0,,L24I04,2022-12-01_15h45.33.235,t1_Paradigm,2021.1.4,59.942080596870014,
X,right,Target,0,62,62,62,3364.228425252775,3366.229774546664,right,1,2,3.0,1.0793241083447356,L24I04,2022-12-01_15h45.33.235,t1_Paradigm,2021.1.4,59.942080596870014,
T,left,Distractor,0,63,63,63,3367.7448506441433,3369.745285331068,None,0,2,3.0,,L24I04,2022-12-01_15h45.33.235,t1_Paradigm,2021.1.4,59.942080596870014,
