Letter,CorrAnswer,Stimulus,finaln_nback_run.thisRepN,finaln_nback_run.thisTrialN,finaln_nback_run.thisN,finaln_nback_run.thisIndex,finaln_fixcross.started,finaln_nback_trial.started,finaln_trial_resp.keys,finaln_trial_resp.corr,finaln_trial_resp.rt,finaln_level,finaln_money,Participant,date,expName,psychopyVersion,frameRate,
T,left,Distractor,0,0,0,0,2794.497592381318,2796.49231775559,left,1,0.6465801870217547,0,3.0,L29R12,2022-10-21_16h12.18.308,t1_Paradigm,2021.1.4,59.987568288396645,
F,left,Distractor,0,1,1,1,2797.9925413546152,2799.992307810695,left,1,0.6022001239471138,0,3.0,L29R12,2022-10-21_16h12.18.308,t1_Paradigm,2021.1.4,59.987568288396645,
G,left,Distractor,0,2,2,2,2801.492490026285,2803.4923620262416,left,1,0.5583599705714732,0,3.0,L29R12,2022-10-21_16h12.18.308,t1_Paradigm,2021.1.4,59.987568288396645,
V,left,Distractor,0,3,3,3,2804.9923013946973,2806.9922869586153,left,1,0.6264132929500192,0,3.0,L29R12,2022-10-21_16h12.18.308,t1_Paradigm,2021.1.4,59.987568288396645,
H,left,Distractor,0,4,4,4,2808.4924034096766,2810.492334116483,left,1,0.4863120223162696,0,3.0,L29R12,2022-10-21_16h12.18.308,t1_Paradigm,2021.1.4,59.987568288396645,
C,left,Pretarget,0,5,5,5,2811.992567018722,2813.992530768155,left,1,0.4582566082244739,0,3.0,L29R12,2022-10-21_16h12.18.308,t1_Paradigm,2021.1.4,59.987568288396645,
C,right,Target,0,6,6,6,2815.492626687861,2817.492298507481,right,1,0.5103744143852964,0,3.0,L29R12,2022-10-21_16h12.18.308,t1_Paradigm,2021.1.4,59.987568288396645,
C,right,Target,0,7,7,7,2818.9924983670935,2820.992408863385,right,1,0.4501306946622208,0,3.0,L29R12,2022-10-21_16h12.18.308,t1_Paradigm,2021.1.4,59.987568288396645,
W,left,Distractor,0,8,8,8,2822.492653635214,2824.492432281957,left,1,0.6145076908869669,0,3.0,L29R12,2022-10-21_16h12.18.308,t1_Paradigm,2021.1.4,59.987568288396645,
R,left,Pretarget,0,9,9,9,2825.992378707975,2827.9929391490296,left,1,0.6660095573170111,0,3.0,L29R12,2022-10-21_16h12.18.308,t1_Paradigm,2021.1.4,59.987568288396645,
R,right,Target,0,10,10,10,2829.492454738007,2831.4924739861162,right,1,0.6220712385838851,0,3.0,L29R12,2022-10-21_16h12.18.308,t1_Paradigm,2021.1.4,59.987568288396645,
Z,left,Distractor,0,11,11,11,2832.9925416753395,2834.9927758608246,left,1,0.6739391399314627,0,3.0,L29R12,2022-10-21_16h12.18.308,t1_Paradigm,2021.1.4,59.987568288396645,
R,left,Lure,0,12,12,12,2836.4925323721254,2838.4923889735946,None,0,,0,3.0,L29R12,2022-10-21_16h12.18.308,t1_Paradigm,2021.1.4,59.987568288396645,
H,left,Pretarget,0,13,13,13,2839.99254039221,2841.992382557597,left,1,0.5222793747670949,0,3.0,L29R12,2022-10-21_16h12.18.308,t1_Paradigm,2021.1.4,59.987568288396645,
H,right,Target,0,14,14,14,2843.4923780664103,2845.4925086328294,right,1,0.6540731582790613,0,3.0,L29R12,2022-10-21_16h12.18.308,t1_Paradigm,2021.1.4,59.987568288396645,
K,left,Distractor,0,15,15,15,2846.992473665392,2848.992214136524,left,1,0.6424745635595173,0,3.0,L29R12,2022-10-21_16h12.18.308,t1_Paradigm,2021.1.4,59.987568288396645,
J,left,Distractor,0,16,16,16,2850.4923087731004,2852.492000803235,left,1,0.7747193945106119,0,3.0,L29R12,2022-10-21_16h12.18.308,t1_Paradigm,2021.1.4,59.987568288396645,
H,left,Lure,0,17,17,17,2853.992227610317,2855.9923479110003,left,1,1.0021840196568519,0,3.0,L29R12,2022-10-21_16h12.18.308,t1_Paradigm,2021.1.4,59.987568288396645,
S,left,Distractor,0,18,18,18,2857.4924451139523,2859.492361063836,left,1,0.5903480957495049,0,3.0,L29R12,2022-10-21_16h12.18.308,t1_Paradigm,2021.1.4,59.987568288396645,
T,left,Pretarget,0,19,19,19,2860.992350477376,2862.9922904873965,left,1,0.5621935540111735,0,3.0,L29R12,2022-10-21_16h12.18.308,t1_Paradigm,2021.1.4,59.987568288396645,
T,right,Target,0,20,20,20,2864.4925089535536,2866.4924335650867,right,1,0.8062324119964615,0,3.0,L29R12,2022-10-21_16h12.18.308,t1_Paradigm,2021.1.4,59.987568288396645,
X,left,Pretarget,0,21,21,21,2867.9926302167587,2869.992333795759,left,1,0.8103983461624011,0,3.0,L29R12,2022-10-21_16h12.18.308,t1_Paradigm,2021.1.4,59.987568288396645,
X,right,Target,0,22,22,22,2871.491930547636,2873.4924431891413,right,1,0.7021418021759018,0,3.0,L29R12,2022-10-21_16h12.18.308,t1_Paradigm,2021.1.4,59.987568288396645,
W,left,Distractor,0,23,23,23,2874.9924226579024,2876.992608402157,left,1,0.706082854187116,0,3.0,L29R12,2022-10-21_16h12.18.308,t1_Paradigm,2021.1.4,59.987568288396645,
K,left,Distractor,0,24,24,24,2878.4924457556335,2880.4923665175447,left,1,0.5021490523358807,0,3.0,L29R12,2022-10-21_16h12.18.308,t1_Paradigm,2021.1.4,59.987568288396645,
F,left,Pretarget,0,25,25,25,2881.9925618858542,2883.992250066367,left,1,0.5223528385395184,0,3.0,L29R12,2022-10-21_16h12.18.308,t1_Paradigm,2021.1.4,59.987568288396645,
F,right,Target,0,26,26,26,2885.49236876308,2887.49240950495,right,1,0.6381408500019461,0,3.0,L29R12,2022-10-21_16h12.18.308,t1_Paradigm,2021.1.4,59.987568288396645,
Z,left,Distractor,0,27,27,27,2888.9929038607515,2890.9923459861893,left,1,0.5781704536639154,0,3.0,L29R12,2022-10-21_16h12.18.308,t1_Paradigm,2021.1.4,59.987568288396645,
F,left,Lure,0,28,28,28,2892.4925336553715,2894.4921897556633,left,1,0.6942067658528686,0,3.0,L29R12,2022-10-21_16h12.18.308,t1_Paradigm,2021.1.4,59.987568288396645,
P,left,Distractor,0,29,29,29,2895.9922686729115,2897.992338607786,left,1,0.7144448779290542,0,3.0,L29R12,2022-10-21_16h12.18.308,t1_Paradigm,2021.1.4,59.987568288396645,
F,left,Lure,0,30,30,30,2899.492294657859,2901.4923507982166,left,1,0.7020994563354179,0,3.0,L29R12,2022-10-21_16h12.18.308,t1_Paradigm,2021.1.4,59.987568288396645,
R,left,Distractor,0,31,31,31,2902.992361063836,2904.9922577656107,left,1,0.6104957417119294,0,3.0,L29R12,2022-10-21_16h12.18.308,t1_Paradigm,2021.1.4,59.987568288396645,
V,left,Distractor,0,32,32,32,2906.492319680401,2908.4924800813897,left,1,0.5501240220619366,0,3.0,L29R12,2022-10-21_16h12.18.308,t1_Paradigm,2021.1.4,59.987568288396645,
M,left,Pretarget,0,33,33,33,2909.9924069385743,2911.992421695497,left,1,0.7143556949449703,0,3.0,L29R12,2022-10-21_16h12.18.308,t1_Paradigm,2021.1.4,59.987568288396645,
M,right,Target,0,34,34,34,2913.4924123921664,2915.4922555200756,right,1,0.7663660324178636,0,3.0,L29R12,2022-10-21_16h12.18.308,t1_Paradigm,2021.1.4,59.987568288396645,
M,right,Target,0,35,35,35,2916.992563489941,2918.9925060663372,right,1,0.7380988891236484,0,3.0,L29R12,2022-10-21_16h12.18.308,t1_Paradigm,2021.1.4,59.987568288396645,
D,left,Distractor,0,36,36,36,2920.492325454834,2922.492559640319,left,1,0.5499164632055908,0,3.0,L29R12,2022-10-21_16h12.18.308,t1_Paradigm,2021.1.4,59.987568288396645,
M,left,Lure,0,37,37,37,2923.9924306778703,2925.9922199110733,left,1,0.7783431733259931,0,3.0,L29R12,2022-10-21_16h12.18.308,t1_Paradigm,2021.1.4,59.987568288396645,
F,left,Distractor,0,38,38,38,2927.4927161916858,2929.493164352025,left,1,0.589518181164749,0,3.0,L29R12,2022-10-21_16h12.18.308,t1_Paradigm,2021.1.4,59.987568288396645,
T,left,Pretarget,0,39,39,39,2930.992328662891,2932.9922343471553,left,1,0.6424652603454888,0,3.0,L29R12,2022-10-21_16h12.18.308,t1_Paradigm,2021.1.4,59.987568288396645,
T,right,Target,0,40,40,40,2934.4925753595307,2936.492407580139,right,1,0.6780457257991657,0,3.0,L29R12,2022-10-21_16h12.18.308,t1_Paradigm,2021.1.4,59.987568288396645,
Z,left,Distractor,0,41,41,41,2937.9922449336154,2939.992383840843,left,1,0.4902508285595104,0,3.0,L29R12,2022-10-21_16h12.18.308,t1_Paradigm,2021.1.4,59.987568288396645,
S,left,Distractor,0,42,42,42,2941.4923459861893,2943.492366196704,left,1,0.5583352688699961,0,3.0,L29R12,2022-10-21_16h12.18.308,t1_Paradigm,2021.1.4,59.987568288396645,
D,left,Distractor,0,43,43,43,2944.992303961073,2946.9927996001206,left,1,0.6419211803004146,0,3.0,L29R12,2022-10-21_16h12.18.308,t1_Paradigm,2021.1.4,59.987568288396645,
Y,left,Pretarget,0,44,44,44,2948.4925984573783,2950.4923200012418,left,1,0.5984614979242906,0,3.0,L29R12,2022-10-21_16h12.18.308,t1_Paradigm,2021.1.4,59.987568288396645,
Y,right,Target,0,45,45,45,2951.9923081315355,2953.9924951590365,right,1,0.6662941086106002,0,3.0,L29R12,2022-10-21_16h12.18.308,t1_Paradigm,2021.1.4,59.987568288396645,
Z,left,Pretarget,0,46,46,46,2955.4928117906675,2957.49236876308,left,1,0.7983567240880802,0,3.0,L29R12,2022-10-21_16h12.18.308,t1_Paradigm,2021.1.4,59.987568288396645,
Z,right,Target,0,47,47,47,2958.9922930538887,2960.9926363119157,right,1,0.6260809422237799,0,3.0,L29R12,2022-10-21_16h12.18.308,t1_Paradigm,2021.1.4,59.987568288396645,
H,left,Pretarget,0,48,48,48,2962.49245922931,2964.492293374613,left,1,0.5823488991009071,0,3.0,L29R12,2022-10-21_16h12.18.308,t1_Paradigm,2021.1.4,59.987568288396645,
H,right,Target,0,49,49,49,2965.9927245324943,2967.9921807731735,right,1,0.5704320688964799,0,3.0,L29R12,2022-10-21_16h12.18.308,t1_Paradigm,2021.1.4,59.987568288396645,
Z,left,Lure,0,50,50,50,2969.492423941032,2971.493528782972,left,1,0.5571531136520207,0,3.0,L29R12,2022-10-21_16h12.18.308,t1_Paradigm,2021.1.4,59.987568288396645,
R,left,Distractor,0,51,51,51,2972.992291129078,2974.9925692643737,left,1,0.46643866202794015,0,3.0,L29R12,2022-10-21_16h12.18.308,t1_Paradigm,2021.1.4,59.987568288396645,
H,left,Lure,0,52,52,52,2976.4923652342986,2978.4927129836287,left,1,0.7258080039173365,0,3.0,L29R12,2022-10-21_16h12.18.308,t1_Paradigm,2021.1.4,59.987568288396645,
L,left,Distractor,0,53,53,53,2979.992524352041,2981.99220322934,left,1,0.7305099980439991,0,3.0,L29R12,2022-10-21_16h12.18.308,t1_Paradigm,2021.1.4,59.987568288396645,
N,left,Pretarget,0,54,54,54,2983.4923456653487,2985.4927960713394,left,1,0.4776968858204782,0,3.0,L29R12,2022-10-21_16h12.18.308,t1_Paradigm,2021.1.4,59.987568288396645,
N,right,Target,0,55,55,55,2986.9925166527973,2988.992886216729,right,1,0.49786538374610245,0,3.0,L29R12,2022-10-21_16h12.18.308,t1_Paradigm,2021.1.4,59.987568288396645,
W,left,Distractor,0,56,56,56,2990.4923421365675,2992.4922510287724,left,1,0.6628358635352924,0,3.0,L29R12,2022-10-21_16h12.18.308,t1_Paradigm,2021.1.4,59.987568288396645,
R,left,Pretarget,0,57,57,57,2993.9922930538887,2995.992373254383,left,1,0.874322947463952,0,3.0,L29R12,2022-10-21_16h12.18.308,t1_Paradigm,2021.1.4,59.987568288396645,
R,right,Target,0,58,58,58,2997.492547770613,2999.4925461666426,right,1,0.7018813110189512,0,3.0,L29R12,2022-10-21_16h12.18.308,t1_Paradigm,2021.1.4,59.987568288396645,
Q,left,Distractor,0,59,59,59,3000.9926799410023,3002.9923777455697,left,1,0.5622776040108874,0,3.0,L29R12,2022-10-21_16h12.18.308,t1_Paradigm,2021.1.4,59.987568288396645,
R,left,Lure,0,60,60,60,3004.4923584974604,3006.492318076431,left,1,0.8543013767339289,0,3.0,L29R12,2022-10-21_16h12.18.308,t1_Paradigm,2021.1.4,59.987568288396645,
Z,left,Distractor,0,61,61,61,3007.9922109285835,3009.992220552638,left,1,0.6182857755338773,0,3.0,L29R12,2022-10-21_16h12.18.308,t1_Paradigm,2021.1.4,59.987568288396645,
K,left,Pretarget,0,62,62,62,3011.4923655551393,3013.4918991090963,left,1,0.6226737046381459,0,3.0,L29R12,2022-10-21_16h12.18.308,t1_Paradigm,2021.1.4,59.987568288396645,
K,right,Target,0,63,63,63,3014.9923164724605,3016.9924300363054,right,1,0.8340834751725197,0,3.0,L29R12,2022-10-21_16h12.18.308,t1_Paradigm,2021.1.4,59.987568288396645,
