Letter,CorrAnswer,Stimulus,nback_run.thisRepN,nback_run.thisTrialN,nback_run.thisN,nback_run.thisIndex,fixcross.started,nback_trial.started,trial_resp.keys,trial_resp.corr,currentlevel,trial_resp.rt,Participant,date,expName,psychopyVersion,frameRate,
H,left,Distractor,0,0,0,0,41.935481915134005,43.87754861114081,None,0,1,,L29R12,2022-10-21_16h12.18.308,t1_Paradigm,2021.1.4,59.987568288396645,
Q,left,Pretarget,0,1,1,1,45.379376540658996,47.37855400447734,left,1,1,0.8164371221791953,L29R12,2022-10-21_16h12.18.308,t1_Paradigm,2021.1.4,59.987568288396645,
Q,right,Target,0,2,2,2,48.87679312250111,50.876498305471614,right,1,1,0.966762351221405,L29R12,2022-10-21_16h12.18.308,t1_Paradigm,2021.1.4,59.987568288396645,
T,left,Distractor,0,3,3,3,52.37657337321434,54.37783380399924,left,1,1,0.617118377238512,L29R12,2022-10-21_16h12.18.308,t1_Paradigm,2021.1.4,59.987568288396645,
Q,left,Lure,0,4,4,4,55.876548992237076,57.87655348342378,left,1,1,1.422574127675034,L29R12,2022-10-21_16h12.18.308,t1_Paradigm,2021.1.4,59.987568288396645,
L,left,Distractor,0,5,5,5,59.37662630551495,61.37796437041834,left,1,1,0.7850399141898379,L29R12,2022-10-21_16h12.18.308,t1_Paradigm,2021.1.4,59.987568288396645,
V,left,Pretarget,0,6,6,6,62.87678606482223,64.87739943817724,left,1,1,0.7097448084969074,L29R12,2022-10-21_16h12.18.308,t1_Paradigm,2021.1.4,59.987568288396645,
V,right,Target,0,7,7,7,66.37659647094551,68.37658780929632,right,1,1,0.9544740323908627,L29R12,2022-10-21_16h12.18.308,t1_Paradigm,2021.1.4,59.987568288396645,
K,left,Distractor,0,8,8,8,69.85991861892398,71.86199549084995,left,1,1,0.5731171813094988,L29R12,2022-10-21_16h12.18.308,t1_Paradigm,2021.1.4,59.987568288396645,
G,left,Pretarget,0,9,9,9,73.37651209998876,75.3769602603279,None,0,1,,L29R12,2022-10-21_16h12.18.308,t1_Paradigm,2021.1.4,59.987568288396645,
G,right,Target,0,10,10,10,76.87673890695442,78.87661764386576,right,1,1,1.3344001066870987,L29R12,2022-10-21_16h12.18.308,t1_Paradigm,2021.1.4,59.987568288396645,
G,right,Target,0,11,11,11,80.37696539319586,82.37668020022102,right,1,1,0.7305764041375369,L29R12,2022-10-21_16h12.18.308,t1_Paradigm,2021.1.4,59.987568288396645,
P,left,Pretarget,0,12,12,12,83.87658492207993,85.87744338810444,left,1,1,1.3417022008216009,L29R12,2022-10-21_16h12.18.308,t1_Paradigm,2021.1.4,59.987568288396645,
P,right,Target,0,13,13,13,87.37665453611407,89.37676457117777,right,1,1,0.9304767630528659,L29R12,2022-10-21_16h12.18.308,t1_Paradigm,2021.1.4,59.987568288396645,
G,left,Lure,0,14,14,14,90.87657080672216,92.87661058618687,None,0,1,,L29R12,2022-10-21_16h12.18.308,t1_Paradigm,2021.1.4,59.987568288396645,
Y,left,Distractor,0,15,15,15,94.37665196962189,96.37687781418208,left,1,1,0.7628391357138753,L29R12,2022-10-21_16h12.18.308,t1_Paradigm,2021.1.4,59.987568288396645,
B,left,Distractor,0,16,16,16,97.87681525782682,99.87737730285153,left,1,1,0.6217222061241046,L29R12,2022-10-21_16h12.18.308,t1_Paradigm,2021.1.4,59.987568288396645,
T,left,Pretarget,0,17,17,17,101.37657176912762,103.37661154859234,left,1,1,0.5465570250526071,L29R12,2022-10-21_16h12.18.308,t1_Paradigm,2021.1.4,59.987568288396645,
T,right,Target,0,18,18,18,104.87676489190198,106.87656759878155,right,1,1,0.6466334401629865,L29R12,2022-10-21_16h12.18.308,t1_Paradigm,2021.1.4,59.987568288396645,
S,left,Distractor,0,19,19,19,108.37675558868796,110.37817096686922,left,1,1,1.3368818305898458,L29R12,2022-10-21_16h12.18.308,t1_Paradigm,2021.1.4,59.987568288396645,
T,left,Lure,0,20,20,20,111.87664202484302,113.8766141149681,None,0,1,,L29R12,2022-10-21_16h12.18.308,t1_Paradigm,2021.1.4,59.987568288396645,
J,left,Distractor,0,21,21,21,115.37657465634402,117.37689481675625,left,1,1,0.8503179788822308,L29R12,2022-10-21_16h12.18.308,t1_Paradigm,2021.1.4,59.987568288396645,
P,left,Distractor,0,22,22,22,118.87651979923248,120.87650055112317,left,1,1,0.678461806033738,L29R12,2022-10-21_16h12.18.308,t1_Paradigm,2021.1.4,59.987568288396645,
F,left,Distractor,0,23,23,23,122.37685792450793,124.37744627532084,left,1,1,1.0015112980036065,L29R12,2022-10-21_16h12.18.308,t1_Paradigm,2021.1.4,59.987568288396645,
L,left,Distractor,0,24,24,24,125.8766051325947,127.87652749847621,None,0,1,,L29R12,2022-10-21_16h12.18.308,t1_Paradigm,2021.1.4,59.987568288396645,
W,left,Pretarget,0,25,25,25,129.37681846588384,131.3779945258284,left,1,1,0.7850254781078547,L29R12,2022-10-21_16h12.18.308,t1_Paradigm,2021.1.4,59.987568288396645,
W,right,Target,0,26,26,26,132.87696699716616,134.8767077891389,right,1,1,0.7584284297190607,L29R12,2022-10-21_16h12.18.308,t1_Paradigm,2021.1.4,59.987568288396645,
V,left,Distractor,0,27,27,27,136.36035394715145,138.35993722546846,left,1,1,0.5391558032715693,L29R12,2022-10-21_16h12.18.308,t1_Paradigm,2021.1.4,59.987568288396645,
W,left,Lure,0,28,28,28,139.86004726053216,141.86034400237259,left,1,1,0.9427981245098636,L29R12,2022-10-21_16h12.18.308,t1_Paradigm,2021.1.4,59.987568288396645,
R,left,Pretarget,0,29,29,29,143.35991958132945,145.36192234791815,left,1,1,0.5293078249087557,L29R12,2022-10-21_16h12.18.308,t1_Paradigm,2021.1.4,59.987568288396645,
R,right,Target,0,30,30,30,146.87657112756278,148.8765948668588,left,0,1,0.9667626719456166,L29R12,2022-10-21_16h12.18.308,t1_Paradigm,2021.1.4,59.987568288396645,
G,left,Distractor,0,31,31,31,150.37665710248984,152.3765608619433,left,1,1,0.7624840080970898,L29R12,2022-10-21_16h12.18.308,t1_Paradigm,2021.1.4,59.987568288396645,
R,left,Lure,0,32,32,32,153.8765024759341,155.87695191951934,left,1,1,1.1340060336515307,L29R12,2022-10-21_16h12.18.308,t1_Paradigm,2021.1.4,59.987568288396645,
S,left,Distractor,0,33,33,33,157.37652236560825,159.37714311748277,left,1,1,0.8338181719882414,L29R12,2022-10-21_16h12.18.308,t1_Paradigm,2021.1.4,59.987568288396645,
R,left,Lure,0,34,34,34,160.87674371898174,162.87692978419363,left,1,1,1.2860821997746825,L29R12,2022-10-21_16h12.18.308,t1_Paradigm,2021.1.4,59.987568288396645,
P,left,Pretarget,0,35,35,35,164.37674981425516,166.37660994462203,left,1,1,0.6666813166812062,L29R12,2022-10-21_16h12.18.308,t1_Paradigm,2021.1.4,59.987568288396645,
P,right,Target,0,36,36,36,167.87653359374963,169.8603985386435,right,1,1,0.5108488803962246,L29R12,2022-10-21_16h12.18.308,t1_Paradigm,2021.1.4,59.987568288396645,
Y,left,Pretarget,0,37,37,37,171.3600729246391,173.35990899486933,left,1,1,0.8190988159039989,L29R12,2022-10-21_16h12.18.308,t1_Paradigm,2021.1.4,59.987568288396645,
Y,right,Target,0,38,38,38,174.85985381691717,176.8599641728215,None,0,1,,L29R12,2022-10-21_16h12.18.308,t1_Paradigm,2021.1.4,59.987568288396645,
J,left,Distractor,0,39,39,39,178.36006169661414,180.36008062388282,left,1,1,0.6028686752542853,L29R12,2022-10-21_16h12.18.308,t1_Paradigm,2021.1.4,59.987568288396645,
Y,left,Lure,0,40,40,40,181.8598073007306,183.86039500986226,left,1,1,0.7829069020226598,L29R12,2022-10-21_16h12.18.308,t1_Paradigm,2021.1.4,59.987568288396645,
T,left,Distractor,0,41,41,41,185.3599067493342,187.3602166440105,left,1,1,0.7548771521542221,L29R12,2022-10-21_16h12.18.308,t1_Paradigm,2021.1.4,59.987568288396645,
V,left,Distractor,0,42,42,42,188.86001229309477,190.8604453757871,left,1,1,0.4386424559634179,L29R12,2022-10-21_16h12.18.308,t1_Paradigm,2021.1.4,59.987568288396645,
N,left,Pretarget,0,43,43,43,192.35979895980563,194.36198073392734,left,1,1,0.7132447578478605,L29R12,2022-10-21_16h12.18.308,t1_Paradigm,2021.1.4,59.987568288396645,
N,right,Target,0,44,44,44,195.87648130301386,197.87662790948525,left,0,1,0.46241099352482706,L29R12,2022-10-21_16h12.18.308,t1_Paradigm,2021.1.4,59.987568288396645,
N,right,Target,0,45,45,45,199.3768059546128,201.3765637491597,right,1,1,1.170599591685459,L29R12,2022-10-21_16h12.18.308,t1_Paradigm,2021.1.4,59.987568288396645,
X,left,Distractor,0,46,46,46,202.8768399596447,204.8785039592767,left,1,1,0.5967503403080627,L29R12,2022-10-21_16h12.18.308,t1_Paradigm,2021.1.4,59.987568288396645,
Z,left,Distractor,0,47,47,47,206.37658524280414,208.37819470628165,left,1,1,0.5848344726255164,L29R12,2022-10-21_16h12.18.308,t1_Paradigm,2021.1.4,59.987568288396645,
H,left,Pretarget,0,48,48,48,209.87660288694315,211.87683065631427,left,1,1,0.7021292909048498,L29R12,2022-10-21_16h12.18.308,t1_Paradigm,2021.1.4,59.987568288396645,
H,right,Target,0,49,49,49,213.376823919476,215.37664138316177,right,1,1,0.9145839133998379,L29R12,2022-10-21_16h12.18.308,t1_Paradigm,2021.1.4,59.987568288396645,
K,left,Distractor,0,50,50,50,216.87672447087243,218.87662502226885,left,1,1,0.8224540835944936,L29R12,2022-10-21_16h12.18.308,t1_Paradigm,2021.1.4,59.987568288396645,
V,left,Pretarget,0,51,51,51,220.37650760880206,222.3764335035812,left,1,1,0.9226556114153937,L29R12,2022-10-21_16h12.18.308,t1_Paradigm,2021.1.4,59.987568288396645,
V,right,Target,0,52,52,52,223.87660096213222,225.87681429542135,right,1,1,0.894464818877168,L29R12,2022-10-21_16h12.18.308,t1_Paradigm,2021.1.4,59.987568288396645,
R,left,Distractor,0,53,53,53,227.3766198894009,229.37792683660518,left,1,1,0.6731737066293135,L29R12,2022-10-21_16h12.18.308,t1_Paradigm,2021.1.4,59.987568288396645,
V,left,Lure,0,54,54,54,230.87651242082939,232.8768576036673,left,1,1,0.8541865297593176,L29R12,2022-10-21_16h12.18.308,t1_Paradigm,2021.1.4,59.987568288396645,
Y,left,Distractor,0,55,55,55,234.37664844084065,236.3764626964694,left,1,1,0.6024805048946291,L29R12,2022-10-21_16h12.18.308,t1_Paradigm,2021.1.4,59.987568288396645,
Q,left,Distractor,0,56,56,56,237.87646462128032,239.87669976917095,left,1,1,0.7342909699073061,L29R12,2022-10-21_16h12.18.308,t1_Paradigm,2021.1.4,59.987568288396645,
Z,left,Pretarget,0,57,57,57,241.37673088698648,243.37693042575847,left,1,1,1.2821889471961185,L29R12,2022-10-21_16h12.18.308,t1_Paradigm,2021.1.4,59.987568288396645,
Z,right,Target,0,58,58,58,244.87662630551495,246.87656791950576,right,1,1,0.7105647781863809,L29R12,2022-10-21_16h12.18.308,t1_Paradigm,2021.1.4,59.987568288396645,
B,left,Distractor,0,59,59,59,248.37659871648066,250.37658075161744,left,1,1,1.0665731421904638,L29R12,2022-10-21_16h12.18.308,t1_Paradigm,2021.1.4,59.987568288396645,
S,left,Pretarget,0,60,60,60,251.8765217240434,253.8764906062279,left,1,1,1.0704817932564765,L29R12,2022-10-21_16h12.18.308,t1_Paradigm,2021.1.4,59.987568288396645,
S,right,Target,0,61,61,61,255.3765300649684,257.3764322203351,right,1,1,0.7705986935179681,L29R12,2022-10-21_16h12.18.308,t1_Paradigm,2021.1.4,59.987568288396645,
T,left,Distractor,0,62,62,62,258.87646365887485,260.87751685176045,left,1,1,0.6137053652200848,L29R12,2022-10-21_16h12.18.308,t1_Paradigm,2021.1.4,59.987568288396645,
D,left,Distractor,0,63,63,63,262.37663047597744,264.37793485668954,left,1,1,1.3850579431746155,L29R12,2022-10-21_16h12.18.308,t1_Paradigm,2021.1.4,59.987568288396645,
R,left,Distractor,0,0,0,0,276.7807065213565,278.7767953039147,None,0,1,,L29R12,2022-10-21_16h12.18.308,t1_Paradigm,2021.1.4,59.987568288396645,
V,left,Distractor,0,1,1,1,280.27676963980775,282.27649375016335,left,1,1,0.8783502952428535,L29R12,2022-10-21_16h12.18.308,t1_Paradigm,2021.1.4,59.987568288396645,
N,left,Pretarget,0,2,2,2,283.7765223014867,285.77668879774865,left,1,1,0.5623404812067747,L29R12,2022-10-21_16h12.18.308,t1_Paradigm,2021.1.4,59.987568288396645,
N,right,Target,0,3,3,3,287.2764388930518,289.27670483780093,right,1,1,0.6782651543617249,L29R12,2022-10-21_16h12.18.308,t1_Paradigm,2021.1.4,59.987568288396645,
S,left,Distractor,0,4,4,4,290.776738201268,292.7765518153319,left,1,1,0.7146639855345711,L29R12,2022-10-21_16h12.18.308,t1_Paradigm,2021.1.4,59.987568288396645,
N,left,Lure,0,5,5,5,294.27653737924993,296.2765152438078,left,1,1,0.9106136685004458,L29R12,2022-10-21_16h12.18.308,t1_Paradigm,2021.1.4,59.987568288396645,
Z,left,Distractor,0,6,6,6,297.7766544718761,299.7769374191994,left,1,1,0.6583026112057269,L29R12,2022-10-21_16h12.18.308,t1_Paradigm,2021.1.4,59.987568288396645,
L,left,Pretarget,0,7,7,7,301.2767247275915,303.2773762763245,left,1,1,0.6937849113019183,L29R12,2022-10-21_16h12.18.308,t1_Paradigm,2021.1.4,59.987568288396645,
L,right,Target,0,8,8,8,304.7764677652158,306.7767882463522,right,1,1,0.5862370186951011,L29R12,2022-10-21_16h12.18.308,t1_Paradigm,2021.1.4,59.987568288396645,
H,left,Distractor,0,9,9,9,308.2766907225596,310.2760677251499,left,1,1,0.815142365405336,L29R12,2022-10-21_16h12.18.308,t1_Paradigm,2021.1.4,59.987568288396645,
L,left,Lure,0,10,10,10,311.7764241361292,313.7766971385572,left,1,1,1.0424199630506337,L29R12,2022-10-21_16h12.18.308,t1_Paradigm,2021.1.4,59.987568288396645,
X,left,Pretarget,0,11,11,11,315.2768100608373,317.27668141922913,left,1,1,0.5985189215280116,L29R12,2022-10-21_16h12.18.308,t1_Paradigm,2021.1.4,59.987568288396645,
X,right,Target,0,12,12,12,318.77659768995363,320.77651716861874,right,1,1,0.5864997555036098,L29R12,2022-10-21_16h12.18.308,t1_Paradigm,2021.1.4,59.987568288396645,
X,right,Target,0,13,13,13,322.2766557551222,324.2764273440698,right,1,1,0.4784655272960663,L29R12,2022-10-21_16h12.18.308,t1_Paradigm,2021.1.4,59.987568288396645,
R,left,Distractor,0,14,14,14,325.77652743435465,327.7764574994799,left,1,1,0.7385528238955885,L29R12,2022-10-21_16h12.18.308,t1_Paradigm,2021.1.4,59.987568288396645,
T,left,Distractor,0,15,15,15,329.27654636162333,331.27658325387165,left,1,1,0.5986151621909812,L29R12,2022-10-21_16h12.18.308,t1_Paradigm,2021.1.4,59.987568288396645,
V,left,Pretarget,0,16,16,16,332.77664196060505,334.77678567986004,left,1,1,0.874312681844458,L29R12,2022-10-21_16h12.18.308,t1_Paradigm,2021.1.4,59.987568288396645,
V,right,Target,0,17,17,17,336.27665960474405,338.2765277551953,right,1,1,0.6384619727032259,L29R12,2022-10-21_16h12.18.308,t1_Paradigm,2021.1.4,59.987568288396645,
N,left,Distractor,0,18,18,18,339.7767215195345,341.77645589550957,left,1,1,0.5307071630377322,L29R12,2022-10-21_16h12.18.308,t1_Paradigm,2021.1.4,59.987568288396645,
B,left,Distractor,0,19,19,19,343.2768113440834,345.27690437657293,left,1,1,0.7422176654217765,L29R12,2022-10-21_16h12.18.308,t1_Paradigm,2021.1.4,59.987568288396645,
V,left,Lure,0,20,20,20,346.77675199566875,348.776984256343,left,1,1,0.842103524133563,L29R12,2022-10-21_16h12.18.308,t1_Paradigm,2021.1.4,59.987568288396645,
P,left,Distractor,0,21,21,21,350.2765781210037,352.2764591035666,left,1,1,0.7025780928088352,L29R12,2022-10-21_16h12.18.308,t1_Paradigm,2021.1.4,59.987568288396645,
K,left,Pretarget,0,22,22,22,353.77651845186483,355.7764725772431,None,0,1,,L29R12,2022-10-21_16h12.18.308,t1_Paradigm,2021.1.4,59.987568288396645,
K,right,Target,0,23,23,23,357.27672280278057,359.2767539204797,right,1,1,0.8861255721421912,L29R12,2022-10-21_16h12.18.308,t1_Paradigm,2021.1.4,59.987568288396645,
J,left,Pretarget,0,24,24,24,360.77667981525883,362.7764947125688,left,1,1,0.8745029174024239,L29R12,2022-10-21_16h12.18.308,t1_Paradigm,2021.1.4,59.987568288396645,
J,right,Target,0,25,25,25,364.27667885285337,366.2766089179786,right,1,1,0.6703708599088714,L29R12,2022-10-21_16h12.18.308,t1_Paradigm,2021.1.4,59.987568288396645,
H,left,Distractor,0,26,26,26,367.77660057717003,369.7768270634115,left,1,1,0.7222310620127246,L29R12,2022-10-21_16h12.18.308,t1_Paradigm,2021.1.4,59.987568288396645,
J,left,Lure,0,27,27,27,371.2767215195345,373.27631313866004,left,1,1,0.646856076666154,L29R12,2022-10-21_16h12.18.308,t1_Paradigm,2021.1.4,59.987568288396645,
V,left,Distractor,0,28,28,28,374.7765649681678,376.7764607075369,left,1,1,0.5066207107156515,L29R12,2022-10-21_16h12.18.308,t1_Paradigm,2021.1.4,59.987568288396645,
Z,left,Pretarget,0,29,29,29,378.2764972789446,380.27648605091963,left,1,1,0.46262721403036267,L29R12,2022-10-21_16h12.18.308,t1_Paradigm,2021.1.4,59.987568288396645,
Z,right,Target,0,30,30,30,381.77658902830444,383.77650401578285,right,1,1,0.6585634232033044,L29R12,2022-10-21_16h12.18.308,t1_Paradigm,2021.1.4,59.987568288396645,
T,left,Distractor,0,31,31,31,385.27646423631813,387.2764093792066,left,1,1,0.6148108487250283,L29R12,2022-10-21_16h12.18.308,t1_Paradigm,2021.1.4,59.987568288396645,
Z,left,Lure,0,32,32,32,388.7764963165391,390.77690886787605,left,1,1,1.033958169980906,L29R12,2022-10-21_16h12.18.308,t1_Paradigm,2021.1.4,59.987568288396645,
F,left,Distractor,0,33,33,33,392.2764151536394,394.27689314854797,left,1,1,0.6701155015034601,L29R12,2022-10-21_16h12.18.308,t1_Paradigm,2021.1.4,59.987568288396645,
Y,left,Pretarget,0,34,34,34,395.776509469375,397.77647193556186,left,1,1,0.7545319691998884,L29R12,2022-10-21_16h12.18.308,t1_Paradigm,2021.1.4,59.987568288396645,
Y,right,Target,0,35,35,35,399.2765213390812,401.2766628128011,right,1,1,0.4543646388920024,L29R12,2022-10-21_16h12.18.308,t1_Paradigm,2021.1.4,59.987568288396645,
Y,right,Target,0,36,36,36,402.7765739506576,404.7764735396486,right,1,1,0.41062361339572817,L29R12,2022-10-21_16h12.18.308,t1_Paradigm,2021.1.4,59.987568288396645,
W,left,Distractor,0,37,37,37,406.2765575897647,408.2771886071423,left,1,1,0.6381106947083026,L29R12,2022-10-21_16h12.18.308,t1_Paradigm,2021.1.4,59.987568288396645,
Q,left,Distractor,0,38,38,38,409.7766560759628,411.77650561975315,left,1,1,0.4504203788237646,L29R12,2022-10-21_16h12.18.308,t1_Paradigm,2021.1.4,59.987568288396645,
P,left,Pretarget,0,39,39,39,413.27655085292645,415.2768248177599,left,1,1,0.4381570826517418,L29R12,2022-10-21_16h12.18.308,t1_Paradigm,2021.1.4,59.987568288396645,
P,right,Target,0,40,40,40,416.77652454713825,418.7766547927167,right,1,1,0.634258825564757,L29R12,2022-10-21_16h12.18.308,t1_Paradigm,2021.1.4,59.987568288396645,
J,left,Distractor,0,41,41,41,420.27656528900843,422.2764757851837,left,1,1,0.5426211059093475,L29R12,2022-10-21_16h12.18.308,t1_Paradigm,2021.1.4,59.987568288396645,
P,left,Lure,0,42,42,42,423.7767192738829,425.77657042175997,left,1,1,0.594638180336915,L29R12,2022-10-21_16h12.18.308,t1_Paradigm,2021.1.4,59.987568288396645,
L,left,Distractor,0,43,43,43,427.2764327977784,429.27697046182584,left,1,1,0.7581275174161419,L29R12,2022-10-21_16h12.18.308,t1_Paradigm,2021.1.4,59.987568288396645,
Z,left,Distractor,0,44,44,44,430.7764722564025,432.77646263234783,left,1,1,0.6344724796945229,L29R12,2022-10-21_16h12.18.308,t1_Paradigm,2021.1.4,59.987568288396645,
F,left,Pretarget,0,45,45,45,434.2764870133251,436.2764886172954,left,1,1,0.4784860585350543,L29R12,2022-10-21_16h12.18.308,t1_Paradigm,2021.1.4,59.987568288396645,
F,right,Target,0,46,46,46,437.7763943015598,439.7764138703933,right,1,1,0.4344361007679254,L29R12,2022-10-21_16h12.18.308,t1_Paradigm,2021.1.4,59.987568288396645,
G,left,Pretarget,0,47,47,47,441.2764023215277,443.27684117865283,left,1,1,0.6303062246879563,L29R12,2022-10-21_16h12.18.308,t1_Paradigm,2021.1.4,59.987568288396645,
G,right,Target,0,48,48,48,444.7763567677466,446.7764549331041,right,1,1,0.7308195719961077,L29R12,2022-10-21_16h12.18.308,t1_Paradigm,2021.1.4,59.987568288396645,
V,left,Distractor,0,49,49,49,448.27670483780093,450.2768469530856,left,1,1,0.5742438377346843,L29R12,2022-10-21_16h12.18.308,t1_Paradigm,2021.1.4,59.987568288396645,
G,left,Lure,0,50,50,50,451.776324366685,453.7764882964548,left,1,1,1.2184619599720463,L29R12,2022-10-21_16h12.18.308,t1_Paradigm,2021.1.4,59.987568288396645,
Q,left,Pretarget,0,51,51,51,455.27664901828393,457.27645717875566,left,1,1,0.5184310346376151,L29R12,2022-10-21_16h12.18.308,t1_Paradigm,2021.1.4,59.987568288396645,
Q,right,Target,0,52,52,52,458.7764882964548,460.77680332399905,left,0,1,0.7304015670670196,L29R12,2022-10-21_16h12.18.308,t1_Paradigm,2021.1.4,59.987568288396645,
Y,left,Distractor,0,53,53,53,462.27672568999697,464.2763580508763,left,1,1,0.6226833286928013,L29R12,2022-10-21_16h12.18.308,t1_Paradigm,2021.1.4,59.987568288396645,
V,left,Distractor,0,54,54,54,465.77652743435465,467.7764212489128,left,1,1,0.6266734633827582,L29R12,2022-10-21_16h12.18.308,t1_Paradigm,2021.1.4,59.987568288396645,
B,left,Distractor,0,55,55,55,469.2764273440698,471.275977900601,left,1,1,0.4709796137176454,L29R12,2022-10-21_16h12.18.308,t1_Paradigm,2021.1.4,59.987568288396645,
J,left,Pretarget,0,56,56,56,472.7763214794686,474.7764972789446,left,1,1,0.5704776226775721,L29R12,2022-10-21_16h12.18.308,t1_Paradigm,2021.1.4,59.987568288396645,
J,right,Target,0,57,57,57,476.2765665721381,478.2767090082634,left,0,1,0.4944857351947576,L29R12,2022-10-21_16h12.18.308,t1_Paradigm,2021.1.4,59.987568288396645,
H,left,Distractor,0,58,58,58,479.77651428140234,481.7764456298901,left,1,1,0.8828482594108209,L29R12,2022-10-21_16h12.18.308,t1_Paradigm,2021.1.4,59.987568288396645,
J,left,Lure,0,59,59,59,483.2767997952178,485.27646616112906,left,1,1,0.4865022578742355,L29R12,2022-10-21_16h12.18.308,t1_Paradigm,2021.1.4,59.987568288396645,
D,left,Pretarget,0,60,60,60,486.7769492889056,488.7762512238696,left,1,1,0.6831766322720796,L29R12,2022-10-21_16h12.18.308,t1_Paradigm,2021.1.4,59.987568288396645,
D,right,Target,0,61,61,61,490.27648508851416,492.27633399073966,right,1,1,0.606741075636819,L29R12,2022-10-21_16h12.18.308,t1_Paradigm,2021.1.4,59.987568288396645,
R,left,Distractor,0,62,62,62,493.7765527777374,495.7763827526942,left,1,1,0.6267052227631211,L29R12,2022-10-21_16h12.18.308,t1_Paradigm,2021.1.4,59.987568288396645,
F,left,Distractor,0,63,63,63,497.2765296800062,499.27645846188534,left,1,1,0.5825664028525352,L29R12,2022-10-21_16h12.18.308,t1_Paradigm,2021.1.4,59.987568288396645,
F,left,Distractor,0,0,0,0,674.0652472677175,676.0599665467162,None,0,2,,L29R12,2022-10-21_16h12.18.308,t1_Paradigm,2021.1.4,59.987568288396645,
N,left,Pretarget,0,1,1,1,677.5597875392996,679.5602126019076,None,0,2,,L29R12,2022-10-21_16h12.18.308,t1_Paradigm,2021.1.4,59.987568288396645,
V,left,Distractor,0,2,2,2,681.0597291532904,683.0597798400559,left,1,2,0.7511224859626964,L29R12,2022-10-21_16h12.18.308,t1_Paradigm,2021.1.4,59.987568288396645,
N,right,Target,0,3,3,3,684.5599136144156,686.5603332234314,None,0,2,,L29R12,2022-10-21_16h12.18.308,t1_Paradigm,2021.1.4,59.987568288396645,
N,left,Lure,0,4,4,4,688.0599203512538,690.0599450530717,left,1,2,0.9508938825456426,L29R12,2022-10-21_16h12.18.308,t1_Paradigm,2021.1.4,59.987568288396645,
X,left,Distractor,0,5,5,5,691.5598096746253,693.5595896044979,left,1,2,0.6352796173887327,L29R12,2022-10-21_16h12.18.308,t1_Paradigm,2021.1.4,59.987568288396645,
G,left,Pretarget,0,6,6,6,695.059775990434,697.0597140756436,left,1,2,0.8795831371098757,L29R12,2022-10-21_16h12.18.308,t1_Paradigm,2021.1.4,59.987568288396645,
H,left,Pretarget,0,7,7,7,698.5597086220514,700.5597628374817,None,0,2,,L29R12,2022-10-21_16h12.18.308,t1_Paradigm,2021.1.4,59.987568288396645,
G,right,Target,0,8,8,8,702.0596104565775,704.0597160004545,right,1,2,0.9032175793545321,L29R12,2022-10-21_16h12.18.308,t1_Paradigm,2021.1.4,59.987568288396645,
H,right,Target,0,9,9,9,705.559684882639,707.5596752585843,right,1,2,0.9233244834467769,L29R12,2022-10-21_16h12.18.308,t1_Paradigm,2021.1.4,59.987568288396645,
T,left,Pretarget,0,10,10,10,709.0596127022291,711.0597217748873,left,1,2,0.4633733993396163,L29R12,2022-10-21_16h12.18.308,t1_Paradigm,2021.1.4,59.987568288396645,
K,left,Distractor,0,11,11,11,712.5597278701607,714.5596165518509,left,1,2,0.5794379421276972,L29R12,2022-10-21_16h12.18.308,t1_Paradigm,2021.1.4,59.987568288396645,
T,right,Target,0,12,12,12,716.0594314491609,718.060330336215,right,1,2,0.7747123368317261,L29R12,2022-10-21_16h12.18.308,t1_Paradigm,2021.1.4,59.987568288396645,
T,left,Lure,0,13,13,13,719.5596117398236,721.5599598098779,left,1,2,0.5388468710007146,L29R12,2022-10-21_16h12.18.308,t1_Paradigm,2021.1.4,59.987568288396645,
J,left,Distractor,0,14,14,14,723.0598298851401,725.0597275493201,left,1,2,0.6073082535294816,L29R12,2022-10-21_16h12.18.308,t1_Paradigm,2021.1.4,59.987568288396645,
Q,left,Pretarget,0,15,15,15,726.5597637998872,728.5597281908849,left,1,2,0.49951013538520783,L29R12,2022-10-21_16h12.18.308,t1_Paradigm,2021.1.4,59.987568288396645,
M,left,Distractor,0,16,16,16,730.0597227372928,732.059846246033,left,1,2,0.8711514993337914,L29R12,2022-10-21_16h12.18.308,t1_Paradigm,2021.1.4,59.987568288396645,
Q,right,Target,0,17,17,17,733.5599835492903,735.5596717298031,right,1,2,0.47534540749620646,L29R12,2022-10-21_16h12.18.308,t1_Paradigm,2021.1.4,59.987568288396645,
R,left,Distractor,0,18,18,18,737.0597461558646,739.0596884114202,left,1,2,0.4320743568241596,L29R12,2022-10-21_16h12.18.308,t1_Paradigm,2021.1.4,59.987568288396645,
W,left,Distractor,0,19,19,19,740.5596444616094,742.5597220957279,left,1,2,0.675324362819083,L29R12,2022-10-21_16h12.18.308,t1_Paradigm,2021.1.4,59.987568288396645,
C,left,Pretarget,0,20,20,20,744.0597692535957,746.060029423912,left,1,2,0.8709676798898727,L29R12,2022-10-21_16h12.18.308,t1_Paradigm,2021.1.4,59.987568288396645,
T,left,Distractor,0,21,21,21,747.5596457448555,749.5597516094567,left,1,2,0.5231404074002057,L29R12,2022-10-21_16h12.18.308,t1_Paradigm,2021.1.4,59.987568288396645,
C,right,Target,0,22,22,22,751.0597923513269,753.0606909175403,right,1,2,0.47889572265557945,L29R12,2022-10-21_16h12.18.308,t1_Paradigm,2021.1.4,59.987568288396645,
F,left,Pretarget,0,23,23,23,754.5597423062427,756.559670446557,left,1,2,0.4671713736606762,L29R12,2022-10-21_16h12.18.308,t1_Paradigm,2021.1.4,59.987568288396645,
C,right,Target,0,24,24,24,758.0597333237529,760.0599639803404,left,0,2,0.47097736806608737,L29R12,2022-10-21_16h12.18.308,t1_Paradigm,2021.1.4,59.987568288396645,
F,right,Target,0,25,25,25,761.559702526778,763.5597397397505,right,1,2,0.6832205820828676,L29R12,2022-10-21_16h12.18.308,t1_Paradigm,2021.1.4,59.987568288396645,
H,left,Distractor,0,26,26,26,765.0596409328282,767.0597066972405,left,1,2,0.5592258151154965,L29R12,2022-10-21_16h12.18.308,t1_Paradigm,2021.1.4,59.987568288396645,
H,left,Lure,0,27,27,27,768.5596694841515,770.5598581157392,left,1,2,1.3632482225075364,L29R12,2022-10-21_16h12.18.308,t1_Paradigm,2021.1.4,59.987568288396645,
P,left,Distractor,0,28,28,28,772.0596293839626,774.0595934541197,left,1,2,0.7274328657658771,L29R12,2022-10-21_16h12.18.308,t1_Paradigm,2021.1.4,59.987568288396645,
G,left,Pretarget,0,29,29,29,775.5599376745522,777.5596807121765,left,1,2,0.47536882595159113,L29R12,2022-10-21_16h12.18.308,t1_Paradigm,2021.1.4,59.987568288396645,
K,left,Distractor,0,30,30,30,779.059700601967,781.0596338751493,left,1,2,0.6713188296416774,L29R12,2022-10-21_16h12.18.308,t1_Paradigm,2021.1.4,59.987568288396645,
G,right,Target,0,31,31,31,782.5596957899397,784.5596566520398,right,1,2,1.027363765053451,L29R12,2022-10-21_16h12.18.308,t1_Paradigm,2021.1.4,59.987568288396645,
M,left,Pretarget,0,32,32,32,786.0597018850967,788.0596338751493,left,1,2,0.5512202022364363,L29R12,2022-10-21_16h12.18.308,t1_Paradigm,2021.1.4,59.987568288396645,
B,left,Distractor,0,33,33,33,789.5597259453498,791.5597599502653,left,1,2,0.5390140087110922,L29R12,2022-10-21_16h12.18.308,t1_Paradigm,2021.1.4,59.987568288396645,
M,right,Target,0,34,34,34,793.0596082110424,795.0599482610123,right,1,2,0.5111626248108223,L29R12,2022-10-21_16h12.18.308,t1_Paradigm,2021.1.4,59.987568288396645,
M,left,Lure,0,35,35,35,796.5596162310103,798.5596884114202,left,1,2,0.6752791297622025,L29R12,2022-10-21_16h12.18.308,t1_Paradigm,2021.1.4,59.987568288396645,
T,left,Distractor,0,36,36,36,800.0597156796139,802.0597519302974,left,1,2,1.0632983959512785,L29R12,2022-10-21_16h12.18.308,t1_Paradigm,2021.1.4,59.987568288396645,
F,left,Distractor,0,37,37,37,803.5598613236798,805.5597134340787,left,1,2,0.7313864290481433,L29R12,2022-10-21_16h12.18.308,t1_Paradigm,2021.1.4,59.987568288396645,
X,left,Distractor,0,38,38,38,807.0596909779124,809.05990206555,left,1,2,0.6071318123722449,L29R12,2022-10-21_16h12.18.308,t1_Paradigm,2021.1.4,59.987568288396645,
C,left,Distractor,0,39,39,39,810.5598321307916,812.5596608225023,left,1,2,0.48338662926107645,L29R12,2022-10-21_16h12.18.308,t1_Paradigm,2021.1.4,59.987568288396645,
R,left,Distractor,0,40,40,40,814.0596765418304,816.059641574393,left,1,2,0.5833507635397837,L29R12,2022-10-21_16h12.18.308,t1_Paradigm,2021.1.4,59.987568288396645,
B,left,Pretarget,0,41,41,41,817.5597330029123,819.5598016545409,left,1,2,0.5710983745520934,L29R12,2022-10-21_16h12.18.308,t1_Paradigm,2021.1.4,59.987568288396645,
H,left,Distractor,0,42,42,42,821.0597246621037,823.0596454240149,left,1,2,0.7192302806070074,L29R12,2022-10-21_16h12.18.308,t1_Paradigm,2021.1.4,59.987568288396645,
B,right,Target,0,43,43,43,824.55990206555,826.5597143964842,right,1,2,0.6593006261391565,L29R12,2022-10-21_16h12.18.308,t1_Paradigm,2021.1.4,59.987568288396645,
W,left,Pretarget,0,44,44,44,828.0596659553703,830.0596120606642,left,1,2,0.5672147460281849,L29R12,2022-10-21_16h12.18.308,t1_Paradigm,2021.1.4,59.987568288396645,
L,left,Pretarget,0,45,45,45,831.5596204014728,833.5596175142564,left,1,2,0.5237229836639017,L29R12,2022-10-21_16h12.18.308,t1_Paradigm,2021.1.4,59.987568288396645,
W,right,Target,0,46,46,46,835.0597355694044,837.0624553282978,right,1,2,0.6844691433943808,L29R12,2022-10-21_16h12.18.308,t1_Paradigm,2021.1.4,59.987568288396645,
L,right,Target,0,47,47,47,838.5598577948986,840.5600197998574,None,0,2,,L29R12,2022-10-21_16h12.18.308,t1_Paradigm,2021.1.4,59.987568288396645,
W,right,Target,0,48,48,48,842.0597083012108,844.0596335543087,left,0,2,0.7911874420242384,L29R12,2022-10-21_16h12.18.308,t1_Paradigm,2021.1.4,59.987568288396645,
X,left,Distractor,0,49,49,49,845.5596893738257,847.5596877698554,left,1,2,0.6671371761476621,L29R12,2022-10-21_16h12.18.308,t1_Paradigm,2021.1.4,59.987568288396645,
R,left,Distractor,0,50,50,50,849.0597917096457,851.0596739753382,left,1,2,0.5753631157567725,L29R12,2022-10-21_16h12.18.308,t1_Paradigm,2021.1.4,59.987568288396645,
V,left,Pretarget,0,51,51,51,852.5597102260217,854.5596495944774,left,1,2,0.7393586784601212,L29R12,2022-10-21_16h12.18.308,t1_Paradigm,2021.1.4,59.987568288396645,
Z,left,Distractor,0,52,52,52,856.0597631583223,858.0601715391967,left,1,2,0.5989709314890206,L29R12,2022-10-21_16h12.18.308,t1_Paradigm,2021.1.4,59.987568288396645,
V,right,Target,0,53,53,53,859.5598157698987,861.5596284215571,right,1,2,0.49137010669801384,L29R12,2022-10-21_16h12.18.308,t1_Paradigm,2021.1.4,59.987568288396645,
V,left,Lure,0,54,54,54,863.059804862598,865.0596027573338,right,0,2,0.7352443933486938,L29R12,2022-10-21_16h12.18.308,t1_Paradigm,2021.1.4,59.987568288396645,
N,left,Distractor,0,55,55,55,866.5597301156959,868.5600794689963,left,1,2,0.8667690239381045,L29R12,2022-10-21_16h12.18.308,t1_Paradigm,2021.1.4,59.987568288396645,
B,left,Distractor,0,56,56,56,870.0598773638485,872.0592408927623,left,1,2,0.5036738240160048,L29R12,2022-10-21_16h12.18.308,t1_Paradigm,2021.1.4,59.987568288396645,
V,left,Lure,0,57,57,57,873.5595491834683,875.5597557799192,left,1,2,0.7313742386177182,L29R12,2022-10-21_16h12.18.308,t1_Paradigm,2021.1.4,59.987568288396645,
J,left,Distractor,0,58,58,58,877.0595029878896,879.0596656345297,left,1,2,0.527429529465735,L29R12,2022-10-21_16h12.18.308,t1_Paradigm,2021.1.4,59.987568288396645,
H,left,Distractor,0,59,59,59,880.5599412034499,882.5596367623657,left,1,2,1.0433695369865745,L29R12,2022-10-21_16h12.18.308,t1_Paradigm,2021.1.4,59.987568288396645,
X,left,Pretarget,0,60,60,60,884.0596919403179,886.0596996395616,left,1,2,0.6314453925006092,L29R12,2022-10-21_16h12.18.308,t1_Paradigm,2021.1.4,59.987568288396645,
P,left,Distractor,0,61,61,61,887.559694185853,889.5596787873656,left,1,2,0.6191695848247036,L29R12,2022-10-21_16h12.18.308,t1_Paradigm,2021.1.4,59.987568288396645,
X,right,Target,0,62,62,62,891.0597381357802,893.059694185853,right,1,2,0.6552495390642434,L29R12,2022-10-21_16h12.18.308,t1_Paradigm,2021.1.4,59.987568288396645,
Q,left,Distractor,0,63,63,63,894.5599408826092,896.5597336445935,left,1,2,0.5955874333158135,L29R12,2022-10-21_16h12.18.308,t1_Paradigm,2021.1.4,59.987568288396645,
B,left,Pretarget,0,0,0,0,933.314588340465,935.3095199904637,None,0,2,,L29R12,2022-10-21_16h12.18.308,t1_Paradigm,2021.1.4,59.987568288396645,
F,left,Distractor,0,1,1,1,936.8096640305594,938.8096027573338,left,1,2,0.9373034285381436,L29R12,2022-10-21_16h12.18.308,t1_Paradigm,2021.1.4,59.987568288396645,
B,right,Target,0,2,2,2,940.3098125618417,942.3102113186615,right,1,2,0.732766519067809,L29R12,2022-10-21_16h12.18.308,t1_Paradigm,2021.1.4,59.987568288396645,
V,left,Distractor,0,3,3,3,943.8095790180378,945.8102061857935,left,1,2,0.5768108949996531,L29R12,2022-10-21_16h12.18.308,t1_Paradigm,2021.1.4,59.987568288396645,
G,left,Pretarget,0,4,4,4,947.3097355694044,949.3096787873656,left,1,2,0.5654330120887607,L29R12,2022-10-21_16h12.18.308,t1_Paradigm,2021.1.4,59.987568288396645,
B,left,Lure,0,5,5,5,950.809743910213,952.8098212234909,left,1,2,0.7132511738454923,L29R12,2022-10-21_16h12.18.308,t1_Paradigm,2021.1.4,59.987568288396645,
G,right,Target,0,6,6,6,954.3096152686048,956.3098346971674,right,1,2,0.557140281656757,L29R12,2022-10-21_16h12.18.308,t1_Paradigm,2021.1.4,59.987568288396645,
Y,left,Pretarget,0,7,7,7,957.8096935442882,959.8095559203066,left,1,2,0.4975801908876747,L29R12,2022-10-21_16h12.18.308,t1_Paradigm,2021.1.4,59.987568288396645,
P,left,Distractor,0,8,8,8,961.3100133838598,963.3096489527961,left,1,2,0.6134500068146735,L29R12,2022-10-21_16h12.18.308,t1_Paradigm,2021.1.4,59.987568288396645,
Y,right,Target,0,9,9,9,964.8098516996251,966.8095398801379,right,1,2,0.633333632722497,L29R12,2022-10-21_16h12.18.308,t1_Paradigm,2021.1.4,59.987568288396645,
X,left,Distractor,0,10,10,10,968.3094875894021,970.3096656345297,left,1,2,0.734042669297196,L29R12,2022-10-21_16h12.18.308,t1_Paradigm,2021.1.4,59.987568288396645,
Y,right,Target,0,11,11,11,971.8098273187643,973.8096370832063,right,1,2,0.7372686535818502,L29R12,2022-10-21_16h12.18.308,t1_Paradigm,2021.1.4,59.987568288396645,
N,left,Distractor,0,12,12,12,975.3097188876709,977.3096287422813,left,1,2,0.5495748090324923,L29R12,2022-10-21_16h12.18.308,t1_Paradigm,2021.1.4,59.987568288396645,
Y,right,Target,0,13,13,13,978.8096409328282,980.8097936344566,right,1,2,0.5531783774495125,L29R12,2022-10-21_16h12.18.308,t1_Paradigm,2021.1.4,59.987568288396645,
Y,left,Lure,0,14,14,14,982.3097374942154,984.3098273187643,left,1,2,0.9571373302023858,L29R12,2022-10-21_16h12.18.308,t1_Paradigm,2021.1.4,59.987568288396645,
K,left,Distractor,0,15,15,15,985.8096710881218,987.8114005314419,left,1,2,0.6076287346659228,L29R12,2022-10-21_16h12.18.308,t1_Paradigm,2021.1.4,59.987568288396645,
T,left,Pretarget,0,16,16,16,989.3097766319988,991.3095620154636,left,1,2,0.6452097210567445,L29R12,2022-10-21_16h12.18.308,t1_Paradigm,2021.1.4,59.987568288396645,
J,left,Distractor,0,17,17,17,992.8098568324931,994.8096839202335,left,1,2,0.521212387480773,L29R12,2022-10-21_16h12.18.308,t1_Paradigm,2021.1.4,59.987568288396645,
T,right,Target,0,18,18,18,996.3098917999305,998.3104894539574,right,1,2,0.7807344311149791,L29R12,2022-10-21_16h12.18.308,t1_Paradigm,2021.1.4,59.987568288396645,
S,left,Pretarget,0,19,19,19,999.8098087122198,1001.8101487623062,left,1,2,0.6088397619314492,L29R12,2022-10-21_16h12.18.308,t1_Paradigm,2021.1.4,59.987568288396645,
R,left,Distractor,0,20,20,20,1003.3095671483316,1005.310093584354,left,1,2,0.804632251849398,L29R12,2022-10-21_16h12.18.308,t1_Paradigm,2021.1.4,59.987568288396645,
S,right,Target,0,21,21,21,1006.8097570630489,1008.8096149478806,right,1,2,0.825374343781732,L29R12,2022-10-21_16h12.18.308,t1_Paradigm,2021.1.4,59.987568288396645,
Q,left,Distractor,0,22,22,22,1010.309638366336,1012.3095658650855,left,1,2,0.669417115743272,L29R12,2022-10-21_16h12.18.308,t1_Paradigm,2021.1.4,59.987568288396645,
D,left,Distractor,0,23,23,23,1013.8097102260217,1015.809553674655,left,1,2,0.8172407310921699,L29R12,2022-10-21_16h12.18.308,t1_Paradigm,2021.1.4,59.987568288396645,
F,left,Distractor,0,24,24,24,1017.3094638501061,1019.3099200305296,left,1,2,0.6608715932816267,L29R12,2022-10-21_16h12.18.308,t1_Paradigm,2021.1.4,59.987568288396645,
Z,left,Distractor,0,25,25,25,1020.8100749778096,1022.8096742961789,left,1,2,0.7292781185824424,L29R12,2022-10-21_16h12.18.308,t1_Paradigm,2021.1.4,59.987568288396645,
P,left,Distractor,0,26,26,26,1024.309686165885,1026.3102376244497,left,1,2,1.2927770155947655,L29R12,2022-10-21_16h12.18.308,t1_Paradigm,2021.1.4,59.987568288396645,
H,left,Distractor,0,27,27,27,1027.8097673287848,1029.8096656345297,right,0,2,1.217125499038957,L29R12,2022-10-21_16h12.18.308,t1_Paradigm,2021.1.4,59.987568288396645,
Z,left,Pretarget,0,28,28,28,1031.309497855138,1033.3100906971376,left,1,2,1.2368095860583708,L29R12,2022-10-21_16h12.18.308,t1_Paradigm,2021.1.4,59.987568288396645,
J,left,Pretarget,0,29,29,29,1034.8097750280285,1036.80968680745,left,1,2,0.6973875171970576,L29R12,2022-10-21_16h12.18.308,t1_Paradigm,2021.1.4,59.987568288396645,
Z,right,Target,0,30,30,30,1038.3095863964409,1040.31029953924,right,1,2,1.0365958036854863,L29R12,2022-10-21_16h12.18.308,t1_Paradigm,2021.1.4,59.987568288396645,
J,right,Target,0,31,31,31,1041.8097236996982,1043.8096204014728,right,1,2,0.9452288409229368,L29R12,2022-10-21_16h12.18.308,t1_Paradigm,2021.1.4,59.987568288396645,
V,left,Pretarget,0,32,32,32,1045.3099957397208,1047.3103781356476,left,1,2,0.5327346313279122,L29R12,2022-10-21_16h12.18.308,t1_Paradigm,2021.1.4,59.987568288396645,
Z,left,Lure,0,33,33,33,1048.8096746170195,1050.810082997894,left,1,2,0.792869406635873,L29R12,2022-10-21_16h12.18.308,t1_Paradigm,2021.1.4,59.987568288396645,
V,right,Target,0,34,34,34,1052.3095684315776,1054.3096794290468,right,1,2,0.9093323855195194,L29R12,2022-10-21_16h12.18.308,t1_Paradigm,2021.1.4,59.987568288396645,
X,left,Distractor,0,35,35,35,1055.8096357999602,1057.8095238400856,left,1,2,0.6734495962737128,L29R12,2022-10-21_16h12.18.308,t1_Paradigm,2021.1.4,59.987568288396645,
S,left,Distractor,0,36,36,36,1059.309824431548,1061.3096261759056,left,1,2,0.6134647637372836,L29R12,2022-10-21_16h12.18.308,t1_Paradigm,2021.1.4,59.987568288396645,
Q,left,Distractor,0,37,37,37,1062.8095203113044,1064.8100467472104,left,1,2,0.5528280617436394,L29R12,2022-10-21_16h12.18.308,t1_Paradigm,2021.1.4,59.987568288396645,
P,left,Distractor,0,38,38,38,1066.3096380456118,1068.3095719603589,left,1,2,0.5094357478665188,L29R12,2022-10-21_16h12.18.308,t1_Paradigm,2021.1.4,59.987568288396645,
S,left,Lure,0,39,39,39,1069.8094131633407,1071.809630346368,left,1,2,1.265417100279592,L29R12,2022-10-21_16h12.18.308,t1_Paradigm,2021.1.4,59.987568288396645,
K,left,Pretarget,0,40,40,40,1073.3093249428784,1075.3097580254544,left,1,2,0.7572886204579845,L29R12,2022-10-21_16h12.18.308,t1_Paradigm,2021.1.4,59.987568288396645,
L,left,Distractor,0,41,41,41,1076.8094962510513,1078.8105471982853,left,1,2,0.6003038635244593,L29R12,2022-10-21_16h12.18.308,t1_Paradigm,2021.1.4,59.987568288396645,
K,right,Target,0,42,42,42,1080.3098468875978,1082.3103794188937,right,1,2,0.5565407027024776,L29R12,2022-10-21_16h12.18.308,t1_Paradigm,2021.1.4,59.987568288396645,
B,left,Distractor,0,43,43,43,1083.8095264064614,1085.809844321222,left,1,2,0.6731034510303289,L29R12,2022-10-21_16h12.18.308,t1_Paradigm,2021.1.4,59.987568288396645,
N,left,Distractor,0,44,44,44,1087.3102225466864,1089.3100586169166,left,1,2,0.6446739818202332,L29R12,2022-10-21_16h12.18.308,t1_Paradigm,2021.1.4,59.987568288396645,
S,left,Pretarget,0,45,45,45,1090.8098257146776,1092.8098456044681,left,1,2,0.8571193011011928,L29R12,2022-10-21_16h12.18.308,t1_Paradigm,2021.1.4,59.987568288396645,
Z,left,Distractor,0,46,46,46,1094.3096438200446,1096.3097679703496,left,1,2,0.7010039176093414,L29R12,2022-10-21_16h12.18.308,t1_Paradigm,2021.1.4,59.987568288396645,
S,right,Target,0,47,47,47,1097.8096733337734,1099.8099357497413,right,1,2,0.9610151841770858,L29R12,2022-10-21_16h12.18.308,t1_Paradigm,2021.1.4,59.987568288396645,
C,left,Distractor,0,48,48,48,1101.3096008325228,1103.310081073083,left,1,2,0.7569504950661212,L29R12,2022-10-21_16h12.18.308,t1_Paradigm,2021.1.4,59.987568288396645,
T,left,Pretarget,0,49,49,49,1104.8097304365365,1106.8098869879032,left,1,2,0.5209846182260662,L29R12,2022-10-21_16h12.18.308,t1_Paradigm,2021.1.4,59.987568288396645,
S,left,Lure,0,50,50,50,1108.3096457448555,1110.3096187975025,left,1,2,0.9093516336288303,L29R12,2022-10-21_16h12.18.308,t1_Paradigm,2021.1.4,59.987568288396645,
T,right,Target,0,51,51,51,1111.809615910286,1113.8096621057484,right,1,2,0.49736910325009376,L29R12,2022-10-21_16h12.18.308,t1_Paradigm,2021.1.4,59.987568288396645,
N,left,Pretarget,0,52,52,52,1115.309741985402,1117.309596982901,left,1,2,0.5974493678659201,L29R12,2022-10-21_16h12.18.308,t1_Paradigm,2021.1.4,59.987568288396645,
B,left,Distractor,0,53,53,53,1118.8096123813884,1120.8105234589893,left,1,2,0.5043587362160906,L29R12,2022-10-21_16h12.18.308,t1_Paradigm,2021.1.4,59.987568288396645,
N,right,Target,0,54,54,54,1122.3096123813884,1124.3096377247712,right,1,2,0.7494857545243576,L29R12,2022-10-21_16h12.18.308,t1_Paradigm,2021.1.4,59.987568288396645,
N,left,Lure,0,55,55,55,1125.8095594490878,1127.809842396411,left,1,2,1.361149536096491,L29R12,2022-10-21_16h12.18.308,t1_Paradigm,2021.1.4,59.987568288396645,
X,left,Distractor,0,56,56,56,1129.309774065623,1131.3095934541197,left,1,2,0.6452049090294167,L29R12,2022-10-21_16h12.18.308,t1_Paradigm,2021.1.4,59.987568288396645,
W,left,Distractor,0,57,57,57,1132.8094693036983,1134.8101009627571,left,1,2,1.0649684908566996,L29R12,2022-10-21_16h12.18.308,t1_Paradigm,2021.1.4,59.987568288396645,
S,left,Distractor,0,58,58,58,1136.3096069277963,1138.3091841108399,left,1,2,0.5417716223746538,L29R12,2022-10-21_16h12.18.308,t1_Paradigm,2021.1.4,59.987568288396645,
L,left,Distractor,0,59,59,59,1139.8098459251923,1141.8095584866824,left,1,2,0.5773966793203726,L29R12,2022-10-21_16h12.18.308,t1_Paradigm,2021.1.4,59.987568288396645,
K,left,Pretarget,0,60,60,60,1143.3095033087302,1145.3096499152016,left,1,2,0.5814201773609966,L29R12,2022-10-21_16h12.18.308,t1_Paradigm,2021.1.4,59.987568288396645,
V,left,Pretarget,0,61,61,61,1146.8098385467893,1148.8102684214246,left,1,2,0.6327651715837419,L29R12,2022-10-21_16h12.18.308,t1_Paradigm,2021.1.4,59.987568288396645,
K,right,Target,0,62,62,62,1150.309514216031,1152.310161915142,right,1,2,0.54081884061452,L29R12,2022-10-21_16h12.18.308,t1_Paradigm,2021.1.4,59.987568288396645,
V,right,Target,0,63,63,63,1153.8099501858233,1155.8097371733747,right,1,2,0.4813363839639351,L29R12,2022-10-21_16h12.18.308,t1_Paradigm,2021.1.4,59.987568288396645,
R,left,Distractor,0,0,0,0,1297.0823569190688,1299.076233451371,left,1,3,0.7026323083555326,L29R12,2022-10-21_16h12.18.308,t1_Paradigm,2021.1.4,59.987568288396645,
P,left,Lure,0,1,1,1,1300.5761211707722,1302.576136889984,left,1,3,0.3386985321994871,L29R12,2022-10-21_16h12.18.308,t1_Paradigm,2021.1.4,59.987568288396645,
V,left,Distractor,0,2,2,2,1304.076331616845,1306.0761869351845,left,1,3,0.47063892195001245,L29R12,2022-10-21_16h12.18.308,t1_Paradigm,2021.1.4,59.987568288396645,
P,left,Pretarget,0,3,3,3,1307.5761782735353,1309.5761038474739,left,1,3,0.9546299420762807,L29R12,2022-10-21_16h12.18.308,t1_Paradigm,2021.1.4,59.987568288396645,
Z,left,Distractor,0,4,4,4,1311.0762055416126,1313.0761554965284,left,1,3,0.8308818717487156,L29R12,2022-10-21_16h12.18.308,t1_Paradigm,2021.1.4,59.987568288396645,
L,left,Pretarget,0,5,5,5,1314.5761195666855,1316.5763829451753,left,1,3,0.6585400046315044,L29R12,2022-10-21_16h12.18.308,t1_Paradigm,2021.1.4,59.987568288396645,
P,right,Target,0,6,6,6,1318.0762915165396,1320.0760332710342,right,1,3,0.9990061555290595,L29R12,2022-10-21_16h12.18.308,t1_Paradigm,2021.1.4,59.987568288396645,
S,left,Distractor,0,7,7,7,1321.5761824438814,1323.5761227747425,left,1,3,0.8108208423946053,L29R12,2022-10-21_16h12.18.308,t1_Paradigm,2021.1.4,59.987568288396645,
L,right,Target,0,8,8,8,1325.0762045792071,1327.0762356970226,None,0,3,,L29R12,2022-10-21_16h12.18.308,t1_Paradigm,2021.1.4,59.987568288396645,
D,left,Distractor,0,9,9,9,1328.5763977019815,1330.576604619273,left,1,3,0.7224588313838467,L29R12,2022-10-21_16h12.18.308,t1_Paradigm,2021.1.4,59.987568288396645,
G,left,Distractor,0,10,10,10,1332.0762055416126,1334.0770168497693,left,1,3,0.8538365346612409,L29R12,2022-10-21_16h12.18.308,t1_Paradigm,2021.1.4,59.987568288396645,
M,left,Pretarget,0,11,11,11,1335.5762013712665,1337.5761532509932,left,1,3,0.842745448811911,L29R12,2022-10-21_16h12.18.308,t1_Paradigm,2021.1.4,59.987568288396645,
Y,left,Distractor,0,12,12,12,1339.0763065943029,1341.0764233662048,left,1,3,0.6224969427566975,L29R12,2022-10-21_16h12.18.308,t1_Paradigm,2021.1.4,59.987568288396645,
V,left,Distractor,0,13,13,13,1342.5764182333369,1344.576052198303,left,1,3,0.594786070054397,L29R12,2022-10-21_16h12.18.308,t1_Paradigm,2021.1.4,59.987568288396645,
M,right,Target,0,14,14,14,1346.0763877572026,1348.0761314363917,right,1,3,0.7588259032927454,L29R12,2022-10-21_16h12.18.308,t1_Paradigm,2021.1.4,59.987568288396645,
S,left,Pretarget,0,15,15,15,1349.576277722139,1351.5760717672529,left,1,3,0.6831429480807856,L29R12,2022-10-21_16h12.18.308,t1_Paradigm,2021.1.4,59.987568288396645,
Q,left,Distractor,0,16,16,16,1353.0761882183142,1355.0763130103005,left,1,3,0.6545270929345861,L29R12,2022-10-21_16h12.18.308,t1_Paradigm,2021.1.4,59.987568288396645,
R,left,Pretarget,0,17,17,17,1356.5761375316652,1358.576363697066,left,1,3,0.6265281400410458,L29R12,2022-10-21_16h12.18.308,t1_Paradigm,2021.1.4,59.987568288396645,
S,right,Target,0,18,18,18,1360.0763194262981,1362.0761936720228,None,0,3,,L29R12,2022-10-21_16h12.18.308,t1_Paradigm,2021.1.4,59.987568288396645,
F,left,Distractor,0,19,19,19,1363.5760493110865,1365.576213561697,left,1,3,1.0507271296810359,L29R12,2022-10-21_16h12.18.308,t1_Paradigm,2021.1.4,59.987568288396645,
R,right,Target,0,20,20,20,1367.076518002781,1369.0761192459613,left,0,3,0.7346194711280987,L29R12,2022-10-21_16h12.18.308,t1_Paradigm,2021.1.4,59.987568288396645,
P,left,Distractor,0,21,21,21,1370.5762940830318,1372.5760817121482,left,1,3,0.8506355729186907,L29R12,2022-10-21_16h12.18.308,t1_Paradigm,2021.1.4,59.987568288396645,
L,left,Distractor,0,22,22,22,1374.0761490805307,1376.0762318474008,left,1,3,0.790681537357159,L29R12,2022-10-21_16h12.18.308,t1_Paradigm,2021.1.4,59.987568288396645,
R,right,Target,0,23,23,23,1377.5760910153622,1379.5764304237673,right,1,3,0.7625988550717011,L29R12,2022-10-21_16h12.18.308,t1_Paradigm,2021.1.4,59.987568288396645,
H,left,Pretarget,0,24,24,24,1381.0763543937355,1383.0768266142113,left,1,3,0.6860138047486544,L29R12,2022-10-21_16h12.18.308,t1_Paradigm,2021.1.4,59.987568288396645,
G,left,Pretarget,0,25,25,25,1384.5763370704371,1386.5766504940111,None,0,3,,L29R12,2022-10-21_16h12.18.308,t1_Paradigm,2021.1.4,59.987568288396645,
T,left,Distractor,0,26,26,26,1388.076153892558,1390.0763848699862,left,1,3,0.9986003411468118,L29R12,2022-10-21_16h12.18.308,t1_Paradigm,2021.1.4,59.987568288396645,
H,right,Target,0,27,27,27,1391.5761375316652,1393.5760493110865,left,0,3,1.4026940306648612,L29R12,2022-10-21_16h12.18.308,t1_Paradigm,2021.1.4,59.987568288396645,
G,right,Target,0,28,28,28,1395.0762892710045,1397.0761016018223,right,1,3,1.086732016177848,L29R12,2022-10-21_16h12.18.308,t1_Paradigm,2021.1.4,59.987568288396645,
D,left,Distractor,0,29,29,29,1398.5761529301526,1400.5761388147948,left,1,3,1.0267702814890072,L29R12,2022-10-21_16h12.18.308,t1_Paradigm,2021.1.4,59.987568288396645,
N,left,Pretarget,0,30,30,30,1402.0761968799634,1404.094168526237,left,1,3,0.6128366335760802,L29R12,2022-10-21_16h12.18.308,t1_Paradigm,2021.1.4,59.987568288396645,
V,left,Distractor,0,31,31,31,1405.5761943135876,1407.5765038874233,left,1,3,0.5862732693785802,L29R12,2022-10-21_16h12.18.308,t1_Paradigm,2021.1.4,59.987568288396645,
R,left,Distractor,0,32,32,32,1409.0762860629475,1411.076242433861,left,1,3,0.7505119999404997,L29R12,2022-10-21_16h12.18.308,t1_Paradigm,2021.1.4,59.987568288396645,
N,right,Target,0,33,33,33,1412.5764188749017,1414.5760900529567,right,1,3,0.7387648740550503,L29R12,2022-10-21_16h12.18.308,t1_Paradigm,2021.1.4,59.987568288396645,
Z,left,Distractor,0,34,34,34,1416.0764233662048,1418.0762603988405,left,1,3,0.7106552444165573,L29R12,2022-10-21_16h12.18.308,t1_Paradigm,2021.1.4,59.987568288396645,
N,left,Lure,0,35,35,35,1419.5763126894599,1421.5761686494807,right,0,3,0.9866626587463543,L29R12,2022-10-21_16h12.18.308,t1_Paradigm,2021.1.4,59.987568288396645,
Y,left,Pretarget,0,36,36,36,1423.0761439476628,1425.0760159477359,left,1,3,0.6228770930320024,L29R12,2022-10-21_16h12.18.308,t1_Paradigm,2021.1.4,59.987568288396645,
Y,left,Lure,0,37,37,37,1426.5762305641547,1428.5760634264443,left,1,3,0.9786211162572727,L29R12,2022-10-21_16h12.18.308,t1_Paradigm,2021.1.4,59.987568288396645,
B,left,Distractor,0,38,38,38,1430.0760765792802,1432.0761057722848,left,1,3,0.7588303945958614,L29R12,2022-10-21_16h12.18.308,t1_Paradigm,2021.1.4,59.987568288396645,
Y,right,Target,0,39,39,39,1433.5761468348792,1435.576625471469,right,1,3,0.9222831603838131,L29R12,2022-10-21_16h12.18.308,t1_Paradigm,2021.1.4,59.987568288396645,
J,left,Distractor,0,40,40,40,1437.0760473862756,1439.0760862033349,left,1,3,0.6867144361604005,L29R12,2022-10-21_16h12.18.308,t1_Paradigm,2021.1.4,59.987568288396645,
X,left,Distractor,0,41,41,41,1440.5763438072754,1442.5762401882093,left,1,3,0.6746920621953905,L29R12,2022-10-21_16h12.18.308,t1_Paradigm,2021.1.4,59.987568288396645,
W,left,Pretarget,0,42,42,42,1444.0762392258039,1446.0769703334663,left,1,3,0.6460117259994149,L29R12,2022-10-21_16h12.18.308,t1_Paradigm,2021.1.4,59.987568288396645,
S,left,Pretarget,0,43,43,43,1447.5761724991025,1449.576051556738,left,1,3,1.2908592616440728,L29R12,2022-10-21_16h12.18.308,t1_Paradigm,2021.1.4,59.987568288396645,
R,left,Distractor,0,44,44,44,1451.0761397772003,1453.076104168198,left,1,3,0.7831144608790055,L29R12,2022-10-21_16h12.18.308,t1_Paradigm,2021.1.4,59.987568288396645,
W,right,Target,0,45,45,45,1454.576275797328,1456.5763325792504,right,1,3,1.1065056070219725,L29R12,2022-10-21_16h12.18.308,t1_Paradigm,2021.1.4,59.987568288396645,
S,right,Target,0,46,46,46,1458.0761096219067,1460.0760858824942,right,1,3,1.062832270632498,L29R12,2022-10-21_16h12.18.308,t1_Paradigm,2021.1.4,59.987568288396645,
D,left,Distractor,0,47,47,47,1461.5763649801956,1463.5761949551525,left,1,3,0.6987833265447989,L29R12,2022-10-21_16h12.18.308,t1_Paradigm,2021.1.4,59.987568288396645,
T,left,Distractor,0,48,48,48,1465.0761757070431,1467.0762074664235,left,1,3,0.5747612912673503,L29R12,2022-10-21_16h12.18.308,t1_Paradigm,2021.1.4,59.987568288396645,
S,right,Target,0,49,49,49,1468.5761612709612,1470.5762504539452,left,0,3,0.8987420714693144,L29R12,2022-10-21_16h12.18.308,t1_Paradigm,2021.1.4,59.987568288396645,
K,left,Distractor,0,50,50,50,1472.0761548549635,1474.076665571658,left,1,3,0.5824987136293203,L29R12,2022-10-21_16h12.18.308,t1_Paradigm,2021.1.4,59.987568288396645,
S,left,Lure,0,51,51,51,1475.5761818023166,1477.5761497220956,left,1,3,1.018654954386875,L29R12,2022-10-21_16h12.18.308,t1_Paradigm,2021.1.4,59.987568288396645,
T,left,Pretarget,0,52,52,52,1479.076507416321,1481.076804158045,left,1,3,1.0860612192191184,L29R12,2022-10-21_16h12.18.308,t1_Paradigm,2021.1.4,59.987568288396645,
V,left,Distractor,0,53,53,53,1482.5761673662346,1484.576817631838,left,1,3,0.7220626410562545,L29R12,2022-10-21_16h12.18.308,t1_Paradigm,2021.1.4,59.987568288396645,
B,left,Distractor,0,54,54,54,1486.076136889984,1488.0767104838742,left,1,3,0.677975470200181,L29R12,2022-10-21_16h12.18.308,t1_Paradigm,2021.1.4,59.987568288396645,
T,right,Target,0,55,55,55,1489.5762222233461,1491.5759867547313,right,1,3,0.8748779349261895,L29R12,2022-10-21_16h12.18.308,t1_Paradigm,2021.1.4,59.987568288396645,
Y,left,Pretarget,0,56,56,56,1493.076067917631,1495.075708940276,left,1,3,0.6871090226341039,L29R12,2022-10-21_16h12.18.308,t1_Paradigm,2021.1.4,59.987568288396645,
T,left,Lure,0,57,57,57,1496.5760663136607,1498.5769472357351,left,1,3,1.1062021283432841,L29R12,2022-10-21_16h12.18.308,t1_Paradigm,2021.1.4,59.987568288396645,
P,left,Pretarget,0,58,58,58,1500.076273872517,1502.076114433934,left,1,3,0.7747931790072471,L29R12,2022-10-21_16h12.18.308,t1_Paradigm,2021.1.4,59.987568288396645,
Y,right,Target,0,59,59,59,1503.5760736920638,1505.5758844189113,right,1,3,0.7949260680470616,L29R12,2022-10-21_16h12.18.308,t1_Paradigm,2021.1.4,59.987568288396645,
R,left,Distractor,0,60,60,60,1507.0761718574213,1509.0761824438814,left,1,3,1.086598562542349,L29R12,2022-10-21_16h12.18.308,t1_Paradigm,2021.1.4,59.987568288396645,
P,right,Target,0,61,61,61,1510.5760396870319,1512.576141381287,right,1,3,1.1546412984607741,L29R12,2022-10-21_16h12.18.308,t1_Paradigm,2021.1.4,59.987568288396645,
L,left,Distractor,0,62,62,62,1514.0761680077994,1516.076193992747,left,1,3,1.4148402342107147,L29R12,2022-10-21_16h12.18.308,t1_Paradigm,2021.1.4,59.987568288396645,
V,left,Distractor,0,63,63,63,1517.5763630553847,1519.576037120656,left,1,3,1.2588730612769723,L29R12,2022-10-21_16h12.18.308,t1_Paradigm,2021.1.4,59.987568288396645,
H,left,Lure,0,0,0,0,1568.4069449773524,1570.4097661096603,left,1,3,0.6651565448846668,L29R12,2022-10-21_16h12.18.308,t1_Paradigm,2021.1.4,59.987568288396645,
B,left,Distractor,0,1,1,1,1571.909439854091,1573.9093192325672,left,1,3,0.49359390581957996,L29R12,2022-10-21_16h12.18.308,t1_Paradigm,2021.1.4,59.987568288396645,
T,left,Distractor,0,2,2,2,1575.4094963152893,1577.4094013578724,left,1,3,0.49757569970097393,L29R12,2022-10-21_16h12.18.308,t1_Paradigm,2021.1.4,59.987568288396645,
R,left,Distractor,0,3,3,3,1578.9093577287858,1580.9094042450888,left,1,3,0.6774647535057738,L29R12,2022-10-21_16h12.18.308,t1_Paradigm,2021.1.4,59.987568288396645,
H,left,Pretarget,0,4,4,4,1582.40935516241,1584.409441778902,left,1,3,0.6498093794798478,L29R12,2022-10-21_16h12.18.308,t1_Paradigm,2021.1.4,59.987568288396645,
K,left,Distractor,0,5,5,5,1585.909389167442,1587.9103855782887,left,1,3,0.8286478070076555,L29R12,2022-10-21_16h12.18.308,t1_Paradigm,2021.1.4,59.987568288396645,
G,left,Distractor,0,6,6,6,1589.4093853178201,1591.4094125858974,left,1,3,0.8014993000542745,L29R12,2022-10-21_16h12.18.308,t1_Paradigm,2021.1.4,59.987568288396645,
H,right,Target,0,7,7,7,1592.9094279845012,1594.9102280645166,right,1,3,0.5807869143318385,L29R12,2022-10-21_16h12.18.308,t1_Paradigm,2021.1.4,59.987568288396645,
Y,left,Pretarget,0,8,8,8,1596.4094167563599,1598.40935516241,left,1,3,0.8734510077629238,L29R12,2022-10-21_16h12.18.308,t1_Paradigm,2021.1.4,59.987568288396645,
S,left,Distractor,0,9,9,9,1599.909493748797,1601.9101501096739,left,1,3,0.6046532965265214,L29R12,2022-10-21_16h12.18.308,t1_Paradigm,2021.1.4,59.987568288396645,
P,left,Distractor,0,10,10,10,1603.4097240846604,1605.4096887963824,left,1,3,0.6890235687606037,L29R12,2022-10-21_16h12.18.308,t1_Paradigm,2021.1.4,59.987568288396645,
Y,right,Target,0,11,11,11,1606.9094757839339,1608.9094228516333,right,1,3,0.901245609857142,L29R12,2022-10-21_16h12.18.308,t1_Paradigm,2021.1.4,59.987568288396645,
H,left,Lure,0,12,12,12,1610.4093205158133,1612.409701628494,left,1,3,0.5690048210090026,L29R12,2022-10-21_16h12.18.308,t1_Paradigm,2021.1.4,59.987568288396645,
Q,left,Distractor,0,13,13,13,1613.9096079543233,1615.909950891626,left,1,3,0.6208329430082813,L29R12,2022-10-21_16h12.18.308,t1_Paradigm,2021.1.4,59.987568288396645,
V,left,Pretarget,0,14,14,14,1617.4093484255718,1619.4097401247127,left,1,3,0.5449600729625672,L29R12,2022-10-21_16h12.18.308,t1_Paradigm,2021.1.4,59.987568288396645,
G,left,Distractor,0,15,15,15,1620.9093189117266,1622.9094716134714,left,1,3,0.5815164180239663,L29R12,2022-10-21_16h12.18.308,t1_Paradigm,2021.1.4,59.987568288396645,
Z,left,Pretarget,0,16,16,16,1624.4094154731138,1626.4095726661617,left,1,3,0.5851366680581123,L29R12,2022-10-21_16h12.18.308,t1_Paradigm,2021.1.4,59.987568288396645,
V,right,Target,0,17,17,17,1627.9094536486082,1629.9098588214256,right,1,3,1.0209355355473235,L29R12,2022-10-21_16h12.18.308,t1_Paradigm,2021.1.4,59.987568288396645,
N,left,Distractor,0,18,18,18,1631.409443703713,1633.409733708715,left,1,3,1.4570725281955674,L29R12,2022-10-21_16h12.18.308,t1_Paradigm,2021.1.4,59.987568288396645,
Z,right,Target,0,19,19,19,1634.909274320351,1636.910168716102,None,0,3,,L29R12,2022-10-21_16h12.18.308,t1_Paradigm,2021.1.4,59.987568288396645,
R,left,Distractor,0,20,20,20,1638.4094311924418,1640.4094190020114,None,0,3,,L29R12,2022-10-21_16h12.18.308,t1_Paradigm,2021.1.4,59.987568288396645,
P,left,Distractor,0,21,21,21,1641.9096079543233,1643.9094485157402,left,1,3,0.8452114533865824,L29R12,2022-10-21_16h12.18.308,t1_Paradigm,2021.1.4,59.987568288396645,
Z,right,Target,0,22,22,22,1645.4094392125262,1647.410153638455,right,1,3,0.49681668216362596,L29R12,2022-10-21_16h12.18.308,t1_Paradigm,2021.1.4,59.987568288396645,
D,left,Pretarget,0,23,23,23,1648.9095502099954,1650.9097102901433,left,1,3,0.6133239316986874,L29R12,2022-10-21_16h12.18.308,t1_Paradigm,2021.1.4,59.987568288396645,
K,left,Distractor,0,24,24,24,1652.409572986886,1654.4099393427605,left,1,3,0.66504073550459,L29R12,2022-10-21_16h12.18.308,t1_Paradigm,2021.1.4,59.987568288396645,
W,left,Distractor,0,25,25,25,1655.909391092253,1657.9100179392844,left,1,3,0.7809496892150491,L29R12,2022-10-21_16h12.18.308,t1_Paradigm,2021.1.4,59.987568288396645,
D,right,Target,0,26,26,26,1659.4094093779568,1661.4094658390386,right,1,3,0.8498069413471967,L29R12,2022-10-21_16h12.18.308,t1_Paradigm,2021.1.4,59.987568288396645,
G,left,Pretarget,0,27,27,27,1662.909585498157,1664.9099938791478,left,1,3,1.0608262959867716,L29R12,2022-10-21_16h12.18.308,t1_Paradigm,2021.1.4,59.987568288396645,
V,left,Distractor,0,28,28,28,1666.4095373778837,1668.4095136385877,left,1,3,0.9212254763115197,L29R12,2022-10-21_16h12.18.308,t1_Paradigm,2021.1.4,59.987568288396645,
D,right,Target,0,29,29,29,1669.909534169943,1671.9092759243213,right,1,3,0.9895639916649088,L29R12,2022-10-21_16h12.18.308,t1_Paradigm,2021.1.4,59.987568288396645,
G,right,Target,0,30,30,30,1673.4093926962232,1675.4093455383554,right,1,3,0.8013023276580498,L29R12,2022-10-21_16h12.18.308,t1_Paradigm,2021.1.4,59.987568288396645,
B,left,Pretarget,0,31,31,31,1676.9093038340798,1678.909935172298,left,1,3,0.7409383071353659,L29R12,2022-10-21_16h12.18.308,t1_Paradigm,2021.1.4,59.987568288396645,
N,left,Distractor,0,32,32,32,1680.4096541497856,1682.4095675332937,left,1,3,0.793254048214294,L29R12,2022-10-21_16h12.18.308,t1_Paradigm,2021.1.4,59.987568288396645,
F,left,Distractor,0,33,33,33,1683.9095694581047,1685.9096435633255,left,1,3,0.5891136499121785,L29R12,2022-10-21_16h12.18.308,t1_Paradigm,2021.1.4,59.987568288396645,
B,right,Target,0,34,34,34,1687.4095601548906,1689.4098447061842,right,1,3,0.8329468739684671,L29R12,2022-10-21_16h12.18.308,t1_Paradigm,2021.1.4,59.987568288396645,
Q,left,Pretarget,0,35,35,35,1690.909435683745,1692.909364465624,left,1,3,0.5655956587288529,L29R12,2022-10-21_16h12.18.308,t1_Paradigm,2021.1.4,59.987568288396645,
S,left,Pretarget,0,36,36,36,1694.4094228516333,1696.409571062075,left,1,3,0.7134000258520246,L29R12,2022-10-21_16h12.18.308,t1_Paradigm,2021.1.4,59.987568288396645,
W,left,Distractor,0,37,37,37,1697.9094453077996,1699.909285548376,left,1,3,0.6534508024342358,L29R12,2022-10-21_16h12.18.308,t1_Paradigm,2021.1.4,59.987568288396645,
Q,right,Target,0,38,38,38,1701.40940777387,1703.4099345307332,right,1,3,0.8007197512779385,L29R12,2022-10-21_16h12.18.308,t1_Paradigm,2021.1.4,59.987568288396645,
S,right,Target,0,39,39,39,1704.9096810971387,1706.9093179493211,right,1,3,0.9013662313809618,L29R12,2022-10-21_16h12.18.308,t1_Paradigm,2021.1.4,59.987568288396645,
T,left,Distractor,0,40,40,40,1708.4094497989863,1710.4093436135445,left,1,3,0.9536758770700544,L29R12,2022-10-21_16h12.18.308,t1_Paradigm,2021.1.4,59.987568288396645,
G,left,Distractor,0,41,41,41,1711.9094741799636,1713.909665377927,left,1,3,0.9252030997304246,L29R12,2022-10-21_16h12.18.308,t1_Paradigm,2021.1.4,59.987568288396645,
D,left,Distractor,0,42,42,42,1715.4093381599523,1717.409874219913,left,1,3,0.6409571702824906,L29R12,2022-10-21_16h12.18.308,t1_Paradigm,2021.1.4,59.987568288396645,
S,left,Lure,0,43,43,43,1718.9094696886605,1720.9261995105771,left,1,3,0.7885818885406479,L29R12,2022-10-21_16h12.18.308,t1_Paradigm,2021.1.4,59.987568288396645,
Z,left,Pretarget,0,44,44,44,1722.4094157939544,1724.4093805057928,left,1,3,0.6012928960844874,L29R12,2022-10-21_16h12.18.308,t1_Paradigm,2021.1.4,59.987568288396645,
J,left,Distractor,0,45,45,45,1725.9092460897518,1727.9101853978354,left,1,3,0.6526077348971739,L29R12,2022-10-21_16h12.18.308,t1_Paradigm,2021.1.4,59.987568288396645,
M,left,Pretarget,0,46,46,46,1729.4093837137334,1731.4091578691732,left,1,3,0.705472047207877,L29R12,2022-10-21_16h12.18.308,t1_Paradigm,2021.1.4,59.987568288396645,
Z,right,Target,0,47,47,47,1732.9094100195216,1734.909444986959,right,1,3,1.0774784837849438,L29R12,2022-10-21_16h12.18.308,t1_Paradigm,2021.1.4,59.987568288396645,
P,left,Distractor,0,48,48,48,1736.4094446661184,1738.409674681141,left,1,3,0.8411160956602544,L29R12,2022-10-21_16h12.18.308,t1_Paradigm,2021.1.4,59.987568288396645,
M,right,Target,0,49,49,49,1739.9092249168316,1741.9090824807063,right,1,3,0.8138777641579509,L29R12,2022-10-21_16h12.18.308,t1_Paradigm,2021.1.4,59.987568288396645,
K,left,Distractor,0,50,50,50,1743.409353879164,1745.4101164254826,left,1,3,0.8165372123476118,L29R12,2022-10-21_16h12.18.308,t1_Paradigm,2021.1.4,59.987568288396645,
Y,left,Distractor,0,51,51,51,1746.9092634130502,1748.9094263804145,left,1,3,0.8213466752786189,L29R12,2022-10-21_16h12.18.308,t1_Paradigm,2021.1.4,59.987568288396645,
X,left,Distractor,0,52,52,52,1750.409385959385,1752.4093278942164,left,1,3,0.6817429683869705,L29R12,2022-10-21_16h12.18.308,t1_Paradigm,2021.1.4,59.987568288396645,
F,left,Pretarget,0,53,53,53,1753.909082801547,1755.909518450615,left,1,3,0.7496159999864176,L29R12,2022-10-21_16h12.18.308,t1_Paradigm,2021.1.4,59.987568288396645,
M,left,Lure,0,54,54,54,1757.4095508515602,1759.4092967764009,left,1,3,0.7053315360099077,L29R12,2022-10-21_16h12.18.308,t1_Paradigm,2021.1.4,59.987568288396645,
V,left,Distractor,0,55,55,55,1760.9092361448565,1762.9093907714123,left,1,3,0.7574673070339486,L29R12,2022-10-21_16h12.18.308,t1_Paradigm,2021.1.4,59.987568288396645,
F,right,Target,0,56,56,56,1764.4093882050365,1766.4091681349091,right,1,3,0.5535315803717822,L29R12,2022-10-21_16h12.18.308,t1_Paradigm,2021.1.4,59.987568288396645,
S,left,Distractor,0,57,57,57,1767.9093388015172,1769.91002948815,left,1,3,0.8288941828068346,L29R12,2022-10-21_16h12.18.308,t1_Paradigm,2021.1.4,59.987568288396645,
D,left,Distractor,0,58,58,58,1771.4095688165398,1773.409343934385,left,1,3,0.8815384251065552,L29R12,2022-10-21_16h12.18.308,t1_Paradigm,2021.1.4,59.987568288396645,
F,right,Target,0,59,59,59,1774.9093731272733,1776.909805889125,left,0,3,0.661012104479596,L29R12,2022-10-21_16h12.18.308,t1_Paradigm,2021.1.4,59.987568288396645,
V,left,Pretarget,0,60,60,60,1778.409257959458,1780.4093705608975,left,1,3,0.7136242664419115,L29R12,2022-10-21_16h12.18.308,t1_Paradigm,2021.1.4,59.987568288396645,
J,left,Distractor,0,61,61,61,1781.9094276636606,1783.9093009468634,left,1,3,0.6374729402596131,L29R12,2022-10-21_16h12.18.308,t1_Paradigm,2021.1.4,59.987568288396645,
V,left,Lure,0,62,62,62,1785.4094334380934,1787.4098171172664,left,1,3,1.4570295406738296,L29R12,2022-10-21_16h12.18.308,t1_Paradigm,2021.1.4,59.987568288396645,
V,right,Target,0,63,63,63,1788.90937473136,1790.9094558942597,None,0,3,,L29R12,2022-10-21_16h12.18.308,t1_Paradigm,2021.1.4,59.987568288396645,
R,left,Distractor,0,0,0,0,1883.2062474255217,1885.2093431644607,left,1,4,0.5534090340370312,L29R12,2022-10-21_16h12.18.308,t1_Paradigm,2021.1.4,59.987568288396645,
F,left,Distractor,0,1,1,1,1886.7093117258046,1888.709168968955,left,1,4,0.49360737949609756,L29R12,2022-10-21_16h12.18.308,t1_Paradigm,2021.1.4,59.987568288396645,
P,left,Pretarget,0,2,2,2,1890.2093656205107,1892.2094015503535,left,1,4,0.49753335386049,L29R12,2022-10-21_16h12.18.308,t1_Paradigm,2021.1.4,59.987568288396645,
H,left,Distractor,0,3,3,3,1893.709190462716,1895.7093287283788,left,1,4,0.5173255511326715,L29R12,2022-10-21_16h12.18.308,t1_Paradigm,2021.1.4,59.987568288396645,
Z,left,Distractor,0,4,4,4,1897.209360487759,1899.2093152545858,left,1,4,0.841516456566751,L29R12,2022-10-21_16h12.18.308,t1_Paradigm,2021.1.4,59.987568288396645,
T,left,Distractor,0,5,5,5,1900.7092533399118,1902.7093152545858,left,1,4,0.6534174390835688,L29R12,2022-10-21_16h12.18.308,t1_Paradigm,2021.1.4,59.987568288396645,
P,right,Target,0,6,6,6,1904.2092613598797,1906.2092645679368,right,1,4,0.7534842300228775,L29R12,2022-10-21_16h12.18.308,t1_Paradigm,2021.1.4,59.987568288396645,
G,left,Distractor,0,7,7,7,1907.709341560374,1909.7092453198275,left,1,4,0.6299655330367386,L29R12,2022-10-21_16h12.18.308,t1_Paradigm,2021.1.4,59.987568288396645,
L,left,Distractor,0,8,8,8,1911.2095484776655,1913.2094079663511,left,1,4,0.7452367326477543,L29R12,2022-10-21_16h12.18.308,t1_Paradigm,2021.1.4,59.987568288396645,
P,left,Lure,0,9,9,9,1914.709405720816,1916.7095234551234,right,0,4,0.7974267192184925,L29R12,2022-10-21_16h12.18.308,t1_Paradigm,2021.1.4,59.987568288396645,
Q,left,Pretarget,0,10,10,10,1918.2094977909,1920.2091128285974,left,1,4,0.9459843294462189,L29R12,2022-10-21_16h12.18.308,t1_Paradigm,2021.1.4,59.987568288396645,
D,left,Distractor,0,11,11,11,1921.709168968955,1923.7093752445653,left,1,4,0.6934762997552752,L29R12,2022-10-21_16h12.18.308,t1_Paradigm,2021.1.4,59.987568288396645,
M,left,Pretarget,0,12,12,12,1925.2094422922237,1927.2093175002374,None,0,4,,L29R12,2022-10-21_16h12.18.308,t1_Paradigm,2021.1.4,59.987568288396645,
C,left,Distractor,0,13,13,13,1928.7097319763852,1930.7097961367108,left,1,4,0.7008634064113721,L29R12,2022-10-21_16h12.18.308,t1_Paradigm,2021.1.4,59.987568288396645,
Q,right,Target,0,14,14,14,1932.2093130090507,1934.2095590641256,right,1,4,0.8653193197678775,L29R12,2022-10-21_16h12.18.308,t1_Paradigm,2021.1.4,59.987568288396645,
R,left,Distractor,0,15,15,15,1935.7095735002076,1937.709343485185,left,1,4,0.8853431362658739,L29R12,2022-10-21_16h12.18.308,t1_Paradigm,2021.1.4,59.987568288396645,
M,right,Target,0,16,16,16,1939.2092376205837,1941.2091895003105,right,1,4,0.7616088602226228,L29R12,2022-10-21_16h12.18.308,t1_Paradigm,2021.1.4,59.987568288396645,
S,left,Distractor,0,17,17,17,1942.7095282671507,1944.7094217608683,left,1,4,0.6532971382839605,L29R12,2022-10-21_16h12.18.308,t1_Paradigm,2021.1.4,59.987568288396645,
Z,left,Distractor,0,18,18,18,1946.2095446280437,1948.209814422531,left,1,4,1.200833892566152,L29R12,2022-10-21_16h12.18.308,t1_Paradigm,2021.1.4,59.987568288396645,
L,left,Pretarget,0,19,19,19,1949.7093386731576,1951.70939545508,left,1,4,0.6453175104688853,L29R12,2022-10-21_16h12.18.308,t1_Paradigm,2021.1.4,59.987568288396645,
M,right,Target,0,20,20,20,1953.2096559463535,1955.209678723244,right,1,4,0.45717133523430675,L29R12,2022-10-21_16h12.18.308,t1_Paradigm,2021.1.4,59.987568288396645,
P,left,Distractor,0,21,21,21,1956.7094349138206,1958.7099613497267,left,1,4,1.0048036883817986,L29R12,2022-10-21_16h12.18.308,t1_Paradigm,2021.1.4,59.987568288396645,
F,left,Distractor,0,22,22,22,1960.2094939412782,1962.2096376606496,left,1,4,0.8495743600651622,L29R12,2022-10-21_16h12.18.308,t1_Paradigm,2021.1.4,59.987568288396645,
L,right,Target,0,23,23,23,1963.7094653899549,1965.7092289589345,right,1,4,0.8214621639344841,L29R12,2022-10-21_16h12.18.308,t1_Paradigm,2021.1.4,59.987568288396645,
L,left,Lure,0,24,24,24,1967.2095234551234,1969.2092645679368,left,1,4,1.4655314341653138,L29R12,2022-10-21_16h12.18.308,t1_Paradigm,2021.1.4,59.987568288396645,
V,left,Pretarget,0,25,25,25,1970.7091766681988,1972.7098429738544,left,1,4,0.8131566013908014,L29R12,2022-10-21_16h12.18.308,t1_Paradigm,2021.1.4,59.987568288396645,
Z,left,Distractor,0,26,26,26,1974.209341560374,1976.209227996529,left,1,4,0.6096164234913886,L29R12,2022-10-21_16h12.18.308,t1_Paradigm,2021.1.4,59.987568288396645,
H,left,Distractor,0,27,27,27,1977.7094102120027,1979.709196557873,left,1,4,0.9175208554370329,L29R12,2022-10-21_16h12.18.308,t1_Paradigm,2021.1.4,59.987568288396645,
X,left,Distractor,0,28,28,28,1981.2094868837157,1983.2094625027385,left,1,4,1.4496270356466994,L29R12,2022-10-21_16h12.18.308,t1_Paradigm,2021.1.4,59.987568288396645,
V,right,Target,0,29,29,29,1984.7094188736519,1986.7094839964993,None,0,4,,L29R12,2022-10-21_16h12.18.308,t1_Paradigm,2021.1.4,59.987568288396645,
C,left,Distractor,0,30,30,30,1988.2093608084833,1990.2092956857523,left,1,4,0.8978021217044443,L29R12,2022-10-21_16h12.18.308,t1_Paradigm,2021.1.4,59.987568288396645,
S,left,Pretarget,0,31,31,31,1991.7093328987248,1993.709273229586,left,1,4,0.677591149462387,L29R12,2022-10-21_16h12.18.308,t1_Paradigm,2021.1.4,59.987568288396645,
D,left,Distractor,0,32,32,32,1995.2093264827272,1997.2100357757881,left,1,4,0.7928039630642161,L29R12,2022-10-21_16h12.18.308,t1_Paradigm,2021.1.4,59.987568288396645,
V,left,Distractor,0,33,33,33,1998.7093566381373,2000.7098035152303,right,0,4,0.46082847740035504,L29R12,2022-10-21_16h12.18.308,t1_Paradigm,2021.1.4,59.987568288396645,
R,left,Distractor,0,34,34,34,2002.2095914650708,2004.2091753849527,left,1,4,1.0255653492640704,L29R12,2022-10-21_16h12.18.308,t1_Paradigm,2021.1.4,59.987568288396645,
S,right,Target,0,35,35,35,2005.709364337381,2007.7092645679368,left,0,4,0.4053371179616079,L29R12,2022-10-21_16h12.18.308,t1_Paradigm,2021.1.4,59.987568288396645,
Y,left,Distractor,0,36,36,36,2009.2092206180096,2011.2097990240436,left,1,4,0.5530667382990941,L29R12,2022-10-21_16h12.18.308,t1_Paradigm,2021.1.4,59.987568288396645,
N,left,Pretarget,0,37,37,37,2012.7095196055016,2014.7096309238113,left,1,4,0.44549254002049565,L29R12,2022-10-21_16h12.18.308,t1_Paradigm,2021.1.4,59.987568288396645,
Z,left,Pretarget,0,38,38,38,2016.2092777207727,2018.2095500816358,left,1,4,0.6412712355377153,L29R12,2022-10-21_16h12.18.308,t1_Paradigm,2021.1.4,59.987568288396645,
P,left,Pretarget,0,39,39,39,2019.709644718212,2021.7092834952055,left,1,4,0.6775946783600375,L29R12,2022-10-21_16h12.18.308,t1_Paradigm,2021.1.4,59.987568288396645,
M,left,Distractor,0,40,40,40,2023.2096344525926,2025.2093130090507,left,1,4,0.665555301704444,L29R12,2022-10-21_16h12.18.308,t1_Paradigm,2021.1.4,59.987568288396645,
N,right,Target,0,41,41,41,2026.7095693297451,2028.7095414199866,left,0,4,0.5412692466052249,L29R12,2022-10-21_16h12.18.308,t1_Paradigm,2021.1.4,59.987568288396645,
Z,right,Target,0,42,42,42,2030.2092799664242,2032.2098173097475,left,0,4,0.6410059322370216,L29R12,2022-10-21_16h12.18.308,t1_Paradigm,2021.1.4,59.987568288396645,
P,right,Target,0,43,43,43,2033.7095635553123,2035.7095866530435,right,1,4,0.949505451717414,L29R12,2022-10-21_16h12.18.308,t1_Paradigm,2021.1.4,59.987568288396645,
X,left,Pretarget,0,44,44,44,2037.2093678661622,2039.2092334501212,left,1,4,0.9532899523619562,L29R12,2022-10-21_16h12.18.308,t1_Paradigm,2021.1.4,59.987568288396645,
Z,left,Lure,0,45,45,45,2040.7094477458159,2042.7094195153331,left,1,4,0.9414276585448533,L29R12,2022-10-21_16h12.18.308,t1_Paradigm,2021.1.4,59.987568288396645,
R,left,Pretarget,0,46,46,46,2044.2092761168024,2046.2093072346179,left,1,4,1.0415117727825418,L29R12,2022-10-21_16h12.18.308,t1_Paradigm,2021.1.4,59.987568288396645,
K,left,Distractor,0,47,47,47,2047.7094172696816,2049.7092834952055,left,1,4,1.1095108797308058,L29R12,2022-10-21_16h12.18.308,t1_Paradigm,2021.1.4,59.987568288396645,
X,right,Target,0,48,48,48,2051.209288307233,2053.2093242370756,left,0,4,1.033341267844662,L29R12,2022-10-21_16h12.18.308,t1_Paradigm,2021.1.4,59.987568288396645,
B,left,Distractor,0,49,49,49,2054.70974160044,2056.7100206981413,left,1,4,0.6367716672830284,L29R12,2022-10-21_16h12.18.308,t1_Paradigm,2021.1.4,59.987568288396645,
R,right,Target,0,50,50,50,2058.2092902320437,2060.210091274581,right,1,4,0.48083946167025715,L29R12,2022-10-21_16h12.18.308,t1_Paradigm,2021.1.4,59.987568288396645,
Y,left,Pretarget,0,51,51,51,2061.7093652997864,2063.709237299743,left,1,4,1.3013918313663453,L29R12,2022-10-21_16h12.18.308,t1_Paradigm,2021.1.4,59.987568288396645,
W,left,Pretarget,0,52,52,52,2065.209314613021,2067.2093739614356,left,1,4,0.6975402189418674,L29R12,2022-10-21_16h12.18.308,t1_Paradigm,2021.1.4,59.987568288396645,
Z,left,Distractor,0,53,53,53,2068.7096707031596,2070.709525700775,left,1,4,0.701163035351783,L29R12,2022-10-21_16h12.18.308,t1_Paradigm,2021.1.4,59.987568288396645,
Q,left,Distractor,0,54,54,54,2072.209646322299,2074.2097059914377,left,1,4,0.49718720838427544,L29R12,2022-10-21_16h12.18.308,t1_Paradigm,2021.1.4,59.987568288396645,
Y,right,Target,0,55,55,55,2075.709305309807,2077.709635414998,left,0,4,0.6450502824736759,L29R12,2022-10-21_16h12.18.308,t1_Paradigm,2021.1.4,59.987568288396645,
W,right,Target,0,56,56,56,2079.209490412497,2081.2097768886015,right,1,4,0.5209756356198341,L29R12,2022-10-21_16h12.18.308,t1_Paradigm,2021.1.4,59.987568288396645,
H,left,Pretarget,0,57,57,57,2082.7093524676748,2084.7099802771118,left,1,4,0.8447584810201079,L29R12,2022-10-21_16h12.18.308,t1_Paradigm,2021.1.4,59.987568288396645,
M,left,Distractor,0,58,58,58,2086.209278683178,2088.2093226331053,left,1,4,0.737413335358724,L29R12,2022-10-21_16h12.18.308,t1_Paradigm,2021.1.4,59.987568288396645,
R,left,Pretarget,0,59,59,59,2089.7092754752375,2091.7092924776953,left,1,4,0.629998896503821,L29R12,2022-10-21_16h12.18.308,t1_Paradigm,2021.1.4,59.987568288396645,
J,left,Distractor,0,60,60,60,2093.2096597959753,2095.2100832544966,left,1,4,0.6968164896825328,L29R12,2022-10-21_16h12.18.308,t1_Paradigm,2021.1.4,59.987568288396645,
H,right,Target,0,61,61,61,2096.70923890383,2098.709228638094,right,1,4,0.6534719753544778,L29R12,2022-10-21_16h12.18.308,t1_Paradigm,2021.1.4,59.987568288396645,
Z,left,Distractor,0,62,62,62,2100.2092125980416,2102.2096726279706,left,1,4,1.1374411808792502,L29R12,2022-10-21_16h12.18.308,t1_Paradigm,2021.1.4,59.987568288396645,
R,right,Target,0,63,63,63,2103.709307234618,2105.709256868693,None,0,4,,L29R12,2022-10-21_16h12.18.308,t1_Paradigm,2021.1.4,59.987568288396645,
J,left,Pretarget,0,0,0,0,2155.91914603801,2157.9092521850253,left,1,4,0.5255669533507898,L29R12,2022-10-21_16h12.18.308,t1_Paradigm,2021.1.4,59.987568288396645,
G,left,Pretarget,0,1,1,1,2159.409329498303,2161.4093901298475,left,1,4,0.4974887623684481,L29R12,2022-10-21_16h12.18.308,t1_Paradigm,2021.1.4,59.987568288396645,
Z,left,Distractor,0,2,2,2,2162.9094170772005,2164.909328856622,left,1,4,0.4693614885909483,L29R12,2022-10-21_16h12.18.308,t1_Paradigm,2021.1.4,59.987568288396645,
F,left,Distractor,0,3,3,3,2166.4094401749317,2168.40931442054,left,1,4,0.8255164590664208,L29R12,2022-10-21_16h12.18.308,t1_Paradigm,2021.1.4,59.987568288396645,
J,right,Target,0,4,4,4,2169.9091841749614,2171.90928426513,right,1,4,0.44530519179534167,L29R12,2022-10-21_16h12.18.308,t1_Paradigm,2021.1.4,59.987568288396645,
G,right,Target,0,5,5,5,2173.409219463123,2175.410159412888,right,1,4,0.7203582202782854,L29R12,2022-10-21_16h12.18.308,t1_Paradigm,2021.1.4,59.987568288396645,
H,left,Distractor,0,6,6,6,2176.909345217515,2178.909243523376,left,1,4,0.8853957476094365,L29R12,2022-10-21_16h12.18.308,t1_Paradigm,2021.1.4,59.987568288396645,
P,left,Distractor,0,7,7,7,2180.4095248666126,2182.4100009367103,left,1,4,0.728956033475697,L29R12,2022-10-21_16h12.18.308,t1_Paradigm,2021.1.4,59.987568288396645,
G,left,Lure,0,8,8,8,2183.90920310223,2185.9092223503394,left,1,4,1.1334885800024495,L29R12,2022-10-21_16h12.18.308,t1_Paradigm,2021.1.4,59.987568288396645,
S,left,Distractor,0,9,9,9,2187.4091440747725,2189.4092852275353,left,1,4,0.4499199278652668,L29R12,2022-10-21_16h12.18.308,t1_Paradigm,2021.1.4,59.987568288396645,
R,left,Pretarget,0,10,10,10,2190.909303192515,2192.9094000746263,left,1,4,0.581520909210667,L29R12,2022-10-21_16h12.18.308,t1_Paradigm,2021.1.4,59.987568288396645,
T,left,Pretarget,0,11,11,11,2194.409305117326,2196.409208235098,left,1,4,0.7613650507992133,L29R12,2022-10-21_16h12.18.308,t1_Paradigm,2021.1.4,59.987568288396645,
X,left,Distractor,0,12,12,12,2197.9091877037426,2199.909113277681,left,1,4,0.7175463911844417,L29R12,2022-10-21_16h12.18.308,t1_Paradigm,2021.1.4,59.987568288396645,
F,left,Pretarget,0,13,13,13,2201.4093028716743,2203.4097391623072,left,1,4,0.7048795260488987,L29R12,2022-10-21_16h12.18.308,t1_Paradigm,2021.1.4,59.987568288396645,
R,right,Target,0,14,14,14,2204.909362220089,2206.909380505793,right,1,4,0.3894186042016372,L29R12,2022-10-21_16h12.18.308,t1_Paradigm,2021.1.4,59.987568288396645,
T,right,Target,0,15,15,15,2208.4091383003397,2210.4092326160753,right,1,4,0.745435950695537,L29R12,2022-10-21_16h12.18.308,t1_Paradigm,2021.1.4,59.987568288396645,
C,left,Distractor,0,16,16,16,2211.9091427915264,2213.9100811372045,left,1,4,1.1969971013022587,L29R12,2022-10-21_16h12.18.308,t1_Paradigm,2021.1.4,59.987568288396645,
F,right,Target,0,17,17,17,2215.4095226210775,2217.4094635935035,None,0,4,,L29R12,2022-10-21_16h12.18.308,t1_Paradigm,2021.1.4,59.987568288396645,
M,left,Distractor,0,18,18,18,2218.909232936916,2220.9094533277676,left,1,4,0.5171523180324584,L29R12,2022-10-21_16h12.18.308,t1_Paradigm,2021.1.4,59.987568288396645,
N,left,Distractor,0,19,19,19,2222.4092387113487,2224.4095556635875,left,1,4,0.6010478032985702,L29R12,2022-10-21_16h12.18.308,t1_Paradigm,2021.1.4,59.987568288396645,
R,left,Lure,0,20,20,20,2225.909368315246,2227.9092358241323,left,1,4,0.5415881236549467,L29R12,2022-10-21_16h12.18.308,t1_Paradigm,2021.1.4,59.987568288396645,
F,right,Target,0,21,21,21,2229.4094754630933,2231.4095620797016,left,0,4,0.6251948871649802,L29R12,2022-10-21_16h12.18.308,t1_Paradigm,2021.1.4,59.987568288396645,
P,left,Distractor,0,22,22,22,2232.909254751401,2234.9091690973146,left,1,4,1.1736292453715578,L29R12,2022-10-21_16h12.18.308,t1_Paradigm,2021.1.4,59.987568288396645,
L,left,Pretarget,0,23,23,23,2236.409254109836,2238.4092444857815,left,1,4,0.617399399750866,L29R12,2022-10-21_16h12.18.308,t1_Paradigm,2021.1.4,59.987568288396645,
T,left,Distractor,0,24,24,24,2239.9091915533645,2241.9092752827564,left,1,4,0.9095091472845525,L29R12,2022-10-21_16h12.18.308,t1_Paradigm,2021.1.4,59.987568288396645,
F,left,Distractor,0,25,25,25,2243.409267262672,2245.409215613501,left,1,4,0.8015124528901652,L29R12,2022-10-21_16h12.18.308,t1_Paradigm,2021.1.4,59.987568288396645,
V,left,Distractor,0,26,26,26,2246.9094549318543,2248.9093641449,left,1,4,0.9815327147953212,L29R12,2022-10-21_16h12.18.308,t1_Paradigm,2021.1.4,59.987568288396645,
L,right,Target,0,27,27,27,2250.4092852275353,2252.4095514932415,None,0,4,,L29R12,2022-10-21_16h12.18.308,t1_Paradigm,2021.1.4,59.987568288396645,
S,left,Pretarget,0,28,28,28,2253.9092525057495,2255.9092294080183,None,0,4,,L29R12,2022-10-21_16h12.18.308,t1_Paradigm,2021.1.4,59.987568288396645,
W,left,Distractor,0,29,29,29,2257.409581648535,2259.4093529167585,left,1,4,0.7532715384149924,L29R12,2022-10-21_16h12.18.308,t1_Paradigm,2021.1.4,59.987568288396645,
Q,left,Distractor,0,30,30,30,2260.9092358241323,2262.909410981927,left,1,4,0.48516258888412267,L29R12,2022-10-21_16h12.18.308,t1_Paradigm,2021.1.4,59.987568288396645,
L,right,Target,0,31,31,31,2264.4092168967472,2266.409956024494,right,1,4,0.4408207011874765,L29R12,2022-10-21_16h12.18.308,t1_Paradigm,2021.1.4,59.987568288396645,
S,right,Target,0,32,32,32,2267.9093298190273,2269.9092024606653,right,1,4,0.9895697659812868,L29R12,2022-10-21_16h12.18.308,t1_Paradigm,2021.1.4,59.987568288396645,
Z,left,Pretarget,0,33,33,33,2271.4094145107083,2273.4093782601412,left,1,4,1.1852368224645033,L29R12,2022-10-21_16h12.18.308,t1_Paradigm,2021.1.4,59.987568288396645,
F,left,Distractor,0,34,34,34,2274.9092002150137,2276.909349708818,right,0,4,0.9497710757423192,L29R12,2022-10-21_16h12.18.308,t1_Paradigm,2021.1.4,59.987568288396645,
V,left,Distractor,0,35,35,35,2278.4094497989863,2280.409312495729,left,1,4,0.9053659901255742,L29R12,2022-10-21_16h12.18.308,t1_Paradigm,2021.1.4,59.987568288396645,
M,left,Distractor,0,36,36,36,2281.909377297736,2283.9094145107083,left,1,4,0.5412525648716837,L29R12,2022-10-21_16h12.18.308,t1_Paradigm,2021.1.4,59.987568288396645,
Z,right,Target,0,37,37,37,2285.4092884355923,2287.409228445613,right,1,4,0.7373158115660772,L29R12,2022-10-21_16h12.18.308,t1_Paradigm,2021.1.4,59.987568288396645,
H,left,Pretarget,0,38,38,38,2288.909380826517,2290.9094651974738,left,1,4,0.6933977033477277,L29R12,2022-10-21_16h12.18.308,t1_Paradigm,2021.1.4,59.987568288396645,
L,left,Distractor,0,39,39,39,2292.4094013578724,2294.4092406361597,left,1,4,0.6334346854127944,L29R12,2022-10-21_16h12.18.308,t1_Paradigm,2021.1.4,59.987568288396645,
G,left,Distractor,0,40,40,40,2295.9094068114646,2297.9097943402594,left,1,4,0.6368136923993006,L29R12,2022-10-21_16h12.18.308,t1_Paradigm,2021.1.4,59.987568288396645,
K,left,Distractor,0,41,41,41,2299.4092983804876,2301.4094639142277,left,1,4,0.8814142746850848,L29R12,2022-10-21_16h12.18.308,t1_Paradigm,2021.1.4,59.987568288396645,
H,right,Target,0,42,42,42,2302.909232936916,2304.9282497558743,left,0,4,0.6423119170358405,L29R12,2022-10-21_16h12.18.308,t1_Paradigm,2021.1.4,59.987568288396645,
B,left,Distractor,0,43,43,43,2306.4092518641846,2308.409757127287,left,1,4,0.60081778827589,L29R12,2022-10-21_16h12.18.308,t1_Paradigm,2021.1.4,59.987568288396645,
Z,left,Distractor,0,44,44,44,2309.909136054688,2311.909546039533,left,1,4,0.6851117096375674,L29R12,2022-10-21_16h12.18.308,t1_Paradigm,2021.1.4,59.987568288396645,
T,left,Pretarget,0,45,45,45,2313.4093939794693,2315.409131563385,left,1,4,0.641670633922331,L29R12,2022-10-21_16h12.18.308,t1_Paradigm,2021.1.4,59.987568288396645,
H,right,Target,0,46,46,46,2316.9093763353303,2318.9091784005286,right,1,4,0.7735965877072886,L29R12,2022-10-21_16h12.18.308,t1_Paradigm,2021.1.4,59.987568288396645,
F,left,Distractor,0,47,47,47,2320.4093259694055,2322.4091912326403,left,1,4,0.6499174897326156,L29R12,2022-10-21_16h12.18.308,t1_Paradigm,2021.1.4,59.987568288396645,
R,left,Distractor,0,48,48,48,2323.9093006260227,2325.909433117253,left,1,4,0.7011097822105512,L29R12,2022-10-21_16h12.18.308,t1_Paradigm,2021.1.4,59.987568288396645,
T,right,Target,0,49,49,49,2327.40921368869,2329.409561758861,right,1,4,0.7050925384974107,L29R12,2022-10-21_16h12.18.308,t1_Paradigm,2021.1.4,59.987568288396645,
H,right,Target,0,50,50,50,2330.9094308717176,2332.9095004856354,left,0,4,0.9331198503496125,L29R12,2022-10-21_16h12.18.308,t1_Paradigm,2021.1.4,59.987568288396645,
Y,left,Pretarget,0,51,51,51,2334.4092563553713,2336.409581648535,left,1,4,1.2412873397115618,L29R12,2022-10-21_16h12.18.308,t1_Paradigm,2021.1.4,59.987568288396645,
H,left,Distractor,0,52,52,52,2337.909456214984,2339.9090504006017,left,1,4,0.9737397937569767,L29R12,2022-10-21_16h12.18.308,t1_Paradigm,2021.1.4,59.987568288396645,
S,left,Distractor,0,53,53,53,2341.40929485159,2343.409373448114,left,1,4,0.6732420373009518,L29R12,2022-10-21_16h12.18.308,t1_Paradigm,2021.1.4,59.987568288396645,
Q,left,Distractor,0,54,54,54,2344.909325007,2346.9099865006283,left,1,4,0.5491337063722312,L29R12,2022-10-21_16h12.18.308,t1_Paradigm,2021.1.4,59.987568288396645,
Y,right,Target,0,55,55,55,2348.4092165759066,2350.409471292747,left,0,4,1.1292915281374007,L29R12,2022-10-21_16h12.18.308,t1_Paradigm,2021.1.4,59.987568288396645,
R,left,Distractor,0,56,56,56,2351.9087690572487,2353.909556305269,left,1,4,0.8450452779652551,L29R12,2022-10-21_16h12.18.308,t1_Paradigm,2021.1.4,59.987568288396645,
H,left,Pretarget,0,57,57,57,2355.409387242631,2357.409349708818,left,1,4,1.0094097629189491,L29R12,2022-10-21_16h12.18.308,t1_Paradigm,2021.1.4,59.987568288396645,
J,left,Distractor,0,58,58,58,2358.9092021398246,2360.9094924656674,left,1,4,0.6133823175914586,L29R12,2022-10-21_16h12.18.308,t1_Paradigm,2021.1.4,59.987568288396645,
V,left,Distractor,0,59,59,59,2362.409255392966,2364.4091658892576,left,1,4,0.5375206756871194,L29R12,2022-10-21_16h12.18.308,t1_Paradigm,2021.1.4,59.987568288396645,
Y,left,Lure,0,60,60,60,2365.909191874205,2367.909196365392,left,1,4,1.021508487756364,L29R12,2022-10-21_16h12.18.308,t1_Paradigm,2021.1.4,59.987568288396645,
H,right,Target,0,61,61,61,2369.409421568387,2371.4099688564893,right,1,4,0.4166514821117744,L29R12,2022-10-21_16h12.18.308,t1_Paradigm,2021.1.4,59.987568288396645,
L,left,Distractor,0,62,62,62,2372.909425418009,2374.9090911423555,left,1,4,0.8855859832838178,L29R12,2022-10-21_16h12.18.308,t1_Paradigm,2021.1.4,59.987568288396645,
P,left,Distractor,0,63,63,63,2376.4094866912346,2378.4091986110434,left,1,4,0.6174241014523432,L29R12,2022-10-21_16h12.18.308,t1_Paradigm,2021.1.4,59.987568288396645,
