Letter,CorrAnswer,Stimulus,nback_run.thisRepN,nback_run.thisTrialN,nback_run.thisN,nback_run.thisIndex,fixcross.started,nback_trial.started,trial_resp.keys,trial_resp.corr,currentlevel,trial_resp.rt,Participant,date,expName,psychopyVersion,frameRate,
H,left,Distractor,0,0,0,0,1808.0817916863743,1810.0852711188782,None,0,1,,M01A11,2022-12-09_14h38.07.821,t1_Paradigm,2021.1.4,59.98431682208415,
Q,left,Pretarget,0,1,1,1,1811.5835517736414,1813.586246521285,left,1,1,0.7021219533780823,M01A11,2022-12-09_14h38.07.821,t1_Paradigm,2021.1.4,59.98431682208415,
Q,right,Target,0,2,2,2,1815.0827820061386,1817.0828233897628,None,0,1,,M01A11,2022-12-09_14h38.07.821,t1_Paradigm,2021.1.4,59.98431682208415,
T,left,Distractor,0,3,3,3,1818.5822534827166,1820.5846915877337,left,1,1,0.8839859808940673,M01A11,2022-12-09_14h38.07.821,t1_Paradigm,2021.1.4,59.98431682208415,
Q,left,Lure,0,4,4,4,1822.0819232157373,1824.0836263603996,left,1,1,0.9077988884237129,M01A11,2022-12-09_14h38.07.821,t1_Paradigm,2021.1.4,59.98431682208415,
L,left,Distractor,0,5,5,5,1825.5813690280484,1827.5822720893048,left,1,1,0.7405772855126997,M01A11,2022-12-09_14h38.07.821,t1_Paradigm,2021.1.4,59.98431682208415,
V,left,Pretarget,0,6,6,6,1829.0808536575641,1831.0825337043934,left,1,1,0.9179876009438885,M01A11,2022-12-09_14h38.07.821,t1_Paradigm,2021.1.4,59.98431682208415,
V,right,Target,0,7,7,7,1832.5800104260998,1834.5793733107712,right,1,1,0.5526468677562661,M01A11,2022-12-09_14h38.07.821,t1_Paradigm,2021.1.4,59.98431682208415,
K,left,Distractor,0,8,8,8,1836.0795929006272,1838.08150649225,left,1,1,0.7651495344471186,M01A11,2022-12-09_14h38.07.821,t1_Paradigm,2021.1.4,59.98431682208415,
G,left,Pretarget,0,9,9,9,1839.578866762371,1841.5805525836622,left,1,1,0.540179168630857,M01A11,2022-12-09_14h38.07.821,t1_Paradigm,2021.1.4,59.98431682208415,
G,right,Target,0,10,10,10,1843.0784742595424,1845.0780764634692,right,1,1,0.4676163513358915,M01A11,2022-12-09_14h38.07.821,t1_Paradigm,2021.1.4,59.98431682208415,
G,right,Target,0,11,11,11,1846.5778928035725,1848.5775014235696,right,1,1,0.6052342265029438,M01A11,2022-12-09_14h38.07.821,t1_Paradigm,2021.1.4,59.98431682208415,
P,left,Pretarget,0,12,12,12,1850.0773684505984,1852.0802762116364,left,1,1,0.41765893797855824,M01A11,2022-12-09_14h38.07.821,t1_Paradigm,2021.1.4,59.98431682208415,
P,right,Target,0,13,13,13,1853.5768216413853,1855.5762615188432,right,1,1,0.41660798640805297,M01A11,2022-12-09_14h38.07.821,t1_Paradigm,2021.1.4,59.98431682208415,
G,left,Lure,0,14,14,14,1857.0762437142548,1859.0758642039727,left,1,1,0.4353615052095847,M01A11,2022-12-09_14h38.07.821,t1_Paradigm,2021.1.4,59.98431682208415,
Y,left,Distractor,0,15,15,15,1860.575328622872,1862.5785459590843,left,1,1,0.36989004467613995,M01A11,2022-12-09_14h38.07.821,t1_Paradigm,2021.1.4,59.98431682208415,
B,left,Distractor,0,16,16,16,1864.0749669171637,1866.0772032368986,left,1,1,0.4514504318794934,M01A11,2022-12-09_14h38.07.821,t1_Paradigm,2021.1.4,59.98431682208415,
T,left,Pretarget,0,17,17,17,1867.574373591473,1869.576250611528,left,1,1,0.4383199531730497,M01A11,2022-12-09_14h38.07.821,t1_Paradigm,2021.1.4,59.98431682208415,
T,right,Target,0,18,18,18,1871.073403963528,1873.0734934676439,right,1,1,0.43930738569179084,M01A11,2022-12-09_14h38.07.821,t1_Paradigm,2021.1.4,59.98431682208415,
S,left,Distractor,0,19,19,19,1874.5732100379391,1876.5750277093903,left,1,1,0.39941325077961665,M01A11,2022-12-09_14h38.07.821,t1_Paradigm,2021.1.4,59.98431682208415,
T,left,Lure,0,20,20,20,1878.0726237699128,1880.0740545525914,left,1,1,0.443814992744592,M01A11,2022-12-09_14h38.07.821,t1_Paradigm,2021.1.4,59.98431682208415,
J,left,Distractor,0,21,21,21,1881.5721988659643,1883.5736290070345,left,1,1,0.5813196243398124,M01A11,2022-12-09_14h38.07.821,t1_Paradigm,2021.1.4,59.98431682208415,
P,left,Distractor,0,22,22,22,1885.0716305629321,1887.0723132323328,left,1,1,0.5155841426894767,M01A11,2022-12-09_14h38.07.821,t1_Paradigm,2021.1.4,59.98431682208415,
F,left,Distractor,0,23,23,23,1888.5710433325003,1890.5720987753302,left,1,1,0.4775282106420491,M01A11,2022-12-09_14h38.07.821,t1_Paradigm,2021.1.4,59.98431682208415,
L,left,Distractor,0,24,24,24,1892.0702443719056,1894.0731393008027,left,1,1,0.4177628782490501,M01A11,2022-12-09_14h38.07.821,t1_Paradigm,2021.1.4,59.98431682208415,
W,left,Pretarget,0,25,25,25,1895.5692497213022,1897.5724061048822,left,1,1,0.44551364617655054,M01A11,2022-12-09_14h38.07.821,t1_Paradigm,2021.1.4,59.98431682208415,
W,right,Target,0,26,26,26,1899.0692139517341,1901.0689332488546,right,1,1,0.5530635912291473,M01A11,2022-12-09_14h38.07.821,t1_Paradigm,2021.1.4,59.98431682208415,
V,left,Distractor,0,27,27,27,1902.568641157457,1904.567916142012,left,1,1,0.4508425096573774,M01A11,2022-12-09_14h38.07.821,t1_Paradigm,2021.1.4,59.98431682208415,
W,left,Lure,0,28,28,28,1906.0681572256872,1908.069891809093,left,1,1,0.6063618500629673,M01A11,2022-12-09_14h38.07.821,t1_Paradigm,2021.1.4,59.98431682208415,
R,left,Pretarget,0,29,29,29,1909.5837529173004,1911.585910319438,left,1,1,0.519387265725527,M01A11,2022-12-09_14h38.07.821,t1_Paradigm,2021.1.4,59.98431682208415,
R,right,Target,0,30,30,30,1913.0835249865631,1915.0834117430059,right,1,1,0.401721430462203,M01A11,2022-12-09_14h38.07.821,t1_Paradigm,2021.1.4,59.98431682208415,
G,left,Distractor,0,31,31,31,1916.5831446742668,1918.5842854507646,left,1,1,0.4484557331597898,M01A11,2022-12-09_14h38.07.821,t1_Paradigm,2021.1.4,59.98431682208415,
R,left,Lure,0,32,32,32,1920.082559047849,1922.0843119170459,left,1,1,0.5127716602437431,M01A11,2022-12-09_14h38.07.821,t1_Paradigm,2021.1.4,59.98431682208415,
S,left,Distractor,0,33,33,33,1923.5818691603781,1925.5837538797205,left,1,1,0.446323353680782,M01A11,2022-12-09_14h38.07.821,t1_Paradigm,2021.1.4,59.98431682208415,
R,left,Lure,0,34,34,34,1927.0811548918427,1929.0832433212781,left,1,1,0.4371316977776587,M01A11,2022-12-09_14h38.07.821,t1_Paradigm,2021.1.4,59.98431682208415,
P,left,Pretarget,0,35,35,35,1930.5805102376326,1932.58205458468,left,1,1,0.49432803741365205,M01A11,2022-12-09_14h38.07.821,t1_Paradigm,2021.1.4,59.98431682208415,
P,right,Target,0,36,36,36,1934.0800333635416,1936.07967374305,right,1,1,0.5522368811507476,M01A11,2022-12-09_14h38.07.821,t1_Paradigm,2021.1.4,59.98431682208415,
Y,left,Pretarget,0,37,37,37,1937.5795622639125,1939.591644036671,left,1,1,0.3917954558128258,M01A11,2022-12-09_14h38.07.821,t1_Paradigm,2021.1.4,59.98431682208415,
Y,right,Target,0,38,38,38,1941.0789881864184,1943.0777964021836,right,1,1,0.5674285210116068,M01A11,2022-12-09_14h38.07.821,t1_Paradigm,2021.1.4,59.98431682208415,
J,left,Distractor,0,39,39,39,1944.5781969250966,1946.5904663677793,left,1,1,0.5407428200269351,M01A11,2022-12-09_14h38.07.821,t1_Paradigm,2021.1.4,59.98431682208415,
Y,left,Lure,0,40,40,40,1948.0780665185594,1950.0794822234893,left,1,1,0.6930467490601586,M01A11,2022-12-09_14h38.07.821,t1_Paradigm,2021.1.4,59.98431682208415,
T,left,Distractor,0,41,41,41,1951.5775421655853,1953.5787759750383,left,1,1,0.5170790860429406,M01A11,2022-12-09_14h38.07.821,t1_Paradigm,2021.1.4,59.98431682208415,
V,left,Distractor,0,42,42,42,1955.0767666236206,1957.0819280277792,left,1,1,0.5248460545262787,M01A11,2022-12-09_14h38.07.821,t1_Paradigm,2021.1.4,59.98431682208415,
N,left,Pretarget,0,43,43,43,1958.576248686717,1960.5785151619639,left,1,1,0.47372316279506776,M01A11,2022-12-09_14h38.07.821,t1_Paradigm,2021.1.4,59.98431682208415,
N,right,Target,0,44,44,44,1962.0753198007733,1964.0754003223992,right,1,1,0.4178292845317628,M01A11,2022-12-09_14h38.07.821,t1_Paradigm,2021.1.4,59.98431682208415,
N,right,Target,0,45,45,45,1965.5747168509988,1967.574530464277,right,1,1,0.47438145116029773,M01A11,2022-12-09_14h38.07.821,t1_Paradigm,2021.1.4,59.98431682208415,
X,left,Distractor,0,46,46,46,1969.0744972611428,1971.0847132419585,left,1,1,0.49121528306568507,M01A11,2022-12-09_14h38.07.821,t1_Paradigm,2021.1.4,59.98431682208415,
Z,left,Distractor,0,47,47,47,1972.573906822683,1974.5750909076305,left,1,1,0.4382230705668917,M01A11,2022-12-09_14h38.07.821,t1_Paradigm,2021.1.4,59.98431682208415,
H,left,Pretarget,0,48,48,48,1976.0731595114194,1978.0750480803981,left,1,1,0.39646859737695195,M01A11,2022-12-09_14h38.07.821,t1_Paradigm,2021.1.4,59.98431682208415,
H,right,Target,0,49,49,49,1979.5719880981924,1981.5721468958218,right,1,1,0.5364495095709572,M01A11,2022-12-09_14h38.07.821,t1_Paradigm,2021.1.4,59.98431682208415,
K,left,Distractor,0,50,50,50,1983.0725519099797,1985.0734145500319,left,1,1,0.5336405559501145,M01A11,2022-12-09_14h38.07.821,t1_Paradigm,2021.1.4,59.98431682208415,
V,left,Pretarget,0,51,51,51,1986.5719220127212,1988.5735045353504,left,1,1,0.5446319183247397,M01A11,2022-12-09_14h38.07.821,t1_Paradigm,2021.1.4,59.98431682208415,
V,right,Target,0,52,52,52,1990.0708843744796,1992.0706954213383,right,1,1,0.5421331814868608,M01A11,2022-12-09_14h38.07.821,t1_Paradigm,2021.1.4,59.98431682208415,
R,left,Distractor,0,53,53,53,1993.5704713402374,1995.5714648680296,left,1,1,0.4212301202205708,M01A11,2022-12-09_14h38.07.821,t1_Paradigm,2021.1.4,59.98431682208415,
V,left,Lure,0,54,54,54,1997.0699765011523,1999.0689810485492,right,0,1,0.6262632030702662,M01A11,2022-12-09_14h38.07.821,t1_Paradigm,2021.1.4,59.98431682208415,
Y,left,Distractor,0,55,55,55,2000.56915540513,2002.5703969138704,left,1,1,0.6151236295700073,M01A11,2022-12-09_14h38.07.821,t1_Paradigm,2021.1.4,59.98431682208415,
Q,left,Distractor,0,56,56,56,2004.068787604163,2006.069963669026,left,1,1,0.5570742739801062,M01A11,2022-12-09_14h38.07.821,t1_Paradigm,2021.1.4,59.98431682208415,
Z,left,Pretarget,0,57,57,57,2007.5846691315091,2009.5968394459778,left,1,1,0.5858397427218733,M01A11,2022-12-09_14h38.07.821,t1_Paradigm,2021.1.4,59.98431682208415,
Z,right,Target,0,58,58,58,2011.0843144834653,2013.0836167363013,right,1,1,0.6792595860024448,M01A11,2022-12-09_14h38.07.821,t1_Paradigm,2021.1.4,59.98431682208415,
B,left,Distractor,0,59,59,59,2014.5835822499503,2016.5844577221287,left,1,1,0.5462917545519304,M01A11,2022-12-09_14h38.07.821,t1_Paradigm,2021.1.4,59.98431682208415,
S,left,Pretarget,0,60,60,60,2018.0831900679332,2020.0948997088708,left,1,1,0.5344258824043209,M01A11,2022-12-09_14h38.07.821,t1_Paradigm,2021.1.4,59.98431682208415,
S,right,Target,0,61,61,61,2021.5825364312186,2023.5821415223763,right,1,1,0.42283670310280286,M01A11,2022-12-09_14h38.07.821,t1_Paradigm,2021.1.4,59.98431682208415,
T,left,Distractor,0,62,62,62,2025.0817451699113,2027.0835413475288,left,1,1,0.5470818930625683,M01A11,2022-12-09_14h38.07.821,t1_Paradigm,2021.1.4,59.98431682208415,
D,left,Distractor,0,63,63,63,2028.5812201753142,2030.5824934435805,left,1,1,0.46510285754629876,M01A11,2022-12-09_14h38.07.821,t1_Paradigm,2021.1.4,59.98431682208415,
R,left,Distractor,0,0,0,0,2056.4662099497073,2058.4781496066134,None,0,1,,M01A11,2022-12-09_14h38.07.821,t1_Paradigm,2021.1.4,59.98431682208415,
V,left,Distractor,0,1,1,1,2059.9762413082353,2061.978465758264,left,1,1,0.5139846174861304,M01A11,2022-12-09_14h38.07.821,t1_Paradigm,2021.1.4,59.98431682208415,
N,left,Pretarget,0,2,2,2,2063.475775020648,2065.4877178855822,left,1,1,0.5643241075595142,M01A11,2022-12-09_14h38.07.821,t1_Paradigm,2021.1.4,59.98431682208415,
N,right,Target,0,3,3,3,2066.9750325214263,2068.9748320193758,right,1,1,0.46575537144963164,M01A11,2022-12-09_14h38.07.821,t1_Paradigm,2021.1.4,59.98431682208415,
S,left,Distractor,0,4,4,4,2070.473772887315,2072.4742637163436,left,1,1,0.4279063575231703,M01A11,2022-12-09_14h38.07.821,t1_Paradigm,2021.1.4,59.98431682208415,
N,left,Lure,0,5,5,5,2073.9745497124823,2075.974811167165,left,1,1,0.5074719898693729,M01A11,2022-12-09_14h38.07.821,t1_Paradigm,2021.1.4,59.98431682208415,
Z,left,Distractor,0,6,6,6,2077.47344149751,2079.4752646226116,left,1,1,0.43598129716701806,M01A11,2022-12-09_14h38.07.821,t1_Paradigm,2021.1.4,59.98431682208415,
L,left,Pretarget,0,7,7,7,2080.9727747078723,2082.974274142456,left,1,1,0.5947962498030392,M01A11,2022-12-09_14h38.07.821,t1_Paradigm,2021.1.4,59.98431682208415,
L,right,Target,0,8,8,8,2084.472195176728,2086.47193821329,right,1,1,0.526205618865788,M01A11,2022-12-09_14h38.07.821,t1_Paradigm,2021.1.4,59.98431682208415,
H,left,Distractor,0,9,9,9,2087.9713946121046,2089.9705942079017,left,1,1,0.4815504423168022,M01A11,2022-12-09_14h38.07.821,t1_Paradigm,2021.1.4,59.98431682208415,
L,left,Lure,0,10,10,10,2091.4712382205034,2093.4723700145114,left,1,1,0.47021325399691705,M01A11,2022-12-09_14h38.07.821,t1_Paradigm,2021.1.4,59.98431682208415,
X,left,Pretarget,0,11,11,11,2094.9704113500193,2096.972511007567,left,1,1,0.4281591505132383,M01A11,2022-12-09_14h38.07.821,t1_Paradigm,2021.1.4,59.98431682208415,
X,right,Target,0,12,12,12,2098.4699668770627,2100.4691363173333,right,1,1,0.45030933458474465,M01A11,2022-12-09_14h38.07.821,t1_Paradigm,2021.1.4,59.98431682208415,
X,right,Target,0,13,13,13,2101.9693254308804,2103.968789368577,right,1,1,0.5596965200820705,M01A11,2022-12-09_14h38.07.821,t1_Paradigm,2021.1.4,59.98431682208415,
R,left,Distractor,0,14,14,14,2105.468678531033,2107.469393601583,left,1,1,0.5899181149579817,M01A11,2022-12-09_14h38.07.821,t1_Paradigm,2021.1.4,59.98431682208415,
T,left,Distractor,0,15,15,15,2108.968181767137,2110.970133213559,left,1,1,0.4616519765550038,M01A11,2022-12-09_14h38.07.821,t1_Paradigm,2021.1.4,59.98431682208415,
V,left,Pretarget,0,16,16,16,2112.4670940835786,2114.4664778204606,left,1,1,0.5170158877881477,M01A11,2022-12-09_14h38.07.821,t1_Paradigm,2021.1.4,59.98431682208415,
V,right,Target,0,17,17,17,2115.966876097751,2117.9666486482165,right,1,1,0.46255150898650754,M01A11,2022-12-09_14h38.07.821,t1_Paradigm,2021.1.4,59.98431682208415,
N,left,Distractor,0,18,18,18,2119.4662494085205,2121.4678864677117,left,1,1,0.4227353292517364,M01A11,2022-12-09_14h38.07.821,t1_Paradigm,2021.1.4,59.98431682208415,
B,left,Distractor,0,19,19,19,2122.9656782182574,2124.9669745843566,left,1,1,0.42260732874274254,M01A11,2022-12-09_14h38.07.821,t1_Paradigm,2021.1.4,59.98431682208415,
V,left,Lure,0,20,20,20,2126.46458347702,2128.4671425248816,left,1,1,0.47017539921216667,M01A11,2022-12-09_14h38.07.821,t1_Paradigm,2021.1.4,59.98431682208415,
P,left,Distractor,0,21,21,21,2129.964486754834,2131.965540914447,left,1,1,0.4502214344829554,M01A11,2022-12-09_14h38.07.821,t1_Paradigm,2021.1.4,59.98431682208415,
K,left,Pretarget,0,22,22,22,2133.463943153649,2135.466112425507,left,1,1,0.5097881896363106,M01A11,2022-12-09_14h38.07.821,t1_Paradigm,2021.1.4,59.98431682208415,
K,right,Target,0,23,23,23,2136.963470129209,2138.963378058659,right,1,1,0.5723149967525387,M01A11,2022-12-09_14h38.07.821,t1_Paradigm,2021.1.4,59.98431682208415,
J,left,Pretarget,0,24,24,24,2140.4627799209266,2142.461964118149,left,1,1,0.5927780763013288,M01A11,2022-12-09_14h38.07.821,t1_Paradigm,2021.1.4,59.98431682208415,
J,right,Target,0,25,25,25,2143.9622988763876,2145.961887606565,right,1,1,0.5837926969106775,M01A11,2022-12-09_14h38.07.821,t1_Paradigm,2021.1.4,59.98431682208415,
H,left,Distractor,0,26,26,26,2147.4618454209267,2149.4639158853824,left,1,1,0.5477895851217909,M01A11,2022-12-09_14h38.07.821,t1_Paradigm,2021.1.4,59.98431682208415,
J,left,Lure,0,27,27,27,2150.977893124378,2152.979369781926,left,1,1,0.5836034229723737,M01A11,2022-12-09_14h38.07.821,t1_Paradigm,2021.1.4,59.98431682208415,
V,left,Distractor,0,28,28,28,2154.4773392575007,2156.4782365443098,left,1,1,0.485471300125937,M01A11,2022-12-09_14h38.07.821,t1_Paradigm,2021.1.4,59.98431682208415,
Z,left,Pretarget,0,29,29,29,2157.9767610095732,2159.9782642937935,right,0,1,0.6107215668162098,M01A11,2022-12-09_14h38.07.821,t1_Paradigm,2021.1.4,59.98431682208415,
Z,right,Target,0,30,30,30,2161.4763123661687,2163.4760733677103,right,1,1,0.5541106931777904,M01A11,2022-12-09_14h38.07.821,t1_Paradigm,2021.1.4,59.98431682208415,
T,left,Distractor,0,31,31,31,2164.9755557516037,2166.976566602767,left,1,1,0.5280938670330215,M01A11,2022-12-09_14h38.07.821,t1_Paradigm,2021.1.4,59.98431682208415,
Z,left,Lure,0,32,32,32,2168.47507021582,2170.47701588778,left,1,1,0.5221728006872581,M01A11,2022-12-09_14h38.07.821,t1_Paradigm,2021.1.4,59.98431682208415,
F,left,Distractor,0,33,33,33,2171.9745121784945,2173.9760282948555,left,1,1,0.5872756582539296,M01A11,2022-12-09_14h38.07.821,t1_Paradigm,2021.1.4,59.98431682208415,
Y,left,Pretarget,0,34,34,34,2175.4740401164454,2177.4728473698196,left,1,1,0.5194912059814669,M01A11,2022-12-09_14h38.07.821,t1_Paradigm,2021.1.4,59.98431682208415,
Y,right,Target,0,35,35,35,2178.9734490363917,2180.9732138875697,right,1,1,0.5503229687019484,M01A11,2022-12-09_14h38.07.821,t1_Paradigm,2021.1.4,59.98431682208415,
Y,right,Target,0,36,36,36,2182.472880091751,2184.472568270954,right,1,1,0.550340933696134,M01A11,2022-12-09_14h38.07.821,t1_Paradigm,2021.1.4,59.98431682208415,
W,left,Distractor,0,37,37,37,2185.9722995981865,2187.9737268520403,left,1,1,0.49458500085165724,M01A11,2022-12-09_14h38.07.821,t1_Paradigm,2021.1.4,59.98431682208415,
Q,left,Distractor,0,38,38,38,2189.471696969209,2191.4732871911256,left,1,1,0.6195468653459102,M01A11,2022-12-09_14h38.07.821,t1_Paradigm,2021.1.4,59.98431682208415,
P,left,Pretarget,0,39,39,39,2192.9711796738993,2194.972577093038,left,1,1,0.5051557901024353,M01A11,2022-12-09_14h38.07.821,t1_Paradigm,2021.1.4,59.98431682208415,
P,right,Target,0,40,40,40,2196.470463159756,2198.4701956097997,right,1,1,0.4896115874144016,M01A11,2022-12-09_14h38.07.821,t1_Paradigm,2021.1.4,59.98431682208415,
J,left,Distractor,0,41,41,41,2199.9696882594,2201.969232718722,left,1,1,0.5013892386486987,M01A11,2022-12-09_14h38.07.821,t1_Paradigm,2021.1.4,59.98431682208415,
P,left,Lure,0,42,42,42,2203.469554003226,2205.470253354404,left,1,1,0.752061722552753,M01A11,2022-12-09_14h38.07.821,t1_Paradigm,2021.1.4,59.98431682208415,
L,left,Distractor,0,43,43,43,2206.968701147678,2208.9698493026517,left,1,1,0.7148366710316623,M01A11,2022-12-09_14h38.07.821,t1_Paradigm,2021.1.4,59.98431682208415,
Z,left,Distractor,0,44,44,44,2210.468058418279,2212.4693397066294,left,1,1,0.5630854860501131,M01A11,2022-12-09_14h38.07.821,t1_Paradigm,2021.1.4,59.98431682208415,
F,left,Pretarget,0,45,45,45,2213.9675995091675,2215.969515346427,left,1,1,0.8018722080159932,M01A11,2022-12-09_14h38.07.821,t1_Paradigm,2021.1.4,59.98431682208415,
F,right,Target,0,46,46,46,2217.4668473858474,2219.466741520766,right,1,1,0.7057553714548703,M01A11,2022-12-09_14h38.07.821,t1_Paradigm,2021.1.4,59.98431682208415,
G,left,Pretarget,0,47,47,47,2220.966393930401,2222.96831233408,left,1,1,0.5561388115747832,M01A11,2022-12-09_14h38.07.821,t1_Paradigm,2021.1.4,59.98431682208415,
G,right,Target,0,48,48,48,2224.466168566083,2226.4657492761908,right,1,1,0.7495745346386684,M01A11,2022-12-09_14h38.07.821,t1_Paradigm,2021.1.4,59.98431682208415,
V,left,Distractor,0,49,49,49,2227.9655473305174,2229.9669919077423,left,1,1,0.6448165406181943,M01A11,2022-12-09_14h38.07.821,t1_Paradigm,2021.1.4,59.98431682208415,
G,left,Lure,0,50,50,50,2231.4647419538524,2233.464369180423,left,1,1,0.6132180580170825,M01A11,2022-12-09_14h38.07.821,t1_Paradigm,2021.1.4,59.98431682208415,
Q,left,Pretarget,0,51,51,51,2234.964127775951,2236.9650609927194,left,1,1,0.839338824414881,M01A11,2022-12-09_14h38.07.821,t1_Paradigm,2021.1.4,59.98431682208415,
Q,right,Target,0,52,52,52,2238.463692927093,2240.4633185496496,right,1,1,0.7375001403415808,M01A11,2022-12-09_14h38.07.821,t1_Paradigm,2021.1.4,59.98431682208415,
Y,left,Distractor,0,53,53,53,2241.963131360928,2243.9639275946975,left,1,1,0.8620321284543024,M01A11,2022-12-09_14h38.07.821,t1_Paradigm,2021.1.4,59.98431682208415,
V,left,Distractor,0,54,54,54,2245.462318605787,2247.4645651912433,left,1,1,0.9985114727314794,M01A11,2022-12-09_14h38.07.821,t1_Paradigm,2021.1.4,59.98431682208415,
B,left,Distractor,0,55,55,55,2248.9618237667164,2250.9641585730715,left,1,1,0.5164333090069704,M01A11,2022-12-09_14h38.07.821,t1_Paradigm,2021.1.4,59.98431682208415,
J,left,Pretarget,0,56,56,56,2252.4779308187717,2254.48005036611,left,1,1,0.5887571278581163,M01A11,2022-12-09_14h38.07.821,t1_Paradigm,2021.1.4,59.98431682208415,
J,right,Target,0,57,57,57,2255.9774860250036,2257.9771783746546,right,1,1,0.6883819483919069,M01A11,2022-12-09_14h38.07.821,t1_Paradigm,2021.1.4,59.98431682208415,
H,left,Distractor,0,58,58,58,2259.476888208068,2261.4788066117617,left,1,1,0.5670560683938675,M01A11,2022-12-09_14h38.07.821,t1_Paradigm,2021.1.4,59.98431682208415,
J,left,Lure,0,59,59,59,2262.9762672932993,2264.9778748386016,left,1,1,0.6076655946526444,M01A11,2022-12-09_14h38.07.821,t1_Paradigm,2021.1.4,59.98431682208415,
D,left,Pretarget,0,60,60,60,2266.4757374866604,2268.477990488187,left,1,1,0.7649862455582479,M01A11,2022-12-09_14h38.07.821,t1_Paradigm,2021.1.4,59.98431682208415,
D,right,Target,0,61,61,61,2269.9750931532617,2271.97475791382,right,1,1,0.6289399857341778,M01A11,2022-12-09_14h38.07.821,t1_Paradigm,2021.1.4,59.98431682208415,
R,left,Distractor,0,62,62,62,2273.4747834176815,2275.4766171292868,left,1,1,0.6743060623848578,M01A11,2022-12-09_14h38.07.821,t1_Paradigm,2021.1.4,59.98431682208415,
F,left,Distractor,0,63,63,63,2276.973379742878,2278.975887141394,left,1,1,0.7350492031982867,M01A11,2022-12-09_14h38.07.821,t1_Paradigm,2021.1.4,59.98431682208415,
F,left,Distractor,0,0,0,0,2424.628752636607,2426.632986277633,None,0,2,,M01A11,2022-12-09_14h38.07.821,t1_Paradigm,2021.1.4,59.98431682208415,
N,left,Pretarget,0,1,1,1,2428.1325270477246,2430.1343155260693,None,0,2,,M01A11,2022-12-09_14h38.07.821,t1_Paradigm,2021.1.4,59.98431682208415,
V,left,Distractor,0,2,2,2,2431.6322859640495,2433.634010923357,left,1,2,0.6786513429688057,M01A11,2022-12-09_14h38.07.821,t1_Paradigm,2021.1.4,59.98431682208415,
N,right,Target,0,3,3,3,2435.132276500357,2437.133862872637,right,1,2,0.8202782968583051,M01A11,2022-12-09_14h38.07.821,t1_Paradigm,2021.1.4,59.98431682208415,
N,left,Lure,0,4,4,4,2438.6308356123773,2440.6306915716996,left,1,2,0.7734798335004598,M01A11,2022-12-09_14h38.07.821,t1_Paradigm,2021.1.4,59.98431682208415,
X,left,Distractor,0,5,5,5,2442.13003344374,2444.1323169215757,left,1,2,0.9133314619830344,M01A11,2022-12-09_14h38.07.821,t1_Paradigm,2021.1.4,59.98431682208415,
G,left,Pretarget,0,6,6,6,2445.6299116988957,2447.631748297732,left,1,2,0.8641122169938171,M01A11,2022-12-09_14h38.07.821,t1_Paradigm,2021.1.4,59.98431682208415,
H,left,Pretarget,0,7,7,7,2449.1290315750666,2451.1414110532787,left,1,2,0.6655009744426934,M01A11,2022-12-09_14h38.07.821,t1_Paradigm,2021.1.4,59.98431682208415,
G,right,Target,0,8,8,8,2452.6286182200274,2454.630672323503,right,1,2,1.257960493065184,M01A11,2022-12-09_14h38.07.821,t1_Paradigm,2021.1.4,59.98431682208415,
H,right,Target,0,9,9,9,2456.1279774154536,2458.1291685580654,right,1,2,1.0953029586089542,M01A11,2022-12-09_14h38.07.821,t1_Paradigm,2021.1.4,59.98431682208415,
T,left,Pretarget,0,10,10,10,2459.627358425496,2461.6291914955073,left,1,2,0.7187713233870454,M01A11,2022-12-09_14h38.07.821,t1_Paradigm,2021.1.4,59.98431682208415,
K,left,Distractor,0,11,11,11,2463.1267112048517,2465.1288307522045,left,1,2,0.7421873972489266,M01A11,2022-12-09_14h38.07.821,t1_Paradigm,2021.1.4,59.98431682208415,
T,right,Target,0,12,12,12,2466.6257361232565,2468.626009768457,right,1,2,0.7272145452297991,M01A11,2022-12-09_14h38.07.821,t1_Paradigm,2021.1.4,59.98431682208415,
T,left,Lure,0,13,13,13,2470.125464563258,2472.125406818668,left,1,2,1.244820069448906,M01A11,2022-12-09_14h38.07.821,t1_Paradigm,2021.1.4,59.98431682208415,
J,left,Distractor,0,14,14,14,2473.625126917803,2475.626845781837,left,1,2,1.2185584704129724,M01A11,2022-12-09_14h38.07.821,t1_Paradigm,2021.1.4,59.98431682208415,
Q,left,Pretarget,0,15,15,15,2477.1246362491656,2479.12552904473,left,1,2,1.1447474075102946,M01A11,2022-12-09_14h38.07.821,t1_Paradigm,2021.1.4,59.98431682208415,
M,left,Distractor,0,16,16,16,2480.624181831299,2482.6270289605163,left,1,2,1.1259306904539699,M01A11,2022-12-09_14h38.07.821,t1_Paradigm,2021.1.4,59.98431682208415,
Q,right,Target,0,17,17,17,2484.1233979484678,2486.124691427336,right,1,2,1.045308652872336,M01A11,2022-12-09_14h38.07.821,t1_Paradigm,2021.1.4,59.98431682208415,
R,left,Distractor,0,18,18,18,2487.6229146583064,2489.624707627896,left,1,2,0.9624727517657448,M01A11,2022-12-09_14h38.07.821,t1_Paradigm,2021.1.4,59.98431682208415,
W,left,Distractor,0,19,19,19,2491.12225620955,2493.123630530841,left,1,2,1.2189049379667267,M01A11,2022-12-09_14h38.07.821,t1_Paradigm,2021.1.4,59.98431682208415,
C,left,Pretarget,0,20,20,20,2494.6218749348336,2496.6233329857932,left,1,2,1.2587599348771619,M01A11,2022-12-09_14h38.07.821,t1_Paradigm,2021.1.4,59.98431682208415,
T,left,Distractor,0,21,21,21,2498.1210721246025,2500.122411799137,left,1,2,1.3846973621839425,M01A11,2022-12-09_14h38.07.821,t1_Paradigm,2021.1.4,59.98431682208415,
C,right,Target,0,22,22,22,2501.6202943370154,2503.621024164502,right,1,2,0.8305148090876173,M01A11,2022-12-09_14h38.07.821,t1_Paradigm,2021.1.4,59.98431682208415,
F,left,Pretarget,0,23,23,23,2505.1197764001117,2507.1217256008968,left,1,2,0.9631955215882044,M01A11,2022-12-09_14h38.07.821,t1_Paradigm,2021.1.4,59.98431682208415,
C,right,Target,0,24,24,24,2508.6195917778095,2510.6193242278678,right,1,2,0.85833839935367,M01A11,2022-12-09_14h38.07.821,t1_Paradigm,2021.1.4,59.98431682208415,
F,right,Target,0,25,25,25,2512.118597448003,2514.1186112425494,right,1,2,1.1023436284449417,M01A11,2022-12-09_14h38.07.821,t1_Paradigm,2021.1.4,59.98431682208415,
H,left,Distractor,0,26,26,26,2515.6182922036824,2517.6191840368265,left,1,2,1.0516663324960973,M01A11,2022-12-09_14h38.07.821,t1_Paradigm,2021.1.4,59.98431682208415,
H,left,Lure,0,27,27,27,2519.1177569433785,2521.1174377441057,left,1,2,1.2724113981385017,M01A11,2022-12-09_14h38.07.821,t1_Paradigm,2021.1.4,59.98431682208415,
P,left,Distractor,0,28,28,28,2522.617128650134,2524.619176016742,left,1,2,1.3103874501830433,M01A11,2022-12-09_14h38.07.821,t1_Paradigm,2021.1.4,59.98431682208415,
G,left,Pretarget,0,29,29,29,2526.133157105389,2528.135309374673,None,0,2,,M01A11,2022-12-09_14h38.07.821,t1_Paradigm,2021.1.4,59.98431682208415,
K,left,Distractor,0,30,30,30,2529.6326693239826,2531.634615637551,left,1,2,1.1460456984204939,M01A11,2022-12-09_14h38.07.821,t1_Paradigm,2021.1.4,59.98431682208415,
G,right,Target,0,31,31,31,2533.13186619294,2535.1334609061014,left,0,2,1.1055612854688661,M01A11,2022-12-09_14h38.07.821,t1_Paradigm,2021.1.4,59.98431682208415,
M,left,Pretarget,0,32,32,32,2536.631508336868,2538.643916045781,left,1,2,1.3472098935744725,M01A11,2022-12-09_14h38.07.821,t1_Paradigm,2021.1.4,59.98431682208415,
B,left,Distractor,0,33,33,33,2540.1309060286876,2542.132656652262,left,1,2,1.2433036323054694,M01A11,2022-12-09_14h38.07.821,t1_Paradigm,2021.1.4,59.98431682208415,
M,right,Target,0,34,34,34,2543.630491711243,2545.6317168590176,right,1,2,0.9409879137238022,M01A11,2022-12-09_14h38.07.821,t1_Paradigm,2021.1.4,59.98431682208415,
M,left,Lure,0,35,35,35,2547.129756590497,2549.1296404597088,left,1,2,1.109166472844663,M01A11,2022-12-09_14h38.07.821,t1_Paradigm,2021.1.4,59.98431682208415,
T,left,Distractor,0,36,36,36,2550.629131826092,2552.6304259465687,left,1,2,1.1030654358619358,M01A11,2022-12-09_14h38.07.821,t1_Paradigm,2021.1.4,59.98431682208415,
F,left,Distractor,0,37,37,37,2554.1286652177077,2556.1300212532224,left,1,2,0.8083835524157621,M01A11,2022-12-09_14h38.07.821,t1_Paradigm,2021.1.4,59.98431682208415,
X,left,Distractor,0,38,38,38,2557.6278043420753,2559.6299116988957,left,1,2,0.9215020010160515,M01A11,2022-12-09_14h38.07.821,t1_Paradigm,2021.1.4,59.98431682208415,
C,left,Distractor,0,39,39,39,2561.1276367223472,2563.1289010081236,left,1,2,1.1331272706884192,M01A11,2022-12-09_14h38.07.821,t1_Paradigm,2021.1.4,59.98431682208415,
R,left,Distractor,0,40,40,40,2564.6268865238526,2566.6390407981526,left,1,2,1.2161469920683885,M01A11,2022-12-09_14h38.07.821,t1_Paradigm,2021.1.4,59.98431682208415,
B,left,Pretarget,0,41,41,41,2568.126014740905,2570.1277124319313,left,1,2,0.9567403177643428,M01A11,2022-12-09_14h38.07.821,t1_Paradigm,2021.1.4,59.98431682208415,
H,left,Distractor,0,42,42,42,2571.62576467474,2573.6269253410574,left,1,2,0.9200327219441533,M01A11,2022-12-09_14h38.07.821,t1_Paradigm,2021.1.4,59.98431682208415,
B,right,Target,0,43,43,43,2575.125280422173,2577.1272196780774,right,1,2,0.983804566640174,M01A11,2022-12-09_14h38.07.821,t1_Paradigm,2021.1.4,59.98431682208415,
W,left,Pretarget,0,44,44,44,2578.624230914211,2580.623462269519,left,1,2,1.158264454192249,M01A11,2022-12-09_14h38.07.821,t1_Paradigm,2021.1.4,59.98431682208415,
L,left,Pretarget,0,45,45,45,2582.12436709521,2584.126212355739,left,1,2,1.2478683423250914,M01A11,2022-12-09_14h38.07.821,t1_Paradigm,2021.1.4,59.98431682208415,
W,right,Target,0,46,46,46,2585.623492425031,2587.6248529517907,left,0,2,1.3421209909574827,M01A11,2022-12-09_14h38.07.821,t1_Paradigm,2021.1.4,59.98431682208415,
L,right,Target,0,47,47,47,2589.1229305380693,2591.1350026867294,right,1,2,1.0540479761402821,M01A11,2022-12-09_14h38.07.821,t1_Paradigm,2021.1.4,59.98431682208415,
W,right,Target,0,48,48,48,2592.6222746557323,2594.6231764337863,right,1,2,1.1465339610294905,M01A11,2022-12-09_14h38.07.821,t1_Paradigm,2021.1.4,59.98431682208415,
X,left,Distractor,0,49,49,49,2596.1214827528165,2598.1236629319756,left,1,2,0.9079916912014596,M01A11,2022-12-09_14h38.07.821,t1_Paradigm,2021.1.4,59.98431682208415,
R,left,Distractor,0,50,50,50,2599.6211281047727,2601.622082494563,left,1,2,0.9537145011126995,M01A11,2022-12-09_14h38.07.821,t1_Paradigm,2021.1.4,59.98431682208415,
V,left,Pretarget,0,51,51,51,2603.1209476529184,2605.1224047414726,left,1,2,1.0665666829736438,M01A11,2022-12-09_14h38.07.821,t1_Paradigm,2021.1.4,59.98431682208415,
Z,left,Distractor,0,52,52,52,2606.620148050715,2608.6215217304125,left,1,2,1.1234771868766984,M01A11,2022-12-09_14h38.07.821,t1_Paradigm,2021.1.4,59.98431682208415,
V,right,Target,0,53,53,53,2610.1193189346086,2612.121689350126,right,1,2,0.8733208754711086,M01A11,2022-12-09_14h38.07.821,t1_Paradigm,2021.1.4,59.98431682208415,
V,left,Lure,0,54,54,54,2613.619306904482,2615.6183736877138,left,1,2,0.9939454794803169,M01A11,2022-12-09_14h38.07.821,t1_Paradigm,2021.1.4,59.98431682208415,
N,left,Distractor,0,55,55,55,2617.118523984056,2619.1197109562345,left,1,2,1.1384288658882724,M01A11,2022-12-09_14h38.07.821,t1_Paradigm,2021.1.4,59.98431682208415,
B,left,Distractor,0,56,56,56,2620.617836021396,2622.6193290399096,left,1,2,1.1010215980786597,M01A11,2022-12-09_14h38.07.821,t1_Paradigm,2021.1.4,59.98431682208415,
V,left,Lure,0,57,57,57,2624.133835925153,2626.133870251113,left,1,2,1.4118463031481951,M01A11,2022-12-09_14h38.07.821,t1_Paradigm,2021.1.4,59.98431682208415,
J,left,Distractor,0,58,58,58,2627.63314379206,2629.635536343005,left,1,2,0.9807793915970251,M01A11,2022-12-09_14h38.07.821,t1_Paradigm,2021.1.4,59.98431682208415,
H,left,Distractor,0,59,59,59,2631.1327227377333,2633.133883083239,left,1,2,1.119841523177456,M01A11,2022-12-09_14h38.07.821,t1_Paradigm,2021.1.4,59.98431682208415,
X,left,Pretarget,0,60,60,60,2634.6323071370716,2636.633548645812,left,1,2,1.0457532862201333,M01A11,2022-12-09_14h38.07.821,t1_Paradigm,2021.1.4,59.98431682208415,
P,left,Distractor,0,61,61,61,2638.131637781,2640.1310667511425,left,1,2,1.2838502811064245,M01A11,2022-12-09_14h38.07.821,t1_Paradigm,2021.1.4,59.98431682208415,
X,right,Target,0,62,62,62,2641.631027131938,2643.631827215344,right,1,2,1.0129373551317258,M01A11,2022-12-09_14h38.07.821,t1_Paradigm,2021.1.4,59.98431682208415,
Q,left,Distractor,0,63,63,63,2645.130784444249,2647.1321780137514,left,1,2,0.9625872785545653,M01A11,2022-12-09_14h38.07.821,t1_Paradigm,2021.1.4,59.98431682208415,
B,left,Pretarget,0,0,0,0,2674.9474293230305,2676.959604449541,None,0,2,,M01A11,2022-12-09_14h38.07.821,t1_Paradigm,2021.1.4,59.98431682208415,
F,left,Distractor,0,1,1,1,2678.4582565945166,2680.4592395357904,None,0,2,,M01A11,2022-12-09_14h38.07.821,t1_Paradigm,2021.1.4,59.98431682208415,
B,right,Target,0,2,2,2,2681.9576077698584,2683.9596644397534,right,1,2,0.7787275337323081,M01A11,2022-12-09_14h38.07.821,t1_Paradigm,2021.1.4,59.98431682208415,
V,left,Distractor,0,3,3,3,2685.4572245703166,2687.4583117726725,left,1,2,0.9335898690333124,M01A11,2022-12-09_14h38.07.821,t1_Paradigm,2021.1.4,59.98431682208415,
G,left,Pretarget,0,4,4,4,2688.956940819815,2690.958475542764,left,1,2,1.1120976525126025,M01A11,2022-12-09_14h38.07.821,t1_Paradigm,2021.1.4,59.98431682208415,
B,left,Lure,0,5,5,5,2692.4558483242,2694.4575761707238,left,1,2,1.1687534386001062,M01A11,2022-12-09_14h38.07.821,t1_Paradigm,2021.1.4,59.98431682208415,
G,right,Target,0,6,6,6,2695.9553865278576,2697.95588088574,right,1,2,0.8149561702593928,M01A11,2022-12-09_14h38.07.821,t1_Paradigm,2021.1.4,59.98431682208415,
Y,left,Pretarget,0,7,7,7,2699.4548390770506,2701.455963813394,left,1,2,1.0377489233069355,M01A11,2022-12-09_14h38.07.821,t1_Paradigm,2021.1.4,59.98431682208415,
P,left,Distractor,0,8,8,8,2702.9542739820463,2704.9536304506473,left,1,2,1.153102729236707,M01A11,2022-12-09_14h38.07.821,t1_Paradigm,2021.1.4,59.98431682208415,
Y,right,Target,0,9,9,9,2706.453658520928,2708.455068130599,right,1,2,0.7674788871372584,M01A11,2022-12-09_14h38.07.821,t1_Paradigm,2021.1.4,59.98431682208415,
X,left,Distractor,0,10,10,10,2709.952498335828,2711.9543974913104,left,1,2,1.1100220552179962,M01A11,2022-12-09_14h38.07.821,t1_Paradigm,2021.1.4,59.98431682208415,
Y,right,Target,0,11,11,11,2713.4525485415506,2715.454508649651,right,1,2,0.9778000914229779,M01A11,2022-12-09_14h38.07.821,t1_Paradigm,2021.1.4,59.98431682208415,
N,left,Distractor,0,12,12,12,2716.951958423888,2718.953503091747,left,1,2,0.9856822283036308,M01A11,2022-12-09_14h38.07.821,t1_Paradigm,2021.1.4,59.98431682208415,
Y,right,Target,0,13,13,13,2720.4510539190087,2722.452562977691,right,1,2,1.2139071434939979,M01A11,2022-12-09_14h38.07.821,t1_Paradigm,2021.1.4,59.98431682208415,
Y,left,Lure,0,14,14,14,2723.9509373070177,2725.950614258094,left,1,2,1.3779810244741384,M01A11,2022-12-09_14h38.07.821,t1_Paradigm,2021.1.4,59.98431682208415,
K,left,Distractor,0,15,15,15,2727.450267630149,2729.450658689355,left,1,2,0.8874843407829758,M01A11,2022-12-09_14h38.07.821,t1_Paradigm,2021.1.4,59.98431682208415,
T,left,Pretarget,0,16,16,16,2730.9497387859155,2732.9510758940305,left,1,2,0.9676553289464209,M01A11,2022-12-09_14h38.07.821,t1_Paradigm,2021.1.4,59.98431682208415,
J,left,Distractor,0,17,17,17,2734.449056918529,2736.4505303680344,left,1,2,1.1752497052657418,M01A11,2022-12-09_14h38.07.821,t1_Paradigm,2021.1.4,59.98431682208415,
T,right,Target,0,18,18,18,2737.9487106113666,2739.947847329706,right,1,2,1.05445667951426,M01A11,2022-12-09_14h38.07.821,t1_Paradigm,2021.1.4,59.98431682208415,
S,left,Pretarget,0,19,19,19,2741.4479495055566,2743.4478635302803,left,1,2,1.1310455781203927,M01A11,2022-12-09_14h38.07.821,t1_Paradigm,2021.1.4,59.98431682208415,
R,left,Distractor,0,20,20,20,2744.9473651623703,2746.948821930113,left,1,2,1.0960661496355897,M01A11,2022-12-09_14h38.07.821,t1_Paradigm,2021.1.4,59.98431682208415,
S,right,Target,0,21,21,21,2748.446907857273,2750.4461607064004,right,1,2,0.8690849888080265,M01A11,2022-12-09_14h38.07.821,t1_Paradigm,2021.1.4,59.98431682208415,
Q,left,Distractor,0,22,22,22,2751.9463895995577,2753.9487834337197,left,1,2,0.9308700987312477,M01A11,2022-12-09_14h38.07.821,t1_Paradigm,2021.1.4,59.98431682208415,
D,left,Distractor,0,23,23,23,2755.445757777474,2757.447233472616,left,1,2,0.9722113772877492,M01A11,2022-12-09_14h38.07.821,t1_Paradigm,2021.1.4,59.98431682208415,
F,left,Distractor,0,24,24,24,2758.9451994193514,2760.9446508457186,left,1,2,1.2100690529041458,M01A11,2022-12-09_14h38.07.821,t1_Paradigm,2021.1.4,59.98431682208415,
Z,left,Distractor,0,25,25,25,2762.444615717759,2764.4455531049753,left,1,2,1.1184627106267726,M01A11,2022-12-09_14h38.07.821,t1_Paradigm,2021.1.4,59.98431682208415,
P,left,Distractor,0,26,26,26,2765.943879313796,2767.944919358066,left,1,2,1.305775582062779,M01A11,2022-12-09_14h38.07.821,t1_Paradigm,2021.1.4,59.98431682208415,
H,left,Distractor,0,27,27,27,2769.4432436420757,2771.444729602925,left,1,2,1.1497095928207273,M01A11,2022-12-09_14h38.07.821,t1_Paradigm,2021.1.4,59.98431682208415,
Z,left,Pretarget,0,28,28,28,2772.9596172816673,2774.9619341230427,left,1,2,1.2046038480475545,M01A11,2022-12-09_14h38.07.821,t1_Paradigm,2021.1.4,59.98431682208415,
J,left,Pretarget,0,29,29,29,2776.45903903374,2778.460164411692,left,1,2,1.050337886059424,M01A11,2022-12-09_14h38.07.821,t1_Paradigm,2021.1.4,59.98431682208415,
Z,right,Target,0,30,30,30,2779.9584463496576,2781.959949313081,right,1,2,0.7844898024777649,M01A11,2022-12-09_14h38.07.821,t1_Paradigm,2021.1.4,59.98431682208415,
J,right,Target,0,31,31,31,2783.4578170940076,2785.459854515706,right,1,2,0.8159144096862292,M01A11,2022-12-09_14h38.07.821,t1_Paradigm,2021.1.4,59.98431682208415,
V,left,Pretarget,0,32,32,32,2786.9570206998324,2788.956427213736,left,1,2,1.030518337909598,M01A11,2022-12-09_14h38.07.821,t1_Paradigm,2021.1.4,59.98431682208415,
Z,left,Lure,0,33,33,33,2790.456541580119,2792.45832492561,left,1,2,0.9907072910573334,M01A11,2022-12-09_14h38.07.821,t1_Paradigm,2021.1.4,59.98431682208415,
V,right,Target,0,34,34,34,2793.9560653476365,2795.957666476854,right,1,2,0.9493894311453914,M01A11,2022-12-09_14h38.07.821,t1_Paradigm,2021.1.4,59.98431682208415,
X,left,Distractor,0,35,35,35,2797.4555730749853,2799.456973702152,left,1,2,0.9249804710998433,M01A11,2022-12-09_14h38.07.821,t1_Paradigm,2021.1.4,59.98431682208415,
S,left,Distractor,0,36,36,36,2800.9549701251963,2802.9555687441316,left,1,2,1.4106067192333285,M01A11,2022-12-09_14h38.07.821,t1_Paradigm,2021.1.4,59.98431682208415,
Q,left,Distractor,0,37,37,37,2804.454321621335,2806.4533547202154,left,1,2,1.0242742226546397,M01A11,2022-12-09_14h38.07.821,t1_Paradigm,2021.1.4,59.98431682208415,
P,left,Distractor,0,38,38,38,2807.953810742096,2809.954754224571,left,1,2,1.180761105802958,M01A11,2022-12-09_14h38.07.821,t1_Paradigm,2021.1.4,59.98431682208415,
S,left,Lure,0,39,39,39,2811.4532093963207,2813.454874365416,left,1,2,1.2613366269069957,M01A11,2022-12-09_14h38.07.821,t1_Paradigm,2021.1.4,59.98431682208415,
K,left,Pretarget,0,40,40,40,2814.9526664367586,2816.9538886973023,left,1,2,1.0652529935032362,M01A11,2022-12-09_14h38.07.821,t1_Paradigm,2021.1.4,59.98431682208415,
L,left,Distractor,0,41,41,41,2818.4520519380458,2820.4538551733567,left,1,2,1.1295406898861984,M01A11,2022-12-09_14h38.07.821,t1_Paradigm,2021.1.4,59.98431682208415,
K,right,Target,0,42,42,42,2821.9514489882713,2823.953062308021,right,1,2,1.0274800099432468,M01A11,2022-12-09_14h38.07.821,t1_Paradigm,2021.1.4,59.98431682208415,
B,left,Distractor,0,43,43,43,2825.450978209439,2827.45202114094,left,1,2,0.9497166504879715,M01A11,2022-12-09_14h38.07.821,t1_Paradigm,2021.1.4,59.98431682208415,
N,left,Distractor,0,44,44,44,2828.9503605026985,2830.951581480025,left,1,2,1.0063150127971312,M01A11,2022-12-09_14h38.07.821,t1_Paradigm,2021.1.4,59.98431682208415,
S,left,Pretarget,0,45,45,45,2832.449823638395,2834.452118985937,left,1,2,1.3967778517398983,M01A11,2022-12-09_14h38.07.821,t1_Paradigm,2021.1.4,59.98431682208415,
Z,left,Distractor,0,46,46,46,2835.949246994467,2837.9502283317415,left,1,2,1.1811807165213395,M01A11,2022-12-09_14h38.07.821,t1_Paradigm,2021.1.4,59.98431682208415,
S,right,Target,0,47,47,47,2839.448614530789,2841.4501768428163,right,1,2,0.8705597215448506,M01A11,2022-12-09_14h38.07.821,t1_Paradigm,2021.1.4,59.98431682208415,
C,left,Distractor,0,48,48,48,2842.9479913703835,2844.949071835872,left,1,2,0.9519568198738853,M01A11,2022-12-09_14h38.07.821,t1_Paradigm,2021.1.4,59.98431682208415,
T,left,Pretarget,0,49,49,49,2846.447549784658,2848.4472787058767,left,1,2,0.9934055675403215,M01A11,2022-12-09_14h38.07.821,t1_Paradigm,2021.1.4,59.98431682208415,
S,left,Lure,0,50,50,50,2849.946888769482,2851.948293246285,left,1,2,1.1710657887306297,M01A11,2022-12-09_14h38.07.821,t1_Paradigm,2021.1.4,59.98431682208415,
T,right,Target,0,51,51,51,2853.4463871935295,2855.448313617293,right,1,2,0.8147797284473199,M01A11,2022-12-09_14h38.07.821,t1_Paradigm,2021.1.4,59.98431682208415,
N,left,Pretarget,0,52,52,52,2856.945741576914,2858.947795038781,left,1,2,0.8716097107244423,M01A11,2022-12-09_14h38.07.821,t1_Paradigm,2021.1.4,59.98431682208415,
B,left,Distractor,0,53,53,53,2860.4451524216565,2862.446667575612,left,1,2,0.9450348472601036,M01A11,2022-12-09_14h38.07.821,t1_Paradigm,2021.1.4,59.98431682208415,
N,right,Target,0,54,54,54,2863.9444086392323,2865.946117558371,right,1,2,0.6997210615372751,M01A11,2022-12-09_14h38.07.821,t1_Paradigm,2021.1.4,59.98431682208415,
N,left,Lure,0,55,55,55,2867.443998171424,2869.4437604561826,left,1,2,0.9537263708334649,M01A11,2022-12-09_14h38.07.821,t1_Paradigm,2021.1.4,59.98431682208415,
X,left,Distractor,0,56,56,56,2870.943472535233,2872.945144561978,left,1,2,1.0488852887647226,M01A11,2022-12-09_14h38.07.821,t1_Paradigm,2021.1.4,59.98431682208415,
W,left,Distractor,0,57,57,57,2874.45953563723,2876.4599754585506,left,1,2,1.041610111729824,M01A11,2022-12-09_14h38.07.821,t1_Paradigm,2021.1.4,59.98431682208415,
S,left,Distractor,0,58,58,58,2877.95894969003,2879.9599416137935,left,1,2,0.8978966532158665,M01A11,2022-12-09_14h38.07.821,t1_Paradigm,2021.1.4,59.98431682208415,
L,left,Distractor,0,59,59,59,2881.458445868455,2883.4597412721487,left,1,2,0.9538925469387323,M01A11,2022-12-09_14h38.07.821,t1_Paradigm,2021.1.4,59.98431682208415,
K,left,Pretarget,0,60,60,60,2884.957851259547,2886.959117790946,left,1,2,1.0349332328187302,M01A11,2022-12-09_14h38.07.821,t1_Paradigm,2021.1.4,59.98431682208415,
V,left,Pretarget,0,61,61,61,2888.4573192073003,2890.4592501223087,left,1,2,1.1277146775537403,M01A11,2022-12-09_14h38.07.821,t1_Paradigm,2021.1.4,59.98431682208415,
K,right,Target,0,62,62,62,2891.956802553599,2893.957517944931,right,1,2,1.4225880805461202,M01A11,2022-12-09_14h38.07.821,t1_Paradigm,2021.1.4,59.98431682208415,
V,right,Target,0,63,63,63,2895.4561290270794,2897.4583784997667,right,1,2,1.2569717773294542,M01A11,2022-12-09_14h38.07.821,t1_Paradigm,2021.1.4,59.98431682208415,
R,left,Distractor,0,0,0,0,3017.9409263194975,3019.9379024276714,None,0,3,,M01A11,2022-12-09_14h38.07.821,t1_Paradigm,2021.1.4,59.98431682208415,
P,left,Lure,0,1,1,1,3021.43555655361,3023.437108279133,None,0,3,,M01A11,2022-12-09_14h38.07.821,t1_Paradigm,2021.1.4,59.98431682208415,
V,left,Distractor,0,2,2,2,3024.9348547964037,3026.936677600708,left,1,3,0.8406153007235844,M01A11,2022-12-09_14h38.07.821,t1_Paradigm,2021.1.4,59.98431682208415,
P,left,Pretarget,0,3,3,3,3028.4344067946076,3030.4360525154916,None,0,3,,M01A11,2022-12-09_14h38.07.821,t1_Paradigm,2021.1.4,59.98431682208415,
Z,left,Distractor,0,4,4,4,3031.9337906918954,3033.9350543360633,left,1,3,1.0685463600821095,M01A11,2022-12-09_14h38.07.821,t1_Paradigm,2021.1.4,59.98431682208415,
L,left,Pretarget,0,5,5,5,3035.433143792048,3037.434571366699,left,1,3,1.0643678972119233,M01A11,2022-12-09_14h38.07.821,t1_Paradigm,2021.1.4,59.98431682208415,
P,right,Target,0,6,6,6,3038.932682958126,3040.934061129068,right,1,3,1.2227587478992064,M01A11,2022-12-09_14h38.07.821,t1_Paradigm,2021.1.4,59.98431682208415,
S,left,Distractor,0,7,7,7,3042.432076800309,3044.433462670524,left,1,3,1.3858304394088918,M01A11,2022-12-09_14h38.07.821,t1_Paradigm,2021.1.4,59.98431682208415,
L,right,Target,0,8,8,8,3045.9313468124165,3047.933783955028,None,0,3,,M01A11,2022-12-09_14h38.07.821,t1_Paradigm,2021.1.4,59.98431682208415,
D,left,Distractor,0,9,9,9,3049.430770168503,3051.432325422851,left,1,3,1.1686488567356719,M01A11,2022-12-09_14h38.07.821,t1_Paradigm,2021.1.4,59.98431682208415,
G,left,Distractor,0,10,10,10,3052.93076872488,3054.9317433252872,left,1,3,0.7441317859920673,M01A11,2022-12-09_14h38.07.821,t1_Paradigm,2021.1.4,59.98431682208415,
M,left,Pretarget,0,11,11,11,3056.429778886333,3058.430731351298,left,1,3,1.3110104501683963,M01A11,2022-12-09_14h38.07.821,t1_Paradigm,2021.1.4,59.98431682208415,
Y,left,Distractor,0,12,12,12,3059.9292227738188,3061.9300661656744,left,1,3,1.045509154922911,M01A11,2022-12-09_14h38.07.821,t1_Paradigm,2021.1.4,59.98431682208415,
V,left,Distractor,0,13,13,13,3063.4286050670926,3065.4301593590353,left,1,3,1.1751605219469639,M01A11,2022-12-09_14h38.07.821,t1_Paradigm,2021.1.4,59.98431682208415,
M,right,Target,0,14,14,14,3066.928410499895,3068.929549351582,right,1,3,1.4234420589200454,M01A11,2022-12-09_14h38.07.821,t1_Paradigm,2021.1.4,59.98431682208415,
S,left,Pretarget,0,15,15,15,3070.4274905964558,3072.4290522668744,left,1,3,0.6440106827503769,M01A11,2022-12-09_14h38.07.821,t1_Paradigm,2021.1.4,59.98431682208415,
Q,left,Distractor,0,16,16,16,3073.926983566853,3075.928194278473,left,1,3,0.423647693824023,M01A11,2022-12-09_14h38.07.821,t1_Paradigm,2021.1.4,59.98431682208415,
R,left,Pretarget,0,17,17,17,3077.426362972881,3079.427445363195,left,1,3,0.8758789609128144,M01A11,2022-12-09_14h38.07.821,t1_Paradigm,2021.1.4,59.98431682208415,
S,right,Target,0,18,18,18,3080.9257247347414,3082.9266771997063,left,0,3,1.1776348777348176,M01A11,2022-12-09_14h38.07.821,t1_Paradigm,2021.1.4,59.98431682208415,
F,left,Distractor,0,19,19,19,3084.424928661363,3086.4267447288003,left,1,3,1.0790433645888697,M01A11,2022-12-09_14h38.07.821,t1_Paradigm,2021.1.4,59.98431682208415,
R,right,Target,0,20,20,20,3087.924603848034,3089.9267442475975,left,0,3,0.8294397972640581,M01A11,2022-12-09_14h38.07.821,t1_Paradigm,2021.1.4,59.98431682208415,
P,left,Distractor,0,21,21,21,3091.4239842164825,3093.425327740668,left,1,3,0.7447162895987276,M01A11,2022-12-09_14h38.07.821,t1_Paradigm,2021.1.4,59.98431682208415,
L,left,Distractor,0,22,22,22,3094.9234617883194,3096.9247283197183,left,1,3,0.6462527769472217,M01A11,2022-12-09_14h38.07.821,t1_Paradigm,2021.1.4,59.98431682208415,
R,right,Target,0,23,23,23,3098.422948342646,3100.4245613415987,right,1,3,0.9674801703367848,M01A11,2022-12-09_14h38.07.821,t1_Paradigm,2021.1.4,59.98431682208415,
H,left,Pretarget,0,24,24,24,3101.9222738537355,3103.9226318701985,left,1,3,0.8379487837519264,M01A11,2022-12-09_14h38.07.821,t1_Paradigm,2021.1.4,59.98431682208415,
G,left,Pretarget,0,25,25,25,3105.420868895715,3107.4229072798335,left,1,3,1.2530063278391026,M01A11,2022-12-09_14h38.07.821,t1_Paradigm,2021.1.4,59.98431682208415,
T,left,Distractor,0,26,26,26,3108.9212745514815,3110.9229132146866,left,1,3,0.8566994153370615,M01A11,2022-12-09_14h38.07.821,t1_Paradigm,2021.1.4,59.98431682208415,
H,right,Target,0,27,27,27,3112.420908354514,3114.4222223647957,right,1,3,1.166497870668536,M01A11,2022-12-09_14h38.07.821,t1_Paradigm,2021.1.4,59.98431682208415,
G,right,Target,0,28,28,28,3115.9201360205916,3117.9214644670283,left,0,3,0.6077108279132517,M01A11,2022-12-09_14h38.07.821,t1_Paradigm,2021.1.4,59.98431682208415,
D,left,Distractor,0,29,29,29,3119.436335784805,3121.437627018051,left,1,3,0.994215275044553,M01A11,2022-12-09_14h38.07.821,t1_Paradigm,2021.1.4,59.98431682208415,
N,left,Pretarget,0,30,30,30,3122.9355352201965,3124.937444641386,left,1,3,0.8221967005374609,M01A11,2022-12-09_14h38.07.821,t1_Paradigm,2021.1.4,59.98431682208415,
V,left,Distractor,0,31,31,31,3126.4348475783336,3128.4370027348486,left,1,3,0.5360558839311125,M01A11,2022-12-09_14h38.07.821,t1_Paradigm,2021.1.4,59.98431682208415,
R,left,Distractor,0,32,32,32,3129.934330283024,3131.935745987954,left,1,3,1.303399071271997,M01A11,2022-12-09_14h38.07.821,t1_Paradigm,2021.1.4,59.98431682208415,
N,right,Target,0,33,33,33,3133.433848596891,3135.4344350253086,left,0,3,1.1945280582585838,M01A11,2022-12-09_14h38.07.821,t1_Paradigm,2021.1.4,59.98431682208415,
Z,left,Distractor,0,34,34,34,3136.9333396424627,3138.9322181141615,left,1,3,0.6165313144010724,M01A11,2022-12-09_14h38.07.821,t1_Paradigm,2021.1.4,59.98431682208415,
N,left,Lure,0,35,35,35,3140.4324640098785,3142.4337292580603,left,1,3,1.2620318076515105,M01A11,2022-12-09_14h38.07.821,t1_Paradigm,2021.1.4,59.98431682208415,
Y,left,Pretarget,0,36,36,36,3143.9321895626636,3145.9320952464914,left,1,3,0.7326101357903099,M01A11,2022-12-09_14h38.07.821,t1_Paradigm,2021.1.4,59.98431682208415,
Y,left,Lure,0,37,37,37,3147.4314069630345,3149.4312950026797,left,1,3,1.0911732578388182,M01A11,2022-12-09_14h38.07.821,t1_Paradigm,2021.1.4,59.98431682208415,
B,left,Distractor,0,38,38,38,3150.931190581221,3152.9323567011743,left,1,3,0.9058047751605045,M01A11,2022-12-09_14h38.07.821,t1_Paradigm,2021.1.4,59.98431682208415,
Y,right,Target,0,39,39,39,3154.430430117005,3156.4315189233894,right,1,3,0.9754415456409333,M01A11,2022-12-09_14h38.07.821,t1_Paradigm,2021.1.4,59.98431682208415,
J,left,Distractor,0,40,40,40,3157.9296536126494,3159.9308697779197,left,1,3,0.8940473345137434,M01A11,2022-12-09_14h38.07.821,t1_Paradigm,2021.1.4,59.98431682208415,
X,left,Distractor,0,41,41,41,3161.4291882874677,3163.4293881479243,left,1,3,1.0290667030203622,M01A11,2022-12-09_14h38.07.821,t1_Paradigm,2021.1.4,59.98431682208415,
W,left,Pretarget,0,42,42,42,3164.9287402856717,3166.9278388284292,left,1,3,1.0622454626427498,M01A11,2022-12-09_14h38.07.821,t1_Paradigm,2021.1.4,59.98431682208415,
S,left,Pretarget,0,43,43,43,3168.4282175367116,3170.42992003978,left,1,3,0.8475170627352782,M01A11,2022-12-09_14h38.07.821,t1_Paradigm,2021.1.4,59.98431682208415,
R,left,Distractor,0,44,44,44,3171.927615228531,3173.928936938086,left,1,3,0.8641266531340079,M01A11,2022-12-09_14h38.07.821,t1_Paradigm,2021.1.4,59.98431682208415,
W,right,Target,0,45,45,45,3175.4269843688526,3177.4281578672962,right,1,3,0.8640596052573528,M01A11,2022-12-09_14h38.07.821,t1_Paradigm,2021.1.4,59.98431682208415,
S,right,Target,0,46,46,46,3178.9265530488337,3180.927769214104,right,1,3,0.9327105472184485,M01A11,2022-12-09_14h38.07.821,t1_Paradigm,2021.1.4,59.98431682208415,
D,left,Distractor,0,47,47,47,3182.4258628405514,3184.426874333323,left,1,3,0.6553815554216271,M01A11,2022-12-09_14h38.07.821,t1_Paradigm,2021.1.4,59.98431682208415,
T,left,Distractor,0,48,48,48,3185.9248341847997,3187.9250831281533,left,1,3,1.2394886395632057,M01A11,2022-12-09_14h38.07.821,t1_Paradigm,2021.1.4,59.98431682208415,
S,right,Target,0,49,49,49,3189.4248747664096,3191.4256934564182,right,1,3,1.1196487203851575,M01A11,2022-12-09_14h38.07.821,t1_Paradigm,2021.1.4,59.98431682208415,
K,left,Distractor,0,50,50,50,3192.9241874453583,3194.9253644726414,left,1,3,0.7560175479447935,M01A11,2022-12-09_14h38.07.821,t1_Paradigm,2021.1.4,59.98431682208415,
S,left,Lure,0,51,51,51,3196.4237349523173,3198.424800660854,None,0,3,,M01A11,2022-12-09_14h38.07.821,t1_Paradigm,2021.1.4,59.98431682208415,
T,left,Pretarget,0,52,52,52,3199.9231942383776,3201.924326994791,right,0,3,1.4080505586025538,M01A11,2022-12-09_14h38.07.821,t1_Paradigm,2021.1.4,59.98431682208415,
V,left,Distractor,0,53,53,53,3203.422217873551,3205.424426283411,left,1,3,0.598895795061253,M01A11,2022-12-09_14h38.07.821,t1_Paradigm,2021.1.4,59.98431682208415,
B,left,Distractor,0,54,54,54,3206.921131794006,3208.9228500164463,left,1,3,0.3636529870709637,M01A11,2022-12-09_14h38.07.821,t1_Paradigm,2021.1.4,59.98431682208415,
T,right,Target,0,55,55,55,3210.421573058935,3212.422978818955,right,1,3,0.8600829276547302,M01A11,2022-12-09_14h38.07.821,t1_Paradigm,2021.1.4,59.98431682208415,
Y,left,Pretarget,0,56,56,56,3213.9211298691953,3215.9232089953293,left,1,3,0.5938896597072016,M01A11,2022-12-09_14h38.07.821,t1_Paradigm,2021.1.4,59.98431682208415,
T,left,Lure,0,57,57,57,3217.4368381627573,3219.43780474308,right,0,3,0.7821649410179816,M01A11,2022-12-09_14h38.07.821,t1_Paradigm,2021.1.4,59.98431682208415,
P,left,Pretarget,0,58,58,58,3220.935540673847,3222.9380628293293,left,1,3,1.038034117416828,M01A11,2022-12-09_14h38.07.821,t1_Paradigm,2021.1.4,59.98431682208415,
Y,right,Target,0,59,59,59,3224.435217464532,3226.4376318301074,right,1,3,1.2495304241892882,M01A11,2022-12-09_14h38.07.821,t1_Paradigm,2021.1.4,59.98431682208415,
R,left,Distractor,0,60,60,60,3227.934918957064,3229.936748498236,left,1,3,1.0950219349178951,M01A11,2022-12-09_14h38.07.821,t1_Paradigm,2021.1.4,59.98431682208415,
P,right,Target,0,61,61,61,3231.434437591728,3233.4367531498865,right,1,3,1.1226536848262185,M01A11,2022-12-09_14h38.07.821,t1_Paradigm,2021.1.4,59.98431682208415,
L,left,Distractor,0,62,62,62,3234.933995685191,3236.9348493427533,left,1,3,1.299077850926551,M01A11,2022-12-09_14h38.07.821,t1_Paradigm,2021.1.4,59.98431682208415,
V,left,Distractor,0,63,63,63,3238.4333898481855,3240.433739523767,left,1,3,1.1323669668927323,M01A11,2022-12-09_14h38.07.821,t1_Paradigm,2021.1.4,59.98431682208415,
H,left,Lure,0,0,0,0,3301.4787793434807,3303.3757485543756,None,0,3,,M01A11,2022-12-09_14h38.07.821,t1_Paradigm,2021.1.4,59.98431682208415,
B,left,Distractor,0,1,1,1,3304.872267036655,3306.874157209648,None,0,3,,M01A11,2022-12-09_14h38.07.821,t1_Paradigm,2021.1.4,59.98431682208415,
T,left,Distractor,0,2,2,2,3308.3718799874914,3310.3741968288523,None,0,3,,M01A11,2022-12-09_14h38.07.821,t1_Paradigm,2021.1.4,59.98431682208415,
R,left,Distractor,0,3,3,3,3311.8712998147384,3313.8721900438686,left,1,3,0.8549876089673489,M01A11,2022-12-09_14h38.07.821,t1_Paradigm,2021.1.4,59.98431682208415,
H,left,Pretarget,0,4,4,4,3315.370918540022,3317.3721369509294,left,1,3,1.1560897286835825,M01A11,2022-12-09_14h38.07.821,t1_Paradigm,2021.1.4,59.98431682208415,
K,left,Distractor,0,5,5,5,3318.8702414846775,3320.872295588153,left,1,3,0.6574436789815081,M01A11,2022-12-09_14h38.07.821,t1_Paradigm,2021.1.4,59.98431682208415,
G,left,Distractor,0,6,6,6,3322.3697617233556,3324.368901649723,left,1,3,1.1453630290197907,M01A11,2022-12-09_14h38.07.821,t1_Paradigm,2021.1.4,59.98431682208415,
H,right,Target,0,7,7,7,3325.8690657406114,3327.870021734416,right,1,3,0.8822202795854537,M01A11,2022-12-09_14h38.07.821,t1_Paradigm,2021.1.4,59.98431682208415,
Y,left,Pretarget,0,8,8,8,3329.3677634396445,3331.3694085189345,left,1,3,0.8087146214093082,M01A11,2022-12-09_14h38.07.821,t1_Paradigm,2021.1.4,59.98431682208415,
S,left,Distractor,0,9,9,9,3332.8679541572055,3334.8688228925166,left,1,3,0.9019047695474001,M01A11,2022-12-09_14h38.07.821,t1_Paradigm,2021.1.4,59.98431682208415,
P,left,Distractor,0,10,10,10,3336.3673223351216,3338.3688820807292,left,1,3,0.7050829677609727,M01A11,2022-12-09_14h38.07.821,t1_Paradigm,2021.1.4,59.98431682208415,
Y,right,Target,0,11,11,11,3339.8666943626886,3341.8684985603904,right,1,3,0.8477185271913186,M01A11,2022-12-09_14h38.07.821,t1_Paradigm,2021.1.4,59.98431682208415,
H,left,Lure,0,12,12,12,3343.366168405686,3345.3680123830127,left,1,3,0.7002070785238175,M01A11,2022-12-09_14h38.07.821,t1_Paradigm,2021.1.4,59.98431682208415,
Q,left,Distractor,0,13,13,13,3346.8656161428225,3348.8668685588636,left,1,3,0.8839070632820949,M01A11,2022-12-09_14h38.07.821,t1_Paradigm,2021.1.4,59.98431682208415,
V,left,Pretarget,0,14,14,14,3350.3652432089875,3352.3658979685133,left,1,3,0.9413748025108362,M01A11,2022-12-09_14h38.07.821,t1_Paradigm,2021.1.4,59.98431682208415,
G,left,Distractor,0,15,15,15,3353.8644760079187,3355.865563851883,left,1,3,0.5898177035269327,M01A11,2022-12-09_14h38.07.821,t1_Paradigm,2021.1.4,59.98431682208415,
Z,left,Pretarget,0,16,16,16,3357.3637277342496,3359.3651283614163,left,1,3,0.8829873202485032,M01A11,2022-12-09_14h38.07.821,t1_Paradigm,2021.1.4,59.98431682208415,
V,right,Target,0,17,17,17,3360.86310393225,3362.8645279780612,right,1,3,1.1522259738412686,M01A11,2022-12-09_14h38.07.821,t1_Paradigm,2021.1.4,59.98431682208415,
N,left,Distractor,0,18,18,18,3364.3625491029525,3366.3633835123183,left,1,3,0.6507748201547656,M01A11,2022-12-09_14h38.07.821,t1_Paradigm,2021.1.4,59.98431682208415,
Z,right,Target,0,19,19,19,3367.862101742765,3369.863124463649,right,1,3,0.9725443711067783,M01A11,2022-12-09_14h38.07.821,t1_Paradigm,2021.1.4,59.98431682208415,
R,left,Distractor,0,20,20,20,3371.3614218001894,3373.363616415503,left,1,3,0.7427924322400941,M01A11,2022-12-09_14h38.07.821,t1_Paradigm,2021.1.4,59.98431682208415,
P,left,Distractor,0,21,21,21,3374.861208947201,3376.8621787355514,left,1,3,0.8003268985485192,M01A11,2022-12-09_14h38.07.821,t1_Paradigm,2021.1.4,59.98431682208415,
Z,right,Target,0,22,22,22,3378.3604725432524,3380.3616017708264,right,1,3,0.5880465485679451,M01A11,2022-12-09_14h38.07.821,t1_Paradigm,2021.1.4,59.98431682208415,
D,left,Pretarget,0,23,23,23,3381.8598695934634,3383.8616834152635,left,1,3,1.0236650172009831,M01A11,2022-12-09_14h38.07.821,t1_Paradigm,2021.1.4,59.98431682208415,
K,left,Distractor,0,24,24,24,3385.3592698517023,3387.3583757729357,left,1,3,0.9362403458217159,M01A11,2022-12-09_14h38.07.821,t1_Paradigm,2021.1.4,59.98431682208415,
W,left,Distractor,0,25,25,25,3388.8587750126317,3390.860405976564,left,1,3,0.8030646338447696,M01A11,2022-12-09_14h38.07.821,t1_Paradigm,2021.1.4,59.98431682208415,
D,right,Target,0,26,26,26,3392.374836510615,3394.3760218787793,left,0,3,0.7134177580592223,M01A11,2022-12-09_14h38.07.821,t1_Paradigm,2021.1.4,59.98431682208415,
G,left,Pretarget,0,27,27,27,3395.8745444192173,3397.8752456952207,left,1,3,0.8763402760378085,M01A11,2022-12-09_14h38.07.821,t1_Paradigm,2021.1.4,59.98431682208415,
V,left,Distractor,0,28,28,28,3399.373733588902,3401.37274647718,left,1,3,1.004486754842219,M01A11,2022-12-09_14h38.07.821,t1_Paradigm,2021.1.4,59.98431682208415,
D,right,Target,0,29,29,29,3402.873025094843,3404.874713803365,right,1,3,1.1770895121298963,M01A11,2022-12-09_14h38.07.821,t1_Paradigm,2021.1.4,59.98431682208415,
G,right,Target,0,30,30,30,3406.3731378571974,3408.3747835780814,left,0,3,0.7150836895598331,M01A11,2022-12-09_14h38.07.821,t1_Paradigm,2021.1.4,59.98431682208415,
B,left,Pretarget,0,31,31,31,3409.871980880125,3411.8711188816815,left,1,3,0.9873613127274439,M01A11,2022-12-09_14h38.07.821,t1_Paradigm,2021.1.4,59.98431682208415,
N,left,Distractor,0,32,32,32,3413.37142829645,3415.370242286692,left,1,3,1.1837689574749675,M01A11,2022-12-09_14h38.07.821,t1_Paradigm,2021.1.4,59.98431682208415,
F,left,Distractor,0,33,33,33,3416.8707942287438,3418.8703364424437,None,0,3,,M01A11,2022-12-09_14h38.07.821,t1_Paradigm,2021.1.4,59.98431682208415,
B,right,Target,0,34,34,34,3420.3703263371426,3422.371168445781,None,0,3,,M01A11,2022-12-09_14h38.07.821,t1_Paradigm,2021.1.4,59.98431682208415,
Q,left,Pretarget,0,35,35,35,3423.8697230665566,3425.871757280227,left,1,3,1.1959225901664468,M01A11,2022-12-09_14h38.07.821,t1_Paradigm,2021.1.4,59.98431682208415,
S,left,Pretarget,0,36,36,36,3427.369196788757,3429.3689189731085,None,0,3,,M01A11,2022-12-09_14h38.07.821,t1_Paradigm,2021.1.4,59.98431682208415,
W,left,Distractor,0,37,37,37,3430.868517808587,3432.867805304486,left,1,3,0.7664969082543394,M01A11,2022-12-09_14h38.07.821,t1_Paradigm,2021.1.4,59.98431682208415,
Q,right,Target,0,38,38,38,3434.3680691651825,3436.369610304202,right,1,3,1.0452140158886323,M01A11,2022-12-09_14h38.07.821,t1_Paradigm,2021.1.4,59.98431682208415,
S,right,Target,0,39,39,39,3437.867728311685,3439.868106859576,right,1,3,1.0136476136249257,M01A11,2022-12-09_14h38.07.821,t1_Paradigm,2021.1.4,59.98431682208415,
T,left,Distractor,0,40,40,40,3441.366900799607,3443.368283461794,left,1,3,1.1796001187030924,M01A11,2022-12-09_14h38.07.821,t1_Paradigm,2021.1.4,59.98431682208415,
G,left,Distractor,0,41,41,41,3444.8661926263303,3446.8666305228253,left,1,3,1.1641983526787953,M01A11,2022-12-09_14h38.07.821,t1_Paradigm,2021.1.4,59.98431682208415,
D,left,Distractor,0,42,42,42,3448.3656477419427,3450.3668244484143,left,1,3,1.1959312518592924,M01A11,2022-12-09_14h38.07.821,t1_Paradigm,2021.1.4,59.98431682208415,
S,left,Lure,0,43,43,43,3451.8650688524067,3453.866806323029,None,0,3,,M01A11,2022-12-09_14h38.07.821,t1_Paradigm,2021.1.4,59.98431682208415,
Z,left,Pretarget,0,44,44,44,3455.364582995826,3457.3655903181498,left,1,3,0.840324332122691,M01A11,2022-12-09_14h38.07.821,t1_Paradigm,2021.1.4,59.98431682208415,
J,left,Distractor,0,45,45,45,3458.864073078992,3460.8660598137794,left,1,3,0.6804324428376276,M01A11,2022-12-09_14h38.07.821,t1_Paradigm,2021.1.4,59.98431682208415,
M,left,Pretarget,0,46,46,46,3462.363294970608,3464.3703706079978,left,1,3,1.033821007804363,M01A11,2022-12-09_14h38.07.821,t1_Paradigm,2021.1.4,59.98431682208415,
Z,right,Target,0,47,47,47,3465.8629066382273,3467.8644606093585,right,1,3,0.9408887855242938,M01A11,2022-12-09_14h38.07.821,t1_Paradigm,2021.1.4,59.98431682208415,
P,left,Distractor,0,48,48,48,3469.3622173923504,3471.3638236544357,left,1,3,0.8262891881167889,M01A11,2022-12-09_14h38.07.821,t1_Paradigm,2021.1.4,59.98431682208415,
M,right,Target,0,49,49,49,3472.8617225532653,3474.8625922509964,left,0,3,0.8428573949058773,M01A11,2022-12-09_14h38.07.821,t1_Paradigm,2021.1.4,59.98431682208415,
K,left,Distractor,0,50,50,50,3476.361153608639,3478.3624746765854,left,1,3,0.7725738850131165,M01A11,2022-12-09_14h38.07.821,t1_Paradigm,2021.1.4,59.98431682208415,
Y,left,Distractor,0,51,51,51,3479.860378708283,3481.86227690136,left,1,3,1.0130611852073343,M01A11,2022-12-09_14h38.07.821,t1_Paradigm,2021.1.4,59.98431682208415,
X,left,Distractor,0,52,52,52,3483.359857884134,3485.361125057141,left,1,3,0.9321475374308648,M01A11,2022-12-09_14h38.07.821,t1_Paradigm,2021.1.4,59.98431682208415,
F,left,Pretarget,0,53,53,53,3486.8593367391877,3488.8605041423725,left,1,3,0.9564028326858534,M01A11,2022-12-09_14h38.07.821,t1_Paradigm,2021.1.4,59.98431682208415,
M,left,Lure,0,54,54,54,3490.3588152734446,3492.360055819765,left,1,3,1.0537563659454463,M01A11,2022-12-09_14h38.07.821,t1_Paradigm,2021.1.4,59.98431682208415,
V,left,Distractor,0,55,55,55,3493.8747423548484,3495.8759132868727,left,1,3,1.1473151170503115,M01A11,2022-12-09_14h38.07.821,t1_Paradigm,2021.1.4,59.98431682208415,
F,right,Target,0,56,56,56,3497.37439059405,3499.375172391665,right,1,3,1.016587775782682,M01A11,2022-12-09_14h38.07.821,t1_Paradigm,2021.1.4,59.98431682208415,
S,left,Distractor,0,57,57,57,3500.873781869799,3502.8750551380654,left,1,3,1.0571363494091202,M01A11,2022-12-09_14h38.07.821,t1_Paradigm,2021.1.4,59.98431682208415,
D,left,Distractor,0,58,58,58,3504.3732344189775,3506.3748025054665,left,1,3,0.7466844177833991,M01A11,2022-12-09_14h38.07.821,t1_Paradigm,2021.1.4,59.98431682208415,
F,right,Target,0,59,59,59,3507.8725445315067,3509.8741042771144,right,1,3,0.8282765645126346,M01A11,2022-12-09_14h38.07.821,t1_Paradigm,2021.1.4,59.98431682208415,
V,left,Pretarget,0,60,60,60,3511.372090434452,3513.374153841214,left,1,3,1.0438278248766437,M01A11,2022-12-09_14h38.07.821,t1_Paradigm,2021.1.4,59.98431682208415,
J,left,Distractor,0,61,61,61,3514.8721245999914,3516.8713659002096,None,0,3,,M01A11,2022-12-09_14h38.07.821,t1_Paradigm,2021.1.4,59.98431682208415,
V,left,Lure,0,62,62,62,3518.371006440124,3520.371817751642,left,1,3,1.1709384298301302,M01A11,2022-12-09_14h38.07.821,t1_Paradigm,2021.1.4,59.98431682208415,
V,right,Target,0,63,63,63,3521.870369805998,3523.8700130727375,right,1,3,1.1231727445556317,M01A11,2022-12-09_14h38.07.821,t1_Paradigm,2021.1.4,59.98431682208415,
R,left,Distractor,0,0,0,0,3653.519787628218,3655.5151885922387,None,0,4,,M01A11,2022-12-09_14h38.07.821,t1_Paradigm,2021.1.4,59.98431682208415,
F,left,Distractor,0,1,1,1,3657.0149106161844,3659.0157379678712,None,0,4,,M01A11,2022-12-09_14h38.07.821,t1_Paradigm,2021.1.4,59.98431682208415,
P,left,Pretarget,0,2,2,2,3660.5142611499177,3662.5154862976924,None,0,4,,M01A11,2022-12-09_14h38.07.821,t1_Paradigm,2021.1.4,59.98431682208415,
H,left,Distractor,0,3,3,3,3664.0136594833457,3666.014266443177,None,0,4,,M01A11,2022-12-09_14h38.07.821,t1_Paradigm,2021.1.4,59.98431682208415,
Z,left,Distractor,0,4,4,4,3667.513151170526,3669.5143031751504,left,1,4,0.7401535043754848,M01A11,2022-12-09_14h38.07.821,t1_Paradigm,2021.1.4,59.98431682208415,
T,left,Distractor,0,5,5,5,3671.0125456543174,3673.013452244413,left,1,4,1.2789567476866068,M01A11,2022-12-09_14h38.07.821,t1_Paradigm,2021.1.4,59.98431682208415,
P,right,Target,0,6,6,6,3674.511971897635,3676.5136477740307,right,1,4,1.1434282643749611,M01A11,2022-12-09_14h38.07.821,t1_Paradigm,2021.1.4,59.98431682208415,
G,left,Distractor,0,7,7,7,3678.0112515338406,3680.013006007037,left,1,4,0.85325110075064,M01A11,2022-12-09_14h38.07.821,t1_Paradigm,2021.1.4,59.98431682208415,
L,left,Distractor,0,8,8,8,3681.5107717725186,3683.5116065026814,None,0,4,,M01A11,2022-12-09_14h38.07.821,t1_Paradigm,2021.1.4,59.98431682208415,
P,left,Lure,0,9,9,9,3685.0101300055394,3687.0111633129272,right,0,4,1.2082183387101395,M01A11,2022-12-09_14h38.07.821,t1_Paradigm,2021.1.4,59.98431682208415,
Q,left,Pretarget,0,10,10,10,3688.509630033601,3690.510641526387,left,1,4,0.7063389126415132,M01A11,2022-12-09_14h38.07.821,t1_Paradigm,2021.1.4,59.98431682208415,
D,left,Distractor,0,11,11,11,3692.0090745627094,3694.0112656491838,left,1,4,0.8439080256939633,M01A11,2022-12-09_14h38.07.821,t1_Paradigm,2021.1.4,59.98431682208415,
M,left,Pretarget,0,12,12,12,3695.508459422388,3697.510141394043,left,1,4,0.7176241308334284,M01A11,2022-12-09_14h38.07.821,t1_Paradigm,2021.1.4,59.98431682208415,
C,left,Distractor,0,13,13,13,3699.0079588088556,3701.0080877717846,left,1,4,0.9719553762552096,M01A11,2022-12-09_14h38.07.821,t1_Paradigm,2021.1.4,59.98431682208415,
Q,right,Target,0,14,14,14,3702.507432851853,3704.508953459459,right,1,4,1.1906967045506462,M01A11,2022-12-09_14h38.07.821,t1_Paradigm,2021.1.4,59.98431682208415,
R,left,Distractor,0,15,15,15,3706.0069049700396,3708.0074522604555,left,1,4,1.105771090820781,M01A11,2022-12-09_14h38.07.821,t1_Paradigm,2021.1.4,59.98431682208415,
M,right,Target,0,16,16,16,3709.5061727365246,3711.5074136036565,left,0,4,0.8686435634881491,M01A11,2022-12-09_14h38.07.821,t1_Paradigm,2021.1.4,59.98431682208415,
S,left,Distractor,0,17,17,17,3713.005667631747,3715.0065607481083,left,1,4,1.4561331975273788,M01A11,2022-12-09_14h38.07.821,t1_Paradigm,2021.1.4,59.98431682208415,
Z,left,Distractor,0,18,18,18,3716.505167659823,3718.5062879049074,None,0,4,,M01A11,2022-12-09_14h38.07.821,t1_Paradigm,2021.1.4,59.98431682208415,
L,left,Pretarget,0,19,19,19,3720.0043670952,3722.005366076657,left,1,4,1.3496082189813023,M01A11,2022-12-09_14h38.07.821,t1_Paradigm,2021.1.4,59.98431682208415,
M,right,Target,0,20,20,20,3723.503933208747,3725.505879522316,right,1,4,0.9733906501933234,M01A11,2022-12-09_14h38.07.821,t1_Paradigm,2021.1.4,59.98431682208415,
P,left,Distractor,0,21,21,21,3727.0033334670006,3729.0044161781116,left,1,4,0.8676747375429841,M01A11,2022-12-09_14h38.07.821,t1_Paradigm,2021.1.4,59.98431682208415,
F,left,Distractor,0,22,22,22,3730.5026862463565,3732.5021302942623,left,1,4,0.6984830816363683,M01A11,2022-12-09_14h38.07.821,t1_Paradigm,2021.1.4,59.98431682208415,
L,right,Target,0,23,23,23,3734.001362772382,3736.0043112754356,right,1,4,0.9562360149866436,M01A11,2022-12-09_14h38.07.821,t1_Paradigm,2021.1.4,59.98431682208415,
L,left,Lure,0,24,24,24,3737.501528146473,3739.5011816789192,left,1,4,1.4440283269213978,M01A11,2022-12-09_14h38.07.821,t1_Paradigm,2021.1.4,59.98431682208415,
V,left,Pretarget,0,25,25,25,3741.0009396328387,3743.0021240385977,left,1,4,1.0184166753460886,M01A11,2022-12-09_14h38.07.821,t1_Paradigm,2021.1.4,59.98431682208415,
Z,left,Distractor,0,26,26,26,3744.5003857659613,3746.501525259242,left,1,4,1.0101033788669156,M01A11,2022-12-09_14h38.07.821,t1_Paradigm,2021.1.4,59.98431682208415,
H,left,Distractor,0,27,27,27,3747.999899909366,3750.00113756847,left,1,4,1.0057853665639414,M01A11,2022-12-09_14h38.07.821,t1_Paradigm,2021.1.4,59.98431682208415,
X,left,Distractor,0,28,28,28,3751.515865807989,3753.5177893445216,left,1,4,1.008791293395916,M01A11,2022-12-09_14h38.07.821,t1_Paradigm,2021.1.4,59.98431682208415,
V,right,Target,0,29,29,29,3755.0152898056695,3757.0162778798112,right,1,4,1.0013919654884376,M01A11,2022-12-09_14h38.07.821,t1_Paradigm,2021.1.4,59.98431682208415,
C,left,Distractor,0,30,30,30,3758.5148299341527,3760.5160650268226,left,1,4,0.7561997642187634,M01A11,2022-12-09_14h38.07.821,t1_Paradigm,2021.1.4,59.98431682208415,
S,left,Pretarget,0,31,31,31,3762.013561638334,3764.015205434407,left,1,4,0.9441882473620353,M01A11,2022-12-09_14h38.07.821,t1_Paradigm,2021.1.4,59.98431682208415,
D,left,Distractor,0,32,32,32,3765.5135752724746,3767.513011300296,left,1,4,0.7295076471491484,M01A11,2022-12-09_14h38.07.821,t1_Paradigm,2021.1.4,59.98431682208415,
V,left,Distractor,0,33,33,33,3769.012950828881,3771.0120785647305,left,1,4,0.8357913816289511,M01A11,2022-12-09_14h38.07.821,t1_Paradigm,2021.1.4,59.98431682208415,
R,left,Distractor,0,34,34,34,3772.5123212524195,3774.5133151010086,left,1,4,1.0540973798342748,M01A11,2022-12-09_14h38.07.821,t1_Paradigm,2021.1.4,59.98431682208415,
S,right,Target,0,35,35,35,3776.0120153664757,3778.0129675106436,right,1,4,0.9274727918673307,M01A11,2022-12-09_14h38.07.821,t1_Paradigm,2021.1.4,59.98431682208415,
Y,left,Distractor,0,36,36,36,3779.5114323064918,3781.5117755660176,left,1,4,0.8054494855023222,M01A11,2022-12-09_14h38.07.821,t1_Paradigm,2021.1.4,59.98431682208415,
N,left,Pretarget,0,37,37,37,3783.0108290359058,3785.011941581717,left,1,4,0.832927570634638,M01A11,2022-12-09_14h38.07.821,t1_Paradigm,2021.1.4,59.98431682208415,
Z,left,Pretarget,0,38,38,38,3786.5101269579027,3788.509921002187,left,1,4,1.1562603960337583,M01A11,2022-12-09_14h38.07.821,t1_Paradigm,2021.1.4,59.98431682208415,
P,left,Pretarget,0,39,39,39,3790.0099163505365,3792.0114610183955,left,1,4,1.1495052411191864,M01A11,2022-12-09_14h38.07.821,t1_Paradigm,2021.1.4,59.98431682208415,
M,left,Distractor,0,40,40,40,3793.5090593245404,3795.5094362684176,left,1,4,1.155373054134543,M01A11,2022-12-09_14h38.07.821,t1_Paradigm,2021.1.4,59.98431682208415,
N,right,Target,0,41,41,41,3797.00856448547,3799.0084082542744,right,1,4,1.1267760071204975,M01A11,2022-12-09_14h38.07.821,t1_Paradigm,2021.1.4,59.98431682208415,
Z,right,Target,0,42,42,42,3800.5080414156982,3802.5091764177487,right,1,4,1.0519011605065316,M01A11,2022-12-09_14h38.07.821,t1_Paradigm,2021.1.4,59.98431682208415,
P,right,Target,0,43,43,43,3804.0072617033,3806.0065986029076,left,0,4,0.9066180115041789,M01A11,2022-12-09_14h38.07.821,t1_Paradigm,2021.1.4,59.98431682208415,
X,left,Pretarget,0,44,44,44,3807.5067575609282,3809.5081556216755,left,1,4,0.9699670374684501,M01A11,2022-12-09_14h38.07.821,t1_Paradigm,2021.1.4,59.98431682208415,
Z,left,Lure,0,45,45,45,3811.005726659554,3813.0055364231957,left,1,4,1.0498576435347786,M01A11,2022-12-09_14h38.07.821,t1_Paradigm,2021.1.4,59.98431682208415,
R,left,Pretarget,0,46,46,46,3814.505540112441,3816.50628116804,left,1,4,0.9988261807447998,M01A11,2022-12-09_14h38.07.821,t1_Paradigm,2021.1.4,59.98431682208415,
K,left,Distractor,0,47,47,47,3818.005292933507,3820.00672179136,left,1,4,0.7815887783071958,M01A11,2022-12-09_14h38.07.821,t1_Paradigm,2021.1.4,59.98431682208415,
X,right,Target,0,48,48,48,3821.504435586714,3823.5067832251952,left,0,4,1.2134714926069137,M01A11,2022-12-09_14h38.07.821,t1_Paradigm,2021.1.4,59.98431682208415,
B,left,Distractor,0,49,49,49,3825.003872737332,3827.0059130462614,left,1,4,1.0338607874145964,M01A11,2022-12-09_14h38.07.821,t1_Paradigm,2021.1.4,59.98431682208415,
R,right,Target,0,50,50,50,3828.503336193826,3830.505109594422,right,1,4,1.017932262388058,M01A11,2022-12-09_14h38.07.821,t1_Paradigm,2021.1.4,59.98431682208415,
Y,left,Pretarget,0,51,51,51,3832.002877605526,3834.004813974185,left,1,4,0.8827258655655896,M01A11,2022-12-09_14h38.07.821,t1_Paradigm,2021.1.4,59.98431682208415,
W,left,Pretarget,0,52,52,52,3835.5020917978545,3837.503488254588,left,1,4,0.9447063446859829,M01A11,2022-12-09_14h38.07.821,t1_Paradigm,2021.1.4,59.98431682208415,
Z,left,Distractor,0,53,53,53,3839.0016880669136,3841.003664215197,left,1,4,1.3274496940284735,M01A11,2022-12-09_14h38.07.821,t1_Paradigm,2021.1.4,59.98431682208415,
Q,left,Distractor,0,54,54,54,3842.5009802144486,3844.501921772113,left,1,4,1.1161554933496518,M01A11,2022-12-09_14h38.07.821,t1_Paradigm,2021.1.4,59.98431682208415,
Y,right,Target,0,55,55,55,3846.0005290046247,3847.9998338238947,left,0,4,1.232088670032681,M01A11,2022-12-09_14h38.07.821,t1_Paradigm,2021.1.4,59.98431682208415,
W,right,Target,0,56,56,56,3849.499800620746,3851.5014113740763,right,1,4,1.294814375200076,M01A11,2022-12-09_14h38.07.821,t1_Paradigm,2021.1.4,59.98431682208415,
H,left,Pretarget,0,57,57,57,3852.9993821328535,3855.000187028316,None,0,4,,M01A11,2022-12-09_14h38.07.821,t1_Paradigm,2021.1.4,59.98431682208415,
M,left,Distractor,0,58,58,58,3856.5152492240595,3858.517213181811,left,1,4,0.8610270517383469,M01A11,2022-12-09_14h38.07.821,t1_Paradigm,2021.1.4,59.98431682208415,
R,left,Pretarget,0,59,59,59,3860.014834264992,3862.0165688483976,right,0,4,1.2486687465425348,M01A11,2022-12-09_14h38.07.821,t1_Paradigm,2021.1.4,59.98431682208415,
J,left,Distractor,0,60,60,60,3863.5142338816368,3865.515668193155,left,1,4,0.7792453102592845,M01A11,2022-12-09_14h38.07.821,t1_Paradigm,2021.1.4,59.98431682208415,
H,right,Target,0,61,61,61,3867.0137627820077,3869.0150841707655,left,0,4,0.7547259938874049,M01A11,2022-12-09_14h38.07.821,t1_Paradigm,2021.1.4,59.98431682208415,
Z,left,Distractor,0,62,62,62,3870.513137375994,3872.513641999569,left,1,4,0.46961238942458294,M01A11,2022-12-09_14h38.07.821,t1_Paradigm,2021.1.4,59.98431682208415,
R,right,Target,0,63,63,63,3874.0128382269177,3876.014628309291,right,1,4,0.7574938846955774,M01A11,2022-12-09_14h38.07.821,t1_Paradigm,2021.1.4,59.98431682208415,
J,left,Pretarget,0,0,0,0,3904.1380939472438,3906.1257035617164,None,0,4,,M01A11,2022-12-09_14h38.07.821,t1_Paradigm,2021.1.4,59.98431682208415,
G,left,Pretarget,0,1,1,1,3907.6236454481987,3909.624890164967,None,0,4,,M01A11,2022-12-09_14h38.07.821,t1_Paradigm,2021.1.4,59.98431682208415,
Z,left,Distractor,0,2,2,2,3911.1231560627784,3913.12485824505,None,0,4,,M01A11,2022-12-09_14h38.07.821,t1_Paradigm,2021.1.4,59.98431682208415,
F,left,Distractor,0,3,3,3,3914.6225604914653,3916.6247766006127,None,0,4,,M01A11,2022-12-09_14h38.07.821,t1_Paradigm,2021.1.4,59.98431682208415,
J,right,Target,0,4,4,4,3918.1222035978135,3920.1211042049254,right,1,4,0.8888913840200985,M01A11,2022-12-09_14h38.07.821,t1_Paradigm,2021.1.4,59.98431682208415,
G,right,Target,0,5,5,5,3921.6214341511077,3923.6210334678035,right,1,4,0.8882901986653451,M01A11,2022-12-09_14h38.07.821,t1_Paradigm,2021.1.4,59.98431682208415,
H,left,Distractor,0,6,6,6,3925.120820294018,3927.122254605536,left,1,4,0.7678609638533089,M01A11,2022-12-09_14h38.07.821,t1_Paradigm,2021.1.4,59.98431682208415,
P,left,Distractor,0,7,7,7,3928.620241404482,3930.620083890055,left,1,4,1.2224039394641295,M01A11,2022-12-09_14h38.07.821,t1_Paradigm,2021.1.4,59.98431682208415,
G,left,Lure,0,8,8,8,3932.119629793,3934.1212241853646,left,1,4,1.0900510879146168,M01A11,2022-12-09_14h38.07.821,t1_Paradigm,2021.1.4,59.98431682208415,
S,left,Distractor,0,9,9,9,3935.619116347327,3937.6206927747116,left,1,4,0.853185977684916,M01A11,2022-12-09_14h38.07.821,t1_Paradigm,2021.1.4,59.98431682208415,
R,left,Pretarget,0,10,10,10,3939.118552856351,3941.1175638198038,left,1,4,0.8597082293999847,M01A11,2022-12-09_14h38.07.821,t1_Paradigm,2021.1.4,59.98431682208415,
T,left,Pretarget,0,11,11,11,3942.618211361245,3944.6198375131353,left,1,4,0.7017138915834948,M01A11,2022-12-09_14h38.07.821,t1_Paradigm,2021.1.4,59.98431682208415,
X,left,Distractor,0,12,12,12,3946.117392831642,3948.116519605086,left,1,4,0.6922963901597541,M01A11,2022-12-09_14h38.07.821,t1_Paradigm,2021.1.4,59.98431682208415,
F,left,Pretarget,0,13,13,13,3949.6168084884557,3951.6182745594997,left,1,4,0.8366726282547461,M01A11,2022-12-09_14h38.07.821,t1_Paradigm,2021.1.4,59.98431682208415,
R,right,Target,0,14,14,14,3953.116194952163,3955.1185050566564,left,0,4,0.9499646314361598,M01A11,2022-12-09_14h38.07.821,t1_Paradigm,2021.1.4,59.98431682208415,
T,right,Target,0,15,15,15,3956.615910239241,3958.6147569513996,left,0,4,1.0263029826601269,M01A11,2022-12-09_14h38.07.821,t1_Paradigm,2021.1.4,59.98431682208415,
C,left,Distractor,0,16,16,16,3960.1152546777157,3962.114687176683,left,1,4,0.7969886195060099,M01A11,2022-12-09_14h38.07.821,t1_Paradigm,2021.1.4,59.98431682208415,
F,right,Target,0,17,17,17,3963.614719096615,3965.6155624884705,left,0,4,0.6356450953171588,M01A11,2022-12-09_14h38.07.821,t1_Paradigm,2021.1.4,59.98431682208415,
M,left,Distractor,0,18,18,18,3967.114087274531,3969.1155552704004,left,1,4,0.7086698693601647,M01A11,2022-12-09_14h38.07.821,t1_Paradigm,2021.1.4,59.98431682208415,
N,left,Distractor,0,19,19,19,3970.6133909709897,3972.615271840681,left,1,4,0.7079904079873813,M01A11,2022-12-09_14h38.07.821,t1_Paradigm,2021.1.4,59.98431682208415,
R,left,Lure,0,20,20,20,3974.1129574053484,3976.113188062911,left,1,4,1.0922566105437,M01A11,2022-12-09_14h38.07.821,t1_Paradigm,2021.1.4,59.98431682208415,
F,right,Target,0,21,21,21,3977.612379478218,3979.6144451306027,right,1,4,1.009643026132835,M01A11,2022-12-09_14h38.07.821,t1_Paradigm,2021.1.4,59.98431682208415,
P,left,Distractor,0,22,22,22,3981.1118849599443,3983.113188383708,left,1,4,0.8708343291509664,M01A11,2022-12-09_14h38.07.821,t1_Paradigm,2021.1.4,59.98431682208415,
L,left,Pretarget,0,23,23,23,3984.611212075033,3986.6121991867694,left,1,4,0.8468469046492828,M01A11,2022-12-09_14h38.07.821,t1_Paradigm,2021.1.4,59.98431682208415,
T,left,Distractor,0,24,24,24,3988.11069959178,3990.1126301859913,left,1,4,1.0695860835548956,M01A11,2022-12-09_14h38.07.821,t1_Paradigm,2021.1.4,59.98431682208415,
F,left,Distractor,0,25,25,25,3991.6099805112026,3993.6117815008765,right,0,4,1.4126794292969862,M01A11,2022-12-09_14h38.07.821,t1_Paradigm,2021.1.4,59.98431682208415,
V,left,Distractor,0,26,26,26,3995.1092739419546,3997.1088405367045,left,1,4,0.7007004739862168,M01A11,2022-12-09_14h38.07.821,t1_Paradigm,2021.1.4,59.98431682208415,
L,right,Target,0,27,27,27,3998.608798030269,4000.6101434792654,left,0,4,0.6373405407066457,M01A11,2022-12-09_14h38.07.821,t1_Paradigm,2021.1.4,59.98431682208415,
S,left,Pretarget,0,28,28,28,4002.1250529726385,4004.126559464901,left,1,4,0.7344999879715033,M01A11,2022-12-09_14h38.07.821,t1_Paradigm,2021.1.4,59.98431682208415,
W,left,Distractor,0,29,29,29,4005.6243524986494,4007.624285129961,left,1,4,0.8099028768046992,M01A11,2022-12-09_14h38.07.821,t1_Paradigm,2021.1.4,59.98431682208415,
Q,left,Distractor,0,30,30,30,4009.1238897399016,4011.1254847738746,left,1,4,0.7264542414341122,M01A11,2022-12-09_14h38.07.821,t1_Paradigm,2021.1.4,59.98431682208415,
L,right,Target,0,31,31,31,4012.6232409152435,4014.625051208219,left,0,4,0.5996313970244955,M01A11,2022-12-09_14h38.07.821,t1_Paradigm,2021.1.4,59.98431682208415,
S,right,Target,0,32,32,32,4016.1225718799833,4018.1252537955006,left,0,4,0.692777915901388,M01A11,2022-12-09_14h38.07.821,t1_Paradigm,2021.1.4,59.98431682208415,
Z,left,Pretarget,0,33,33,33,4019.622129331852,4021.623544074362,left,1,4,1.0360043950058753,M01A11,2022-12-09_14h38.07.821,t1_Paradigm,2021.1.4,59.98431682208415,
F,left,Distractor,0,34,34,34,4023.1215161163564,4025.122425593683,left,1,4,1.0445358377328375,M01A11,2022-12-09_14h38.07.821,t1_Paradigm,2021.1.4,59.98431682208415,
V,left,Distractor,0,35,35,35,4026.6208464394877,4028.6220950058923,left,1,4,0.9606249248172389,M01A11,2022-12-09_14h38.07.821,t1_Paradigm,2021.1.4,59.98431682208415,
M,left,Distractor,0,36,36,36,4030.1204606735264,4032.122054103471,left,1,4,1.1285827712563332,M01A11,2022-12-09_14h38.07.821,t1_Paradigm,2021.1.4,59.98431682208415,
Z,right,Target,0,37,37,37,4033.6198012623645,4035.6211537690397,right,1,4,0.8881131152447779,M01A11,2022-12-09_14h38.07.821,t1_Paradigm,2021.1.4,59.98431682208415,
H,left,Pretarget,0,38,38,38,4037.1194308949634,4039.1202203918656,left,1,4,0.8675217143609188,M01A11,2022-12-09_14h38.07.821,t1_Paradigm,2021.1.4,59.98431682208415,
L,left,Distractor,0,39,39,39,4040.6186184606195,4042.619234723752,left,1,4,1.222934868914308,M01A11,2022-12-09_14h38.07.821,t1_Paradigm,2021.1.4,59.98431682208415,
G,left,Distractor,0,40,40,40,4044.11801903967,4046.1173629969417,left,1,4,0.8243627643532818,M01A11,2022-12-09_14h38.07.821,t1_Paradigm,2021.1.4,59.98431682208415,
K,left,Distractor,0,41,41,41,4047.617626857653,4049.6194897623645,left,1,4,0.6750265865703113,M01A11,2022-12-09_14h38.07.821,t1_Paradigm,2021.1.4,59.98431682208415,
H,right,Target,0,42,42,42,4051.116621299734,4053.1186324155715,right,1,4,1.0265313946147216,M01A11,2022-12-09_14h38.07.821,t1_Paradigm,2021.1.4,59.98431682208415,
B,left,Distractor,0,43,43,43,4054.6164357150265,4056.615640443677,left,1,4,0.8167000569519587,M01A11,2022-12-09_14h38.07.821,t1_Paradigm,2021.1.4,59.98431682208415,
Z,left,Distractor,0,44,44,44,4058.1157730958366,4060.1172911370086,left,1,4,0.9770712263562018,M01A11,2022-12-09_14h38.07.821,t1_Paradigm,2021.1.4,59.98431682208415,
T,left,Pretarget,0,45,45,45,4061.6151958103146,4063.616741761376,left,1,4,0.8787989124830347,M01A11,2022-12-09_14h38.07.821,t1_Paradigm,2021.1.4,59.98431682208415,
H,right,Target,0,46,46,46,4065.114794645793,4067.116214841968,left,0,4,1.0702427678916138,M01A11,2022-12-09_14h38.07.821,t1_Paradigm,2021.1.4,59.98431682208415,
F,left,Distractor,0,47,47,47,4068.6139796450298,4070.615758499276,left,1,4,0.7519738224509638,M01A11,2022-12-09_14h38.07.821,t1_Paradigm,2021.1.4,59.98431682208415,
R,left,Distractor,0,48,48,48,4072.1135919542576,4074.114622374429,left,1,4,0.7319775116920937,M01A11,2022-12-09_14h38.07.821,t1_Paradigm,2021.1.4,59.98431682208415,
T,right,Target,0,49,49,49,4075.612979701167,4077.6123198088026,left,0,4,1.4105095158301992,M01A11,2022-12-09_14h38.07.821,t1_Paradigm,2021.1.4,59.98431682208415,
H,right,Target,0,50,50,50,4079.1123587863985,4081.114344237969,right,1,4,0.8450667671859264,M01A11,2022-12-09_14h38.07.821,t1_Paradigm,2021.1.4,59.98431682208415,
Y,left,Pretarget,0,51,51,51,4082.6118328294106,4084.614127535344,left,1,4,0.7338012784020975,M01A11,2022-12-09_14h38.07.821,t1_Paradigm,2021.1.4,59.98431682208415,
H,left,Distractor,0,52,52,52,4086.1109873523237,4088.113215331192,left,1,4,1.064646354483557,M01A11,2022-12-09_14h38.07.821,t1_Paradigm,2021.1.4,59.98431682208415,
S,left,Distractor,0,53,53,53,4089.6111668417725,4091.61186875937,left,1,4,0.6936877140396973,M01A11,2022-12-09_14h38.07.821,t1_Paradigm,2021.1.4,59.98431682208415,
Q,left,Distractor,0,54,54,54,4093.110218386835,4095.1102007426525,left,1,4,0.9555870299227536,M01A11,2022-12-09_14h38.07.821,t1_Paradigm,2021.1.4,59.98431682208415,
Y,right,Target,0,55,55,55,4096.60946530111,4098.610722850019,right,1,4,0.9501766824250808,M01A11,2022-12-09_14h38.07.821,t1_Paradigm,2021.1.4,59.98431682208415,
R,left,Distractor,0,56,56,56,4100.125747190963,4102.126642873758,left,1,4,1.0719847297586966,M01A11,2022-12-09_14h38.07.821,t1_Paradigm,2021.1.4,59.98431682208415,
H,left,Pretarget,0,57,57,57,4103.6252956603275,4105.6257852061535,None,0,4,,M01A11,2022-12-09_14h38.07.821,t1_Paradigm,2021.1.4,59.98431682208415,
J,left,Distractor,0,58,58,58,4107.124331165236,4109.12562304009,left,1,4,0.7210060391225852,M01A11,2022-12-09_14h38.07.821,t1_Paradigm,2021.1.4,59.98431682208415,
V,left,Distractor,0,59,59,59,4110.624007314313,4112.625448041901,left,1,4,0.8795332312001847,M01A11,2022-12-09_14h38.07.821,t1_Paradigm,2021.1.4,59.98431682208415,
Y,left,Lure,0,60,60,60,4114.123421687909,4116.1245647100295,None,0,4,,M01A11,2022-12-09_14h38.07.821,t1_Paradigm,2021.1.4,59.98431682208415,
H,right,Target,0,61,61,61,4117.622698116087,4119.624460288556,left,0,4,0.7033746902161511,M01A11,2022-12-09_14h38.07.821,t1_Paradigm,2021.1.4,59.98431682208415,
L,left,Distractor,0,62,62,62,4121.122237602962,4123.123191351144,left,1,4,0.4391376807616325,M01A11,2022-12-09_14h38.07.821,t1_Paradigm,2021.1.4,59.98431682208415,
P,left,Distractor,0,63,63,63,4124.621705871497,4126.622659940491,left,1,4,0.675308572666836,M01A11,2022-12-09_14h38.07.821,t1_Paradigm,2021.1.4,59.98431682208415,
