Letter,CorrAnswer,Stimulus,nback_run.thisRepN,nback_run.thisTrialN,nback_run.thisN,nback_run.thisIndex,fixcross.started,nback_trial.started,trial_resp.keys,trial_resp.corr,currentlevel,trial_resp.rt,Participant,date,expName,psychopyVersion,frameRate,
H,left,Distractor,0,0,0,0,221.13841307765688,223.07746301076259,None,0,1,,M01L12,2022-11-23_12h15.07.768,t1_Paradigm,2021.1.4,60.003907618336584,
Q,left,Pretarget,0,1,1,1,224.57954260741826,226.57960901336628,left,1,1,0.6950847734406125,M01L12,2022-11-23_12h15.07.768,t1_Paradigm,2021.1.4,60.003907618336584,
Q,right,Target,0,2,2,2,228.07746429397957,230.07772991774254,right,1,1,0.6527684700849932,M01L12,2022-11-23_12h15.07.768,t1_Paradigm,2021.1.4,60.003907618336584,
T,left,Distractor,0,3,3,3,231.57730341196293,233.57968760977383,left,1,1,0.6069656944309827,M01L12,2022-11-23_12h15.07.768,t1_Paradigm,2021.1.4,60.003907618336584,
Q,left,Lure,0,4,4,4,235.07735618381412,237.077306138759,left,1,1,0.6291555441857781,M01L12,2022-11-23_12h15.07.768,t1_Paradigm,2021.1.4,60.003907618336584,
L,left,Distractor,0,5,5,5,238.57708077560528,240.5783877214999,left,1,1,0.5840710434422363,M01L12,2022-11-23_12h15.07.768,t1_Paradigm,2021.1.4,60.003907618336584,
V,left,Pretarget,0,6,6,6,242.0777514114452,244.07940835194313,left,1,1,0.6670226495480165,M01L12,2022-11-23_12h15.07.768,t1_Paradigm,2021.1.4,60.003907618336584,
V,right,Target,0,7,7,7,245.57746637918171,247.57743205339648,right,1,1,0.5449768718099222,M01L12,2022-11-23_12h15.07.768,t1_Paradigm,2021.1.4,60.003907618336584,
K,left,Distractor,0,8,8,8,249.07753294552094,251.09037912660278,left,1,1,0.5040236546192318,M01L12,2022-11-23_12h15.07.768,t1_Paradigm,2021.1.4,60.003907618336584,
G,left,Pretarget,0,9,9,9,252.57712344222819,254.5784656763135,left,1,1,0.6801947650965303,M01L12,2022-11-23_12h15.07.768,t1_Paradigm,2021.1.4,60.003907618336584,
G,right,Target,0,10,10,10,256.0776054466842,258.0774517827085,right,1,1,0.7332017832959536,M01L12,2022-11-23_12h15.07.768,t1_Paradigm,2021.1.4,60.003907618336584,
G,right,Target,0,11,11,11,259.5775587700482,261.5775177074538,right,1,1,0.6249950676574372,M01L12,2022-11-23_12h15.07.768,t1_Paradigm,2021.1.4,60.003907618336584,
P,left,Pretarget,0,12,12,12,263.07741809854633,265.079278748075,left,1,1,0.595287872973131,M01L12,2022-11-23_12h15.07.768,t1_Paradigm,2021.1.4,60.003907618336584,
P,right,Target,0,13,13,13,266.5776392912667,268.5775363139401,right,1,1,0.665093027666444,M01L12,2022-11-23_12h15.07.768,t1_Paradigm,2021.1.4,60.003907618336584,
G,left,Lure,0,14,14,14,270.07763752687606,272.07783866950194,left,1,1,0.6205497192859184,M01L12,2022-11-23_12h15.07.768,t1_Paradigm,2021.1.4,60.003907618336584,
Y,left,Distractor,0,15,15,15,273.57751834904775,275.5791951792489,left,1,1,0.6552610988437664,M01L12,2022-11-23_12h15.07.768,t1_Paradigm,2021.1.4,60.003907618336584,
B,left,Distractor,0,16,16,16,277.07710114651127,279.07804879455944,left,1,1,0.5162208539550193,M01L12,2022-11-23_12h15.07.768,t1_Paradigm,2021.1.4,60.003907618336584,
T,left,Pretarget,0,17,17,17,280.5773723843158,282.5779347495991,left,1,1,0.7285594626737293,M01L12,2022-11-23_12h15.07.768,t1_Paradigm,2021.1.4,60.003907618336584,
T,right,Target,0,18,18,18,284.0771791013249,286.0943246660172,right,1,1,0.4120681087661069,M01L12,2022-11-23_12h15.07.768,t1_Paradigm,2021.1.4,60.003907618336584,
S,left,Distractor,0,19,19,19,287.57726267015096,289.5787582474004,left,1,1,0.7676276493875775,M01L12,2022-11-23_12h15.07.768,t1_Paradigm,2021.1.4,60.003907618336584,
T,left,Lure,0,20,20,20,291.0775647049013,293.07815433832,left,1,1,0.9483287998882588,M01L12,2022-11-23_12h15.07.768,t1_Paradigm,2021.1.4,60.003907618336584,
J,left,Distractor,0,21,21,21,294.5775818677794,296.5792317506275,left,1,1,0.5832013502076734,M01L12,2022-11-23_12h15.07.768,t1_Paradigm,2021.1.4,60.003907618336584,
P,left,Distractor,0,22,22,22,298.07755668484606,300.0774290057889,left,1,1,0.5410367859876715,M01L12,2022-11-23_12h15.07.768,t1_Paradigm,2021.1.4,60.003907618336584,
F,left,Distractor,0,23,23,23,301.57724630925804,303.5796224870428,left,1,1,0.7187727668788284,M01L12,2022-11-23_12h15.07.768,t1_Paradigm,2021.1.4,60.003907618336584,
L,left,Distractor,0,24,24,24,305.07761250433396,307.07748129646643,left,1,1,1.1889358079060912,M01L12,2022-11-23_12h15.07.768,t1_Paradigm,2021.1.4,60.003907618336584,
W,left,Pretarget,0,25,25,25,308.5771093269577,310.578452202637,left,1,1,0.5838538607349619,M01L12,2022-11-23_12h15.07.768,t1_Paradigm,2021.1.4,60.003907618336584,
W,right,Target,0,26,26,26,312.077479050844,314.0773898680054,right,1,1,0.6209959543484729,M01L12,2022-11-23_12h15.07.768,t1_Paradigm,2021.1.4,60.003907618336584,
V,left,Distractor,0,27,27,27,315.5773643642606,317.577298920718,left,1,1,0.753024116915185,M01L12,2022-11-23_12h15.07.768,t1_Paradigm,2021.1.4,60.003907618336584,
W,left,Lure,0,28,28,28,319.07695389856235,321.07719225418987,left,1,1,0.9175478820397984,M01L12,2022-11-23_12h15.07.768,t1_Paradigm,2021.1.4,60.003907618336584,
R,left,Pretarget,0,29,29,29,322.57753920115647,324.57741280531627,left,1,1,0.7131616253172979,M01L12,2022-11-23_12h15.07.768,t1_Paradigm,2021.1.4,60.003907618336584,
R,right,Target,0,30,30,30,326.0773805647332,328.0773148004082,right,1,1,0.749099429580383,M01L12,2022-11-23_12h15.07.768,t1_Paradigm,2021.1.4,60.003907618336584,
G,left,Distractor,0,31,31,31,329.5772706901771,331.57917464795173,left,1,1,0.6872071682591923,M01L12,2022-11-23_12h15.07.768,t1_Paradigm,2021.1.4,60.003907618336584,
R,left,Lure,0,32,32,32,333.0775040733861,335.0772544897045,left,1,1,0.9010291637387127,M01L12,2022-11-23_12h15.07.768,t1_Paradigm,2021.1.4,60.003907618336584,
S,left,Distractor,0,33,33,33,336.57766944661853,338.5771221590112,left,1,1,1.2093798551359214,M01L12,2022-11-23_12h15.07.768,t1_Paradigm,2021.1.4,60.003907618336584,
R,left,Lure,0,34,34,34,340.07753583273734,342.0773321237066,left,1,1,1.100981941766804,M01L12,2022-11-23_12h15.07.768,t1_Paradigm,2021.1.4,60.003907618336584,
P,left,Pretarget,0,35,35,35,343.5773871411802,345.5778924037586,left,1,1,1.2164731002994813,M01L12,2022-11-23_12h15.07.768,t1_Paradigm,2021.1.4,60.003907618336584,
P,right,Target,0,36,36,36,347.0775691961171,349.0774899581156,right,1,1,0.6929629913356621,M01L12,2022-11-23_12h15.07.768,t1_Paradigm,2021.1.4,60.003907618336584,
Y,left,Pretarget,0,37,37,37,350.57760945672635,352.5771661088511,left,1,1,0.5850828518450726,M01L12,2022-11-23_12h15.07.768,t1_Paradigm,2021.1.4,60.003907618336584,
Y,right,Target,0,38,38,38,354.07756245927885,356.07747744684457,right,1,1,0.7489537856599782,M01L12,2022-11-23_12h15.07.768,t1_Paradigm,2021.1.4,60.003907618336584,
J,left,Distractor,0,39,39,39,357.5774679831811,359.57791935111163,left,1,1,0.7204139881068841,M01L12,2022-11-23_12h15.07.768,t1_Paradigm,2021.1.4,60.003907618336584,
Y,left,Lure,0,40,40,40,361.0770985801064,363.0783506689186,left,1,1,0.8840029372659046,M01L12,2022-11-23_12h15.07.768,t1_Paradigm,2021.1.4,60.003907618336584,
T,left,Distractor,0,41,41,41,364.57751225383254,366.57664256056887,left,1,1,0.8418152753729373,M01L12,2022-11-23_12h15.07.768,t1_Paradigm,2021.1.4,60.003907618336584,
V,left,Distractor,0,42,42,42,368.0775605344679,370.07840007237974,left,1,1,1.2759962414857,M01L12,2022-11-23_12h15.07.768,t1_Paradigm,2021.1.4,60.003907618336584,
N,left,Pretarget,0,43,43,43,371.5771722040663,373.579300402198,left,1,1,0.7988900904601905,M01L12,2022-11-23_12h15.07.768,t1_Paradigm,2021.1.4,60.003907618336584,
N,right,Target,0,44,44,44,375.07696705142735,377.0773032515426,right,1,1,0.4690312528400682,M01L12,2022-11-23_12h15.07.768,t1_Paradigm,2021.1.4,60.003907618336584,
N,right,Target,0,45,45,45,378.5770560738747,380.5770586403087,right,1,1,0.665420566132525,M01L12,2022-11-23_12h15.07.768,t1_Paradigm,2021.1.4,60.003907618336584,
X,left,Distractor,0,46,46,46,382.07733597332845,384.0794946475944,left,1,1,0.6827018299663905,M01L12,2022-11-23_12h15.07.768,t1_Paradigm,2021.1.4,60.003907618336584,
Z,left,Distractor,0,47,47,47,385.57720203863573,387.5902573823696,left,1,1,0.6121966860373504,M01L12,2022-11-23_12h15.07.768,t1_Paradigm,2021.1.4,60.003907618336584,
H,left,Pretarget,0,48,48,48,389.0775188302505,391.07898104414926,left,1,1,1.0594358831294812,M01L12,2022-11-23_12h15.07.768,t1_Paradigm,2021.1.4,60.003907618336584,
H,right,Target,0,49,49,49,392.5770531866583,394.57745386791066,right,1,1,0.4729119903058745,M01L12,2022-11-23_12h15.07.768,t1_Paradigm,2021.1.4,60.003907618336584,
K,left,Distractor,0,50,50,50,396.07731415881426,398.07817807764513,left,1,1,0.5082094745012,M01L12,2022-11-23_12h15.07.768,t1_Paradigm,2021.1.4,60.003907618336584,
V,left,Pretarget,0,51,51,51,399.5769867807394,401.5773444745573,left,1,1,0.52906703503686,M01L12,2022-11-23_12h15.07.768,t1_Paradigm,2021.1.4,60.003907618336584,
V,right,Target,0,52,52,52,403.0776176371728,405.0774735972227,right,1,1,0.4208667354832869,M01L12,2022-11-23_12h15.07.768,t1_Paradigm,2021.1.4,60.003907618336584,
R,left,Distractor,0,53,53,53,406.5765841746761,408.5769989711989,left,1,1,0.6336849426443223,M01L12,2022-11-23_12h15.07.768,t1_Paradigm,2021.1.4,60.003907618336584,
V,left,Lure,0,54,54,54,410.0775428903871,412.0768711317214,left,1,1,0.6212882046820596,M01L12,2022-11-23_12h15.07.768,t1_Paradigm,2021.1.4,60.003907618336584,
Y,left,Distractor,0,55,55,55,413.57743718623533,415.5785789192887,left,1,1,0.5758084762783255,M01L12,2022-11-23_12h15.07.768,t1_Paradigm,2021.1.4,60.003907618336584,
Q,left,Distractor,0,56,56,56,417.0774896373041,419.07815305510303,left,1,1,0.5325653769541532,M01L12,2022-11-23_12h15.07.768,t1_Paradigm,2021.1.4,60.003907618336584,
Z,left,Pretarget,0,57,57,57,420.57699800879345,422.5768796329794,left,1,1,0.4415061508771032,M01L12,2022-11-23_12h15.07.768,t1_Paradigm,2021.1.4,60.003907618336584,
Z,right,Target,0,58,58,58,424.07750214857515,426.077465897979,right,1,1,0.8928041303879581,M01L12,2022-11-23_12h15.07.768,t1_Paradigm,2021.1.4,60.003907618336584,
B,left,Distractor,0,59,59,59,427.57711734698387,429.57929976057494,left,1,1,0.5909872061165515,M01L12,2022-11-23_12h15.07.768,t1_Paradigm,2021.1.4,60.003907618336584,
S,left,Pretarget,0,60,60,60,431.0771547203767,433.07748033406097,left,1,1,0.6129480035160668,M01L12,2022-11-23_12h15.07.768,t1_Paradigm,2021.1.4,60.003907618336584,
S,right,Target,0,61,61,61,434.57744648947846,436.57755203320994,right,1,1,0.6648748825537041,M01L12,2022-11-23_12h15.07.768,t1_Paradigm,2021.1.4,60.003907618336584,
T,left,Distractor,0,62,62,62,438.07745787795284,440.0771916125668,left,1,1,0.8932012828299776,M01L12,2022-11-23_12h15.07.768,t1_Paradigm,2021.1.4,60.003907618336584,
D,left,Distractor,0,63,63,63,441.57732458485407,443.5771118933626,left,1,1,0.7372416383877862,M01L12,2022-11-23_12h15.07.768,t1_Paradigm,2021.1.4,60.003907618336584,
R,left,Distractor,0,0,0,0,461.02435750648146,463.0292750748922,None,0,1,,M01L12,2022-11-23_12h15.07.768,t1_Paradigm,2021.1.4,60.003907618336584,
V,left,Distractor,0,1,1,1,464.52713131791097,466.52714543318143,left,1,1,1.0832201171142515,M01L12,2022-11-23_12h15.07.768,t1_Paradigm,2021.1.4,60.003907618336584,
N,left,Pretarget,0,2,2,2,468.02740704693133,470.0271080597886,left,1,1,0.7670344871294219,M01L12,2022-11-23_12h15.07.768,t1_Paradigm,2021.1.4,60.003907618336584,
N,right,Target,0,3,3,3,471.5270992377482,473.5270716488012,right,1,1,0.4510188820422627,M01L12,2022-11-23_12h15.07.768,t1_Paradigm,2021.1.4,60.003907618336584,
S,left,Distractor,0,4,4,4,475.0270124608942,477.02739293166087,left,1,1,0.6149719410750549,M01L12,2022-11-23_12h15.07.768,t1_Paradigm,2021.1.4,60.003907618336584,
N,left,Lure,0,5,5,5,478.52728851072607,480.526877563796,left,1,1,0.7637767464329954,M01L12,2022-11-23_12h15.07.768,t1_Paradigm,2021.1.4,60.003907618336584,
Z,left,Distractor,0,6,6,6,482.02699994962313,484.0288105541258,left,1,1,0.5412796328600962,M01L12,2022-11-23_12h15.07.768,t1_Paradigm,2021.1.4,60.003907618336584,
L,left,Pretarget,0,7,7,7,485.52692953366204,487.52891657906,left,1,1,0.5614320713793859,M01L12,2022-11-23_12h15.07.768,t1_Paradigm,2021.1.4,60.003907618336584,
L,right,Target,0,8,8,8,489.02701502729906,491.0270625059493,right,1,1,0.7592220046790317,M01L12,2022-11-23_12h15.07.768,t1_Paradigm,2021.1.4,60.003907618336584,
H,left,Distractor,0,9,9,9,492.52705881674774,494.52734112218604,left,1,1,0.6989180322852917,M01L12,2022-11-23_12h15.07.768,t1_Paradigm,2021.1.4,60.003907618336584,
L,left,Lure,0,10,10,10,496.0273768915795,498.028726504097,left,1,1,0.9735146162274759,M01L12,2022-11-23_12h15.07.768,t1_Paradigm,2021.1.4,60.003907618336584,
X,left,Pretarget,0,11,11,11,499.52712650588364,501.52755862570484,left,1,1,0.5945230818470009,M01L12,2022-11-23_12h15.07.768,t1_Paradigm,2021.1.4,60.003907618336584,
X,right,Target,0,12,12,12,503.027389082039,505.02693418529816,right,1,1,0.8392716390953865,M01L12,2022-11-23_12h15.07.768,t1_Paradigm,2021.1.4,60.003907618336584,
X,right,Target,0,13,13,13,506.5270145460963,508.52726637540036,right,1,1,0.5389316856162623,M01L12,2022-11-23_12h15.07.768,t1_Paradigm,2021.1.4,60.003907618336584,
R,left,Distractor,0,14,14,14,510.0273287713062,512.0274115381471,left,1,1,0.6867121713003144,M01L12,2022-11-23_12h15.07.768,t1_Paradigm,2021.1.4,60.003907618336584,
T,left,Distractor,0,15,15,15,513.52690643596,515.5272134431289,left,1,1,0.7549155634187628,M01L12,2022-11-23_12h15.07.768,t1_Paradigm,2021.1.4,60.003907618336584,
V,left,Pretarget,0,16,16,16,517.0273274881183,519.0274420143105,left,1,1,0.5988012925663497,M01L12,2022-11-23_12h15.07.768,t1_Paradigm,2021.1.4,60.003907618336584,
V,right,Target,0,17,17,17,520.5268714685808,522.5269417241216,right,1,1,0.9712128644168843,M01L12,2022-11-23_12h15.07.768,t1_Paradigm,2021.1.4,60.003907618336584,
N,left,Distractor,0,18,18,18,524.027280651062,526.0268158094841,left,1,1,0.7193409066239838,M01L12,2022-11-23_12h15.07.768,t1_Paradigm,2021.1.4,60.003907618336584,
B,left,Distractor,0,19,19,19,527.526919588825,529.5280305249034,left,1,1,0.674154070118675,M01L12,2022-11-23_12h15.07.768,t1_Paradigm,2021.1.4,60.003907618336584,
V,left,Lure,0,20,20,20,531.0268276791612,533.0269903255976,left,1,1,0.8391863058786839,M01L12,2022-11-23_12h15.07.768,t1_Paradigm,2021.1.4,60.003907618336584,
P,left,Distractor,0,21,21,21,534.5273173828609,536.5279939535249,left,1,1,0.6662533672060817,M01L12,2022-11-23_12h15.07.768,t1_Paradigm,2021.1.4,60.003907618336584,
K,left,Pretarget,0,22,22,22,538.0268132430792,540.0271475183836,left,1,1,1.0230463901534677,M01L12,2022-11-23_12h15.07.768,t1_Paradigm,2021.1.4,60.003907618336584,
K,right,Target,0,23,23,23,541.5269612930424,543.5269949772046,right,1,1,0.7870704746746924,M01L12,2022-11-23_12h15.07.768,t1_Paradigm,2021.1.4,60.003907618336584,
J,left,Pretarget,0,24,24,24,545.0269845511648,547.0271728617081,left,1,1,0.5348616751434747,M01L12,2022-11-23_12h15.07.768,t1_Paradigm,2021.1.4,60.003907618336584,
J,right,Target,0,25,25,25,548.5268073082552,550.5272750370495,left,0,1,0.7630180505511817,M01L12,2022-11-23_12h15.07.768,t1_Paradigm,2021.1.4,60.003907618336584,
H,left,Distractor,0,26,26,26,552.027058335545,554.0272485708992,left,1,1,0.8469907682738267,M01L12,2022-11-23_12h15.07.768,t1_Paradigm,2021.1.4,60.003907618336584,
J,left,Lure,0,27,27,27,555.5270815936383,557.5267325614695,left,1,1,0.8193479321489576,M01L12,2022-11-23_12h15.07.768,t1_Paradigm,2021.1.4,60.003907618336584,
V,left,Distractor,0,28,28,28,559.0269829471363,561.0275793173932,left,1,1,0.8863839270488825,M01L12,2022-11-23_12h15.07.768,t1_Paradigm,2021.1.4,60.003907618336584,
Z,left,Pretarget,0,29,29,29,562.5273337437538,564.5275621545152,left,1,1,0.47459363256348297,M01L12,2022-11-23_12h15.07.768,t1_Paradigm,2021.1.4,60.003907618336584,
Z,right,Target,0,30,30,30,566.0270185561385,568.026897293108,left,0,1,0.575274020753568,M01L12,2022-11-23_12h15.07.768,t1_Paradigm,2021.1.4,60.003907618336584,
T,left,Distractor,0,31,31,31,569.5270087716926,571.5268108370656,left,1,1,0.8032590880757198,M01L12,2022-11-23_12h15.07.768,t1_Paradigm,2021.1.4,60.003907618336584,
Z,left,Lure,0,32,32,32,573.026834095188,575.029028378427,left,1,1,1.285039639857132,M01L12,2022-11-23_12h15.07.768,t1_Paradigm,2021.1.4,60.003907618336584,
F,left,Distractor,0,33,33,33,576.527277924266,578.5270812728559,left,1,1,0.619039385142969,M01L12,2022-11-23_12h15.07.768,t1_Paradigm,2021.1.4,60.003907618336584,
Y,left,Pretarget,0,34,34,34,580.027189222601,582.027270706225,left,1,1,0.7027862585382536,M01L12,2022-11-23_12h15.07.768,t1_Paradigm,2021.1.4,60.003907618336584,
Y,right,Target,0,35,35,35,583.5269645010412,585.526996581204,None,0,1,,M01L12,2022-11-23_12h15.07.768,t1_Paradigm,2021.1.4,60.003907618336584,
Y,right,Target,0,36,36,36,587.0273505858204,589.0269165412174,right,1,1,0.7272181909938809,M01L12,2022-11-23_12h15.07.768,t1_Paradigm,2021.1.4,60.003907618336584,
W,left,Distractor,0,37,37,37,590.5270026764483,592.527263488184,left,1,1,0.6187513052427676,M01L12,2022-11-23_12h15.07.768,t1_Paradigm,2021.1.4,60.003907618336584,
Q,left,Distractor,0,38,38,38,594.0268081102404,596.0271946762223,left,1,1,0.6868337551422883,M01L12,2022-11-23_12h15.07.768,t1_Paradigm,2021.1.4,60.003907618336584,
P,left,Pretarget,0,39,39,39,597.526932100096,599.5267261454428,left,1,1,1.0914127494907007,M01L12,2022-11-23_12h15.07.768,t1_Paradigm,2021.1.4,60.003907618336584,
P,right,Target,0,40,40,40,601.026766406023,603.0272649317922,right,1,1,0.7428992961940821,M01L12,2022-11-23_12h15.07.768,t1_Paradigm,2021.1.4,60.003907618336584,
J,left,Distractor,0,41,41,41,604.5267777944973,606.5270742152061,left,1,1,0.8110844025795814,M01L12,2022-11-23_12h15.07.768,t1_Paradigm,2021.1.4,60.003907618336584,
P,left,Lure,0,42,42,42,608.0268097142689,610.0272604405764,right,0,1,0.7508006407006178,M01L12,2022-11-23_12h15.07.768,t1_Paradigm,2021.1.4,60.003907618336584,
L,left,Distractor,0,43,43,43,611.5268326515798,613.5283372112899,left,1,1,0.609856758848764,M01L12,2022-11-23_12h15.07.768,t1_Paradigm,2021.1.4,60.003907618336584,
Z,left,Distractor,0,44,44,44,615.027004440868,617.0283691310615,left,1,1,0.6777948479866609,M01L12,2022-11-23_12h15.07.768,t1_Paradigm,2021.1.4,60.003907618336584,
F,left,Pretarget,0,45,45,45,618.5268756389851,620.5278374023328,left,1,1,0.5542522097530309,M01L12,2022-11-23_12h15.07.768,t1_Paradigm,2021.1.4,60.003907618336584,
F,right,Target,0,46,46,46,622.0269316188933,624.0271462351957,right,1,1,0.6708876677730586,M01L12,2022-11-23_12h15.07.768,t1_Paradigm,2021.1.4,60.003907618336584,
G,left,Pretarget,0,47,47,47,625.5269888819894,627.5278271366842,left,1,1,0.6422561209765263,M01L12,2022-11-23_12h15.07.768,t1_Paradigm,2021.1.4,60.003907618336584,
G,right,Target,0,48,48,48,629.0268899146758,631.0269739647047,right,1,1,0.5030439264082815,M01L12,2022-11-23_12h15.07.768,t1_Paradigm,2021.1.4,60.003907618336584,
V,left,Distractor,0,49,49,49,632.5268711477693,634.5288318874373,left,1,1,0.537220850441372,M01L12,2022-11-23_12h15.07.768,t1_Paradigm,2021.1.4,60.003907618336584,
G,left,Lure,0,50,50,50,636.0268331327825,638.0278353171307,left,1,1,0.5104258930659853,M01L12,2022-11-23_12h15.07.768,t1_Paradigm,2021.1.4,60.003907618336584,
Q,left,Pretarget,0,51,51,51,639.5269343456894,641.5273205908888,left,1,1,0.6268149754032493,M01L12,2022-11-23_12h15.07.768,t1_Paradigm,2021.1.4,60.003907618336584,
Q,right,Target,0,52,52,52,643.0271670873044,645.0268802906212,right,1,1,0.8551169947604649,M01L12,2022-11-23_12h15.07.768,t1_Paradigm,2021.1.4,60.003907618336584,
Y,left,Distractor,0,53,53,53,646.5270331526117,648.5268458044447,left,1,1,0.8431081059970893,M01L12,2022-11-23_12h15.07.768,t1_Paradigm,2021.1.4,60.003907618336584,
V,left,Distractor,0,54,54,54,650.0269203908392,652.0270095736778,left,1,1,0.7509356982191093,M01L12,2022-11-23_12h15.07.768,t1_Paradigm,2021.1.4,60.003907618336584,
B,left,Distractor,0,55,55,55,653.5271682101011,655.5291388946061,left,1,1,0.6089716671267524,M01L12,2022-11-23_12h15.07.768,t1_Paradigm,2021.1.4,60.003907618336584,
J,left,Pretarget,0,56,56,56,657.0268292831606,659.0269803807314,left,1,1,0.7590609622420743,M01L12,2022-11-23_12h15.07.768,t1_Paradigm,2021.1.4,60.003907618336584,
J,right,Target,0,57,57,57,660.5267633584153,662.5269404409337,right,1,1,0.7152394575823564,M01L12,2022-11-23_12h15.07.768,t1_Paradigm,2021.1.4,60.003907618336584,
H,left,Distractor,0,58,58,58,664.0269409221364,666.0279254623747,left,1,1,0.590191618015524,M01L12,2022-11-23_12h15.07.768,t1_Paradigm,2021.1.4,60.003907618336584,
J,left,Lure,0,59,59,59,667.5271358091268,669.5268583157158,left,1,1,0.5792282218171749,M01L12,2022-11-23_12h15.07.768,t1_Paradigm,2021.1.4,60.003907618336584,
D,left,Pretarget,0,60,60,60,671.026817734295,673.0272883503058,left,1,1,0.9028092920780182,M01L12,2022-11-23_12h15.07.768,t1_Paradigm,2021.1.4,60.003907618336584,
D,right,Target,0,61,61,61,674.5267774736858,676.5269003407157,right,1,1,1.4190680006577168,M01L12,2022-11-23_12h15.07.768,t1_Paradigm,2021.1.4,60.003907618336584,
R,left,Distractor,0,62,62,62,678.0269216740271,680.0283810007095,left,1,1,1.245824205194367,M01L12,2022-11-23_12h15.07.768,t1_Paradigm,2021.1.4,60.003907618336584,
F,left,Distractor,0,63,63,63,681.5272262751823,683.5266687219264,left,1,1,0.6273372404684778,M01L12,2022-11-23_12h15.07.768,t1_Paradigm,2021.1.4,60.003907618336584,
F,left,Distractor,0,0,0,0,787.152484400227,789.143532109505,left,1,2,0.9467587966064457,M01L12,2022-11-23_12h15.07.768,t1_Paradigm,2021.1.4,60.003907618336584,
N,left,Pretarget,0,1,1,1,790.6436432672781,792.6446358275716,left,1,2,0.7572875707701314,M01L12,2022-11-23_12h15.07.768,t1_Paradigm,2021.1.4,60.003907618336584,
V,left,Distractor,0,2,2,2,794.1433287212858,796.1436742246442,left,1,2,0.9861160256259609,M01L12,2022-11-23_12h15.07.768,t1_Paradigm,2021.1.4,60.003907618336584,
N,right,Target,0,3,3,3,797.6436105455214,799.6431498743477,right,1,2,0.6866598806518596,M01L12,2022-11-23_12h15.07.768,t1_Paradigm,2021.1.4,60.003907618336584,
N,left,Lure,0,4,4,4,801.1433951272047,803.1436976431578,left,1,2,0.9142997653980274,M01L12,2022-11-23_12h15.07.768,t1_Paradigm,2021.1.4,60.003907618336584,
X,left,Distractor,0,5,5,5,804.6434138941113,806.6451356365287,left,1,2,0.6128629910817835,M01L12,2022-11-23_12h15.07.768,t1_Paradigm,2021.1.4,60.003907618336584,
G,left,Pretarget,0,6,6,6,808.1432895834732,810.1435750969395,left,1,2,0.6663768758589868,M01L12,2022-11-23_12h15.07.768,t1_Paradigm,2021.1.4,60.003907618336584,
H,left,Pretarget,0,7,7,7,811.6436843299016,813.643713522848,left,1,2,0.7822350314818323,M01L12,2022-11-23_12h15.07.768,t1_Paradigm,2021.1.4,60.003907618336584,
G,right,Target,0,8,8,8,815.1435718889115,817.143428169773,right,1,2,0.4665716666204389,M01L12,2022-11-23_12h15.07.768,t1_Paradigm,2021.1.4,60.003907618336584,
H,right,Target,0,9,9,9,818.6437334125512,820.6446403187874,right,1,2,0.4692570971674286,M01L12,2022-11-23_12h15.07.768,t1_Paradigm,2021.1.4,60.003907618336584,
T,left,Pretarget,0,10,10,10,822.1435494328034,824.1431910973624,left,1,2,0.3785446576657705,M01L12,2022-11-23_12h15.07.768,t1_Paradigm,2021.1.4,60.003907618336584,
K,left,Distractor,0,11,11,11,825.6434289717872,827.6436747058469,left,1,2,0.5582837240363006,M01L12,2022-11-23_12h15.07.768,t1_Paradigm,2021.1.4,60.003907618336584,
T,right,Target,0,12,12,12,829.1435564904532,831.1433011323388,right,1,2,0.6105301215138752,M01L12,2022-11-23_12h15.07.768,t1_Paradigm,2021.1.4,60.003907618336584,
T,left,Lure,0,13,13,13,832.6434116484888,834.643303217541,left,1,2,1.1586437917721923,M01L12,2022-11-23_12h15.07.768,t1_Paradigm,2021.1.4,60.003907618336584,
J,left,Distractor,0,14,14,14,836.1430387165747,838.1444569806627,left,1,2,0.5054197833815124,M01L12,2022-11-23_12h15.07.768,t1_Paradigm,2021.1.4,60.003907618336584,
Q,left,Pretarget,0,15,15,15,839.643328881677,841.6442521488061,left,1,2,0.5575667323719244,M01L12,2022-11-23_12h15.07.768,t1_Paradigm,2021.1.4,60.003907618336584,
M,left,Distractor,0,16,16,16,843.1433707462857,845.1450745238399,left,1,2,0.5927946025913116,M01L12,2022-11-23_12h15.07.768,t1_Paradigm,2021.1.4,60.003907618336584,
Q,right,Target,0,17,17,17,846.6432294331607,848.6435447811964,right,1,2,0.47038471497944556,M01L12,2022-11-23_12h15.07.768,t1_Paradigm,2021.1.4,60.003907618336584,
R,left,Distractor,0,18,18,18,850.1433944856108,852.1431407315249,left,1,2,0.4906921006622724,M01L12,2022-11-23_12h15.07.768,t1_Paradigm,2021.1.4,60.003907618336584,
W,left,Distractor,0,19,19,19,853.643608941522,855.6441068256681,left,1,2,0.5737351352581754,M01L12,2022-11-23_12h15.07.768,t1_Paradigm,2021.1.4,60.003907618336584,
C,left,Pretarget,0,20,20,20,857.1431545259838,859.1433547062043,left,1,2,1.0425267492246348,M01L12,2022-11-23_12h15.07.768,t1_Paradigm,2021.1.4,60.003907618336584,
T,left,Distractor,0,21,21,21,860.6433227864327,862.6436150367372,left,1,2,0.6143633803876583,M01L12,2022-11-23_12h15.07.768,t1_Paradigm,2021.1.4,60.003907618336584,
C,right,Target,0,22,22,22,864.1435000293422,866.144712338777,right,1,2,0.5850148418685421,M01L12,2022-11-23_12h15.07.768,t1_Paradigm,2021.1.4,60.003907618336584,
F,left,Pretarget,0,23,23,23,867.6434305757866,869.6451131804206,left,1,2,1.132670728227822,M01L12,2022-11-23_12h15.07.768,t1_Paradigm,2021.1.4,60.003907618336584,
C,right,Target,0,24,24,24,871.1435770217504,873.1436594677798,right,1,2,0.9621120425581466,M01L12,2022-11-23_12h15.07.768,t1_Paradigm,2021.1.4,60.003907618336584,
F,right,Target,0,25,25,25,874.643647758523,876.6441687403712,right,1,2,0.805501812370494,M01L12,2022-11-23_12h15.07.768,t1_Paradigm,2021.1.4,60.003907618336584,
H,left,Distractor,0,26,26,26,878.1430258845212,880.1431455435231,left,1,2,0.5386436057451647,M01L12,2022-11-23_12h15.07.768,t1_Paradigm,2021.1.4,60.003907618336584,
H,left,Lure,0,27,27,27,881.6432246211334,883.6431399295107,None,0,2,,M01L12,2022-11-23_12h15.07.768,t1_Paradigm,2021.1.4,60.003907618336584,
P,left,Distractor,0,28,28,28,885.1434916885046,887.1450398772431,left,1,2,0.9448792198090814,M01L12,2022-11-23_12h15.07.768,t1_Paradigm,2021.1.4,60.003907618336584,
G,left,Pretarget,0,29,29,29,888.6432149970788,890.6433776435151,left,1,2,1.0145194824435748,M01L12,2022-11-23_12h15.07.768,t1_Paradigm,2021.1.4,60.003907618336584,
K,left,Distractor,0,30,30,30,892.143560981669,894.1430034284131,left,1,2,1.2427948752592783,M01L12,2022-11-23_12h15.07.768,t1_Paradigm,2021.1.4,60.003907618336584,
G,right,Target,0,31,31,31,895.6432143554848,897.644029191666,right,1,2,0.8619892075948883,M01L12,2022-11-23_12h15.07.768,t1_Paradigm,2021.1.4,60.003907618336584,
M,left,Pretarget,0,32,32,32,899.1432812426356,901.143294074689,left,1,2,1.1224711607210338,M01L12,2022-11-23_12h15.07.768,t1_Paradigm,2021.1.4,60.003907618336584,
B,left,Distractor,0,33,33,33,902.6431104157527,904.6446842686273,left,1,2,1.2530191444966476,M01L12,2022-11-23_12h15.07.768,t1_Paradigm,2021.1.4,60.003907618336584,
M,right,Target,0,34,34,34,906.143043528602,908.1434714780189,right,1,2,0.9543165625655092,M01L12,2022-11-23_12h15.07.768,t1_Paradigm,2021.1.4,60.003907618336584,
M,left,Lure,0,35,35,35,909.6435033977614,911.6431989569974,None,0,2,,M01L12,2022-11-23_12h15.07.768,t1_Paradigm,2021.1.4,60.003907618336584,
T,left,Distractor,0,36,36,36,913.1435526408313,915.1430829872261,left,1,2,1.1066633388982154,M01L12,2022-11-23_12h15.07.768,t1_Paradigm,2021.1.4,60.003907618336584,
F,left,Distractor,0,37,37,37,916.643075127562,918.6444856924063,None,0,2,,M01L12,2022-11-23_12h15.07.768,t1_Paradigm,2021.1.4,60.003907618336584,
X,left,Distractor,0,38,38,38,920.1435163902352,922.1432344055793,left,1,2,0.7945900652266573,M01L12,2022-11-23_12h15.07.768,t1_Paradigm,2021.1.4,60.003907618336584,
C,left,Distractor,0,39,39,39,923.6431713680795,925.6430023055873,left,1,2,0.8947959878132679,M01L12,2022-11-23_12h15.07.768,t1_Paradigm,2021.1.4,60.003907618336584,
R,left,Distractor,0,40,40,40,927.1435038789641,929.1447203588032,left,1,2,0.7689429361198563,M01L12,2022-11-23_12h15.07.768,t1_Paradigm,2021.1.4,60.003907618336584,
B,left,Pretarget,0,41,41,41,930.6433211824333,932.6441565499117,left,1,2,0.5335001929779537,M01L12,2022-11-23_12h15.07.768,t1_Paradigm,2021.1.4,60.003907618336584,
H,left,Distractor,0,42,42,42,934.143163187633,936.1438898033521,left,1,2,0.6018149032024667,M01L12,2022-11-23_12h15.07.768,t1_Paradigm,2021.1.4,60.003907618336584,
B,right,Target,0,43,43,43,937.6435088514118,939.6444885796227,left,0,2,1.4052404873655178,M01L12,2022-11-23_12h15.07.768,t1_Paradigm,2021.1.4,60.003907618336584,
W,left,Pretarget,0,44,44,44,941.1435285806947,943.1452034860849,left,1,2,1.1365091199113522,M01L12,2022-11-23_12h15.07.768,t1_Paradigm,2021.1.4,60.003907618336584,
L,left,Pretarget,0,45,45,45,944.6434690720052,946.6429798494792,left,1,2,1.0627747866674326,M01L12,2022-11-23_12h15.07.768,t1_Paradigm,2021.1.4,60.003907618336584,
W,right,Target,0,46,46,46,948.1431288618478,950.143520881451,right,1,2,0.8741482315235771,M01L12,2022-11-23_12h15.07.768,t1_Paradigm,2021.1.4,60.003907618336584,
L,right,Target,0,47,47,47,951.6433718690823,953.6444160784595,None,0,2,,M01L12,2022-11-23_12h15.07.768,t1_Paradigm,2021.1.4,60.003907618336584,
W,right,Target,0,48,48,48,955.142989633925,957.1432764306082,right,1,2,0.9624174456985202,M01L12,2022-11-23_12h15.07.768,t1_Paradigm,2021.1.4,60.003907618336584,
X,left,Distractor,0,49,49,49,958.6431161901855,960.6432830070262,left,1,2,0.9026107158570085,M01L12,2022-11-23_12h15.07.768,t1_Paradigm,2021.1.4,60.003907618336584,
R,left,Distractor,0,50,50,50,962.1430919696577,964.143520881451,None,0,2,,M01L12,2022-11-23_12h15.07.768,t1_Paradigm,2021.1.4,60.003907618336584,
V,left,Pretarget,0,51,51,51,965.6433468465693,967.6433237488382,None,0,2,,M01L12,2022-11-23_12h15.07.768,t1_Paradigm,2021.1.4,60.003907618336584,
Z,left,Distractor,0,52,52,52,969.1434146961255,971.1431067265221,left,1,2,1.170510244613979,M01L12,2022-11-23_12h15.07.768,t1_Paradigm,2021.1.4,60.003907618336584,
V,right,Target,0,53,53,53,972.6431912577827,974.64318548335,right,1,2,0.7744677820592187,M01L12,2022-11-23_12h15.07.768,t1_Paradigm,2021.1.4,60.003907618336584,
V,left,Lure,0,54,54,54,976.1431583756057,978.1434948965325,left,1,2,0.8100010554480832,M01L12,2022-11-23_12h15.07.768,t1_Paradigm,2021.1.4,60.003907618336584,
N,left,Distractor,0,55,55,55,979.6431440999149,981.642983699101,left,1,2,0.8947828349191695,M01L12,2022-11-23_12h15.07.768,t1_Paradigm,2021.1.4,60.003907618336584,
B,left,Distractor,0,56,56,56,983.143455117126,985.1436694126169,left,1,2,0.9300912263861392,M01L12,2022-11-23_12h15.07.768,t1_Paradigm,2021.1.4,60.003907618336584,
V,left,Lure,0,57,57,57,986.6433125207841,988.6435595380608,left,1,2,0.9664216918463353,M01L12,2022-11-23_12h15.07.768,t1_Paradigm,2021.1.4,60.003907618336584,
J,left,Distractor,0,58,58,58,990.1433437989617,992.1430072780349,left,1,2,1.130768374481704,M01L12,2022-11-23_12h15.07.768,t1_Paradigm,2021.1.4,60.003907618336584,
H,left,Distractor,0,59,59,59,993.6429670174257,995.6428409423679,left,1,2,1.3429154645709787,M01L12,2022-11-23_12h15.07.768,t1_Paradigm,2021.1.4,60.003907618336584,
X,left,Pretarget,0,60,60,60,997.1431301450648,999.1446225143154,None,0,2,,M01L12,2022-11-23_12h15.07.768,t1_Paradigm,2021.1.4,60.003907618336584,
P,left,Distractor,0,61,61,61,1000.6433619242453,1002.6432980847312,None,0,2,,M01L12,2022-11-23_12h15.07.768,t1_Paradigm,2021.1.4,60.003907618336584,
X,right,Target,0,62,62,62,1004.1433903151774,1006.1430188268714,right,1,2,1.0667694087314885,M01L12,2022-11-23_12h15.07.768,t1_Paradigm,2021.1.4,60.003907618336584,
Q,left,Distractor,0,63,63,63,1007.6429378244793,1009.6433856635704,None,0,2,,M01L12,2022-11-23_12h15.07.768,t1_Paradigm,2021.1.4,60.003907618336584,
B,left,Pretarget,0,0,0,0,1018.8147774711251,1020.809367793001,left,1,2,0.46444603489362635,M01L12,2022-11-23_12h15.07.768,t1_Paradigm,2021.1.4,60.003907618336584,
F,left,Distractor,0,1,1,1,1022.3099880629743,1024.309757727402,left,1,2,0.5640116374124773,M01L12,2022-11-23_12h15.07.768,t1_Paradigm,2021.1.4,60.003907618336584,
B,right,Target,0,2,2,2,1025.8096812161966,1027.8100145290955,right,1,2,0.7437295308627654,M01L12,2022-11-23_12h15.07.768,t1_Paradigm,2021.1.4,60.003907618336584,
V,left,Distractor,0,3,3,3,1029.3100265591638,1031.3112857056258,left,1,2,0.8584401789994445,M01L12,2022-11-23_12h15.07.768,t1_Paradigm,2021.1.4,60.003907618336584,
G,left,Pretarget,0,4,4,4,1032.8100494964747,1034.810291701724,left,1,2,1.2474878825305495,M01L12,2022-11-23_12h15.07.768,t1_Paradigm,2021.1.4,60.003907618336584,
B,left,Lure,0,5,5,5,1036.3098677623493,1038.3100560729217,left,1,2,1.3156691392941866,M01L12,2022-11-23_12h15.07.768,t1_Paradigm,2021.1.4,60.003907618336584,
G,right,Target,0,6,6,6,1039.8099766745,1041.8103414259676,right,1,2,0.7752608037262689,M01L12,2022-11-23_12h15.07.768,t1_Paradigm,2021.1.4,60.003907618336584,
Y,left,Pretarget,0,7,7,7,1043.3095379782608,1045.3107239819365,left,1,2,1.0508647047972772,M01L12,2022-11-23_12h15.07.768,t1_Paradigm,2021.1.4,60.003907618336584,
P,left,Distractor,0,8,8,8,1046.8099962434208,1048.8100324939878,left,1,2,0.8636647545790765,M01L12,2022-11-23_12h15.07.768,t1_Paradigm,2021.1.4,60.003907618336584,
Y,right,Target,0,9,9,9,1050.3094285849074,1052.3095469607215,right,1,2,0.8680260529508814,M01L12,2022-11-23_12h15.07.768,t1_Paradigm,2021.1.4,60.003907618336584,
X,left,Distractor,0,10,10,10,1053.8098002336046,1055.8115832491603,left,1,2,1.1261841189698316,M01L12,2022-11-23_12h15.07.768,t1_Paradigm,2021.1.4,60.003907618336584,
Y,right,Target,0,11,11,11,1057.3098821984313,1059.3110104578082,right,1,2,0.5545813522476237,M01L12,2022-11-23_12h15.07.768,t1_Paradigm,2021.1.4,60.003907618336584,
N,left,Distractor,0,12,12,12,1060.8094332365145,1062.8108017763298,left,1,2,1.0867662584641948,M01L12,2022-11-23_12h15.07.768,t1_Paradigm,2021.1.4,60.003907618336584,
Y,right,Target,0,13,13,13,1064.310005707055,1066.3100631305424,right,1,2,0.9156596435641404,M01L12,2022-11-23_12h15.07.768,t1_Paradigm,2021.1.4,60.003907618336584,
Y,left,Lure,0,14,14,14,1067.8098903788778,1069.8096350207634,left,1,2,0.9999236492149066,M01L12,2022-11-23_12h15.07.768,t1_Paradigm,2021.1.4,60.003907618336584,
K,left,Distractor,0,15,15,15,1071.3095787200728,1073.3114698457648,None,0,2,,M01L12,2022-11-23_12h15.07.768,t1_Paradigm,2021.1.4,60.003907618336584,
T,left,Pretarget,0,16,16,16,1074.8098566946865,1076.8101168648282,None,0,2,,M01L12,2022-11-23_12h15.07.768,t1_Paradigm,2021.1.4,60.003907618336584,
J,left,Distractor,0,17,17,17,1078.3099441131344,1080.309701266291,left,1,2,0.8677225745632313,M01L12,2022-11-23_12h15.07.768,t1_Paradigm,2021.1.4,60.003907618336584,
T,right,Target,0,18,18,18,1081.8095397426805,1083.8109384378477,right,1,2,1.350594493560493,M01L12,2022-11-23_12h15.07.768,t1_Paradigm,2021.1.4,60.003907618336584,
S,left,Pretarget,0,19,19,19,1085.309904333728,1087.3101872807893,left,1,2,1.0995652817073278,M01L12,2022-11-23_12h15.07.768,t1_Paradigm,2021.1.4,60.003907618336584,
R,left,Distractor,0,20,20,20,1088.8098531658761,1090.8095041336783,left,1,2,1.0241361533408053,M01L12,2022-11-23_12h15.07.768,t1_Paradigm,2021.1.4,60.003907618336584,
S,right,Target,0,21,21,21,1092.3096887550491,1094.3118307476107,right,1,2,0.9938531196967233,M01L12,2022-11-23_12h15.07.768,t1_Paradigm,2021.1.4,60.003907618336584,
Q,left,Distractor,0,22,22,22,1095.8099567847967,1097.8095435923024,left,1,2,0.9359901270072442,M01L12,2022-11-23_12h15.07.768,t1_Paradigm,2021.1.4,60.003907618336584,
D,left,Distractor,0,23,23,23,1099.3101227996522,1101.3094301889068,None,0,2,,M01L12,2022-11-23_12h15.07.768,t1_Paradigm,2021.1.4,60.003907618336584,
F,left,Distractor,0,24,24,24,1102.809619622276,1104.811219460098,None,0,2,,M01L12,2022-11-23_12h15.07.768,t1_Paradigm,2021.1.4,60.003907618336584,
Z,left,Distractor,0,25,25,25,1106.309915561811,1108.3114996803342,left,1,2,0.6577848453889601,M01L12,2022-11-23_12h15.07.768,t1_Paradigm,2021.1.4,60.003907618336584,
P,left,Distractor,0,26,26,26,1109.8096055070055,1111.8095060584892,None,0,2,,M01L12,2022-11-23_12h15.07.768,t1_Paradigm,2021.1.4,60.003907618336584,
H,left,Distractor,0,27,27,27,1113.309519692557,1115.311070126918,left,1,2,0.9384657532791607,M01L12,2022-11-23_12h15.07.768,t1_Paradigm,2021.1.4,60.003907618336584,
Z,left,Pretarget,0,28,28,28,1116.8095804844925,1118.8095246650046,None,0,2,,M01L12,2022-11-23_12h15.07.768,t1_Paradigm,2021.1.4,60.003907618336584,
J,left,Pretarget,0,29,29,29,1120.3099498875672,1122.3095001236652,left,1,2,1.0599542986019515,M01L12,2022-11-23_12h15.07.768,t1_Paradigm,2021.1.4,60.003907618336584,
Z,right,Target,0,30,30,30,1123.8099830905558,1125.8100976167188,None,0,2,,M01L12,2022-11-23_12h15.07.768,t1_Paradigm,2021.1.4,60.003907618336584,
J,right,Target,0,31,31,31,1127.309889256052,1129.3113681516552,None,0,2,,M01L12,2022-11-23_12h15.07.768,t1_Paradigm,2021.1.4,60.003907618336584,
V,left,Pretarget,0,32,32,32,1130.8090030415333,1132.8108848639822,None,0,2,,M01L12,2022-11-23_12h15.07.768,t1_Paradigm,2021.1.4,60.003907618336584,
Z,left,Lure,0,33,33,33,1134.3098206045106,1136.30987674481,left,1,2,1.0437701764167286,M01L12,2022-11-23_12h15.07.768,t1_Paradigm,2021.1.4,60.003907618336584,
V,right,Target,0,34,34,34,1137.809974108095,1139.809973466501,right,1,2,0.6796577431377955,M01L12,2022-11-23_12h15.07.768,t1_Paradigm,2021.1.4,60.003907618336584,
X,left,Distractor,0,35,35,35,1141.3095431110996,1143.3098276621604,left,1,2,0.8597759970289189,M01L12,2022-11-23_12h15.07.768,t1_Paradigm,2021.1.4,60.003907618336584,
S,left,Distractor,0,36,36,36,1144.8094399733527,1146.809854449093,left,1,2,0.9917399992409628,M01L12,2022-11-23_12h15.07.768,t1_Paradigm,2021.1.4,60.003907618336584,
Q,left,Distractor,0,37,37,37,1148.3098799528088,1150.3117964218545,left,1,2,1.0897939843998756,M01L12,2022-11-23_12h15.07.768,t1_Paradigm,2021.1.4,60.003907618336584,
P,left,Distractor,0,38,38,38,1151.8098522034707,1153.8110382071463,left,1,2,1.2704197464918252,M01L12,2022-11-23_12h15.07.768,t1_Paradigm,2021.1.4,60.003907618336584,
S,left,Lure,0,39,39,39,1155.3098815568374,1157.3101725239248,None,0,2,,M01L12,2022-11-23_12h15.07.768,t1_Paradigm,2021.1.4,60.003907618336584,
K,left,Pretarget,0,40,40,40,1158.8095086249232,1160.8110430191737,None,0,2,,M01L12,2022-11-23_12h15.07.768,t1_Paradigm,2021.1.4,60.003907618336584,
L,left,Distractor,0,41,41,41,1162.3096310107503,1164.3097105695342,left,1,2,1.0597406447050162,M01L12,2022-11-23_12h15.07.768,t1_Paradigm,2021.1.4,60.003907618336584,
K,right,Target,0,42,42,42,1165.8096109606267,1167.8114716101845,right,1,2,1.2060739941662177,M01L12,2022-11-23_12h15.07.768,t1_Paradigm,2021.1.4,60.003907618336584,
B,left,Distractor,0,43,43,43,1169.3097464993189,1171.310323300684,left,1,2,1.3231444592238404,M01L12,2022-11-23_12h15.07.768,t1_Paradigm,2021.1.4,60.003907618336584,
N,left,Distractor,0,44,44,44,1172.809352715325,1174.811259560287,left,1,2,1.2143487518187612,M01L12,2022-11-23_12h15.07.768,t1_Paradigm,2021.1.4,60.003907618336584,
S,left,Pretarget,0,45,45,45,1176.3096223491011,1178.3112205828947,left,1,2,0.9783545506361406,M01L12,2022-11-23_12h15.07.768,t1_Paradigm,2021.1.4,60.003907618336584,
Z,left,Distractor,0,46,46,46,1179.8094287452986,1181.8094017979747,left,1,2,0.6801941235025879,M01L12,2022-11-23_12h15.07.768,t1_Paradigm,2021.1.4,60.003907618336584,
S,right,Target,0,47,47,47,1183.3093676325807,1185.3106210046099,right,1,2,0.44274380363640375,M01L12,2022-11-23_12h15.07.768,t1_Paradigm,2021.1.4,60.003907618336584,
C,left,Distractor,0,48,48,48,1186.8098252561467,1188.8096561936545,left,1,2,0.8319143741973676,M01L12,2022-11-23_12h15.07.768,t1_Paradigm,2021.1.4,60.003907618336584,
T,left,Pretarget,0,49,49,49,1190.3097243640223,1192.3093932967167,left,1,2,0.9481696822622325,M01L12,2022-11-23_12h15.07.768,t1_Paradigm,2021.1.4,60.003907618336584,
S,left,Lure,0,50,50,50,1193.8094024395687,1195.8112441617996,left,1,2,1.430352198512992,M01L12,2022-11-23_12h15.07.768,t1_Paradigm,2021.1.4,60.003907618336584,
T,right,Target,0,51,51,51,1197.3097574065905,1199.3092091565777,right,1,2,1.1323884227895178,M01L12,2022-11-23_12h15.07.768,t1_Paradigm,2021.1.4,60.003907618336584,
N,left,Pretarget,0,52,52,52,1200.8095997325727,1202.8106792301114,None,0,2,,M01L12,2022-11-23_12h15.07.768,t1_Paradigm,2021.1.4,60.003907618336584,
B,left,Distractor,0,53,53,53,1204.3098619879165,1206.3103990098753,None,0,2,,M01L12,2022-11-23_12h15.07.768,t1_Paradigm,2021.1.4,60.003907618336584,
N,right,Target,0,54,54,54,1207.8097832311178,1209.809270590078,left,0,2,1.208244538109284,M01L12,2022-11-23_12h15.07.768,t1_Paradigm,2021.1.4,60.003907618336584,
N,left,Lure,0,55,55,55,1211.3097660682397,1213.3093827102566,right,0,2,1.0199355765944347,M01L12,2022-11-23_12h15.07.768,t1_Paradigm,2021.1.4,60.003907618336584,
X,left,Distractor,0,56,56,56,1214.8093286551884,1216.8100437220419,left,1,2,0.9113740543834865,M01L12,2022-11-23_12h15.07.768,t1_Paradigm,2021.1.4,60.003907618336584,
W,left,Distractor,0,57,57,57,1218.3097737674834,1220.3099040129455,left,1,2,1.2037459366256371,M01L12,2022-11-23_12h15.07.768,t1_Paradigm,2021.1.4,60.003907618336584,
S,left,Distractor,0,58,58,58,1221.8097100883315,1223.8095086249232,left,1,2,1.3199454252317082,M01L12,2022-11-23_12h15.07.768,t1_Paradigm,2021.1.4,60.003907618336584,
L,left,Distractor,0,59,59,59,1225.3094186400413,1227.3093621789594,left,1,2,1.2120380175765604,M01L12,2022-11-23_12h15.07.768,t1_Paradigm,2021.1.4,60.003907618336584,
K,left,Pretarget,0,60,60,60,1228.809736073279,1230.8111748686642,None,0,2,,M01L12,2022-11-23_12h15.07.768,t1_Paradigm,2021.1.4,60.003907618336584,
V,left,Pretarget,0,61,61,61,1232.3097586898075,1234.3098712911597,None,0,2,,M01L12,2022-11-23_12h15.07.768,t1_Paradigm,2021.1.4,60.003907618336584,
K,right,Target,0,62,62,62,1235.8093706802174,1237.8109374754422,left,0,2,1.2864774728368502,M01L12,2022-11-23_12h15.07.768,t1_Paradigm,2021.1.4,60.003907618336584,
V,right,Target,0,63,63,63,1239.3089762545715,1241.3093615373655,left,0,2,0.9560103952535428,M01L12,2022-11-23_12h15.07.768,t1_Paradigm,2021.1.4,60.003907618336584,
R,left,Distractor,0,0,0,0,1318.9869863604836,1320.9779654182203,left,1,3,0.6794200291042216,M01L12,2022-11-23_12h15.07.768,t1_Paradigm,2021.1.4,60.003907618336584,
P,left,Lure,0,1,1,1,1322.4760186334315,1324.4760574504326,left,1,3,0.7496467171877157,M01L12,2022-11-23_12h15.07.768,t1_Paradigm,2021.1.4,60.003907618336584,
V,left,Distractor,0,2,2,2,1325.975867696281,1327.9765314348624,left,1,3,0.6247788473556284,M01L12,2022-11-23_12h15.07.768,t1_Paradigm,2021.1.4,60.003907618336584,
P,left,Pretarget,0,3,3,3,1329.4762771995738,1331.4770978101878,right,0,3,0.5640876673860475,M01L12,2022-11-23_12h15.07.768,t1_Paradigm,2021.1.4,60.003907618336584,
Z,left,Distractor,0,4,4,4,1332.9762298813148,1334.976546191756,right,0,3,1.2088550236367155,M01L12,2022-11-23_12h15.07.768,t1_Paradigm,2021.1.4,60.003907618336584,
L,left,Pretarget,0,5,5,5,1336.4760693201097,1338.4758665734553,left,1,3,0.7497256344067864,M01L12,2022-11-23_12h15.07.768,t1_Paradigm,2021.1.4,60.003907618336584,
P,right,Target,0,6,6,6,1339.9757926286838,1341.9761329992325,left,0,3,0.8652594595623668,M01L12,2022-11-23_12h15.07.768,t1_Paradigm,2021.1.4,60.003907618336584,
S,left,Distractor,0,7,7,7,1343.4759855908633,1345.4780890872644,left,1,3,0.9315252097148914,M01L12,2022-11-23_12h15.07.768,t1_Paradigm,2021.1.4,60.003907618336584,
L,right,Target,0,8,8,8,1346.976224748505,1348.97780213019,right,1,3,1.1596071591193322,M01L12,2022-11-23_12h15.07.768,t1_Paradigm,2021.1.4,60.003907618336584,
D,left,Distractor,0,9,9,9,1350.4761960367614,1352.4778167266631,left,1,3,0.843324005487375,M01L12,2022-11-23_12h15.07.768,t1_Paradigm,2021.1.4,60.003907618336584,
G,left,Distractor,0,10,10,10,1353.9762934000464,1355.9772824315296,left,1,3,1.1199676247197203,M01L12,2022-11-23_12h15.07.768,t1_Paradigm,2021.1.4,60.003907618336584,
M,left,Pretarget,0,11,11,11,1357.4762290793296,1359.4769136700197,left,1,3,0.6602989678794984,M01L12,2022-11-23_12h15.07.768,t1_Paradigm,2021.1.4,60.003907618336584,
Y,left,Distractor,0,12,12,12,1360.9758449193614,1362.977996856789,left,1,3,0.8712693575944286,M01L12,2022-11-23_12h15.07.768,t1_Paradigm,2021.1.4,60.003907618336584,
V,left,Distractor,0,13,13,13,1364.4759766084317,1366.476922331669,left,1,3,0.7002827224787325,M01L12,2022-11-23_12h15.07.768,t1_Paradigm,2021.1.4,60.003907618336584,
M,right,Target,0,14,14,14,1367.9761981219635,1369.9761917059368,right,1,3,0.4811665374436416,M01L12,2022-11-23_12h15.07.768,t1_Paradigm,2021.1.4,60.003907618336584,
S,left,Pretarget,0,15,15,15,1371.4761219315697,1373.477130211133,left,1,3,0.6605142258049455,M01L12,2022-11-23_12h15.07.768,t1_Paradigm,2021.1.4,60.003907618336584,
Q,left,Distractor,0,16,16,16,1374.9761496809078,1376.9769436649804,left,1,3,0.984067386307288,M01L12,2022-11-23_12h15.07.768,t1_Paradigm,2021.1.4,60.003907618336584,
R,left,Pretarget,0,17,17,17,1378.4760545632162,1380.4773165968945,left,1,3,1.11579207048635,M01L12,2022-11-23_12h15.07.768,t1_Paradigm,2021.1.4,60.003907618336584,
S,right,Target,0,18,18,18,1381.9758067439543,1383.9757653605484,right,1,3,0.8173426010762341,M01L12,2022-11-23_12h15.07.768,t1_Paradigm,2021.1.4,60.003907618336584,
F,left,Distractor,0,19,19,19,1385.4758970496187,1387.4771330983494,None,0,3,,M01L12,2022-11-23_12h15.07.768,t1_Paradigm,2021.1.4,60.003907618336584,
R,right,Target,0,20,20,20,1388.9761884979089,1390.9768843166821,right,1,3,0.7603419232182205,M01L12,2022-11-23_12h15.07.768,t1_Paradigm,2021.1.4,60.003907618336584,
P,left,Distractor,0,21,21,21,1392.4762646883028,1394.4769463918055,left,1,3,0.6841345301072579,M01L12,2022-11-23_12h15.07.768,t1_Paradigm,2021.1.4,60.003907618336584,
L,left,Distractor,0,22,22,22,1395.9759475758765,1397.9762340517482,right,0,3,1.3611254491552245,M01L12,2022-11-23_12h15.07.768,t1_Paradigm,2021.1.4,60.003907618336584,
R,right,Target,0,23,23,23,1399.4762008487887,1401.4758800471318,None,0,3,,M01L12,2022-11-23_12h15.07.768,t1_Paradigm,2021.1.4,60.003907618336584,
H,left,Pretarget,0,24,24,24,1402.975259456347,1404.9779153731652,left,1,3,0.8553479719266761,M01L12,2022-11-23_12h15.07.768,t1_Paradigm,2021.1.4,60.003907618336584,
G,left,Pretarget,0,25,25,25,1406.4762140016537,1408.475718363101,left,1,3,1.1013335403404199,M01L12,2022-11-23_12h15.07.768,t1_Paradigm,2021.1.4,60.003907618336584,
T,left,Distractor,0,26,26,26,1409.9757332803856,1411.9778887466236,left,1,3,1.0230425405607093,M01L12,2022-11-23_12h15.07.768,t1_Paradigm,2021.1.4,60.003907618336584,
H,right,Target,0,27,27,27,1413.4757491600467,1415.4768479056947,right,1,3,0.948725310707232,M01L12,2022-11-23_12h15.07.768,t1_Paradigm,2021.1.4,60.003907618336584,
G,right,Target,0,28,28,28,1416.9757454708451,1418.9756524383556,None,0,3,,M01L12,2022-11-23_12h15.07.768,t1_Paradigm,2021.1.4,60.003907618336584,
D,left,Distractor,0,29,29,29,1420.4761074954877,1422.4768344320182,left,1,3,1.0362849116500001,M01L12,2022-11-23_12h15.07.768,t1_Paradigm,2021.1.4,60.003907618336584,
N,left,Pretarget,0,30,30,30,1423.9759697112022,1425.975721089926,left,1,3,0.993174303410342,M01L12,2022-11-23_12h15.07.768,t1_Paradigm,2021.1.4,60.003907618336584,
V,left,Distractor,0,31,31,31,1427.475889350375,1429.4765675250674,left,1,3,0.6927175781165715,M01L12,2022-11-23_12h15.07.768,t1_Paradigm,2021.1.4,60.003907618336584,
R,left,Distractor,0,32,32,32,1430.9761769490433,1432.976108297502,left,1,3,0.697206555516459,M01L12,2022-11-23_12h15.07.768,t1_Paradigm,2021.1.4,60.003907618336584,
N,right,Target,0,33,33,33,1434.4758717062941,1436.4765893395816,right,1,3,0.7004713538626675,M01L12,2022-11-23_12h15.07.768,t1_Paradigm,2021.1.4,60.003907618336584,
Z,left,Distractor,0,34,34,34,1437.9762725479377,1439.976805399463,left,1,3,0.6403617872565519,M01L12,2022-11-23_12h15.07.768,t1_Paradigm,2021.1.4,60.003907618336584,
N,left,Lure,0,35,35,35,1441.4761633149756,1443.4769534494262,left,1,3,0.9001954002887942,M01L12,2022-11-23_12h15.07.768,t1_Paradigm,2021.1.4,60.003907618336584,
Y,left,Pretarget,0,36,36,36,1444.9760948238254,1446.9777912229183,left,1,3,0.6955181764787994,M01L12,2022-11-23_12h15.07.768,t1_Paradigm,2021.1.4,60.003907618336584,
Y,left,Lure,0,37,37,37,1448.4758771599154,1450.4761139115435,right,0,3,0.5889343963644933,M01L12,2022-11-23_12h15.07.768,t1_Paradigm,2021.1.4,60.003907618336584,
B,left,Distractor,0,38,38,38,1451.9756168293825,1453.976873088628,left,1,3,0.9441663985198829,M01L12,2022-11-23_12h15.07.768,t1_Paradigm,2021.1.4,60.003907618336584,
Y,right,Target,0,39,39,39,1455.4760510344058,1457.4776409273618,left,0,3,0.8514720464590937,M01L12,2022-11-23_12h15.07.768,t1_Paradigm,2021.1.4,60.003907618336584,
J,left,Distractor,0,40,40,40,1458.9757964783057,1460.9768005874648,left,1,3,0.9043340623029508,M01L12,2022-11-23_12h15.07.768,t1_Paradigm,2021.1.4,60.003907618336584,
X,left,Distractor,0,41,41,41,1462.4761969991669,1464.4779588418023,left,1,3,1.0511976969137322,M01L12,2022-11-23_12h15.07.768,t1_Paradigm,2021.1.4,60.003907618336584,
W,left,Pretarget,0,42,42,42,1465.9760322674992,1467.9777591427555,left,1,3,1.4394206193974242,M01L12,2022-11-23_12h15.07.768,t1_Paradigm,2021.1.4,60.003907618336584,
S,left,Pretarget,0,43,43,43,1469.475780277833,1471.476856567344,left,1,3,1.028438745008316,M01L12,2022-11-23_12h15.07.768,t1_Paradigm,2021.1.4,60.003907618336584,
R,left,Distractor,0,44,44,44,1472.976108297502,1474.976863785385,right,0,3,1.0803916089935228,M01L12,2022-11-23_12h15.07.768,t1_Paradigm,2021.1.4,60.003907618336584,
W,right,Target,0,45,45,45,1476.475794072292,1478.4760269742983,left,0,3,0.6370026732329279,M01L12,2022-11-23_12h15.07.768,t1_Paradigm,2021.1.4,60.003907618336584,
S,right,Target,0,46,46,46,1479.9756261326256,1481.9766905524884,left,0,3,0.9442802831181325,M01L12,2022-11-23_12h15.07.768,t1_Paradigm,2021.1.4,60.003907618336584,
D,left,Distractor,0,47,47,47,1483.4760382023524,1485.4761572197604,left,1,3,0.9008434196002781,M01L12,2022-11-23_12h15.07.768,t1_Paradigm,2021.1.4,60.003907618336584,
T,left,Distractor,0,48,48,48,1486.9758522977936,1488.9755151352729,left,1,3,0.793555800744798,M01L12,2022-11-23_12h15.07.768,t1_Paradigm,2021.1.4,60.003907618336584,
S,right,Target,0,49,49,49,1490.4755964584765,1492.4755800975836,right,1,3,1.005536394775845,M01L12,2022-11-23_12h15.07.768,t1_Paradigm,2021.1.4,60.003907618336584,
K,left,Distractor,0,50,50,50,1493.9760229642561,1495.9758343329013,left,1,3,0.7372015381988604,M01L12,2022-11-23_12h15.07.768,t1_Paradigm,2021.1.4,60.003907618336584,
S,left,Lure,0,51,51,51,1497.4757735409949,1499.4759002576466,left,1,3,1.3813282535411417,M01L12,2022-11-23_12h15.07.768,t1_Paradigm,2021.1.4,60.003907618336584,
T,left,Pretarget,0,52,52,52,1500.9752803084557,1502.9751600078307,None,0,3,,M01L12,2022-11-23_12h15.07.768,t1_Paradigm,2021.1.4,60.003907618336584,
V,left,Distractor,0,53,53,53,1504.4757860522368,1506.4758806887257,left,1,3,1.133426536922343,M01L12,2022-11-23_12h15.07.768,t1_Paradigm,2021.1.4,60.003907618336584,
B,left,Distractor,0,54,54,54,1507.9760345131217,1509.9765465125383,left,1,3,0.49674209888326004,M01L12,2022-11-23_12h15.07.768,t1_Paradigm,2021.1.4,60.003907618336584,
T,right,Target,0,55,55,55,1511.4758813303488,1513.4758553454012,left,0,3,1.17322647216497,M01L12,2022-11-23_12h15.07.768,t1_Paradigm,2021.1.4,60.003907618336584,
Y,left,Pretarget,0,56,56,56,1514.9756614208163,1516.975604638923,None,0,3,,M01L12,2022-11-23_12h15.07.768,t1_Paradigm,2021.1.4,60.003907618336584,
T,left,Lure,0,57,57,57,1518.476085360191,1520.4767115649884,right,0,3,1.2288493069645483,M01L12,2022-11-23_12h15.07.768,t1_Paradigm,2021.1.4,60.003907618336584,
P,left,Pretarget,0,58,58,58,1521.9758064231428,1523.9761522473127,left,1,3,0.752861791261239,M01L12,2022-11-23_12h15.07.768,t1_Paradigm,2021.1.4,60.003907618336584,
Y,right,Target,0,59,59,59,1525.4756766588835,1527.4756015913154,right,1,3,1.0614550086902454,M01L12,2022-11-23_12h15.07.768,t1_Paradigm,2021.1.4,60.003907618336584,
R,left,Distractor,0,60,60,60,1528.9757929494954,1530.9766985725146,left,1,3,1.3203223671589512,M01L12,2022-11-23_12h15.07.768,t1_Paradigm,2021.1.4,60.003907618336584,
P,right,Target,0,61,61,61,1532.4757481976412,1534.4762034151936,right,1,3,0.7491578154731542,M01L12,2022-11-23_12h15.07.768,t1_Paradigm,2021.1.4,60.003907618336584,
L,left,Distractor,0,62,62,62,1535.9757364883844,1537.9757483580615,left,1,3,0.9771948526904453,M01L12,2022-11-23_12h15.07.768,t1_Paradigm,2021.1.4,60.003907618336584,
V,left,Distractor,0,63,63,63,1539.475718363101,1541.4760718865145,left,1,3,0.8689377712144051,M01L12,2022-11-23_12h15.07.768,t1_Paradigm,2021.1.4,60.003907618336584,
H,left,Lure,0,0,0,0,1555.7235177440161,1557.725138433918,left,1,3,0.9718352195923217,M01L12,2022-11-23_12h15.07.768,t1_Paradigm,2021.1.4,60.003907618336584,
B,left,Distractor,0,1,1,1,1559.2261564979563,1561.227457669418,left,1,3,0.8296504769823514,M01L12,2022-11-23_12h15.07.768,t1_Paradigm,2021.1.4,60.003907618336584,
T,left,Distractor,0,2,2,2,1562.7255891602545,1564.7254977317643,left,1,3,0.4674872344767209,M01L12,2022-11-23_12h15.07.768,t1_Paradigm,2021.1.4,60.003907618336584,
R,left,Distractor,0,3,3,3,1566.2256239672133,1568.2262334903353,left,1,3,0.5991124701686203,M01L12,2022-11-23_12h15.07.768,t1_Paradigm,2021.1.4,60.003907618336584,
H,left,Pretarget,0,4,4,4,1569.7259356260183,1571.7266439560626,left,1,3,1.0182548968004994,M01L12,2022-11-23_12h15.07.768,t1_Paradigm,2021.1.4,60.003907618336584,
K,left,Distractor,0,5,5,5,1573.225512649049,1575.2255864334293,None,0,3,,M01L12,2022-11-23_12h15.07.768,t1_Paradigm,2021.1.4,60.003907618336584,
G,left,Distractor,0,6,6,6,1576.7255708745506,1578.7277183207625,left,1,3,1.1692928023985587,M01L12,2022-11-23_12h15.07.768,t1_Paradigm,2021.1.4,60.003907618336584,
H,right,Target,0,7,7,7,1580.2259717161942,1582.225475756859,None,0,3,,M01L12,2022-11-23_12h15.07.768,t1_Paradigm,2021.1.4,60.003907618336584,
Y,left,Pretarget,0,8,8,8,1583.7255391151702,1585.7275158949196,left,1,3,0.7456806464469992,M01L12,2022-11-23_12h15.07.768,t1_Paradigm,2021.1.4,60.003907618336584,
S,left,Distractor,0,9,9,9,1587.2425998278486,1589.2256393657008,left,1,3,0.5592929660051595,M01L12,2022-11-23_12h15.07.768,t1_Paradigm,2021.1.4,60.003907618336584,
P,left,Distractor,0,10,10,10,1590.7260132600204,1592.7257585435,left,1,3,0.9473712069739122,M01L12,2022-11-23_12h15.07.768,t1_Paradigm,2021.1.4,60.003907618336584,
Y,right,Target,0,11,11,11,1594.2257667239464,1596.2274178900116,None,0,3,,M01L12,2022-11-23_12h15.07.768,t1_Paradigm,2021.1.4,60.003907618336584,
H,left,Lure,0,12,12,12,1597.7256093707401,1599.7271296497493,None,0,3,,M01L12,2022-11-23_12h15.07.768,t1_Paradigm,2021.1.4,60.003907618336584,
Q,left,Distractor,0,13,13,13,1601.2256990348105,1603.2254642079934,left,1,3,0.8155496406834573,M01L12,2022-11-23_12h15.07.768,t1_Paradigm,2021.1.4,60.003907618336584,
V,left,Pretarget,0,14,14,14,1604.7260033151542,1606.7261095005088,left,1,3,0.8668929815175943,M01L12,2022-11-23_12h15.07.768,t1_Paradigm,2021.1.4,60.003907618336584,
G,left,Distractor,0,15,15,15,1608.225873550895,1610.2258944030036,left,1,3,0.5510534965724219,M01L12,2022-11-23_12h15.07.768,t1_Paradigm,2021.1.4,60.003907618336584,
Z,left,Pretarget,0,16,16,16,1611.7256045587128,1613.7267280060914,right,0,3,0.9381731822213624,M01L12,2022-11-23_12h15.07.768,t1_Paradigm,2021.1.4,60.003907618336584,
V,right,Target,0,17,17,17,1615.2255469748343,1617.2272571683861,right,1,3,0.9096404422889464,M01L12,2022-11-23_12h15.07.768,t1_Paradigm,2021.1.4,60.003907618336584,
N,left,Distractor,0,18,18,18,1618.7254964485765,1620.726618612709,left,1,3,0.8825086432043463,M01L12,2022-11-23_12h15.07.768,t1_Paradigm,2021.1.4,60.003907618336584,
Z,right,Target,0,19,19,19,1622.2258655308688,1624.2254789648869,right,1,3,0.5999301935662515,M01L12,2022-11-23_12h15.07.768,t1_Paradigm,2021.1.4,60.003907618336584,
R,left,Distractor,0,20,20,20,1625.7255278871162,1627.7253966792487,left,1,3,1.0354553185752593,M01L12,2022-11-23_12h15.07.768,t1_Paradigm,2021.1.4,60.003907618336584,
P,left,Distractor,0,21,21,21,1629.225436298264,1631.2266976903193,left,1,3,1.3262732376751956,M01L12,2022-11-23_12h15.07.768,t1_Paradigm,2021.1.4,60.003907618336584,
Z,right,Target,0,22,22,22,1632.7254714260343,1634.7266420312517,left,0,3,1.170233713608468,M01L12,2022-11-23_12h15.07.768,t1_Paradigm,2021.1.4,60.003907618336584,
D,left,Pretarget,0,23,23,23,1636.2255598068878,1638.226994752651,None,0,3,,M01L12,2022-11-23_12h15.07.768,t1_Paradigm,2021.1.4,60.003907618336584,
K,left,Distractor,0,24,24,24,1639.7258140422055,1641.726423244516,left,1,3,0.9384901342273224,M01L12,2022-11-23_12h15.07.768,t1_Paradigm,2021.1.4,60.003907618336584,
W,left,Distractor,0,25,25,25,1643.2254420726968,1645.2274008875247,left,1,3,0.8775419921439607,M01L12,2022-11-23_12h15.07.768,t1_Paradigm,2021.1.4,60.003907618336584,
D,right,Target,0,26,26,26,1646.7254489699262,1648.7253277068958,right,1,3,0.8355410367657896,M01L12,2022-11-23_12h15.07.768,t1_Paradigm,2021.1.4,60.003907618336584,
G,left,Pretarget,0,27,27,27,1650.225619155186,1652.2270579505712,left,1,3,1.2378301490098238,M01L12,2022-11-23_12h15.07.768,t1_Paradigm,2021.1.4,60.003907618336584,
V,left,Distractor,0,28,28,28,1653.7257139520661,1655.7257306337706,left,1,3,1.1633647088019643,M01L12,2022-11-23_12h15.07.768,t1_Paradigm,2021.1.4,60.003907618336584,
D,right,Target,0,29,29,29,1657.225887345383,1659.2259559969243,None,0,3,,M01L12,2022-11-23_12h15.07.768,t1_Paradigm,2021.1.4,60.003907618336584,
G,right,Target,0,30,30,30,1660.7256469045242,1662.7267735599016,right,1,3,0.8500874665623996,M01L12,2022-11-23_12h15.07.768,t1_Paradigm,2021.1.4,60.003907618336584,
B,left,Pretarget,0,31,31,31,1664.2256002278882,1666.2258469243534,left,1,3,0.9030470060824882,M01L12,2022-11-23_12h15.07.768,t1_Paradigm,2021.1.4,60.003907618336584,
N,left,Distractor,0,32,32,32,1667.7258095509605,1669.7279563555785,left,1,3,1.0169213243643753,M01L12,2022-11-23_12h15.07.768,t1_Paradigm,2021.1.4,60.003907618336584,
F,left,Distractor,0,33,33,33,1671.2252399676363,1673.22542507021,left,1,3,0.5755162259738427,M01L12,2022-11-23_12h15.07.768,t1_Paradigm,2021.1.4,60.003907618336584,
B,right,Target,0,34,34,34,1674.7258730696922,1676.7257745835814,right,1,3,0.643208581052022,M01L12,2022-11-23_12h15.07.768,t1_Paradigm,2021.1.4,60.003907618336584,
Q,left,Pretarget,0,35,35,35,1678.2257603079197,1680.2253413409635,left,1,3,0.903483937960118,M01L12,2022-11-23_12h15.07.768,t1_Paradigm,2021.1.4,60.003907618336584,
S,left,Pretarget,0,36,36,36,1681.7250521382957,1683.72639244757,left,1,3,0.970446148479823,M01L12,2022-11-23_12h15.07.768,t1_Paradigm,2021.1.4,60.003907618336584,
W,left,Distractor,0,37,37,37,1685.2256095311313,1687.242063447513,left,1,3,1.0868358724401332,M01L12,2022-11-23_12h15.07.768,t1_Paradigm,2021.1.4,60.003907618336584,
Q,right,Target,0,38,38,38,1688.725598142686,1690.7253893008165,right,1,3,0.9636974442692008,M01L12,2022-11-23_12h15.07.768,t1_Paradigm,2021.1.4,60.003907618336584,
S,right,Target,0,39,39,39,1692.22547062402,1694.2268622615666,left,0,3,1.1420814445009455,M01L12,2022-11-23_12h15.07.768,t1_Paradigm,2021.1.4,60.003907618336584,
T,left,Distractor,0,40,40,40,1695.7253783935448,1697.725574403361,None,0,3,,M01L12,2022-11-23_12h15.07.768,t1_Paradigm,2021.1.4,60.003907618336584,
G,left,Distractor,0,41,41,41,1699.225830884272,1701.2274294388772,left,1,3,0.9895181270549074,M01L12,2022-11-23_12h15.07.768,t1_Paradigm,2021.1.4,60.003907618336584,
D,left,Distractor,0,42,42,42,1702.7258047389332,1704.7272499503451,right,0,3,0.9934976714430377,M01L12,2022-11-23_12h15.07.768,t1_Paradigm,2021.1.4,60.003907618336584,
S,left,Lure,0,43,43,43,1706.2255306139414,1708.2258687388676,right,0,3,1.0795241613232065,M01L12,2022-11-23_12h15.07.768,t1_Paradigm,2021.1.4,60.003907618336584,
Z,left,Pretarget,0,44,44,44,1709.7258342526911,1711.7250251909427,None,0,3,,M01L12,2022-11-23_12h15.07.768,t1_Paradigm,2021.1.4,60.003907618336584,
J,left,Distractor,0,45,45,45,1713.225622363214,1715.2260262524942,left,1,3,0.7346919069241267,M01L12,2022-11-23_12h15.07.768,t1_Paradigm,2021.1.4,60.003907618336584,
M,left,Pretarget,0,46,46,46,1716.7256087291462,1718.7258185334213,left,1,3,1.0110371806076728,M01L12,2022-11-23_12h15.07.768,t1_Paradigm,2021.1.4,60.003907618336584,
Z,right,Target,0,47,47,47,1720.225605360727,1722.22679617643,left,0,3,0.7578075902129058,M01L12,2022-11-23_12h15.07.768,t1_Paradigm,2021.1.4,60.003907618336584,
P,left,Distractor,0,48,48,48,1723.7255009397923,1725.7265242970316,left,1,3,0.7784627249347977,M01L12,2022-11-23_12h15.07.768,t1_Paradigm,2021.1.4,60.003907618336584,
M,right,Target,0,49,49,49,1727.2258016913256,1729.2274271932547,right,1,3,0.5413665701053105,M01L12,2022-11-23_12h15.07.768,t1_Paradigm,2021.1.4,60.003907618336584,
K,left,Distractor,0,50,50,50,1730.7253674863023,1732.7254079073027,left,1,3,1.0114539019123185,M01L12,2022-11-23_12h15.07.768,t1_Paradigm,2021.1.4,60.003907618336584,
Y,left,Distractor,0,51,51,51,1734.2257032052148,1736.22532850891,None,0,3,,M01L12,2022-11-23_12h15.07.768,t1_Paradigm,2021.1.4,60.003907618336584,
X,left,Distractor,0,52,52,52,1737.7258397063124,1739.7265355250856,None,0,3,,M01L12,2022-11-23_12h15.07.768,t1_Paradigm,2021.1.4,60.003907618336584,
F,left,Pretarget,0,53,53,53,1741.2253727795323,1743.226824406971,left,1,3,1.021991915156832,M01L12,2022-11-23_12h15.07.768,t1_Paradigm,2021.1.4,60.003907618336584,
M,left,Lure,0,54,54,54,1744.7257399370137,1746.7274764363247,right,0,3,0.6893655217136256,M01L12,2022-11-23_12h15.07.768,t1_Paradigm,2021.1.4,60.003907618336584,
V,left,Distractor,0,55,55,55,1748.2255229146976,1750.225236438826,left,1,3,0.935463049885584,M01L12,2022-11-23_12h15.07.768,t1_Paradigm,2021.1.4,60.003907618336584,
F,right,Target,0,56,56,56,1751.7253318773292,1753.7250710655935,left,0,3,0.747820714226691,M01L12,2022-11-23_12h15.07.768,t1_Paradigm,2021.1.4,60.003907618336584,
S,left,Distractor,0,57,57,57,1755.2254491303174,1757.2257510046766,left,1,3,1.1670122234791052,M01L12,2022-11-23_12h15.07.768,t1_Paradigm,2021.1.4,60.003907618336584,
D,left,Distractor,0,58,58,58,1758.7254653308191,1760.7274093887827,left,1,3,1.1214506906981114,M01L12,2022-11-23_12h15.07.768,t1_Paradigm,2021.1.4,60.003907618336584,
F,right,Target,0,59,59,59,1762.2255225938861,1764.2254003684793,left,0,3,0.8397101749433205,M01L12,2022-11-23_12h15.07.768,t1_Paradigm,2021.1.4,60.003907618336584,
V,left,Pretarget,0,60,60,60,1765.7257094608503,1767.725337651762,left,1,3,0.987445748411119,M01L12,2022-11-23_12h15.07.768,t1_Paradigm,2021.1.4,60.003907618336584,
J,left,Distractor,0,61,61,61,1769.225528368319,1771.2271962160885,left,1,3,0.797531174699543,M01L12,2022-11-23_12h15.07.768,t1_Paradigm,2021.1.4,60.003907618336584,
V,left,Lure,0,62,62,62,1772.7255490600364,1774.7268069232814,left,1,3,1.1539559173688758,M01L12,2022-11-23_12h15.07.768,t1_Paradigm,2021.1.4,60.003907618336584,
V,right,Target,0,63,63,63,1776.225776989595,1778.2254545839387,right,1,3,0.6953327531227842,M01L12,2022-11-23_12h15.07.768,t1_Paradigm,2021.1.4,60.003907618336584,
R,left,Distractor,0,0,0,0,1875.6000020531355,1877.593108025787,None,0,4,,M01L12,2022-11-23_12h15.07.768,t1_Paradigm,2021.1.4,60.003907618336584,
F,left,Distractor,0,1,1,1,1879.0922083375626,1881.0935816894053,None,0,4,,M01L12,2022-11-23_12h15.07.768,t1_Paradigm,2021.1.4,60.003907618336584,
P,left,Pretarget,0,2,2,2,1882.5922668838757,1884.5922117059818,left,1,4,1.0164766933012288,M01L12,2022-11-23_12h15.07.768,t1_Paradigm,2021.1.4,60.003907618336584,
H,left,Distractor,0,3,3,3,1886.0918483981222,1888.0929583718244,left,1,4,1.259850294678472,M01L12,2022-11-23_12h15.07.768,t1_Paradigm,2021.1.4,60.003907618336584,
Z,left,Distractor,0,4,4,4,1889.5917946638365,1891.5925142219348,left,1,4,1.3281319623929448,M01L12,2022-11-23_12h15.07.768,t1_Paradigm,2021.1.4,60.003907618336584,
T,left,Distractor,0,5,5,5,1893.0922705730773,1895.0927787229011,None,0,4,,M01L12,2022-11-23_12h15.07.768,t1_Paradigm,2021.1.4,60.003907618336584,
P,right,Target,0,6,6,6,1896.5919425534084,1898.5918424632982,right,1,4,1.3047885099367704,M01L12,2022-11-23_12h15.07.768,t1_Paradigm,2021.1.4,60.003907618336584,
G,left,Distractor,0,7,7,7,1900.092275705916,1902.0918342828518,None,0,4,,M01L12,2022-11-23_12h15.07.768,t1_Paradigm,2021.1.4,60.003907618336584,
L,left,Distractor,0,8,8,8,1903.592177059414,1905.592471555312,left,1,4,1.1680545080744196,M01L12,2022-11-23_12h15.07.768,t1_Paradigm,2021.1.4,60.003907618336584,
P,left,Lure,0,9,9,9,1907.09191993688,1909.0922615906456,left,1,4,1.3325930300634354,M01L12,2022-11-23_12h15.07.768,t1_Paradigm,2021.1.4,60.003907618336584,
Q,left,Pretarget,0,10,10,10,1910.591950894246,1912.5918177615677,left,1,4,0.7448375797248445,M01L12,2022-11-23_12h15.07.768,t1_Paradigm,2021.1.4,60.003907618336584,
D,left,Distractor,0,11,11,11,1914.092148026859,1916.0939018494391,left,1,4,0.9706569151312578,M01L12,2022-11-23_12h15.07.768,t1_Paradigm,2021.1.4,60.003907618336584,
M,left,Pretarget,0,12,12,12,1917.59226239266,1919.5916977817542,None,0,4,,M01L12,2022-11-23_12h15.07.768,t1_Paradigm,2021.1.4,60.003907618336584,
C,left,Distractor,0,13,13,13,1921.0921785030223,1923.0931162062334,left,1,4,0.8515208083263133,M01L12,2022-11-23_12h15.07.768,t1_Paradigm,2021.1.4,60.003907618336584,
Q,right,Target,0,14,14,14,1924.591952177463,1926.5931535796262,left,0,4,0.6476061300199945,M01L12,2022-11-23_12h15.07.768,t1_Paradigm,2021.1.4,60.003907618336584,
R,left,Distractor,0,15,15,15,1928.0921294203727,1930.0920331798843,left,1,4,0.8606793744838797,M01L12,2022-11-23_12h15.07.768,t1_Paradigm,2021.1.4,60.003907618336584,
M,right,Target,0,16,16,16,1931.5922360869008,1933.593755724316,right,1,4,0.7188058094470762,M01L12,2022-11-23_12h15.07.768,t1_Paradigm,2021.1.4,60.003907618336584,
S,left,Distractor,0,17,17,17,1935.091960037098,1937.0918204883928,left,1,4,1.2367724659852684,M01L12,2022-11-23_12h15.07.768,t1_Paradigm,2021.1.4,60.003907618336584,
Z,left,Distractor,0,18,18,18,1938.5920763276808,1940.5924680265016,None,0,4,,M01L12,2022-11-23_12h15.07.768,t1_Paradigm,2021.1.4,60.003907618336584,
L,left,Pretarget,0,19,19,19,1942.09227634751,1944.0926779911679,None,0,4,,M01L12,2022-11-23_12h15.07.768,t1_Paradigm,2021.1.4,60.003907618336584,
M,right,Target,0,20,20,20,1945.5917651501077,1947.5919496110291,right,1,4,1.2807707323809154,M01L12,2022-11-23_12h15.07.768,t1_Paradigm,2021.1.4,60.003907618336584,
P,left,Distractor,0,21,21,21,1949.0917845586082,1951.0923674551887,left,1,4,0.9482376922096591,M01L12,2022-11-23_12h15.07.768,t1_Paradigm,2021.1.4,60.003907618336584,
F,left,Distractor,0,22,22,22,1952.591662172781,1954.593593398662,left,1,4,1.1750964249658864,M01L12,2022-11-23_12h15.07.768,t1_Paradigm,2021.1.4,60.003907618336584,
L,right,Target,0,23,23,23,1956.0920424831274,1958.0916013808455,right,1,4,0.7650862587615848,M01L12,2022-11-23_12h15.07.768,t1_Paradigm,2021.1.4,60.003907618336584,
L,left,Lure,0,24,24,24,1959.5921690393589,1961.5919377413811,left,1,4,0.9926510759396479,M01L12,2022-11-23_12h15.07.768,t1_Paradigm,2021.1.4,60.003907618336584,
V,left,Pretarget,0,25,25,25,1963.0918230547977,1965.0921451396425,left,1,4,1.1084569408849347,M01L12,2022-11-23_12h15.07.768,t1_Paradigm,2021.1.4,60.003907618336584,
Z,left,Distractor,0,26,26,26,1966.591884488298,1968.5920782524918,right,0,4,1.3044606506300624,M01L12,2022-11-23_12h15.07.768,t1_Paradigm,2021.1.4,60.003907618336584,
H,left,Distractor,0,27,27,27,1970.0920460119378,1972.0934767872677,left,1,4,1.3391036994289607,M01L12,2022-11-23_12h15.07.768,t1_Paradigm,2021.1.4,60.003907618336584,
X,left,Distractor,0,28,28,28,1973.5918431048922,1975.5933787823597,left,1,4,0.7830578877183143,M01L12,2022-11-23_12h15.07.768,t1_Paradigm,2021.1.4,60.003907618336584,
V,right,Target,0,29,29,29,1977.09175151604,1979.0939939195232,right,1,4,0.9787247557251249,M01L12,2022-11-23_12h15.07.768,t1_Paradigm,2021.1.4,60.003907618336584,
C,left,Distractor,0,30,30,30,1980.592063816439,1982.5922627134423,left,1,4,1.1281637859356124,M01L12,2022-11-23_12h15.07.768,t1_Paradigm,2021.1.4,60.003907618336584,
S,left,Pretarget,0,31,31,31,1984.0917216814705,1986.0938177994103,left,1,4,0.7788855414837599,M01L12,2022-11-23_12h15.07.768,t1_Paradigm,2021.1.4,60.003907618336584,
D,left,Distractor,0,32,32,32,1987.5921642273315,1989.5915341729124,left,1,4,0.5611276305862702,M01L12,2022-11-23_12h15.07.768,t1_Paradigm,2021.1.4,60.003907618336584,
V,left,Distractor,0,33,33,33,1991.091987626045,1993.093638150487,left,1,4,1.3790274641360156,M01L12,2022-11-23_12h15.07.768,t1_Paradigm,2021.1.4,60.003907618336584,
R,left,Distractor,0,34,34,34,1994.5920804981142,1996.5921305431693,left,1,4,1.032771812810097,M01L12,2022-11-23_12h15.07.768,t1_Paradigm,2021.1.4,60.003907618336584,
S,right,Target,0,35,35,35,1998.0918525685556,2000.0921977511025,right,1,4,0.5723255328193773,M01L12,2022-11-23_12h15.07.768,t1_Paradigm,2021.1.4,60.003907618336584,
Y,left,Distractor,0,36,36,36,2001.5921023126284,2003.5920978214126,left,1,4,1.072437011403963,M01L12,2022-11-23_12h15.07.768,t1_Paradigm,2021.1.4,60.003907618336584,
N,left,Pretarget,0,37,37,37,2005.092030292668,2007.0927767980902,left,1,4,1.155761709815124,M01L12,2022-11-23_12h15.07.768,t1_Paradigm,2021.1.4,60.003907618336584,
Z,left,Pretarget,0,38,38,38,2008.5920384730853,2010.592088197358,left,1,4,1.3203720914316364,M01L12,2022-11-23_12h15.07.768,t1_Paradigm,2021.1.4,60.003907618336584,
P,left,Pretarget,0,39,39,39,2012.091668107605,2014.093284306291,None,0,4,,M01L12,2022-11-23_12h15.07.768,t1_Paradigm,2021.1.4,60.003907618336584,
M,left,Distractor,0,40,40,40,2015.5917882478097,2017.591623997374,left,1,4,1.3448287256178446,M01L12,2022-11-23_12h15.07.768,t1_Paradigm,2021.1.4,60.003907618336584,
N,right,Target,0,41,41,41,2019.0911949251604,2021.0923485278909,left,0,4,1.0441455143445637,M01L12,2022-11-23_12h15.07.768,t1_Paradigm,2021.1.4,60.003907618336584,
Z,right,Target,0,42,42,42,2022.5920705532772,2024.5921469040622,right,1,4,0.48827935149893165,M01L12,2022-11-23_12h15.07.768,t1_Paradigm,2021.1.4,60.003907618336584,
P,right,Target,0,43,43,43,2026.0920867537498,2028.0921326283715,left,0,4,1.0522832896676846,M01L12,2022-11-23_12h15.07.768,t1_Paradigm,2021.1.4,60.003907618336584,
X,left,Pretarget,0,44,44,44,2029.59166538078,2031.5936835439352,left,1,4,1.038891425007023,M01L12,2022-11-23_12h15.07.768,t1_Paradigm,2021.1.4,60.003907618336584,
Z,left,Lure,0,45,45,45,2033.0919905132614,2035.093071935611,right,0,4,1.0915452405752148,M01L12,2022-11-23_12h15.07.768,t1_Paradigm,2021.1.4,60.003907618336584,
R,left,Pretarget,0,46,46,46,2036.5920705532772,2038.5910680481174,left,1,4,0.8095419883029535,M01L12,2022-11-23_12h15.07.768,t1_Paradigm,2021.1.4,60.003907618336584,
K,left,Distractor,0,47,47,47,2040.0921412900207,2042.0928460912255,left,1,4,0.9234070032835007,M01L12,2022-11-23_12h15.07.768,t1_Paradigm,2021.1.4,60.003907618336584,
X,right,Target,0,48,48,48,2043.5921109742776,2045.592004788923,right,1,4,1.0405602351820562,M01L12,2022-11-23_12h15.07.768,t1_Paradigm,2021.1.4,60.003907618336584,
B,left,Distractor,0,49,49,49,2047.0918124683376,2049.091985059611,left,1,4,1.3646180166688282,M01L12,2022-11-23_12h15.07.768,t1_Paradigm,2021.1.4,60.003907618336584,
R,right,Target,0,50,50,50,2050.5916993857536,2052.594221849082,left,0,4,0.8382575850991998,M01L12,2022-11-23_12h15.07.768,t1_Paradigm,2021.1.4,60.003907618336584,
Y,left,Pretarget,0,51,51,51,2054.091621270549,2056.091864117392,left,1,4,0.9243257791968063,M01L12,2022-11-23_12h15.07.768,t1_Paradigm,2021.1.4,60.003907618336584,
W,left,Pretarget,0,52,52,52,2057.5920397563023,2059.5921975907113,left,1,4,0.8484260348486714,M01L12,2022-11-23_12h15.07.768,t1_Paradigm,2021.1.4,60.003907618336584,
Z,left,Distractor,0,53,53,53,2061.0919780019904,2063.0937430526246,left,1,4,1.074665299616754,M01L12,2022-11-23_12h15.07.768,t1_Paradigm,2021.1.4,60.003907618336584,
Q,left,Distractor,0,54,54,54,2064.591662814375,2066.5915283984796,left,1,4,1.1130456876126118,M01L12,2022-11-23_12h15.07.768,t1_Paradigm,2021.1.4,60.003907618336584,
Y,right,Target,0,55,55,55,2068.09204280391,2070.092240096943,None,0,4,,M01L12,2022-11-23_12h15.07.768,t1_Paradigm,2021.1.4,60.003907618336584,
W,right,Target,0,56,56,56,2071.59185689938,2073.5917465435923,right,1,4,1.2808073037595022,M01L12,2022-11-23_12h15.07.768,t1_Paradigm,2021.1.4,60.003907618336584,
H,left,Pretarget,0,57,57,57,2075.0916183833324,2077.0926494398445,left,1,4,1.2517535819788463,M01L12,2022-11-23_12h15.07.768,t1_Paradigm,2021.1.4,60.003907618336584,
M,left,Distractor,0,58,58,58,2078.5917991550814,2080.591104619525,None,0,4,,M01L12,2022-11-23_12h15.07.768,t1_Paradigm,2021.1.4,60.003907618336584,
R,left,Pretarget,0,59,59,59,2082.0917637064995,2084.092065901641,left,1,4,1.2604732915060595,M01L12,2022-11-23_12h15.07.768,t1_Paradigm,2021.1.4,60.003907618336584,
J,left,Distractor,0,60,60,60,2085.591557591426,2087.61035913424,left,1,4,0.7020179386017844,M01L12,2022-11-23_12h15.07.768,t1_Paradigm,2021.1.4,60.003907618336584,
H,right,Target,0,61,61,61,2089.0915683382773,2091.0935168874857,right,1,4,0.46687289932742715,M01L12,2022-11-23_12h15.07.768,t1_Paradigm,2021.1.4,60.003907618336584,
Z,left,Distractor,0,62,62,62,2092.591755526053,2094.592489841016,left,1,4,1.1919728370849043,M01L12,2022-11-23_12h15.07.768,t1_Paradigm,2021.1.4,60.003907618336584,
R,right,Target,0,63,63,63,2096.09164436828,2098.0934357246733,right,1,4,0.9869513930752873,M01L12,2022-11-23_12h15.07.768,t1_Paradigm,2021.1.4,60.003907618336584,
J,left,Pretarget,0,0,0,0,2105.306016217801,2107.3101959424384,left,1,4,0.39450486030546017,M01L12,2022-11-23_12h15.07.768,t1_Paradigm,2021.1.4,60.003907618336584,
G,left,Pretarget,0,1,1,1,2108.808174410864,2110.80877591396,left,1,4,0.4159623199084308,M01L12,2022-11-23_12h15.07.768,t1_Paradigm,2021.1.4,60.003907618336584,
Z,left,Distractor,0,2,2,2,2112.308375072287,2114.308943212003,left,1,4,0.4353858971153386,M01L12,2022-11-23_12h15.07.768,t1_Paradigm,2021.1.4,60.003907618336584,
F,left,Distractor,0,3,3,3,2115.808261348109,2117.808798370068,left,1,4,1.0477651193214115,M01L12,2022-11-23_12h15.07.768,t1_Paradigm,2021.1.4,60.003907618336584,
J,right,Target,0,4,4,4,2119.308625618374,2121.310046448867,right,1,4,0.47437997863744386,M01L12,2022-11-23_12h15.07.768,t1_Paradigm,2021.1.4,60.003907618336584,
G,right,Target,0,5,5,5,2122.8081910925684,2124.8080906816467,right,1,4,0.7042901766253635,M01L12,2022-11-23_12h15.07.768,t1_Paradigm,2021.1.4,60.003907618336584,
H,left,Distractor,0,6,6,6,2126.3084119644773,2128.3103306791163,None,0,4,,M01L12,2022-11-23_12h15.07.768,t1_Paradigm,2021.1.4,60.003907618336584,
P,left,Distractor,0,7,7,7,2129.8081917341624,2131.8085856785765,None,0,4,,M01L12,2022-11-23_12h15.07.768,t1_Paradigm,2021.1.4,60.003907618336584,
G,left,Lure,0,8,8,8,2133.3080978996877,2135.3097266096156,right,0,4,1.178800079942448,M01L12,2022-11-23_12h15.07.768,t1_Paradigm,2021.1.4,60.003907618336584,
S,left,Distractor,0,9,9,9,2136.808459603548,2138.808466340357,left,1,4,0.7838897263573017,M01L12,2022-11-23_12h15.07.768,t1_Paradigm,2021.1.4,60.003907618336584,
R,left,Pretarget,0,10,10,10,2140.3085409267514,2142.3104650950118,left,1,4,1.1064782363537233,M01L12,2022-11-23_12h15.07.768,t1_Paradigm,2021.1.4,60.003907618336584,
T,left,Pretarget,0,11,11,11,2143.8085757337394,2145.8077718048007,left,1,4,0.744723695126595,M01L12,2022-11-23_12h15.07.768,t1_Paradigm,2021.1.4,60.003907618336584,
X,left,Distractor,0,12,12,12,2147.3086086158874,2149.3087475229986,left,1,4,0.8276015168812592,M01L12,2022-11-23_12h15.07.768,t1_Paradigm,2021.1.4,60.003907618336584,
F,left,Pretarget,0,13,13,13,2150.8085824705777,2152.810569195164,left,1,4,0.6858129643078428,M01L12,2022-11-23_12h15.07.768,t1_Paradigm,2021.1.4,60.003907618336584,
R,right,Target,0,14,14,14,2154.325257258868,2156.3085871221847,right,1,4,0.5160678315733094,M01L12,2022-11-23_12h15.07.768,t1_Paradigm,2021.1.4,60.003907618336584,
T,right,Target,0,15,15,15,2157.808329678868,2159.810191611614,right,1,4,0.6143964229268022,M01L12,2022-11-23_12h15.07.768,t1_Paradigm,2021.1.4,60.003907618336584,
C,left,Distractor,0,16,16,16,2161.3081745712843,2163.308336896909,left,1,4,1.132138839107938,M01L12,2022-11-23_12h15.07.768,t1_Paradigm,2021.1.4,60.003907618336584,
F,right,Target,0,17,17,17,2164.808324866841,2166.808479493222,None,0,4,,M01L12,2022-11-23_12h15.07.768,t1_Paradigm,2021.1.4,60.003907618336584,
M,left,Distractor,0,18,18,18,2168.308516866615,2170.308327593666,left,1,4,0.9641677394974977,M01L12,2022-11-23_12h15.07.768,t1_Paradigm,2021.1.4,60.003907618336584,
N,left,Distractor,0,19,19,19,2171.8085876033874,2173.8083838943567,left,1,4,0.8879436646529939,M01L12,2022-11-23_12h15.07.768,t1_Paradigm,2021.1.4,60.003907618336584,
R,left,Lure,0,20,20,20,2175.30847227521,2177.308922039112,right,0,4,1.1475203155714553,M01L12,2022-11-23_12h15.07.768,t1_Paradigm,2021.1.4,60.003907618336584,
F,right,Target,0,21,21,21,2178.808245308028,2180.8099988098256,right,1,4,0.8147030451509636,M01L12,2022-11-23_12h15.07.768,t1_Paradigm,2021.1.4,60.003907618336584,
P,left,Distractor,0,22,22,22,2182.30813158385,2184.3100079526776,left,1,4,1.1063239307550248,M01L12,2022-11-23_12h15.07.768,t1_Paradigm,2021.1.4,60.003907618336584,
L,left,Pretarget,0,23,23,23,2185.8080890776473,2187.821267288411,None,0,4,,M01L12,2022-11-23_12h15.07.768,t1_Paradigm,2021.1.4,60.003907618336584,
T,left,Distractor,0,24,24,24,2189.3084408366412,2191.3097756922944,left,1,4,1.2746543282119092,M01L12,2022-11-23_12h15.07.768,t1_Paradigm,2021.1.4,60.003907618336584,
F,left,Distractor,0,25,25,25,2192.8085000245483,2194.8091826904274,right,0,4,1.0710873988864478,M01L12,2022-11-23_12h15.07.768,t1_Paradigm,2021.1.4,60.003907618336584,
V,left,Distractor,0,26,26,26,2196.308107844525,2198.31019626325,left,1,4,0.9143620009126607,M01L12,2022-11-23_12h15.07.768,t1_Paradigm,2021.1.4,60.003907618336584,
L,right,Target,0,27,27,27,2199.8079957243463,2201.8093129359186,left,0,4,1.1108469131286256,M01L12,2022-11-23_12h15.07.768,t1_Paradigm,2021.1.4,60.003907618336584,
S,left,Pretarget,0,28,28,28,2203.3080687067413,2205.310126649274,left,1,4,0.922238002094673,M01L12,2022-11-23_12h15.07.768,t1_Paradigm,2021.1.4,60.003907618336584,
W,left,Distractor,0,29,29,29,2206.808241458406,2208.808879212098,left,1,4,1.1833660497504752,M01L12,2022-11-23_12h15.07.768,t1_Paradigm,2021.1.4,60.003907618336584,
Q,left,Distractor,0,30,30,30,2210.3082319947716,2212.310316563846,left,1,4,1.1219671813596506,M01L12,2022-11-23_12h15.07.768,t1_Paradigm,2021.1.4,60.003907618336584,
L,right,Target,0,31,31,31,2213.808096135268,2215.8086055682797,right,1,4,1.0638610210153274,M01L12,2022-11-23_12h15.07.768,t1_Paradigm,2021.1.4,60.003907618336584,
S,right,Target,0,32,32,32,2217.308594500617,2219.310363400902,left,0,4,0.8419962074840441,M01L12,2022-11-23_12h15.07.768,t1_Paradigm,2021.1.4,60.003907618336584,
Z,left,Pretarget,0,33,33,33,2220.808443884249,2222.8103138370498,left,1,4,0.49426583101740107,M01L12,2022-11-23_12h15.07.768,t1_Paradigm,2021.1.4,60.003907618336584,
F,left,Distractor,0,34,34,34,2224.308146019932,2226.308630109619,right,0,4,0.9160420391417574,M01L12,2022-11-23_12h15.07.768,t1_Paradigm,2021.1.4,60.003907618336584,
V,left,Distractor,0,35,35,35,2227.808480134845,2229.80827033057,left,1,4,0.6960099653806537,M01L12,2022-11-23_12h15.07.768,t1_Paradigm,2021.1.4,60.003907618336584,
M,left,Distractor,0,36,36,36,2231.308469708776,2233.308395282802,left,1,4,1.2759795598103665,M01L12,2022-11-23_12h15.07.768,t1_Paradigm,2021.1.4,60.003907618336584,
Z,right,Target,0,37,37,37,2234.808430731384,2236.808612305118,right,1,4,0.8317530109779909,M01L12,2022-11-23_12h15.07.768,t1_Paradigm,2021.1.4,60.003907618336584,
H,left,Pretarget,0,38,38,38,2238.3085088465887,2240.3083850171533,left,1,4,0.6757770056428853,M01L12,2022-11-23_12h15.07.768,t1_Paradigm,2021.1.4,60.003907618336584,
L,left,Distractor,0,39,39,39,2241.808183072513,2243.810072594206,left,1,4,1.1583005340362433,M01L12,2022-11-23_12h15.07.768,t1_Paradigm,2021.1.4,60.003907618336584,
G,left,Distractor,0,40,40,40,2245.3083753930987,2247.3099415467295,left,1,4,1.1784539349609986,M01L12,2022-11-23_12h15.07.768,t1_Paradigm,2021.1.4,60.003907618336584,
K,left,Distractor,0,41,41,41,2248.808420786547,2250.8083290372742,left,1,4,0.8641286337515339,M01L12,2022-11-23_12h15.07.768,t1_Paradigm,2021.1.4,60.003907618336584,
H,right,Target,0,42,42,42,2252.308390791586,2254.309756444185,right,1,4,0.8184657276142389,M01L12,2022-11-23_12h15.07.768,t1_Paradigm,2021.1.4,60.003907618336584,
B,left,Distractor,0,43,43,43,2255.807945037697,2257.809100886021,left,1,4,1.3032210730598308,M01L12,2022-11-23_12h15.07.768,t1_Paradigm,2021.1.4,60.003907618336584,
Z,left,Distractor,0,44,44,44,2259.3083590322058,2261.3086192023475,left,1,4,1.3077270529756788,M01L12,2022-11-23_12h15.07.768,t1_Paradigm,2021.1.4,60.003907618336584,
T,left,Pretarget,0,45,45,45,2262.808030370943,2264.8097877223336,left,1,4,1.1343536536733154,M01L12,2022-11-23_12h15.07.768,t1_Paradigm,2021.1.4,60.003907618336584,
H,right,Target,0,46,46,46,2266.308166551229,2268.3095107101253,right,1,4,1.1387146312044933,M01L12,2022-11-23_12h15.07.768,t1_Paradigm,2021.1.4,60.003907618336584,
F,left,Distractor,0,47,47,47,2269.8079854586977,2271.810184553964,left,1,4,1.270045691751875,M01L12,2022-11-23_12h15.07.768,t1_Paradigm,2021.1.4,60.003907618336584,
R,left,Distractor,0,48,48,48,2273.3081517943647,2275.3099277522706,left,1,4,0.7624287379148882,M01L12,2022-11-23_12h15.07.768,t1_Paradigm,2021.1.4,60.003907618336584,
T,right,Target,0,49,49,49,2276.8078985214524,2278.809628925519,left,0,4,0.7025430908834096,M01L12,2022-11-23_12h15.07.768,t1_Paradigm,2021.1.4,60.003907618336584,
H,right,Target,0,50,50,50,2280.308227503556,2282.3091668107663,right,1,4,0.5471114859392401,M01L12,2022-11-23_12h15.07.768,t1_Paradigm,2021.1.4,60.003907618336584,
Y,left,Pretarget,0,51,51,51,2283.8083688166807,2285.807908787101,left,1,4,1.1764158821315505,M01L12,2022-11-23_12h15.07.768,t1_Paradigm,2021.1.4,60.003907618336584,
H,left,Distractor,0,52,52,52,2287.3082056890416,2289.3085152626154,left,1,4,1.435689696285408,M01L12,2022-11-23_12h15.07.768,t1_Paradigm,2021.1.4,60.003907618336584,
S,left,Distractor,0,53,53,53,2290.8079524161294,2292.808854189556,left,1,4,1.1513022461440414,M01L12,2022-11-23_12h15.07.768,t1_Paradigm,2021.1.4,60.003907618336584,
Q,left,Distractor,0,54,54,54,2294.3081617392018,2296.3083879043697,left,1,4,1.3162096900632605,M01L12,2022-11-23_12h15.07.768,t1_Paradigm,2021.1.4,60.003907618336584,
Y,right,Target,0,55,55,55,2297.808133669052,2299.8101399625593,None,0,4,,M01L12,2022-11-23_12h15.07.768,t1_Paradigm,2021.1.4,60.003907618336584,
R,left,Distractor,0,56,56,56,2301.308050741849,2303.308192856959,left,1,4,0.8759334927017335,M01L12,2022-11-23_12h15.07.768,t1_Paradigm,2021.1.4,60.003907618336584,
H,left,Pretarget,0,57,57,57,2304.808339302923,2306.8100020178535,right,0,4,1.0701936455152463,M01L12,2022-11-23_12h15.07.768,t1_Paradigm,2021.1.4,60.003907618336584,
J,left,Distractor,0,58,58,58,2308.3083096287737,2310.3089938986814,left,1,4,0.7549373779329471,M01L12,2022-11-23_12h15.07.768,t1_Paradigm,2021.1.4,60.003907618336584,
V,left,Distractor,0,59,59,59,2311.80813687708,2313.8099830905558,left,1,4,1.0783420072693843,M01L12,2022-11-23_12h15.07.768,t1_Paradigm,2021.1.4,60.003907618336584,
Y,left,Lure,0,60,60,60,2315.308317007206,2317.3098042436177,right,0,4,0.9224487688043155,M01L12,2022-11-23_12h15.07.768,t1_Paradigm,2021.1.4,60.003907618336584,
H,right,Target,0,61,61,61,2318.808322300436,2320.808407954464,left,0,4,0.7836327642435208,M01L12,2022-11-23_12h15.07.768,t1_Paradigm,2021.1.4,60.003907618336584,
L,left,Distractor,0,62,62,62,2322.3080003759824,2324.3085245658585,left,1,4,0.6913910633011255,M01L12,2022-11-23_12h15.07.768,t1_Paradigm,2021.1.4,60.003907618336584,
P,left,Distractor,0,63,63,63,2325.8079386216705,2327.8105024684046,left,1,4,1.3978713527612854,M01L12,2022-11-23_12h15.07.768,t1_Paradigm,2021.1.4,60.003907618336584,
