Currentstep,EDround.thisRepN,EDround.thisTrialN,EDround.thisN,EDround.thisIndex,question.started,EDclick.clicked_name,EDleftbutton.wasclicked,EDrightbutton.wasclicked,EDleftbutton.value,EDrightbutton.value,EDleftbutton.nback,EDrightbutton.nback,Participant,date,expName,psychopyVersion,frameRate,
,,,,,,,,,,,,,M01L12,2022-11-23_12h15.07.768,t1_Paradigm,2021.1.4,60.003907618336584,
0,0,0,0,0,2539.7033271300897,EDleftbutton,1,0,1.00,2.00,3,4,M01L12,2022-11-23_12h15.07.768,t1_Paradigm,2021.1.4,60.003907618336584,
1,0,1,1,1,2552.9423182602623,EDrightbutton,0,1,0.50,2.00,3,4,M01L12,2022-11-23_12h15.07.768,t1_Paradigm,2021.1.4,60.003907618336584,
2,0,2,2,2,2556.689773581398,EDrightbutton,0,1,0.75,2.00,3,4,M01L12,2022-11-23_12h15.07.768,t1_Paradigm,2021.1.4,60.003907618336584,
3,0,3,3,3,2562.319550518412,EDrightbutton,0,1,0.88,2.00,3,4,M01L12,2022-11-23_12h15.07.768,t1_Paradigm,2021.1.4,60.003907618336584,
4,0,4,4,4,2570.08697798755,EDleftbutton,1,0,0.94,2.00,3,4,M01L12,2022-11-23_12h15.07.768,t1_Paradigm,2021.1.4,60.003907618336584,
5,0,5,5,5,2571.800170089031,EDleftbutton,1,0,0.91,2.00,3,4,M01L12,2022-11-23_12h15.07.768,t1_Paradigm,2021.1.4,60.003907618336584,
0,0,0,0,0,2575.157800083485,EDleftbutton,1,0,1.00,2.00,2,4,M01L12,2022-11-23_12h15.07.768,t1_Paradigm,2021.1.4,60.003907618336584,
1,0,1,1,1,2580.666686128621,EDrightbutton,0,1,0.50,2.00,2,4,M01L12,2022-11-23_12h15.07.768,t1_Paradigm,2021.1.4,60.003907618336584,
2,0,2,2,2,2583.367784970498,EDleftbutton,1,0,0.75,2.00,2,4,M01L12,2022-11-23_12h15.07.768,t1_Paradigm,2021.1.4,60.003907618336584,
3,0,3,3,3,2588.9907731030835,EDrightbutton,0,1,0.62,2.00,2,4,M01L12,2022-11-23_12h15.07.768,t1_Paradigm,2021.1.4,60.003907618336584,
4,0,4,4,4,2591.230145024805,EDrightbutton,0,1,0.68,2.00,2,4,M01L12,2022-11-23_12h15.07.768,t1_Paradigm,2021.1.4,60.003907618336584,
5,0,5,5,5,2592.9814275095705,EDrightbutton,0,1,0.71,2.00,2,4,M01L12,2022-11-23_12h15.07.768,t1_Paradigm,2021.1.4,60.003907618336584,
0,0,0,0,0,2595.8836067472294,EDleftbutton,1,0,1.00,2.00,1,3,M01L12,2022-11-23_12h15.07.768,t1_Paradigm,2021.1.4,60.003907618336584,
1,0,1,1,1,2600.547852858552,EDleftbutton,1,0,0.50,2.00,1,3,M01L12,2022-11-23_12h15.07.768,t1_Paradigm,2021.1.4,60.003907618336584,
2,0,2,2,2,2605.5167707079963,EDrightbutton,0,1,0.25,2.00,1,3,M01L12,2022-11-23_12h15.07.768,t1_Paradigm,2021.1.4,60.003907618336584,
3,0,3,3,3,2607.182384075917,EDrightbutton,0,1,0.38,2.00,1,3,M01L12,2022-11-23_12h15.07.768,t1_Paradigm,2021.1.4,60.003907618336584,
4,0,4,4,4,2608.8508503328776,EDrightbutton,0,1,0.44,2.00,1,3,M01L12,2022-11-23_12h15.07.768,t1_Paradigm,2021.1.4,60.003907618336584,
5,0,5,5,5,2610.1247129226394,EDrightbutton,0,1,0.47,2.00,1,3,M01L12,2022-11-23_12h15.07.768,t1_Paradigm,2021.1.4,60.003907618336584,
0,0,0,0,0,2611.5863760032807,EDrightbutton,0,1,1.00,2.00,1,2,M01L12,2022-11-23_12h15.07.768,t1_Paradigm,2021.1.4,60.003907618336584,
1,0,1,1,1,2614.73325503635,EDrightbutton,0,1,1.50,2.00,1,2,M01L12,2022-11-23_12h15.07.768,t1_Paradigm,2021.1.4,60.003907618336584,
2,0,2,2,2,2617.36622106249,EDrightbutton,0,1,1.75,2.00,1,2,M01L12,2022-11-23_12h15.07.768,t1_Paradigm,2021.1.4,60.003907618336584,
3,0,3,3,3,2621.7531684776477,EDrightbutton,0,1,1.88,2.00,1,2,M01L12,2022-11-23_12h15.07.768,t1_Paradigm,2021.1.4,60.003907618336584,
4,0,4,4,4,2630.4472866757133,EDleftbutton,1,0,1.94,2.00,1,2,M01L12,2022-11-23_12h15.07.768,t1_Paradigm,2021.1.4,60.003907618336584,
5,0,5,5,5,2632.4955974786135,EDleftbutton,1,0,1.91,2.00,1,2,M01L12,2022-11-23_12h15.07.768,t1_Paradigm,2021.1.4,60.003907618336584,
0,0,0,0,0,2635.982068792073,EDleftbutton,1,0,1.00,2.00,1,4,M01L12,2022-11-23_12h15.07.768,t1_Paradigm,2021.1.4,60.003907618336584,
1,0,1,1,1,2639.6136819976673,EDleftbutton,1,0,0.50,2.00,1,4,M01L12,2022-11-23_12h15.07.768,t1_Paradigm,2021.1.4,60.003907618336584,
2,0,2,2,2,2642.090122806083,EDrightbutton,0,1,0.25,2.00,1,4,M01L12,2022-11-23_12h15.07.768,t1_Paradigm,2021.1.4,60.003907618336584,
3,0,3,3,3,2643.781740676146,EDrightbutton,0,1,0.38,2.00,1,4,M01L12,2022-11-23_12h15.07.768,t1_Paradigm,2021.1.4,60.003907618336584,
4,0,4,4,4,2645.564243576984,EDrightbutton,0,1,0.44,2.00,1,4,M01L12,2022-11-23_12h15.07.768,t1_Paradigm,2021.1.4,60.003907618336584,
5,0,5,5,5,2646.482590255124,EDrightbutton,0,1,0.47,2.00,1,4,M01L12,2022-11-23_12h15.07.768,t1_Paradigm,2021.1.4,60.003907618336584,
0,0,0,0,0,2647.8132687409816,EDleftbutton,1,0,1.00,2.00,2,3,M01L12,2022-11-23_12h15.07.768,t1_Paradigm,2021.1.4,60.003907618336584,
1,0,1,1,1,2652.340300931188,EDleftbutton,1,0,0.50,2.00,2,3,M01L12,2022-11-23_12h15.07.768,t1_Paradigm,2021.1.4,60.003907618336584,
2,0,2,2,2,2658.647719372995,EDrightbutton,0,1,0.25,2.00,2,3,M01L12,2022-11-23_12h15.07.768,t1_Paradigm,2021.1.4,60.003907618336584,
3,0,3,3,3,2660.596828362468,EDrightbutton,0,1,0.38,2.00,2,3,M01L12,2022-11-23_12h15.07.768,t1_Paradigm,2021.1.4,60.003907618336584,
4,0,4,4,4,2661.8966325772053,EDrightbutton,0,1,0.44,2.00,2,3,M01L12,2022-11-23_12h15.07.768,t1_Paradigm,2021.1.4,60.003907618336584,
5,0,5,5,5,2664.9663690803573,EDrightbutton,0,1,0.47,2.00,2,3,M01L12,2022-11-23_12h15.07.768,t1_Paradigm,2021.1.4,60.003907618336584,
