Letter,CorrAnswer,Stimulus,nback_run.thisRepN,nback_run.thisTrialN,nback_run.thisN,nback_run.thisIndex,fixcross.started,nback_trial.started,trial_resp.keys,trial_resp.corr,currentlevel,trial_resp.rt,Participant,date,expName,psychopyVersion,frameRate,
H,left,Distractor,0,0,0,0,229.17831648266292,231.11625317434664,None,0,1,,M09A06,2022-11-17_09h14.11.561,t1_Paradigm,2021.1.4,59.97268012072879,
Q,left,Pretarget,0,1,1,1,232.61799160012743,234.61823508879752,left,1,1,0.6442822826211341,M09A06,2022-11-17_09h14.11.561,t1_Paradigm,2021.1.4,59.97268012072879,
Q,right,Target,0,2,2,2,236.11625894877943,238.11620601644972,right,1,1,0.6180586477275938,M09A06,2022-11-17_09h14.11.561,t1_Paradigm,2021.1.4,59.97268012072879,
T,left,Distractor,0,3,3,3,239.61623585101916,241.6178607129259,left,1,1,0.732336002838565,M09A06,2022-11-17_09h14.11.561,t1_Paradigm,2021.1.4,59.97268012072879,
Q,left,Lure,0,4,4,4,243.11625189112965,245.11726722930325,left,1,1,0.5770380227186251,M09A06,2022-11-17_09h14.11.561,t1_Paradigm,2021.1.4,59.97268012072879,
L,left,Distractor,0,5,5,5,246.61626921442803,248.6178446728154,left,1,1,0.7404936756938696,M09A06,2022-11-17_09h14.11.561,t1_Paradigm,2021.1.4,59.97268012072879,
V,left,Pretarget,0,6,6,6,250.11624162545195,252.12893126753625,left,1,1,0.5733558578940574,M09A06,2022-11-17_09h14.11.561,t1_Paradigm,2021.1.4,59.97268012072879,
V,right,Target,0,7,7,7,253.61627370567294,255.61601449767477,right,1,1,0.6222749478183687,M09A06,2022-11-17_09h14.11.561,t1_Paradigm,2021.1.4,59.97268012072879,
K,left,Distractor,0,8,8,8,257.1153501168301,259.11795695350156,left,1,1,0.7523508367303293,M09A06,2022-11-17_09h14.11.561,t1_Paradigm,2021.1.4,59.97268012072879,
G,left,Pretarget,0,9,9,9,260.6161877307459,262.6178138758405,left,1,1,0.5485206538869534,M09A06,2022-11-17_09h14.11.561,t1_Paradigm,2021.1.4,59.97268012072879,
G,right,Target,0,10,10,10,264.1161716906354,266.11616976582445,right,1,1,0.4098832024028525,M09A06,2022-11-17_09h14.11.561,t1_Paradigm,2021.1.4,59.97268012072879,
G,right,Target,0,11,11,11,267.6162538159406,269.6162852545385,right,1,1,0.5261190534511115,M09A06,2022-11-17_09h14.11.561,t1_Paradigm,2021.1.4,59.97268012072879,
P,left,Pretarget,0,12,12,12,271.1162390590471,273.11777794602676,left,1,1,0.5286408776009921,M09A06,2022-11-17_09h14.11.561,t1_Paradigm,2021.1.4,59.97268012072879,
P,right,Target,0,13,13,13,274.61618740993435,276.6161604625813,right,1,1,0.7582337029452901,M09A06,2022-11-17_09h14.11.561,t1_Paradigm,2021.1.4,59.97268012072879,
G,left,Lure,0,14,14,14,278.1162875001319,280.1158021267911,left,1,1,0.6184227579506114,M09A06,2022-11-17_09h14.11.561,t1_Paradigm,2021.1.4,59.97268012072879,
Y,left,Distractor,0,15,15,15,281.61605363551644,283.61788509387407,left,1,1,0.668343712342903,M09A06,2022-11-17_09h14.11.561,t1_Paradigm,2021.1.4,59.97268012072879,
B,left,Distractor,0,16,16,16,285.116239700641,287.11762781071593,right,0,1,0.49683368470869027,M09A06,2022-11-17_09h14.11.561,t1_Paradigm,2021.1.4,59.97268012072879,
T,left,Pretarget,0,17,17,17,288.6161485929042,290.6183611639717,left,1,1,0.6759252249030396,M09A06,2022-11-17_09h14.11.561,t1_Paradigm,2021.1.4,59.97268012072879,
T,right,Target,0,18,18,18,292.11617682347423,294.1162368134246,right,1,1,0.6180211138853338,M09A06,2022-11-17_09h14.11.561,t1_Paradigm,2021.1.4,59.97268012072879,
S,left,Distractor,0,19,19,19,295.6161540465255,297.61782029186725,left,1,1,0.8446356139029376,M09A06,2022-11-17_09h14.11.561,t1_Paradigm,2021.1.4,59.97268012072879,
T,left,Lure,0,20,20,20,299.11623456783127,301.11579410673585,left,1,1,0.642629510955885,M09A06,2022-11-17_09h14.11.561,t1_Paradigm,2021.1.4,59.97268012072879,
J,left,Distractor,0,21,21,21,302.6162762720778,304.61789343471173,left,1,1,0.8044407331326511,M09A06,2022-11-17_09h14.11.561,t1_Paradigm,2021.1.4,59.97268012072879,
P,left,Distractor,0,22,22,22,306.11575176089536,308.1177343169693,left,1,1,0.6325502343825065,M09A06,2022-11-17_09h14.11.561,t1_Paradigm,2021.1.4,59.97268012072879,
F,left,Distractor,0,23,23,23,309.6161790690967,311.6188949784264,left,1,1,0.6194169232039712,M09A06,2022-11-17_09h14.11.561,t1_Paradigm,2021.1.4,59.97268012072879,
L,left,Distractor,0,24,24,24,313.1162583071564,315.11770416155923,left,1,1,0.6247207419073675,M09A06,2022-11-17_09h14.11.561,t1_Paradigm,2021.1.4,59.97268012072879,
W,left,Pretarget,0,25,25,25,316.6161630289862,318.6186928731913,left,1,1,0.6755447537871078,M09A06,2022-11-17_09h14.11.561,t1_Paradigm,2021.1.4,59.97268012072879,
W,right,Target,0,26,26,26,320.11622430215357,322.116286216944,right,1,1,0.5701930714712944,M09A06,2022-11-17_09h14.11.561,t1_Paradigm,2021.1.4,59.97268012072879,
V,left,Distractor,0,27,27,27,323.6161559713364,325.61829251234303,left,1,1,0.6839770331571344,M09A06,2022-11-17_09h14.11.561,t1_Paradigm,2021.1.4,59.97268012072879,
W,left,Lure,0,28,28,28,327.1161646329856,329.1161707282299,left,1,1,1.3142685009806883,M09A06,2022-11-17_09h14.11.561,t1_Paradigm,2021.1.4,59.97268012072879,
R,left,Pretarget,0,29,29,29,330.6158682119858,332.6178097054071,None,0,1,,M09A06,2022-11-17_09h14.11.561,t1_Paradigm,2021.1.4,59.97268012072879,
R,right,Target,0,30,30,30,334.11618452271796,336.1162483623193,right,1,1,0.7780310331145301,M09A06,2022-11-17_09h14.11.561,t1_Paradigm,2021.1.4,59.97268012072879,
G,left,Distractor,0,31,31,31,337.61629584099865,339.6157860866806,left,1,1,0.7824978794960771,M09A06,2022-11-17_09h14.11.561,t1_Paradigm,2021.1.4,59.97268012072879,
R,left,Lure,0,32,32,32,341.1162380966416,343.1176040713617,left,1,1,0.7046517566486727,M09A06,2022-11-17_09h14.11.561,t1_Paradigm,2021.1.4,59.97268012072879,
S,left,Distractor,0,33,33,33,344.6162217357487,346.6179502166633,left,1,1,0.5964805459079798,M09A06,2022-11-17_09h14.11.561,t1_Paradigm,2021.1.4,59.97268012072879,
R,left,Lure,0,34,34,34,348.11615372574306,350.11682580583147,left,1,1,0.6174520112399478,M09A06,2022-11-17_09h14.11.561,t1_Paradigm,2021.1.4,59.97268012072879,
P,left,Pretarget,0,35,35,35,351.6158739864186,353.61730508392793,left,1,1,0.6530045669642277,M09A06,2022-11-17_09h14.11.561,t1_Paradigm,2021.1.4,59.97268012072879,
P,right,Target,0,36,36,36,355.11584286863217,357.1161546881485,right,1,1,0.5780950651678722,M09A06,2022-11-17_09h14.11.561,t1_Paradigm,2021.1.4,59.97268012072879,
Y,left,Pretarget,0,37,37,37,358.6161777858797,360.6168088033155,left,1,1,0.6136094454559498,M09A06,2022-11-17_09h14.11.561,t1_Paradigm,2021.1.4,59.97268012072879,
Y,right,Target,0,38,38,38,362.11624483347987,364.1161161919008,right,1,1,0.6501154245634098,M09A06,2022-11-17_09h14.11.561,t1_Paradigm,2021.1.4,59.97268012072879,
J,left,Distractor,0,39,39,39,365.61614506406477,367.6181478306826,left,1,1,0.6041079331771471,M09A06,2022-11-17_09h14.11.561,t1_Paradigm,2021.1.4,59.97268012072879,
Y,left,Lure,0,40,40,40,369.11621820690925,371.1173034799285,left,1,1,1.041074519715039,M09A06,2022-11-17_09h14.11.561,t1_Paradigm,2021.1.4,59.97268012072879,
T,left,Distractor,0,41,41,41,372.6160295753798,374.61687392610474,left,1,1,0.8534801237401552,M09A06,2022-11-17_09h14.11.561,t1_Paradigm,2021.1.4,59.97268012072879,
V,left,Distractor,0,42,42,42,376.11614057284896,378.11731406638864,left,1,1,0.7131340811029077,M09A06,2022-11-17_09h14.11.561,t1_Paradigm,2021.1.4,59.97268012072879,
N,left,Pretarget,0,43,43,43,379.61611105906195,381.6177096152096,left,1,1,0.6684880732209422,M09A06,2022-11-17_09h14.11.561,t1_Paradigm,2021.1.4,59.97268012072879,
N,right,Target,0,44,44,44,383.11613159038825,385.1162012044224,right,1,1,0.40203895306331106,M09A06,2022-11-17_09h14.11.561,t1_Paradigm,2021.1.4,59.97268012072879,
N,right,Target,0,45,45,45,386.6161145879014,388.6161457056878,right,1,1,0.5020643605676014,M09A06,2022-11-17_09h14.11.561,t1_Paradigm,2021.1.4,59.97268012072879,
X,left,Distractor,0,46,46,46,390.11611234227894,392.11894406113424,left,1,1,0.535296234942507,M09A06,2022-11-17_09h14.11.561,t1_Paradigm,2021.1.4,59.97268012072879,
Z,left,Distractor,0,47,47,47,393.61615372574306,395.61624483347987,left,1,1,0.5900433339120355,M09A06,2022-11-17_09h14.11.561,t1_Paradigm,2021.1.4,59.97268012072879,
H,left,Pretarget,0,48,48,48,397.11627659288934,399.11780008135247,left,1,1,0.8484955029853154,M09A06,2022-11-17_09h14.11.561,t1_Paradigm,2021.1.4,59.97268012072879,
H,right,Target,0,49,49,49,400.61628140491666,402.6161322320113,right,1,1,0.6302962798508815,M09A06,2022-11-17_09h14.11.561,t1_Paradigm,2021.1.4,59.97268012072879,
K,left,Distractor,0,50,50,50,404.1162146780989,406.11713634210173,left,1,1,0.64913537458051,M09A06,2022-11-17_09h14.11.561,t1_Paradigm,2021.1.4,59.97268012072879,
V,left,Pretarget,0,51,51,51,407.6162060164497,409.61837495845975,left,1,1,0.6998705243167933,M09A06,2022-11-17_09h14.11.561,t1_Paradigm,2021.1.4,59.97268012072879,
V,right,Target,0,52,52,52,411.1162156405044,413.1163539061381,right,1,1,0.44974059954984114,M09A06,2022-11-17_09h14.11.561,t1_Paradigm,2021.1.4,59.97268012072879,
R,left,Distractor,0,53,53,53,414.6161062470346,416.61775901869987,left,1,1,0.62863741297042,M09A06,2022-11-17_09h14.11.561,t1_Paradigm,2021.1.4,59.97268012072879,
V,left,Lure,0,54,54,54,418.1162101868831,420.11800090337056,left,1,1,0.8723570731235668,M09A06,2022-11-17_09h14.11.561,t1_Paradigm,2021.1.4,59.97268012072879,
Y,left,Distractor,0,55,55,55,421.615832923766,423.6177561314835,left,1,1,0.9885104780260008,M09A06,2022-11-17_09h14.11.561,t1_Paradigm,2021.1.4,59.97268012072879,
Q,left,Distractor,0,56,56,56,425.116109134251,427.11712607645313,left,1,1,0.8011169040983077,M09A06,2022-11-17_09h14.11.561,t1_Paradigm,2021.1.4,59.97268012072879,
Z,left,Pretarget,0,57,57,57,428.61617393625784,430.61775741470046,left,1,1,0.6285934630723204,M09A06,2022-11-17_09h14.11.561,t1_Paradigm,2021.1.4,59.97268012072879,
Z,right,Target,0,58,58,58,432.11588361047325,434.1161133046844,right,1,1,0.6341202391486149,M09A06,2022-11-17_09h14.11.561,t1_Paradigm,2021.1.4,59.97268012072879,
B,left,Distractor,0,59,59,59,435.61635294373264,437.6179973745602,left,1,1,0.5083645901468117,M09A06,2022-11-17_09h14.11.561,t1_Paradigm,2021.1.4,59.97268012072879,
S,left,Pretarget,0,60,60,60,439.1161761818803,441.1173897756671,left,1,1,0.9130116630985867,M09A06,2022-11-17_09h14.11.561,t1_Paradigm,2021.1.4,59.97268012072879,
S,right,Target,0,61,61,61,442.61596413177904,444.6162310389918,right,1,1,0.6942619437759276,M09A06,2022-11-17_09h14.11.561,t1_Paradigm,2021.1.4,59.97268012072879,
T,left,Distractor,0,62,62,62,446.1159163322882,448.11762781071593,left,1,1,0.9366178748314269,M09A06,2022-11-17_09h14.11.561,t1_Paradigm,2021.1.4,59.97268012072879,
D,left,Distractor,0,63,63,63,449.6160780164646,451.61785525930463,left,1,1,0.6685759729880374,M09A06,2022-11-17_09h14.11.561,t1_Paradigm,2021.1.4,59.97268012072879,
R,left,Distractor,0,0,0,0,463.1000911719166,465.1009031216672,None,0,1,,M09A06,2022-11-17_09h14.11.561,t1_Paradigm,2021.1.4,59.97268012072879,
V,left,Distractor,0,1,1,1,466.5996057985467,468.60091082091094,left,1,1,0.7095260215282906,M09A06,2022-11-17_09h14.11.561,t1_Paradigm,2021.1.4,59.97268012072879,
N,left,Pretarget,0,2,2,2,470.0993642346875,472.0996629013098,left,1,1,0.8426732683437876,M09A06,2022-11-17_09h14.11.561,t1_Paradigm,2021.1.4,59.97268012072879,
N,right,Target,0,3,3,3,473.5992695981113,475.5995839840325,right,1,1,0.5907750831975136,M09A06,2022-11-17_09h14.11.561,t1_Paradigm,2021.1.4,59.97268012072879,
S,left,Distractor,0,4,4,4,477.09953458051314,479.09945405923645,left,1,1,0.514840939984424,M09A06,2022-11-17_09h14.11.561,t1_Paradigm,2021.1.4,59.97268012072879,
N,left,Lure,0,5,5,5,480.5995519038406,482.60080399384606,left,1,1,0.8054830186883919,M09A06,2022-11-17_09h14.11.561,t1_Paradigm,2021.1.4,59.97268012072879,
Z,left,Distractor,0,6,6,6,484.0994008061243,486.10057494125795,left,1,1,0.6656778481265064,M09A06,2022-11-17_09h14.11.561,t1_Paradigm,2021.1.4,59.97268012072879,
L,left,Pretarget,0,7,7,7,487.599218911404,489.6007985402248,left,1,1,0.6214678100659512,M09A06,2022-11-17_09h14.11.561,t1_Paradigm,2021.1.4,59.97268012072879,
L,right,Target,0,8,8,8,491.09942743266583,493.0995268812694,right,1,1,0.5308245765045285,M09A06,2022-11-17_09h14.11.561,t1_Paradigm,2021.1.4,59.97268012072879,
H,left,Distractor,0,9,9,9,494.5990424703341,496.6010115527315,left,1,1,0.5171972303360235,M09A06,2022-11-17_09h14.11.561,t1_Paradigm,2021.1.4,59.97268012072879,
L,left,Lure,0,10,10,10,498.0994110717729,500.10109464041307,left,1,1,0.7133044269285165,M09A06,2022-11-17_09h14.11.561,t1_Paradigm,2021.1.4,59.97268012072879,
X,left,Pretarget,0,11,11,11,501.59946432488505,503.60112800382194,left,1,1,0.6691386595775839,M09A06,2022-11-17_09h14.11.561,t1_Paradigm,2021.1.4,59.97268012072879,
X,right,Target,0,12,12,12,505.0994036933407,507.0995387509465,right,1,1,0.6267286413349211,M09A06,2022-11-17_09h14.11.561,t1_Paradigm,2021.1.4,59.97268012072879,
X,right,Target,0,13,13,13,508.5992564452463,510.5994986506994,right,1,1,0.6631146404833999,M09A06,2022-11-17_09h14.11.561,t1_Paradigm,2021.1.4,59.97268012072879,
R,left,Distractor,0,14,14,14,512.0994139589893,514.100181317277,left,1,1,0.522042623051675,M09A06,2022-11-17_09h14.11.561,t1_Paradigm,2021.1.4,59.97268012072879,
T,left,Distractor,0,15,15,15,515.5994383399375,517.5996632221213,left,1,1,0.5266538303112611,M09A06,2022-11-17_09h14.11.561,t1_Paradigm,2021.1.4,59.97268012072879,
V,left,Pretarget,0,16,16,16,519.0995910416823,521.0999849864747,left,1,1,0.6105897366360296,M09A06,2022-11-17_09h14.11.561,t1_Paradigm,2021.1.4,59.97268012072879,
V,right,Target,0,17,17,17,522.5995018587273,524.5995041043498,right,1,1,0.8227450510021299,M09A06,2022-11-17_09h14.11.561,t1_Paradigm,2021.1.4,59.97268012072879,
N,left,Distractor,0,18,18,18,526.0995673023281,528.099567943922,left,1,1,0.5386986604426056,M09A06,2022-11-17_09h14.11.561,t1_Paradigm,2021.1.4,59.97268012072879,
B,left,Distractor,0,19,19,19,529.5993799539865,531.6009300690203,left,1,1,0.6213459053542465,M09A06,2022-11-17_09h14.11.561,t1_Paradigm,2021.1.4,59.97268012072879,
V,left,Lure,0,20,20,20,533.0990071821143,535.1005659587972,left,1,1,1.057796000764938,M09A06,2022-11-17_09h14.11.561,t1_Paradigm,2021.1.4,59.97268012072879,
P,left,Distractor,0,21,21,21,536.5994559840474,538.6003968961886,left,1,1,0.629971628281055,M09A06,2022-11-17_09h14.11.561,t1_Paradigm,2021.1.4,59.97268012072879,
K,left,Pretarget,0,22,22,22,540.0995573574619,542.1000581293192,left,1,1,0.5701998082804494,M09A06,2022-11-17_09h14.11.561,t1_Paradigm,2021.1.4,59.97268012072879,
K,right,Target,0,23,23,23,543.5994710617524,545.599410430179,right,1,1,0.6708289650850929,M09A06,2022-11-17_09h14.11.561,t1_Paradigm,2021.1.4,59.97268012072879,
J,left,Pretarget,0,24,24,24,547.0994726657518,549.101403572713,left,1,1,0.9129664299834985,M09A06,2022-11-17_09h14.11.561,t1_Paradigm,2021.1.4,59.97268012072879,
J,right,Target,0,25,25,25,550.5994146005833,552.5994899890502,right,1,1,0.6308955379063264,M09A06,2022-11-17_09h14.11.561,t1_Paradigm,2021.1.4,59.97268012072879,
H,left,Distractor,0,26,26,26,554.0993975980964,556.1010535777896,left,1,1,0.5531758110155351,M09A06,2022-11-17_09h14.11.561,t1_Paradigm,2021.1.4,59.97268012072879,
J,left,Lure,0,27,27,27,557.599570510356,559.6007029412431,left,1,1,0.9735713726549875,M09A06,2022-11-17_09h14.11.561,t1_Paradigm,2021.1.4,59.97268012072879,
V,left,Distractor,0,28,28,28,561.0994341695041,563.1157110190252,left,1,1,1.3147250021575019,M09A06,2022-11-17_09h14.11.561,t1_Paradigm,2021.1.4,59.97268012072879,
Z,left,Pretarget,0,29,29,29,564.5994069013395,566.6011164549564,left,1,1,0.5650422752660234,M09A06,2022-11-17_09h14.11.561,t1_Paradigm,2021.1.4,59.97268012072879,
Z,right,Target,0,30,30,30,568.0992747309501,570.0995724351669,right,1,1,0.6186527729732916,M09A06,2022-11-17_09h14.11.561,t1_Paradigm,2021.1.4,59.97268012072879,
T,left,Distractor,0,31,31,31,571.59958173841,573.600734379841,left,1,1,0.5575797802594025,M09A06,2022-11-17_09h14.11.561,t1_Paradigm,2021.1.4,59.97268012072879,
Z,left,Lure,0,32,32,32,575.099439302343,577.0992651068955,left,1,1,0.6111803330713883,M09A06,2022-11-17_09h14.11.561,t1_Paradigm,2021.1.4,59.97268012072879,
F,left,Distractor,0,33,33,33,578.5993898988527,580.6008514725545,left,1,1,1.0454602032259572,M09A06,2022-11-17_09h14.11.561,t1_Paradigm,2021.1.4,59.97268012072879,
Y,left,Pretarget,0,34,34,34,582.0994425103709,584.0996766957978,left,1,1,0.7147153139230795,M09A06,2022-11-17_09h14.11.561,t1_Paradigm,2021.1.4,59.97268012072879,
Y,right,Target,0,35,35,35,585.5995037835382,587.5994502096146,right,1,1,0.7187574185372796,M09A06,2022-11-17_09h14.11.561,t1_Paradigm,2021.1.4,59.97268012072879,
Y,right,Target,0,36,36,36,589.0994899890502,591.099481327401,right,1,1,0.6588325760385487,M09A06,2022-11-17_09h14.11.561,t1_Paradigm,2021.1.4,59.97268012072879,
W,left,Distractor,0,37,37,37,592.5994649665081,594.6010904700088,left,1,1,0.9171237025293522,M09A06,2022-11-17_09h14.11.561,t1_Paradigm,2021.1.4,59.97268012072879,
Q,left,Distractor,0,38,38,38,596.0993347209005,598.1006570665631,left,1,1,0.6818372841225937,M09A06,2022-11-17_09h14.11.561,t1_Paradigm,2021.1.4,59.97268012072879,
P,left,Pretarget,0,39,39,39,599.5992166657816,601.6012595326174,left,1,1,0.8130757593025919,M09A06,2022-11-17_09h14.11.561,t1_Paradigm,2021.1.4,59.97268012072879,
P,right,Target,0,40,40,40,603.0994954427006,605.0994178086112,right,1,1,0.6749256060284097,M09A06,2022-11-17_09h14.11.561,t1_Paradigm,2021.1.4,59.97268012072879,
J,left,Distractor,0,41,41,41,606.5992724853277,608.6009445051022,left,1,1,0.6772892748413142,M09A06,2022-11-17_09h14.11.561,t1_Paradigm,2021.1.4,59.97268012072879,
P,left,Lure,0,42,42,42,610.0993783499871,612.0989228112157,left,1,1,0.8434223408985417,M09A06,2022-11-17_09h14.11.561,t1_Paradigm,2021.1.4,59.97268012072879,
L,left,Distractor,0,43,43,43,613.5996799038257,615.6009512419405,left,1,1,0.749197353492491,M09A06,2022-11-17_09h14.11.561,t1_Paradigm,2021.1.4,59.97268012072879,
Z,left,Distractor,0,44,44,44,617.0994854978344,619.0991326156654,left,1,1,0.7071354053623509,M09A06,2022-11-17_09h14.11.561,t1_Paradigm,2021.1.4,59.97268012072879,
F,left,Pretarget,0,45,45,45,620.5993889364472,622.6010288760299,left,1,1,0.6293191170843784,M09A06,2022-11-17_09h14.11.561,t1_Paradigm,2021.1.4,59.97268012072879,
F,right,Target,0,46,46,46,624.0994463599927,626.0995166156208,right,1,1,0.6667133968439884,M09A06,2022-11-17_09h14.11.561,t1_Paradigm,2021.1.4,59.97268012072879,
G,left,Pretarget,0,47,47,47,627.5990389414947,629.5990139189526,left,1,1,0.6872142456704751,M09A06,2022-11-17_09h14.11.561,t1_Paradigm,2021.1.4,59.97268012072879,
G,right,Target,0,48,48,48,631.0993745003652,633.0994479639921,right,1,1,0.5631758495292161,M09A06,2022-11-17_09h14.11.561,t1_Paradigm,2021.1.4,59.97268012072879,
V,left,Distractor,0,49,49,49,634.5993764251762,636.6009624700237,left,1,1,0.9816097072325647,M09A06,2022-11-17_09h14.11.561,t1_Paradigm,2021.1.4,59.97268012072879,
G,left,Lure,0,50,50,50,638.0995291268919,640.1005415778491,left,1,1,0.9217361930059269,M09A06,2022-11-17_09h14.11.561,t1_Paradigm,2021.1.4,59.97268012072879,
Q,left,Pretarget,0,51,51,51,641.5994521344255,643.600574941258,left,1,1,0.6535932385304477,M09A06,2022-11-17_09h14.11.561,t1_Paradigm,2021.1.4,59.97268012072879,
Q,right,Target,0,52,52,52,645.0994729865633,647.0995012171334,right,1,1,0.578753029985819,M09A06,2022-11-17_09h14.11.561,t1_Paradigm,2021.1.4,59.97268012072879,
Y,left,Distractor,0,53,53,53,648.5993655179045,650.6011905602063,left,1,1,0.8370197755284607,M09A06,2022-11-17_09h14.11.561,t1_Paradigm,2021.1.4,59.97268012072879,
V,left,Distractor,0,54,54,54,652.0988977886445,654.0990241846303,left,1,1,0.6835571033880115,M09A06,2022-11-17_09h14.11.561,t1_Paradigm,2021.1.4,59.97268012072879,
B,left,Distractor,0,55,55,55,655.5994505304261,657.5994389815314,left,1,1,0.7187141102913301,M09A06,2022-11-17_09h14.11.561,t1_Paradigm,2021.1.4,59.97268012072879,
J,left,Pretarget,0,56,56,56,659.0994774777791,661.0999798536359,left,1,1,1.042312815261539,M09A06,2022-11-17_09h14.11.561,t1_Paradigm,2021.1.4,59.97268012072879,
J,right,Target,0,57,57,57,662.5989471921639,664.5993690467149,right,1,1,0.6470033247896936,M09A06,2022-11-17_09h14.11.561,t1_Paradigm,2021.1.4,59.97268012072879,
H,left,Distractor,0,58,58,58,666.0994694577239,668.1004665101937,left,1,1,0.7298943791538477,M09A06,2022-11-17_09h14.11.561,t1_Paradigm,2021.1.4,59.97268012072879,
J,left,Lure,0,59,59,59,669.5994014477183,671.5999484150379,left,1,1,0.702528047724627,M09A06,2022-11-17_09h14.11.561,t1_Paradigm,2021.1.4,59.97268012072879,
D,left,Pretarget,0,60,60,60,673.099540996569,675.0995047459437,left,1,1,0.5947148519917391,M09A06,2022-11-17_09h14.11.561,t1_Paradigm,2021.1.4,59.97268012072879,
D,right,Target,0,61,61,61,676.5995355429186,678.5993526858219,right,1,1,0.5832375204772688,M09A06,2022-11-17_09h14.11.561,t1_Paradigm,2021.1.4,59.97268012072879,
R,left,Distractor,0,62,62,62,680.0994271118834,682.0990681344992,left,1,1,0.6350730209378526,M09A06,2022-11-17_09h14.11.561,t1_Paradigm,2021.1.4,59.97268012072879,
F,left,Distractor,0,63,63,63,683.5991723951302,685.6003988209995,left,1,1,0.573844760103384,M09A06,2022-11-17_09h14.11.561,t1_Paradigm,2021.1.4,59.97268012072879,
F,left,Distractor,0,0,0,0,782.4239660873718,784.4156387102848,None,0,2,,M09A06,2022-11-17_09h14.11.561,t1_Paradigm,2021.1.4,59.97268012072879,
N,left,Pretarget,0,1,1,1,785.9160371462931,787.9174862087239,None,0,2,,M09A06,2022-11-17_09h14.11.561,t1_Paradigm,2021.1.4,59.97268012072879,
V,left,Distractor,0,2,2,2,789.416010840534,791.4165770559921,left,1,2,0.7735943420848344,M09A06,2022-11-17_09h14.11.561,t1_Paradigm,2021.1.4,59.97268012072879,
N,right,Target,0,3,3,3,792.9160903994343,794.9168734769919,right,1,2,0.6332518282579258,M09A06,2022-11-17_09h14.11.561,t1_Paradigm,2021.1.4,59.97268012072879,
N,left,Lure,0,4,4,4,796.4159640034486,798.4156525047729,None,0,2,,M09A06,2022-11-17_09h14.11.561,t1_Paradigm,2021.1.4,59.97268012072879,
X,left,Distractor,0,5,5,5,799.9159948004526,801.9176398728741,left,1,2,0.8487521445495076,M09A06,2022-11-17_09h14.11.561,t1_Paradigm,2021.1.4,59.97268012072879,
G,left,Pretarget,0,6,6,6,803.4159537378,805.4160361838876,left,1,2,1.0303119349700864,M09A06,2022-11-17_09h14.11.561,t1_Paradigm,2021.1.4,59.97268012072879,
H,left,Pretarget,0,7,7,7,806.9160018580733,808.9167374569515,right,0,2,1.0975834630371537,M09A06,2022-11-17_09h14.11.561,t1_Paradigm,2021.1.4,59.97268012072879,
G,right,Target,0,8,8,8,810.4156014972541,812.4171400634223,right,1,2,0.7654033058206551,M09A06,2022-11-17_09h14.11.561,t1_Paradigm,2021.1.4,59.97268012072879,
H,right,Target,0,9,9,9,813.9160820585676,815.9172603641637,right,1,2,1.025032818026375,M09A06,2022-11-17_09h14.11.561,t1_Paradigm,2021.1.4,59.97268012072879,
T,left,Pretarget,0,10,10,10,817.415938660095,819.4169953817327,left,1,2,0.9331859355443157,M09A06,2022-11-17_09h14.11.561,t1_Paradigm,2021.1.4,59.97268012072879,
K,left,Distractor,0,11,11,11,820.9161484645738,822.9179449555231,left,1,2,0.6161935051786713,M09A06,2022-11-17_09h14.11.561,t1_Paradigm,2021.1.4,59.97268012072879,
T,right,Target,0,12,12,12,824.4160528655921,826.4155835323327,right,1,2,0.5906900706759188,M09A06,2022-11-17_09h14.11.561,t1_Paradigm,2021.1.4,59.97268012072879,
T,left,Lure,0,13,13,13,827.9159890260198,829.9160750009178,left,1,2,1.266445270535769,M09A06,2022-11-17_09h14.11.561,t1_Paradigm,2021.1.4,59.97268012072879,
J,left,Distractor,0,14,14,14,831.4159489257727,833.4175750708673,left,1,2,1.2206305811414495,M09A06,2022-11-17_09h14.11.561,t1_Paradigm,2021.1.4,59.97268012072879,
Q,left,Pretarget,0,15,15,15,834.9159848555864,836.9172112814558,left,1,2,0.7769999756128527,M09A06,2022-11-17_09h14.11.561,t1_Paradigm,2021.1.4,59.97268012072879,
M,left,Distractor,0,16,16,16,838.4159704195044,840.4176664994156,left,1,2,0.7325284839898814,M09A06,2022-11-17_09h14.11.561,t1_Paradigm,2021.1.4,59.97268012072879,
Q,right,Target,0,17,17,17,841.9160807753797,843.9172677425959,right,1,2,0.8810453524056356,M09A06,2022-11-17_09h14.11.561,t1_Paradigm,2021.1.4,59.97268012072879,
R,left,Distractor,0,18,18,18,845.4159784395306,847.4169985897606,left,1,2,0.8532562039908953,M09A06,2022-11-17_09h14.11.561,t1_Paradigm,2021.1.4,59.97268012072879,
W,left,Distractor,0,19,19,19,848.9159765147197,850.9171506498824,left,1,2,0.6170388183381874,M09A06,2022-11-17_09h14.11.561,t1_Paradigm,2021.1.4,59.97268012072879,
C,left,Pretarget,0,20,20,20,852.4161920936313,854.418631792505,left,1,2,0.5876408480980899,M09A06,2022-11-17_09h14.11.561,t1_Paradigm,2021.1.4,59.97268012072879,
T,left,Distractor,0,21,21,21,855.9161465397628,857.9168433216109,left,1,2,0.9773600437329151,M09A06,2022-11-17_09h14.11.561,t1_Paradigm,2021.1.4,59.97268012072879,
C,right,Target,0,22,22,22,859.4160050661012,861.4154940285953,right,1,2,0.662825277162483,M09A06,2022-11-17_09h14.11.561,t1_Paradigm,2021.1.4,59.97268012072879,
F,left,Pretarget,0,23,23,23,862.9158793117385,864.9164516224118,left,1,2,0.6658680836844724,M09A06,2022-11-17_09h14.11.561,t1_Paradigm,2021.1.4,59.97268012072879,
C,right,Target,0,24,24,24,866.4160124445625,868.4176764442818,right,1,2,1.100409086648142,M09A06,2022-11-17_09h14.11.561,t1_Paradigm,2021.1.4,59.97268012072879,
F,right,Target,0,25,25,25,869.915606630093,871.9175468402973,left,0,2,1.4087109920801595,M09A06,2022-11-17_09h14.11.561,t1_Paradigm,2021.1.4,59.97268012072879,
H,left,Distractor,0,26,26,26,873.4157670310524,875.4156422390952,left,1,2,0.9669480955344625,M09A06,2022-11-17_09h14.11.561,t1_Paradigm,2021.1.4,59.97268012072879,
H,left,Lure,0,27,27,27,876.9157772967301,878.9160663392686,left,1,2,1.4020950933918357,M09A06,2022-11-17_09h14.11.561,t1_Paradigm,2021.1.4,59.97268012072879,
P,left,Distractor,0,28,28,28,880.4162036425259,882.4174781886686,left,1,2,0.8928749244369101,M09A06,2022-11-17_09h14.11.561,t1_Paradigm,2021.1.4,59.97268012072879,
G,left,Pretarget,0,29,29,29,883.9159742691263,885.9168365847727,left,1,2,0.7213427615060937,M09A06,2022-11-17_09h14.11.561,t1_Paradigm,2021.1.4,59.97268012072879,
K,left,Distractor,0,30,30,30,887.4160384295101,889.4170819982537,left,1,2,0.6932007309223991,M09A06,2022-11-17_09h14.11.561,t1_Paradigm,2021.1.4,59.97268012072879,
G,right,Target,0,31,31,31,890.9156861889642,892.918079371535,right,1,2,0.7603246900835074,M09A06,2022-11-17_09h14.11.561,t1_Paradigm,2021.1.4,59.97268012072879,
M,left,Pretarget,0,32,32,32,894.4156534671783,896.4170739782276,left,1,2,0.8133166815678123,M09A06,2022-11-17_09h14.11.561,t1_Paradigm,2021.1.4,59.97268012072879,
B,left,Distractor,0,33,33,33,897.915985176398,899.9176520633337,left,1,2,0.6725612956215627,M09A06,2022-11-17_09h14.11.561,t1_Paradigm,2021.1.4,59.97268012072879,
M,right,Target,0,34,34,34,901.4159149207699,903.415604063659,right,1,2,0.9026333990623243,M09A06,2022-11-17_09h14.11.561,t1_Paradigm,2021.1.4,59.97268012072879,
M,left,Lure,0,35,35,35,904.9157015874516,906.9158183593827,left,1,2,1.3383501412172336,M09A06,2022-11-17_09h14.11.561,t1_Paradigm,2021.1.4,59.97268012072879,
T,left,Distractor,0,36,36,36,908.4158619884402,910.4175044944277,left,1,2,1.0686400691920426,M09A06,2022-11-17_09h14.11.561,t1_Paradigm,2021.1.4,59.97268012072879,
F,left,Distractor,0,37,37,37,911.9158956726314,913.9171073416073,left,1,2,1.2972528445534408,M09A06,2022-11-17_09h14.11.561,t1_Paradigm,2021.1.4,59.97268012072879,
X,left,Distractor,0,38,38,38,915.4159684946935,917.4169039531844,left,1,2,1.1093928245536517,M09A06,2022-11-17_09h14.11.561,t1_Paradigm,2021.1.4,59.97268012072879,
C,left,Distractor,0,39,39,39,918.9161388405191,920.9172764042451,left,1,2,1.2250409664120525,M09A06,2022-11-17_09h14.11.561,t1_Paradigm,2021.1.4,59.97268012072879,
R,left,Distractor,0,40,40,40,922.4161003442714,924.4175080232671,left,1,2,0.7808017995848786,M09A06,2022-11-17_09h14.11.561,t1_Paradigm,2021.1.4,59.97268012072879,
B,left,Pretarget,0,41,41,41,925.9159556626109,927.9171612363425,left,1,2,0.8971858611039352,M09A06,2022-11-17_09h14.11.561,t1_Paradigm,2021.1.4,59.97268012072879,
H,left,Distractor,0,42,42,42,929.4159290360403,931.4166973567335,left,1,2,1.0774925990845077,M09A06,2022-11-17_09h14.11.561,t1_Paradigm,2021.1.4,59.97268012072879,
B,right,Target,0,43,43,43,932.9159973668575,934.9158023192722,left,0,2,1.3863713064347394,M09A06,2022-11-17_09h14.11.561,t1_Paradigm,2021.1.4,59.97268012072879,
W,left,Pretarget,0,44,44,44,936.4159944796411,938.4159582290158,left,1,2,1.1022052567859646,M09A06,2022-11-17_09h14.11.561,t1_Paradigm,2021.1.4,59.97268012072879,
L,left,Pretarget,0,45,45,45,939.9159659282595,941.9179301986296,left,1,2,1.0242032241949346,M09A06,2022-11-17_09h14.11.561,t1_Paradigm,2021.1.4,59.97268012072879,
W,right,Target,0,46,46,46,943.4161253668426,945.4155354120594,right,1,2,1.046975350851426,M09A06,2022-11-17_09h14.11.561,t1_Paradigm,2021.1.4,59.97268012072879,
L,right,Target,0,47,47,47,946.9156884345866,948.9169504694582,None,0,2,,M09A06,2022-11-17_09h14.11.561,t1_Paradigm,2021.1.4,59.97268012072879,
W,right,Target,0,48,48,48,950.4159752315318,952.4159351312846,right,1,2,1.4062873333168682,M09A06,2022-11-17_09h14.11.561,t1_Paradigm,2021.1.4,59.97268012072879,
X,left,Distractor,0,49,49,49,953.9156095173093,955.9171121536347,left,1,2,0.9931941865361296,M09A06,2022-11-17_09h14.11.561,t1_Paradigm,2021.1.4,59.97268012072879,
R,left,Distractor,0,50,50,50,957.4160397127271,959.4174692062079,left,1,2,1.3968997057527304,M09A06,2022-11-17_09h14.11.561,t1_Paradigm,2021.1.4,59.97268012072879,
V,left,Pretarget,0,51,51,51,960.9156432015006,962.9170864894986,None,0,2,,M09A06,2022-11-17_09h14.11.561,t1_Paradigm,2021.1.4,59.97268012072879,
Z,left,Distractor,0,52,52,52,964.4159749107203,966.4165738479642,left,1,2,1.0856355150754098,M09A06,2022-11-17_09h14.11.561,t1_Paradigm,2021.1.4,59.97268012072879,
V,right,Target,0,53,53,53,967.91598196837,969.9178496773529,right,1,2,1.344429979857523,M09A06,2022-11-17_09h14.11.561,t1_Paradigm,2021.1.4,59.97268012072879,
V,left,Lure,0,54,54,54,971.4155918731994,973.4159473217442,None,0,2,,M09A06,2022-11-17_09h14.11.561,t1_Paradigm,2021.1.4,59.97268012072879,
N,left,Distractor,0,55,55,55,974.9156130461197,976.9174076122581,left,1,2,0.8248514366277959,M09A06,2022-11-17_09h14.11.561,t1_Paradigm,2021.1.4,59.97268012072879,
B,left,Distractor,0,56,56,56,978.4160579984309,980.4166232514835,left,1,2,0.7174402057135012,M09A06,2022-11-17_09h14.11.561,t1_Paradigm,2021.1.4,59.97268012072879,
V,left,Lure,0,57,57,57,981.9154914621904,983.9172359832155,left,1,2,1.3130751177086495,M09A06,2022-11-17_09h14.11.561,t1_Paradigm,2021.1.4,59.97268012072879,
J,left,Distractor,0,58,58,58,985.4155524145463,987.4172600433521,left,1,2,0.7889819286065176,M09A06,2022-11-17_09h14.11.561,t1_Paradigm,2021.1.4,59.97268012072879,
H,left,Distractor,0,59,59,59,988.915969457099,990.9156014972541,left,1,2,0.6184705574123655,M09A06,2022-11-17_09h14.11.561,t1_Paradigm,2021.1.4,59.97268012072879,
X,left,Pretarget,0,60,60,60,992.41569068018,994.4175397826475,left,1,2,0.8127671478432603,M09A06,2022-11-17_09h14.11.561,t1_Paradigm,2021.1.4,59.97268012072879,
P,left,Distractor,0,61,61,61,995.9154394922662,997.9175975270045,left,1,2,0.8484897285525221,M09A06,2022-11-17_09h14.11.561,t1_Paradigm,2021.1.4,59.97268012072879,
X,right,Target,0,62,62,62,999.4157304596447,1001.4160031412903,right,1,2,0.5501791999849956,M09A06,2022-11-17_09h14.11.561,t1_Paradigm,2021.1.4,59.97268012072879,
Q,left,Distractor,0,63,63,63,1002.9159466801502,1004.917425256368,left,1,2,0.9207644838897977,M09A06,2022-11-17_09h14.11.561,t1_Paradigm,2021.1.4,59.97268012072879,
B,left,Pretarget,0,0,0,0,1016.5379669112153,1018.5344945508696,None,0,2,,M09A06,2022-11-17_09h14.11.561,t1_Paradigm,2021.1.4,59.97268012072879,
F,left,Distractor,0,1,1,1,1020.0325790423958,1022.0340919443988,left,1,2,1.2921957225480583,M09A06,2022-11-17_09h14.11.561,t1_Paradigm,2021.1.4,59.97268012072879,
B,right,Target,0,2,2,2,1023.5327160248416,1025.533434621204,right,1,2,0.6408153758966364,M09A06,2022-11-17_09h14.11.561,t1_Paradigm,2021.1.4,59.97268012072879,
V,left,Distractor,0,3,3,3,1027.0326223506709,1029.032941227808,left,1,2,0.7892481942253653,M09A06,2022-11-17_09h14.11.561,t1_Paradigm,2021.1.4,59.97268012072879,
G,left,Pretarget,0,4,4,4,1030.532821247878,1032.5342699894973,left,1,2,0.6320019838458393,M09A06,2022-11-17_09h14.11.561,t1_Paradigm,2021.1.4,59.97268012072879,
B,left,Lure,0,5,5,5,1034.0326133682101,1036.0333043756254,left,1,2,1.164981387060834,M09A06,2022-11-17_09h14.11.561,t1_Paradigm,2021.1.4,59.97268012072879,
G,right,Target,0,6,6,6,1037.5326961351093,1039.5325399045541,right,1,2,0.8336288988648448,M09A06,2022-11-17_09h14.11.561,t1_Paradigm,2021.1.4,59.97268012072879,
Y,left,Pretarget,0,7,7,7,1041.0326983807317,1043.0344996836793,left,1,2,0.9958193089696579,M09A06,2022-11-17_09h14.11.561,t1_Paradigm,2021.1.4,59.97268012072879,
P,left,Distractor,0,8,8,8,1044.532748425816,1046.5339758140908,left,1,2,0.9042037246399559,M09A06,2022-11-17_09h14.11.561,t1_Paradigm,2021.1.4,59.97268012072879,
Y,right,Target,0,9,9,9,1048.0325206564448,1050.0333425510325,right,1,2,0.700809511647094,M09A06,2022-11-17_09h14.11.561,t1_Paradigm,2021.1.4,59.97268012072879,
X,left,Distractor,0,10,10,10,1051.5326650173229,1053.5320144309662,left,1,2,0.6422711751656607,M09A06,2022-11-17_09h14.11.561,t1_Paradigm,2021.1.4,59.97268012072879,
Y,right,Target,0,11,11,11,1055.0325655687193,1057.0333066212188,right,1,2,0.42091782722854987,M09A06,2022-11-17_09h14.11.561,t1_Paradigm,2021.1.4,59.97268012072879,
N,left,Distractor,0,12,12,12,1058.532617859426,1060.5325761551794,left,1,2,0.5536226881376933,M09A06,2022-11-17_09h14.11.561,t1_Paradigm,2021.1.4,59.97268012072879,
Y,right,Target,0,13,13,13,1062.0326704709441,1064.0337525359355,right,1,2,0.6044357927748933,M09A06,2022-11-17_09h14.11.561,t1_Paradigm,2021.1.4,59.97268012072879,
Y,left,Lure,0,14,14,14,1065.532691964676,1067.5328761049896,left,1,2,0.801166949182516,M09A06,2022-11-17_09h14.11.561,t1_Paradigm,2021.1.4,59.97268012072879,
K,left,Distractor,0,15,15,15,1069.0325036539289,1071.0336100998684,left,1,2,0.7085725981451105,M09A06,2022-11-17_09h14.11.561,t1_Paradigm,2021.1.4,59.97268012072879,
T,left,Pretarget,0,16,16,16,1072.5321273532463,1074.5346751623729,left,1,2,0.7915894068428315,M09A06,2022-11-17_09h14.11.561,t1_Paradigm,2021.1.4,59.97268012072879,
J,left,Distractor,0,17,17,17,1076.0326659797283,1078.0333550623327,left,1,2,0.8293250198476017,M09A06,2022-11-17_09h14.11.561,t1_Paradigm,2021.1.4,59.97268012072879,
T,right,Target,0,18,18,18,1079.5326541100512,1081.5341342902684,right,1,2,0.559912972850725,M09A06,2022-11-17_09h14.11.561,t1_Paradigm,2021.1.4,59.97268012072879,
S,left,Pretarget,0,19,19,19,1083.0322207066056,1085.0322569572309,left,1,2,0.7100348134408705,M09A06,2022-11-17_09h14.11.561,t1_Paradigm,2021.1.4,59.97268012072879,
R,left,Distractor,0,20,20,20,1086.5326210674539,1088.5323159848049,left,1,2,0.697955978277605,M09A06,2022-11-17_09h14.11.561,t1_Paradigm,2021.1.4,59.97268012072879,
S,right,Target,0,21,21,21,1090.0323801451887,1092.0322114033625,right,1,2,0.46183643719996326,M09A06,2022-11-17_09h14.11.561,t1_Paradigm,2021.1.4,59.97268012072879,
Q,left,Distractor,0,22,22,22,1093.5326550724567,1095.53344456607,left,1,2,1.1047312513692304,M09A06,2022-11-17_09h14.11.561,t1_Paradigm,2021.1.4,59.97268012072879,
D,left,Distractor,0,23,23,23,1097.0322508619865,1099.033214871859,left,1,2,0.708992848667549,M09A06,2022-11-17_09h14.11.561,t1_Paradigm,2021.1.4,59.97268012072879,
F,left,Distractor,0,24,24,24,1100.5324240950576,1102.5324074133532,left,1,2,0.6017352819326334,M09A06,2022-11-17_09h14.11.561,t1_Paradigm,2021.1.4,59.97268012072879,
Z,left,Distractor,0,25,25,25,1104.0326451275905,1106.031798531243,left,1,2,0.7825225812557619,M09A06,2022-11-17_09h14.11.561,t1_Paradigm,2021.1.4,59.97268012072879,
P,left,Distractor,0,26,26,26,1107.5323884860263,1109.532327854453,left,1,2,0.7857893075270113,M09A06,2022-11-17_09h14.11.561,t1_Paradigm,2021.1.4,59.97268012072879,
H,left,Distractor,0,27,27,27,1111.032663092512,1113.0330750022258,left,1,2,1.0294877947599161,M09A06,2022-11-17_09h14.11.561,t1_Paradigm,2021.1.4,59.97268012072879,
Z,left,Pretarget,0,28,28,28,1114.5328414583928,1116.5321741903317,None,0,2,,M09A06,2022-11-17_09h14.11.561,t1_Paradigm,2021.1.4,59.97268012072879,
J,left,Pretarget,0,29,29,29,1118.0322370674985,1120.0347697989491,None,0,2,,M09A06,2022-11-17_09h14.11.561,t1_Paradigm,2021.1.4,59.97268012072879,
Z,right,Target,0,30,30,30,1121.532605348155,1123.534497438086,None,0,2,,M09A06,2022-11-17_09h14.11.561,t1_Paradigm,2021.1.4,59.97268012072879,
J,right,Target,0,31,31,31,1125.0326233130763,1127.0348224104673,right,1,2,1.0913300705433358,M09A06,2022-11-17_09h14.11.561,t1_Paradigm,2021.1.4,59.97268012072879,
V,left,Pretarget,0,32,32,32,1128.5323811075941,1130.5332328367804,left,1,2,0.8569665993854869,M09A06,2022-11-17_09h14.11.561,t1_Paradigm,2021.1.4,59.97268012072879,
Z,left,Lure,0,33,33,33,1132.0325678143126,1134.032734631328,right,0,2,1.053319851111155,M09A06,2022-11-17_09h14.11.561,t1_Paradigm,2021.1.4,59.97268012072879,
V,right,Target,0,34,34,34,1135.5323217592377,1137.5336088166514,right,1,2,1.0566196200088598,M09A06,2022-11-17_09h14.11.561,t1_Paradigm,2021.1.4,59.97268012072879,
X,left,Distractor,0,35,35,35,1139.03265924289,1141.0342128867342,left,1,2,0.9318202816066332,M09A06,2022-11-17_09h14.11.561,t1_Paradigm,2021.1.4,59.97268012072879,
S,left,Distractor,0,36,36,36,1142.5323339496972,1144.53429340804,left,1,2,0.9517815415456425,M09A06,2022-11-17_09h14.11.561,t1_Paradigm,2021.1.4,59.97268012072879,
Q,left,Distractor,0,37,37,37,1146.0321748319257,1148.0337454782857,left,1,2,0.9884129542624578,M09A06,2022-11-17_09h14.11.561,t1_Paradigm,2021.1.4,59.97268012072879,
P,left,Distractor,0,38,38,38,1149.532169699116,1151.535383813869,left,1,2,0.6388517471496016,M09A06,2022-11-17_09h14.11.561,t1_Paradigm,2021.1.4,59.97268012072879,
S,left,Lure,0,39,39,39,1153.0326550724567,1155.0321360148955,left,1,2,1.3821517983451486,M09A06,2022-11-17_09h14.11.561,t1_Paradigm,2021.1.4,59.97268012072879,
K,left,Pretarget,0,40,40,40,1156.532512315578,1158.5323195136152,left,1,2,0.9058292281406466,M09A06,2022-11-17_09h14.11.561,t1_Paradigm,2021.1.4,59.97268012072879,
L,left,Distractor,0,41,41,41,1160.0327166664356,1162.0325007667125,None,0,2,,M09A06,2022-11-17_09h14.11.561,t1_Paradigm,2021.1.4,59.97268012072879,
K,right,Target,0,42,42,42,1163.5325816088007,1165.5324921050633,left,0,2,1.249967919808114,M09A06,2022-11-17_09h14.11.561,t1_Paradigm,2021.1.4,59.97268012072879,
B,left,Distractor,0,43,43,43,1167.0326387115638,1169.0322899998282,left,1,2,1.1419599972723518,M09A06,2022-11-17_09h14.11.561,t1_Paradigm,2021.1.4,59.97268012072879,
N,left,Distractor,0,44,44,44,1170.5326576388616,1172.5338166963193,left,1,2,1.2564060942095239,M09A06,2022-11-17_09h14.11.561,t1_Paradigm,2021.1.4,59.97268012072879,
S,left,Pretarget,0,45,45,45,1174.0326646965113,1176.0334994232107,left,1,2,0.7166420504509006,M09A06,2022-11-17_09h14.11.561,t1_Paradigm,2021.1.4,59.97268012072879,
Z,left,Distractor,0,46,46,46,1177.5322024209017,1179.5331462202594,left,1,2,0.5771506242163014,M09A06,2022-11-17_09h14.11.561,t1_Paradigm,2021.1.4,59.97268012072879,
S,right,Target,0,47,47,47,1181.0320853281883,1183.0325819296122,right,1,2,0.7735956252727192,M09A06,2022-11-17_09h14.11.561,t1_Paradigm,2021.1.4,59.97268012072879,
C,left,Distractor,0,48,48,48,1184.5325912328553,1186.5346270420705,None,0,2,,M09A06,2022-11-17_09h14.11.561,t1_Paradigm,2021.1.4,59.97268012072879,
T,left,Pretarget,0,49,49,49,1188.0324212078413,1190.0336508417095,left,1,2,1.3086063464870676,M09A06,2022-11-17_09h14.11.561,t1_Paradigm,2021.1.4,59.97268012072879,
S,left,Lure,0,50,50,50,1191.5326281251037,1193.5339690772526,None,0,2,,M09A06,2022-11-17_09h14.11.561,t1_Paradigm,2021.1.4,59.97268012072879,
T,right,Target,0,51,51,51,1195.0322325762827,1197.0337034532276,right,1,2,0.8365186828596052,M09A06,2022-11-17_09h14.11.561,t1_Paradigm,2021.1.4,59.97268012072879,
N,left,Pretarget,0,52,52,52,1198.5326120849932,1200.53307917263,left,1,2,0.9690746916749049,M09A06,2022-11-17_09h14.11.561,t1_Paradigm,2021.1.4,59.97268012072879,
B,left,Distractor,0,53,53,53,1202.0324086965702,1204.033958169981,left,1,2,1.1482749837450683,M09A06,2022-11-17_09h14.11.561,t1_Paradigm,2021.1.4,59.97268012072879,
N,right,Target,0,54,54,54,1205.5325065411453,1207.5341718240816,right,1,2,0.7040473657543771,M09A06,2022-11-17_09h14.11.561,t1_Paradigm,2021.1.4,59.97268012072879,
N,left,Lure,0,55,55,55,1209.0321863807912,1211.0325771175849,left,1,2,0.9498814315884374,M09A06,2022-11-17_09h14.11.561,t1_Paradigm,2021.1.4,59.97268012072879,
X,left,Distractor,0,56,56,56,1212.53264865643,1214.5337727464503,left,1,2,0.9043801657098811,M09A06,2022-11-17_09h14.11.561,t1_Paradigm,2021.1.4,59.97268012072879,
W,left,Distractor,0,57,57,57,1216.0321700198983,1218.033271974622,None,0,2,,M09A06,2022-11-17_09h14.11.561,t1_Paradigm,2021.1.4,59.97268012072879,
S,left,Distractor,0,58,58,58,1219.532443343167,1221.532181568764,left,1,2,0.7541569517052267,M09A06,2022-11-17_09h14.11.561,t1_Paradigm,2021.1.4,59.97268012072879,
L,left,Distractor,0,59,59,59,1223.0326412779687,1225.0339222401672,left,1,2,0.6601979091356043,M09A06,2022-11-17_09h14.11.561,t1_Paradigm,2021.1.4,59.97268012072879,
K,left,Pretarget,0,60,60,60,1226.532644165185,1228.534103172482,left,1,2,0.7600247402442619,M09A06,2022-11-17_09h14.11.561,t1_Paradigm,2021.1.4,59.97268012072879,
V,left,Pretarget,0,61,61,61,1230.0327253280848,1232.0327955837129,left,1,2,1.0053564302215818,M09A06,2022-11-17_09h14.11.561,t1_Paradigm,2021.1.4,59.97268012072879,
K,right,Target,0,62,62,62,1233.5326201050484,1235.5331305009604,left,0,2,1.2811479448864702,M09A06,2022-11-17_09h14.11.561,t1_Paradigm,2021.1.4,59.97268012072879,
V,right,Target,0,63,63,63,1237.0326813782158,1239.0321430725453,None,0,2,,M09A06,2022-11-17_09h14.11.561,t1_Paradigm,2021.1.4,59.97268012072879,
R,left,Distractor,0,0,0,0,1327.4927476302255,1329.484567501233,None,0,3,,M09A06,2022-11-17_09h14.11.561,t1_Paradigm,2021.1.4,59.97268012072879,
P,left,Lure,0,1,1,1,1330.9823270203779,1332.9830545992008,None,0,3,,M09A06,2022-11-17_09h14.11.561,t1_Paradigm,2021.1.4,59.97268012072879,
V,left,Distractor,0,2,2,2,1334.4826247245946,1336.4822294965852,left,1,3,0.8920097215741407,M09A06,2022-11-17_09h14.11.561,t1_Paradigm,2021.1.4,59.97268012072879,
P,left,Pretarget,0,3,3,3,1337.982440584281,1339.9839149900363,left,1,3,0.8785424555826467,M09A06,2022-11-17_09h14.11.561,t1_Paradigm,2021.1.4,59.97268012072879,
Z,left,Distractor,0,4,4,4,1341.482522709557,1343.4824450754968,left,1,3,0.6757555207004771,M09A06,2022-11-17_09h14.11.561,t1_Paradigm,2021.1.4,59.97268012072879,
L,left,Pretarget,0,5,5,5,1344.9825073110696,1346.982104704628,left,1,3,0.8400494291563518,M09A06,2022-11-17_09h14.11.561,t1_Paradigm,2021.1.4,59.97268012072879,
P,right,Target,0,6,6,6,1348.4823318324052,1350.484800403443,right,1,3,0.5533403824374545,M09A06,2022-11-17_09h14.11.561,t1_Paradigm,2021.1.4,59.97268012072879,
S,left,Distractor,0,7,7,7,1351.982206398854,1353.982948413759,left,1,3,0.5909579402941745,M09A06,2022-11-17_09h14.11.561,t1_Paradigm,2021.1.4,59.97268012072879,
L,right,Target,0,8,8,8,1355.482600022835,1357.4820540179207,right,1,3,0.5322181402007118,M09A06,2022-11-17_09h14.11.561,t1_Paradigm,2021.1.4,59.97268012072879,
D,left,Distractor,0,9,9,9,1358.9823372860556,1360.983706147992,left,1,3,0.7104040564736351,M09A06,2022-11-17_09h14.11.561,t1_Paradigm,2021.1.4,59.97268012072879,
G,left,Distractor,0,10,10,10,1362.4824922333937,1364.4845148897148,left,1,3,0.6175912392791361,M09A06,2022-11-17_09h14.11.561,t1_Paradigm,2021.1.4,59.97268012072879,
M,left,Pretarget,0,11,11,11,1365.9824646444176,1367.982891952619,left,1,3,0.5432046446949244,M09A06,2022-11-17_09h14.11.561,t1_Paradigm,2021.1.4,59.97268012072879,
Y,left,Distractor,0,12,12,12,1369.4826154213224,1371.4830542784184,left,1,3,0.6750410947133787,M09A06,2022-11-17_09h14.11.561,t1_Paradigm,2021.1.4,59.97268012072879,
V,left,Distractor,0,13,13,13,1372.9821069502505,1374.983588734467,left,1,3,1.1905306962435134,M09A06,2022-11-17_09h14.11.561,t1_Paradigm,2021.1.4,59.97268012072879,
M,right,Target,0,14,14,14,1376.482017446484,1378.4823918223847,right,1,3,0.8117206918541342,M09A06,2022-11-17_09h14.11.561,t1_Paradigm,2021.1.4,59.97268012072879,
S,left,Pretarget,0,15,15,15,1379.9823661582195,1381.982821055397,left,1,3,0.8796681496314704,M09A06,2022-11-17_09h14.11.561,t1_Paradigm,2021.1.4,59.97268012072879,
Q,left,Distractor,0,16,16,16,1383.4822256469633,1385.4833609650668,left,1,3,0.5468887343304232,M09A06,2022-11-17_09h14.11.561,t1_Paradigm,2021.1.4,59.97268012072879,
R,left,Pretarget,0,17,17,17,1386.9822378374229,1388.9825673010491,left,1,3,0.8236372012179345,M09A06,2022-11-17_09h14.11.561,t1_Paradigm,2021.1.4,59.97268012072879,
S,right,Target,0,18,18,18,1390.4824733060668,1392.4835608246794,right,1,3,0.7945555417391006,M09A06,2022-11-17_09h14.11.561,t1_Paradigm,2021.1.4,59.97268012072879,
F,left,Distractor,0,19,19,19,1393.9825997020525,1395.9834434111835,left,1,3,0.5427702788438182,M09A06,2022-11-17_09h14.11.561,t1_Paradigm,2021.1.4,59.97268012072879,
R,right,Target,0,20,20,20,1397.4825445241004,1399.4825044238532,right,1,3,0.8515995827037841,M09A06,2022-11-17_09h14.11.561,t1_Paradigm,2021.1.4,59.97268012072879,
P,left,Distractor,0,21,21,21,1400.9824627196067,1402.981972213427,left,1,3,0.6321822745376267,M09A06,2022-11-17_09h14.11.561,t1_Paradigm,2021.1.4,59.97268012072879,
L,left,Distractor,0,22,22,22,1404.4825586394,1406.4820642835693,left,1,3,0.7962063885643147,M09A06,2022-11-17_09h14.11.561,t1_Paradigm,2021.1.4,59.97268012072879,
R,right,Target,0,23,23,23,1407.982174960256,1409.9843079724524,right,1,3,1.0378129262826405,M09A06,2022-11-17_09h14.11.561,t1_Paradigm,2021.1.4,59.97268012072879,
H,left,Pretarget,0,24,24,24,1411.4825499777508,1413.4832640828972,left,1,3,0.7708312748582102,M09A06,2022-11-17_09h14.11.561,t1_Paradigm,2021.1.4,59.97268012072879,
G,left,Pretarget,0,25,25,25,1414.9821156118996,1416.9845421578793,left,1,3,0.7896520838548895,M09A06,2022-11-17_09h14.11.561,t1_Paradigm,2021.1.4,59.97268012072879,
T,left,Distractor,0,26,26,26,1418.4824941582046,1420.4820091056463,left,1,3,1.0041107562428806,M09A06,2022-11-17_09h14.11.561,t1_Paradigm,2021.1.4,59.97268012072879,
H,right,Target,0,27,27,27,1421.9825608849933,1423.9841661779792,right,1,3,1.2140980909753125,M09A06,2022-11-17_09h14.11.561,t1_Paradigm,2021.1.4,59.97268012072879,
G,right,Target,0,28,28,28,1425.482453095552,1427.484027591534,right,1,3,1.0901629930594936,M09A06,2022-11-17_09h14.11.561,t1_Paradigm,2021.1.4,59.97268012072879,
D,left,Distractor,0,29,29,29,1428.9825150103134,1430.9841132456495,left,1,3,0.8060049634368625,M09A06,2022-11-17_09h14.11.561,t1_Paradigm,2021.1.4,59.97268012072879,
N,left,Pretarget,0,30,30,30,1432.4821085542499,1434.482090268546,left,1,3,0.7960584988759365,M09A06,2022-11-17_09h14.11.561,t1_Paradigm,2021.1.4,59.97268012072879,
V,left,Distractor,0,31,31,31,1435.9825281632075,1437.9844090250554,left,1,3,1.213771514594555,M09A06,2022-11-17_09h14.11.561,t1_Paradigm,2021.1.4,59.97268012072879,
R,left,Distractor,0,32,32,32,1439.4825903987803,1441.484333315777,left,1,3,0.8017809640732594,M09A06,2022-11-17_09h14.11.561,t1_Paradigm,2021.1.4,59.97268012072879,
N,right,Target,0,33,33,33,1442.9825570353714,1444.9824819677451,right,1,3,0.7436500461190008,M09A06,2022-11-17_09h14.11.561,t1_Paradigm,2021.1.4,59.97268012072879,
Z,left,Distractor,0,34,34,34,1446.4818981081771,1448.482485175744,left,1,3,0.5396398933953606,M09A06,2022-11-17_09h14.11.561,t1_Paradigm,2021.1.4,59.97268012072879,
N,left,Lure,0,35,35,35,1449.982188113121,1451.9825005742314,left,1,3,0.8638157211244106,M09A06,2022-11-17_09h14.11.561,t1_Paradigm,2021.1.4,59.97268012072879,
Y,left,Pretarget,0,36,36,36,1453.4825708298886,1455.4844472004625,left,1,3,0.7056468843366019,M09A06,2022-11-17_09h14.11.561,t1_Paradigm,2021.1.4,59.97268012072879,
Y,left,Lure,0,37,37,37,1456.982441867498,1458.9825637722097,left,1,3,0.8874674867256545,M09A06,2022-11-17_09h14.11.561,t1_Paradigm,2021.1.4,59.97268012072879,
B,left,Distractor,0,38,38,38,1460.4821849051223,1462.484422498761,left,1,3,1.273673580144532,M09A06,2022-11-17_09h14.11.561,t1_Paradigm,2021.1.4,59.97268012072879,
Y,right,Target,0,39,39,39,1463.9824431506859,1465.9837154512352,right,1,3,0.5102525096735917,M09A06,2022-11-17_09h14.11.561,t1_Paradigm,2021.1.4,59.97268012072879,
J,left,Distractor,0,40,40,40,1467.4825570353714,1469.4819914615073,left,1,3,1.0762231857515872,M09A06,2022-11-17_09h14.11.561,t1_Paradigm,2021.1.4,59.97268012072879,
X,left,Distractor,0,41,41,41,1470.982281145727,1472.983042087959,left,1,3,1.3829788257717155,M09A06,2022-11-17_09h14.11.561,t1_Paradigm,2021.1.4,59.97268012072879,
W,left,Pretarget,0,42,42,42,1474.482613817352,1476.4830741681217,left,1,3,1.019047936773859,M09A06,2022-11-17_09h14.11.561,t1_Paradigm,2021.1.4,59.97268012072879,
S,left,Pretarget,0,43,43,43,1477.9825085942575,1479.9825281632075,left,1,3,0.863750277494546,M09A06,2022-11-17_09h14.11.561,t1_Paradigm,2021.1.4,59.97268012072879,
R,left,Distractor,0,44,44,44,1481.482144163252,1483.484068974998,left,1,3,0.8982753045274876,M09A06,2022-11-17_09h14.11.561,t1_Paradigm,2021.1.4,59.97268012072879,
W,right,Target,0,45,45,45,1484.9820748700586,1486.982021296135,right,1,3,1.3360211190301925,M09A06,2022-11-17_09h14.11.561,t1_Paradigm,2021.1.4,59.97268012072879,
S,right,Target,0,46,46,46,1488.482529125613,1490.4831665591046,left,0,3,1.1792933246470056,M09A06,2022-11-17_09h14.11.561,t1_Paradigm,2021.1.4,59.97268012072879,
D,left,Distractor,0,47,47,47,1491.9825570353714,1493.9839762632328,left,1,3,1.43813206005143,M09A06,2022-11-17_09h14.11.561,t1_Paradigm,2021.1.4,59.97268012072879,
T,left,Distractor,0,48,48,48,1495.4824338474136,1497.4841517418681,left,1,3,0.9460812116740271,M09A06,2022-11-17_09h14.11.561,t1_Paradigm,2021.1.4,59.97268012072879,
S,right,Target,0,49,49,49,1498.9826032308338,1500.9820450354891,right,1,3,0.8559663388878107,M09A06,2022-11-17_09h14.11.561,t1_Paradigm,2021.1.4,59.97268012072879,
K,left,Distractor,0,50,50,50,1502.48230809308,1504.483152443805,left,1,3,0.6352456124150194,M09A06,2022-11-17_09h14.11.561,t1_Paradigm,2021.1.4,59.97268012072879,
S,left,Lure,0,51,51,51,1505.982173035416,1507.984256002499,left,1,3,0.653963764780201,M09A06,2022-11-17_09h14.11.561,t1_Paradigm,2021.1.4,59.97268012072879,
T,left,Pretarget,0,52,52,52,1509.4824553411745,1511.4828720629157,left,1,3,1.0273567073745653,M09A06,2022-11-17_09h14.11.561,t1_Paradigm,2021.1.4,59.97268012072879,
V,left,Distractor,0,53,53,53,1512.9824328850082,1514.983767741971,None,0,3,,M09A06,2022-11-17_09h14.11.561,t1_Paradigm,2021.1.4,59.97268012072879,
B,left,Distractor,0,54,54,54,1516.4822080028534,1518.485674267955,left,1,3,0.7926069906679913,M09A06,2022-11-17_09h14.11.561,t1_Paradigm,2021.1.4,59.97268012072879,
T,right,Target,0,55,55,55,1519.982100213383,1521.9841340977873,None,0,3,,M09A06,2022-11-17_09h14.11.561,t1_Paradigm,2021.1.4,59.97268012072879,
Y,left,Pretarget,0,56,56,56,1523.4822323838307,1525.4832749901398,left,1,3,1.1547994538559578,M09A06,2022-11-17_09h14.11.561,t1_Paradigm,2021.1.4,59.97268012072879,
T,left,Lure,0,57,57,57,1526.9823530053545,1528.9834828698367,right,0,3,1.2386506684706546,M09A06,2022-11-17_09h14.11.561,t1_Paradigm,2021.1.4,59.97268012072879,
P,left,Pretarget,0,58,58,58,1530.4820800028683,1532.4833253560646,left,1,3,1.2268826904473826,M09A06,2022-11-17_09h14.11.561,t1_Paradigm,2021.1.4,59.97268012072879,
Y,right,Target,0,59,59,59,1533.982293656998,1535.9831396117515,right,1,3,1.2953036518883891,M09A06,2022-11-17_09h14.11.561,t1_Paradigm,2021.1.4,59.97268012072879,
R,left,Distractor,0,60,60,60,1537.482046318677,1539.4830930954486,left,1,3,1.0431109705241397,M09A06,2022-11-17_09h14.11.561,t1_Paradigm,2021.1.4,59.97268012072879,
P,right,Target,0,61,61,61,1540.9824335266312,1542.9819779878308,None,0,3,,M09A06,2022-11-17_09h14.11.561,t1_Paradigm,2021.1.4,59.97268012072879,
L,left,Distractor,0,62,62,62,1544.4820087848639,1546.4828098273429,left,1,3,1.0672583752311766,M09A06,2022-11-17_09h14.11.561,t1_Paradigm,2021.1.4,59.97268012072879,
V,left,Distractor,0,63,63,63,1547.981941416423,1549.982466248417,None,0,3,,M09A06,2022-11-17_09h14.11.561,t1_Paradigm,2021.1.4,59.97268012072879,
H,left,Lure,0,0,0,0,1555.6415753557521,1557.6332444498257,left,1,3,1.3568652260000817,M09A06,2022-11-17_09h14.11.561,t1_Paradigm,2021.1.4,59.97268012072879,
B,left,Distractor,0,1,1,1,1559.1321216429642,1561.133419928461,left,1,3,1.0727312564849854,M09A06,2022-11-17_09h14.11.561,t1_Paradigm,2021.1.4,59.97268012072879,
T,left,Distractor,0,2,2,2,1562.6324453321577,1564.6325341943011,left,1,3,1.3816946555743925,M09A06,2022-11-17_09h14.11.561,t1_Paradigm,2021.1.4,59.97268012072879,
R,left,Distractor,0,3,3,3,1566.1321781041042,1568.1322897431965,left,1,3,0.9057297795079648,M09A06,2022-11-17_09h14.11.561,t1_Paradigm,2021.1.4,59.97268012072879,
H,left,Pretarget,0,4,4,4,1569.6326731015288,1571.634752860613,left,1,3,0.9390825962764211,M09A06,2022-11-17_09h14.11.561,t1_Paradigm,2021.1.4,59.97268012072879,
K,left,Distractor,0,5,5,5,1573.1324703546998,1575.1321463447239,left,1,3,1.0259288179222494,M09A06,2022-11-17_09h14.11.561,t1_Paradigm,2021.1.4,59.97268012072879,
G,left,Distractor,0,6,6,6,1576.6325807105459,1578.6336656627536,left,1,3,1.1884422755683772,M09A06,2022-11-17_09h14.11.561,t1_Paradigm,2021.1.4,59.97268012072879,
H,right,Target,0,7,7,7,1580.13192338738,1582.1335225851217,None,0,3,,M09A06,2022-11-17_09h14.11.561,t1_Paradigm,2021.1.4,59.97268012072879,
Y,left,Pretarget,0,8,8,8,1583.63257814417,1585.6319923597912,left,1,3,1.1503293994464912,M09A06,2022-11-17_09h14.11.561,t1_Paradigm,2021.1.4,59.97268012072879,
S,left,Distractor,0,9,9,9,1587.1325710864912,1589.1341609809606,left,1,3,1.008007537573576,M09A06,2022-11-17_09h14.11.561,t1_Paradigm,2021.1.4,59.97268012072879,
P,left,Distractor,0,10,10,10,1590.6325107757293,1592.6337009509734,left,1,3,0.9002848080126569,M09A06,2022-11-17_09h14.11.561,t1_Paradigm,2021.1.4,59.97268012072879,
Y,right,Target,0,11,11,11,1594.1325088509184,1596.1332832668268,right,1,3,0.9207981681101955,M09A06,2022-11-17_09h14.11.561,t1_Paradigm,2021.1.4,59.97268012072879,
H,left,Lure,0,12,12,12,1597.6325258534343,1599.6321899738105,right,0,3,1.2618979028775357,M09A06,2022-11-17_09h14.11.561,t1_Paradigm,2021.1.4,59.97268012072879,
Q,left,Distractor,0,13,13,13,1601.132389833423,1603.1335697429895,left,1,3,0.9287896655732766,M09A06,2022-11-17_09h14.11.561,t1_Paradigm,2021.1.4,59.97268012072879,
V,left,Pretarget,0,14,14,14,1604.632405552693,1606.6342986050004,None,0,3,,M09A06,2022-11-17_09h14.11.561,t1_Paradigm,2021.1.4,59.97268012072879,
G,left,Distractor,0,15,15,15,1608.1324754875095,1610.1345642290253,left,1,3,1.0636609020875767,M09A06,2022-11-17_09h14.11.561,t1_Paradigm,2021.1.4,59.97268012072879,
Z,left,Pretarget,0,16,16,16,1611.6324142143421,1613.6338668056123,left,1,3,0.8922230548923835,M09A06,2022-11-17_09h14.11.561,t1_Paradigm,2021.1.4,59.97268012072879,
V,right,Target,0,17,17,17,1615.1323968910438,1617.1324953772419,right,1,3,1.185872972710058,M09A06,2022-11-17_09h14.11.561,t1_Paradigm,2021.1.4,59.97268012072879,
N,left,Distractor,0,18,18,18,1618.632052670553,1620.634650524793,left,1,3,0.9635042865411378,M09A06,2022-11-17_09h14.11.561,t1_Paradigm,2021.1.4,59.97268012072879,
Z,right,Target,0,19,19,19,1622.132126775774,1624.1339948055975,right,1,3,0.9840205339132808,M09A06,2022-11-17_09h14.11.561,t1_Paradigm,2021.1.4,59.97268012072879,
R,left,Distractor,0,20,20,20,1625.6324658634549,1627.6332659435284,left,1,3,0.6687184090260416,M09A06,2022-11-17_09h14.11.561,t1_Paradigm,2021.1.4,59.97268012072879,
P,left,Distractor,0,21,21,21,1629.1324697130767,1631.1333676377835,left,1,3,0.992842587584164,M09A06,2022-11-17_09h14.11.561,t1_Paradigm,2021.1.4,59.97268012072879,
Z,right,Target,0,22,22,22,1632.632305141684,1634.6334221741126,right,1,3,1.1247364612063393,M09A06,2022-11-17_09h14.11.561,t1_Paradigm,2021.1.4,59.97268012072879,
D,left,Pretarget,0,23,23,23,1636.132593221817,1638.133681061241,left,1,3,0.8085258252103813,M09A06,2022-11-17_09h14.11.561,t1_Paradigm,2021.1.4,59.97268012072879,
K,left,Distractor,0,24,24,24,1639.6324129311542,1641.6328915676859,left,1,3,0.7654398772283457,M09A06,2022-11-17_09h14.11.561,t1_Paradigm,2021.1.4,59.97268012072879,
W,left,Distractor,0,25,25,25,1643.1324661842955,1645.1328447306005,left,1,3,0.9612403871724382,M09A06,2022-11-17_09h14.11.561,t1_Paradigm,2021.1.4,59.97268012072879,
D,right,Target,0,26,26,26,1646.63237860534,1648.6331664949248,right,1,3,0.9007801261614077,M09A06,2022-11-17_09h14.11.561,t1_Paradigm,2021.1.4,59.97268012072879,
G,left,Pretarget,0,27,27,27,1650.132551838382,1652.1331648908963,left,1,3,0.776984897966031,M09A06,2022-11-17_09h14.11.561,t1_Paradigm,2021.1.4,59.97268012072879,
V,left,Distractor,0,28,28,28,1653.6321277381794,1655.6331401891948,left,1,3,0.6368319780449383,M09A06,2022-11-17_09h14.11.561,t1_Paradigm,2021.1.4,59.97268012072879,
D,right,Target,0,29,29,29,1657.1324722795107,1659.1324203096156,right,1,3,1.0896660708240233,M09A06,2022-11-17_09h14.11.561,t1_Paradigm,2021.1.4,59.97268012072879,
G,right,Target,0,30,30,30,1660.6325534424104,1662.6331353771675,right,1,3,1.3970328385476023,M09A06,2022-11-17_09h14.11.561,t1_Paradigm,2021.1.4,59.97268012072879,
B,left,Pretarget,0,31,31,31,1664.1325412519218,1666.1336480186728,left,1,3,0.7127167177386582,M09A06,2022-11-17_09h14.11.561,t1_Paradigm,2021.1.4,59.97268012072879,
N,left,Distractor,0,32,32,32,1667.6325101341063,1669.6345363192668,None,0,3,,M09A06,2022-11-17_09h14.11.561,t1_Paradigm,2021.1.4,59.97268012072879,
F,left,Distractor,0,33,33,33,1671.132161422429,1673.1340419634653,left,1,3,1.4561460521654226,M09A06,2022-11-17_09h14.11.561,t1_Paradigm,2021.1.4,59.97268012072879,
B,right,Target,0,34,34,34,1674.6320257232,1676.6333586552937,left,0,3,0.8047211140510626,M09A06,2022-11-17_09h14.11.561,t1_Paradigm,2021.1.4,59.97268012072879,
Q,left,Pretarget,0,35,35,35,1678.132478374726,1680.131898364838,left,1,3,0.8901811504038051,M09A06,2022-11-17_09h14.11.561,t1_Paradigm,2021.1.4,59.97268012072879,
S,left,Pretarget,0,36,36,36,1681.6324084399093,1683.633244128985,left,1,3,1.292864273826126,M09A06,2022-11-17_09h14.11.561,t1_Paradigm,2021.1.4,59.97268012072879,
W,left,Distractor,0,37,37,37,1685.132551838382,1687.1344679884787,left,1,3,0.8957111344789155,M09A06,2022-11-17_09h14.11.561,t1_Paradigm,2021.1.4,59.97268012072879,
Q,right,Target,0,38,38,38,1688.632452068996,1690.6344930110208,right,1,3,0.8035546781029552,M09A06,2022-11-17_09h14.11.561,t1_Paradigm,2021.1.4,59.97268012072879,
S,right,Target,0,39,39,39,1692.1321931818093,1694.131982414896,left,0,3,1.274172106408514,M09A06,2022-11-17_09h14.11.561,t1_Paradigm,2021.1.4,59.97268012072879,
T,left,Distractor,0,40,40,40,1695.632199597865,1697.6335488908517,left,1,3,1.0205037360428832,M09A06,2022-11-17_09h14.11.561,t1_Paradigm,2021.1.4,59.97268012072879,
G,left,Distractor,0,41,41,41,1699.1320533121761,1701.13205202893,None,0,3,,M09A06,2022-11-17_09h14.11.561,t1_Paradigm,2021.1.4,59.97268012072879,
D,left,Distractor,0,42,42,42,1702.6321052820713,1704.633685552486,left,1,3,0.884344479709398,M09A06,2022-11-17_09h14.11.561,t1_Paradigm,2021.1.4,59.97268012072879,
S,left,Lure,0,43,43,43,1706.132535477489,1708.1336781740247,left,1,3,1.3363518658443354,M09A06,2022-11-17_09h14.11.561,t1_Paradigm,2021.1.4,59.97268012072879,
Z,left,Pretarget,0,44,44,44,1709.632274344709,1711.6336926101067,left,1,3,0.796479391050525,M09A06,2022-11-17_09h14.11.561,t1_Paradigm,2021.1.4,59.97268012072879,
J,left,Distractor,0,45,45,45,1713.1323298434436,1715.1337160286785,left,1,3,0.8003402425092645,M09A06,2022-11-17_09h14.11.561,t1_Paradigm,2021.1.4,59.97268012072879,
M,left,Pretarget,0,46,46,46,1716.6323449211486,1718.6336598883208,left,1,3,0.7244227810297161,M09A06,2022-11-17_09h14.11.561,t1_Paradigm,2021.1.4,59.97268012072879,
Z,right,Target,0,47,47,47,1720.1321088109107,1722.1325101341063,right,1,3,0.7300220582983457,M09A06,2022-11-17_09h14.11.561,t1_Paradigm,2021.1.4,59.97268012072879,
P,left,Distractor,0,48,48,48,1723.6324328208866,1725.6339274371567,left,1,3,0.6841233188170008,M09A06,2022-11-17_09h14.11.561,t1_Paradigm,2021.1.4,59.97268012072879,
M,right,Target,0,49,49,49,1727.1321973522136,1729.133204028738,right,1,3,0.5290194239350967,M09A06,2022-11-17_09h14.11.561,t1_Paradigm,2021.1.4,59.97268012072879,
K,left,Distractor,0,50,50,50,1730.6323583948251,1732.6323166905495,left,1,3,0.6937624551355839,M09A06,2022-11-17_09h14.11.561,t1_Paradigm,2021.1.4,59.97268012072879,
Y,left,Distractor,0,51,51,51,1734.1322627958434,1736.1321396078856,left,1,3,0.6662562540150248,M09A06,2022-11-17_09h14.11.561,t1_Paradigm,2021.1.4,59.97268012072879,
X,left,Distractor,0,52,52,52,1737.6319047808356,1739.6341596977727,left,1,3,0.6838224066304974,M09A06,2022-11-17_09h14.11.561,t1_Paradigm,2021.1.4,59.97268012072879,
F,left,Pretarget,0,53,53,53,1741.1323442795256,1743.1334115876525,left,1,3,0.8967668937402777,M09A06,2022-11-17_09h14.11.561,t1_Paradigm,2021.1.4,59.97268012072879,
M,left,Lure,0,54,54,54,1744.6321681592672,1746.6323500539584,left,1,3,1.3176706056692638,M09A06,2022-11-17_09h14.11.561,t1_Paradigm,2021.1.4,59.97268012072879,
V,left,Distractor,0,55,55,55,1748.1322230163787,1750.1345953468408,right,0,3,0.9674353937152773,M09A06,2022-11-17_09h14.11.561,t1_Paradigm,2021.1.4,59.97268012072879,
F,right,Target,0,56,56,56,1751.632522966218,1753.6342880185402,None,0,3,,M09A06,2022-11-17_09h14.11.561,t1_Paradigm,2021.1.4,59.97268012072879,
S,left,Distractor,0,57,57,57,1755.1324649010494,1757.1334401389759,left,1,3,0.816582124622073,M09A06,2022-11-17_09h14.11.561,t1_Paradigm,2021.1.4,59.97268012072879,
D,left,Distractor,0,58,58,58,1758.6323555076087,1760.6324283296417,left,1,3,1.0458567144232802,M09A06,2022-11-17_09h14.11.561,t1_Paradigm,2021.1.4,59.97268012072879,
F,right,Target,0,59,59,59,1762.1319853021123,1764.151111193787,right,1,3,0.838976988219656,M09A06,2022-11-17_09h14.11.561,t1_Paradigm,2021.1.4,59.97268012072879,
V,left,Pretarget,0,60,60,60,1765.632096620422,1767.6331863846572,left,1,3,1.181037204049062,M09A06,2022-11-17_09h14.11.561,t1_Paradigm,2021.1.4,59.97268012072879,
J,left,Distractor,0,61,61,61,1769.1324257632077,1771.1343367804366,left,1,3,0.7037538319709711,M09A06,2022-11-17_09h14.11.561,t1_Paradigm,2021.1.4,59.97268012072879,
V,left,Lure,0,62,62,62,1772.63241934721,1774.6323365802818,right,0,3,1.1418140323949046,M09A06,2022-11-17_09h14.11.561,t1_Paradigm,2021.1.4,59.97268012072879,
V,right,Target,0,63,63,63,1776.1325098133238,1778.1323834173672,right,1,3,0.761609822686296,M09A06,2022-11-17_09h14.11.561,t1_Paradigm,2021.1.4,59.97268012072879,
R,left,Distractor,0,0,0,0,1849.7557635279081,1851.7505501753476,None,0,4,,M09A06,2022-11-17_09h14.11.561,t1_Paradigm,2021.1.4,59.97268012072879,
F,left,Distractor,0,1,1,1,1853.2486420453351,1855.248618947604,None,0,4,,M09A06,2022-11-17_09h14.11.561,t1_Paradigm,2021.1.4,59.97268012072879,
P,left,Pretarget,0,2,2,2,1856.748632742063,1858.7488005215127,left,1,4,0.8654357709456235,M09A06,2022-11-17_09h14.11.561,t1_Paradigm,2021.1.4,59.97268012072879,
H,left,Distractor,0,3,3,3,1860.2492438698246,1862.2501401904447,left,1,4,0.7399739765678532,M09A06,2022-11-17_09h14.11.561,t1_Paradigm,2021.1.4,59.97268012072879,
Z,left,Distractor,0,4,4,4,1863.7488287520537,1865.7494456542481,left,1,4,0.6489797856775112,M09A06,2022-11-17_09h14.11.561,t1_Paradigm,2021.1.4,59.97268012072879,
T,left,Distractor,0,5,5,5,1867.248634025309,1869.2501247919572,left,1,4,0.5719375924672931,M09A06,2022-11-17_09h14.11.561,t1_Paradigm,2021.1.4,59.97268012072879,
P,right,Target,0,6,6,6,1870.7490770527802,1872.7510602504772,right,1,4,0.9275013249134645,M09A06,2022-11-17_09h14.11.561,t1_Paradigm,2021.1.4,59.97268012072879,
G,left,Distractor,0,7,7,7,1874.248808541539,1876.2499082506693,left,1,4,1.0602251131786034,M09A06,2022-11-17_09h14.11.561,t1_Paradigm,2021.1.4,59.97268012072879,
L,left,Distractor,0,8,8,8,1877.7490918096446,1879.7497687018185,left,1,4,0.6484398759785108,M09A06,2022-11-17_09h14.11.561,t1_Paradigm,2021.1.4,59.97268012072879,
P,left,Lure,0,9,9,9,1881.249080902402,1883.249856922339,left,1,4,1.116263760777656,M09A06,2022-11-17_09h14.11.561,t1_Paradigm,2021.1.4,59.97268012072879,
Q,left,Pretarget,0,10,10,10,1884.7489362207416,1886.7496856141079,left,1,4,0.7842327764374204,M09A06,2022-11-17_09h14.11.561,t1_Paradigm,2021.1.4,59.97268012072879,
D,left,Distractor,0,11,11,11,1888.2489939650695,1890.2493972131342,left,1,4,0.9005902114440687,M09A06,2022-11-17_09h14.11.561,t1_Paradigm,2021.1.4,59.97268012072879,
M,left,Pretarget,0,12,12,12,1891.7488252232724,1893.7498540351226,right,0,4,1.3201978834695183,M09A06,2022-11-17_09h14.11.561,t1_Paradigm,2021.1.4,59.97268012072879,
C,left,Distractor,0,13,13,13,1895.248601303465,1897.2484579049924,left,1,4,0.621552822587546,M09A06,2022-11-17_09h14.11.561,t1_Paradigm,2021.1.4,59.97268012072879,
Q,right,Target,0,14,14,14,1898.7487825565913,1900.7502219949674,right,1,4,0.9278465078095905,M09A06,2022-11-17_09h14.11.561,t1_Paradigm,2021.1.4,59.97268012072879,
R,left,Distractor,0,15,15,15,1902.2487283410446,1904.249815538904,left,1,4,1.1243396291974932,M09A06,2022-11-17_09h14.11.561,t1_Paradigm,2021.1.4,59.97268012072879,
M,right,Target,0,16,16,16,1905.7489718297438,1907.7498431278218,right,1,4,1.1763422674266621,M09A06,2022-11-17_09h14.11.561,t1_Paradigm,2021.1.4,59.97268012072879,
S,left,Distractor,0,17,17,17,1909.2490170628007,1911.2488816844125,left,1,4,0.7492974437191151,M09A06,2022-11-17_09h14.11.561,t1_Paradigm,2021.1.4,59.97268012072879,
Z,left,Distractor,0,18,18,18,1912.7490837896185,1914.7499890927284,left,1,4,1.3124303057556972,M09A06,2022-11-17_09h14.11.561,t1_Paradigm,2021.1.4,59.97268012072879,
L,left,Pretarget,0,19,19,19,1916.249007438746,1918.250653473573,right,0,4,1.0595402009785175,M09A06,2022-11-17_09h14.11.561,t1_Paradigm,2021.1.4,59.97268012072879,
M,right,Target,0,20,20,20,1919.7490308573178,1921.7490170628007,None,0,4,,M09A06,2022-11-17_09h14.11.561,t1_Paradigm,2021.1.4,59.97268012072879,
P,left,Distractor,0,21,21,21,1923.2492044111423,1925.2496025263972,left,1,4,0.9403026060317643,M09A06,2022-11-17_09h14.11.561,t1_Paradigm,2021.1.4,59.97268012072879,
F,left,Distractor,0,22,22,22,1926.748721925047,1928.751018866984,left,1,4,1.1189687628648244,M09A06,2022-11-17_09h14.11.561,t1_Paradigm,2021.1.4,59.97268012072879,
L,right,Target,0,23,23,23,1930.2486086819263,1932.2485079501348,None,0,4,,M09A06,2022-11-17_09h14.11.561,t1_Paradigm,2021.1.4,59.97268012072879,
L,left,Lure,0,24,24,24,1933.7490764111571,1935.7489747169602,right,0,4,1.3370589133701287,M09A06,2022-11-17_09h14.11.561,t1_Paradigm,2021.1.4,59.97268012072879,
V,left,Pretarget,0,25,25,25,1937.2491967118985,1939.2502511879138,left,1,4,1.2599445398082025,M09A06,2022-11-17_09h14.11.561,t1_Paradigm,2021.1.4,59.97268012072879,
Z,left,Distractor,0,26,26,26,1940.7490536342666,1942.7509778043313,right,0,4,1.1829610533313826,M09A06,2022-11-17_09h14.11.561,t1_Paradigm,2021.1.4,59.97268012072879,
H,left,Distractor,0,27,27,27,1944.2487395691278,1946.2495380451728,left,1,4,0.8843893919838592,M09A06,2022-11-17_09h14.11.561,t1_Paradigm,2021.1.4,59.97268012072879,
X,left,Distractor,0,28,28,28,1947.749070957565,1949.749507248198,left,1,4,0.8722473588422872,M09A06,2022-11-17_09h14.11.561,t1_Paradigm,2021.1.4,59.97268012072879,
V,right,Target,0,29,29,29,1951.2490626166982,1953.249022516451,left,0,4,1.1971315172850154,M09A06,2022-11-17_09h14.11.561,t1_Paradigm,2021.1.4,59.97268012072879,
C,left,Distractor,0,30,30,30,1954.7485733937065,1956.7498318997968,left,1,4,1.1201592588913627,M09A06,2022-11-17_09h14.11.561,t1_Paradigm,2021.1.4,59.97268012072879,
S,left,Pretarget,0,31,31,31,1958.2486965816643,1960.250594445999,right,0,4,1.0433721033041365,M09A06,2022-11-17_09h14.11.561,t1_Paradigm,2021.1.4,59.97268012072879,
D,left,Distractor,0,32,32,32,1961.7490029475011,1963.7499246115622,left,1,4,0.6164026680635288,M09A06,2022-11-17_09h14.11.561,t1_Paradigm,2021.1.4,59.97268012072879,
V,left,Distractor,0,33,33,33,1965.2486186267633,1967.2512495236297,right,0,4,1.131022575427778,M09A06,2022-11-17_09h14.11.561,t1_Paradigm,2021.1.4,59.97268012072879,
R,left,Distractor,0,34,34,34,1968.74895354404,1970.7485567120311,left,1,4,0.9935348782455549,M09A06,2022-11-17_09h14.11.561,t1_Paradigm,2021.1.4,59.97268012072879,
S,right,Target,0,35,35,35,1972.248789614212,1974.2499570125656,None,0,4,,M09A06,2022-11-17_09h14.11.561,t1_Paradigm,2021.1.4,59.97268012072879,
Y,left,Distractor,0,36,36,36,1975.7489625264716,1977.7504109472793,left,1,4,0.9355948374141008,M09A06,2022-11-17_09h14.11.561,t1_Paradigm,2021.1.4,59.97268012072879,
N,left,Pretarget,0,37,37,37,1979.2486821455823,1981.2502187869104,left,1,4,0.8918932704837061,M09A06,2022-11-17_09h14.11.561,t1_Paradigm,2021.1.4,59.97268012072879,
Z,left,Pretarget,0,38,38,38,1982.7485782057338,1984.7498322205793,left,1,4,0.8642321220249869,M09A06,2022-11-17_09h14.11.561,t1_Paradigm,2021.1.4,59.97268012072879,
P,left,Pretarget,0,39,39,39,1986.249080260779,1988.2505848219444,left,1,4,0.7234651872422546,M09A06,2022-11-17_09h14.11.561,t1_Paradigm,2021.1.4,59.97268012072879,
M,left,Distractor,0,40,40,40,1989.7487520803988,1991.7493407519942,left,1,4,0.6648521038587205,M09A06,2022-11-17_09h14.11.561,t1_Paradigm,2021.1.4,59.97268012072879,
N,right,Target,0,41,41,41,1993.2489952482574,1995.2481409526954,left,0,4,0.7178460201830603,M09A06,2022-11-17_09h14.11.561,t1_Paradigm,2021.1.4,59.97268012072879,
Z,right,Target,0,42,42,42,1996.7489901154477,1998.7509277592471,left,0,4,0.607201426406391,M09A06,2022-11-17_09h14.11.561,t1_Paradigm,2021.1.4,59.97268012072879,
P,right,Target,0,43,43,43,2000.2486866368272,2002.248967338499,right,1,4,0.8209947555442341,M09A06,2022-11-17_09h14.11.561,t1_Paradigm,2021.1.4,59.97268012072879,
X,left,Pretarget,0,44,44,44,2003.7486067571153,2005.7500750676554,left,1,4,0.823727025766857,M09A06,2022-11-17_09h14.11.561,t1_Paradigm,2021.1.4,59.97268012072879,
Z,left,Lure,0,45,45,45,2007.249063899886,2009.24857050649,right,0,4,1.3894615916651674,M09A06,2022-11-17_09h14.11.561,t1_Paradigm,2021.1.4,59.97268012072879,
R,left,Pretarget,0,46,46,46,2010.748530406243,2012.7495999599632,left,1,4,0.7203367265756242,M09A06,2022-11-17_09h14.11.561,t1_Paradigm,2021.1.4,59.97268012072879,
K,left,Distractor,0,47,47,47,2014.2490446517768,2016.24864653658,left,1,4,1.125476230517961,M09A06,2022-11-17_09h14.11.561,t1_Paradigm,2021.1.4,59.97268012072879,
X,right,Target,0,48,48,48,2017.7490180252062,2019.750522265589,right,1,4,1.1116240021656267,M09A06,2022-11-17_09h14.11.561,t1_Paradigm,2021.1.4,59.97268012072879,
B,left,Distractor,0,49,49,49,2021.2490167420183,2023.2507355988782,left,1,4,0.7474483412806876,M09A06,2022-11-17_09h14.11.561,t1_Paradigm,2021.1.4,59.97268012072879,
R,right,Target,0,50,50,50,2024.7490372733155,2026.7505427968863,right,1,4,1.327584027661942,M09A06,2022-11-17_09h14.11.561,t1_Paradigm,2021.1.4,59.97268012072879,
Y,left,Pretarget,0,51,51,51,2028.2490475389932,2030.2505710274854,left,1,4,0.7874311719788238,M09A06,2022-11-17_09h14.11.561,t1_Paradigm,2021.1.4,59.97268012072879,
W,left,Pretarget,0,52,52,52,2031.749085393647,2033.750452009932,left,1,4,1.015547025075648,M09A06,2022-11-17_09h14.11.561,t1_Paradigm,2021.1.4,59.97268012072879,
Z,left,Distractor,0,53,53,53,2035.2489583560673,2037.2502816641063,left,1,4,1.3398203765973449,M09A06,2022-11-17_09h14.11.561,t1_Paradigm,2021.1.4,59.97268012072879,
Q,left,Distractor,0,54,54,54,2038.7490314988827,2040.748981133016,left,1,4,1.0251309833838604,M09A06,2022-11-17_09h14.11.561,t1_Paradigm,2021.1.4,59.97268012072879,
Y,right,Target,0,55,55,55,2042.2489901154477,2044.2512479196012,right,1,4,1.1388568799593486,M09A06,2022-11-17_09h14.11.561,t1_Paradigm,2021.1.4,59.97268012072879,
W,right,Target,0,56,56,56,2045.7490645415091,2047.7503002706508,right,1,4,1.3996595649514347,M09A06,2022-11-17_09h14.11.561,t1_Paradigm,2021.1.4,59.97268012072879,
H,left,Pretarget,0,57,57,57,2049.249035027722,2051.249049463804,left,1,4,0.7650019825669006,M09A06,2022-11-17_09h14.11.561,t1_Paradigm,2021.1.4,59.97268012072879,
M,left,Distractor,0,58,58,58,2052.7489002908987,2054.7510926514806,None,0,4,,M09A06,2022-11-17_09h14.11.561,t1_Paradigm,2021.1.4,59.97268012072879,
R,left,Pretarget,0,59,59,59,2056.2488232984615,2058.248895799654,None,0,4,,M09A06,2022-11-17_09h14.11.561,t1_Paradigm,2021.1.4,59.97268012072879,
J,left,Distractor,0,60,60,60,2059.7489958898805,2061.748424220801,None,0,4,,M09A06,2022-11-17_09h14.11.561,t1_Paradigm,2021.1.4,59.97268012072879,
H,right,Target,0,61,61,61,2063.2485615240585,2065.25047831572,left,0,4,0.5875288881943561,M09A06,2022-11-17_09h14.11.561,t1_Paradigm,2021.1.4,59.97268012072879,
Z,left,Distractor,0,62,62,62,2066.74894456155,2068.748824902432,left,1,4,0.4812892260379158,M09A06,2022-11-17_09h14.11.561,t1_Paradigm,2021.1.4,59.97268012072879,
R,right,Target,0,63,63,63,2070.2486337044684,2072.2492627970933,right,1,4,0.8528192717349157,M09A06,2022-11-17_09h14.11.561,t1_Paradigm,2021.1.4,59.97268012072879,
J,left,Pretarget,0,0,0,0,2082.513471436425,2084.5152111454227,None,0,4,,M09A06,2022-11-17_09h14.11.561,t1_Paradigm,2021.1.4,59.97268012072879,
G,left,Pretarget,0,1,1,1,2086.015570122836,2088.015843125264,None,0,4,,M09A06,2022-11-17_09h14.11.561,t1_Paradigm,2021.1.4,59.97268012072879,
Z,left,Distractor,0,2,2,2,2089.5157346942287,2091.5176559771353,None,0,4,,M09A06,2022-11-17_09h14.11.561,t1_Paradigm,2021.1.4,59.97268012072879,
F,left,Distractor,0,3,3,3,2093.0156637970067,2095.016267546249,None,0,4,,M09A06,2022-11-17_09h14.11.561,t1_Paradigm,2021.1.4,59.97268012072879,
J,right,Target,0,4,4,4,2096.515001340973,2098.5166130499856,right,1,4,0.9054121855879202,M09A06,2022-11-17_09h14.11.561,t1_Paradigm,2021.1.4,59.97268012072879,
G,right,Target,0,5,5,5,2100.015221090318,2102.017238613771,right,1,4,0.8928239169181325,M09A06,2022-11-17_09h14.11.561,t1_Paradigm,2021.1.4,59.97268012072879,
H,left,Distractor,0,6,6,6,2103.5156333208142,2105.51695598723,right,0,4,1.2170363160548732,M09A06,2022-11-17_09h14.11.561,t1_Paradigm,2021.1.4,59.97268012072879,
P,left,Distractor,0,7,7,7,2107.015633962379,2109.0166772103694,left,1,4,0.5331038744188845,M09A06,2022-11-17_09h14.11.561,t1_Paradigm,2021.1.4,59.97268012072879,
G,left,Lure,0,8,8,8,2110.5157022932253,2112.5175039170135,left,1,4,0.9205203535966575,M09A06,2022-11-17_09h14.11.561,t1_Paradigm,2021.1.4,59.97268012072879,
S,left,Distractor,0,9,9,9,2114.0155107744795,2116.016970744153,left,1,4,0.6690677623846568,M09A06,2022-11-17_09h14.11.561,t1_Paradigm,2021.1.4,59.97268012072879,
R,left,Pretarget,0,10,10,10,2117.515647436114,2119.5152801178338,left,1,4,0.9469018230447546,M09A06,2022-11-17_09h14.11.561,t1_Paradigm,2021.1.4,59.97268012072879,
T,left,Pretarget,0,11,11,11,2121.0148515264445,2123.01728256364,left,1,4,0.8690284320036881,M09A06,2022-11-17_09h14.11.561,t1_Paradigm,2021.1.4,59.97268012072879,
X,left,Distractor,0,12,12,12,2124.5156439072744,2126.516016999929,left,1,4,0.8101914289873093,M09A06,2022-11-17_09h14.11.561,t1_Paradigm,2021.1.4,59.97268012072879,
F,left,Pretarget,0,13,13,13,2128.0156532105466,2130.0156551353575,left,1,4,0.8944375507999212,M09A06,2022-11-17_09h14.11.561,t1_Paradigm,2021.1.4,59.97268012072879,
R,right,Target,0,14,14,14,2131.515725711739,2133.516171947267,left,0,4,0.6419381827581674,M09A06,2022-11-17_09h14.11.561,t1_Paradigm,2021.1.4,59.97268012072879,
T,right,Target,0,15,15,15,2135.015664759412,2137.015463937394,left,0,4,0.6787964023533277,M09A06,2022-11-17_09h14.11.561,t1_Paradigm,2021.1.4,59.97268012072879,
C,left,Distractor,0,16,16,16,2138.5155758972687,2140.5173512152687,left,1,4,0.48875107953790575,M09A06,2022-11-17_09h14.11.561,t1_Paradigm,2021.1.4,59.97268012072879,
F,right,Target,0,17,17,17,2142.0153821328713,2144.0151643083373,left,0,4,1.0867313745548017,M09A06,2022-11-17_09h14.11.561,t1_Paradigm,2021.1.4,59.97268012072879,
M,left,Distractor,0,18,18,18,2145.5155377218325,2147.51630123044,left,1,4,1.0897931084036827,M09A06,2022-11-17_09h14.11.561,t1_Paradigm,2021.1.4,59.97268012072879,
N,left,Distractor,0,19,19,19,2149.015573972458,2151.015462654148,left,1,4,1.0146471755579114,M09A06,2022-11-17_09h14.11.561,t1_Paradigm,2021.1.4,59.97268012072879,
R,left,Lure,0,20,20,20,2152.515368659195,2154.516921019851,left,1,4,0.8571847446728498,M09A06,2022-11-17_09h14.11.561,t1_Paradigm,2021.1.4,59.97268012072879,
F,right,Target,0,21,21,21,2156.015679837059,2158.017184077442,None,0,4,,M09A06,2022-11-17_09h14.11.561,t1_Paradigm,2021.1.4,59.97268012072879,
P,left,Distractor,0,22,22,22,2159.5155572907242,2161.517281922017,left,1,4,1.0247768180561252,M09A06,2022-11-17_09h14.11.561,t1_Paradigm,2021.1.4,59.97268012072879,
L,left,Pretarget,0,23,23,23,2163.015797250584,2165.0165828945755,left,1,4,0.9173675120109692,M09A06,2022-11-17_09h14.11.561,t1_Paradigm,2021.1.4,59.97268012072879,
T,left,Distractor,0,24,24,24,2166.5156660426,2168.5152092206117,left,1,4,1.0507784580113366,M09A06,2022-11-17_09h14.11.561,t1_Paradigm,2021.1.4,59.97268012072879,
F,left,Distractor,0,25,25,25,2170.015674062626,2172.0151270953065,None,0,4,,M09A06,2022-11-17_09h14.11.561,t1_Paradigm,2021.1.4,59.97268012072879,
V,left,Distractor,0,26,26,26,2173.515317651705,2175.517288979696,left,1,4,0.7846976184519008,M09A06,2022-11-17_09h14.11.561,t1_Paradigm,2021.1.4,59.97268012072879,
L,right,Target,0,27,27,27,2177.0155691604305,2179.016077952314,right,1,4,0.9019144818885252,M09A06,2022-11-17_09h14.11.561,t1_Paradigm,2021.1.4,59.97268012072879,
S,left,Pretarget,0,28,28,28,2180.515597711812,2182.5162120475143,left,1,4,0.9857717917766422,M09A06,2022-11-17_09h14.11.561,t1_Paradigm,2021.1.4,59.97268012072879,
W,left,Distractor,0,29,29,29,2184.0156644385715,2186.01703201732,left,1,4,0.781016095308587,M09A06,2022-11-17_09h14.11.561,t1_Paradigm,2021.1.4,59.97268012072879,
Q,left,Distractor,0,30,30,30,2187.515630433598,2189.517087836837,left,1,4,0.945045342145022,M09A06,2022-11-17_09h14.11.561,t1_Paradigm,2021.1.4,59.97268012072879,
L,right,Target,0,31,31,31,2191.0157173709304,2193.015490243124,left,0,4,1.0945849271956831,M09A06,2022-11-17_09h14.11.561,t1_Paradigm,2021.1.4,59.97268012072879,
S,right,Target,0,32,32,32,2194.5155717268062,2196.5169024133065,left,0,4,0.8891590753919445,M09A06,2022-11-17_09h14.11.561,t1_Paradigm,2021.1.4,59.97268012072879,
Z,left,Pretarget,0,33,33,33,2198.015747847123,2200.0163839973684,left,1,4,0.7335999624920078,M09A06,2022-11-17_09h14.11.561,t1_Paradigm,2021.1.4,59.97268012072879,
F,left,Distractor,0,34,34,34,2201.5156990852265,2203.5167824334058,left,1,4,0.8654938361141831,M09A06,2022-11-17_09h14.11.561,t1_Paradigm,2021.1.4,59.97268012072879,
V,left,Distractor,0,35,35,35,2205.0155309849943,2207.0174795360363,left,1,4,0.8845247704302892,M09A06,2022-11-17_09h14.11.561,t1_Paradigm,2021.1.4,59.97268012072879,
M,left,Distractor,0,36,36,36,2208.5154341027664,2210.515298724378,left,1,4,0.9546661927597597,M09A06,2022-11-17_09h14.11.561,t1_Paradigm,2021.1.4,59.97268012072879,
Z,right,Target,0,37,37,37,2212.0155232857505,2214.0171170298418,right,1,4,0.9728915933519602,M09A06,2022-11-17_09h14.11.561,t1_Paradigm,2021.1.4,59.97268012072879,
H,left,Pretarget,0,38,38,38,2215.515187726909,2217.516881561227,left,1,4,0.8812355879927054,M09A06,2022-11-17_09h14.11.561,t1_Paradigm,2021.1.4,59.97268012072879,
L,left,Distractor,0,39,39,39,2219.0156336415967,2221.0151611003384,left,1,4,1.3188017533393577,M09A06,2022-11-17_09h14.11.561,t1_Paradigm,2021.1.4,59.97268012072879,
G,left,Distractor,0,40,40,40,2222.5155848797003,2224.517472799198,left,1,4,0.9684821704868227,M09A06,2022-11-17_09h14.11.561,t1_Paradigm,2021.1.4,59.97268012072879,
K,left,Distractor,0,41,41,41,2226.0156387744064,2228.016276207898,left,1,4,0.8458678142051212,M09A06,2022-11-17_09h14.11.561,t1_Paradigm,2021.1.4,59.97268012072879,
H,right,Target,0,42,42,42,2229.515578142862,2231.517095536081,left,0,4,1.072985331644304,M09A06,2022-11-17_09h14.11.561,t1_Paradigm,2021.1.4,59.97268012072879,
B,left,Distractor,0,43,43,43,2233.015638453624,2235.0165533807885,left,1,4,0.9173639831715263,M09A06,2022-11-17_09h14.11.561,t1_Paradigm,2021.1.4,59.97268012072879,
Z,left,Distractor,0,44,44,44,2236.515278193023,2238.514697541512,left,1,4,0.8114723911858164,M09A06,2022-11-17_09h14.11.561,t1_Paradigm,2021.1.4,59.97268012072879,
T,left,Pretarget,0,45,45,45,2240.015368979977,2242.01727197718,left,1,4,0.8128293834161013,M09A06,2022-11-17_09h14.11.561,t1_Paradigm,2021.1.4,59.97268012072879,
H,right,Target,0,46,46,46,2243.51551237845,2245.517649881862,right,1,4,1.1203251135302708,M09A06,2022-11-17_09h14.11.561,t1_Paradigm,2021.1.4,59.97268012072879,
F,left,Distractor,0,47,47,47,2247.0154575213382,2249.015852428536,left,1,4,0.6939523699111305,M09A06,2022-11-17_09h14.11.561,t1_Paradigm,2021.1.4,59.97268012072879,
R,left,Distractor,0,48,48,48,2250.5151768196083,2252.5169547040423,left,1,4,0.648916908481624,M09A06,2022-11-17_09h14.11.561,t1_Paradigm,2021.1.4,59.97268012072879,
T,right,Target,0,49,49,49,2254.0155553659133,2256.017717571085,left,0,4,1.0362387510831468,M09A06,2022-11-17_09h14.11.561,t1_Paradigm,2021.1.4,59.97268012072879,
H,right,Target,0,50,50,50,2257.515141852229,2259.51547709023,right,1,4,1.0745611108723097,M09A06,2022-11-17_09h14.11.561,t1_Paradigm,2021.1.4,59.97268012072879,
Y,left,Pretarget,0,51,51,51,2261.01552296491,2263.0155823132663,left,1,4,1.1743452752707526,M09A06,2022-11-17_09h14.11.561,t1_Paradigm,2021.1.4,59.97268012072879,
H,left,Distractor,0,52,52,52,2264.5320048068825,2266.515837350831,left,1,4,1.306181725289207,M09A06,2022-11-17_09h14.11.561,t1_Paradigm,2021.1.4,59.97268012072879,
S,left,Distractor,0,53,53,53,2268.0155162280716,2270.0166983832896,left,1,4,0.7653237469494343,M09A06,2022-11-17_09h14.11.561,t1_Paradigm,2021.1.4,59.97268012072879,
Q,left,Distractor,0,54,54,54,2271.5155954661604,2273.5174474558735,left,1,4,0.9765192217892036,M09A06,2022-11-17_09h14.11.561,t1_Paradigm,2021.1.4,59.97268012072879,
Y,right,Target,0,55,55,55,2275.0155470251048,2277.0169861426402,left,0,4,1.2050165084656328,M09A06,2022-11-17_09h14.11.561,t1_Paradigm,2021.1.4,59.97268012072879,
R,left,Distractor,0,56,56,56,2278.5156753458723,2280.5162213507865,left,1,4,1.4497871158528142,M09A06,2022-11-17_09h14.11.561,t1_Paradigm,2021.1.4,59.97268012072879,
H,left,Pretarget,0,57,57,57,2282.015611506271,2284.0167750549444,right,0,4,0.7971813057083637,M09A06,2022-11-17_09h14.11.561,t1_Paradigm,2021.1.4,59.97268012072879,
J,left,Distractor,0,58,58,58,2285.5152024837735,2287.517029450886,left,1,4,0.6729148193844594,M09A06,2022-11-17_09h14.11.561,t1_Paradigm,2021.1.4,59.97268012072879,
V,left,Distractor,0,59,59,59,2289.0154793358815,2291.01621846357,left,1,4,0.7418769737705588,M09A06,2022-11-17_09h14.11.561,t1_Paradigm,2021.1.4,59.97268012072879,
Y,left,Lure,0,60,60,60,2292.515573972458,2294.5174205084622,left,1,4,1.1925588062149473,M09A06,2022-11-17_09h14.11.561,t1_Paradigm,2021.1.4,59.97268012072879,
H,right,Target,0,61,61,61,2296.015566273214,2298.016885731631,left,0,4,0.94118320744019,M09A06,2022-11-17_09h14.11.561,t1_Paradigm,2021.1.4,59.97268012072879,
L,left,Distractor,0,62,62,62,2299.515586483729,2301.515393040114,left,1,4,0.7065961372572929,M09A06,2022-11-17_09h14.11.561,t1_Paradigm,2021.1.4,59.97268012072879,
P,left,Distractor,0,63,63,63,2303.015575576428,2305.0162357868685,left,1,4,0.7577486503869295,M09A06,2022-11-17_09h14.11.561,t1_Paradigm,2021.1.4,59.97268012072879,
