Letter,CorrAnswer,Stimulus,nback_run.thisRepN,nback_run.thisTrialN,nback_run.thisN,nback_run.thisIndex,fixcross.started,nback_trial.started,trial_resp.keys,trial_resp.corr,currentlevel,trial_resp.rt,Participant,date,expName,psychopyVersion,frameRate,
H,left,Distractor,0,0,0,0,176.09134380644537,178.02919584626216,None,0,1,,M13I01,2022-09-01_16h19.32.038,t1_Paradigm,2021.1.4,59.972372451560396,
Q,left,Pretarget,0,1,1,1,179.53022080785013,181.53043831142713,left,1,1,0.6849961022671778,M13I01,2022-09-01_16h19.32.038,t1_Paradigm,2021.1.4,59.972372451560396,
Q,right,Target,0,2,2,2,183.02753569721244,185.02757964705233,right,1,1,0.4678120358439628,M13I01,2022-09-01_16h19.32.038,t1_Paradigm,2021.1.4,59.972372451560396,
T,left,Distractor,0,3,3,3,186.5274625544116,188.52957150510338,left,1,1,0.8858481516945176,M13I01,2022-09-01_16h19.32.038,t1_Paradigm,2021.1.4,59.972372451560396,
Q,left,Lure,0,4,4,4,190.02747506568267,192.0294396555837,left,1,1,0.9220461377117317,M13I01,2022-09-01_16h19.32.038,t1_Paradigm,2021.1.4,59.972372451560396,
L,left,Distractor,0,5,5,5,193.52754115084826,195.5298599058733,left,1,1,0.8139173422241583,M13I01,2022-09-01_16h19.32.038,t1_Paradigm,2021.1.4,59.972372451560396,
V,left,Pretarget,0,6,6,6,197.027438173478,199.0290421822283,left,1,1,0.722489485720871,M13I01,2022-09-01_16h19.32.038,t1_Paradigm,2021.1.4,59.972372451560396,
V,right,Target,0,7,7,7,200.5274631960201,202.52750907067093,right,1,1,0.4079828306857962,M13I01,2022-09-01_16h19.32.038,t1_Paradigm,2021.1.4,59.972372451560396,
K,left,Distractor,0,8,8,8,204.02748116091243,206.02980761519575,left,1,1,0.4095117718243273,M13I01,2022-09-01_16h19.32.038,t1_Paradigm,2021.1.4,59.972372451560396,
G,left,Pretarget,0,9,9,9,207.52751548669767,209.52986952992796,left,1,1,0.6055803463968914,M13I01,2022-09-01_16h19.32.038,t1_Paradigm,2021.1.4,59.972372451560396,
G,right,Target,0,10,10,10,211.02751709071163,213.02759087512095,right,1,1,0.5799973694229266,M13I01,2022-09-01_16h19.32.038,t1_Paradigm,2021.1.4,59.972372451560396,
G,right,Target,0,11,11,11,214.52756873979524,216.52740994293708,right,1,1,0.40808003360871226,M13I01,2022-09-01_16h19.32.038,t1_Paradigm,2021.1.4,59.972372451560396,
P,left,Pretarget,0,12,12,12,218.02754692528106,220.02949130466732,left,1,1,0.5219970550388098,M13I01,2022-09-01_16h19.32.038,t1_Paradigm,2021.1.4,59.972372451560396,
P,right,Target,0,13,13,13,221.5274198877887,223.52745870478975,right,1,1,0.6240152188402135,M13I01,2022-09-01_16h19.32.038,t1_Paradigm,2021.1.4,59.972372451560396,
G,left,Lure,0,14,14,14,225.02753409321303,227.03006810620718,left,1,1,0.4174487278505694,M13I01,2022-09-01_16h19.32.038,t1_Paradigm,2021.1.4,59.972372451560396,
Y,left,Distractor,0,15,15,15,228.52745068474906,230.52934277345776,left,1,1,0.5180797448992962,M13I01,2022-09-01_16h19.32.038,t1_Paradigm,2021.1.4,59.972372451560396,
B,left,Distractor,0,16,16,16,232.02765503546107,234.02937870325695,left,1,1,0.6339494865533197,M13I01,2022-09-01_16h19.32.038,t1_Paradigm,2021.1.4,59.972372451560396,
T,left,Pretarget,0,17,17,17,235.52757804303837,237.52952530965558,left,1,1,0.542192166656605,M13I01,2022-09-01_16h19.32.038,t1_Paradigm,2021.1.4,59.972372451560396,
T,right,Target,0,18,18,18,239.0275151659007,241.02750522104907,right,1,1,0.37186023309186567,M13I01,2022-09-01_16h19.32.038,t1_Paradigm,2021.1.4,59.972372451560396,
S,left,Distractor,0,19,19,19,242.5274468351272,244.5299311238632,left,1,1,0.37355053750798106,M13I01,2022-09-01_16h19.32.038,t1_Paradigm,2021.1.4,59.972372451560396,
T,left,Lure,0,20,20,20,246.0275389052258,248.02999079298752,left,1,1,0.9693807563890005,M13I01,2022-09-01_16h19.32.038,t1_Paradigm,2021.1.4,59.972372451560396,
J,left,Distractor,0,21,21,21,249.52743207824824,251.53004019646323,left,1,1,0.4296735200623516,M13I01,2022-09-01_16h19.32.038,t1_Paradigm,2021.1.4,59.972372451560396,
P,left,Distractor,0,22,22,22,253.02653864538297,255.02930171083426,left,1,1,0.45004860145854764,M13I01,2022-09-01_16h19.32.038,t1_Paradigm,2021.1.4,59.972372451560396,
F,left,Distractor,0,23,23,23,256.52735829385347,258.5295323672908,left,1,1,0.5019001087639481,M13I01,2022-09-01_16h19.32.038,t1_Paradigm,2021.1.4,59.972372451560396,
L,left,Distractor,0,24,24,24,260.02740737651766,262.0298990436859,left,1,1,0.3776320981414756,M13I01,2022-09-01_16h19.32.038,t1_Paradigm,2021.1.4,59.972372451560396,
W,left,Pretarget,0,25,25,25,263.5273775419482,265.52926353542716,left,1,1,0.3982057558314409,M13I01,2022-09-01_16h19.32.038,t1_Paradigm,2021.1.4,59.972372451560396,
W,right,Target,0,26,26,26,267.0273618226638,269.02761172722967,right,1,1,0.46770328405546024,M13I01,2022-09-01_16h19.32.038,t1_Paradigm,2021.1.4,59.972372451560396,
V,left,Distractor,0,27,27,27,270.5274612712092,272.52970977066434,left,1,1,0.5655901629361324,M13I01,2022-09-01_16h19.32.038,t1_Paradigm,2021.1.4,59.972372451560396,
W,left,Lure,0,28,28,28,274.02745196796604,276.02864695446624,left,1,1,0.5867149580153637,M13I01,2022-09-01_16h19.32.038,t1_Paradigm,2021.1.4,59.972372451560396,
R,left,Pretarget,0,29,29,29,277.5273871660029,279.52992438702495,left,1,1,0.4455907403753372,M13I01,2022-09-01_16h19.32.038,t1_Paradigm,2021.1.4,59.972372451560396,
R,right,Target,0,30,30,30,281.0275122786843,283.0274439479108,right,1,1,0.3718878220533952,M13I01,2022-09-01_16h19.32.038,t1_Paradigm,2021.1.4,59.972372451560396,
G,left,Distractor,0,31,31,31,284.5272726397816,286.52945441246266,left,1,1,0.3900028551433934,M13I01,2022-09-01_16h19.32.038,t1_Paradigm,2021.1.4,59.972372451560396,
R,left,Lure,0,32,32,32,288.0273955068551,290.02946082850394,left,1,1,0.4421851090155542,M13I01,2022-09-01_16h19.32.038,t1_Paradigm,2021.1.4,59.972372451560396,
S,left,Distractor,0,33,33,33,291.52733551691927,293.5293087684695,left,1,1,0.5423910637473455,M13I01,2022-09-01_16h19.32.038,t1_Paradigm,2021.1.4,59.972372451560396,
R,left,Lure,0,34,34,34,295.02745581757335,297.02992438702495,left,1,1,0.5455461489327718,M13I01,2022-09-01_16h19.32.038,t1_Paradigm,2021.1.4,59.972372451560396,
P,left,Pretarget,0,35,35,35,298.5271969305759,300.52963566545804,left,1,1,0.469733317499049,M13I01,2022-09-01_16h19.32.038,t1_Paradigm,2021.1.4,59.972372451560396,
P,right,Target,0,36,36,36,302.0275186947256,304.02729541670124,right,1,1,0.39616032388585154,M13I01,2022-09-01_16h19.32.038,t1_Paradigm,2021.1.4,59.972372451560396,
Y,left,Pretarget,0,37,37,37,305.52743689027557,307.52971265788074,left,1,1,0.41411271049582865,M13I01,2022-09-01_16h19.32.038,t1_Paradigm,2021.1.4,59.972372451560396,
Y,right,Target,0,38,38,38,309.02736888029904,311.0274230958021,right,1,1,0.5160307841433678,M13I01,2022-09-01_16h19.32.038,t1_Paradigm,2021.1.4,59.972372451560396,
J,left,Distractor,0,39,39,39,312.52733615852776,314.5293966681493,left,1,1,0.5659039070451399,M13I01,2022-09-01_16h19.32.038,t1_Paradigm,2021.1.4,59.972372451560396,
Y,left,Lure,0,40,40,40,316.02733423371683,318.02797551640833,left,1,1,0.6033510950655909,M13I01,2022-09-01_16h19.32.038,t1_Paradigm,2021.1.4,59.972372451560396,
T,left,Distractor,0,41,41,41,319.52721168745484,321.52922632242553,left,1,1,0.5100167137716198,M13I01,2022-09-01_16h19.32.038,t1_Paradigm,2021.1.4,59.972372451560396,
V,left,Distractor,0,42,42,42,323.02733070489194,325.0297418508271,left,1,1,0.4656498320546234,M13I01,2022-09-01_16h19.32.038,t1_Paradigm,2021.1.4,59.972372451560396,
N,left,Pretarget,0,43,43,43,326.527493992995,328.5292218311952,left,1,1,0.4061959649552591,M13I01,2022-09-01_16h19.32.038,t1_Paradigm,2021.1.4,59.972372451560396,
N,right,Target,0,44,44,44,330.0273149856075,332.0274179629778,right,1,1,0.5718644035223406,M13I01,2022-09-01_16h19.32.038,t1_Paradigm,2021.1.4,59.972372451560396,
N,right,Target,0,45,45,45,333.52730536155286,335.5273387249472,right,1,1,0.4960849354683887,M13I01,2022-09-01_16h19.32.038,t1_Paradigm,2021.1.4,59.972372451560396,
X,left,Distractor,0,46,46,46,337.0273092111747,339.02992278302554,left,1,1,0.49732932544429787,M13I01,2022-09-01_16h19.32.038,t1_Paradigm,2021.1.4,59.972372451560396,
Z,left,Distractor,0,47,47,47,340.52729734151217,342.5291397059482,left,1,1,0.4381458942225436,M13I01,2022-09-01_16h19.32.038,t1_Paradigm,2021.1.4,59.972372451560396,
H,left,Pretarget,0,48,48,48,344.0273098527832,346.0293546431203,left,1,1,0.5219733157136943,M13I01,2022-09-01_16h19.32.038,t1_Paradigm,2021.1.4,59.972372451560396,
H,right,Target,0,49,49,49,347.527315948013,349.52742117099115,right,1,1,0.4161934306175681,M13I01,2022-09-01_16h19.32.038,t1_Paradigm,2021.1.4,59.972372451560396,
K,left,Distractor,0,50,50,50,351.02743143663974,353.0297030338261,left,1,1,0.41777851205551997,M13I01,2022-09-01_16h19.32.038,t1_Paradigm,2021.1.4,59.972372451560396,
V,left,Pretarget,0,51,51,51,354.5273922988272,356.5296440062957,left,1,1,0.42172918557480443,M13I01,2022-09-01_16h19.32.038,t1_Paradigm,2021.1.4,59.972372451560396,
V,right,Target,0,52,52,52,358.02747731129057,360.02725403328077,right,1,1,0.4279424738342641,M13I01,2022-09-01_16h19.32.038,t1_Paradigm,2021.1.4,59.972372451560396,
R,left,Distractor,0,53,53,53,361.5273246096622,363.52923402166925,left,1,1,0.38203253570827655,M13I01,2022-09-01_16h19.32.038,t1_Paradigm,2021.1.4,59.972372451560396,
V,left,Lure,0,54,54,54,365.02736406828626,367.0293944225414,left,1,1,0.41786577012680937,M13I01,2022-09-01_16h19.32.038,t1_Paradigm,2021.1.4,59.972372451560396,
Y,left,Distractor,0,55,55,55,368.5273951860436,370.52919873347855,left,1,1,0.5020415823237272,M13I01,2022-09-01_16h19.32.038,t1_Paradigm,2021.1.4,59.972372451560396,
Q,left,Distractor,0,56,56,56,372.0273021535395,374.0296196253621,left,1,1,0.4255929218343226,M13I01,2022-09-01_16h19.32.038,t1_Paradigm,2021.1.4,59.972372451560396,
Z,left,Pretarget,0,57,57,57,375.5272999079316,377.5291105130018,left,1,1,0.41463561734417453,M13I01,2022-09-01_16h19.32.038,t1_Paradigm,2021.1.4,59.972372451560396,
Z,right,Target,0,58,58,58,379.0274214917881,381.0273627850693,right,1,1,0.5960454768501222,M13I01,2022-09-01_16h19.32.038,t1_Paradigm,2021.1.4,59.972372451560396,
B,left,Distractor,0,59,59,59,382.52732781767554,384.5294274651242,left,1,1,0.5338060881767888,M13I01,2022-09-01_16h19.32.038,t1_Paradigm,2021.1.4,59.972372451560396,
S,left,Pretarget,0,60,60,60,386.02743977749196,388.0294964374916,left,1,1,0.42569910720339976,M13I01,2022-09-01_16h19.32.038,t1_Paradigm,2021.1.4,59.972372451560396,
S,right,Target,0,61,61,61,389.52736695550266,391.52737722115126,right,1,1,0.38383255431836005,M13I01,2022-09-01_16h19.32.038,t1_Paradigm,2021.1.4,59.972372451560396,
T,left,Distractor,0,62,62,62,393.0273297424865,395.02926064821077,left,1,1,0.38593893859069794,M13I01,2022-09-01_16h19.32.038,t1_Paradigm,2021.1.4,59.972372451560396,
D,left,Distractor,0,63,63,63,396.5273862035974,398.5297190739075,left,1,1,0.4056858901749365,M13I01,2022-09-01_16h19.32.038,t1_Paradigm,2021.1.4,59.972372451560396,
R,left,Distractor,0,0,0,0,425.80262255428534,427.7961035419721,None,0,1,,M13I01,2022-09-01_16h19.32.038,t1_Paradigm,2021.1.4,59.972372451560396,
V,left,Distractor,0,1,1,1,429.29389321792405,431.2962520731817,left,1,1,1.382952274318086,M13I01,2022-09-01_16h19.32.038,t1_Paradigm,2021.1.4,59.972372451560396,
N,left,Pretarget,0,2,2,2,432.7940103105648,434.7959655972227,left,1,1,0.6192404056200758,M13I01,2022-09-01_16h19.32.038,t1_Paradigm,2021.1.4,59.972372451560396,
N,right,Target,0,3,3,3,436.2937969774066,438.2939653983194,right,1,1,0.7051944218983408,M13I01,2022-09-01_16h19.32.038,t1_Paradigm,2021.1.4,59.972372451560396,
S,left,Distractor,0,4,4,4,439.7939560950763,441.7959325546399,left,1,1,0.7713594615634065,M13I01,2022-09-01_16h19.32.038,t1_Paradigm,2021.1.4,59.972372451560396,
N,left,Lure,0,5,5,5,443.2939653983194,445.296216464194,left,1,1,0.5669779512973037,M13I01,2022-09-01_16h19.32.038,t1_Paradigm,2021.1.4,59.972372451560396,
Z,left,Distractor,0,6,6,6,446.7943458692025,448.7947356433142,left,1,1,0.700497242709389,M13I01,2022-09-01_16h19.32.038,t1_Paradigm,2021.1.4,59.972372451560396,
L,left,Pretarget,0,7,7,7,450.2939179196692,452.2959919029672,left,1,1,0.5431693287828239,M13I01,2022-09-01_16h19.32.038,t1_Paradigm,2021.1.4,59.972372451560396,
L,right,Target,0,8,8,8,453.79386338336917,455.7938540801115,right,1,1,0.9815102704742458,M13I01,2022-09-01_16h19.32.038,t1_Paradigm,2021.1.4,59.972372451560396,
H,left,Distractor,0,9,9,9,457.2939329973451,459.29636018337624,left,1,1,0.8389334625098854,M13I01,2022-09-01_16h19.32.038,t1_Paradigm,2021.1.4,59.972372451560396,
L,left,Lure,0,10,10,10,460.7938566465309,462.79575066005054,left,1,1,0.5554322963871527,M13I01,2022-09-01_16h19.32.038,t1_Paradigm,2021.1.4,59.972372451560396,
X,left,Pretarget,0,11,11,11,464.29384221044893,466.29594955712673,left,1,1,0.47940549020131584,M13I01,2022-09-01_16h19.32.038,t1_Paradigm,2021.1.4,59.972372451560396,
X,right,Target,0,12,12,12,467.7939583406842,469.79397855119896,right,1,1,0.5813569272286259,M13I01,2022-09-01_16h19.32.038,t1_Paradigm,2021.1.4,59.972372451560396,
X,right,Target,0,13,13,13,471.29386851619347,473.29391567404673,right,1,1,0.6333912915142719,M13I01,2022-09-01_16h19.32.038,t1_Paradigm,2021.1.4,59.972372451560396,
R,left,Distractor,0,14,14,14,474.7939336389536,476.7954545600369,left,1,1,0.5557389828754822,M13I01,2022-09-01_16h19.32.038,t1_Paradigm,2021.1.4,59.972372451560396,
T,left,Distractor,0,15,15,15,478.29392626050685,480.29594731151883,left,1,1,0.41522653415449895,M13I01,2022-09-01_16h19.32.038,t1_Paradigm,2021.1.4,59.972372451560396,
V,left,Pretarget,0,16,16,16,481.79396154869755,483.79540162775083,left,1,1,0.41976587889075745,M13I01,2022-09-01_16h19.32.038,t1_Paradigm,2021.1.4,59.972372451560396,
V,right,Target,0,17,17,17,485.31060538497695,487.2938704410044,right,1,1,0.45738854544470087,M13I01,2022-09-01_16h19.32.038,t1_Paradigm,2021.1.4,59.972372451560396,
N,left,Distractor,0,18,18,18,488.7939034835872,490.7958876423945,left,1,1,0.5713873713102657,M13I01,2022-09-01_16h19.32.038,t1_Paradigm,2021.1.4,59.972372451560396,
B,left,Distractor,0,19,19,19,492.29397309756314,494.29619849928713,left,1,1,0.5270994068414439,M13I01,2022-09-01_16h19.32.038,t1_Paradigm,2021.1.4,59.972372451560396,
V,left,Lure,0,20,20,20,495.7938697993959,497.7957509808475,left,1,1,0.6433438449457753,M13I01,2022-09-01_16h19.32.038,t1_Paradigm,2021.1.4,59.972372451560396,
P,left,Distractor,0,21,21,21,499.29383611521916,501.2962482235598,left,1,1,0.5029510552703869,M13I01,2022-09-01_16h19.32.038,t1_Paradigm,2021.1.4,59.972372451560396,
K,left,Pretarget,0,22,22,22,502.7939252981014,504.7958308604866,left,1,1,0.4754843304253882,M13I01,2022-09-01_16h19.32.038,t1_Paradigm,2021.1.4,59.972372451560396,
K,right,Target,0,23,23,23,506.29380307263636,508.2937860701495,right,1,1,0.38535989144293126,M13I01,2022-09-01_16h19.32.038,t1_Paradigm,2021.1.4,59.972372451560396,
J,left,Pretarget,0,24,24,24,509.7938450976653,511.7961863088276,left,1,1,0.435055610985728,M13I01,2022-09-01_16h19.32.038,t1_Paradigm,2021.1.4,59.972372451560396,
J,right,Target,0,25,25,25,513.293883593884,515.2937966566096,right,1,1,0.3934463410987519,M13I01,2022-09-01_16h19.32.038,t1_Paradigm,2021.1.4,59.972372451560396,
H,left,Distractor,0,26,26,26,516.7939673231303,518.7961038627691,left,1,1,0.45902720077720005,M13I01,2022-09-01_16h19.32.038,t1_Paradigm,2021.1.4,59.972372451560396,
J,left,Lure,0,27,27,27,520.2938030726364,522.295862619867,left,1,1,0.5432081457838649,M13I01,2022-09-01_16h19.32.038,t1_Paradigm,2021.1.4,59.972372451560396,
V,left,Distractor,0,28,28,28,523.7938560049224,525.7960217375221,left,1,1,0.45111109684512485,M13I01,2022-09-01_16h19.32.038,t1_Paradigm,2021.1.4,59.972372451560396,
Z,left,Pretarget,0,29,29,29,527.2937940901902,529.2959226097882,left,1,1,0.4872798899014015,M13I01,2022-09-01_16h19.32.038,t1_Paradigm,2021.1.4,59.972372451560396,
Z,right,Target,0,30,30,30,530.7937944109872,532.793893217924,right,1,1,0.5571793827111833,M13I01,2022-09-01_16h19.32.038,t1_Paradigm,2021.1.4,59.972372451560396,
T,left,Distractor,0,31,31,31,534.2937860701495,536.295410930994,left,1,1,0.43178984918631613,M13I01,2022-09-01_16h19.32.038,t1_Paradigm,2021.1.4,59.972372451560396,
Z,left,Lure,0,32,32,32,537.7939483958326,539.7954718833353,left,1,1,0.3876491327100666,M13I01,2022-09-01_16h19.32.038,t1_Paradigm,2021.1.4,59.972372451560396,
F,left,Distractor,0,33,33,33,541.2936362557375,543.2961795719893,left,1,1,0.5511502346635098,M13I01,2022-09-01_16h19.32.038,t1_Paradigm,2021.1.4,59.972372451560396,
Y,left,Pretarget,0,34,34,34,544.7938181503268,546.7958642238664,left,1,1,0.443194030522136,M13I01,2022-09-01_16h19.32.038,t1_Paradigm,2021.1.4,59.972372451560396,
Y,right,Target,0,35,35,35,548.2937828621361,550.2937809373252,right,1,1,0.5776279277197318,M13I01,2022-09-01_16h19.32.038,t1_Paradigm,2021.1.4,59.972372451560396,
Y,right,Target,0,36,36,36,551.7938508720981,553.7937892781629,right,1,1,0.6452214975579409,M13I01,2022-09-01_16h19.32.038,t1_Paradigm,2021.1.4,59.972372451560396,
W,left,Distractor,0,37,37,37,555.2937668220402,557.2958539582178,left,1,1,0.4712827899493277,M13I01,2022-09-01_16h19.32.038,t1_Paradigm,2021.1.4,59.972372451560396,
Q,left,Distractor,0,38,38,38,558.7938585713418,560.7956727052224,left,1,1,0.6034585636371048,M13I01,2022-09-01_16h19.32.038,t1_Paradigm,2021.1.4,59.972372451560396,
P,left,Pretarget,0,39,39,39,562.2935823610314,564.295465467294,left,1,1,0.43179658602457494,M13I01,2022-09-01_16h19.32.038,t1_Paradigm,2021.1.4,59.972372451560396,
P,right,Target,0,40,40,40,565.7937533483637,567.7938928971271,right,1,1,0.5009874277893687,M13I01,2022-09-01_16h19.32.038,t1_Paradigm,2021.1.4,59.972372451560396,
J,left,Distractor,0,41,41,41,569.2938460600708,571.2952242243773,left,1,1,0.5039275757881114,M13I01,2022-09-01_16h19.32.038,t1_Paradigm,2021.1.4,59.972372451560396,
P,left,Lure,0,42,42,42,572.7937806165137,574.7958783391514,left,1,1,0.9233389687578892,M13I01,2022-09-01_16h19.32.038,t1_Paradigm,2021.1.4,59.972372451560396,
L,left,Distractor,0,43,43,43,576.293732496255,578.2958664694743,left,1,1,0.4475877312506782,M13I01,2022-09-01_16h19.32.038,t1_Paradigm,2021.1.4,59.972372451560396,
Z,left,Distractor,0,44,44,44,579.7938614585582,581.7961426797847,left,1,1,0.43502834283572156,M13I01,2022-09-01_16h19.32.038,t1_Paradigm,2021.1.4,59.972372451560396,
F,left,Pretarget,0,45,45,45,583.2938845562894,585.2961847048136,left,1,1,0.5988929131708574,M13I01,2022-09-01_16h19.32.038,t1_Paradigm,2021.1.4,59.972372451560396,
F,right,Target,0,46,46,46,586.7937254386197,588.7937658596347,right,1,1,0.4930838351283455,M13I01,2022-09-01_16h19.32.038,t1_Paradigm,2021.1.4,59.972372451560396,
G,left,Pretarget,0,47,47,47,590.2937831829331,592.2958982288546,left,1,1,0.3993462060461752,M13I01,2022-09-01_16h19.32.038,t1_Paradigm,2021.1.4,59.972372451560396,
G,right,Target,0,48,48,48,593.793746932337,595.7938383608271,right,1,1,0.4212181484035682,M13I01,2022-09-01_16h19.32.038,t1_Paradigm,2021.1.4,59.972372451560396,
V,left,Distractor,0,49,49,49,597.293787353352,599.2957172966708,left,1,1,0.42352503376605455,M13I01,2022-09-01_16h19.32.038,t1_Paradigm,2021.1.4,59.972372451560396,
G,left,Lure,0,50,50,50,600.7937414787011,602.7954667504964,left,1,1,0.5074936080200132,M13I01,2022-09-01_16h19.32.038,t1_Paradigm,2021.1.4,59.972372451560396,
Q,left,Pretarget,0,51,51,51,604.2937199849839,606.2961215068644,left,1,1,0.5270955572195817,M13I01,2022-09-01_16h19.32.038,t1_Paradigm,2021.1.4,59.972372451560396,
Q,right,Target,0,52,52,52,607.7937632932299,609.7937642556353,right,1,1,0.5656135814642766,M13I01,2022-09-01_16h19.32.038,t1_Paradigm,2021.1.4,59.972372451560396,
Y,left,Distractor,0,53,53,53,611.2932859402208,613.2953579987079,left,1,1,0.40784488593635615,M13I01,2022-09-01_16h19.32.038,t1_Paradigm,2021.1.4,59.972372451560396,
V,left,Distractor,0,54,54,54,614.793675714347,616.795996394183,left,1,1,0.6830295875406591,M13I01,2022-09-01_16h19.32.038,t1_Paradigm,2021.1.4,59.972372451560396,
B,left,Distractor,0,55,55,55,618.2936343309266,620.2957891562546,left,1,1,0.6073659289395437,M13I01,2022-09-01_16h19.32.038,t1_Paradigm,2021.1.4,59.972372451560396,
J,left,Pretarget,0,56,56,56,621.7936895088205,623.7953608859243,left,1,1,0.4037270747066941,M13I01,2022-09-01_16h19.32.038,t1_Paradigm,2021.1.4,59.972372451560396,
J,right,Target,0,57,57,57,625.2936994536722,627.2938293783809,right,1,1,0.377540990448324,M13I01,2022-09-01_16h19.32.038,t1_Paradigm,2021.1.4,59.972372451560396,
H,left,Distractor,0,58,58,58,628.7937732380815,630.7962084441388,left,1,1,0.5547213997197105,M13I01,2022-09-01_16h19.32.038,t1_Paradigm,2021.1.4,59.972372451560396,
J,left,Lure,0,59,59,59,632.2936827719823,634.2958382389334,left,1,1,0.6552914644271368,M13I01,2022-09-01_16h19.32.038,t1_Paradigm,2021.1.4,59.972372451560396,
D,left,Pretarget,0,60,60,60,635.7938139798935,637.7958459381625,left,1,1,0.38728534353140276,M13I01,2022-09-01_16h19.32.038,t1_Paradigm,2021.1.4,59.972372451560396,
D,right,Target,0,61,61,61,639.2937584812025,641.2938322655973,right,1,1,0.3933302108634962,M13I01,2022-09-01_16h19.32.038,t1_Paradigm,2021.1.4,59.972372451560396,
R,left,Distractor,0,62,62,62,642.7937042656995,644.7958972664492,left,1,1,0.3953140488738427,M13I01,2022-09-01_16h19.32.038,t1_Paradigm,2021.1.4,59.972372451560396,
F,left,Distractor,0,63,63,63,646.2938066014613,648.2957304495358,left,1,1,0.3672705224889796,M13I01,2022-09-01_16h19.32.038,t1_Paradigm,2021.1.4,59.972372451560396,
F,left,Distractor,0,0,0,0,866.8708259682608,868.8602420770039,None,0,2,,M13I01,2022-09-01_16h19.32.038,t1_Paradigm,2021.1.4,59.972372451560396,
N,left,Pretarget,0,1,1,1,870.3601140771061,872.3624873684312,None,0,2,,M13I01,2022-09-01_16h19.32.038,t1_Paradigm,2021.1.4,59.972372451560396,
V,left,Distractor,0,2,2,2,873.8601060570654,875.862000712179,left,1,2,0.9768191865150584,M13I01,2022-09-01_16h19.32.038,t1_Paradigm,2021.1.4,59.972372451560396,
N,right,Target,0,3,3,3,877.3601143979031,879.3619397598522,right,1,2,1.1730273098510224,M13I01,2022-09-01_16h19.32.038,t1_Paradigm,2021.1.4,59.972372451560396,
N,left,Lure,0,4,4,4,880.8601878615009,882.8602263577195,left,1,2,0.7945726760372054,M13I01,2022-09-01_16h19.32.038,t1_Paradigm,2021.1.4,59.972372451560396,
X,left,Distractor,0,5,5,5,884.3602972548979,886.3625444711361,left,1,2,0.5404283986572409,M13I01,2022-09-01_16h19.32.038,t1_Paradigm,2021.1.4,59.972372451560396,
G,left,Pretarget,0,6,6,6,887.8601413452561,889.8622775640833,left,1,2,0.5287046987796202,M13I01,2022-09-01_16h19.32.038,t1_Paradigm,2021.1.4,59.972372451560396,
H,left,Pretarget,0,7,7,7,891.3601785582578,893.3620183562743,left,1,2,0.5647900833864696,M13I01,2022-09-01_16h19.32.038,t1_Paradigm,2021.1.4,59.972372451560396,
G,right,Target,0,8,8,8,894.8601198515389,896.8621405817394,right,1,2,0.5526730805577245,M13I01,2022-09-01_16h19.32.038,t1_Paradigm,2021.1.4,59.972372451560396,
H,right,Target,0,9,9,9,898.360196843947,900.3614203818142,right,1,2,0.8773693615221418,M13I01,2022-09-01_16h19.32.038,t1_Paradigm,2021.1.4,59.972372451560396,
T,left,Pretarget,0,10,10,10,901.8600008340873,903.8622913585568,left,1,2,0.8969421177462209,M13I01,2022-09-01_16h19.32.038,t1_Paradigm,2021.1.4,59.972372451560396,
K,left,Distractor,0,11,11,11,905.3600852049422,907.3620873286563,left,1,2,0.6449260391527787,M13I01,2022-09-01_16h19.32.038,t1_Paradigm,2021.1.4,59.972372451560396,
T,right,Target,0,12,12,12,908.8601628389733,910.8621473185776,right,1,2,0.6006839493202278,M13I01,2022-09-01_16h19.32.038,t1_Paradigm,2021.1.4,59.972372451560396,
T,left,Lure,0,13,13,13,912.3601862575015,914.3601407036476,left,1,2,1.1186815689725336,M13I01,2022-09-01_16h19.32.038,t1_Paradigm,2021.1.4,59.972372451560396,
J,left,Distractor,0,14,14,14,915.8602571546799,917.8620177146659,left,1,2,0.5289311848173384,M13I01,2022-09-01_16h19.32.038,t1_Paradigm,2021.1.4,59.972372451560396,
Q,left,Pretarget,0,15,15,15,919.3601621973648,921.3621627170651,left,1,2,0.8047716051951284,M13I01,2022-09-01_16h19.32.038,t1_Paradigm,2021.1.4,59.972372451560396,
M,left,Distractor,0,16,16,16,922.8600973954162,924.8615862363222,left,1,2,0.6494057147647254,M13I01,2022-09-01_16h19.32.038,t1_Paradigm,2021.1.4,59.972372451560396,
Q,right,Target,0,17,17,17,926.3602346985572,928.3621280704683,right,1,2,0.684839230205398,M13I01,2022-09-01_16h19.32.038,t1_Paradigm,2021.1.4,59.972372451560396,
R,left,Distractor,0,18,18,18,929.860089054564,931.8616276197426,left,1,2,0.44899284291022923,M13I01,2022-09-01_16h19.32.038,t1_Paradigm,2021.1.4,59.972372451560396,
W,left,Distractor,0,19,19,19,933.3601788790547,935.3620161106664,left,1,2,0.7569227413187036,M13I01,2022-09-01_16h19.32.038,t1_Paradigm,2021.1.4,59.972372451560396,
C,left,Pretarget,0,20,20,20,936.8600723728741,938.8625701352867,left,1,2,0.6643521889927797,M13I01,2022-09-01_16h19.32.038,t1_Paradigm,2021.1.4,59.972372451560396,
T,left,Distractor,0,21,21,21,940.3602263577195,942.3624036391702,left,1,2,0.4763723096693866,M13I01,2022-09-01_16h19.32.038,t1_Paradigm,2021.1.4,59.972372451560396,
C,right,Target,0,22,22,22,943.8601349292148,945.8618005318858,right,1,2,0.8009957686299458,M13I01,2022-09-01_16h19.32.038,t1_Paradigm,2021.1.4,59.972372451560396,
F,left,Pretarget,0,23,23,23,947.3601554605266,949.3621768323355,left,1,2,0.5166217009536922,M13I01,2022-09-01_16h19.32.038,t1_Paradigm,2021.1.4,59.972372451560396,
C,right,Target,0,24,24,24,950.860063069631,952.8625168821891,right,1,2,0.42453106805623975,M13I01,2022-09-01_16h19.32.038,t1_Paradigm,2021.1.4,59.972372451560396,
F,right,Target,0,25,25,25,954.360090658578,956.3616025972151,right,1,2,1.341325681147282,M13I01,2022-09-01_16h19.32.038,t1_Paradigm,2021.1.4,59.972372451560396,
H,left,Distractor,0,26,26,26,957.8601994103665,959.8623840702639,left,1,2,0.5764403196517378,M13I01,2022-09-01_16h19.32.038,t1_Paradigm,2021.1.4,59.972372451560396,
H,left,Lure,0,27,27,27,961.3598651349457,963.3603248438449,left,1,2,0.9668791443691589,M13I01,2022-09-01_16h19.32.038,t1_Paradigm,2021.1.4,59.972372451560396,
P,left,Distractor,0,28,28,28,964.8600662776444,966.8623815038591,left,1,2,0.5523336723126704,M13I01,2022-09-01_16h19.32.038,t1_Paradigm,2021.1.4,59.972372451560396,
G,left,Pretarget,0,29,29,29,968.360021044602,970.3624023559678,left,1,2,0.5884921997057972,M13I01,2022-09-01_16h19.32.038,t1_Paradigm,2021.1.4,59.972372451560396,
K,left,Distractor,0,30,30,30,971.8600528039678,973.861617354094,left,1,2,0.5133107061265036,M13I01,2022-09-01_16h19.32.038,t1_Paradigm,2021.1.4,59.972372451560396,
G,right,Target,0,31,31,31,975.3600989994156,977.3620943862916,right,1,2,1.0128679997142171,M13I01,2022-09-01_16h19.32.038,t1_Paradigm,2021.1.4,59.972372451560396,
M,left,Pretarget,0,32,32,32,978.8600701272662,980.8619282109867,left,1,2,0.8569641247449908,M13I01,2022-09-01_16h19.32.038,t1_Paradigm,2021.1.4,59.972372451560396,
B,left,Distractor,0,33,33,33,982.3600576159952,984.3615615345916,left,1,2,0.7011965905257966,M13I01,2022-09-01_16h19.32.038,t1_Paradigm,2021.1.4,59.972372451560396,
M,right,Target,0,34,34,34,985.8600829593342,987.862259278394,right,1,2,0.4805700005526887,M13I01,2022-09-01_16h19.32.038,t1_Paradigm,2021.1.4,59.972372451560396,
M,left,Lure,0,35,35,35,989.3600277814257,991.3601208139444,left,1,2,0.6468486040248536,M13I01,2022-09-01_16h19.32.038,t1_Paradigm,2021.1.4,59.972372451560396,
T,left,Distractor,0,36,36,36,992.8600447839272,994.8621784363495,left,1,2,0.5846323130826931,M13I01,2022-09-01_16h19.32.038,t1_Paradigm,2021.1.4,59.972372451560396,
F,left,Distractor,0,37,37,37,996.3601769542438,998.3620757797908,left,1,2,0.6848828592337668,M13I01,2022-09-01_16h19.32.038,t1_Paradigm,2021.1.4,59.972372451560396,
X,left,Distractor,0,38,38,38,999.8600290646427,1001.8618804115249,left,1,2,0.6410205986758228,M13I01,2022-09-01_16h19.32.038,t1_Paradigm,2021.1.4,59.972372451560396,
C,left,Distractor,0,39,39,39,1003.3601397412422,1005.3618791283225,left,1,2,0.597156734103919,M13I01,2022-09-01_16h19.32.038,t1_Paradigm,2021.1.4,59.972372451560396,
R,left,Distractor,0,40,40,40,1006.8600935457944,1008.8617360507342,left,1,2,0.7132013127120445,M13I01,2022-09-01_16h19.32.038,t1_Paradigm,2021.1.4,59.972372451560396,
B,left,Pretarget,0,41,41,41,1010.3600252150209,1012.3623436492489,left,1,2,0.5087014266027836,M13I01,2022-09-01_16h19.32.038,t1_Paradigm,2021.1.4,59.972372451560396,
H,left,Distractor,0,42,42,42,1013.8601095858758,1015.8621068975626,left,1,2,0.43259474077785853,M13I01,2022-09-01_16h19.32.038,t1_Paradigm,2021.1.4,59.972372451560396,
B,right,Target,0,43,43,43,1017.3601625181618,1019.3623911279137,right,1,2,0.38845466589555144,M13I01,2022-09-01_16h19.32.038,t1_Paradigm,2021.1.4,59.972372451560396,
W,left,Pretarget,0,44,44,44,1020.8599790195731,1022.861960611961,left,1,2,0.7767306452151388,M13I01,2022-09-01_16h19.32.038,t1_Paradigm,2021.1.4,59.972372451560396,
L,left,Pretarget,0,45,45,45,1024.3601063778624,1026.3620671181416,left,1,2,0.4766321590868756,M13I01,2022-09-01_16h19.32.038,t1_Paradigm,2021.1.4,59.972372451560396,
W,right,Target,0,46,46,46,1027.8600813553203,1029.8618483313476,right,1,2,0.6092073309555417,M13I01,2022-09-01_16h19.32.038,t1_Paradigm,2021.1.4,59.972372451560396,
L,right,Target,0,47,47,47,1031.3600787889154,1033.3616712487856,right,1,2,0.4530708747333847,M13I01,2022-09-01_16h19.32.038,t1_Paradigm,2021.1.4,59.972372451560396,
W,right,Target,0,48,48,48,1034.859992493235,1036.8620266971266,right,1,2,0.648706687745289,M13I01,2022-09-01_16h19.32.038,t1_Paradigm,2021.1.4,59.972372451560396,
X,left,Distractor,0,49,49,49,1038.3599722827348,1040.361960932758,left,1,2,0.4609449536219472,M13I01,2022-09-01_16h19.32.038,t1_Paradigm,2021.1.4,59.972372451560396,
R,left,Distractor,0,50,50,50,1041.8599838315859,1043.862053002871,left,1,2,0.544781357573811,M13I01,2022-09-01_16h19.32.038,t1_Paradigm,2021.1.4,59.972372451560396,
V,left,Pretarget,0,51,51,51,1045.3600162325747,1047.3622685816372,left,1,2,0.6923886577424128,M13I01,2022-09-01_16h19.32.038,t1_Paradigm,2021.1.4,59.972372451560396,
Z,left,Distractor,0,52,52,52,1048.8600733352796,1050.8617735845473,left,1,2,0.5208992714615306,M13I01,2022-09-01_16h19.32.038,t1_Paradigm,2021.1.4,59.972372451560396,
V,right,Target,0,53,53,53,1052.3601355708233,1054.3615470985096,right,1,2,0.8613767527713208,M13I01,2022-09-01_16h19.32.038,t1_Paradigm,2021.1.4,59.972372451560396,
V,left,Lure,0,54,54,54,1055.8600271398318,1057.860061465617,left,1,2,1.090753852025955,M13I01,2022-09-01_16h19.32.038,t1_Paradigm,2021.1.4,59.972372451560396,
N,left,Distractor,0,55,55,55,1059.3600187989796,1061.361686647273,left,1,2,0.5169832445244538,M13I01,2022-09-01_16h19.32.038,t1_Paradigm,2021.1.4,59.972372451560396,
B,left,Distractor,0,56,56,56,1062.8599462977872,1064.8619785768533,left,1,2,0.4725464280345477,M13I01,2022-09-01_16h19.32.038,t1_Paradigm,2021.1.4,59.972372451560396,
V,left,Lure,0,57,57,57,1066.3599722827348,1068.3619994289766,left,1,2,0.8612817954708589,M13I01,2022-09-01_16h19.32.038,t1_Paradigm,2021.1.4,59.972372451560396,
J,left,Distractor,0,58,58,58,1069.8600406135083,1071.8621360905236,left,1,2,0.5925217904587043,M13I01,2022-09-01_16h19.32.038,t1_Paradigm,2021.1.4,59.972372451560396,
H,left,Distractor,0,59,59,59,1073.3600046837091,1075.3622971329896,left,1,2,0.5003949069505325,M13I01,2022-09-01_16h19.32.038,t1_Paradigm,2021.1.4,59.972372451560396,
X,left,Pretarget,0,60,60,60,1076.8599363529356,1078.8620177146659,left,1,2,0.5526320179342292,M13I01,2022-09-01_16h19.32.038,t1_Paradigm,2021.1.4,59.972372451560396,
P,left,Distractor,0,61,61,61,1080.3599424481654,1082.36217586993,left,1,2,0.42860107980959583,M13I01,2022-09-01_16h19.32.038,t1_Paradigm,2021.1.4,59.972372451560396,
X,right,Target,0,62,62,62,1083.8600117413444,1085.8618396696984,right,1,2,0.5129305560403736,M13I01,2022-09-01_16h19.32.038,t1_Paradigm,2021.1.4,59.972372451560396,
Q,left,Distractor,0,63,63,63,1087.3601086234703,1089.3621271080629,left,1,2,0.9165617110265885,M13I01,2022-09-01_16h19.32.038,t1_Paradigm,2021.1.4,59.972372451560396,
B,left,Pretarget,0,0,0,0,1175.6526265643042,1177.6454175074323,None,0,2,,M13I01,2022-09-01_16h19.32.038,t1_Paradigm,2021.1.4,59.972372451560396,
F,left,Distractor,0,1,1,1,1179.143270702145,1181.1452667306148,None,0,2,,M13I01,2022-09-01_16h19.32.038,t1_Paradigm,2021.1.4,59.972372451560396,
B,right,Target,0,2,2,2,1182.6433598850272,1184.6452827706962,right,1,2,0.5937482155422913,M13I01,2022-09-01_16h19.32.038,t1_Paradigm,2021.1.4,59.972372451560396,
V,left,Distractor,0,3,3,3,1186.1433178599982,1188.1559709225257,left,1,2,0.4586432010983117,M13I01,2022-09-01_16h19.32.038,t1_Paradigm,2021.1.4,59.972372451560396,
G,left,Pretarget,0,4,4,4,1189.6432113538176,1191.64548134699,left,1,2,0.5531546039856039,M13I01,2022-09-01_16h19.32.038,t1_Paradigm,2021.1.4,59.972372451560396,
B,left,Lure,0,5,5,5,1193.1433268424444,1195.143856806928,left,1,2,0.8629595886013703,M13I01,2022-09-01_16h19.32.038,t1_Paradigm,2021.1.4,59.972372451560396,
G,right,Target,0,6,6,6,1196.643159383937,1198.6444506109692,right,1,2,0.5783417116181226,M13I01,2022-09-01_16h19.32.038,t1_Paradigm,2021.1.4,59.972372451560396,
Y,left,Pretarget,0,7,7,7,1200.1432787221856,1202.145128144257,left,1,2,0.6296424023021245,M13I01,2022-09-01_16h19.32.038,t1_Paradigm,2021.1.4,59.972372451560396,
P,left,Distractor,0,8,8,8,1203.6434695992211,1205.6560200052045,left,1,2,0.670743201408186,M13I01,2022-09-01_16h19.32.038,t1_Paradigm,2021.1.4,59.972372451560396,
Y,right,Target,0,9,9,9,1207.1431481558684,1209.1439395737834,right,1,2,1.0067519143776735,M13I01,2022-09-01_16h19.32.038,t1_Paradigm,2021.1.4,59.972372451560396,
X,left,Distractor,0,10,10,10,1210.6431539303012,1212.6432597948733,left,1,2,0.7232844324607868,M13I01,2022-09-01_16h19.32.038,t1_Paradigm,2021.1.4,59.972372451560396,
Y,right,Target,0,11,11,11,1214.1432350931427,1216.1448596331902,right,1,2,1.0458797827595845,M13I01,2022-09-01_16h19.32.038,t1_Paradigm,2021.1.4,59.972372451560396,
N,left,Distractor,0,12,12,12,1217.6431542510982,1219.6452311216126,left,1,2,0.6173707730340539,M13I01,2022-09-01_16h19.32.038,t1_Paradigm,2021.1.4,59.972372451560396,
Y,right,Target,0,13,13,13,1221.1431491182739,1223.145341156618,right,1,2,0.6692097690538503,M13I01,2022-09-01_16h19.32.038,t1_Paradigm,2021.1.4,59.972372451560396,
Y,left,Lure,0,14,14,14,1224.6433983812312,1226.643107093245,left,1,2,0.5475729743775446,M13I01,2022-09-01_16h19.32.038,t1_Paradigm,2021.1.4,59.972372451560396,
K,left,Distractor,0,15,15,15,1228.1431366070028,1230.1450687959295,left,1,2,0.5494932936271653,M13I01,2022-09-01_16h19.32.038,t1_Paradigm,2021.1.4,59.972372451560396,
T,left,Pretarget,0,16,16,16,1231.6431898601004,1233.645550960966,left,1,2,0.5690050975390477,M13I01,2022-09-01_16h19.32.038,t1_Paradigm,2021.1.4,59.972372451560396,
J,left,Distractor,0,17,17,17,1235.1431375694083,1237.1449427208427,left,1,2,0.5417254001222318,M13I01,2022-09-01_16h19.32.038,t1_Paradigm,2021.1.4,59.972372451560396,
T,right,Target,0,18,18,18,1238.6431250581518,1240.6447473525768,right,1,2,0.8337281333515421,M13I01,2022-09-01_16h19.32.038,t1_Paradigm,2021.1.4,59.972372451560396,
S,left,Pretarget,0,19,19,19,1242.1432168074389,1244.1451919838,left,1,2,0.4853598914342001,M13I01,2022-09-01_16h19.32.038,t1_Paradigm,2021.1.4,59.972372451560396,
R,left,Distractor,0,20,20,20,1245.6430535193504,1247.6454425299744,left,1,2,0.6011641895311186,M13I01,2022-09-01_16h19.32.038,t1_Paradigm,2021.1.4,59.972372451560396,
S,right,Target,0,21,21,21,1249.143172857599,1251.144183383105,right,1,2,1.0383614729944384,M13I01,2022-09-01_16h19.32.038,t1_Paradigm,2021.1.4,59.972372451560396,
Q,left,Distractor,0,22,22,22,1252.6432729477528,1254.645288224332,left,1,2,0.48129116286872886,M13I01,2022-09-01_16h19.32.038,t1_Paradigm,2021.1.4,59.972372451560396,
D,left,Distractor,0,23,23,23,1256.1431715743965,1258.1451233322296,left,1,2,0.549406356367399,M13I01,2022-09-01_16h19.32.038,t1_Paradigm,2021.1.4,59.972372451560396,
F,left,Distractor,0,24,24,24,1259.6430570481753,1261.6451461091492,left,1,2,0.5214860178530216,M13I01,2022-09-01_16h19.32.038,t1_Paradigm,2021.1.4,59.972372451560396,
Z,left,Distractor,0,25,25,25,1263.1431000356097,1265.1449658185738,left,1,2,0.42974153002433013,M13I01,2022-09-01_16h19.32.038,t1_Paradigm,2021.1.4,59.972372451560396,
P,left,Distractor,0,26,26,26,1266.6431641959643,1268.645031262131,left,1,2,0.4655337018193677,M13I01,2022-09-01_16h19.32.038,t1_Paradigm,2021.1.4,59.972372451560396,
H,left,Distractor,0,27,27,27,1270.143201729763,1272.144825307405,left,1,2,0.3898017124447506,M13I01,2022-09-01_16h19.32.038,t1_Paradigm,2021.1.4,59.972372451560396,
Z,left,Pretarget,0,28,28,28,1273.6430785418925,1275.6452664098179,left,1,2,0.5053381410834845,M13I01,2022-09-01_16h19.32.038,t1_Paradigm,2021.1.4,59.972372451560396,
J,left,Pretarget,0,29,29,29,1277.1431799152488,1279.145138730717,left,1,2,0.3978596107335761,M13I01,2022-09-01_16h19.32.038,t1_Paradigm,2021.1.4,59.972372451560396,
Z,right,Target,0,30,30,30,1280.6431959553302,1282.6447861695924,right,1,2,0.7697352423128905,M13I01,2022-09-01_16h19.32.038,t1_Paradigm,2021.1.4,59.972372451560396,
J,right,Target,0,31,31,31,1284.1430673138384,1286.1453966553236,right,1,2,0.7892303645203356,M13I01,2022-09-01_16h19.32.038,t1_Paradigm,2021.1.4,59.972372451560396,
V,left,Pretarget,0,32,32,32,1287.6431253789488,1289.644890750962,left,1,2,0.4897272864327533,M13I01,2022-09-01_16h19.32.038,t1_Paradigm,2021.1.4,59.972372451560396,
Z,left,Lure,0,33,33,33,1291.1430002662673,1293.1448532171635,left,1,2,0.6536999669624493,M13I01,2022-09-01_16h19.32.038,t1_Paradigm,2021.1.4,59.972372451560396,
V,right,Target,0,34,34,34,1294.6431494390854,1296.6449500992894,right,1,2,0.41756999092467595,M13I01,2022-09-01_16h19.32.038,t1_Paradigm,2021.1.4,59.972372451560396,
X,left,Distractor,0,35,35,35,1298.1432168074389,1300.1448878637457,left,1,2,0.5336091159115313,M13I01,2022-09-01_16h19.32.038,t1_Paradigm,2021.1.4,59.972372451560396,
S,left,Distractor,0,36,36,36,1301.643052556945,1303.6451717732998,left,1,2,0.5214375767827732,M13I01,2022-09-01_16h19.32.038,t1_Paradigm,2021.1.4,59.972372451560396,
Q,left,Distractor,0,37,37,37,1305.1431571383146,1307.1451416179334,left,1,2,0.6054481760947965,M13I01,2022-09-01_16h19.32.038,t1_Paradigm,2021.1.4,59.972372451560396,
P,left,Distractor,0,38,38,38,1308.6431584215316,1310.6449414376402,left,1,2,0.4979186382552143,M13I01,2022-09-01_16h19.32.038,t1_Paradigm,2021.1.4,59.972372451560396,
S,left,Lure,0,39,39,39,1312.1431757448154,1314.1449561945192,left,1,2,0.6778913059533807,M13I01,2022-09-01_16h19.32.038,t1_Paradigm,2021.1.4,59.972372451560396,
K,left,Pretarget,0,40,40,40,1315.6433124063624,1317.6444669718621,left,1,2,0.6978727636160329,M13I01,2022-09-01_16h19.32.038,t1_Paradigm,2021.1.4,59.972372451560396,
L,left,Distractor,0,41,41,41,1319.1433351832966,1321.1451477131632,left,1,2,0.4454944998578867,M13I01,2022-09-01_16h19.32.038,t1_Paradigm,2021.1.4,59.972372451560396,
K,right,Target,0,42,42,42,1322.643061218594,1324.645385427255,right,1,2,0.6570045457629021,M13I01,2022-09-01_16h19.32.038,t1_Paradigm,2021.1.4,59.972372451560396,
B,left,Distractor,0,43,43,43,1326.1430201559706,1328.14485000915,left,1,2,0.4217108998709591,M13I01,2022-09-01_16h19.32.038,t1_Paradigm,2021.1.4,59.972372451560396,
N,left,Distractor,0,44,44,44,1329.6430294592283,1331.6454534372315,left,1,2,0.4731274000077974,M13I01,2022-09-01_16h19.32.038,t1_Paradigm,2021.1.4,59.972372451560396,
S,left,Pretarget,0,45,45,45,1333.1430301008222,1335.1436996140692,left,1,2,0.41495673987083137,M13I01,2022-09-01_16h19.32.038,t1_Paradigm,2021.1.4,59.972372451560396,
Z,left,Distractor,0,46,46,46,1336.6431247373403,1338.6447358037258,left,1,2,0.46575826304615475,M13I01,2022-09-01_16h19.32.038,t1_Paradigm,2021.1.4,59.972372451560396,
S,right,Target,0,47,47,47,1340.143037479269,1342.1446344303695,right,1,2,0.4378270172746852,M13I01,2022-09-01_16h19.32.038,t1_Paradigm,2021.1.4,59.972372451560396,
C,left,Distractor,0,48,48,48,1343.6431385318137,1345.645177226921,left,1,2,0.39330935874022543,M13I01,2022-09-01_16h19.32.038,t1_Paradigm,2021.1.4,59.972372451560396,
T,left,Pretarget,0,49,49,49,1347.1430153439433,1349.1447332373064,left,1,2,0.461921794936643,M13I01,2022-09-01_16h19.32.038,t1_Paradigm,2021.1.4,59.972372451560396,
S,left,Lure,0,50,50,50,1350.6431096596643,1352.6592485539877,left,1,2,0.5633525707526132,M13I01,2022-09-01_16h19.32.038,t1_Paradigm,2021.1.4,59.972372451560396,
T,right,Target,0,51,51,51,1354.1432620404958,1356.1450434525905,right,1,2,0.7258004805626115,M13I01,2022-09-01_16h19.32.038,t1_Paradigm,2021.1.4,59.972372451560396,
N,left,Pretarget,0,52,52,52,1357.6429916046181,1359.643666571501,left,1,2,0.5387916681356728,M13I01,2022-09-01_16h19.32.038,t1_Paradigm,2021.1.4,59.972372451560396,
B,left,Distractor,0,53,53,53,1361.143267494117,1363.1450896480528,left,1,2,0.525622114786529,M13I01,2022-09-01_16h19.32.038,t1_Paradigm,2021.1.4,59.972372451560396,
N,right,Target,0,54,54,54,1364.6430397248769,1366.6449016582192,right,1,2,0.641756197088398,M13I01,2022-09-01_16h19.32.038,t1_Paradigm,2021.1.4,59.972372451560396,
N,left,Lure,0,55,55,55,1368.142997379051,1370.143285459024,left,1,2,0.39130081901384983,M13I01,2022-09-01_16h19.32.038,t1_Paradigm,2021.1.4,59.972372451560396,
X,left,Distractor,0,56,56,56,1371.6430156647548,1373.6452394624648,left,1,2,0.47331154020503163,M13I01,2022-09-01_16h19.32.038,t1_Paradigm,2021.1.4,59.972372451560396,
W,left,Distractor,0,57,57,57,1375.143037479269,1377.144704365157,left,1,2,0.6058507822745014,M13I01,2022-09-01_16h19.32.038,t1_Paradigm,2021.1.4,59.972372451560396,
S,left,Distractor,0,58,58,58,1378.6430018702813,1380.6449844250747,left,1,2,0.6093914711673278,M13I01,2022-09-01_16h19.32.038,t1_Paradigm,2021.1.4,59.972372451560396,
L,left,Distractor,0,59,59,59,1382.143145268652,1384.14474093655,left,1,2,0.45376541050791275,M13I01,2022-09-01_16h19.32.038,t1_Paradigm,2021.1.4,59.972372451560396,
K,left,Pretarget,0,60,60,60,1385.6428850984375,1387.6452923947509,left,1,2,0.537233213239233,M13I01,2022-09-01_16h19.32.038,t1_Paradigm,2021.1.4,59.972372451560396,
V,left,Pretarget,0,61,61,61,1389.14303940408,1391.144537227432,left,1,2,0.5900204992212821,M13I01,2022-09-01_16h19.32.038,t1_Paradigm,2021.1.4,59.972372451560396,
K,right,Target,0,62,62,62,1392.643037800066,1394.6449302095862,right,1,2,0.7214735065936111,M13I01,2022-09-01_16h19.32.038,t1_Paradigm,2021.1.4,59.972372451560396,
V,right,Target,0,63,63,63,1396.1430342712556,1398.144880164502,right,1,2,0.4535722878499655,M13I01,2022-09-01_16h19.32.038,t1_Paradigm,2021.1.4,59.972372451560396,
R,left,Distractor,0,0,0,0,1475.1081644044752,1477.111489835399,None,0,3,,M13I01,2022-09-01_16h19.32.038,t1_Paradigm,2021.1.4,59.972372451560396,
P,left,Lure,0,1,1,1,1478.6095701577433,1480.6116300257563,None,0,3,,M13I01,2022-09-01_16h19.32.038,t1_Paradigm,2021.1.4,59.972372451560396,
V,left,Distractor,0,2,2,2,1482.1096718518966,1484.1117657248979,None,0,3,,M13I01,2022-09-01_16h19.32.038,t1_Paradigm,2021.1.4,59.972372451560396,
P,left,Pretarget,0,3,3,3,1485.6095050349832,1487.6116698051774,left,1,3,0.47479524827213027,M13I01,2022-09-01_16h19.32.038,t1_Paradigm,2021.1.4,59.972372451560396,
Z,left,Distractor,0,4,4,4,1489.1096250148403,1491.1086443238892,left,1,3,0.4658891501749167,M13I01,2022-09-01_16h19.32.038,t1_Paradigm,2021.1.4,59.972372451560396,
L,left,Pretarget,0,5,5,5,1492.609480012441,1494.6112630285643,left,1,3,0.5632605006539961,M13I01,2022-09-01_16h19.32.038,t1_Paradigm,2021.1.4,59.972372451560396,
P,right,Target,0,6,6,6,1496.1095210750645,1498.1103529140091,right,1,3,1.3040206083096564,M13I01,2022-09-01_16h19.32.038,t1_Paradigm,2021.1.4,59.972372451560396,
S,left,Distractor,0,7,7,7,1499.6095788193925,1501.6119213137426,left,1,3,0.6184284563933033,M13I01,2022-09-01_16h19.32.038,t1_Paradigm,2021.1.4,59.972372451560396,
L,right,Target,0,8,8,8,1503.109521395876,1505.1115899255383,right,1,3,1.0068969167768955,M13I01,2022-09-01_16h19.32.038,t1_Paradigm,2021.1.4,59.972372451560396,
D,left,Distractor,0,9,9,9,1506.6096442629496,1508.6112027178315,left,1,3,0.5314764258946525,M13I01,2022-09-01_16h19.32.038,t1_Paradigm,2021.1.4,59.972372451560396,
G,left,Distractor,0,10,10,10,1510.1095140174293,1512.1113230184856,left,1,3,0.5990366323530907,M13I01,2022-09-01_16h19.32.038,t1_Paradigm,2021.1.4,59.972372451560396,
M,left,Pretarget,0,11,11,11,1513.6095826689998,1515.6115761310648,left,1,3,1.3707849056372652,M13I01,2022-09-01_16h19.32.038,t1_Paradigm,2021.1.4,59.972372451560396,
Y,left,Distractor,0,12,12,12,1517.109552513648,1519.1116261761345,left,1,3,1.1187710726662772,M13I01,2022-09-01_16h19.32.038,t1_Paradigm,2021.1.4,59.972372451560396,
V,left,Distractor,0,13,13,13,1520.6095922930544,1522.6117756697495,None,0,3,,M13I01,2022-09-01_16h19.32.038,t1_Paradigm,2021.1.4,59.972372451560396,
M,right,Target,0,14,14,14,1524.1094277217635,1526.1117519304244,right,1,3,1.2386874075600645,M13I01,2022-09-01_16h19.32.038,t1_Paradigm,2021.1.4,59.972372451560396,
S,left,Pretarget,0,15,15,15,1527.6095544384589,1529.6118616446183,left,1,3,0.6982849938649451,M13I01,2022-09-01_16h19.32.038,t1_Paradigm,2021.1.4,59.972372451560396,
Q,left,Distractor,0,16,16,16,1531.109508884605,1533.1115033090755,left,1,3,0.6868336546613136,M13I01,2022-09-01_16h19.32.038,t1_Paradigm,2021.1.4,59.972372451560396,
R,left,Pretarget,0,17,17,17,1534.6095191502536,1536.6118231484143,left,1,3,0.9146096323966049,M13I01,2022-09-01_16h19.32.038,t1_Paradigm,2021.1.4,59.972372451560396,
S,right,Target,0,18,18,18,1538.1095794609864,1540.1101873802982,left,0,3,0.5840365842304891,M13I01,2022-09-01_16h19.32.038,t1_Paradigm,2021.1.4,59.972372451560396,
F,left,Distractor,0,19,19,19,1541.609552834445,1543.6114997802506,left,1,3,1.1630622451630188,M13I01,2022-09-01_16h19.32.038,t1_Paradigm,2021.1.4,59.972372451560396,
R,right,Target,0,20,20,20,1545.1093427093,1547.1116553690954,right,1,3,0.7026690705388319,M13I01,2022-09-01_16h19.32.038,t1_Paradigm,2021.1.4,59.972372451560396,
P,left,Distractor,0,21,21,21,1548.6095598920801,1550.61162713854,left,1,3,0.8186058597639203,M13I01,2022-09-01_16h19.32.038,t1_Paradigm,2021.1.4,59.972372451560396,
L,left,Distractor,0,22,22,22,1552.1094954109285,1554.1118132035626,None,0,3,,M13I01,2022-09-01_16h19.32.038,t1_Paradigm,2021.1.4,59.972372451560396,
R,right,Target,0,23,23,23,1555.609591009852,1557.611599228796,left,0,3,0.7948222597915446,M13I01,2022-09-01_16h19.32.038,t1_Paradigm,2021.1.4,59.972372451560396,
H,left,Pretarget,0,24,24,24,1559.1095316615247,1561.111819940401,left,1,3,0.8309217596688541,M13I01,2022-09-01_16h19.32.038,t1_Paradigm,2021.1.4,59.972372451560396,
G,left,Pretarget,0,25,25,25,1562.6093279524212,1564.6116909780976,left,1,3,0.5467539675155422,M13I01,2022-09-01_16h19.32.038,t1_Paradigm,2021.1.4,59.972372451560396,
T,left,Distractor,0,26,26,26,1566.1095181878627,1568.1112765022408,left,1,3,0.64727013753145,M13I01,2022-09-01_16h19.32.038,t1_Paradigm,2021.1.4,59.972372451560396,
H,right,Target,0,27,27,27,1569.6095794609864,1571.6110285224859,right,1,3,0.4272713565733284,M13I01,2022-09-01_16h19.32.038,t1_Paradigm,2021.1.4,59.972372451560396,
G,right,Target,0,28,28,28,1573.1085631610476,1575.11073466808,right,1,3,0.7515640689234715,M13I01,2022-09-01_16h19.32.038,t1_Paradigm,2021.1.4,59.972372451560396,
D,left,Distractor,0,29,29,29,1576.6095403231739,1578.6114696248842,left,1,3,0.5311864211107604,M13I01,2022-09-01_16h19.32.038,t1_Paradigm,2021.1.4,59.972372451560396,
N,left,Pretarget,0,30,30,30,1580.109547380809,1582.1114407527348,left,1,3,0.6469724335038336,M13I01,2022-09-01_16h19.32.038,t1_Paradigm,2021.1.4,59.972372451560396,
V,left,Distractor,0,31,31,31,1583.6094905989012,1585.6114936850208,left,1,3,0.6347980071732309,M13I01,2022-09-01_16h19.32.038,t1_Paradigm,2021.1.4,59.972372451560396,
R,left,Distractor,0,32,32,32,1587.109552834445,1589.1115363516437,left,1,3,0.60686098698352,M13I01,2022-09-01_16h19.32.038,t1_Paradigm,2021.1.4,59.972372451560396,
N,right,Target,0,33,33,33,1590.6094257969526,1592.611800050683,right,1,3,0.3705029209086206,M13I01,2022-09-01_16h19.32.038,t1_Paradigm,2021.1.4,59.972372451560396,
Z,left,Distractor,0,34,34,34,1594.1095056765917,1596.1111690336547,left,1,3,0.48710473215032835,M13I01,2022-09-01_16h19.32.038,t1_Paradigm,2021.1.4,59.972372451560396,
N,left,Lure,0,35,35,35,1597.609439912223,1599.6101283527823,left,1,3,1.1643162591935834,M13I01,2022-09-01_16h19.32.038,t1_Paradigm,2021.1.4,59.972372451560396,
Y,left,Pretarget,0,36,36,36,1601.1092785489454,1603.1114484519785,left,1,3,0.7668181920162169,M13I01,2022-09-01_16h19.32.038,t1_Paradigm,2021.1.4,59.972372451560396,
Y,left,Lure,0,37,37,37,1604.6094049448438,1606.6095098470105,left,1,3,1.076859286724357,M13I01,2022-09-01_16h19.32.038,t1_Paradigm,2021.1.4,59.972372451560396,
B,left,Distractor,0,38,38,38,1608.1095669497154,1610.1115780558757,left,1,3,1.2068212075537303,M13I01,2022-09-01_16h19.32.038,t1_Paradigm,2021.1.4,59.972372451560396,
Y,right,Target,0,39,39,39,1611.6095265287004,1613.611409634963,right,1,3,0.49099188692343887,M13I01,2022-09-01_16h19.32.038,t1_Paradigm,2021.1.4,59.972372451560396,
J,left,Distractor,0,40,40,40,1615.10941392729,1617.111585113511,left,1,3,0.5110904372122604,M13I01,2022-09-01_16h19.32.038,t1_Paradigm,2021.1.4,59.972372451560396,
X,left,Distractor,0,41,41,41,1618.609397887194,1620.6113695347449,left,1,3,0.5151675066299504,M13I01,2022-09-01_16h19.32.038,t1_Paradigm,2021.1.4,59.972372451560396,
W,left,Pretarget,0,42,42,42,1622.1094934861176,1624.1115880007274,left,1,3,0.48666459214291535,M13I01,2022-09-01_16h19.32.038,t1_Paradigm,2021.1.4,59.972372451560396,
S,left,Pretarget,0,43,43,43,1625.6091511906561,1627.611515499535,left,1,3,0.5068613077892223,M13I01,2022-09-01_16h19.32.038,t1_Paradigm,2021.1.4,59.972372451560396,
R,left,Distractor,0,44,44,44,1629.1094235513447,1631.1117407023703,left,1,3,0.5264247607701691,M13I01,2022-09-01_16h19.32.038,t1_Paradigm,2021.1.4,59.972372451560396,
W,right,Target,0,45,45,45,1632.6093988495995,1634.6116210433102,right,1,3,0.9307725868566195,M13I01,2022-09-01_16h19.32.038,t1_Paradigm,2021.1.4,59.972372451560396,
S,right,Target,0,46,46,46,1636.1095265287004,1638.1115090835083,right,1,3,0.870788113650633,M13I01,2022-09-01_16h19.32.038,t1_Paradigm,2021.1.4,59.972372451560396,
D,left,Distractor,0,47,47,47,1639.609479691644,1641.6115517501312,left,1,3,0.5068048466637265,M13I01,2022-09-01_16h19.32.038,t1_Paradigm,2021.1.4,59.972372451560396,
T,left,Distractor,0,48,48,48,1643.1093407844892,1645.111396802895,left,1,3,0.7187899999698857,M13I01,2022-09-01_16h19.32.038,t1_Paradigm,2021.1.4,59.972372451560396,
S,right,Target,0,49,49,49,1646.6094748796168,1648.6113634395151,right,1,3,0.5789955055661267,M13I01,2022-09-01_16h19.32.038,t1_Paradigm,2021.1.4,59.972372451560396,
K,left,Distractor,0,50,50,50,1650.109384734329,1652.111504913075,left,1,3,0.4867771935532801,M13I01,2022-09-01_16h19.32.038,t1_Paradigm,2021.1.4,59.972372451560396,
S,left,Lure,0,51,51,51,1653.6095117718214,1655.6112601413479,left,1,3,0.8591125340462895,M13I01,2022-09-01_16h19.32.038,t1_Paradigm,2021.1.4,59.972372451560396,
T,left,Pretarget,0,52,52,52,1657.1093619574094,1659.1114654544654,left,1,3,0.4789323076256551,M13I01,2022-09-01_16h19.32.038,t1_Paradigm,2021.1.4,59.972372451560396,
V,left,Distractor,0,53,53,53,1660.6092997218657,1662.6114298454631,left,1,3,0.4667565980926156,M13I01,2022-09-01_16h19.32.038,t1_Paradigm,2021.1.4,59.972372451560396,
B,left,Distractor,0,54,54,54,1664.1094658971706,1666.1115103667107,left,1,3,0.5347450748959091,M13I01,2022-09-01_16h19.32.038,t1_Paradigm,2021.1.4,59.972372451560396,
T,right,Target,0,55,55,55,1667.6094549899135,1669.6262967608636,right,1,3,0.5879211725987261,M13I01,2022-09-01_16h19.32.038,t1_Paradigm,2021.1.4,59.972372451560396,
Y,left,Pretarget,0,56,56,56,1671.1093231403938,1673.1110557906359,left,1,3,0.5272582036996027,M13I01,2022-09-01_16h19.32.038,t1_Paradigm,2021.1.4,59.972372451560396,
T,left,Lure,0,57,57,57,1674.6093475213274,1676.6115645821992,left,1,3,1.0426063217164483,M13I01,2022-09-01_16h19.32.038,t1_Paradigm,2021.1.4,59.972372451560396,
P,left,Pretarget,0,58,58,58,1678.1095127342269,1680.1117307575041,left,1,3,0.5344849046814488,M13I01,2022-09-01_16h19.32.038,t1_Paradigm,2021.1.4,59.972372451560396,
Y,right,Target,0,59,59,59,1681.6095772153785,1683.6110140864039,right,1,3,0.8273387249355437,M13I01,2022-09-01_16h19.32.038,t1_Paradigm,2021.1.4,59.972372451560396,
R,left,Distractor,0,60,60,60,1685.1093382180698,1687.1116024368093,left,1,3,0.4787160872510867,M13I01,2022-09-01_16h19.32.038,t1_Paradigm,2021.1.4,59.972372451560396,
P,right,Target,0,61,61,61,1688.6092041229422,1690.6115928127547,right,1,3,0.5947696483053733,M13I01,2022-09-01_16h19.32.038,t1_Paradigm,2021.1.4,59.972372451560396,
L,left,Distractor,0,62,62,62,1692.1094299673714,1694.1085374969116,left,1,3,0.48968141178193036,M13I01,2022-09-01_16h19.32.038,t1_Paradigm,2021.1.4,59.972372451560396,
V,left,Distractor,0,63,63,63,1695.6093144787446,1697.6110025375383,left,1,3,0.6990321411285549,M13I01,2022-09-01_16h19.32.038,t1_Paradigm,2021.1.4,59.972372451560396,
H,left,Lure,0,0,0,0,1741.1699565955205,1743.1617055745737,None,0,3,,M13I01,2022-09-01_16h19.32.038,t1_Paradigm,2021.1.4,59.972372451560396,
B,left,Distractor,0,1,1,1,1744.6593268296128,1746.6609439912281,None,0,3,,M13I01,2022-09-01_16h19.32.038,t1_Paradigm,2021.1.4,59.972372451560396,
T,left,Distractor,0,2,2,2,1748.1593675714394,1750.1611031088833,None,0,3,,M13I01,2022-09-01_16h19.32.038,t1_Paradigm,2021.1.4,59.972372451560396,
R,left,Distractor,0,3,3,3,1751.6592639524752,1753.661558968175,left,1,3,0.6967714512138627,M13I01,2022-09-01_16h19.32.038,t1_Paradigm,2021.1.4,59.972372451560396,
H,left,Pretarget,0,4,4,4,1755.1593929147784,1757.1611954997934,left,1,3,0.7813742505240953,M13I01,2022-09-01_16h19.32.038,t1_Paradigm,2021.1.4,59.972372451560396,
K,left,Distractor,0,5,5,5,1758.6593848947232,1760.6613068180013,left,1,3,0.4814230124029564,M13I01,2022-09-01_16h19.32.038,t1_Paradigm,2021.1.4,59.972372451560396,
G,left,Distractor,0,6,6,6,1762.159458037524,1764.1611727228737,left,1,3,0.4851779968448682,M13I01,2022-09-01_16h19.32.038,t1_Paradigm,2021.1.4,59.972372451560396,
H,right,Target,0,7,7,7,1765.6593425488973,1767.6611871589412,right,1,3,0.7133876985317329,M13I01,2022-09-01_16h19.32.038,t1_Paradigm,2021.1.4,59.972372451560396,
Y,left,Pretarget,0,8,8,8,1769.159213265797,1771.1614232690335,left,1,3,0.4449292471836088,M13I01,2022-09-01_16h19.32.038,t1_Paradigm,2021.1.4,59.972372451560396,
S,left,Distractor,0,9,9,9,1772.6593832907238,1774.660853525129,left,1,3,0.46536656410899013,M13I01,2022-09-01_16h19.32.038,t1_Paradigm,2021.1.4,59.972372451560396,
P,left,Distractor,0,10,10,10,1776.159269726908,1778.1613684119366,left,1,3,0.48475678414979484,M13I01,2022-09-01_16h19.32.038,t1_Paradigm,2021.1.4,59.972372451560396,
Y,right,Target,0,11,11,11,1779.6593444737082,1781.6614492539811,right,1,3,0.6807865417213179,M13I01,2022-09-01_16h19.32.038,t1_Paradigm,2021.1.4,59.972372451560396,
H,left,Lure,0,12,12,12,1783.1592764637317,1785.1609799210128,left,1,3,0.5572804352705134,M13I01,2022-09-01_16h19.32.038,t1_Paradigm,2021.1.4,59.972372451560396,
Q,left,Distractor,0,13,13,13,1786.6594249949412,1788.6611987078068,left,1,3,0.7849774957576301,M13I01,2022-09-01_16h19.32.038,t1_Paradigm,2021.1.4,59.972372451560396,
V,left,Pretarget,0,14,14,14,1790.1590422784648,1792.1618351784855,left,1,3,0.5322755430388497,M13I01,2022-09-01_16h19.32.038,t1_Paradigm,2021.1.4,59.972372451560396,
G,left,Distractor,0,15,15,15,1793.659238929933,1795.6612538857153,left,1,3,0.48897500633029267,M13I01,2022-09-01_16h19.32.038,t1_Paradigm,2021.1.4,59.972372451560396,
Z,left,Pretarget,0,16,16,16,1797.1592851253808,1799.1609292343492,left,1,3,0.5732602119242074,M13I01,2022-09-01_16h19.32.038,t1_Paradigm,2021.1.4,59.972372451560396,
V,right,Target,0,17,17,17,1800.6593133559363,1802.6613209332718,right,1,3,0.6090498173143715,M13I01,2022-09-01_16h19.32.038,t1_Paradigm,2021.1.4,59.972372451560396,
N,left,Distractor,0,18,18,18,1804.1592613860557,1806.161464331657,left,1,3,0.5646790859755129,M13I01,2022-09-01_16h19.32.038,t1_Paradigm,2021.1.4,59.972372451560396,
Z,right,Target,0,19,19,19,1807.6592216066347,1809.6609683721617,right,1,3,1.0652821932599181,M13I01,2022-09-01_16h19.32.038,t1_Paradigm,2021.1.4,59.972372451560396,
R,left,Distractor,0,20,20,20,1811.1593223383825,1813.1613263869076,left,1,3,0.5408983732049819,M13I01,2022-09-01_16h19.32.038,t1_Paradigm,2021.1.4,59.972372451560396,
P,left,Distractor,0,21,21,21,1814.6590820578858,1816.661559288972,left,1,3,0.5765981541044312,M13I01,2022-09-01_16h19.32.038,t1_Paradigm,2021.1.4,59.972372451560396,
Z,right,Target,0,22,22,22,1818.1592187194183,1820.1610501765972,right,1,3,0.5490169030381367,M13I01,2022-09-01_16h19.32.038,t1_Paradigm,2021.1.4,59.972372451560396,
D,left,Pretarget,0,23,23,23,1821.659280954962,1823.6597368142538,left,1,3,0.5703046654089121,M13I01,2022-09-01_16h19.32.038,t1_Paradigm,2021.1.4,59.972372451560396,
K,left,Distractor,0,24,24,24,1825.1594827392692,1827.1612612641475,left,1,3,0.6208302990853554,M13I01,2022-09-01_16h19.32.038,t1_Paradigm,2021.1.4,59.972372451560396,
W,left,Distractor,0,25,25,25,1828.6592925038276,1830.6614774845366,left,1,3,0.46486386777542066,M13I01,2022-09-01_16h19.32.038,t1_Paradigm,2021.1.4,59.972372451560396,
D,right,Target,0,26,26,26,1832.1590275215858,1834.1608798308735,right,1,3,0.7893275674578035,M13I01,2022-09-01_16h19.32.038,t1_Paradigm,2021.1.4,59.972372451560396,
G,left,Pretarget,0,27,27,27,1835.6593528145604,1837.6608345978311,left,1,3,0.601218084237189,M13I01,2022-09-01_16h19.32.038,t1_Paradigm,2021.1.4,59.972372451560396,
V,left,Distractor,0,28,28,28,1839.1592822381645,1841.1609937155008,left,1,3,0.5412095509091159,M13I01,2022-09-01_16h19.32.038,t1_Paradigm,2021.1.4,59.972372451560396,
D,right,Target,0,29,29,29,1842.6592755013262,1844.6613485222333,right,1,3,0.8812918044859543,M13I01,2022-09-01_16h19.32.038,t1_Paradigm,2021.1.4,59.972372451560396,
G,right,Target,0,30,30,30,1846.1592318722978,1848.1613087428123,right,1,3,0.9647525495674927,M13I01,2022-09-01_16h19.32.038,t1_Paradigm,2021.1.4,59.972372451560396,
B,left,Pretarget,0,31,31,31,1849.6592142282025,1851.6608082920866,left,1,3,0.5372838999173837,M13I01,2022-09-01_16h19.32.038,t1_Paradigm,2021.1.4,59.972372451560396,
N,left,Distractor,0,32,32,32,1853.175960400229,1855.1602985381032,left,1,3,0.44595196314912755,M13I01,2022-09-01_16h19.32.038,t1_Paradigm,2021.1.4,59.972372451560396,
F,left,Distractor,0,33,33,33,1856.6592013961344,1858.6606931242568,left,1,3,0.529536858521169,M13I01,2022-09-01_16h19.32.038,t1_Paradigm,2021.1.4,59.972372451560396,
B,right,Target,0,34,34,34,1860.1593136767478,1862.1615323416336,right,1,3,0.7726641622721218,M13I01,2022-09-01_16h19.32.038,t1_Paradigm,2021.1.4,59.972372451560396,
Q,left,Pretarget,0,35,35,35,1863.6591519926587,1865.6608278609929,left,1,3,0.6172270538518205,M13I01,2022-09-01_16h19.32.038,t1_Paradigm,2021.1.4,59.972372451560396,
S,left,Pretarget,0,36,36,36,1867.1589710604749,1869.1607024275145,left,1,3,0.7493502160650678,M13I01,2022-09-01_16h19.32.038,t1_Paradigm,2021.1.4,59.972372451560396,
W,left,Distractor,0,37,37,37,1870.6593306792347,1872.660508663248,left,1,3,0.6414453401957871,M13I01,2022-09-01_16h19.32.038,t1_Paradigm,2021.1.4,59.972372451560396,
Q,right,Target,0,38,38,38,1874.1593178471667,1876.1608586579532,right,1,3,0.4053391034831293,M13I01,2022-09-01_16h19.32.038,t1_Paradigm,2021.1.4,59.972372451560396,
S,right,Target,0,39,39,39,1877.65925593242,1879.6614559908194,right,1,3,0.8086080733046401,M13I01,2022-09-01_16h19.32.038,t1_Paradigm,2021.1.4,59.972372451560396,
T,left,Distractor,0,40,40,40,1881.1583929757326,1883.1599296161003,left,1,3,0.6221882528770948,M13I01,2022-09-01_16h19.32.038,t1_Paradigm,2021.1.4,59.972372451560396,
G,left,Distractor,0,41,41,41,1884.6583480634872,1886.6608605827641,left,1,3,0.8011471870413516,M13I01,2022-09-01_16h19.32.038,t1_Paradigm,2021.1.4,59.972372451560396,
D,left,Distractor,0,42,42,42,1888.1591083636158,1890.1610373445292,left,1,3,0.5970835913176415,M13I01,2022-09-01_16h19.32.038,t1_Paradigm,2021.1.4,59.972372451560396,
S,left,Lure,0,43,43,43,1891.6592398923385,1893.6608868885087,left,1,3,0.9212643438513624,M13I01,2022-09-01_16h19.32.038,t1_Paradigm,2021.1.4,59.972372451560396,
Z,left,Pretarget,0,44,44,44,1895.158965286042,1897.15982663873,left,1,3,0.5263054225215456,M13I01,2022-09-01_16h19.32.038,t1_Paradigm,2021.1.4,59.972372451560396,
J,left,Distractor,0,45,45,45,1898.6592148697964,1900.6614575948188,left,1,3,0.5127486614510417,M13I01,2022-09-01_16h19.32.038,t1_Paradigm,2021.1.4,59.972372451560396,
M,left,Pretarget,0,46,46,46,1902.159038428843,1904.161055630233,left,1,3,0.4369922911282629,M13I01,2022-09-01_16h19.32.038,t1_Paradigm,2021.1.4,59.972372451560396,
Z,right,Target,0,47,47,47,1905.6591115716437,1907.6612099358754,right,1,3,0.6486309785395861,M13I01,2022-09-01_16h19.32.038,t1_Paradigm,2021.1.4,59.972372451560396,
P,left,Distractor,0,48,48,48,1909.1582861487404,1911.1610424773535,left,1,3,0.5091476618399611,M13I01,2022-09-01_16h19.32.038,t1_Paradigm,2021.1.4,59.972372451560396,
M,right,Target,0,49,49,49,1912.6592459875683,1914.6612157103082,right,1,3,0.6252041101106443,M13I01,2022-09-01_16h19.32.038,t1_Paradigm,2021.1.4,59.972372451560396,
K,left,Distractor,0,50,50,50,1916.1591577670915,1918.1610145676095,left,1,3,0.4530124888115097,M13I01,2022-09-01_16h19.32.038,t1_Paradigm,2021.1.4,59.972372451560396,
Y,left,Distractor,0,51,51,51,1919.659405105238,1921.6610549886245,left,1,3,0.4251165312307421,M13I01,2022-09-01_16h19.32.038,t1_Paradigm,2021.1.4,59.972372451560396,
X,left,Distractor,0,52,52,52,1923.1591067596164,1925.1611887629551,left,1,3,0.47692088066833094,M13I01,2022-09-01_16h19.32.038,t1_Paradigm,2021.1.4,59.972372451560396,
F,left,Pretarget,0,53,53,53,1926.6591247245087,1928.6607739663013,left,1,3,0.6094007744104601,M13I01,2022-09-01_16h19.32.038,t1_Paradigm,2021.1.4,59.972372451560396,
M,left,Lure,0,54,54,54,1930.1592803133535,1932.161464331657,left,1,3,0.820547672745306,M13I01,2022-09-01_16h19.32.038,t1_Paradigm,2021.1.4,59.972372451560396,
V,left,Distractor,0,55,55,55,1933.6591513510502,1935.6611756100901,left,1,3,0.5368488927488215,M13I01,2022-09-01_16h19.32.038,t1_Paradigm,2021.1.4,59.972372451560396,
F,right,Target,0,56,56,56,1937.1592183986213,1939.1610768031533,right,1,3,0.6689358043659013,M13I01,2022-09-01_16h19.32.038,t1_Paradigm,2021.1.4,59.972372451560396,
S,left,Distractor,0,57,57,57,1940.6592119825946,1942.6610915600322,left,1,3,0.7046702318330063,M13I01,2022-09-01_16h19.32.038,t1_Paradigm,2021.1.4,59.972372451560396,
D,left,Distractor,0,58,58,58,1944.1591725239705,1946.1610476101923,left,1,3,0.5489418354263762,M13I01,2022-09-01_16h19.32.038,t1_Paradigm,2021.1.4,59.972372451560396,
F,right,Target,0,59,59,59,1947.6591930552822,1949.6608082920866,right,1,3,0.8413381924037822,M13I01,2022-09-01_16h19.32.038,t1_Paradigm,2021.1.4,59.972372451560396,
V,left,Pretarget,0,60,60,60,1951.15925593242,1953.1610710287205,left,1,3,0.6050186225475045,M13I01,2022-09-01_16h19.32.038,t1_Paradigm,2021.1.4,59.972372451560396,
J,left,Distractor,0,61,61,61,1954.659188243255,1956.6611589284003,left,1,3,0.65668631043809,M13I01,2022-09-01_16h19.32.038,t1_Paradigm,2021.1.4,59.972372451560396,
V,left,Lure,0,62,62,62,1958.1590721130196,1960.1611460963177,left,1,3,1.0289963075774722,M13I01,2022-09-01_16h19.32.038,t1_Paradigm,2021.1.4,59.972372451560396,
V,right,Target,0,63,63,63,1961.6591953008901,1963.6591324237525,right,1,3,0.715059717244003,M13I01,2022-09-01_16h19.32.038,t1_Paradigm,2021.1.4,59.972372451560396,
R,left,Distractor,0,0,0,0,2026.800868089529,2028.794878400091,None,0,4,,M13I01,2022-09-01_16h19.32.038,t1_Paradigm,2021.1.4,59.972372451560396,
F,left,Distractor,0,1,1,1,2030.292882371621,2032.2949274827697,None,0,4,,M13I01,2022-09-01_16h19.32.038,t1_Paradigm,2021.1.4,59.972372451560396,
P,left,Pretarget,0,2,2,2,2033.792409830654,2035.7930145419377,None,0,4,,M13I01,2022-09-01_16h19.32.038,t1_Paradigm,2021.1.4,59.972372451560396,
H,left,Distractor,0,3,3,3,2037.292896807703,2039.2946949015022,None,0,4,,M13I01,2022-09-01_16h19.32.038,t1_Paradigm,2021.1.4,59.972372451560396,
Z,left,Distractor,0,4,4,4,2040.792322251771,2042.7941104007186,left,1,4,0.4597342478373321,M13I01,2022-09-01_16h19.32.038,t1_Paradigm,2021.1.4,59.972372451560396,
T,left,Distractor,0,5,5,5,2044.292803775199,2046.293377047914,left,1,4,0.5127181852876674,M13I01,2022-09-01_16h19.32.038,t1_Paradigm,2021.1.4,59.972372451560396,
P,right,Target,0,6,6,6,2047.792504787969,2049.794794350033,right,1,4,0.8991277400491526,M13I01,2022-09-01_16h19.32.038,t1_Paradigm,2021.1.4,59.972372451560396,
G,left,Distractor,0,7,7,7,2051.2927691286022,2053.3089975266194,left,1,4,0.6009319290751591,M13I01,2022-09-01_16h19.32.038,t1_Paradigm,2021.1.4,59.972372451560396,
L,left,Distractor,0,8,8,8,2054.792335083839,2056.794572996834,left,1,4,0.6193337589211296,M13I01,2022-09-01_16h19.32.038,t1_Paradigm,2021.1.4,59.972372451560396,
P,left,Lure,0,9,9,9,2058.292831364146,2060.294414520773,left,1,4,0.8478924929077039,M13I01,2022-09-01_16h19.32.038,t1_Paradigm,2021.1.4,59.972372451560396,
Q,left,Pretarget,0,10,10,10,2061.792481048644,2063.794682069434,left,1,4,0.723360783274984,M13I01,2022-09-01_16h19.32.038,t1_Paradigm,2021.1.4,59.972372451560396,
D,left,Distractor,0,11,11,11,2065.2928233441053,2067.2946811070287,left,1,4,0.5517071465001209,M13I01,2022-09-01_16h19.32.038,t1_Paradigm,2021.1.4,59.972372451560396,
M,left,Pretarget,0,12,12,12,2068.7924874646706,2070.794956354919,left,1,4,0.6989365422050469,M13I01,2022-09-01_16h19.32.038,t1_Paradigm,2021.1.4,59.972372451560396,
C,left,Distractor,0,13,13,13,2072.292619634987,2074.2943186010525,left,1,4,0.5279867444769479,M13I01,2022-09-01_16h19.32.038,t1_Paradigm,2021.1.4,59.972372451560396,
Q,right,Target,0,14,14,14,2075.792425229127,2077.794729868896,right,1,4,0.7871490027901018,M13I01,2022-09-01_16h19.32.038,t1_Paradigm,2021.1.4,59.972372451560396,
R,left,Distractor,0,15,15,15,2079.292793509536,2081.294392706259,left,1,4,0.5834963540837634,M13I01,2022-09-01_16h19.32.038,t1_Paradigm,2021.1.4,59.972372451560396,
M,right,Target,0,16,16,16,2082.792406622626,2084.7942894080916,right,1,4,0.6355801218451234,M13I01,2022-09-01_16h19.32.038,t1_Paradigm,2021.1.4,59.972372451560396,
S,left,Distractor,0,17,17,17,2086.2927595045476,2088.2944161247724,left,1,4,0.39947933875373565,M13I01,2022-09-01_16h19.32.038,t1_Paradigm,2021.1.4,59.972372451560396,
Z,left,Distractor,0,18,18,18,2089.79233700865,2091.7946198338905,left,1,4,0.5150542636110913,M13I01,2022-09-01_16h19.32.038,t1_Paradigm,2021.1.4,59.972372451560396,
L,left,Pretarget,0,19,19,19,2093.2919796355127,2095.2943808365817,left,1,4,0.7278635566035518,M13I01,2022-09-01_16h19.32.038,t1_Paradigm,2021.1.4,59.972372451560396,
M,right,Target,0,20,20,20,2096.7923062116897,2098.7942871624837,right,1,4,0.6356628887006082,M13I01,2022-09-01_16h19.32.038,t1_Paradigm,2021.1.4,59.972372451560396,
P,left,Distractor,0,21,21,21,2100.2922433345375,2102.294524234967,left,1,4,0.6394595773745095,M13I01,2022-09-01_16h19.32.038,t1_Paradigm,2021.1.4,59.972372451560396,
F,left,Distractor,0,22,22,22,2103.7924528180883,2105.7940160849976,left,1,4,0.5480285128578544,M13I01,2022-09-01_16h19.32.038,t1_Paradigm,2021.1.4,59.972372451560396,
L,right,Target,0,23,23,23,2107.2923873745312,2109.2944482049497,right,1,4,0.7275639277650043,M13I01,2022-09-01_16h19.32.038,t1_Paradigm,2021.1.4,59.972372451560396,
L,left,Lure,0,24,24,24,2110.792149018831,2112.7922013095085,left,1,4,1.0537083078088472,M13I01,2022-09-01_16h19.32.038,t1_Paradigm,2021.1.4,59.972372451560396,
V,left,Pretarget,0,25,25,25,2114.2926680760575,2116.2944976084254,left,1,4,0.7354033600713592,M13I01,2022-09-01_16h19.32.038,t1_Paradigm,2021.1.4,59.972372451560396,
Z,left,Distractor,0,26,26,26,2117.792347274313,2119.794511723696,left,1,4,0.5477266384259565,M13I01,2022-09-01_16h19.32.038,t1_Paradigm,2021.1.4,59.972372451560396,
H,left,Distractor,0,27,27,27,2121.2928246273077,2123.2940850573796,left,1,4,0.6958959832409164,M13I01,2022-09-01_16h19.32.038,t1_Paradigm,2021.1.4,59.972372451560396,
X,left,Distractor,0,28,28,28,2124.7922321064834,2126.794370570933,left,1,4,0.9076180791016668,M13I01,2022-09-01_16h19.32.038,t1_Paradigm,2021.1.4,59.972372451560396,
V,right,Target,0,29,29,29,2128.2928387425927,2130.294856585577,right,1,4,0.5750666465610266,M13I01,2022-09-01_16h19.32.038,t1_Paradigm,2021.1.4,59.972372451560396,
C,left,Distractor,0,30,30,30,2131.7920826128684,2133.7945774880645,left,1,4,0.7713491959002567,M13I01,2022-09-01_16h19.32.038,t1_Paradigm,2021.1.4,59.972372451560396,
S,left,Pretarget,0,31,31,31,2135.292643695124,2137.2946342699724,left,1,4,0.615200870015542,M13I01,2022-09-01_16h19.32.038,t1_Paradigm,2021.1.4,59.972372451560396,
D,left,Distractor,0,32,32,32,2138.7922359561053,2140.7945450870757,left,1,4,0.44359984472976066,M13I01,2022-09-01_16h19.32.038,t1_Paradigm,2021.1.4,59.972372451560396,
V,left,Distractor,0,33,33,33,2142.2926093693386,2144.2945707512263,right,0,4,0.4478161420993274,M13I01,2022-09-01_16h19.32.038,t1_Paradigm,2021.1.4,59.972372451560396,
R,left,Distractor,0,34,34,34,2145.7924014898017,2147.794482209938,left,1,4,0.43530551555159036,M13I01,2022-09-01_16h19.32.038,t1_Paradigm,2021.1.4,59.972372451560396,
S,right,Target,0,35,35,35,2149.292521790456,2151.2946432524186,right,1,4,1.271312624507118,M13I01,2022-09-01_16h19.32.038,t1_Paradigm,2021.1.4,59.972372451560396,
Y,left,Distractor,0,36,36,36,2152.79214709402,2154.794582941686,left,1,4,1.3233585376583505,M13I01,2022-09-01_16h19.32.038,t1_Paradigm,2021.1.4,59.972372451560396,
N,left,Pretarget,0,37,37,37,2156.291642152064,2158.29421883171,left,1,4,1.1518126902810764,M13I01,2022-09-01_16h19.32.038,t1_Paradigm,2021.1.4,59.972372451560396,
Z,left,Pretarget,0,38,38,38,2159.7922218408203,2161.79426887678,left,1,4,0.6598048242158256,M13I01,2022-09-01_16h19.32.038,t1_Paradigm,2021.1.4,59.972372451560396,
P,left,Pretarget,0,39,39,39,2163.2925817803916,2165.2946496684453,left,1,4,0.7113858956290642,M13I01,2022-09-01_16h19.32.038,t1_Paradigm,2021.1.4,59.972372451560396,
M,left,Distractor,0,40,40,40,2166.792205800739,2168.7945191021427,left,1,4,0.7475524430774385,M13I01,2022-09-01_16h19.32.038,t1_Paradigm,2021.1.4,59.972372451560396,
N,right,Target,0,41,41,41,2170.292982782572,2172.2944340896793,left,0,4,0.991517039379687,M13I01,2022-09-01_16h19.32.038,t1_Paradigm,2021.1.4,59.972372451560396,
Z,right,Target,0,42,42,42,2173.7920726680168,2175.7945434830763,right,1,4,0.6913928891153773,M13I01,2022-09-01_16h19.32.038,t1_Paradigm,2021.1.4,59.972372451560396,
P,right,Target,0,43,43,43,2177.2926042365143,2179.2942351925885,right,1,4,0.48758529317274224,M13I01,2022-09-01_16h19.32.038,t1_Paradigm,2021.1.4,59.972372451560396,
X,left,Pretarget,0,44,44,44,2180.7923167981353,2182.7938746114232,left,1,4,0.5877472980500897,M13I01,2022-09-01_16h19.32.038,t1_Paradigm,2021.1.4,59.972372451560396,
Z,left,Lure,0,45,45,45,2184.292523073673,2186.2946525556617,left,1,4,1.103155085191247,M13I01,2022-09-01_16h19.32.038,t1_Paradigm,2021.1.4,59.972372451560396,
R,left,Pretarget,0,46,46,46,2187.7923905825446,2189.7945415582653,left,1,4,0.6913928891153773,M13I01,2022-09-01_16h19.32.038,t1_Paradigm,2021.1.4,59.972372451560396,
K,left,Distractor,0,47,47,47,2191.2927194043295,2193.2949714326096,left,1,4,0.5668169088166906,M13I01,2022-09-01_16h19.32.038,t1_Paradigm,2021.1.4,59.972372451560396,
X,right,Target,0,48,48,48,2194.7922962668235,2196.7942682351713,right,1,4,0.5553289982344722,M13I01,2022-09-01_16h19.32.038,t1_Paradigm,2021.1.4,59.972372451560396,
B,left,Distractor,0,49,49,49,2198.292635675083,2200.2941716738424,left,1,4,0.5436498898052378,M13I01,2022-09-01_16h19.32.038,t1_Paradigm,2021.1.4,59.972372451560396,
R,right,Target,0,50,50,50,2201.7922853595664,2203.7945191021427,right,1,4,0.7713838424970163,M13I01,2022-09-01_16h19.32.038,t1_Paradigm,2021.1.4,59.972372451560396,
Y,left,Pretarget,0,51,51,51,2205.2927299907897,2207.292815003253,left,1,4,0.745427131492761,M13I01,2022-09-01_16h19.32.038,t1_Paradigm,2021.1.4,59.972372451560396,
W,left,Pretarget,0,52,52,52,2208.7921140514372,2210.794655442878,left,1,4,0.6029369399911957,M13I01,2022-09-01_16h19.32.038,t1_Paradigm,2021.1.4,59.972372451560396,
Z,left,Distractor,0,53,53,53,2212.292745710074,2214.2934922157438,left,1,4,0.5764412820572034,M13I01,2022-09-01_16h19.32.038,t1_Paradigm,2021.1.4,59.972372451560396,
Q,left,Distractor,0,54,54,54,2215.7924438356276,2217.794472906695,left,1,4,0.803316448465921,M13I01,2022-09-01_16h19.32.038,t1_Paradigm,2021.1.4,59.972372451560396,
Y,right,Target,0,55,55,55,2219.2927171587216,2221.294288445686,right,1,4,0.5035259320138721,M13I01,2022-09-01_16h19.32.038,t1_Paradigm,2021.1.4,59.972372451560396,
W,right,Target,0,56,56,56,2222.7921814198053,2224.794261498333,right,1,4,0.6194534179812763,M13I01,2022-09-01_16h19.32.038,t1_Paradigm,2021.1.4,59.972372451560396,
H,left,Pretarget,0,57,57,57,2226.2926767377066,2228.2941110423126,left,1,4,0.9118677398510044,M13I01,2022-09-01_16h19.32.038,t1_Paradigm,2021.1.4,59.972372451560396,
M,left,Distractor,0,58,58,58,2229.792225690442,2231.7943112226058,left,1,4,0.5796079161082162,M13I01,2022-09-01_16h19.32.038,t1_Paradigm,2021.1.4,59.972372451560396,
R,left,Pretarget,0,59,59,59,2233.2928053791984,2235.294095002231,left,1,4,0.6319342099886853,M13I01,2022-09-01_16h19.32.038,t1_Paradigm,2021.1.4,59.972372451560396,
J,left,Distractor,0,60,60,60,2236.809080293475,2238.7929083565687,left,1,4,0.5725762625952484,M13I01,2022-09-01_16h19.32.038,t1_Paradigm,2021.1.4,59.972372451560396,
H,right,Target,0,61,61,61,2240.2925881964184,2242.2943400947697,right,1,4,0.43163137312512845,M13I01,2022-09-01_16h19.32.038,t1_Paradigm,2021.1.4,59.972372451560396,
Z,left,Distractor,0,62,62,62,2243.79220163032,2245.7944773979107,left,1,4,0.8992939153540647,M13I01,2022-09-01_16h19.32.038,t1_Paradigm,2021.1.4,59.972372451560396,
R,right,Target,0,63,63,63,2247.292545208984,2249.294265027158,right,1,4,0.7914897712471429,M13I01,2022-09-01_16h19.32.038,t1_Paradigm,2021.1.4,59.972372451560396,
J,left,Pretarget,0,0,0,0,2281.100689402956,2283.092577930758,None,0,4,,M13I01,2022-09-01_16h19.32.038,t1_Paradigm,2021.1.4,59.972372451560396,
G,left,Pretarget,0,1,1,1,2284.592169229334,2286.594330470718,None,0,4,,M13I01,2022-09-01_16h19.32.038,t1_Paradigm,2021.1.4,59.972372451560396,
Z,left,Distractor,0,2,2,2,2288.0919164375664,2290.09427978404,None,0,4,,M13I01,2022-09-01_16h19.32.038,t1_Paradigm,2021.1.4,59.972372451560396,
F,left,Distractor,0,3,3,3,2291.5920896705065,2293.594095002234,None,0,4,,M13I01,2022-09-01_16h19.32.038,t1_Paradigm,2021.1.4,59.972372451560396,
J,right,Target,0,4,4,4,2295.092185911024,2297.0944690570614,right,1,4,0.47942762552702334,M13I01,2022-09-01_16h19.32.038,t1_Paradigm,2021.1.4,59.972372451560396,
G,right,Target,0,5,5,5,2298.592077800844,2300.5943317539204,right,1,4,0.6913389944238588,M13I01,2022-09-01_16h19.32.038,t1_Paradigm,2021.1.4,59.972372451560396,
H,left,Distractor,0,6,6,6,2302.0920149236917,2304.094091794206,left,1,4,0.7278459125082009,M13I01,2022-09-01_16h19.32.038,t1_Paradigm,2021.1.4,59.972372451560396,
P,left,Distractor,0,7,7,7,2305.5918712045095,2307.5944318440597,left,1,4,0.6034107641899027,M13I01,2022-09-01_16h19.32.038,t1_Paradigm,2021.1.4,59.972372451560396,
G,left,Lure,0,8,8,8,2309.092166983726,2311.0925660610956,left,1,4,0.4972176864539506,M13I01,2022-09-01_16h19.32.038,t1_Paradigm,2021.1.4,59.972372451560396,
S,left,Distractor,0,9,9,9,2312.5920794048434,2314.591270022036,left,1,4,0.5508204504731111,M13I01,2022-09-01_16h19.32.038,t1_Paradigm,2021.1.4,59.972372451560396,
R,left,Pretarget,0,10,10,10,2316.092083575277,2318.09420247082,left,1,4,0.6316098794050049,M13I01,2022-09-01_16h19.32.038,t1_Paradigm,2021.1.4,59.972372451560396,
T,left,Pretarget,0,11,11,11,2319.5919700114464,2321.5941893179406,left,1,4,0.44410478668578435,M13I01,2022-09-01_16h19.32.038,t1_Paradigm,2021.1.4,59.972372451560396,
X,left,Distractor,0,12,12,12,2323.0921256003057,2325.0941598041827,left,1,4,0.4797445776493987,M13I01,2022-09-01_16h19.32.038,t1_Paradigm,2021.1.4,59.972372451560396,
F,left,Pretarget,0,13,13,13,2326.592048287086,2328.594301598554,left,1,4,0.5315794032503618,M13I01,2022-09-01_16h19.32.038,t1_Paradigm,2021.1.4,59.972372451560396,
R,right,Target,0,14,14,14,2330.0922157455934,2332.094141197682,right,1,4,0.7117371735512279,M13I01,2022-09-01_16h19.32.038,t1_Paradigm,2021.1.4,59.972372451560396,
T,right,Target,0,15,15,15,2333.592098011344,2335.5934748924483,right,1,4,0.5723026187042706,M13I01,2022-09-01_16h19.32.038,t1_Paradigm,2021.1.4,59.972372451560396,
C,left,Distractor,0,16,16,16,2337.0920912745205,2339.0941652578185,left,1,4,0.44770033267559484,M13I01,2022-09-01_16h19.32.038,t1_Paradigm,2021.1.4,59.972372451560396,
F,right,Target,0,17,17,17,2340.5920293597737,2342.592619314193,right,1,4,0.7089567848015577,M13I01,2022-09-01_16h19.32.038,t1_Paradigm,2021.1.4,59.972372451560396,
M,left,Distractor,0,18,18,18,2344.092039946234,2346.0945816584863,left,1,4,0.47118334141850937,M13I01,2022-09-01_16h19.32.038,t1_Paradigm,2021.1.4,59.972372451560396,
N,left,Distractor,0,19,19,19,2347.5920752344246,2349.5939872128365,left,1,4,0.4916928387392545,M13I01,2022-09-01_16h19.32.038,t1_Paradigm,2021.1.4,59.972372451560396,
R,left,Lure,0,20,20,20,2351.0920983321557,2353.093507935031,left,1,4,0.8803342112660175,M13I01,2022-09-01_16h19.32.038,t1_Paradigm,2021.1.4,59.972372451560396,
F,right,Target,0,21,21,21,2354.5920373798144,2356.594434731276,right,1,4,0.5634022950252984,M13I01,2022-09-01_16h19.32.038,t1_Paradigm,2021.1.4,59.972372451560396,
P,left,Distractor,0,22,22,22,2358.091995675597,2360.0937466115283,left,1,4,0.5199079940648517,M13I01,2022-09-01_16h19.32.038,t1_Paradigm,2021.1.4,59.972372451560396,
L,left,Pretarget,0,23,23,23,2361.5921066729934,2363.5939339597535,left,1,4,0.7315656087739626,M13I01,2022-09-01_16h19.32.038,t1_Paradigm,2021.1.4,59.972372451560396,
T,left,Distractor,0,24,24,24,2365.091912267133,2367.0939891376474,left,1,4,0.8481751192593947,M13I01,2022-09-01_16h19.32.038,t1_Paradigm,2021.1.4,59.972372451560396,
F,left,Distractor,0,25,25,25,2368.592008828462,2370.5941347816406,right,0,4,0.8354979965806706,M13I01,2022-09-01_16h19.32.038,t1_Paradigm,2021.1.4,59.972372451560396,
V,left,Distractor,0,26,26,26,2372.092096407345,2374.0941511425335,left,1,4,0.5675181814440293,M13I01,2022-09-01_16h19.32.038,t1_Paradigm,2021.1.4,59.972372451560396,
L,right,Target,0,27,27,27,2375.5921256003057,2377.5943676837196,right,1,4,0.7801218404929386,M13I01,2022-09-01_16h19.32.038,t1_Paradigm,2021.1.4,59.972372451560396,
S,left,Pretarget,0,28,28,28,2379.0920075452595,2381.0928175696754,left,1,4,0.5453337781800656,M13I01,2022-09-01_16h19.32.038,t1_Paradigm,2021.1.4,59.972372451560396,
W,left,Distractor,0,29,29,29,2382.5919279864174,2384.5941020598693,left,1,4,0.7553036548924865,M13I01,2022-09-01_16h19.32.038,t1_Paradigm,2021.1.4,59.972372451560396,
Q,left,Distractor,0,30,30,30,2386.0918708837125,2388.0935396944114,left,1,4,0.5680975493887672,M13I01,2022-09-01_16h19.32.038,t1_Paradigm,2021.1.4,59.972372451560396,
L,right,Target,0,31,31,31,2389.592066893587,2391.594107513505,right,1,4,0.4117095846013399,M13I01,2022-09-01_16h19.32.038,t1_Paradigm,2021.1.4,59.972372451560396,
S,right,Target,0,32,32,32,2393.0920787632494,2395.0940978894505,right,1,4,0.6236719609587453,M13I01,2022-09-01_16h19.32.038,t1_Paradigm,2021.1.4,59.972372451560396,
Z,left,Pretarget,0,33,33,33,2396.5920367382205,2398.594328866704,left,1,4,0.4512939538399223,M13I01,2022-09-01_16h19.32.038,t1_Paradigm,2021.1.4,59.972372451560396,
F,left,Distractor,0,34,34,34,2400.0918708837125,2402.0941437641013,left,1,4,0.5035057214990957,M13I01,2022-09-01_16h19.32.038,t1_Paradigm,2021.1.4,59.972372451560396,
V,left,Distractor,0,35,35,35,2403.5921361867513,2405.59414344329,left,1,4,0.6034556764352601,M13I01,2022-09-01_16h19.32.038,t1_Paradigm,2021.1.4,59.972372451560396,
M,left,Distractor,0,36,36,36,2407.0918577308476,2409.094009668959,left,1,4,0.6077297181036556,M13I01,2022-09-01_16h19.32.038,t1_Paradigm,2021.1.4,59.972372451560396,
Z,right,Target,0,37,37,37,2410.5920101116644,2412.5940962854365,right,1,4,0.6278090203122701,M13I01,2022-09-01_16h19.32.038,t1_Paradigm,2021.1.4,59.972372451560396,
H,left,Pretarget,0,38,38,38,2414.091857410036,2416.093985929634,left,1,4,0.5836198627657723,M13I01,2022-09-01_16h19.32.038,t1_Paradigm,2021.1.4,59.972372451560396,
L,left,Distractor,0,39,39,39,2417.592057911126,2419.5936638446874,left,1,4,0.52407585036417,M13I01,2022-09-01_16h19.32.038,t1_Paradigm,2021.1.4,59.972372451560396,
G,left,Distractor,0,40,40,40,2421.0918420115486,2423.094210170064,left,1,4,0.5434208373626461,M13I01,2022-09-01_16h19.32.038,t1_Paradigm,2021.1.4,59.972372451560396,
K,left,Distractor,0,41,41,41,2424.591959425001,2426.594250591079,left,1,4,0.5154963284294354,M13I01,2022-09-01_16h19.32.038,t1_Paradigm,2021.1.4,59.972372451560396,
H,right,Target,0,42,42,42,2428.0919927883806,2430.0935672833584,right,1,4,0.48810884161503054,M13I01,2022-09-01_16h19.32.038,t1_Paradigm,2021.1.4,59.972372451560396,
B,left,Distractor,0,43,43,43,2431.5918763373484,2433.593223383883,left,1,4,0.5724559619411593,M13I01,2022-09-01_16h19.32.038,t1_Paradigm,2021.1.4,59.972372451560396,
Z,left,Distractor,0,44,44,44,2435.091813460196,2437.094139593668,left,1,4,0.5594824184518075,M13I01,2022-09-01_16h19.32.038,t1_Paradigm,2021.1.4,59.972372451560396,
T,left,Pretarget,0,45,45,45,2438.5919206079852,2440.5940253882436,left,1,4,0.5957346199575113,M13I01,2022-09-01_16h19.32.038,t1_Paradigm,2021.1.4,59.972372451560396,
H,right,Target,0,46,46,46,2442.0919745026767,2444.094180977103,right,1,4,0.8075077233079355,M13I01,2022-09-01_16h19.32.038,t1_Paradigm,2021.1.4,59.972372451560396,
F,left,Distractor,0,47,47,47,2445.5920813296543,2447.5944395433035,left,1,4,0.6030976616748376,M13I01,2022-09-01_16h19.32.038,t1_Paradigm,2021.1.4,59.972372451560396,
R,left,Distractor,0,48,48,48,2449.091922853593,2451.094019293014,left,1,4,0.44785303430398926,M13I01,2022-09-01_16h19.32.038,t1_Paradigm,2021.1.4,59.972372451560396,
T,right,Target,0,49,49,49,2452.591875374943,2454.593493178152,right,1,4,0.5643987052462762,M13I01,2022-09-01_16h19.32.038,t1_Paradigm,2021.1.4,59.972372451560396,
H,right,Target,0,50,50,50,2456.0918513148063,2458.094065809273,right,1,4,0.5834713315562112,M13I01,2022-09-01_16h19.32.038,t1_Paradigm,2021.1.4,59.972372451560396,
Y,left,Pretarget,0,51,51,51,2459.591996317191,2461.5945572775527,left,1,4,0.5551326675631572,M13I01,2022-09-01_16h19.32.038,t1_Paradigm,2021.1.4,59.972372451560396,
H,left,Distractor,0,52,52,52,2463.0919212495937,2465.0934049576754,left,1,4,0.4483502770017367,M13I01,2022-09-01_16h19.32.038,t1_Paradigm,2021.1.4,59.972372451560396,
S,left,Distractor,0,53,53,53,2466.591944668122,2468.5940873029904,left,1,4,0.5796951741795056,M13I01,2022-09-01_16h19.32.038,t1_Paradigm,2021.1.4,59.972372451560396,
Q,left,Distractor,0,54,54,54,2470.0919299112284,2472.094065488476,left,1,4,0.5355294351611519,M13I01,2022-09-01_16h19.32.038,t1_Paradigm,2021.1.4,59.972372451560396,
Y,right,Target,0,55,55,55,2473.5919908635697,2475.5939795136073,right,1,4,0.3637439488811651,M13I01,2022-09-01_16h19.32.038,t1_Paradigm,2021.1.4,59.972372451560396,
R,left,Distractor,0,56,56,56,2477.0918923774298,2479.0942746512155,left,1,4,0.3512095829792088,M13I01,2022-09-01_16h19.32.038,t1_Paradigm,2021.1.4,59.972372451560396,
H,left,Pretarget,0,57,57,57,2480.5918837157806,2482.593511463856,left,1,4,0.6599761323450366,M13I01,2022-09-01_16h19.32.038,t1_Paradigm,2021.1.4,59.972372451560396,
J,left,Distractor,0,58,58,58,2484.091987013948,2486.093798260612,left,1,4,0.5198403048998443,M13I01,2022-09-01_16h19.32.038,t1_Paradigm,2021.1.4,59.972372451560396,
V,left,Distractor,0,59,59,59,2487.5920017708268,2489.592008828462,left,1,4,0.509633355672122,M13I01,2022-09-01_16h19.32.038,t1_Paradigm,2021.1.4,59.972372451560396,
Y,left,Lure,0,60,60,60,2491.0918493899953,2493.0939872128365,left,1,4,0.9595058369886829,M13I01,2022-09-01_16h19.32.038,t1_Paradigm,2021.1.4,59.972372451560396,
H,right,Target,0,61,61,61,2494.5917614903155,2496.5940231426357,right,1,4,0.9477529441501247,M13I01,2022-09-01_16h19.32.038,t1_Paradigm,2021.1.4,59.972372451560396,
L,left,Distractor,0,62,62,62,2498.0919231744047,2500.0939570574847,left,1,4,0.5516593470383668,M13I01,2022-09-01_16h19.32.038,t1_Paradigm,2021.1.4,59.972372451560396,
P,left,Distractor,0,63,63,63,2501.5919745026767,2503.5910919770686,left,1,4,0.5745751782815205,M13I01,2022-09-01_16h19.32.038,t1_Paradigm,2021.1.4,59.972372451560396,
