Currentstep,EDround.thisRepN,EDround.thisTrialN,EDround.thisN,EDround.thisIndex,question.started,EDclick.clicked_name,EDleftbutton.wasclicked,EDrightbutton.wasclicked,EDleftbutton.value,EDrightbutton.value,EDleftbutton.nback,EDrightbutton.nback,Participant,date,expName,psychopyVersion,frameRate,
,,,,,,,,,,,,,M16T03,2023-01-06_10h35.42.990,t1_Paradigm,2021.1.4,60.03277820239546,
0,0,0,0,0,2500.9318193630315,EDleftbutton,1,0,1.00,2.00,1,2,M16T03,2023-01-06_10h35.42.990,t1_Paradigm,2021.1.4,60.03277820239546,
1,0,1,1,1,2506.172280162573,EDrightbutton,0,1,0.50,2.00,1,2,M16T03,2023-01-06_10h35.42.990,t1_Paradigm,2021.1.4,60.03277820239546,
2,0,2,2,2,2509.132796525024,EDrightbutton,0,1,0.75,2.00,1,2,M16T03,2023-01-06_10h35.42.990,t1_Paradigm,2021.1.4,60.03277820239546,
3,0,3,3,3,2511.7233123420738,EDrightbutton,0,1,0.88,2.00,1,2,M16T03,2023-01-06_10h35.42.990,t1_Paradigm,2021.1.4,60.03277820239546,
4,0,4,4,4,2514.4047029535286,EDrightbutton,0,1,0.94,2.00,1,2,M16T03,2023-01-06_10h35.42.990,t1_Paradigm,2021.1.4,60.03277820239546,
5,0,5,5,5,2516.62561216997,EDrightbutton,0,1,0.97,2.00,1,2,M16T03,2023-01-06_10h35.42.990,t1_Paradigm,2021.1.4,60.03277820239546,
0,0,0,0,0,2518.767525239149,EDrightbutton,0,1,1.00,2.00,3,4,M16T03,2023-01-06_10h35.42.990,t1_Paradigm,2021.1.4,60.03277820239546,
1,0,1,1,1,2523.7697137484793,EDleftbutton,1,0,1.50,2.00,3,4,M16T03,2023-01-06_10h35.42.990,t1_Paradigm,2021.1.4,60.03277820239546,
2,0,2,2,2,2526.4721563330386,EDrightbutton,0,1,1.25,2.00,3,4,M16T03,2023-01-06_10h35.42.990,t1_Paradigm,2021.1.4,60.03277820239546,
3,0,3,3,3,2528.5342741378117,EDrightbutton,0,1,1.38,2.00,3,4,M16T03,2023-01-06_10h35.42.990,t1_Paradigm,2021.1.4,60.03277820239546,
4,0,4,4,4,2530.490700598806,EDrightbutton,0,1,1.44,2.00,3,4,M16T03,2023-01-06_10h35.42.990,t1_Paradigm,2021.1.4,60.03277820239546,
5,0,5,5,5,2532.5439068519045,EDrightbutton,0,1,1.47,2.00,3,4,M16T03,2023-01-06_10h35.42.990,t1_Paradigm,2021.1.4,60.03277820239546,
0,0,0,0,0,2534.478859164752,EDleftbutton,1,0,2.00,1.00,2,3,M16T03,2023-01-06_10h35.42.990,t1_Paradigm,2021.1.4,60.03277820239546,
1,0,1,1,1,2538.2509753976483,EDrightbutton,0,1,2.00,1.50,2,3,M16T03,2023-01-06_10h35.42.990,t1_Paradigm,2021.1.4,60.03277820239546,
2,0,2,2,2,2540.295699973358,EDleftbutton,1,0,2.00,1.25,2,3,M16T03,2023-01-06_10h35.42.990,t1_Paradigm,2021.1.4,60.03277820239546,
3,0,3,3,3,2542.426532870857,EDleftbutton,1,0,2.00,1.38,2,3,M16T03,2023-01-06_10h35.42.990,t1_Paradigm,2021.1.4,60.03277820239546,
4,0,4,4,4,2544.194857547991,EDleftbutton,1,0,2.00,1.44,2,3,M16T03,2023-01-06_10h35.42.990,t1_Paradigm,2021.1.4,60.03277820239546,
5,0,5,5,5,2546.4442228416447,EDleftbutton,1,0,2.00,1.47,2,3,M16T03,2023-01-06_10h35.42.990,t1_Paradigm,2021.1.4,60.03277820239546,
0,0,0,0,0,2548.4508823652286,EDleftbutton,1,0,1.00,2.00,1,3,M16T03,2023-01-06_10h35.42.990,t1_Paradigm,2021.1.4,60.03277820239546,
1,0,1,1,1,2550.767886461923,EDrightbutton,0,1,0.50,2.00,1,3,M16T03,2023-01-06_10h35.42.990,t1_Paradigm,2021.1.4,60.03277820239546,
2,0,2,2,2,2552.850956149632,EDrightbutton,0,1,0.75,2.00,1,3,M16T03,2023-01-06_10h35.42.990,t1_Paradigm,2021.1.4,60.03277820239546,
3,0,3,3,3,2554.4242153991945,EDrightbutton,0,1,0.88,2.00,1,3,M16T03,2023-01-06_10h35.42.990,t1_Paradigm,2021.1.4,60.03277820239546,
4,0,4,4,4,2556.10093257064,EDrightbutton,0,1,0.94,2.00,1,3,M16T03,2023-01-06_10h35.42.990,t1_Paradigm,2021.1.4,60.03277820239546,
5,0,5,5,5,2558.044428475667,EDrightbutton,0,1,0.97,2.00,1,3,M16T03,2023-01-06_10h35.42.990,t1_Paradigm,2021.1.4,60.03277820239546,
0,0,0,0,0,2560.3119428073987,EDrightbutton,0,1,1.00,2.00,1,4,M16T03,2023-01-06_10h35.42.990,t1_Paradigm,2021.1.4,60.03277820239546,
1,0,1,1,1,2563.1792380316183,EDleftbutton,1,0,1.50,2.00,1,4,M16T03,2023-01-06_10h35.42.990,t1_Paradigm,2021.1.4,60.03277820239546,
2,0,2,2,2,2565.0921836653724,EDleftbutton,1,0,1.25,2.00,1,4,M16T03,2023-01-06_10h35.42.990,t1_Paradigm,2021.1.4,60.03277820239546,
3,0,3,3,3,2566.955695674522,EDleftbutton,1,0,1.12,2.00,1,4,M16T03,2023-01-06_10h35.42.990,t1_Paradigm,2021.1.4,60.03277820239546,
4,0,4,4,4,2569.4011773422826,EDleftbutton,1,0,1.06,2.00,1,4,M16T03,2023-01-06_10h35.42.990,t1_Paradigm,2021.1.4,60.03277820239546,
5,0,5,5,5,2571.261021946091,EDleftbutton,1,0,1.03,2.00,1,4,M16T03,2023-01-06_10h35.42.990,t1_Paradigm,2021.1.4,60.03277820239546,
0,0,0,0,0,2573.192806662293,EDrightbutton,0,1,1.00,2.00,2,4,M16T03,2023-01-06_10h35.42.990,t1_Paradigm,2021.1.4,60.03277820239546,
1,0,1,1,1,2575.6404043384828,EDleftbutton,1,0,1.50,2.00,2,4,M16T03,2023-01-06_10h35.42.990,t1_Paradigm,2021.1.4,60.03277820239546,
2,0,2,2,2,2577.5776975415647,EDleftbutton,1,0,1.25,2.00,2,4,M16T03,2023-01-06_10h35.42.990,t1_Paradigm,2021.1.4,60.03277820239546,
3,0,3,3,3,2579.4117365318816,EDrightbutton,0,1,1.12,2.00,2,4,M16T03,2023-01-06_10h35.42.990,t1_Paradigm,2021.1.4,60.03277820239546,
4,0,4,4,4,2581.011575489538,EDrightbutton,0,1,1.18,2.00,2,4,M16T03,2023-01-06_10h35.42.990,t1_Paradigm,2021.1.4,60.03277820239546,
5,0,5,5,5,2582.6245246520266,EDrightbutton,0,1,1.21,2.00,2,4,M16T03,2023-01-06_10h35.42.990,t1_Paradigm,2021.1.4,60.03277820239546,
