Letter,CorrAnswer,Stimulus,nback_run.thisRepN,nback_run.thisTrialN,nback_run.thisN,nback_run.thisIndex,fixcross.started,nback_trial.started,trial_resp.keys,trial_resp.corr,currentlevel,trial_resp.rt,Participant,date,expName,psychopyVersion,frameRate,
H,left,Distractor,0,0,0,0,208.22456058184616,210.1697836832609,None,0,1,,M16T03,2023-01-06_10h35.42.990,t1_Paradigm,2021.1.4,60.03277820239546,
Q,left,Pretarget,0,1,1,1,211.67071657488123,213.67185157141648,left,1,1,0.6111058357637376,M16T03,2023-01-06_10h35.42.990,t1_Paradigm,2021.1.4,60.03277820239546,
Q,right,Target,0,2,2,2,215.16827880241908,217.16816491773352,right,1,1,0.6667312546633184,M16T03,2023-01-06_10h35.42.990,t1_Paradigm,2021.1.4,60.03277820239546,
T,left,Distractor,0,3,3,3,218.66818095790222,220.6702315225266,left,1,1,0.4924528179690242,M16T03,2023-01-06_10h35.42.990,t1_Paradigm,2021.1.4,60.03277820239546,
Q,left,Lure,0,4,4,4,222.1683788925875,224.1700493071694,left,1,1,0.496780754532665,M16T03,2023-01-06_10h35.42.990,t1_Paradigm,2021.1.4,60.03277820239546,
L,left,Distractor,0,5,5,5,225.66812706319615,227.6710117124021,left,1,1,0.4357209538575262,M16T03,2023-01-06_10h35.42.990,t1_Paradigm,2021.1.4,60.03277820239546,
V,left,Pretarget,0,6,6,6,229.16820373479277,231.17157247383147,left,1,1,0.5031794661190361,M16T03,2023-01-06_10h35.42.990,t1_Paradigm,2021.1.4,60.03277820239546,
V,right,Target,0,7,7,7,232.6679326572921,234.66833173460327,right,1,1,0.5904009703081101,M16T03,2023-01-06_10h35.42.990,t1_Paradigm,2021.1.4,60.03277820239546,
K,left,Distractor,0,8,8,8,236.16809690766968,238.1700977482833,left,1,1,0.497173415729776,M16T03,2023-01-06_10h35.42.990,t1_Paradigm,2021.1.4,60.03277820239546,
G,left,Pretarget,0,9,9,9,239.6680988324806,241.67016639979556,left,1,1,0.500535418279469,M16T03,2023-01-06_10h35.42.990,t1_Paradigm,2021.1.4,60.03277820239546,
G,right,Target,0,10,10,10,243.1682688575238,245.16820501792245,right,1,1,0.4585864192340523,M16T03,2023-01-06_10h35.42.990,t1_Paradigm,2021.1.4,60.03277820239546,
G,right,Target,0,11,11,11,246.6681953938678,248.66808920842595,right,1,1,0.49455406959168613,M16T03,2023-01-06_10h35.42.990,t1_Paradigm,2021.1.4,60.03277820239546,
P,left,Pretarget,0,12,12,12,250.16816555941477,252.17023056023754,left,1,1,0.38435706519521773,M16T03,2023-01-06_10h35.42.990,t1_Paradigm,2021.1.4,60.03277820239546,
P,right,Target,0,13,13,13,253.66814951924607,255.6680763764307,right,1,1,0.5346080926246941,M16T03,2023-01-06_10h35.42.990,t1_Paradigm,2021.1.4,60.03277820239546,
G,left,Lure,0,14,14,14,257.16823453176767,259.1704522341024,left,1,1,0.5683253186289221,M16T03,2023-01-06_10h35.42.990,t1_Paradigm,2021.1.4,60.03277820239546,
Y,left,Distractor,0,15,15,15,260.6680548826698,262.6715112007223,left,1,1,0.5232671091798693,M16T03,2023-01-06_10h35.42.990,t1_Paradigm,2021.1.4,60.03277820239546,
B,left,Distractor,0,16,16,16,264.16813347907737,266.16742771537974,left,1,1,0.43511784658767283,M16T03,2023-01-06_10h35.42.990,t1_Paradigm,2021.1.4,60.03277820239546,
T,left,Pretarget,0,17,17,17,267.66814951924607,269.67022029450163,left,1,1,0.40457719936966896,M16T03,2023-01-06_10h35.42.990,t1_Paradigm,2021.1.4,60.03277820239546,
T,right,Target,0,18,18,18,271.1680587322917,273.1679968177341,right,1,1,0.49076379695907235,M16T03,2023-01-06_10h35.42.990,t1_Paradigm,2021.1.4,60.03277820239546,
S,left,Distractor,0,19,19,19,274.66829772968777,276.67075988301076,left,1,1,0.41208075219765306,M16T03,2023-01-06_10h35.42.990,t1_Paradigm,2021.1.4,60.03277820239546,
T,left,Lure,0,20,20,20,278.1681511232164,280.16989179351367,left,1,1,0.43300697091035545,M16T03,2023-01-06_10h35.42.990,t1_Paradigm,2021.1.4,60.03277820239546,
J,left,Distractor,0,21,21,21,281.66809562454,283.67117179255,left,1,1,0.4515499535482377,M16T03,2023-01-06_10h35.42.990,t1_Paradigm,2021.1.4,60.03277820239546,
P,left,Distractor,0,22,22,22,285.1681543313898,287.169882169459,left,1,1,0.45671133301220834,M16T03,2023-01-06_10h35.42.990,t1_Paradigm,2021.1.4,60.03277820239546,
F,left,Distractor,0,23,23,23,288.6682114340365,290.67126771225594,left,1,1,0.45956807234324515,M16T03,2023-01-06_10h35.42.990,t1_Paradigm,2021.1.4,60.03277820239546,
L,left,Distractor,0,24,24,24,292.1681280254852,294.1697506408673,left,1,1,0.4970389998052269,M16T03,2023-01-06_10h35.42.990,t1_Paradigm,2021.1.4,60.03277820239546,
W,left,Pretarget,0,25,25,25,295.66831184504554,297.67027483088896,left,1,1,0.4364029783755541,M16T03,2023-01-06_10h35.42.990,t1_Paradigm,2021.1.4,60.03277820239546,
W,right,Target,0,26,26,26,299.168048145948,301.1680940205697,right,1,1,0.5226357711944729,M16T03,2023-01-06_10h35.42.990,t1_Paradigm,2021.1.4,60.03277820239546,
V,left,Distractor,0,27,27,27,302.6680410881527,304.67017955263145,left,1,1,0.44464148790575564,M16T03,2023-01-06_10h35.42.990,t1_Paradigm,2021.1.4,60.03277820239546,
W,left,Lure,0,28,28,28,306.1682287573349,308.1704300988931,left,1,1,0.41617418243549764,M16T03,2023-01-06_10h35.42.990,t1_Paradigm,2021.1.4,60.03277820239546,
R,left,Pretarget,0,29,29,29,309.66809562454,311.67164112557657,left,1,1,0.5310308320913464,M16T03,2023-01-06_10h35.42.990,t1_Paradigm,2021.1.4,60.03277820239546,
R,right,Target,0,30,30,30,313.1681103813462,315.1681357247289,right,1,1,0.47460437123663723,M16T03,2023-01-06_10h35.42.990,t1_Paradigm,2021.1.4,60.03277820239546,
G,left,Distractor,0,31,31,31,316.6681998851709,318.6706780786626,left,1,1,0.4121134739834815,M16T03,2023-01-06_10h35.42.990,t1_Paradigm,2021.1.4,60.03277820239546,
R,left,Lure,0,32,32,32,320.1681629929226,322.1699322145432,left,1,1,0.48104382469318807,M16T03,2023-01-06_10h35.42.990,t1_Paradigm,2021.1.4,60.03277820239546,
S,left,Distractor,0,33,33,33,323.66817999538034,325.6703941691667,left,1,1,0.500223598908633,M16T03,2023-01-06_10h35.42.990,t1_Paradigm,2021.1.4,60.03277820239546,
R,left,Lure,0,34,34,34,327.16811519348994,329.17033642483875,left,1,1,0.5363340058829635,M16T03,2023-01-06_10h35.42.990,t1_Paradigm,2021.1.4,60.03277820239546,
P,left,Pretarget,0,35,35,35,330.6680465419777,332.6699126455933,left,1,1,0.5408563481178135,M16T03,2023-01-06_10h35.42.990,t1_Paradigm,2021.1.4,60.03277820239546,
P,right,Target,0,36,36,36,334.1680722059682,336.16823581489734,right,1,1,0.5465348598081619,M16T03,2023-01-06_10h35.42.990,t1_Paradigm,2021.1.4,60.03277820239546,
Y,left,Pretarget,0,37,37,37,337.66817101300694,339.6701109011192,left,1,1,0.5004994883202016,M16T03,2023-01-06_10h35.42.990,t1_Paradigm,2021.1.4,60.03277820239546,
Y,right,Target,0,38,38,38,341.16817999538034,343.16806546924636,right,1,1,0.5545635651797056,M16T03,2023-01-06_10h35.42.990,t1_Paradigm,2021.1.4,60.03277820239546,
J,left,Distractor,0,39,39,39,344.6680029127747,346.67018981836736,left,1,1,0.5087399226613343,M16T03,2023-01-06_10h35.42.990,t1_Paradigm,2021.1.4,60.03277820239546,
Y,left,Lure,0,40,40,40,348.16807124367915,350.17004834488034,left,1,1,0.5447178389877081,M16T03,2023-01-06_10h35.42.990,t1_Paradigm,2021.1.4,60.03277820239546,
T,left,Distractor,0,41,41,41,351.66821688762866,353.67010897630826,left,1,1,0.5325026707723737,M16T03,2023-01-06_10h35.42.990,t1_Paradigm,2021.1.4,60.03277820239546,
V,left,Distractor,0,42,42,42,355.1681180805899,357.184877084801,left,1,1,0.537737192818895,M16T03,2023-01-06_10h35.42.990,t1_Paradigm,2021.1.4,60.03277820239546,
N,left,Pretarget,0,43,43,43,358.6680799052119,360.67097963229753,left,1,1,0.47557896678335965,M16T03,2023-01-06_10h35.42.990,t1_Paradigm,2021.1.4,60.03277820239546,
N,right,Target,0,44,44,44,362.16813604556955,364.1680548826698,right,1,1,0.5626981351524591,M16T03,2023-01-06_10h35.42.990,t1_Paradigm,2021.1.4,60.03277820239546,
N,right,Target,0,45,45,45,365.66813283762895,367.6680484667886,right,1,1,0.4705532866064459,M16T03,2023-01-06_10h35.42.990,t1_Paradigm,2021.1.4,60.03277820239546,
X,left,Distractor,0,46,46,46,369.16808183002286,371.1698805654887,left,1,1,0.472851189551875,M16T03,2023-01-06_10h35.42.990,t1_Paradigm,2021.1.4,60.03277820239546,
Z,left,Distractor,0,47,47,47,372.66802184004337,374.6695972974412,left,1,1,0.44513552263379097,M16T03,2023-01-06_10h35.42.990,t1_Paradigm,2021.1.4,60.03277820239546,
H,left,Pretarget,0,48,48,48,376.1679833440576,378.16999412933365,left,1,1,0.5287499318365008,M16T03,2023-01-06_10h35.42.990,t1_Paradigm,2021.1.4,60.03277820239546,
H,right,Target,0,49,49,49,379.66818448668346,381.6681305919774,right,1,1,0.5504274682607502,M16T03,2023-01-06_10h35.42.990,t1_Paradigm,2021.1.4,60.03277820239546,
K,left,Distractor,0,50,50,50,383.1681848075241,385.1700993522536,left,1,1,0.5205216878093779,M16T03,2023-01-06_10h35.42.990,t1_Paradigm,2021.1.4,60.03277820239546,
V,left,Pretarget,0,51,51,51,386.66801702813245,388.67012950754724,left,1,1,0.5087431308347732,M16T03,2023-01-06_10h35.42.990,t1_Paradigm,2021.1.4,60.03277820239546,
V,right,Target,0,52,52,52,390.16800098796375,392.1680930580478,right,1,1,0.5146487699821591,M16T03,2023-01-06_10h35.42.990,t1_Paradigm,2021.1.4,60.03277820239546,
R,left,Distractor,0,53,53,53,393.66793714859523,395.67010127706453,left,1,1,0.4045101518277079,M16T03,2023-01-06_10h35.42.990,t1_Paradigm,2021.1.4,60.03277820239546,
V,left,Lure,0,54,54,54,397.16823613573797,399.1700730465818,left,1,1,0.45632893731817603,M16T03,2023-01-06_10h35.42.990,t1_Paradigm,2021.1.4,60.03277820239546,
Y,left,Distractor,0,55,55,55,400.6681864114944,402.67008844506927,left,1,1,0.47643839474767447,M16T03,2023-01-06_10h35.42.990,t1_Paradigm,2021.1.4,60.03277820239546,
Q,left,Distractor,0,56,56,56,404.1677668027114,406.1696422097739,left,1,1,0.4329004648607224,M16T03,2023-01-06_10h35.42.990,t1_Paradigm,2021.1.4,60.03277820239546,
Z,left,Pretarget,0,57,57,57,407.6680385218933,409.66991007933393,left,1,1,0.40476326434873044,M16T03,2023-01-06_10h35.42.990,t1_Paradigm,2021.1.4,60.03277820239546,
Z,right,Target,0,58,58,58,411.1679791735951,413.16827431111597,right,1,1,0.4423230537213385,M16T03,2023-01-06_10h35.42.990,t1_Paradigm,2021.1.4,60.03277820239546,
B,left,Distractor,0,59,59,59,414.6679750031326,416.6696697988082,left,1,1,0.3970771753229201,M16T03,2023-01-06_10h35.42.990,t1_Paradigm,2021.1.4,60.03277820239546,
S,left,Pretarget,0,60,60,60,418.1680029127747,420.170134319691,left,1,1,0.5606087534688413,M16T03,2023-01-06_10h35.42.990,t1_Paradigm,2021.1.4,60.03277820239546,
S,right,Target,0,61,61,61,421.6680382010527,423.66800259193406,left,0,1,0.7746816843282431,M16T03,2023-01-06_10h35.42.990,t1_Paradigm,2021.1.4,60.03277820239546,
T,left,Distractor,0,62,62,62,425.16792880767025,427.16976956813596,left,1,1,0.4567633029073477,M16T03,2023-01-06_10h35.42.990,t1_Paradigm,2021.1.4,60.03277820239546,
D,left,Distractor,0,63,63,63,428.6678896697704,430.67127958196215,left,1,1,0.4593431905377656,M16T03,2023-01-06_10h35.42.990,t1_Paradigm,2021.1.4,60.03277820239546,
R,left,Distractor,0,0,0,0,444.0313513132278,446.0372909575235,None,0,1,,M16T03,2023-01-06_10h35.42.990,t1_Paradigm,2021.1.4,60.03277820239546,
V,left,Distractor,0,1,1,1,447.53462413256057,449.5369630982168,left,1,1,0.7297546828631312,M16T03,2023-01-06_10h35.42.990,t1_Paradigm,2021.1.4,60.03277820239546,
N,left,Pretarget,0,2,2,2,451.03456767159514,453.03673019609414,left,1,1,0.5738431087229401,M16T03,2023-01-06_10h35.42.990,t1_Paradigm,2021.1.4,60.03277820239546,
N,right,Target,0,3,3,3,454.53461771667935,456.5346539672464,right,1,1,0.5800146928522736,M16T03,2023-01-06_10h35.42.990,t1_Paradigm,2021.1.4,60.03277820239546,
S,left,Distractor,0,4,4,4,458.0347389795352,460.0365588879213,left,1,1,0.4379864556249231,M16T03,2023-01-06_10h35.42.990,t1_Paradigm,2021.1.4,60.03277820239546,
N,left,Lure,0,5,5,5,461.53467995207757,463.5364636098966,left,1,1,0.4741109781898558,M16T03,2023-01-06_10h35.42.990,t1_Paradigm,2021.1.4,60.03277820239546,
Z,left,Distractor,0,6,6,6,465.03469278407283,467.03652873262763,left,1,1,0.542310542659834,M16T03,2023-01-06_10h35.42.990,t1_Paradigm,2021.1.4,60.03277820239546,
L,left,Pretarget,0,7,7,7,468.53452821285464,470.53650884283707,left,1,1,0.5461742787156254,M16T03,2023-01-06_10h35.42.990,t1_Paradigm,2021.1.4,60.03277820239546,
L,right,Target,0,8,8,8,472.03456061379984,474.03479736554436,right,1,1,0.5676849982701242,M16T03,2023-01-06_10h35.42.990,t1_Paradigm,2021.1.4,60.03277820239546,
H,left,Distractor,0,9,9,9,475.5345525937155,477.5363538956735,left,1,1,0.6022087200544775,M16T03,2023-01-06_10h35.42.990,t1_Paradigm,2021.1.4,60.03277820239546,
L,left,Lure,0,10,10,10,479.0345471401233,481.0366448627319,left,1,1,0.7499382456298918,M16T03,2023-01-06_10h35.42.990,t1_Paradigm,2021.1.4,60.03277820239546,
X,left,Pretarget,0,11,11,11,482.5346629496198,484.5367738250643,left,1,1,0.5139446102548391,M16T03,2023-01-06_10h35.42.990,t1_Paradigm,2021.1.4,60.03277820239546,
X,right,Target,0,12,12,12,486.03460616781376,488.03453430812806,right,1,1,0.6163095608353615,M16T03,2023-01-06_10h35.42.990,t1_Paradigm,2021.1.4,60.03277820239546,
X,right,Target,0,13,13,13,489.53453142079525,491.53467514016666,right,1,1,0.5399128701537848,M16T03,2023-01-06_10h35.42.990,t1_Paradigm,2021.1.4,60.03277820239546,
R,left,Distractor,0,14,14,14,493.03365563205443,495.0368793688249,left,1,1,0.4138836581259966,M16T03,2023-01-06_10h35.42.990,t1_Paradigm,2021.1.4,60.03277820239546,
T,left,Distractor,0,15,15,15,496.5344643732533,498.5368854640983,left,1,1,0.4176007879432291,M16T03,2023-01-06_10h35.42.990,t1_Paradigm,2021.1.4,60.03277820239546,
V,left,Pretarget,0,16,16,16,500.0347226187587,502.0364915195387,left,1,1,0.454074663342908,M16T03,2023-01-06_10h35.42.990,t1_Paradigm,2021.1.4,60.03277820239546,
V,right,Target,0,17,17,17,503.5345654259436,505.53455323539674,right,1,1,0.5559571280609816,M16T03,2023-01-06_10h35.42.990,t1_Paradigm,2021.1.4,60.03277820239546,
N,left,Distractor,0,18,18,18,507.0345461778343,509.0364016951062,left,1,1,0.39829750498756766,M16T03,2023-01-06_10h35.42.990,t1_Paradigm,2021.1.4,60.03277820239546,
B,left,Distractor,0,19,19,19,510.53459718520753,512.5366259354632,left,1,1,0.48185384925454855,M16T03,2023-01-06_10h35.42.990,t1_Paradigm,2021.1.4,60.03277820239546,
V,left,Lure,0,20,20,20,514.0336540280841,516.0366015546024,left,1,1,0.5018455726094544,M16T03,2023-01-06_10h35.42.990,t1_Paradigm,2021.1.4,60.03277820239546,
P,left,Distractor,0,21,21,21,517.5345602929592,519.5365136549808,left,1,1,0.5219970550388098,M16T03,2023-01-06_10h35.42.990,t1_Paradigm,2021.1.4,60.03277820239546,
K,left,Pretarget,0,22,22,22,521.0346202829387,523.0365855144337,left,1,1,0.573999339248985,M16T03,2023-01-06_10h35.42.990,t1_Paradigm,2021.1.4,60.03277820239546,
K,right,Target,0,23,23,23,524.5346234911121,526.5346023181919,right,1,1,0.45188166247680783,M16T03,2023-01-06_10h35.42.990,t1_Paradigm,2021.1.4,60.03277820239546,
J,left,Pretarget,0,24,24,24,528.034612583695,530.0370269375853,left,1,1,0.4535334708634764,M16T03,2023-01-06_10h35.42.990,t1_Paradigm,2021.1.4,60.03277820239546,
J,right,Target,0,25,25,25,531.5345487440936,533.5345509897452,right,1,1,0.5559994739014655,M16T03,2023-01-06_10h35.42.990,t1_Paradigm,2021.1.4,60.03277820239546,
H,left,Distractor,0,26,26,26,535.0336504993029,537.0362393693067,left,1,1,0.5425049483310431,M16T03,2023-01-06_10h35.42.990,t1_Paradigm,2021.1.4,60.03277820239546,
J,left,Lure,0,27,27,27,538.5345712003764,540.5365903265774,left,1,1,0.5619926920626312,M16T03,2023-01-06_10h35.42.990,t1_Paradigm,2021.1.4,60.03277820239546,
V,left,Distractor,0,28,28,28,542.0346337566152,544.0367889027111,left,1,1,0.5016755475662649,M16T03,2023-01-06_10h35.42.990,t1_Paradigm,2021.1.4,60.03277820239546,
Z,left,Pretarget,0,29,29,29,545.5345923732966,547.5343264285475,left,1,1,0.4444628015626222,M16T03,2023-01-06_10h35.42.990,t1_Paradigm,2021.1.4,60.03277820239546,
Z,right,Target,0,30,30,30,549.0344618069939,551.0346696863417,right,1,1,0.527560078073293,M16T03,2023-01-06_10h35.42.990,t1_Paradigm,2021.1.4,60.03277820239546,
T,left,Distractor,0,31,31,31,552.5344531452283,554.5362291038036,left,1,1,0.4341644237283617,M16T03,2023-01-06_10h35.42.990,t1_Paradigm,2021.1.4,60.03277820239546,
Z,left,Lure,0,32,32,32,556.0342892156914,558.036883860128,left,1,1,0.46958831511437893,M16T03,2023-01-06_10h35.42.990,t1_Paradigm,2021.1.4,60.03277820239546,
F,left,Distractor,0,33,33,33,559.5345577266999,561.5362217254005,left,1,1,0.5542138912715018,M16T03,2023-01-06_10h35.42.990,t1_Paradigm,2021.1.4,60.03277820239546,
Y,left,Pretarget,0,34,34,34,563.0335978877265,565.0366021962836,left,1,1,0.44600521633401513,M16T03,2023-01-06_10h35.42.990,t1_Paradigm,2021.1.4,60.03277820239546,
Y,right,Target,0,35,35,35,566.5344537869096,568.534730638843,right,1,1,0.6276617723051459,M16T03,2023-01-06_10h35.42.990,t1_Paradigm,2021.1.4,60.03277820239546,
Y,right,Target,0,36,36,36,570.0344213859644,572.034542649053,right,1,1,0.48790769884362817,M16T03,2023-01-06_10h35.42.990,t1_Paradigm,2021.1.4,60.03277820239546,
W,left,Distractor,0,37,37,37,573.5344326139893,575.536154357018,left,1,1,0.4744077199138701,M16T03,2023-01-06_10h35.42.990,t1_Paradigm,2021.1.4,60.03277820239546,
Q,left,Distractor,0,38,38,38,577.0344435211737,579.0363901462406,left,1,1,0.4621989675797522,M16T03,2023-01-06_10h35.42.990,t1_Paradigm,2021.1.4,60.03277820239546,
P,left,Pretarget,0,39,39,39,580.5345051151235,582.5362313494552,left,1,1,0.4662000071257353,M16T03,2023-01-06_10h35.42.990,t1_Paradigm,2021.1.4,60.03277820239546,
P,right,Target,0,40,40,40,584.034572483506,586.0346475511324,right,1,1,0.5517324898391962,M16T03,2023-01-06_10h35.42.990,t1_Paradigm,2021.1.4,60.03277820239546,
J,left,Distractor,0,41,41,41,587.5345609346405,589.5365893640555,left,1,1,0.40978669887408614,M16T03,2023-01-06_10h35.42.990,t1_Paradigm,2021.1.4,60.03277820239546,
P,left,Lure,0,42,42,42,591.0344082331285,593.0369310178794,left,1,1,0.4936875840649009,M16T03,2023-01-06_10h35.42.990,t1_Paradigm,2021.1.4,60.03277820239546,
L,left,Distractor,0,43,43,43,594.5344249147456,596.5368334942032,left,1,1,0.4655738021247089,M16T03,2023-01-06_10h35.42.990,t1_Paradigm,2021.1.4,60.03277820239546,
Z,left,Distractor,0,44,44,44,598.0345788996201,600.0367308377754,left,1,1,0.4536941924598068,M16T03,2023-01-06_10h35.42.990,t1_Paradigm,2021.1.4,60.03277820239546,
F,left,Pretarget,0,45,45,45,601.5344672605861,603.5363554996438,left,1,1,0.4581953617744148,M16T03,2023-01-06_10h35.42.990,t1_Paradigm,2021.1.4,60.03277820239546,
F,right,Target,0,46,46,46,605.0344656566158,607.0343075012788,right,1,1,0.5602039017248899,M16T03,2023-01-06_10h35.42.990,t1_Paradigm,2021.1.4,60.03277820239546,
G,left,Pretarget,0,47,47,47,608.5343646039255,610.5364196600858,left,1,1,0.38597968057729304,M16T03,2023-01-06_10h35.42.990,t1_Paradigm,2021.1.4,60.03277820239546,
G,right,Target,0,48,48,48,612.0343963634223,614.0345647842623,right,1,1,0.4718461176380515,M16T03,2023-01-06_10h35.42.990,t1_Paradigm,2021.1.4,60.03277820239546,
V,left,Distractor,0,49,49,49,615.5345044734422,617.5363779556938,left,1,1,0.44235160504467785,M16T03,2023-01-06_10h35.42.990,t1_Paradigm,2021.1.4,60.03277820239546,
G,left,Lure,0,50,50,50,619.0336100782733,621.0365268078167,left,1,1,0.4780237970408052,M16T03,2023-01-06_10h35.42.990,t1_Paradigm,2021.1.4,60.03277820239546,
Q,left,Pretarget,0,51,51,51,622.5344893957954,624.5368020557798,left,1,1,0.4978349090088159,M16T03,2023-01-06_10h35.42.990,t1_Paradigm,2021.1.4,60.03277820239546,
Q,right,Target,0,52,52,52,626.0345105687156,628.0344836213626,right,1,1,0.5197738988790661,M16T03,2023-01-06_10h35.42.990,t1_Paradigm,2021.1.4,60.03277820239546,
Y,left,Distractor,0,53,53,53,629.5344634109642,631.5363551788032,left,1,1,0.39414215995930135,M16T03,2023-01-06_10h35.42.990,t1_Paradigm,2021.1.4,60.03277820239546,
V,left,Distractor,0,54,54,54,633.0344743181486,635.0363186073955,left,1,1,0.5419499613344669,M16T03,2023-01-06_10h35.42.990,t1_Paradigm,2021.1.4,60.03277820239546,
B,left,Distractor,0,55,55,55,636.5344085537363,638.5363782765344,left,1,1,0.46599373151548207,M16T03,2023-01-06_10h35.42.990,t1_Paradigm,2021.1.4,60.03277820239546,
J,left,Pretarget,0,56,56,56,640.0343501679599,642.0363538956735,left,1,1,0.48602491337805986,M16T03,2023-01-06_10h35.42.990,t1_Paradigm,2021.1.4,60.03277820239546,
J,right,Target,0,57,57,57,643.5343816063832,645.5345468192827,right,1,1,0.6197979592252523,M16T03,2023-01-06_10h35.42.990,t1_Paradigm,2021.1.4,60.03277820239546,
H,left,Distractor,0,58,58,58,647.0344428797252,649.0365922513884,left,1,1,0.5096721728332341,M16T03,2023-01-06_10h35.42.990,t1_Paradigm,2021.1.4,60.03277820239546,
J,left,Lure,0,59,59,59,650.5343828897458,652.536137675168,left,1,1,0.5303873040247709,M16T03,2023-01-06_10h35.42.990,t1_Paradigm,2021.1.4,60.03277820239546,
D,left,Pretarget,0,60,60,60,654.0344178571831,656.0363571036141,left,1,1,0.5818824004381895,M16T03,2023-01-06_10h35.42.990,t1_Paradigm,2021.1.4,60.03277820239546,
D,right,Target,0,61,61,61,657.5515114574227,659.5343107092194,right,1,1,0.5560957144480199,M16T03,2023-01-06_10h35.42.990,t1_Paradigm,2021.1.4,60.03277820239546,
R,left,Distractor,0,62,62,62,661.0343395813834,663.0364857451059,left,1,1,0.4145618330221623,M16T03,2023-01-06_10h35.42.990,t1_Paradigm,2021.1.4,60.03277820239546,
F,left,Distractor,0,63,63,63,664.5343569046818,666.5362900560722,left,1,1,0.5145217326935381,M16T03,2023-01-06_10h35.42.990,t1_Paradigm,2021.1.4,60.03277820239546,
F,left,Distractor,0,0,0,0,773.0481478511356,775.0510129313916,None,0,2,,M16T03,2023-01-06_10h35.42.990,t1_Paradigm,2021.1.4,60.03277820239546,
N,left,Pretarget,0,1,1,1,776.5512031668331,778.5530230752192,None,0,2,,M16T03,2023-01-06_10h35.42.990,t1_Paradigm,2021.1.4,60.03277820239546,
V,left,Distractor,0,2,2,2,780.0511489515193,782.05290149129,left,1,2,0.6455156726296991,M16T03,2023-01-06_10h35.42.990,t1_Paradigm,2021.1.4,60.03277820239546,
N,right,Target,0,3,3,3,783.5512750265189,785.5530557970051,right,1,2,0.6013630866073072,M16T03,2023-01-06_10h35.42.990,t1_Paradigm,2021.1.4,60.03277820239546,
N,left,Lure,0,4,4,4,787.051073883893,789.0510215931572,left,1,2,0.5271196172107011,M16T03,2023-01-06_10h35.42.990,t1_Paradigm,2021.1.4,60.03277820239546,
X,left,Distractor,0,5,5,5,790.5511896931566,792.553609500872,left,1,2,0.8007885306142271,M16T03,2023-01-06_10h35.42.990,t1_Paradigm,2021.1.4,60.03277820239546,
G,left,Pretarget,0,6,6,6,794.0509859840386,796.0528921880759,left,1,2,0.5333329054992646,M16T03,2023-01-06_10h35.42.990,t1_Paradigm,2021.1.4,60.03277820239546,
H,left,Pretarget,0,7,7,7,797.5512320389971,799.5536598667968,left,1,2,0.552633621962741,M16T03,2023-01-06_10h35.42.990,t1_Paradigm,2021.1.4,60.03277820239546,
G,right,Target,0,8,8,8,801.050960320048,803.0528703737073,right,1,2,0.4295936403796077,M16T03,2023-01-06_10h35.42.990,t1_Paradigm,2021.1.4,60.03277820239546,
H,right,Target,0,9,9,9,804.5512371719815,806.5529881077819,right,1,2,0.5614803717471659,M16T03,2023-01-06_10h35.42.990,t1_Paradigm,2021.1.4,60.03277820239546,
T,left,Pretarget,0,10,10,10,808.051028329879,810.0500870975666,left,1,2,0.4562022206373513,M16T03,2023-01-06_10h35.42.990,t1_Paradigm,2021.1.4,60.03277820239546,
K,left,Distractor,0,11,11,11,811.5512416630518,813.5534349847585,left,1,2,0.45694134780205786,M16T03,2023-01-06_10h35.42.990,t1_Paradigm,2021.1.4,60.03277820239546,
T,right,Target,0,12,12,12,815.0508964804467,817.0535280171316,right,1,2,0.5085243440698832,M16T03,2023-01-06_10h35.42.990,t1_Paradigm,2021.1.4,60.03277820239546,
T,left,Lure,0,13,13,13,818.551250645658,820.5515162693337,left,1,2,0.5309034739620984,M16T03,2023-01-06_10h35.42.990,t1_Paradigm,2021.1.4,60.03277820239546,
J,left,Distractor,0,14,14,14,822.0511133424006,824.0529380626976,left,1,2,0.6454691563267261,M16T03,2023-01-06_10h35.42.990,t1_Paradigm,2021.1.4,60.03277820239546,
Q,left,Pretarget,0,15,15,15,825.551148309838,827.5530294913333,left,1,2,0.4091774965636432,M16T03,2023-01-06_10h35.42.990,t1_Paradigm,2021.1.4,60.03277820239546,
M,left,Distractor,0,16,16,16,829.0508336033672,831.0527744540013,left,1,2,0.47760194283910096,M16T03,2023-01-06_10h35.42.990,t1_Paradigm,2021.1.4,60.03277820239546,
Q,right,Target,0,17,17,17,832.5512557784095,834.5530971805565,right,1,2,0.41711958521045744,M16T03,2023-01-06_10h35.42.990,t1_Paradigm,2021.1.4,60.03277820239546,
R,left,Distractor,0,18,18,18,836.0509166910779,838.0527555264998,left,1,2,0.4855164426844567,M16T03,2023-01-06_10h35.42.990,t1_Paradigm,2021.1.4,60.03277820239546,
W,left,Distractor,0,19,19,19,839.5511617835145,841.5533528593369,left,1,2,0.4570039042737335,M16T03,2023-01-06_10h35.42.990,t1_Paradigm,2021.1.4,60.03277820239546,
C,left,Pretarget,0,20,20,20,843.0508894228842,845.0532469949685,left,1,2,0.4770440685097128,M16T03,2023-01-06_10h35.42.990,t1_Paradigm,2021.1.4,60.03277820239546,
T,left,Distractor,0,21,21,21,846.5511534425896,848.5532656013966,left,1,2,0.41695084352977574,M16T03,2023-01-06_10h35.42.990,t1_Paradigm,2021.1.4,60.03277820239546,
C,right,Target,0,22,22,22,850.0510010619182,852.0637891818769,right,1,2,0.47448952426202595,M16T03,2023-01-06_10h35.42.990,t1_Paradigm,2021.1.4,60.03277820239546,
F,left,Pretarget,0,23,23,23,853.5513340539765,855.552789852256,left,1,2,0.42572509218007326,M16T03,2023-01-06_10h35.42.990,t1_Paradigm,2021.1.4,60.03277820239546,
C,right,Target,0,24,24,24,857.0507508364972,859.0530939723831,right,1,2,0.41316313738934696,M16T03,2023-01-06_10h35.42.990,t1_Paradigm,2021.1.4,60.03277820239546,
F,right,Target,0,25,25,25,860.5511345153209,862.5532909447793,right,1,2,0.4974236411508173,M16T03,2023-01-06_10h35.42.990,t1_Paradigm,2021.1.4,60.03277820239546,
H,left,Distractor,0,26,26,26,864.0509888713714,866.0526480579283,left,1,2,0.3896448404993862,M16T03,2023-01-06_10h35.42.990,t1_Paradigm,2021.1.4,60.03277820239546,
H,left,Lure,0,27,27,27,867.5513654926326,869.5514203496277,left,1,2,0.4428982511162758,M16T03,2023-01-06_10h35.42.990,t1_Paradigm,2021.1.4,60.03277820239546,
P,left,Distractor,0,28,28,28,871.0509202198591,873.0525418727193,left,1,2,0.6536941926460713,M16T03,2023-01-06_10h35.42.990,t1_Paradigm,2021.1.4,60.03277820239546,
G,left,Pretarget,0,29,29,29,874.5512204901315,876.5529457619414,left,1,2,0.40131175820715725,M16T03,2023-01-06_10h35.42.990,t1_Paradigm,2021.1.4,60.03277820239546,
K,left,Distractor,0,30,30,30,878.05094460072,880.0524600681383,left,1,2,0.389859456801787,M16T03,2023-01-06_10h35.42.990,t1_Paradigm,2021.1.4,60.03277820239546,
G,right,Target,0,31,31,31,881.5510979439132,883.5512737433892,right,1,2,0.4272412012796849,M16T03,2023-01-06_10h35.42.990,t1_Paradigm,2021.1.4,60.03277820239546,
M,left,Pretarget,0,32,32,32,885.0512076581363,887.0527577721514,left,1,2,0.4455621892120689,M16T03,2023-01-06_10h35.42.990,t1_Paradigm,2021.1.4,60.03277820239546,
B,left,Distractor,0,33,33,33,888.5510873575695,890.5532152354717,left,1,2,0.4011064451187849,M16T03,2023-01-06_10h35.42.990,t1_Paradigm,2021.1.4,60.03277820239546,
M,right,Target,0,34,34,34,892.0507995982189,894.052896679379,right,1,2,0.4053952437825501,M16T03,2023-01-06_10h35.42.990,t1_Paradigm,2021.1.4,60.03277820239546,
M,left,Lure,0,35,35,35,895.5510774126742,897.5512676481158,left,1,2,0.6669266228564084,M16T03,2023-01-06_10h35.42.990,t1_Paradigm,2021.1.4,60.03277820239546,
T,left,Distractor,0,36,36,36,899.050853492925,901.0530063936021,left,1,2,0.4613616750575602,M16T03,2023-01-06_10h35.42.990,t1_Paradigm,2021.1.4,60.03277820239546,
F,left,Distractor,0,37,37,37,902.5510732422117,904.5528941128869,left,1,2,0.41728928941302,M16T03,2023-01-06_10h35.42.990,t1_Paradigm,2021.1.4,60.03277820239546,
X,left,Distractor,0,38,38,38,906.0509587160777,908.0530092807021,left,1,2,0.43722455156967044,M16T03,2023-01-06_10h35.42.990,t1_Paradigm,2021.1.4,60.03277820239546,
C,left,Distractor,0,39,39,39,909.5510847910773,911.5529483284336,left,1,2,0.4255569919478148,M16T03,2023-01-06_10h35.42.990,t1_Paradigm,2021.1.4,60.03277820239546,
R,left,Distractor,0,40,40,40,913.0509259942919,915.0527080479078,left,1,2,0.3815859796013683,M16T03,2023-01-06_10h35.42.990,t1_Paradigm,2021.1.4,60.03277820239546,
B,left,Pretarget,0,41,41,41,916.5511890517082,918.5529066242743,left,1,2,0.449264241149649,M16T03,2023-01-06_10h35.42.990,t1_Paradigm,2021.1.4,60.03277820239546,
H,left,Distractor,0,42,42,42,920.0508409817703,922.0527369200718,left,1,2,0.5172260913532227,M16T03,2023-01-06_10h35.42.990,t1_Paradigm,2021.1.4,60.03277820239546,
B,right,Target,0,43,43,43,923.5501624860335,925.5531491502188,right,1,2,0.39296481758356094,M16T03,2023-01-06_10h35.42.990,t1_Paradigm,2021.1.4,60.03277820239546,
W,left,Pretarget,0,44,44,44,927.0509012925904,929.0522948552389,left,1,2,0.3657986840698868,M16T03,2023-01-06_10h35.42.990,t1_Paradigm,2021.1.4,60.03277820239546,
L,left,Pretarget,0,45,45,45,930.5511848812457,932.5531879672781,left,1,2,0.4330127453431487,M16T03,2023-01-06_10h35.42.990,t1_Paradigm,2021.1.4,60.03277820239546,
W,right,Target,0,46,46,46,934.0508060143329,936.0527744540013,right,1,2,0.5171561567112803,M16T03,2023-01-06_10h35.42.990,t1_Paradigm,2021.1.4,60.03277820239546,
L,right,Target,0,47,47,47,937.5510751670226,939.5530384737067,right,1,2,0.42542321770451963,M16T03,2023-01-06_10h35.42.990,t1_Paradigm,2021.1.4,60.03277820239546,
W,right,Target,0,48,48,48,941.0508753075264,943.0532367292326,right,1,2,0.461209615226835,M16T03,2023-01-06_10h35.42.990,t1_Paradigm,2021.1.4,60.03277820239546,
X,left,Distractor,0,49,49,49,944.5510495027993,946.5528851305135,left,1,2,0.417263304349035,M16T03,2023-01-06_10h35.42.990,t1_Paradigm,2021.1.4,60.03277820239546,
R,left,Distractor,0,50,50,50,948.0507412124425,950.0526612107642,left,1,2,0.35759834991768,M16T03,2023-01-06_10h35.42.990,t1_Paradigm,2021.1.4,60.03277820239546,
V,left,Pretarget,0,51,51,51,951.5511447810568,953.5530198672786,left,1,2,0.40908670937642455,M16T03,2023-01-06_10h35.42.990,t1_Paradigm,2021.1.4,60.03277820239546,
Z,left,Distractor,0,52,52,52,955.0508384152781,957.0498474587221,left,1,2,0.44845004635863006,M16T03,2023-01-06_10h35.42.990,t1_Paradigm,2021.1.4,60.03277820239546,
V,right,Target,0,53,53,53,958.5511203999631,960.5530490602832,right,1,2,0.43311091093346477,M16T03,2023-01-06_10h35.42.990,t1_Paradigm,2021.1.4,60.03277820239546,
V,left,Lure,0,54,54,54,962.0507325506769,964.0508352073375,left,1,2,0.743365980219096,M16T03,2023-01-06_10h35.42.990,t1_Paradigm,2021.1.4,60.03277820239546,
N,left,Distractor,0,55,55,55,965.55113259051,967.5530381528661,left,1,2,0.5052040461450815,M16T03,2023-01-06_10h35.42.990,t1_Paradigm,2021.1.4,60.03277820239546,
B,left,Distractor,0,56,56,56,969.0507187563926,971.0526775717735,left,1,2,0.4456301990430802,M16T03,2023-01-06_10h35.42.990,t1_Paradigm,2021.1.4,60.03277820239546,
V,left,Lure,0,57,57,57,972.5510187058244,974.5534333807882,left,1,2,0.4971018771175295,M16T03,2023-01-06_10h35.42.990,t1_Paradigm,2021.1.4,60.03277820239546,
J,left,Distractor,0,58,58,58,976.0507460243534,978.0531523583923,left,1,2,0.5007830772083253,M16T03,2023-01-06_10h35.42.990,t1_Paradigm,2021.1.4,60.03277820239546,
H,left,Distractor,0,59,59,59,979.5511091719382,981.5529457619414,left,1,2,0.39316499792039394,M16T03,2023-01-06_10h35.42.990,t1_Paradigm,2021.1.4,60.03277820239546,
X,left,Pretarget,0,60,60,60,983.050710094627,985.0523586948402,left,1,2,0.41388718667440116,M16T03,2023-01-06_10h35.42.990,t1_Paradigm,2021.1.4,60.03277820239546,
P,left,Distractor,0,61,61,61,986.5513966104481,988.5527866443153,left,1,2,0.46530144149437547,M16T03,2023-01-06_10h35.42.990,t1_Paradigm,2021.1.4,60.03277820239546,
X,right,Target,0,62,62,62,990.0507226060145,992.05287903524,right,1,2,0.4691972576547414,M16T03,2023-01-06_10h35.42.990,t1_Paradigm,2021.1.4,60.03277820239546,
Q,left,Distractor,0,63,63,63,993.5507181147113,995.5524404991884,left,1,2,0.48977348185144365,M16T03,2023-01-06_10h35.42.990,t1_Paradigm,2021.1.4,60.03277820239546,
B,left,Pretarget,0,0,0,0,1013.2594009346794,1015.25290919072,None,0,2,,M16T03,2023-01-06_10h35.42.990,t1_Paradigm,2021.1.4,60.03277820239546,
F,left,Distractor,0,1,1,1,1016.7508185256738,1018.7525030556135,None,0,2,,M16T03,2023-01-06_10h35.42.990,t1_Paradigm,2021.1.4,60.03277820239546,
B,right,Target,0,2,2,2,1020.2506815432571,1022.2527311455924,right,1,2,0.7015366402920336,M16T03,2023-01-06_10h35.42.990,t1_Paradigm,2021.1.4,60.03277820239546,
V,left,Distractor,0,3,3,3,1023.7505564305466,1025.7524748251308,left,1,2,0.6259429163765162,M16T03,2023-01-06_10h35.42.990,t1_Paradigm,2021.1.4,60.03277820239546,
G,left,Pretarget,0,4,4,4,1027.2508644002955,1029.2526474164333,left,1,2,0.7257202800828964,M16T03,2023-01-06_10h35.42.990,t1_Paradigm,2021.1.4,60.03277820239546,
B,left,Lure,0,5,5,5,1030.7506456135307,1032.7525848599616,left,1,2,0.42577609955333173,M16T03,2023-01-06_10h35.42.990,t1_Paradigm,2021.1.4,60.03277820239546,
G,right,Target,0,6,6,6,1034.2506196284667,1036.250500290189,right,1,2,0.4638055427931249,M16T03,2023-01-06_10h35.42.990,t1_Paradigm,2021.1.4,60.03277820239546,
Y,left,Pretarget,0,7,7,7,1037.750211568782,1039.752659927588,left,1,2,0.5615936147514731,M16T03,2023-01-06_10h35.42.990,t1_Paradigm,2021.1.4,60.03277820239546,
P,left,Distractor,0,8,8,8,1041.2507431372069,1043.249804150546,left,1,2,0.6007182751782238,M16T03,2023-01-06_10h35.42.990,t1_Paradigm,2021.1.4,60.03277820239546,
Y,right,Target,0,9,9,9,1044.750718756346,1046.7530679875053,right,1,2,0.6329938182607293,M16T03,2023-01-06_10h35.42.990,t1_Paradigm,2021.1.4,60.03277820239546,
X,left,Distractor,0,10,10,10,1048.250799919013,1050.2532383331563,left,1,2,0.3968779572751373,M16T03,2023-01-06_10h35.42.990,t1_Paradigm,2021.1.4,60.03277820239546,
Y,right,Target,0,11,11,11,1051.7507963902317,1053.753032057779,right,1,2,0.52922118967399,M16T03,2023-01-06_10h35.42.990,t1_Paradigm,2021.1.4,60.03277820239546,
N,left,Distractor,0,12,12,12,1055.2506921298336,1057.252535135718,left,1,2,0.4535013905260712,M16T03,2023-01-06_10h35.42.990,t1_Paradigm,2021.1.4,60.03277820239546,
Y,right,Target,0,13,13,13,1058.7507976735942,1060.7528312357608,right,1,2,0.5213355617597699,M16T03,2023-01-06_10h35.42.990,t1_Paradigm,2021.1.4,60.03277820239546,
Y,left,Lure,0,14,14,14,1062.2507335131522,1064.2506311773323,left,1,2,0.5755237890407443,M16T03,2023-01-06_10h35.42.990,t1_Paradigm,2021.1.4,60.03277820239546,
K,left,Distractor,0,15,15,15,1065.750709453132,1067.7526442084927,left,1,2,0.5295631643384695,M16T03,2023-01-06_10h35.42.990,t1_Paradigm,2021.1.4,60.03277820239546,
T,left,Pretarget,0,16,16,16,1069.2507027161773,1071.2527141431347,left,1,2,0.7574010568205267,M16T03,2023-01-06_10h35.42.990,t1_Paradigm,2021.1.4,60.03277820239546,
J,left,Distractor,0,17,17,17,1072.7506645407993,1074.7526406794786,left,1,2,0.5533762779086828,M16T03,2023-01-06_10h35.42.990,t1_Paradigm,2021.1.4,60.03277820239546,
T,right,Target,0,18,18,18,1076.2508907059673,1078.2529441579245,right,1,2,0.4931502409745008,M16T03,2023-01-06_10h35.42.990,t1_Paradigm,2021.1.4,60.03277820239546,
S,left,Pretarget,0,19,19,19,1079.7507492324803,1081.7526717972942,left,1,2,0.4653739423956722,M16T03,2023-01-06_10h35.42.990,t1_Paradigm,2021.1.4,60.03277820239546,
R,left,Distractor,0,20,20,20,1083.2507210019976,1085.2528649200685,left,1,2,0.4691571576986462,M16T03,2023-01-06_10h35.42.990,t1_Paradigm,2021.1.4,60.03277820239546,
S,right,Target,0,21,21,21,1086.7506116086151,1088.7527670755517,right,1,2,0.48937504598870873,M16T03,2023-01-06_10h35.42.990,t1_Paradigm,2021.1.4,60.03277820239546,
Q,left,Distractor,0,22,22,22,1090.250685392879,1092.2529746342916,left,1,2,0.4290915858000517,M16T03,2023-01-06_10h35.42.990,t1_Paradigm,2021.1.4,60.03277820239546,
D,left,Distractor,0,23,23,23,1093.750765272649,1095.7527208800893,left,1,2,0.4653056119568646,M16T03,2023-01-06_10h35.42.990,t1_Paradigm,2021.1.4,60.03277820239546,
F,left,Distractor,0,24,24,24,1097.2507604605053,1099.2530304535758,left,1,2,0.4370064064860344,M16T03,2023-01-06_10h35.42.990,t1_Paradigm,2021.1.4,60.03277820239546,
Z,left,Distractor,0,25,25,25,1100.7506058341824,1102.7528527295217,left,1,2,0.44127531512640417,M16T03,2023-01-06_10h35.42.990,t1_Paradigm,2021.1.4,60.03277820239546,
P,left,Distractor,0,26,26,26,1104.2505740746856,1106.252945441287,left,1,2,0.47737577743828297,M16T03,2023-01-06_10h35.42.990,t1_Paradigm,2021.1.4,60.03277820239546,
H,left,Distractor,0,27,27,27,1107.7507033578586,1109.752154664835,left,1,2,0.4018580839037895,M16T03,2023-01-06_10h35.42.990,t1_Paradigm,2021.1.4,60.03277820239546,
Z,left,Pretarget,0,28,28,28,1111.2506427261978,1113.2525874264538,left,1,2,0.4214231406804174,M16T03,2023-01-06_10h35.42.990,t1_Paradigm,2021.1.4,60.03277820239546,
J,left,Pretarget,0,29,29,29,1114.7505907563027,1116.7525646495633,left,1,2,0.3775172510650009,M16T03,2023-01-06_10h35.42.990,t1_Paradigm,2021.1.4,60.03277820239546,
Z,right,Target,0,30,30,30,1118.250655558426,1120.2525280781556,right,1,2,0.541530994232744,M16T03,2023-01-06_10h35.42.990,t1_Paradigm,2021.1.4,60.03277820239546,
J,right,Target,0,31,31,31,1121.7507893326692,1123.752655115677,right,1,2,0.5932955644093454,M16T03,2023-01-06_10h35.42.990,t1_Paradigm,2021.1.4,60.03277820239546,
V,left,Pretarget,0,32,32,32,1125.250761743635,1127.2528504838701,left,1,2,0.3731745576951653,M16T03,2023-01-06_10h35.42.990,t1_Paradigm,2021.1.4,60.03277820239546,
Z,left,Lure,0,33,33,33,1128.750552260084,1130.7528055717703,left,1,2,0.36142166517674923,M16T03,2023-01-06_10h35.42.990,t1_Paradigm,2021.1.4,60.03277820239546,
V,right,Target,0,34,34,34,1132.2506863554008,1134.2529425539542,right,1,2,0.5253654732368886,M16T03,2023-01-06_10h35.42.990,t1_Paradigm,2021.1.4,60.03277820239546,
X,left,Distractor,0,35,35,35,1135.7505827364512,1137.7527122183237,left,1,2,0.48143295710906386,M16T03,2023-01-06_10h35.42.990,t1_Paradigm,2021.1.4,60.03277820239546,
S,left,Distractor,0,36,36,36,1139.2507158690132,1141.2525810103398,left,1,2,0.5493848626501858,M16T03,2023-01-06_10h35.42.990,t1_Paradigm,2021.1.4,60.03277820239546,
Q,left,Distractor,0,37,37,37,1142.750650104601,1144.7529399876948,left,1,2,0.505145660135895,M16T03,2023-01-06_10h35.42.990,t1_Paradigm,2021.1.4,60.03277820239546,
P,left,Distractor,0,38,38,38,1146.2506193078589,1148.2507190771867,left,1,2,0.4314892578404397,M16T03,2023-01-06_10h35.42.990,t1_Paradigm,2021.1.4,60.03277820239546,
S,left,Lure,0,39,39,39,1149.7506327813026,1151.7527009902988,left,1,2,0.44926167489029467,M16T03,2023-01-06_10h35.42.990,t1_Paradigm,2021.1.4,60.03277820239546,
K,left,Pretarget,0,40,40,40,1153.2497188171837,1155.252714784816,left,1,2,0.40524061722680926,M16T03,2023-01-06_10h35.42.990,t1_Paradigm,2021.1.4,60.03277820239546,
L,left,Distractor,0,41,41,41,1156.750616420526,1158.7527744539548,left,1,2,0.4733240513596684,M16T03,2023-01-06_10h35.42.990,t1_Paradigm,2021.1.4,60.03277820239546,
K,right,Target,0,42,42,42,1160.250602626009,1162.2527051607613,right,1,2,0.49320926843211055,M16T03,2023-01-06_10h35.42.990,t1_Paradigm,2021.1.4,60.03277820239546,
B,left,Distractor,0,43,43,43,1163.7506712775212,1165.7527006694581,left,1,2,0.5454024297650903,M16T03,2023-01-06_10h35.42.990,t1_Paradigm,2021.1.4,60.03277820239546,
N,left,Distractor,0,44,44,44,1167.2505891523324,1169.2527750954032,left,1,2,0.4051661912817508,M16T03,2023-01-06_10h35.42.990,t1_Paradigm,2021.1.4,60.03277820239546,
S,left,Pretarget,0,45,45,45,1170.7506263654213,1172.7531052005943,left,1,2,0.40882236883044243,M16T03,2023-01-06_10h35.42.990,t1_Paradigm,2021.1.4,60.03277820239546,
Z,left,Distractor,0,46,46,46,1174.2507052826695,1176.2524956772104,left,1,2,0.41349997906945646,M16T03,2023-01-06_10h35.42.990,t1_Paradigm,2021.1.4,60.03277820239546,
S,right,Target,0,47,47,47,1177.7505128015764,1179.752862674417,right,1,2,0.44905732409097254,M16T03,2023-01-06_10h35.42.990,t1_Paradigm,2021.1.4,60.03277820239546,
C,left,Distractor,0,48,48,48,1181.2506221949589,1183.2526669853833,left,1,2,0.4853647034615278,M16T03,2023-01-06_10h35.42.990,t1_Paradigm,2021.1.4,60.03277820239546,
T,left,Pretarget,0,49,49,49,1184.750787728699,1186.7522877976298,left,1,2,0.5056839655153453,M16T03,2023-01-06_10h35.42.990,t1_Paradigm,2021.1.4,60.03277820239546,
S,left,Lure,0,50,50,50,1188.250573753845,1190.251920158742,left,1,2,0.4299333696253598,M16T03,2023-01-06_10h35.42.990,t1_Paradigm,2021.1.4,60.03277820239546,
T,right,Target,0,51,51,51,1191.7506427261978,1193.752658965299,right,1,2,0.56146369013004,M16T03,2023-01-06_10h35.42.990,t1_Paradigm,2021.1.4,60.03277820239546,
N,left,Pretarget,0,52,52,52,1195.2504999695811,1197.2528690902982,left,1,2,0.4210686548613012,M16T03,2023-01-06_10h35.42.990,t1_Paradigm,2021.1.4,60.03277820239546,
B,left,Distractor,0,53,53,53,1198.7505432777107,1200.7529698221479,left,1,2,0.48907381342723966,M16T03,2023-01-06_10h35.42.990,t1_Paradigm,2021.1.4,60.03277820239546,
N,right,Target,0,54,54,54,1202.2506087212823,1204.252984578954,right,1,2,0.5570533077698201,M16T03,2023-01-06_10h35.42.990,t1_Paradigm,2021.1.4,60.03277820239546,
N,left,Lure,0,55,55,55,1205.7506157788448,1207.7506401599385,left,1,2,0.35533413104712963,M16T03,2023-01-06_10h35.42.990,t1_Paradigm,2021.1.4,60.03277820239546,
X,left,Distractor,0,56,56,56,1209.2505172928795,1211.2524170808028,left,1,2,0.40556623111478984,M16T03,2023-01-06_10h35.42.990,t1_Paradigm,2021.1.4,60.03277820239546,
W,left,Distractor,0,57,57,57,1212.7504595485516,1214.752616940299,left,1,2,0.3294945126399398,M16T03,2023-01-06_10h35.42.990,t1_Paradigm,2021.1.4,60.03277820239546,
S,left,Distractor,0,58,58,58,1216.250571829034,1218.252544438932,left,1,2,0.3974181874655187,M16T03,2023-01-06_10h35.42.990,t1_Paradigm,2021.1.4,60.03277820239546,
L,left,Distractor,0,59,59,59,1219.7506282902323,1221.7525550255086,left,1,2,0.5455134271178395,M16T03,2023-01-06_10h35.42.990,t1_Paradigm,2021.1.4,60.03277820239546,
K,left,Pretarget,0,60,60,60,1223.2505095936358,1225.2523465042468,left,1,2,0.5495555291417986,M16T03,2023-01-06_10h35.42.990,t1_Paradigm,2021.1.4,60.03277820239546,
V,left,Pretarget,0,61,61,61,1226.7505939644761,1228.7524212512653,left,1,2,0.4576002745889127,M16T03,2023-01-06_10h35.42.990,t1_Paradigm,2021.1.4,60.03277820239546,
K,right,Target,0,62,62,62,1230.2507585356943,1232.249518636847,right,1,2,0.4325780589133501,M16T03,2023-01-06_10h35.42.990,t1_Paradigm,2021.1.4,60.03277820239546,
V,right,Target,0,63,63,63,1233.7505490521435,1235.7495722109452,right,1,2,0.5485469284467399,M16T03,2023-01-06_10h35.42.990,t1_Paradigm,2021.1.4,60.03277820239546,
R,left,Distractor,0,0,0,0,1313.5970361125655,1315.6028618724085,None,0,3,,M16T03,2023-01-06_10h35.42.990,t1_Paradigm,2021.1.4,60.03277820239546,
P,left,Lure,0,1,1,1,1317.10045136814,1319.102496800013,None,0,3,,M16T03,2023-01-06_10h35.42.990,t1_Paradigm,2021.1.4,60.03277820239546,
V,left,Distractor,0,2,2,2,1320.6004853730556,1322.6027640278917,None,0,3,,M16T03,2023-01-06_10h35.42.990,t1_Paradigm,2021.1.4,60.03277820239546,
P,left,Pretarget,0,3,3,3,1324.100361222634,1326.1026774113998,left,1,3,0.5793317058123648,M16T03,2023-01-06_10h35.42.990,t1_Paradigm,2021.1.4,60.03277820239546,
Z,left,Distractor,0,4,4,4,1327.599577824818,1329.6023957473226,left,1,3,0.5834222487173975,M16T03,2023-01-06_10h35.42.990,t1_Paradigm,2021.1.4,60.03277820239546,
L,left,Pretarget,0,5,5,5,1331.100612410577,1333.1028711756226,left,1,3,0.6029796064831316,M16T03,2023-01-06_10h35.42.990,t1_Paradigm,2021.1.4,60.03277820239546,
P,right,Target,0,6,6,6,1334.6004584257025,1336.602757290937,right,1,3,1.1031207593623549,M16T03,2023-01-06_10h35.42.990,t1_Paradigm,2021.1.4,60.03277820239546,
S,left,Distractor,0,7,7,7,1338.1004212126136,1340.1021817727014,left,1,3,0.4993933637160808,M16T03,2023-01-06_10h35.42.990,t1_Paradigm,2021.1.4,60.03277820239546,
L,right,Target,0,8,8,8,1341.6004709368572,1343.6022818628699,left,0,3,1.319544846424833,M16T03,2023-01-06_10h35.42.990,t1_Paradigm,2021.1.4,60.03277820239546,
D,left,Distractor,0,9,9,9,1345.1004956385586,1347.1024778727442,left,1,3,0.8593249048572034,M16T03,2023-01-06_10h35.42.990,t1_Paradigm,2021.1.4,60.03277820239546,
G,left,Distractor,0,10,10,10,1348.6004930722993,1350.6012058937922,left,1,3,1.376830093562603,M16T03,2023-01-06_10h35.42.990,t1_Paradigm,2021.1.4,60.03277820239546,
M,left,Pretarget,0,11,11,11,1352.1004308366682,1354.1024791558739,left,1,3,1.267332437215373,M16T03,2023-01-06_10h35.42.990,t1_Paradigm,2021.1.4,60.03277820239546,
Y,left,Distractor,0,12,12,12,1355.6006002200302,1357.6026722784154,left,1,3,0.9352172950748354,M16T03,2023-01-06_10h35.42.990,t1_Paradigm,2021.1.4,60.03277820239546,
V,left,Distractor,0,13,13,13,1359.100322084967,1361.0995056445245,left,1,3,0.8785874457098544,M16T03,2023-01-06_10h35.42.990,t1_Paradigm,2021.1.4,60.03277820239546,
M,right,Target,0,14,14,14,1362.6002954584546,1364.6024599077646,right,1,3,0.8313923757523298,M16T03,2023-01-06_10h35.42.990,t1_Paradigm,2021.1.4,60.03277820239546,
S,left,Pretarget,0,15,15,15,1366.1005684607662,1368.1024913464207,left,1,3,0.8514290112070739,M16T03,2023-01-06_10h35.42.990,t1_Paradigm,2021.1.4,60.03277820239546,
Q,left,Distractor,0,16,16,16,1369.6003291425295,1371.6023280583322,left,1,3,0.9992778752930462,M16T03,2023-01-06_10h35.42.990,t1_Paradigm,2021.1.4,60.03277820239546,
R,left,Pretarget,0,17,17,17,1373.100440460723,1375.1029010100756,left,1,3,0.9390297029167414,M16T03,2023-01-06_10h35.42.990,t1_Paradigm,2021.1.4,60.03277820239546,
S,right,Target,0,18,18,18,1376.6004327614792,1378.6024262236897,right,1,3,0.8154032959137112,M16T03,2023-01-06_10h35.42.990,t1_Paradigm,2021.1.4,60.03277820239546,
F,left,Distractor,0,19,19,19,1380.1004391775932,1382.1023659128696,left,1,3,0.7235683419276029,M16T03,2023-01-06_10h35.42.990,t1_Paradigm,2021.1.4,60.03277820239546,
R,right,Target,0,20,20,20,1383.600315668853,1385.602198133478,right,1,3,0.6637843700591475,M16T03,2023-01-06_10h35.42.990,t1_Paradigm,2021.1.4,60.03277820239546,
P,left,Distractor,0,21,21,21,1387.1004401398823,1389.1022545946762,left,1,3,0.5555253287311643,M16T03,2023-01-06_10h35.42.990,t1_Paradigm,2021.1.4,60.03277820239546,
L,left,Distractor,0,22,22,22,1390.5995216844603,1392.602382273646,left,1,3,1.0393351062666625,M16T03,2023-01-06_10h35.42.990,t1_Paradigm,2021.1.4,60.03277820239546,
R,right,Target,0,23,23,23,1394.1003070073202,1396.1023495518602,right,1,3,0.7555577298626304,M16T03,2023-01-06_10h35.42.990,t1_Paradigm,2021.1.4,60.03277820239546,
H,left,Pretarget,0,24,24,24,1397.6004510472994,1399.6024348852225,left,1,3,0.6954776577185839,M16T03,2023-01-06_10h35.42.990,t1_Paradigm,2021.1.4,60.03277820239546,
G,left,Pretarget,0,25,25,25,1401.1003669970669,1403.1027223234996,left,1,3,1.035131961805746,M16T03,2023-01-06_10h35.42.990,t1_Paradigm,2021.1.4,60.03277820239546,
T,left,Distractor,0,26,26,26,1404.6002967415843,1406.602399917785,left,1,3,0.7353680720552802,M16T03,2023-01-06_10h35.42.990,t1_Paradigm,2021.1.4,60.03277820239546,
H,right,Target,0,27,27,27,1408.1005168114789,1410.1026815818623,right,1,3,0.81908417516388,M16T03,2023-01-06_10h35.42.990,t1_Paradigm,2021.1.4,60.03277820239546,
G,right,Target,0,28,28,28,1411.6003455035388,1413.6026947346982,right,1,3,0.6150520178489387,M16T03,2023-01-06_10h35.42.990,t1_Paradigm,2021.1.4,60.03277820239546,
D,left,Distractor,0,29,29,29,1415.1003663556185,1417.1024223740678,left,1,3,1.1479017960373312,M16T03,2023-01-06_10h35.42.990,t1_Paradigm,2021.1.4,60.03277820239546,
N,left,Pretarget,0,30,30,30,1418.6004112677183,1420.6023713664617,left,1,3,1.2637259839102626,M16T03,2023-01-06_10h35.42.990,t1_Paradigm,2021.1.4,60.03277820239546,
V,left,Distractor,0,31,31,31,1422.1003541650716,1424.1018115675543,left,1,3,1.1880331325810403,M16T03,2023-01-06_10h35.42.990,t1_Paradigm,2021.1.4,60.03277820239546,
R,left,Distractor,0,32,32,32,1425.6005014129914,1427.6028374913149,left,1,3,1.1429219907149673,M16T03,2023-01-06_10h35.42.990,t1_Paradigm,2021.1.4,60.03277820239546,
N,right,Target,0,33,33,33,1429.1002418845892,1431.1026110053062,left,0,3,1.2113291136920452,M16T03,2023-01-06_10h35.42.990,t1_Paradigm,2021.1.4,60.03277820239546,
Z,left,Distractor,0,34,34,34,1432.6004314783495,1434.6024281485006,left,1,3,0.8954205550253391,M16T03,2023-01-06_10h35.42.990,t1_Paradigm,2021.1.4,60.03277820239546,
N,left,Lure,0,35,35,35,1436.1002819847781,1438.1017798080575,left,1,3,1.0121535742655396,M16T03,2023-01-06_10h35.42.990,t1_Paradigm,2021.1.4,60.03277820239546,
Y,left,Pretarget,0,36,36,36,1439.6004240999464,1441.6025455617346,left,1,3,1.0637805201113224,M16T03,2023-01-06_10h35.42.990,t1_Paradigm,2021.1.4,60.03277820239546,
Y,left,Lure,0,37,37,37,1443.1003413330764,1445.1002739646938,left,1,3,1.3255704657640308,M16T03,2023-01-06_10h35.42.990,t1_Paradigm,2021.1.4,60.03277820239546,
B,left,Distractor,0,38,38,38,1446.6003503154498,1448.6020823242143,left,1,3,1.135658076731488,M16T03,2023-01-06_10h35.42.990,t1_Paradigm,2021.1.4,60.03277820239546,
Y,right,Target,0,39,39,39,1450.1003493531607,1452.1024897424504,right,1,3,0.995389758143574,M16T03,2023-01-06_10h35.42.990,t1_Paradigm,2021.1.4,60.03277820239546,
J,left,Distractor,0,40,40,40,1453.6003560898826,1455.602085532155,left,1,3,0.8557502110488713,M16T03,2023-01-06_10h35.42.990,t1_Paradigm,2021.1.4,60.03277820239546,
X,left,Distractor,0,41,41,41,1457.1002226364799,1459.1024560581427,left,1,3,1.0832775672897696,M16T03,2023-01-06_10h35.42.990,t1_Paradigm,2021.1.4,60.03277820239546,
W,left,Pretarget,0,42,42,42,1460.6003365209326,1462.6024682486895,left,1,3,1.0712301784660667,M16T03,2023-01-06_10h35.42.990,t1_Paradigm,2021.1.4,60.03277820239546,
S,left,Pretarget,0,43,43,43,1464.100340691395,1466.1025885492563,left,1,3,0.9632733326870948,M16T03,2023-01-06_10h35.42.990,t1_Paradigm,2021.1.4,60.03277820239546,
R,left,Distractor,0,44,44,44,1467.6002649823204,1469.602306885412,left,1,3,1.143399664433673,M16T03,2023-01-06_10h35.42.990,t1_Paradigm,2021.1.4,60.03277820239546,
W,right,Target,0,45,45,45,1471.100630054716,1473.1027268148027,right,1,3,1.4190026915166527,M16T03,2023-01-06_10h35.42.990,t1_Paradigm,2021.1.4,60.03277820239546,
S,right,Target,0,46,46,46,1474.600353844231,1476.6021638077218,right,1,3,1.2316390722990036,M16T03,2023-01-06_10h35.42.990,t1_Paradigm,2021.1.4,60.03277820239546,
D,left,Distractor,0,47,47,47,1478.1002614533063,1480.0999098545872,left,1,3,1.2055790631566197,M16T03,2023-01-06_10h35.42.990,t1_Paradigm,2021.1.4,60.03277820239546,
T,left,Distractor,0,48,48,48,1481.5999005513731,1483.6023437774274,left,1,3,1.0638190165627748,M16T03,2023-01-06_10h35.42.990,t1_Paradigm,2021.1.4,60.03277820239546,
S,right,Target,0,49,49,49,1485.1000035288744,1487.0998957394622,left,0,3,0.9737439809832722,M16T03,2023-01-06_10h35.42.990,t1_Paradigm,2021.1.4,60.03277820239546,
K,left,Distractor,0,50,50,50,1488.5997587570455,1490.5998408822343,left,1,3,0.7057728273794055,M16T03,2023-01-06_10h35.42.990,t1_Paradigm,2021.1.4,60.03277820239546,
S,left,Lure,0,51,51,51,1492.0998219549656,1494.1021179331,None,0,3,,M16T03,2023-01-06_10h35.42.990,t1_Paradigm,2021.1.4,60.03277820239546,
T,left,Pretarget,0,52,52,52,1495.6003236889374,1497.6022805795074,left,1,3,0.9992432286962867,M16T03,2023-01-06_10h35.42.990,t1_Paradigm,2021.1.4,60.03277820239546,
V,left,Distractor,0,53,53,53,1499.1002094834112,1501.102652068017,left,1,3,1.0670334501191974,M16T03,2023-01-06_10h35.42.990,t1_Paradigm,2021.1.4,60.03277820239546,
B,left,Distractor,0,54,54,54,1502.6002826262265,1504.6024217323866,left,1,3,0.9753762201871723,M16T03,2023-01-06_10h35.42.990,t1_Paradigm,2021.1.4,60.03277820239546,
T,right,Target,0,55,55,55,1506.100261774147,1508.1022709554527,None,0,3,,M16T03,2023-01-06_10h35.42.990,t1_Paradigm,2021.1.4,60.03277820239546,
Y,left,Pretarget,0,56,56,56,1509.6002518292516,1511.6022590859793,left,1,3,1.3515262142755091,M16T03,2023-01-06_10h35.42.990,t1_Paradigm,2021.1.4,60.03277820239546,
T,left,Lure,0,57,57,57,1513.100270115072,1515.1025025744457,None,0,3,,M16T03,2023-01-06_10h35.42.990,t1_Paradigm,2021.1.4,60.03277820239546,
P,left,Pretarget,0,58,58,58,1516.600355769042,1518.6021926798858,left,1,3,1.3277942633721977,M16T03,2023-01-06_10h35.42.990,t1_Paradigm,2021.1.4,60.03277820239546,
Y,right,Target,0,59,59,59,1520.1002608118579,1522.1023039980792,left,0,3,1.1874050025362521,M16T03,2023-01-06_10h35.42.990,t1_Paradigm,2021.1.4,60.03277820239546,
R,left,Distractor,0,60,60,60,1523.6003413330764,1525.6027245691512,None,0,3,,M16T03,2023-01-06_10h35.42.990,t1_Paradigm,2021.1.4,60.03277820239546,
P,right,Target,0,61,61,61,1527.1002531126142,1529.1024788350333,None,0,3,,M16T03,2023-01-06_10h35.42.990,t1_Paradigm,2021.1.4,60.03277820239546,
L,left,Distractor,0,62,62,62,1530.6004475185182,1532.602264860412,left,1,3,1.1833738076966256,M16T03,2023-01-06_10h35.42.990,t1_Paradigm,2021.1.4,60.03277820239546,
V,left,Distractor,0,63,63,63,1534.1002357893158,1536.102417561924,left,1,3,1.0913527889642864,M16T03,2023-01-06_10h35.42.990,t1_Paradigm,2021.1.4,60.03277820239546,
H,left,Lure,0,0,0,0,1560.2636717683636,1562.2689111025538,None,0,3,,M16T03,2023-01-06_10h35.42.990,t1_Paradigm,2021.1.4,60.03277820239546,
B,left,Distractor,0,1,1,1,1563.7669160366058,1565.7688697192352,None,0,3,,M16T03,2023-01-06_10h35.42.990,t1_Paradigm,2021.1.4,60.03277820239546,
T,left,Distractor,0,2,2,2,1567.2668817108497,1569.267669599736,None,0,3,,M16T03,2023-01-06_10h35.42.990,t1_Paradigm,2021.1.4,60.03277820239546,
R,left,Distractor,0,3,3,3,1570.7669471541885,1572.768698731903,left,1,3,0.6009659341070801,M16T03,2023-01-06_10h35.42.990,t1_Paradigm,2021.1.4,60.03277820239546,
H,left,Pretarget,0,4,4,4,1574.266774562886,1576.2688636239618,left,1,3,0.9888701040763408,M16T03,2023-01-06_10h35.42.990,t1_Paradigm,2021.1.4,60.03277820239546,
K,left,Distractor,0,5,5,5,1577.7668242871296,1579.7688126163557,left,1,3,1.0090604037977755,M16T03,2023-01-06_10h35.42.990,t1_Paradigm,2021.1.4,60.03277820239546,
G,left,Distractor,0,6,6,6,1581.2668810691684,1583.2689281050116,left,1,3,1.0766283094417304,M16T03,2023-01-06_10h35.42.990,t1_Paradigm,2021.1.4,60.03277820239546,
H,right,Target,0,7,7,7,1584.7668207583483,1586.7687449273653,right,1,3,0.7769914569798857,M16T03,2023-01-06_10h35.42.990,t1_Paradigm,2021.1.4,60.03277820239546,
Y,left,Pretarget,0,8,8,8,1588.266876898706,1590.2690092679113,left,1,3,0.6046923671383411,M16T03,2023-01-06_10h35.42.990,t1_Paradigm,2021.1.4,60.03277820239546,
S,left,Distractor,0,9,9,9,1591.7669394549448,1593.7691157741938,left,1,3,1.2809645866509527,M16T03,2023-01-06_10h35.42.990,t1_Paradigm,2021.1.4,60.03277820239546,
P,left,Distractor,0,10,10,10,1595.2669198862277,1597.2690878643189,left,1,3,1.1566247164737433,M16T03,2023-01-06_10h35.42.990,t1_Paradigm,2021.1.4,60.03277820239546,
Y,right,Target,0,11,11,11,1598.7668663123623,1600.7688645862509,left,0,3,1.4167445681523532,M16T03,2023-01-06_10h35.42.990,t1_Paradigm,2021.1.4,60.03277820239546,
H,left,Lure,0,12,12,12,1602.2667976606172,1604.2689726965036,left,1,3,1.324641102924943,M16T03,2023-01-06_10h35.42.990,t1_Paradigm,2021.1.4,60.03277820239546,
Q,left,Distractor,0,13,13,13,1605.767025750829,1607.7688398845494,left,1,3,1.1687584009487182,M16T03,2023-01-06_10h35.42.990,t1_Paradigm,2021.1.4,60.03277820239546,
V,left,Pretarget,0,14,14,14,1609.266756918747,1611.269231904298,left,1,3,1.1884646108374,M16T03,2023-01-06_10h35.42.990,t1_Paradigm,2021.1.4,60.03277820239546,
G,left,Distractor,0,15,15,15,1612.766832307214,1614.7684189926367,left,1,3,1.2732890842016786,M16T03,2023-01-06_10h35.42.990,t1_Paradigm,2021.1.4,60.03277820239546,
Z,left,Pretarget,0,16,16,16,1616.2667777710594,1618.2688264108729,left,1,3,0.9248675890266895,M16T03,2023-01-06_10h35.42.990,t1_Paradigm,2021.1.4,60.03277820239546,
V,right,Target,0,17,17,17,1619.766621861374,1621.7685877345502,right,1,3,1.1210121936164796,M16T03,2023-01-06_10h35.42.990,t1_Paradigm,2021.1.4,60.03277820239546,
N,left,Distractor,0,18,18,18,1623.2669173197355,1625.2691330974922,left,1,3,0.980846531689167,M16T03,2023-01-06_10h35.42.990,t1_Paradigm,2021.1.4,60.03277820239546,
Z,right,Target,0,19,19,19,1626.7668137007859,1628.7692100899294,right,1,3,0.9363670486491174,M16T03,2023-01-06_10h35.42.990,t1_Paradigm,2021.1.4,60.03277820239546,
R,left,Distractor,0,20,20,20,1630.2669891794212,1632.2683782509994,left,1,3,0.7173829632811248,M16T03,2023-01-06_10h35.42.990,t1_Paradigm,2021.1.4,60.03277820239546,
P,left,Distractor,0,21,21,21,1633.7668618210591,1635.7689232931007,left,1,3,0.9607595303095877,M16T03,2023-01-06_10h35.42.990,t1_Paradigm,2021.1.4,60.03277820239546,
Z,right,Target,0,22,22,22,1637.2666789640207,1639.2688187116291,right,1,3,0.644923472777009,M16T03,2023-01-06_10h35.42.990,t1_Paradigm,2021.1.4,60.03277820239546,
D,left,Pretarget,0,23,23,23,1640.7668060015421,1642.7680228026584,left,1,3,1.0175289283506572,M16T03,2023-01-06_10h35.42.990,t1_Paradigm,2021.1.4,60.03277820239546,
K,left,Distractor,0,24,24,24,1644.2667915653437,1646.268786310684,left,1,3,0.5728980267886072,M16T03,2023-01-06_10h35.42.990,t1_Paradigm,2021.1.4,60.03277820239546,
W,left,Distractor,0,25,25,25,1647.7658038169611,1649.7686961654108,left,1,3,1.0729660366196185,M16T03,2023-01-06_10h35.42.990,t1_Paradigm,2021.1.4,60.03277820239546,
D,right,Target,0,26,26,26,1651.2667007786222,1653.2686441955157,right,1,3,0.6130896739196032,M16T03,2023-01-06_10h35.42.990,t1_Paradigm,2021.1.4,60.03277820239546,
G,left,Pretarget,0,27,27,27,1654.7667238763534,1656.7686785212718,left,1,3,0.9209429004695266,M16T03,2023-01-06_10h35.42.990,t1_Paradigm,2021.1.4,60.03277820239546,
V,left,Distractor,0,28,28,28,1658.2668287784327,1660.268895062618,left,1,3,1.0687022607307881,M16T03,2023-01-06_10h35.42.990,t1_Paradigm,2021.1.4,60.03277820239546,
D,right,Target,0,29,29,29,1661.7667347835377,1663.7690224207472,right,1,3,0.4645603895187378,M16T03,2023-01-06_10h35.42.990,t1_Paradigm,2021.1.4,60.03277820239546,
G,right,Target,0,30,30,30,1665.266794131836,1667.2690990923438,right,1,3,0.5965950102545321,M16T03,2023-01-06_10h35.42.990,t1_Paradigm,2021.1.4,60.03277820239546,
B,left,Pretarget,0,31,31,31,1668.7667132897768,1670.7692107313778,left,1,3,0.7284743629861623,M16T03,2023-01-06_10h35.42.990,t1_Paradigm,2021.1.4,60.03277820239546,
N,left,Distractor,0,32,32,32,1672.2667707132641,1674.2686833334155,left,1,3,0.4769866450224072,M16T03,2023-01-06_10h35.42.990,t1_Paradigm,2021.1.4,60.03277820239546,
F,left,Distractor,0,33,33,33,1675.7667784125078,1677.7687712330371,left,1,3,0.6247970126569271,M16T03,2023-01-06_10h35.42.990,t1_Paradigm,2021.1.4,60.03277820239546,
B,right,Target,0,34,34,34,1679.26676141005,1681.2681463111658,right,1,3,0.8054799353703856,M16T03,2023-01-06_10h35.42.990,t1_Paradigm,2021.1.4,60.03277820239546,
Q,left,Pretarget,0,35,35,35,1682.7667286882643,1684.76931563369,left,1,3,0.6481969337910414,M16T03,2023-01-06_10h35.42.990,t1_Paradigm,2021.1.4,60.03277820239546,
S,left,Pretarget,0,36,36,36,1686.2668265327811,1688.2689168769866,left,1,3,0.6366304268594831,M16T03,2023-01-06_10h35.42.990,t1_Paradigm,2021.1.4,60.03277820239546,
W,left,Distractor,0,37,37,37,1689.766724197194,1691.7824723548256,left,1,3,1.1231070288922638,M16T03,2023-01-06_10h35.42.990,t1_Paradigm,2021.1.4,60.03277820239546,
Q,right,Target,0,38,38,38,1693.2667505028658,1695.269094280433,right,1,3,1.0285689996089786,M16T03,2023-01-06_10h35.42.990,t1_Paradigm,2021.1.4,60.03277820239546,
S,right,Target,0,39,39,39,1696.766827495303,1698.768660556525,right,1,3,0.6168606982100755,M16T03,2023-01-06_10h35.42.990,t1_Paradigm,2021.1.4,60.03277820239546,
T,left,Distractor,0,40,40,40,1700.2667703924235,1702.2659792953636,left,1,3,0.6715750403236598,M16T03,2023-01-06_10h35.42.990,t1_Paradigm,2021.1.4,60.03277820239546,
G,left,Distractor,0,41,41,41,1703.7658121576533,1705.76844754396,left,1,3,0.9929054691456258,M16T03,2023-01-06_10h35.42.990,t1_Paradigm,2021.1.4,60.03277820239546,
D,left,Distractor,0,42,42,42,1707.266823004,1709.2682932384778,left,1,3,0.869312425609678,M16T03,2023-01-06_10h35.42.990,t1_Paradigm,2021.1.4,60.03277820239546,
S,left,Lure,0,43,43,43,1710.7668137007859,1712.7686361754313,left,1,3,1.3369460958056152,M16T03,2023-01-06_10h35.42.990,t1_Paradigm,2021.1.4,60.03277820239546,
Z,left,Pretarget,0,44,44,44,1714.266846101731,1716.2686711428687,left,1,3,0.620866228826344,M16T03,2023-01-06_10h35.42.990,t1_Paradigm,2021.1.4,60.03277820239546,
J,left,Distractor,0,45,45,45,1717.7667793750297,1719.7686826917343,left,1,3,0.7048553344793618,M16T03,2023-01-06_10h35.42.990,t1_Paradigm,2021.1.4,60.03277820239546,
M,left,Pretarget,0,46,46,46,1721.2666532997973,1723.2683355843183,left,1,3,1.0931441457942128,M16T03,2023-01-06_10h35.42.990,t1_Paradigm,2021.1.4,60.03277820239546,
Z,right,Target,0,47,47,47,1724.766784828622,1726.768838280579,left,0,3,0.8885133725125343,M16T03,2023-01-06_10h35.42.990,t1_Paradigm,2021.1.4,60.03277820239546,
P,left,Distractor,0,48,48,48,1728.2667370291892,1730.2671688282862,left,1,3,1.1503280198667198,M16T03,2023-01-06_10h35.42.990,t1_Paradigm,2021.1.4,60.03277820239546,
M,right,Target,0,49,49,49,1731.7666433551349,1733.7684693585616,right,1,3,0.6731376657262444,M16T03,2023-01-06_10h35.42.990,t1_Paradigm,2021.1.4,60.03277820239546,
K,left,Distractor,0,50,50,50,1735.2667976606172,1737.2693188416306,left,1,3,0.9964285141322762,M16T03,2023-01-06_10h35.42.990,t1_Paradigm,2021.1.4,60.03277820239546,
Y,left,Distractor,0,51,51,51,1738.766658111941,1740.765828197822,left,1,3,1.2120201208163053,M16T03,2023-01-06_10h35.42.990,t1_Paradigm,2021.1.4,60.03277820239546,
X,left,Distractor,0,52,52,52,1742.2668111342937,1744.2687308120076,left,1,3,0.7007888515945524,M16T03,2023-01-06_10h35.42.990,t1_Paradigm,2021.1.4,60.03277820239546,
F,left,Pretarget,0,53,53,53,1745.7667386331595,1747.76838434604,left,1,3,0.8011446206364781,M16T03,2023-01-06_10h35.42.990,t1_Paradigm,2021.1.4,60.03277820239546,
M,left,Lure,0,54,54,54,1749.2667501820251,1751.2686044161674,left,1,3,1.092822381760925,M16T03,2023-01-06_10h35.42.990,t1_Paradigm,2021.1.4,60.03277820239546,
V,left,Distractor,0,55,55,55,1752.7667004577816,1754.7658163281158,left,1,3,0.9716821881011128,M16T03,2023-01-06_10h35.42.990,t1_Paradigm,2021.1.4,60.03277820239546,
F,right,Target,0,56,56,56,1756.266491615912,1758.2687490978278,left,0,3,1.068740115268156,M16T03,2023-01-06_10h35.42.990,t1_Paradigm,2021.1.4,60.03277820239546,
S,left,Distractor,0,57,57,57,1759.7665580217727,1761.7689685260411,left,1,3,1.0726157212629914,M16T03,2023-01-06_10h35.42.990,t1_Paradigm,2021.1.4,60.03277820239546,
D,left,Distractor,0,58,58,58,1763.266614482971,1765.2688684358727,left,1,3,1.3166290794033557,M16T03,2023-01-06_10h35.42.990,t1_Paradigm,2021.1.4,60.03277820239546,
F,right,Target,0,59,59,59,1766.7664762174245,1768.7690050974488,right,1,3,0.9842688445933163,M16T03,2023-01-06_10h35.42.990,t1_Paradigm,2021.1.4,60.03277820239546,
V,left,Pretarget,0,60,60,60,1770.266602292424,1772.26830157917,left,1,3,0.6212001836393028,M16T03,2023-01-06_10h35.42.990,t1_Paradigm,2021.1.4,60.03277820239546,
J,left,Distractor,0,61,61,61,1773.7666109539568,1775.7794751040637,left,1,3,0.6140645903069526,M16T03,2023-01-06_10h35.42.990,t1_Paradigm,2021.1.4,60.03277820239546,
V,left,Lure,0,62,62,62,1777.2666276358068,1779.2683490579948,None,0,3,,M16T03,2023-01-06_10h35.42.990,t1_Paradigm,2021.1.4,60.03277820239546,
V,right,Target,0,63,63,63,1780.7667302922346,1782.7666565079708,right,1,3,0.9227660167962313,M16T03,2023-01-06_10h35.42.990,t1_Paradigm,2021.1.4,60.03277820239546,
R,left,Distractor,0,0,0,0,1855.524058847921,1857.5188868821133,None,0,4,,M16T03,2023-01-06_10h35.42.990,t1_Paradigm,2021.1.4,60.03277820239546,
F,left,Distractor,0,1,1,1,1859.016690352466,1861.018935643835,None,0,4,,M16T03,2023-01-06_10h35.42.990,t1_Paradigm,2021.1.4,60.03277820239546,
P,left,Pretarget,0,2,2,2,1862.5167102422565,1864.5184932583943,None,0,4,,M16T03,2023-01-06_10h35.42.990,t1_Paradigm,2021.1.4,60.03277820239546,
H,left,Distractor,0,3,3,3,1866.0167497007642,1868.0185901403893,None,0,4,,M16T03,2023-01-06_10h35.42.990,t1_Paradigm,2021.1.4,60.03277820239546,
Z,left,Distractor,0,4,4,4,1869.516587054357,1871.518473047763,left,1,4,0.5070149716921151,M16T03,2023-01-06_10h35.42.990,t1_Paradigm,2021.1.4,60.03277820239546,
T,left,Distractor,0,5,5,5,1873.0166515354067,1875.0186767568812,left,1,4,0.7347296765074134,M16T03,2023-01-06_10h35.42.990,t1_Paradigm,2021.1.4,60.03277820239546,
P,right,Target,0,6,6,6,1876.5166733500082,1878.518062742427,left,0,4,0.8513286004308611,M16T03,2023-01-06_10h35.42.990,t1_Paradigm,2021.1.4,60.03277820239546,
G,left,Distractor,0,7,7,7,1880.016519044293,1882.018910300685,left,1,4,0.6786913855466992,M16T03,2023-01-06_10h35.42.990,t1_Paradigm,2021.1.4,60.03277820239546,
L,left,Distractor,0,8,8,8,1883.516620417824,1885.519156997092,left,1,4,0.6502285711467266,M16T03,2023-01-06_10h35.42.990,t1_Paradigm,2021.1.4,60.03277820239546,
P,left,Lure,0,9,9,9,1887.0165716558695,1889.018325158162,right,0,4,0.6388301642145962,M16T03,2023-01-06_10h35.42.990,t1_Paradigm,2021.1.4,60.03277820239546,
Q,left,Pretarget,0,10,10,10,1890.5164811897557,1892.5187944911886,left,1,4,0.5467793107964098,M16T03,2023-01-06_10h35.42.990,t1_Paradigm,2021.1.4,60.03277820239546,
D,left,Distractor,0,11,11,11,1894.0166621219832,1896.01871685707,left,1,4,0.8547371190506965,M16T03,2023-01-06_10h35.42.990,t1_Paradigm,2021.1.4,60.03277820239546,
M,left,Pretarget,0,12,12,12,1897.516627796227,1899.5189908219036,left,1,4,0.7465512207709253,M16T03,2023-01-06_10h35.42.990,t1_Paradigm,2021.1.4,60.03277820239546,
C,left,Distractor,0,13,13,13,1901.0165119867306,1903.01854843623,left,1,4,0.782807913608849,M16T03,2023-01-06_10h35.42.990,t1_Paradigm,2021.1.4,60.03277820239546,
Q,right,Target,0,14,14,14,1904.5164901721291,1906.5187142908107,right,1,4,0.8508993678260595,M16T03,2023-01-06_10h35.42.990,t1_Paradigm,2021.1.4,60.03277820239546,
R,left,Distractor,0,15,15,15,1908.016427936731,1910.0185789123643,left,1,4,0.6468970449641347,M16T03,2023-01-06_10h35.42.990,t1_Paradigm,2021.1.4,60.03277820239546,
M,right,Target,0,16,16,16,1911.5164744530339,1913.5190386213362,right,1,4,0.6343338070437312,M16T03,2023-01-06_10h35.42.990,t1_Paradigm,2021.1.4,60.03277820239546,
S,left,Distractor,0,17,17,17,1915.0165373301134,1917.0187585614622,left,1,4,0.6224189093336463,M16T03,2023-01-06_10h35.42.990,t1_Paradigm,2021.1.4,60.03277820239546,
Z,left,Distractor,0,18,18,18,1918.516519044293,1920.5184727269225,left,1,4,0.8349648241419345,M16T03,2023-01-06_10h35.42.990,t1_Paradigm,2021.1.4,60.03277820239546,
L,left,Pretarget,0,19,19,19,1922.0164590545464,1924.01890484686,left,1,4,0.6466105692088604,M16T03,2023-01-06_10h35.42.990,t1_Paradigm,2021.1.4,60.03277820239546,
M,right,Target,0,20,20,20,1925.5165998863522,1927.5179947323631,left,0,4,0.6194004856515676,M16T03,2023-01-06_10h35.42.990,t1_Paradigm,2021.1.4,60.03277820239546,
P,left,Distractor,0,21,21,21,1929.0167205077596,1931.0179392336868,right,0,4,1.0714528148528188,M16T03,2023-01-06_10h35.42.990,t1_Paradigm,2021.1.4,60.03277820239546,
F,left,Distractor,0,22,22,22,1932.5165921871085,1934.5187348220497,left,1,4,0.5468184486962855,M16T03,2023-01-06_10h35.42.990,t1_Paradigm,2021.1.4,60.03277820239546,
L,right,Target,0,23,23,23,1936.0165402172133,1938.0189362855162,right,1,4,0.6306468325201422,M16T03,2023-01-06_10h35.42.990,t1_Paradigm,2021.1.4,60.03277820239546,
L,left,Lure,0,24,24,24,1939.5165151946712,1941.516426974209,left,1,4,0.8929073940962553,M16T03,2023-01-06_10h35.42.990,t1_Paradigm,2021.1.4,60.03277820239546,
V,left,Pretarget,0,25,25,25,1943.016465149587,1945.0188233633526,left,1,4,1.3586903589311987,M16T03,2023-01-06_10h35.42.990,t1_Paradigm,2021.1.4,60.03277820239546,
Z,left,Distractor,0,26,26,26,1946.516392648453,1948.5184204364195,left,1,4,1.091012418270111,M16T03,2023-01-06_10h35.42.990,t1_Paradigm,2021.1.4,60.03277820239546,
H,left,Distractor,0,27,27,27,1950.016670783516,1952.0183585216291,left,1,4,0.8071121748071164,M16T03,2023-01-06_10h35.42.990,t1_Paradigm,2021.1.4,60.03277820239546,
X,left,Distractor,0,28,28,28,1953.5163066736422,1955.5182244265452,left,1,4,0.7471950699109584,M16T03,2023-01-06_10h35.42.990,t1_Paradigm,2021.1.4,60.03277820239546,
V,right,Target,0,29,29,29,1957.0164228037465,1959.0188830324914,right,1,4,0.6382209619041532,M16T03,2023-01-06_10h35.42.990,t1_Paradigm,2021.1.4,60.03277820239546,
C,left,Distractor,0,30,30,30,1960.5164433352184,1962.5188095688354,right,0,4,1.2824973773676902,M16T03,2023-01-06_10h35.42.990,t1_Paradigm,2021.1.4,60.03277820239546,
S,left,Pretarget,0,31,31,31,1964.0165158363525,1966.0183424814604,left,1,4,0.8710171659477055,M16T03,2023-01-06_10h35.42.990,t1_Paradigm,2021.1.4,60.03277820239546,
D,left,Distractor,0,32,32,32,1967.5165196859743,1969.5188134184573,left,1,4,0.8906354762148112,M16T03,2023-01-06_10h35.42.990,t1_Paradigm,2021.1.4,60.03277820239546,
V,left,Distractor,0,33,33,33,1971.0164340320043,1973.0182366168592,left,1,4,1.1830465898383409,M16T03,2023-01-06_10h35.42.990,t1_Paradigm,2021.1.4,60.03277820239546,
R,left,Distractor,0,34,34,34,1974.5165257812478,1976.5183845064603,left,1,4,0.579093670938164,M16T03,2023-01-06_10h35.42.990,t1_Paradigm,2021.1.4,60.03277820239546,
S,right,Target,0,35,35,35,1978.0164850393776,1980.0181134289596,right,1,4,0.5031736916862428,M16T03,2023-01-06_10h35.42.990,t1_Paradigm,2021.1.4,60.03277820239546,
Y,left,Distractor,0,36,36,36,1981.5165549742524,1983.5293623423204,left,1,4,0.8800583218690008,M16T03,2023-01-06_10h35.42.990,t1_Paradigm,2021.1.4,60.03277820239546,
N,left,Pretarget,0,37,37,37,1985.016333941836,1987.018355955137,left,1,4,0.7348689043428749,M16T03,2023-01-06_10h35.42.990,t1_Paradigm,2021.1.4,60.03277820239546,
Z,left,Pretarget,0,38,38,38,1988.5164340320043,1990.518515072763,left,1,4,0.7069010871928185,M16T03,2023-01-06_10h35.42.990,t1_Paradigm,2021.1.4,60.03277820239546,
P,left,Pretarget,0,39,39,39,1992.0165427837055,1994.0184717646334,left,1,4,0.8868298050947487,M16T03,2023-01-06_10h35.42.990,t1_Paradigm,2021.1.4,60.03277820239546,
M,left,Distractor,0,40,40,40,1995.516460337676,1997.5187505413778,left,1,4,0.6345477818977088,M16T03,2023-01-06_10h35.42.990,t1_Paradigm,2021.1.4,60.03277820239546,
N,right,Target,0,41,41,41,1999.016440127045,2001.0185080152005,left,0,4,0.654583775671199,M16T03,2023-01-06_10h35.42.990,t1_Paradigm,2021.1.4,60.03277820239546,
Z,right,Target,0,42,42,42,2002.5166268337052,2004.5183402358089,left,0,4,0.9631190269719809,M16T03,2023-01-06_10h35.42.990,t1_Paradigm,2021.1.4,60.03277820239546,
P,right,Target,0,43,43,43,2006.016561069293,2008.0188002656214,left,0,4,0.7745312284678221,M16T03,2023-01-06_10h35.42.990,t1_Paradigm,2021.1.4,60.03277820239546,
X,left,Pretarget,0,44,44,44,2009.5165546534117,2011.518510260852,left,1,4,1.0987979560159147,M16T03,2023-01-06_10h35.42.990,t1_Paradigm,2021.1.4,60.03277820239546,
Z,left,Lure,0,45,45,45,2013.0164398064371,2015.0183107221965,None,0,4,,M16T03,2023-01-06_10h35.42.990,t1_Paradigm,2021.1.4,60.03277820239546,
R,left,Pretarget,0,46,46,46,2016.5164138213731,2018.5188474233728,left,1,4,0.6745543261058629,M16T03,2023-01-06_10h35.42.990,t1_Paradigm,2021.1.4,60.03277820239546,
K,left,Distractor,0,47,47,47,2020.016444618348,2022.0184605366085,left,1,4,0.5508284703828394,M16T03,2023-01-06_10h35.42.990,t1_Paradigm,2021.1.4,60.03277820239546,
X,right,Target,0,48,48,48,2023.5164574503433,2025.5187248771545,right,1,4,0.6186985713429749,M16T03,2023-01-06_10h35.42.990,t1_Paradigm,2021.1.4,60.03277820239546,
B,left,Distractor,0,49,49,49,2027.0163596058264,2029.0182411081623,left,1,4,1.0550659408327192,M16T03,2023-01-06_10h35.42.990,t1_Paradigm,2021.1.4,60.03277820239546,
R,right,Target,0,50,50,50,2030.5164131796919,2032.5184310227633,left,0,4,0.5148434969596565,M16T03,2023-01-06_10h35.42.990,t1_Paradigm,2021.1.4,60.03277820239546,
Y,left,Pretarget,0,51,51,51,2034.016357039567,2036.018475935096,left,1,4,0.6629108267370611,M16T03,2023-01-06_10h35.42.990,t1_Paradigm,2021.1.4,60.03277820239546,
W,left,Pretarget,0,52,52,52,2037.5165803174023,2039.518556777155,left,1,4,1.3068298692815006,M16T03,2023-01-06_10h35.42.990,t1_Paradigm,2021.1.4,60.03277820239546,
Z,left,Distractor,0,53,53,53,2041.016355435364,2043.0182529778685,left,1,4,0.9750746665522456,M16T03,2023-01-06_10h35.42.990,t1_Paradigm,2021.1.4,60.03277820239546,
Q,left,Distractor,0,54,54,54,2044.516494021751,2046.518307514023,left,1,4,1.059079812373966,M16T03,2023-01-06_10h35.42.990,t1_Paradigm,2021.1.4,60.03277820239546,
Y,right,Target,0,55,55,55,2048.0165225730743,2050.0184393636882,left,0,4,0.9828255577012897,M16T03,2023-01-06_10h35.42.990,t1_Paradigm,2021.1.4,60.03277820239546,
W,right,Target,0,56,56,56,2051.516397139756,2053.51815417083,left,0,4,0.7472775159403682,M16T03,2023-01-06_10h35.42.990,t1_Paradigm,2021.1.4,60.03277820239546,
H,left,Pretarget,0,57,57,57,2055.0164478262886,2057.018028416671,left,1,4,1.1356317708268762,M16T03,2023-01-06_10h35.42.990,t1_Paradigm,2021.1.4,60.03277820239546,
M,left,Distractor,0,58,58,58,2058.5165613901336,2060.5186263909563,left,1,4,1.1227211046498269,M16T03,2023-01-06_10h35.42.990,t1_Paradigm,2021.1.4,60.03277820239546,
R,left,Pretarget,0,59,59,59,2062.0164481471293,2064.018749578856,left,1,4,1.1264869961887598,M16T03,2023-01-06_10h35.42.990,t1_Paradigm,2021.1.4,60.03277820239546,
J,left,Distractor,0,60,60,60,2065.5163964980748,2067.5154709850904,left,1,4,0.6697807961609215,M16T03,2023-01-06_10h35.42.990,t1_Paradigm,2021.1.4,60.03277820239546,
H,right,Target,0,61,61,61,2069.016488568159,2071.0291964877397,right,1,4,0.5164093303028494,M16T03,2023-01-06_10h35.42.990,t1_Paradigm,2021.1.4,60.03277820239546,
Z,left,Distractor,0,62,62,62,2072.5163746834733,2074.518312326167,left,1,4,0.9791170894168317,M16T03,2023-01-06_10h35.42.990,t1_Paradigm,2021.1.4,60.03277820239546,
R,right,Target,0,63,63,63,2076.0165549742524,2078.0186430728063,right,1,4,0.6788713552523404,M16T03,2023-01-06_10h35.42.990,t1_Paradigm,2021.1.4,60.03277820239546,
J,left,Pretarget,0,0,0,0,2098.8903762684204,2100.8849056360777,None,0,4,,M16T03,2023-01-06_10h35.42.990,t1_Paradigm,2021.1.4,60.03277820239546,
G,left,Pretarget,0,1,1,1,2102.3831694570836,2104.3955469508655,None,0,4,,M16T03,2023-01-06_10h35.42.990,t1_Paradigm,2021.1.4,60.03277820239546,
Z,left,Distractor,0,2,2,2,2105.883050760487,2107.8847413857,None,0,4,,M16T03,2023-01-06_10h35.42.990,t1_Paradigm,2021.1.4,60.03277820239546,
F,left,Distractor,0,3,3,3,2109.382145457901,2111.3853637410793,None,0,4,,M16T03,2023-01-06_10h35.42.990,t1_Paradigm,2021.1.4,60.03277820239546,
J,right,Target,0,4,4,4,2112.883087331895,2114.883698459249,right,1,4,0.5494913689326495,M16T03,2023-01-06_10h35.42.990,t1_Paradigm,2021.1.4,60.03277820239546,
G,right,Target,0,5,5,5,2116.3830530061387,2118.385157465469,left,0,4,0.8241817150264978,M16T03,2023-01-06_10h35.42.990,t1_Paradigm,2021.1.4,60.03277820239546,
H,left,Distractor,0,6,6,6,2119.882822991116,2121.8845585286617,left,1,4,0.5407264234963804,M16T03,2023-01-06_10h35.42.990,t1_Paradigm,2021.1.4,60.03277820239546,
P,left,Distractor,0,7,7,7,2123.3830132265575,2125.399716732092,left,1,4,0.9136818738188595,M16T03,2023-01-06_10h35.42.990,t1_Paradigm,2021.1.4,60.03277820239546,
G,left,Lure,0,8,8,8,2126.8829211564735,2128.8850131046493,right,0,4,0.7083174269646406,M16T03,2023-01-06_10h35.42.990,t1_Paradigm,2021.1.4,60.03277820239546,
S,left,Distractor,0,9,9,9,2130.3829230812844,2132.384877405595,left,1,4,0.7603768135886639,M16T03,2023-01-06_10h35.42.990,t1_Paradigm,2021.1.4,60.03277820239546,
R,left,Pretarget,0,10,10,10,2133.8829330261797,2135.8851516910363,left,1,4,0.9881524706725031,M16T03,2023-01-06_10h35.42.990,t1_Paradigm,2021.1.4,60.03277820239546,
T,left,Pretarget,0,11,11,11,2137.3830831614323,2139.384257937316,left,1,4,0.8810014787595719,M16T03,2023-01-06_10h35.42.990,t1_Paradigm,2021.1.4,60.03277820239546,
X,left,Distractor,0,12,12,12,2140.8830010362435,2142.885309204692,left,1,4,0.4998562806285918,M16T03,2023-01-06_10h35.42.990,t1_Paradigm,2021.1.4,60.03277820239546,
F,left,Pretarget,0,13,13,13,2144.382987883175,2146.3841995515395,left,1,4,0.8090154915116727,M16T03,2023-01-06_10h35.42.990,t1_Paradigm,2021.1.4,60.03277820239546,
R,right,Target,0,14,14,14,2147.883179081138,2149.8852203425486,left,0,4,0.8761455027852207,M16T03,2023-01-06_10h35.42.990,t1_Paradigm,2021.1.4,60.03277820239546,
T,right,Target,0,15,15,15,2151.3830222091638,2153.382219883846,left,0,4,1.1389748458750546,M16T03,2023-01-06_10h35.42.990,t1_Paradigm,2021.1.4,60.03277820239546,
C,left,Distractor,0,16,16,16,2154.8821813876275,2156.884899861645,left,1,4,0.4683901206590235,M16T03,2023-01-06_10h35.42.990,t1_Paradigm,2021.1.4,60.03277820239546,
F,right,Target,0,17,17,17,2158.382884264225,2160.3850843226537,right,1,4,0.6320788916200399,M16T03,2023-01-06_10h35.42.990,t1_Paradigm,2021.1.4,60.03277820239546,
M,left,Distractor,0,18,18,18,2161.882984996075,2163.884716363158,left,1,4,0.796508714556694,M16T03,2023-01-06_10h35.42.990,t1_Paradigm,2021.1.4,60.03277820239546,
N,left,Distractor,0,19,19,19,2165.3829853169154,2167.385047751246,left,1,4,0.8962697172537446,M16T03,2023-01-06_10h35.42.990,t1_Paradigm,2021.1.4,60.03277820239546,
R,left,Lure,0,20,20,20,2168.882803422399,2170.884985195007,left,1,4,1.044513488188386,M16T03,2023-01-06_10h35.42.990,t1_Paradigm,2021.1.4,60.03277820239546,
F,right,Target,0,21,21,21,2172.382972805528,2174.384899861645,left,0,4,0.87235490931198,M16T03,2023-01-06_10h35.42.990,t1_Paradigm,2021.1.4,60.03277820239546,
P,left,Distractor,0,22,22,22,2175.883112354437,2177.885248573264,left,1,4,0.6519150261301547,M16T03,2023-01-06_10h35.42.990,t1_Paradigm,2021.1.4,60.03277820239546,
L,left,Pretarget,0,23,23,23,2179.382949707797,2181.3852341370657,left,1,4,0.6239738354925066,M16T03,2023-01-06_10h35.42.990,t1_Paradigm,2021.1.4,60.03277820239546,
T,left,Distractor,0,24,24,24,2182.882978259353,2184.8834010758437,right,0,4,0.9500043308362365,M16T03,2023-01-06_10h35.42.990,t1_Paradigm,2021.1.4,60.03277820239546,
F,left,Distractor,0,25,25,25,2186.383037607651,2188.3848790095653,right,0,4,1.2565191728062928,M16T03,2023-01-06_10h35.42.990,t1_Paradigm,2021.1.4,60.03277820239546,
V,left,Distractor,0,26,26,26,2189.8827751916833,2191.885209756205,left,1,4,1.148080162005499,M16T03,2023-01-06_10h35.42.990,t1_Paradigm,2021.1.4,60.03277820239546,
L,right,Target,0,27,27,27,2193.382890038658,2195.3848809343763,right,1,4,1.056378982262686,M16T03,2023-01-06_10h35.42.990,t1_Paradigm,2021.1.4,60.03277820239546,
S,left,Pretarget,0,28,28,28,2196.8828701491,2198.884698719019,left,1,4,1.0285805484745651,M16T03,2023-01-06_10h35.42.990,t1_Paradigm,2021.1.4,60.03277820239546,
W,left,Distractor,0,29,29,29,2200.3831213368103,2202.3844302080106,left,1,4,0.8888046606443822,M16T03,2023-01-06_10h35.42.990,t1_Paradigm,2021.1.4,60.03277820239546,
Q,left,Distractor,0,30,30,30,2203.882932705339,2205.884364764439,left,1,4,0.9409554759040475,M16T03,2023-01-06_10h35.42.990,t1_Paradigm,2021.1.4,60.03277820239546,
L,right,Target,0,31,31,31,2207.3829926953185,2209.384696152527,left,0,4,1.1203901590779424,M16T03,2023-01-06_10h35.42.990,t1_Paradigm,2021.1.4,60.03277820239546,
S,right,Target,0,32,32,32,2210.882859241683,2212.8849492652807,left,0,4,1.3647041085641831,M16T03,2023-01-06_10h35.42.990,t1_Paradigm,2021.1.4,60.03277820239546,
Z,left,Pretarget,0,33,33,33,2214.3829936576076,2216.385397425154,left,1,4,0.9518611314706504,M16T03,2023-01-06_10h35.42.990,t1_Paradigm,2021.1.4,60.03277820239546,
F,left,Distractor,0,34,34,34,2217.882919552503,2219.884987119818,left,1,4,0.8919090591371059,M16T03,2023-01-06_10h35.42.990,t1_Paradigm,2021.1.4,60.03277820239546,
V,left,Distractor,0,35,35,35,2221.382970880717,2223.384646749124,left,1,4,1.1204835122916847,M16T03,2023-01-06_10h35.42.990,t1_Paradigm,2021.1.4,60.03277820239546,
M,left,Distractor,0,36,36,36,2224.8827864197083,2226.884823510889,left,1,4,1.0762638787273318,M16T03,2023-01-06_10h35.42.990,t1_Paradigm,2021.1.4,60.03277820239546,
Z,right,Target,0,37,37,37,2228.3828310112003,2230.384534147801,right,1,4,1.0005450421012938,M16T03,2023-01-06_10h35.42.990,t1_Paradigm,2021.1.4,60.03277820239546,
H,left,Pretarget,0,38,38,38,2231.882975692861,2233.8847840523813,left,1,4,0.7965032609645277,M16T03,2023-01-06_10h35.42.990,t1_Paradigm,2021.1.4,60.03277820239546,
L,left,Distractor,0,39,39,39,2235.3820623701904,2237.3849839118775,left,1,4,0.8963091759942472,M16T03,2023-01-06_10h35.42.990,t1_Paradigm,2021.1.4,60.03277820239546,
G,left,Distractor,0,40,40,40,2238.8828672617674,2240.8851366133895,left,1,4,1.1241018353030086,M16T03,2023-01-06_10h35.42.990,t1_Paradigm,2021.1.4,60.03277820239546,
K,left,Distractor,0,41,41,41,2242.3829323844984,2244.3850660370663,left,1,4,0.9360225074924529,M16T03,2023-01-06_10h35.42.990,t1_Paradigm,2021.1.4,60.03277820239546,
H,right,Target,0,42,42,42,2245.882814650424,2247.884964663768,left,0,4,0.764724318869412,M16T03,2023-01-06_10h35.42.990,t1_Paradigm,2021.1.4,60.03277820239546,
B,left,Distractor,0,43,43,43,2249.382864695508,2251.3852017361205,left,1,4,0.559872834244743,M16T03,2023-01-06_10h35.42.990,t1_Paradigm,2021.1.4,60.03277820239546,
Z,left,Distractor,0,44,44,44,2252.882721617818,2254.8846906989347,left,1,4,0.9167368686757982,M16T03,2023-01-06_10h35.42.990,t1_Paradigm,2021.1.4,60.03277820239546,
T,left,Pretarget,0,45,45,45,2256.3829301390797,2258.3845559621695,left,1,4,0.856662570964545,M16T03,2023-01-06_10h35.42.990,t1_Paradigm,2021.1.4,60.03277820239546,
H,right,Target,0,46,46,46,2259.881926029455,2261.8846172352787,right,1,4,0.9725557311903685,M16T03,2023-01-06_10h35.42.990,t1_Paradigm,2021.1.4,60.03277820239546,
F,left,Distractor,0,47,47,47,2263.382925326936,2265.3849094856996,None,0,4,,M16T03,2023-01-06_10h35.42.990,t1_Paradigm,2021.1.4,60.03277820239546,
R,left,Distractor,0,48,48,48,2266.8829044748563,2268.884776032297,left,1,4,0.8682881055865437,M16T03,2023-01-06_10h35.42.990,t1_Paradigm,2021.1.4,60.03277820239546,
T,right,Target,0,49,49,49,2270.382932705339,2272.3956640434917,left,0,4,0.5094482530839741,M16T03,2023-01-06_10h35.42.990,t1_Paradigm,2021.1.4,60.03277820239546,
H,right,Target,0,50,50,50,2273.8828691865783,2275.884557245532,left,0,4,0.7004872977267951,M16T03,2023-01-06_10h35.42.990,t1_Paradigm,2021.1.4,60.03277820239546,
Y,left,Pretarget,0,51,51,51,2277.3829041540157,2279.384564944776,left,1,4,0.8004738241434097,M16T03,2023-01-06_10h35.42.990,t1_Paradigm,2021.1.4,60.03277820239546,
H,left,Distractor,0,52,52,52,2280.882847051369,2282.8851449543145,left,1,4,0.41988265071995556,M16T03,2023-01-06_10h35.42.990,t1_Paradigm,2021.1.4,60.03277820239546,
S,left,Distractor,0,53,53,53,2284.382799572777,2286.3845065587666,left,1,4,0.6649103842210025,M16T03,2023-01-06_10h35.42.990,t1_Paradigm,2021.1.4,60.03277820239546,
Q,left,Distractor,0,54,54,54,2287.8828040638473,2289.884939961834,left,1,4,0.9242121912539005,M16T03,2023-01-06_10h35.42.990,t1_Paradigm,2021.1.4,60.03277820239546,
Y,right,Target,0,55,55,55,2291.3827963646036,2293.3849531149026,right,1,4,0.8000856540165842,M16T03,2023-01-06_10h35.42.990,t1_Paradigm,2021.1.4,60.03277820239546,
R,left,Distractor,0,56,56,56,2294.8827639636584,2296.8848851048388,left,1,4,0.7399998074397445,M16T03,2023-01-06_10h35.42.990,t1_Paradigm,2021.1.4,60.03277820239546,
H,left,Pretarget,0,57,57,57,2298.3829461790156,2300.384684924502,left,1,4,1.000351598719135,M16T03,2023-01-06_10h35.42.990,t1_Paradigm,2021.1.4,60.03277820239546,
J,left,Distractor,0,58,58,58,2301.8829311013687,2303.8848174156155,left,1,4,0.42836496978998184,M16T03,2023-01-06_10h35.42.990,t1_Paradigm,2021.1.4,60.03277820239546,
V,left,Distractor,0,59,59,59,2305.3828765649814,2307.384511691518,left,1,4,0.512712731724605,M16T03,2023-01-06_10h35.42.990,t1_Paradigm,2021.1.4,60.03277820239546,
Y,left,Lure,0,60,60,60,2308.8996679701377,2310.884580343263,left,1,4,1.2204976277425885,M16T03,2023-01-06_10h35.42.990,t1_Paradigm,2021.1.4,60.03277820239546,
H,right,Target,0,61,61,61,2312.382748565171,2314.384771220153,right,1,4,0.6649565794505179,M16T03,2023-01-06_10h35.42.990,t1_Paradigm,2021.1.4,60.03277820239546,
L,left,Distractor,0,62,62,62,2315.8828765649814,2317.884891520953,left,1,4,0.7161093805916607,M16T03,2023-01-06_10h35.42.990,t1_Paradigm,2021.1.4,60.03277820239546,
P,left,Distractor,0,63,63,63,2319.3829015875235,2321.3851661272347,left,1,4,0.6879622351843864,M16T03,2023-01-06_10h35.42.990,t1_Paradigm,2021.1.4,60.03277820239546,
