Letter,CorrAnswer,Stimulus,nback_run.thisRepN,nback_run.thisTrialN,nback_run.thisN,nback_run.thisIndex,fixcross.started,nback_trial.started,trial_resp.keys,trial_resp.corr,currentlevel,trial_resp.rt,Participant,date,expName,psychopyVersion,frameRate,
H,left,Distractor,0,0,0,0,438.47780559491366,440.42373656714335,None,0,1,,M18T09,2022-11-01_16h17.42.928,t1_Paradigm,2021.1.4,59.981565932363786,
Q,left,Pretarget,0,1,1,1,441.92012144299224,443.92318863637047,left,1,1,0.7259617821546271,M18T09,2022-11-01_16h17.42.928,t1_Paradigm,2021.1.4,59.981565932363786,
Q,right,Target,0,2,2,2,445.42005407443503,447.4201342751039,right,1,1,0.6209428901202045,M18T09,2022-11-01_16h17.42.928,t1_Paradigm,2021.1.4,59.981565932363786,
T,left,Distractor,0,3,3,3,448.9200977035798,450.92193975194823,left,1,1,0.5273179429350421,M18T09,2022-11-01_16h17.42.928,t1_Paradigm,2021.1.4,59.981565932363786,
Q,left,Lure,0,4,4,4,452.4200874379021,454.4220886043622,left,1,1,0.4030050217988901,M18T09,2022-11-01_16h17.42.928,t1_Paradigm,2021.1.4,59.981565932363786,
L,left,Distractor,0,5,5,5,455.92010283644777,457.92216206813464,left,1,1,1.1112321962718852,M18T09,2022-11-01_16h17.42.928,t1_Paradigm,2021.1.4,59.981565932363786,
V,left,Pretarget,0,6,6,6,459.4201836786815,461.42200712050544,left,1,1,0.6990820555365644,M18T09,2022-11-01_16h17.42.928,t1_Paradigm,2021.1.4,59.981565932363786,
V,right,Target,0,7,7,7,462.9199469264131,464.920219929365,right,1,1,0.6568365273415111,M18T09,2022-11-01_16h17.42.928,t1_Paradigm,2021.1.4,59.981565932363786,
K,left,Distractor,0,8,8,8,466.42008230509236,468.4223006548709,left,1,1,0.6110663413419388,M18T09,2022-11-01_16h17.42.928,t1_Paradigm,2021.1.4,59.981565932363786,
G,left,Pretarget,0,9,9,9,469.92028537311126,471.92231861979235,left,1,1,0.614718678581994,M18T09,2022-11-01_16h17.42.928,t1_Paradigm,2021.1.4,59.981565932363786,
G,right,Target,0,10,10,10,473.4201227261801,475.42027959867846,right,1,1,0.6688159369514324,M18T09,2022-11-01_16h17.42.928,t1_Paradigm,2021.1.4,59.981565932363786,
G,right,Target,0,11,11,11,476.92019330279436,478.91996489133453,right,1,1,0.5611212306539528,M18T09,2022-11-01_16h17.42.928,t1_Paradigm,2021.1.4,59.981565932363786,
P,left,Pretarget,0,12,12,12,480.4201807914651,482.42212293023476,left,1,1,0.4669974354910664,M18T09,2022-11-01_16h17.42.928,t1_Paradigm,2021.1.4,59.981565932363786,
P,right,Target,0,13,13,13,483.9200797386584,485.92018528271,right,1,1,0.8250718116760254,M18T09,2022-11-01_16h17.42.928,t1_Paradigm,2021.1.4,59.981565932363786,
G,left,Lure,0,14,14,14,487.42020517244237,489.4223102789256,left,1,1,0.9869083678931929,M18T09,2022-11-01_16h17.42.928,t1_Paradigm,2021.1.4,59.981565932363786,
Y,left,Distractor,0,15,15,15,490.92013748310274,492.92211266455706,left,1,1,0.8474205227685161,M18T09,2022-11-01_16h17.42.928,t1_Paradigm,2021.1.4,59.981565932363786,
B,left,Distractor,0,16,16,16,494.42030269646784,496.42203663435066,left,1,1,0.5313658297527581,M18T09,2022-11-01_16h17.42.928,t1_Paradigm,2021.1.4,59.981565932363786,
T,left,Pretarget,0,17,17,17,497.9202087012818,499.9217347591184,left,1,1,0.7434131212066859,M18T09,2022-11-01_16h17.42.928,t1_Paradigm,2021.1.4,59.981565932363786,
T,right,Target,0,18,18,18,501.42022121261107,503.4201410119422,right,1,1,0.653024751227349,M18T09,2022-11-01_16h17.42.928,t1_Paradigm,2021.1.4,59.981565932363786,
S,left,Distractor,0,19,19,19,504.9201455031871,506.9227812170866,left,1,1,0.7024437456857413,M18T09,2022-11-01_16h17.42.928,t1_Paradigm,2021.1.4,59.981565932363786,
T,left,Lure,0,20,20,20,508.4201519192429,510.42236706102267,left,1,1,0.7549411615473218,M18T09,2022-11-01_16h17.42.928,t1_Paradigm,2021.1.4,59.981565932363786,
J,left,Distractor,0,21,21,21,511.9203476088005,513.9222464392078,left,1,1,0.9829490225529298,M18T09,2022-11-01_16h17.42.928,t1_Paradigm,2021.1.4,59.981565932363786,
P,left,Distractor,0,22,22,22,515.4202581049176,517.4209234494483,left,1,1,0.7164894446032122,M18T09,2022-11-01_16h17.42.928,t1_Paradigm,2021.1.4,59.981565932363786,
F,left,Distractor,0,23,23,23,518.920168280194,520.9222714618081,left,1,1,0.670962747768499,M18T09,2022-11-01_16h17.42.928,t1_Paradigm,2021.1.4,59.981565932363786,
L,left,Distractor,0,24,24,24,522.4200194277801,524.4219724738505,left,1,1,0.6755649814731441,M18T09,2022-11-01_16h17.42.928,t1_Paradigm,2021.1.4,59.981565932363786,
W,left,Pretarget,0,25,25,25,525.9202234582044,527.9221771458979,left,1,1,0.6150497468770482,M18T09,2022-11-01_16h17.42.928,t1_Paradigm,2021.1.4,59.981565932363786,
W,right,Target,0,26,26,26,529.4200252022129,531.420042204787,right,1,1,0.5412593810469843,M18T09,2022-11-01_16h17.42.928,t1_Paradigm,2021.1.4,59.981565932363786,
V,left,Distractor,0,27,27,27,532.9202346862876,534.9198048108374,left,1,1,0.5932605154230259,M18T09,2022-11-01_16h17.42.928,t1_Paradigm,2021.1.4,59.981565932363786,
W,left,Lure,0,28,28,28,536.4203543456388,538.4219381479779,left,1,1,0.6755951368832029,M18T09,2022-11-01_16h17.42.928,t1_Paradigm,2021.1.4,59.981565932363786,
R,left,Pretarget,0,29,29,29,539.9202064556885,541.9217029996798,left,1,1,0.6477430576924235,M18T09,2022-11-01_16h17.42.928,t1_Paradigm,2021.1.4,59.981565932363786,
R,right,Target,0,30,30,30,543.4202196085826,545.4200977035798,right,1,1,0.4611209740396589,M18T09,2022-11-01_16h17.42.928,t1_Paradigm,2021.1.4,59.981565932363786,
G,left,Distractor,0,31,31,31,546.9203033380327,548.9216449343949,left,1,1,0.7036198079003952,M18T09,2022-11-01_16h17.42.928,t1_Paradigm,2021.1.4,59.981565932363786,
R,left,Lure,0,32,32,32,550.4201974731986,552.4217248142231,left,1,1,0.5644062489736825,M18T09,2022-11-01_16h17.42.928,t1_Paradigm,2021.1.4,59.981565932363786,
S,left,Distractor,0,33,33,33,553.9203084709006,555.9218974060495,left,1,1,0.6633873158716597,M18T09,2022-11-01_16h17.42.928,t1_Paradigm,2021.1.4,59.981565932363786,
R,left,Lure,0,34,34,34,557.4199055428617,559.4221514816745,left,1,1,0.47541978617664427,M18T09,2022-11-01_16h17.42.928,t1_Paradigm,2021.1.4,59.981565932363786,
P,left,Pretarget,0,35,35,35,560.9202446311829,562.9222891059471,left,1,1,0.7350844448665157,M18T09,2022-11-01_16h17.42.928,t1_Paradigm,2021.1.4,59.981565932363786,
P,right,Target,0,36,36,36,564.4199568713084,566.4203626865055,right,1,1,0.64488663157681,M18T09,2022-11-01_16h17.42.928,t1_Paradigm,2021.1.4,59.981565932363786,
Y,left,Pretarget,0,37,37,37,567.9201580145163,569.9220456168405,left,1,1,0.7432270557037555,M18T09,2022-11-01_16h17.42.928,t1_Paradigm,2021.1.4,59.981565932363786,
Y,right,Target,0,38,38,38,571.4203758394578,573.4203415135853,right,1,1,0.7810968368430622,M18T09,2022-11-01_16h17.42.928,t1_Paradigm,2021.1.4,59.981565932363786,
J,left,Distractor,0,39,39,39,574.9204297342803,576.9220603737631,left,1,1,0.5754777872934937,M18T09,2022-11-01_16h17.42.928,t1_Paradigm,2021.1.4,59.981565932363786,
Y,left,Lure,0,40,40,40,578.4203828970785,580.4223269606591,left,1,1,0.6752813919447362,M18T09,2022-11-01_16h17.42.928,t1_Paradigm,2021.1.4,59.981565932363786,
T,left,Distractor,0,41,41,41,581.9203248318518,583.9224145397893,left,1,1,0.48692248319275677,M18T09,2022-11-01_16h17.42.928,t1_Paradigm,2021.1.4,59.981565932363786,
V,left,Distractor,0,42,42,42,585.4204053533031,587.4224514320958,left,1,1,0.522997694730293,M18T09,2022-11-01_16h17.42.928,t1_Paradigm,2021.1.4,59.981565932363786,
N,left,Pretarget,0,43,43,43,588.9203809722676,590.9227010164759,left,1,1,0.5904252622858621,M18T09,2022-11-01_16h17.42.928,t1_Paradigm,2021.1.4,59.981565932363786,
N,right,Target,0,44,44,44,592.4204550776631,594.4202545760782,right,1,1,0.7411854681558907,M18T09,2022-11-01_16h17.42.928,t1_Paradigm,2021.1.4,59.981565932363786,
N,right,Target,0,45,45,45,595.9203136037104,597.9201490320265,right,1,1,0.6169947728631087,M18T09,2022-11-01_16h17.42.928,t1_Paradigm,2021.1.4,59.981565932363786,
X,left,Distractor,0,46,46,46,599.4203350975295,601.422479662695,left,1,1,0.5069983081193641,M18T09,2022-11-01_16h17.42.928,t1_Paradigm,2021.1.4,59.981565932363786,
Z,left,Distractor,0,47,47,47,602.9200399591355,604.921709094895,left,1,1,0.5278652321430854,M18T09,2022-11-01_16h17.42.928,t1_Paradigm,2021.1.4,59.981565932363786,
H,left,Pretarget,0,48,48,48,606.4203469671775,608.4217857667245,left,1,1,0.5797290629707277,M18T09,2022-11-01_16h17.42.928,t1_Paradigm,2021.1.4,59.981565932363786,
H,right,Target,0,49,49,49,609.9200665857643,611.9204874787247,right,1,1,0.6327051163534634,M18T09,2022-11-01_16h17.42.928,t1_Paradigm,2021.1.4,59.981565932363786,
K,left,Distractor,0,50,50,50,613.4370643100119,615.4226917132037,left,1,1,0.4908067607320845,M18T09,2022-11-01_16h17.42.928,t1_Paradigm,2021.1.4,59.981565932363786,
V,left,Pretarget,0,51,51,51,616.9205121805426,618.9215727538103,left,1,1,0.5597433836082928,M18T09,2022-11-01_16h17.42.928,t1_Paradigm,2021.1.4,59.981565932363786,
V,right,Target,0,52,52,52,620.42018528271,622.4200880795252,right,1,1,0.5814514519879594,M18T09,2022-11-01_16h17.42.928,t1_Paradigm,2021.1.4,59.981565932363786,
R,left,Distractor,0,53,53,53,623.9203235486057,625.922223020636,left,1,1,0.4711932123173028,M18T09,2022-11-01_16h17.42.928,t1_Paradigm,2021.1.4,59.981565932363786,
V,left,Lure,0,54,54,54,627.4204143357347,629.4223266398767,left,1,1,0.5551716261543334,M18T09,2022-11-01_16h17.42.928,t1_Paradigm,2021.1.4,59.981565932363786,
Y,left,Distractor,0,55,55,55,630.9203768018633,632.9221935067908,left,1,1,0.9591467549907975,M18T09,2022-11-01_16h17.42.928,t1_Paradigm,2021.1.4,59.981565932363786,
Q,left,Distractor,0,56,56,56,634.4202638793504,636.422354228911,left,1,1,0.6430301471264102,M18T09,2022-11-01_16h17.42.928,t1_Paradigm,2021.1.4,59.981565932363786,
Z,left,Pretarget,0,57,57,57,637.9203950875672,639.9220847547404,left,1,1,0.7914594014873728,M18T09,2022-11-01_16h17.42.928,t1_Paradigm,2021.1.4,59.981565932363786,
Z,right,Target,0,58,58,58,641.4202250622329,643.4202330823173,right,1,1,0.5414236320066266,M18T09,2022-11-01_16h17.42.928,t1_Paradigm,2021.1.4,59.981565932363786,
B,left,Distractor,0,59,59,59,644.9205375239253,646.9218868195312,left,1,1,0.6715466084424406,M18T09,2022-11-01_16h17.42.928,t1_Paradigm,2021.1.4,59.981565932363786,
S,left,Pretarget,0,60,60,60,648.4203726314008,650.4203748770524,left,1,1,0.6451859403750859,M18T09,2022-11-01_16h17.42.928,t1_Paradigm,2021.1.4,59.981565932363786,
S,right,Target,0,61,61,61,651.9203415135853,653.9205336743034,right,1,1,0.5529125345055945,M18T09,2022-11-01_16h17.42.928,t1_Paradigm,2021.1.4,59.981565932363786,
T,left,Distractor,0,62,62,62,655.4204165813862,657.4224341087393,left,1,1,0.5550943127600476,M18T09,2022-11-01_16h17.42.928,t1_Paradigm,2021.1.4,59.981565932363786,
D,left,Distractor,0,63,63,63,658.920316490985,660.9223593617207,left,1,1,0.7031190350535326,M18T09,2022-11-01_16h17.42.928,t1_Paradigm,2021.1.4,59.981565932363786,
R,left,Distractor,0,0,0,0,698.305098322744,700.3059381839121,left,1,1,0.4556792000075802,M18T09,2022-11-01_16h17.42.928,t1_Paradigm,2021.1.4,59.981565932363786,
V,left,Distractor,0,1,1,1,701.803750951949,703.8055577120394,left,1,1,0.4923020215355791,M18T09,2022-11-01_16h17.42.928,t1_Paradigm,2021.1.4,59.981565932363786,
N,left,Pretarget,0,2,2,2,705.3037567263818,707.3049934203154,left,1,1,0.4967724053421989,M18T09,2022-11-01_16h17.42.928,t1_Paradigm,2021.1.4,59.981565932363786,
N,right,Target,0,3,3,3,708.8039687768905,710.8037955434993,right,1,1,0.5498944238643162,M18T09,2022-11-01_16h17.42.928,t1_Paradigm,2021.1.4,59.981565932363786,
S,left,Distractor,0,4,4,4,712.303899804363,714.30526546092,left,1,1,0.40841182839358225,M18T09,2022-11-01_16h17.42.928,t1_Paradigm,2021.1.4,59.981565932363786,
N,left,Lure,0,5,5,5,715.8038003555266,717.8040756041883,left,1,1,0.4618982786196284,M18T09,2022-11-01_16h17.42.928,t1_Paradigm,2021.1.4,59.981565932363786,
Z,left,Distractor,0,6,6,6,719.3038783106022,721.3055599576328,left,1,1,0.48016926826676354,M18T09,2022-11-01_16h17.42.928,t1_Paradigm,2021.1.4,59.981565932363786,
L,left,Pretarget,0,7,7,7,722.8038263405906,724.8062926707207,left,1,1,0.4672800625558011,M18T09,2022-11-01_16h17.42.928,t1_Paradigm,2021.1.4,59.981565932363786,
L,right,Target,0,8,8,8,726.3037942603114,728.3038362854277,right,1,1,0.6660390698816627,M18T09,2022-11-01_16h17.42.928,t1_Paradigm,2021.1.4,59.981565932363786,
H,left,Distractor,0,9,9,9,729.8038080548286,731.805644328706,left,1,1,0.42802730161929503,M18T09,2022-11-01_16h17.42.928,t1_Paradigm,2021.1.4,59.981565932363786,
L,left,Lure,0,10,10,10,733.3038754233276,735.3058525295928,left,1,1,1.3920605213497765,M18T09,2022-11-01_16h17.42.928,t1_Paradigm,2021.1.4,59.981565932363786,
X,left,Pretarget,0,11,11,11,736.8038949923357,738.8059275973937,left,1,1,0.883643624256365,M18T09,2022-11-01_16h17.42.928,t1_Paradigm,2021.1.4,59.981565932363786,
X,right,Target,0,12,12,12,740.3038597040577,742.3039103908231,right,1,1,0.6498626002576202,M18T09,2022-11-01_16h17.42.928,t1_Paradigm,2021.1.4,59.981565932363786,
X,right,Target,0,13,13,13,743.8040550727746,745.8038699697354,right,1,1,0.5738336741342209,M18T09,2022-11-01_16h17.42.928,t1_Paradigm,2021.1.4,59.981565932363786,
R,left,Distractor,0,14,14,14,747.3038606664632,749.3043607976288,left,1,1,0.4973806469934061,M18T09,2022-11-01_16h17.42.928,t1_Paradigm,2021.1.4,59.981565932363786,
T,left,Distractor,0,15,15,15,750.8038513631909,752.8054614712601,left,1,1,0.5645470813033171,M18T09,2022-11-01_16h17.42.928,t1_Paradigm,2021.1.4,59.981565932363786,
V,left,Pretarget,0,16,16,16,754.3036858290434,756.3043989731814,left,1,1,0.6172353747533634,M18T09,2022-11-01_16h17.42.928,t1_Paradigm,2021.1.4,59.981565932363786,
V,right,Target,0,17,17,17,757.8038927466841,759.803920014936,right,1,1,0.7495715681579895,M18T09,2022-11-01_16h17.42.928,t1_Paradigm,2021.1.4,59.981565932363786,
N,left,Distractor,0,18,18,18,761.3040573184262,763.306117833301,left,1,1,0.46368964022258297,M18T09,2022-11-01_16h17.42.928,t1_Paradigm,2021.1.4,59.981565932363786,
B,left,Distractor,0,19,19,19,764.8038648368674,766.8052635361091,left,1,1,0.43629021337255836,M18T09,2022-11-01_16h17.42.928,t1_Paradigm,2021.1.4,59.981565932363786,
V,left,Lure,0,20,20,20,768.3039203357184,770.3046912243008,left,1,1,0.5049708358128555,M18T09,2022-11-01_16h17.42.928,t1_Paradigm,2021.1.4,59.981565932363786,
P,left,Distractor,0,21,21,21,771.8037252877257,773.8054794362397,left,1,1,0.7320615221979097,M18T09,2022-11-01_16h17.42.928,t1_Paradigm,2021.1.4,59.981565932363786,
K,left,Pretarget,0,22,22,22,775.3038731777342,777.3043008075911,left,1,1,0.5773592944024131,M18T09,2022-11-01_16h17.42.928,t1_Paradigm,2021.1.4,59.981565932363786,
K,right,Target,0,23,23,23,778.804103514005,780.8039087868528,left,0,1,0.9016855608788319,M18T09,2022-11-01_16h17.42.928,t1_Paradigm,2021.1.4,59.981565932363786,
J,left,Pretarget,0,24,24,24,782.3040188220912,784.3059109156602,left,1,1,0.6801380221149884,M18T09,2022-11-01_16h17.42.928,t1_Paradigm,2021.1.4,59.981565932363786,
J,right,Target,0,25,25,25,785.8038510423503,787.8037191925105,right,1,1,0.5420597834745422,M18T09,2022-11-01_16h17.42.928,t1_Paradigm,2021.1.4,59.981565932363786,
H,left,Distractor,0,26,26,26,789.3038863306283,791.3060231965501,left,1,1,0.4958401530748233,M18T09,2022-11-01_16h17.42.928,t1_Paradigm,2021.1.4,59.981565932363786,
J,left,Lure,0,27,27,27,792.8035918338574,794.8049549239804,left,1,1,0.7887893617153168,M18T09,2022-11-01_16h17.42.928,t1_Paradigm,2021.1.4,59.981565932363786,
V,left,Distractor,0,28,28,28,796.3036649768474,798.3051628040848,left,1,1,0.6325671712984331,M18T09,2022-11-01_16h17.42.928,t1_Paradigm,2021.1.4,59.981565932363786,
Z,left,Pretarget,0,29,29,29,799.8039828921901,801.8055699025281,left,1,1,0.6360940746963024,M18T09,2022-11-01_16h17.42.928,t1_Paradigm,2021.1.4,59.981565932363786,
Z,right,Target,0,30,30,30,803.303955303214,805.3039674937027,right,1,1,0.6578242784598842,M18T09,2022-11-01_16h17.42.928,t1_Paradigm,2021.1.4,59.981565932363786,
T,left,Distractor,0,31,31,31,806.8040066316025,808.804995024344,left,1,1,0.48466724110767245,M18T09,2022-11-01_16h17.42.928,t1_Paradigm,2021.1.4,59.981565932363786,
Z,left,Lure,0,32,32,32,810.3040653384523,812.3032735977322,left,1,1,0.4904647851944901,M18T09,2022-11-01_16h17.42.928,t1_Paradigm,2021.1.4,59.981565932363786,
F,left,Distractor,0,33,33,33,813.8039549823734,815.8062041292433,left,1,1,0.47542363579850644,M18T09,2022-11-01_16h17.42.928,t1_Paradigm,2021.1.4,59.981565932363786,
Y,left,Pretarget,0,34,34,34,817.3039004459861,819.3037788617657,left,1,1,0.4337484946590848,M18T09,2022-11-01_16h17.42.928,t1_Paradigm,2021.1.4,59.981565932363786,
Y,right,Target,0,35,35,35,820.8040842658374,822.8041038347874,right,1,1,0.6298178932629526,M18T09,2022-11-01_16h17.42.928,t1_Paradigm,2021.1.4,59.981565932363786,
Y,right,Target,0,36,36,36,824.3036187813268,826.3039870626526,right,1,1,0.5697453661705367,M18T09,2022-11-01_16h17.42.928,t1_Paradigm,2021.1.4,59.981565932363786,
W,left,Distractor,0,37,37,37,827.8038369270507,829.8038282654015,left,1,1,0.49389223981415853,M18T09,2022-11-01_16h17.42.928,t1_Paradigm,2021.1.4,59.981565932363786,
Q,left,Distractor,0,38,38,38,831.3037525559776,833.3032274021534,left,1,1,0.48272702714893967,M18T09,2022-11-01_16h17.42.928,t1_Paradigm,2021.1.4,59.981565932363786,
P,left,Pretarget,0,39,39,39,834.8039861002471,836.8061681993422,left,1,1,0.5798076596111059,M18T09,2022-11-01_16h17.42.928,t1_Paradigm,2021.1.4,59.981565932363786,
P,right,Target,0,40,40,40,838.3040425615036,840.3042003963492,right,1,1,1.1615391722298227,M18T09,2022-11-01_16h17.42.928,t1_Paradigm,2021.1.4,59.981565932363786,
J,left,Distractor,0,41,41,41,841.8040168972802,843.8050104228314,left,1,1,0.5247698081075214,M18T09,2022-11-01_16h17.42.928,t1_Paradigm,2021.1.4,59.981565932363786,
P,left,Lure,0,42,42,42,845.3040621304535,847.3048156956793,left,1,1,0.5291824475280009,M18T09,2022-11-01_16h17.42.928,t1_Paradigm,2021.1.4,59.981565932363786,
L,left,Distractor,0,43,43,43,848.804010802065,850.8049805882038,left,1,1,0.9167931163101457,M18T09,2022-11-01_16h17.42.928,t1_Paradigm,2021.1.4,59.981565932363786,
Z,left,Distractor,0,44,44,44,852.3040380702587,854.3058236573706,left,1,1,0.6961377295083366,M18T09,2022-11-01_16h17.42.928,t1_Paradigm,2021.1.4,59.981565932363786,
F,left,Pretarget,0,45,45,45,855.8038850474404,857.8061322694412,left,1,1,0.5237137260264717,M18T09,2022-11-01_16h17.42.928,t1_Paradigm,2021.1.4,59.981565932363786,
F,right,Target,0,46,46,46,859.3042039251886,861.3041882058606,right,1,1,0.5137643550988287,M18T09,2022-11-01_16h17.42.928,t1_Paradigm,2021.1.4,59.981565932363786,
G,left,Pretarget,0,47,47,47,862.8039992531412,864.8060742041562,left,1,1,0.5316952940193005,M18T09,2022-11-01_16h17.42.928,t1_Paradigm,2021.1.4,59.981565932363786,
G,right,Target,0,48,48,48,866.3039177692845,868.3040518647758,right,1,1,0.6017104551428929,M18T09,2022-11-01_16h17.42.928,t1_Paradigm,2021.1.4,59.981565932363786,
V,left,Distractor,0,49,49,49,869.8040778497816,871.8050877362839,left,1,1,0.5087758751469664,M18T09,2022-11-01_16h17.42.928,t1_Paradigm,2021.1.4,59.981565932363786,
G,left,Lure,0,50,50,50,873.3039979699533,875.3048570792307,left,1,1,0.5609611501567997,M18T09,2022-11-01_16h17.42.928,t1_Paradigm,2021.1.4,59.981565932363786,
Q,left,Pretarget,0,51,51,51,876.804131102981,878.806119116547,left,1,1,0.9800861803814769,M18T09,2022-11-01_16h17.42.928,t1_Paradigm,2021.1.4,59.981565932363786,
Q,right,Target,0,52,52,52,880.3208137991023,882.3042125868378,right,1,1,0.666065375728067,M18T09,2022-11-01_16h17.42.928,t1_Paradigm,2021.1.4,59.981565932363786,
Y,left,Distractor,0,53,53,53,883.8041089676553,885.8060758081847,left,1,1,0.5718055603210814,M18T09,2022-11-01_16h17.42.928,t1_Paradigm,2021.1.4,59.981565932363786,
V,left,Distractor,0,54,54,54,887.3042533287662,889.3062881794758,left,1,1,0.7195614500669762,M18T09,2022-11-01_16h17.42.928,t1_Paradigm,2021.1.4,59.981565932363786,
B,left,Distractor,0,55,55,55,890.804136877472,892.8032482543495,left,1,1,0.5185770352836698,M18T09,2022-11-01_16h17.42.928,t1_Paradigm,2021.1.4,59.981565932363786,
J,left,Pretarget,0,56,56,56,894.3039058995782,896.3059359382605,left,1,1,0.5359276423696429,M18T09,2022-11-01_16h17.42.928,t1_Paradigm,2021.1.4,59.981565932363786,
J,right,Target,0,57,57,57,897.8043174893246,899.8040332582314,right,1,1,0.733743169286754,M18T09,2022-11-01_16h17.42.928,t1_Paradigm,2021.1.4,59.981565932363786,
H,left,Distractor,0,58,58,58,901.304206170782,903.306372550549,left,1,1,1.3118226654478349,M18T09,2022-11-01_16h17.42.928,t1_Paradigm,2021.1.4,59.981565932363786,
J,left,Lure,0,59,59,59,904.8042286270065,906.8051220621564,left,1,1,0.7249451587558724,M18T09,2022-11-01_16h17.42.928,t1_Paradigm,2021.1.4,59.981565932363786,
D,left,Pretarget,0,60,60,60,908.3041516343947,910.3061986755929,left,1,1,0.5357037221547216,M18T09,2022-11-01_16h17.42.928,t1_Paradigm,2021.1.4,59.981565932363786,
D,right,Target,0,61,61,61,911.8041673537227,913.8042161156773,right,1,1,0.4940051623270847,M18T09,2022-11-01_16h17.42.928,t1_Paradigm,2021.1.4,59.981565932363786,
R,left,Distractor,0,62,62,62,915.304063092859,917.3062176029198,left,1,1,0.5756535871187225,M18T09,2022-11-01_16h17.42.928,t1_Paradigm,2021.1.4,59.981565932363786,
F,left,Distractor,0,63,63,63,918.8041542007704,920.8046338006388,left,1,1,0.5812981083872728,M18T09,2022-11-01_16h17.42.928,t1_Paradigm,2021.1.4,59.981565932363786,
F,left,Distractor,0,0,0,0,1070.9897593403002,1072.9878880989272,left,1,2,0.3984586077858694,M18T09,2022-11-01_16h17.42.928,t1_Paradigm,2021.1.4,59.981565932363786,
N,left,Pretarget,0,1,1,1,1074.4876693115802,1076.4883080294821,left,1,2,0.3538683336228132,M18T09,2022-11-01_16h17.42.928,t1_Paradigm,2021.1.4,59.981565932363786,
V,left,Distractor,0,2,2,2,1077.9879182543373,1079.9897609443287,left,1,2,0.5646503797033802,M18T09,2022-11-01_16h17.42.928,t1_Paradigm,2021.1.4,59.981565932363786,
N,right,Target,0,3,3,3,1081.4874591858825,1083.4899842229206,right,1,2,0.6483002917375416,M18T09,2022-11-01_16h17.42.928,t1_Paradigm,2021.1.4,59.981565932363786,
N,left,Lure,0,4,4,4,1084.9876959381509,1086.98750858946,left,1,2,1.2308585125720128,M18T09,2022-11-01_16h17.42.928,t1_Paradigm,2021.1.4,59.981565932363786,
X,left,Distractor,0,5,5,5,1088.4877642691135,1090.4899755612132,left,1,2,0.6723207050818019,M18T09,2022-11-01_16h17.42.928,t1_Paradigm,2021.1.4,59.981565932363786,
G,left,Pretarget,0,6,6,6,1091.9874665643438,1093.9898652051343,left,1,2,0.8523403510334902,M18T09,2022-11-01_16h17.42.928,t1_Paradigm,2021.1.4,59.981565932363786,
H,left,Pretarget,0,7,7,7,1095.4878656427027,1097.4896053550765,left,1,2,0.7926351428613998,M18T09,2022-11-01_16h17.42.928,t1_Paradigm,2021.1.4,59.981565932363786,
G,right,Target,0,8,8,8,1098.9878650011378,1100.9894760716124,right,1,2,0.6367453039274551,M18T09,2022-11-01_16h17.42.928,t1_Paradigm,2021.1.4,59.981565932363786,
H,right,Target,0,9,9,9,1102.487888740492,1104.48993417772,right,1,2,0.688414728443604,M18T09,2022-11-01_16h17.42.928,t1_Paradigm,2021.1.4,59.981565932363786,
T,left,Pretarget,0,10,10,10,1105.987874945975,1107.9891677803826,left,1,2,0.6132352874847129,M18T09,2022-11-01_16h17.42.928,t1_Paradigm,2021.1.4,59.981565932363786,
K,left,Distractor,0,11,11,11,1109.4878300336422,1111.4895197007572,left,1,2,0.969211614865344,M18T09,2022-11-01_16h17.42.928,t1_Paradigm,2021.1.4,59.981565932363786,
T,right,Target,0,12,12,12,1112.9877867252799,1114.9899813357042,right,1,2,0.7645344416378066,M18T09,2022-11-01_16h17.42.928,t1_Paradigm,2021.1.4,59.981565932363786,
T,left,Lure,0,13,13,13,1116.4878095022868,1118.4878505649976,left,1,2,0.85042098921258,M18T09,2022-11-01_16h17.42.928,t1_Paradigm,2021.1.4,59.981565932363786,
J,left,Distractor,0,14,14,14,1119.9879320488544,1121.9899954510038,left,1,2,0.6444711922667921,M18T09,2022-11-01_16h17.42.928,t1_Paradigm,2021.1.4,59.981565932363786,
Q,left,Pretarget,0,15,15,15,1123.487818805559,1125.490243752196,left,1,2,0.8561502023367211,M18T09,2022-11-01_16h17.42.928,t1_Paradigm,2021.1.4,59.981565932363786,
M,left,Distractor,0,16,16,16,1126.9879849812714,1128.9908497482538,left,1,2,1.099402922205627,M18T09,2022-11-01_16h17.42.928,t1_Paradigm,2021.1.4,59.981565932363786,
Q,right,Target,0,17,17,17,1130.4878422241309,1132.4897680019494,right,1,2,0.7205941135762259,M18T09,2022-11-01_16h17.42.928,t1_Paradigm,2021.1.4,59.981565932363786,
R,left,Distractor,0,18,18,18,1133.987803727854,1135.9893455049605,left,1,2,0.8369261082843877,M18T09,2022-11-01_16h17.42.928,t1_Paradigm,2021.1.4,59.981565932363786,
W,left,Distractor,0,19,19,19,1137.4880183447385,1139.4897920621443,left,1,2,0.8246008734568022,M18T09,2022-11-01_16h17.42.928,t1_Paradigm,2021.1.4,59.981565932363786,
C,left,Pretarget,0,20,20,20,1140.9875964893727,1142.9892181463656,left,1,2,0.7330454236944206,M18T09,2022-11-01_16h17.42.928,t1_Paradigm,2021.1.4,59.981565932363786,
T,left,Distractor,0,21,21,21,1144.4876359481132,1146.490005395899,left,1,2,0.8967519381549209,M18T09,2022-11-01_16h17.42.928,t1_Paradigm,2021.1.4,59.981565932363786,
C,right,Target,0,22,22,22,1147.9878143143142,1149.9896509090322,right,1,2,0.5808018267853186,M18T09,2022-11-01_16h17.42.928,t1_Paradigm,2021.1.4,59.981565932363786,
F,left,Pretarget,0,23,23,23,1151.4879381441278,1153.4895569139044,left,1,2,0.6007557467091829,M18T09,2022-11-01_16h17.42.928,t1_Paradigm,2021.1.4,59.981565932363786,
C,right,Target,0,24,24,24,1154.98801674071,1156.9879564298317,right,1,2,1.1504092478426173,M18T09,2022-11-01_16h17.42.928,t1_Paradigm,2021.1.4,59.981565932363786,
F,right,Target,0,25,25,25,1158.487822655181,1160.4887821757002,right,1,2,0.7056097462191246,M18T09,2022-11-01_16h17.42.928,t1_Paradigm,2021.1.4,59.981565932363786,
H,left,Distractor,0,26,26,26,1161.9876465345733,1163.9896650243318,left,1,2,0.6127511964295991,M18T09,2022-11-01_16h17.42.928,t1_Paradigm,2021.1.4,59.981565932363786,
H,left,Lure,0,27,27,27,1165.4878505649976,1167.487603867834,left,1,2,1.0990064102807082,M18T09,2022-11-01_16h17.42.928,t1_Paradigm,2021.1.4,59.981565932363786,
P,left,Distractor,0,28,28,28,1168.9876590458443,1170.9896672699833,left,1,2,1.0686738855438307,M18T09,2022-11-01_16h17.42.928,t1_Paradigm,2021.1.4,59.981565932363786,
G,left,Pretarget,0,29,29,29,1172.4876449305448,1174.4895020566182,left,1,2,1.1528438185923733,M18T09,2022-11-01_16h17.42.928,t1_Paradigm,2021.1.4,59.981565932363786,
K,left,Distractor,0,30,30,30,1175.987888740492,1177.9899855061085,left,1,2,1.0923099773935974,M18T09,2022-11-01_16h17.42.928,t1_Paradigm,2021.1.4,59.981565932363786,
G,right,Target,0,31,31,31,1179.4876272864058,1181.4892560010776,right,1,2,0.7292814471293241,M18T09,2022-11-01_16h17.42.928,t1_Paradigm,2021.1.4,59.981565932363786,
M,left,Pretarget,0,32,32,32,1182.9880372721236,1184.989398116595,left,1,2,1.2613042806042358,M18T09,2022-11-01_16h17.42.928,t1_Paradigm,2021.1.4,59.981565932363786,
B,left,Distractor,0,33,33,33,1186.4879881893285,1188.4904179479927,left,1,2,1.0400951885385439,M18T09,2022-11-01_16h17.42.928,t1_Paradigm,2021.1.4,59.981565932363786,
M,right,Target,0,34,34,34,1189.9878829660593,1191.990479542059,right,1,2,0.7400376365403645,M18T09,2022-11-01_16h17.42.928,t1_Paradigm,2021.1.4,59.981565932363786,
M,left,Lure,0,35,35,35,1193.4879455225891,1195.4879047806608,left,1,2,1.1788605862529948,M18T09,2022-11-01_16h17.42.928,t1_Paradigm,2021.1.4,59.981565932363786,
T,left,Distractor,0,36,36,36,1196.9880138534936,1198.989712823939,left,1,2,0.716672622889746,M18T09,2022-11-01_16h17.42.928,t1_Paradigm,2021.1.4,59.981565932363786,
F,left,Distractor,0,37,37,37,1200.4880478585837,1202.4897715307889,None,0,2,,M18T09,2022-11-01_16h17.42.928,t1_Paradigm,2021.1.4,59.981565932363786,
X,left,Distractor,0,38,38,38,1203.9880292520393,1205.9884889621171,left,1,2,0.7900238099391572,M18T09,2022-11-01_16h17.42.928,t1_Paradigm,2021.1.4,59.981565932363786,
C,left,Distractor,0,39,39,39,1207.4881575730396,1209.487931086449,left,1,2,0.698680410743691,M18T09,2022-11-01_16h17.42.928,t1_Paradigm,2021.1.4,59.981565932363786,
R,left,Distractor,0,40,40,40,1210.9879156879033,1212.9880334224436,left,1,2,1.0064282419043593,M18T09,2022-11-01_16h17.42.928,t1_Paradigm,2021.1.4,59.981565932363786,
B,left,Pretarget,0,41,41,41,1214.4881142647355,1216.4899531050469,left,1,2,0.9924832750111818,M18T09,2022-11-01_16h17.42.928,t1_Paradigm,2021.1.4,59.981565932363786,
H,left,Distractor,0,42,42,42,1217.9880510666408,1219.9897516410565,left,1,2,0.8206957437796518,M18T09,2022-11-01_16h17.42.928,t1_Paradigm,2021.1.4,59.981565932363786,
B,right,Target,0,43,43,43,1221.4879647706985,1223.4901629099622,right,1,2,0.7124611267354339,M18T09,2022-11-01_16h17.42.928,t1_Paradigm,2021.1.4,59.981565932363786,
W,left,Pretarget,0,44,44,44,1224.9870052502374,1226.989840182534,left,1,2,0.7484917467227206,M18T09,2022-11-01_16h17.42.928,t1_Paradigm,2021.1.4,59.981565932363786,
L,left,Pretarget,0,45,45,45,1228.4875900733168,1230.4896339065162,left,1,2,0.768872654880397,M18T09,2022-11-01_16h17.42.928,t1_Paradigm,2021.1.4,59.981565932363786,
W,right,Target,0,46,46,46,1231.9880635779118,1233.989187670115,right,1,2,0.6454457904328592,M18T09,2022-11-01_16h17.42.928,t1_Paradigm,2021.1.4,59.981565932363786,
L,right,Target,0,47,47,47,1235.488148590608,1237.4891565522994,right,1,2,1.0174070682842284,M18T09,2022-11-01_16h17.42.928,t1_Paradigm,2021.1.4,59.981565932363786,
W,right,Target,0,48,48,48,1238.988024440012,1240.990077897266,right,1,2,0.7643499802215956,M18T09,2022-11-01_16h17.42.928,t1_Paradigm,2021.1.4,59.981565932363786,
X,left,Distractor,0,49,49,49,1242.4877517578425,1244.4899300072575,left,1,2,0.6246208915836178,M18T09,2022-11-01_16h17.42.928,t1_Paradigm,2021.1.4,59.981565932363786,
R,left,Distractor,0,50,50,50,1245.9881415329291,1247.9892364321277,left,1,2,0.8372177177807316,M18T09,2022-11-01_16h17.42.928,t1_Paradigm,2021.1.4,59.981565932363786,
V,left,Pretarget,0,51,51,51,1249.4877700435463,1251.4902161631617,left,1,2,0.9363165192189626,M18T09,2022-11-01_16h17.42.928,t1_Paradigm,2021.1.4,59.981565932363786,
Z,left,Distractor,0,52,52,52,1252.9880844301078,1254.9896351897041,left,1,2,0.668823956977576,M18T09,2022-11-01_16h17.42.928,t1_Paradigm,2021.1.4,59.981565932363786,
V,right,Target,0,53,53,53,1256.487692088529,1258.4896127335378,right,1,2,0.5450519090518355,M18T09,2022-11-01_16h17.42.928,t1_Paradigm,2021.1.4,59.981565932363786,
V,left,Lure,0,54,54,54,1259.9880087206839,1261.9878771916265,left,1,2,1.350617641233839,M18T09,2022-11-01_16h17.42.928,t1_Paradigm,2021.1.4,59.981565932363786,
N,left,Distractor,0,55,55,55,1263.4878146350966,1265.4898838116787,left,1,2,0.7767031248076819,M18T09,2022-11-01_16h17.42.928,t1_Paradigm,2021.1.4,59.981565932363786,
B,left,Distractor,0,56,56,56,1266.988168159558,1268.9893442217726,left,1,2,0.7814275842974894,M18T09,2022-11-01_16h17.42.928,t1_Paradigm,2021.1.4,59.981565932363786,
V,left,Lure,0,57,57,57,1270.488019307144,1272.4907554322854,left,1,2,0.8639809931046329,M18T09,2022-11-01_16h17.42.928,t1_Paradigm,2021.1.4,59.981565932363786,
J,left,Distractor,0,58,58,58,1273.9879654123215,1275.9894186479505,left,1,2,0.7411851473734714,M18T09,2022-11-01_16h17.42.928,t1_Paradigm,2021.1.4,59.981565932363786,
H,left,Distractor,0,59,59,59,1277.4879936429788,1279.4905831612996,left,1,2,0.888078719843179,M18T09,2022-11-01_16h17.42.928,t1_Paradigm,2021.1.4,59.981565932363786,
X,left,Pretarget,0,60,60,60,1280.9880651819403,1282.9902572258725,left,1,2,0.7482703929417767,M18T09,2022-11-01_16h17.42.928,t1_Paradigm,2021.1.4,59.981565932363786,
P,left,Distractor,0,61,61,61,1284.4880096830893,1286.4902097471058,left,1,2,0.8323216289281845,M18T09,2022-11-01_16h17.42.928,t1_Paradigm,2021.1.4,59.981565932363786,
X,right,Target,0,62,62,62,1287.988093091757,1289.9897490746225,right,1,2,0.8527811337262392,M18T09,2022-11-01_16h17.42.928,t1_Paradigm,2021.1.4,59.981565932363786,
Q,left,Distractor,0,63,63,63,1291.4881671971525,1293.4902886645286,left,1,2,0.6645210321294144,M18T09,2022-11-01_16h17.42.928,t1_Paradigm,2021.1.4,59.981565932363786,
B,left,Pretarget,0,0,0,0,1304.7551006004796,1306.756866297801,left,1,2,0.43776398041518405,M18T09,2022-11-01_16h17.42.928,t1_Paradigm,2021.1.4,59.981565932363786,
F,left,Distractor,0,1,1,1,1308.2543900227756,1310.2572814163286,left,1,2,0.8415315499878488,M18T09,2022-11-01_16h17.42.928,t1_Paradigm,2021.1.4,59.981565932363786,
B,right,Target,0,2,2,2,1311.7544753562543,1313.7566349991248,right,1,2,0.5900691714487039,M18T09,2022-11-01_16h17.42.928,t1_Paradigm,2021.1.4,59.981565932363786,
V,left,Distractor,0,3,3,3,1315.2547457928304,1317.2571928748512,left,1,2,0.5938199951197021,M18T09,2022-11-01_16h17.42.928,t1_Paradigm,2021.1.4,59.981565932363786,
G,left,Pretarget,0,4,4,4,1318.7549154973822,1320.7562381663593,left,1,2,0.9343435833579861,M18T09,2022-11-01_16h17.42.928,t1_Paradigm,2021.1.4,59.981565932363786,
B,left,Lure,0,5,5,5,1322.2548272766871,1324.256831009523,left,1,2,0.7459359125932679,M18T09,2022-11-01_16h17.42.928,t1_Paradigm,2021.1.4,59.981565932363786,
G,right,Target,0,6,6,6,1325.7547948756255,1327.7572474112385,right,1,2,0.6694014016538858,M18T09,2022-11-01_16h17.42.928,t1_Paradigm,2021.1.4,59.981565932363786,
Y,left,Pretarget,0,7,7,7,1329.2545953363879,1331.2568595609628,left,1,2,0.6419833683175966,M18T09,2022-11-01_16h17.42.928,t1_Paradigm,2021.1.4,59.981565932363786,
P,left,Distractor,0,8,8,8,1332.7546139429323,1334.756994298019,left,1,2,0.789408189826645,M18T09,2022-11-01_16h17.42.928,t1_Paradigm,2021.1.4,59.981565932363786,
Y,right,Target,0,9,9,9,1336.2545902035781,1338.2558384463773,right,1,2,0.6348073355620727,M18T09,2022-11-01_16h17.42.928,t1_Paradigm,2021.1.4,59.981565932363786,
X,left,Distractor,0,10,10,10,1339.7549819034757,1341.7569256462739,left,1,2,0.6217570870066993,M18T09,2022-11-01_16h17.42.928,t1_Paradigm,2021.1.4,59.981565932363786,
Y,right,Target,0,11,11,11,1343.2546200382058,1345.254555556865,right,1,2,0.9164514616131783,M18T09,2022-11-01_16h17.42.928,t1_Paradigm,2021.1.4,59.981565932363786,
N,left,Distractor,0,12,12,12,1346.7546434567776,1348.7570597417653,left,1,2,0.661726841761265,M18T09,2022-11-01_16h17.42.928,t1_Paradigm,2021.1.4,59.981565932363786,
Y,right,Target,0,13,13,13,1350.2548622441245,1352.2568691850174,right,1,2,1.2257843783590943,M18T09,2022-11-01_16h17.42.928,t1_Paradigm,2021.1.4,59.981565932363786,
Y,left,Lure,0,14,14,14,1353.7548077077372,1355.7549523896887,left,1,2,0.9277061782195233,M18T09,2022-11-01_16h17.42.928,t1_Paradigm,2021.1.4,59.981565932363786,
K,left,Distractor,0,15,15,15,1357.2546973516,1359.2543710953905,left,1,2,0.9484752574935555,M18T09,2022-11-01_16h17.42.928,t1_Paradigm,2021.1.4,59.981565932363786,
T,left,Pretarget,0,16,16,16,1360.7547919884091,1362.75673765596,left,1,2,0.6620816494105384,M18T09,2022-11-01_16h17.42.928,t1_Paradigm,2021.1.4,59.981565932363786,
J,left,Distractor,0,17,17,17,1364.2548770010471,1366.2566638714052,left,1,2,0.6981491616461426,M18T09,2022-11-01_16h17.42.928,t1_Paradigm,2021.1.4,59.981565932363786,
T,right,Target,0,18,18,18,1367.755046705599,1369.757082518714,right,1,2,0.7335837304126471,M18T09,2022-11-01_16h17.42.928,t1_Paradigm,2021.1.4,59.981565932363786,
S,left,Pretarget,0,19,19,19,1371.2544968500151,1373.2675724420114,left,1,2,1.0472154016024433,M18T09,2022-11-01_16h17.42.928,t1_Paradigm,2021.1.4,59.981565932363786,
R,left,Distractor,0,20,20,20,1374.7549507856602,1376.7559314790997,left,1,2,0.742989020247478,M18T09,2022-11-01_16h17.42.928,t1_Paradigm,2021.1.4,59.981565932363786,
S,right,Target,0,21,21,21,1378.2549815826933,1380.2566844027606,right,1,2,0.634018802898936,M18T09,2022-11-01_16h17.42.928,t1_Paradigm,2021.1.4,59.981565932363786,
Q,left,Distractor,0,22,22,22,1381.754689331574,1383.75678064354,left,1,2,0.7987323165289126,M18T09,2022-11-01_16h17.42.928,t1_Paradigm,2021.1.4,59.981565932363786,
D,left,Distractor,0,23,23,23,1385.2546492312104,1387.2564932043897,left,1,2,0.8342012112261727,M18T09,2022-11-01_16h17.42.928,t1_Paradigm,2021.1.4,59.981565932363786,
F,left,Distractor,0,24,24,24,1388.7550588961458,1390.7571453960263,left,1,2,0.7417622711509466,M18T09,2022-11-01_16h17.42.928,t1_Paradigm,2021.1.4,59.981565932363786,
Z,left,Distractor,0,25,25,25,1392.2548397879582,1394.2556081101066,left,1,2,0.907214593142271,M18T09,2022-11-01_16h17.42.928,t1_Paradigm,2021.1.4,59.981565932363786,
P,left,Distractor,0,26,26,26,1395.7549033068935,1397.7566593801603,left,1,2,0.5581573356757872,M18T09,2022-11-01_16h17.42.928,t1_Paradigm,2021.1.4,59.981565932363786,
H,left,Distractor,0,27,27,27,1399.2550239286502,1401.254500699637,left,1,2,0.7722728413064033,M18T09,2022-11-01_16h17.42.928,t1_Paradigm,2021.1.4,59.981565932363786,
Z,left,Pretarget,0,28,28,28,1402.7550463848165,1404.756619279855,left,1,2,0.7102864061598666,M18T09,2022-11-01_16h17.42.928,t1_Paradigm,2021.1.4,59.981565932363786,
J,left,Pretarget,0,29,29,29,1406.254896569997,1408.255719428591,left,1,2,0.8270306321210228,M18T09,2022-11-01_16h17.42.928,t1_Paradigm,2021.1.4,59.981565932363786,
Z,right,Target,0,30,30,30,1409.7550133421319,1411.7567139166058,right,1,2,0.9901494362275116,M18T09,2022-11-01_16h17.42.928,t1_Paradigm,2021.1.4,59.981565932363786,
J,right,Target,0,31,31,31,1413.2550232870271,1415.256739580771,right,1,2,0.8659795930725522,M18T09,2022-11-01_16h17.42.928,t1_Paradigm,2021.1.4,59.981565932363786,
V,left,Pretarget,0,32,32,32,1416.7549004196771,1418.7562747378834,left,1,2,0.6307122907601297,M18T09,2022-11-01_16h17.42.928,t1_Paradigm,2021.1.4,59.981565932363786,
Z,left,Lure,0,33,33,33,1420.2549883195315,1422.2571312807268,left,1,2,0.7458534663310274,M18T09,2022-11-01_16h17.42.928,t1_Paradigm,2021.1.4,59.981565932363786,
V,right,Target,0,34,34,34,1423.7549472568207,1425.7570343983825,right,1,2,0.8938127449364401,M18T09,2022-11-01_16h17.42.928,t1_Paradigm,2021.1.4,59.981565932363786,
X,left,Distractor,0,35,35,35,1427.255119848589,1429.2572977772797,left,1,2,0.8174158582696691,M18T09,2022-11-01_16h17.42.928,t1_Paradigm,2021.1.4,59.981565932363786,
S,left,Distractor,0,36,36,36,1430.7548150861403,1432.7568040621118,left,1,2,0.9019646591041237,M18T09,2022-11-01_16h17.42.928,t1_Paradigm,2021.1.4,59.981565932363786,
Q,left,Distractor,0,37,37,37,1434.2550553673063,1436.2568358215503,left,1,2,0.8900426731561311,M18T09,2022-11-01_16h17.42.928,t1_Paradigm,2021.1.4,59.981565932363786,
P,left,Distractor,0,38,38,38,1437.7549437279813,1439.7557675489807,left,1,2,1.0870330958859995,M18T09,2022-11-01_16h17.42.928,t1_Paradigm,2021.1.4,59.981565932363786,
S,left,Lure,0,39,39,39,1441.2549671466113,1443.2572239926667,left,1,2,1.1217086458345875,M18T09,2022-11-01_16h17.42.928,t1_Paradigm,2021.1.4,59.981565932363786,
K,left,Pretarget,0,40,40,40,1444.7551124701276,1446.756979220314,left,1,2,0.7576875524246134,M18T09,2022-11-01_16h17.42.928,t1_Paradigm,2021.1.4,59.981565932363786,
L,left,Distractor,0,41,41,41,1448.2550646705786,1450.25584422081,left,1,2,0.8590906786848791,M18T09,2022-11-01_16h17.42.928,t1_Paradigm,2021.1.4,59.981565932363786,
K,right,Target,0,42,42,42,1451.7550874475273,1453.756868222612,right,1,2,0.6060159464832395,M18T09,2022-11-01_16h17.42.928,t1_Paradigm,2021.1.4,59.981565932363786,
B,left,Distractor,0,43,43,43,1455.2547438680194,1457.2549793371,left,1,2,0.6441462192451581,M18T09,2022-11-01_16h17.42.928,t1_Paradigm,2021.1.4,59.981565932363786,
N,left,Distractor,0,44,44,44,1458.7550361191388,1460.7558410128113,left,1,2,0.9030585958389565,M18T09,2022-11-01_16h17.42.928,t1_Paradigm,2021.1.4,59.981565932363786,
S,left,Pretarget,0,45,45,45,1462.255119207024,1464.2570558921434,left,1,2,1.01778754015686,M18T09,2022-11-01_16h17.42.928,t1_Paradigm,2021.1.4,59.981565932363786,
Z,left,Distractor,0,46,46,46,1465.755007567699,1467.755597202864,left,1,2,0.9753861019271426,M18T09,2022-11-01_16h17.42.928,t1_Paradigm,2021.1.4,59.981565932363786,
S,right,Target,0,47,47,47,1469.2550412520068,1471.2571168445866,right,1,2,0.8498028026660904,M18T09,2022-11-01_16h17.42.928,t1_Paradigm,2021.1.4,59.981565932363786,
C,left,Distractor,0,48,48,48,1472.755070124229,1474.755882075522,left,1,2,0.6792118650628254,M18T09,2022-11-01_16h17.42.928,t1_Paradigm,2021.1.4,59.981565932363786,
T,left,Pretarget,0,49,49,49,1476.2551445504068,1478.2567187286331,left,1,2,0.8742197279352695,M18T09,2022-11-01_16h17.42.928,t1_Paradigm,2021.1.4,59.981565932363786,
S,left,Lure,0,50,50,50,1479.7552083901246,1481.7571312807268,left,1,2,1.165683620609343,M18T09,2022-11-01_16h17.42.928,t1_Paradigm,2021.1.4,59.981565932363786,
T,right,Target,0,51,51,51,1483.2550184749998,1485.256443159189,right,1,2,0.5786088203894906,M18T09,2022-11-01_16h17.42.928,t1_Paradigm,2021.1.4,59.981565932363786,
N,left,Pretarget,0,52,52,52,1486.754992489994,1488.7564348183223,left,1,2,0.5824132181005552,M18T09,2022-11-01_16h17.42.928,t1_Paradigm,2021.1.4,59.981565932363786,
B,left,Distractor,0,53,53,53,1490.2551294727018,1492.2567511296947,left,1,2,0.6181942537077703,M18T09,2022-11-01_16h17.42.928,t1_Paradigm,2021.1.4,59.981565932363786,
N,right,Target,0,54,54,54,1493.7550027556717,1495.7556052228902,right,1,2,0.6233495509950444,M18T09,2022-11-01_16h17.42.928,t1_Paradigm,2021.1.4,59.981565932363786,
N,left,Lure,0,55,55,55,1497.2550595377106,1499.255068199418,left,1,2,0.9162593008368276,M18T09,2022-11-01_16h17.42.928,t1_Paradigm,2021.1.4,59.981565932363786,
X,left,Distractor,0,56,56,56,1500.7549838283448,1502.7568242726848,left,1,2,0.7738560019643046,M18T09,2022-11-01_16h17.42.928,t1_Paradigm,2021.1.4,59.981565932363786,
W,left,Distractor,0,57,57,57,1504.2549373119255,1506.2562237302773,left,1,2,0.6989168421714567,M18T09,2022-11-01_16h17.42.928,t1_Paradigm,2021.1.4,59.981565932363786,
S,left,Distractor,0,58,58,58,1507.7551092621288,1509.7559840907343,left,1,2,0.9269490841543302,M18T09,2022-11-01_16h17.42.928,t1_Paradigm,2021.1.4,59.981565932363786,
L,left,Distractor,0,59,59,59,1511.2552619641647,1513.2575306799263,left,1,2,0.8493687567533925,M18T09,2022-11-01_16h17.42.928,t1_Paradigm,2021.1.4,59.981565932363786,
K,left,Pretarget,0,60,60,60,1514.7548378631473,1516.757523943088,left,1,2,1.4295867228647694,M18T09,2022-11-01_16h17.42.928,t1_Paradigm,2021.1.4,59.981565932363786,
V,left,Pretarget,0,61,61,61,1518.255286986765,1520.2571043333155,left,1,2,0.746000073151663,M18T09,2022-11-01_16h17.42.928,t1_Paradigm,2021.1.4,59.981565932363786,
K,right,Target,0,62,62,62,1521.7548625649652,1523.7547842891072,right,1,2,0.8963252707035281,M18T09,2022-11-01_16h17.42.928,t1_Paradigm,2021.1.4,59.981565932363786,
V,right,Target,0,63,63,63,1525.2548324094969,1527.2571383384056,right,1,2,0.5619925304199569,M18T09,2022-11-01_16h17.42.928,t1_Paradigm,2021.1.4,59.981565932363786,
R,left,Distractor,0,0,0,0,1610.5204059306998,1612.5239633104065,left,1,3,0.43134375859517604,M18T09,2022-11-01_16h17.42.928,t1_Paradigm,2021.1.4,59.981565932363786,
P,left,Lure,0,1,1,1,1614.0218569207354,1616.03470025165,left,1,3,0.5523880223045126,M18T09,2022-11-01_16h17.42.928,t1_Paradigm,2021.1.4,59.981565932363786,
V,left,Distractor,0,2,2,2,1617.5220959186554,1619.5239722928964,left,1,3,0.7590698907151818,M18T09,2022-11-01_16h17.42.928,t1_Paradigm,2021.1.4,59.981565932363786,
P,left,Pretarget,0,3,3,3,1621.0219714472769,1623.0247544095619,left,1,3,0.9544832480023615,M18T09,2022-11-01_16h17.42.928,t1_Paradigm,2021.1.4,59.981565932363786,
Z,left,Distractor,0,4,4,4,1624.5216644391767,1626.523570968886,left,1,3,1.3436340900370851,M18T09,2022-11-01_16h17.42.928,t1_Paradigm,2021.1.4,59.981565932363786,
L,left,Pretarget,0,5,5,5,1628.0219922994147,1630.0211123379995,left,1,3,1.2860407252446748,M18T09,2022-11-01_16h17.42.928,t1_Paradigm,2021.1.4,59.981565932363786,
P,right,Target,0,6,6,6,1631.52153323096,1633.5209753552917,right,1,3,0.9701855714665726,M18T09,2022-11-01_16h17.42.928,t1_Paradigm,2021.1.4,59.981565932363786,
S,left,Distractor,0,7,7,7,1635.0218928506365,1637.034727519902,left,1,3,0.9125267629278824,M18T09,2022-11-01_16h17.42.928,t1_Paradigm,2021.1.4,59.981565932363786,
L,right,Target,0,8,8,8,1638.5220654424047,1640.524635070993,right,1,3,1.0865361727192067,M18T09,2022-11-01_16h17.42.928,t1_Paradigm,2021.1.4,59.981565932363786,
D,left,Distractor,0,9,9,9,1642.0220323997783,1644.0240104683908,left,1,3,1.1231875456869602,M18T09,2022-11-01_16h17.42.928,t1_Paradigm,2021.1.4,59.981565932363786,
G,left,Distractor,0,10,10,10,1645.52178281534,1647.5237605632283,left,1,3,1.095549441757612,M18T09,2022-11-01_16h17.42.928,t1_Paradigm,2021.1.4,59.981565932363786,
M,left,Pretarget,0,11,11,11,1649.0219015122857,1651.022869052831,None,0,3,,M18T09,2022-11-01_16h17.42.928,t1_Paradigm,2021.1.4,59.981565932363786,
Y,left,Distractor,0,12,12,12,1652.521253811894,1654.5240515311598,left,1,3,0.9113295277347788,M18T09,2022-11-01_16h17.42.928,t1_Paradigm,2021.1.4,59.981565932363786,
V,left,Distractor,0,13,13,13,1656.0219858833589,1658.0248990915134,left,1,3,1.4583174803410657,M18T09,2022-11-01_16h17.42.928,t1_Paradigm,2021.1.4,59.981565932363786,
M,right,Target,0,14,14,14,1659.5215688400203,1661.52367683372,left,0,3,1.095653060998302,M18T09,2022-11-01_16h17.42.928,t1_Paradigm,2021.1.4,59.981565932363786,
S,left,Pretarget,0,15,15,15,1663.0221007306827,1665.024790339463,left,1,3,1.2424298613332212,M18T09,2022-11-01_16h17.42.928,t1_Paradigm,2021.1.4,59.981565932363786,
Q,left,Distractor,0,16,16,16,1666.521601241082,1668.5237118012155,left,1,3,0.9756481976364739,M18T09,2022-11-01_16h17.42.928,t1_Paradigm,2021.1.4,59.981565932363786,
R,left,Pretarget,0,17,17,17,1670.0222075579804,1672.0238038715324,left,1,3,0.9314765707822517,M18T09,2022-11-01_16h17.42.928,t1_Paradigm,2021.1.4,59.981565932363786,
S,right,Target,0,18,18,18,1673.5217889106134,1675.5221956882742,right,1,3,0.5531521739903837,M18T09,2022-11-01_16h17.42.928,t1_Paradigm,2021.1.4,59.981565932363786,
F,left,Distractor,0,19,19,19,1677.022039457399,1679.0243453863077,left,1,3,0.7950199891929515,M18T09,2022-11-01_16h17.42.928,t1_Paradigm,2021.1.4,59.981565932363786,
R,right,Target,0,20,20,20,1680.5216118276003,1682.5246203140705,left,0,3,1.1506123158615083,M18T09,2022-11-01_16h17.42.928,t1_Paradigm,2021.1.4,59.981565932363786,
P,left,Distractor,0,21,21,21,1684.0219922994147,1686.0245259981602,None,0,3,,M18T09,2022-11-01_16h17.42.928,t1_Paradigm,2021.1.4,59.981565932363786,
L,left,Distractor,0,22,22,22,1687.5218033466954,1689.5238173452672,None,0,3,,M18T09,2022-11-01_16h17.42.928,t1_Paradigm,2021.1.4,59.981565932363786,
R,right,Target,0,23,23,23,1691.0220895025996,1693.0243694465025,right,1,3,0.9709176428732462,M18T09,2022-11-01_16h17.42.928,t1_Paradigm,2021.1.4,59.981565932363786,
H,left,Pretarget,0,24,24,24,1694.5220811617328,1696.5237326533534,left,1,3,1.2480307533987798,M18T09,2022-11-01_16h17.42.928,t1_Paradigm,2021.1.4,59.981565932363786,
G,left,Pretarget,0,25,25,25,1698.0218662240077,1700.0232501663268,left,1,3,0.8040242757997476,M18T09,2022-11-01_16h17.42.928,t1_Paradigm,2021.1.4,59.981565932363786,
T,left,Distractor,0,26,26,26,1701.5221960090566,1703.5242565239896,left,1,3,0.8231546955066733,M18T09,2022-11-01_16h17.42.928,t1_Paradigm,2021.1.4,59.981565932363786,
H,right,Target,0,27,27,27,1705.022258886369,1707.023845896707,right,1,3,0.939386599813588,M18T09,2022-11-01_16h17.42.928,t1_Paradigm,2021.1.4,59.981565932363786,
G,right,Target,0,28,28,28,1708.5223089315696,1710.524368484097,right,1,3,0.7828792158979923,M18T09,2022-11-01_16h17.42.928,t1_Paradigm,2021.1.4,59.981565932363786,
D,left,Distractor,0,29,29,29,1712.0220872570062,1714.0236072195694,left,1,3,0.9480351163656451,M18T09,2022-11-01_16h17.42.928,t1_Paradigm,2021.1.4,59.981565932363786,
N,left,Pretarget,0,30,30,30,1715.5219881290104,1717.5245908002835,left,1,3,0.8867364818579517,M18T09,2022-11-01_16h17.42.928,t1_Paradigm,2021.1.4,59.981565932363786,
V,left,Distractor,0,31,31,31,1719.02202181326,1721.0230817449628,left,1,3,0.7963962322683074,M18T09,2022-11-01_16h17.42.928,t1_Paradigm,2021.1.4,59.981565932363786,
R,left,Distractor,0,32,32,32,1722.522072820866,1724.523933475779,left,1,3,0.7992786433314905,M18T09,2022-11-01_16h17.42.928,t1_Paradigm,2021.1.4,59.981565932363786,
N,right,Target,0,33,33,33,1726.022036890965,1728.0236678512883,right,1,3,0.8516618535504676,M18T09,2022-11-01_16h17.42.928,t1_Paradigm,2021.1.4,59.981565932363786,
Z,left,Distractor,0,34,34,34,1729.5220933522214,1731.5239373254008,None,0,3,,M18T09,2022-11-01_16h17.42.928,t1_Paradigm,2021.1.4,59.981565932363786,
N,left,Lure,0,35,35,35,1733.0221337733674,1735.0240117516369,left,1,3,0.9713760698214173,M18T09,2022-11-01_16h17.42.928,t1_Paradigm,2021.1.4,59.981565932363786,
Y,left,Pretarget,0,36,36,36,1736.5220538935391,1738.5242956618895,left,1,3,0.8475183675764129,M18T09,2022-11-01_16h17.42.928,t1_Paradigm,2021.1.4,59.981565932363786,
Y,left,Lure,0,37,37,37,1740.0221533423173,1742.0216833665618,left,1,3,1.061584790411871,M18T09,2022-11-01_16h17.42.928,t1_Paradigm,2021.1.4,59.981565932363786,
B,left,Distractor,0,38,38,38,1743.5220247004763,1745.5212384134065,left,1,3,0.8103578809532337,M18T09,2022-11-01_16h17.42.928,t1_Paradigm,2021.1.4,59.981565932363786,
Y,right,Target,0,39,39,39,1747.022110675578,1749.0242343886057,right,1,3,0.6671166457235813,M18T09,2022-11-01_16h17.42.928,t1_Paradigm,2021.1.4,59.981565932363786,
J,left,Distractor,0,40,40,40,1750.5215556871262,1752.524848404748,left,1,3,0.9266664570895955,M18T09,2022-11-01_16h17.42.928,t1_Paradigm,2021.1.4,59.981565932363786,
X,left,Distractor,0,41,41,41,1754.0223243301152,1756.0246719632996,left,1,3,0.8026409751037136,M18T09,2022-11-01_16h17.42.928,t1_Paradigm,2021.1.4,59.981565932363786,
W,left,Pretarget,0,42,42,42,1757.5222553575295,1759.523962348001,left,1,3,0.7115093055181205,M18T09,2022-11-01_16h17.42.928,t1_Paradigm,2021.1.4,59.981565932363786,
S,left,Pretarget,0,43,43,43,1761.02212896134,1763.023838839028,left,1,3,0.7155392274144106,M18T09,2022-11-01_16h17.42.928,t1_Paradigm,2021.1.4,59.981565932363786,
R,left,Distractor,0,44,44,44,1764.5221703448333,1766.522234826174,left,1,3,0.817074524355121,M18T09,2022-11-01_16h17.42.928,t1_Paradigm,2021.1.4,59.981565932363786,
W,right,Target,0,45,45,45,1768.0219374421868,1770.0241865889984,left,0,3,0.8991816968191415,M18T09,2022-11-01_16h17.42.928,t1_Paradigm,2021.1.4,59.981565932363786,
S,right,Target,0,46,46,46,1771.522183818568,1773.5239883330069,left,0,3,0.9513467612559907,M18T09,2022-11-01_16h17.42.928,t1_Paradigm,2021.1.4,59.981565932363786,
D,left,Distractor,0,47,47,47,1775.021772870503,1777.0228093835758,left,1,3,0.6845920449704863,M18T09,2022-11-01_16h17.42.928,t1_Paradigm,2021.1.4,59.981565932363786,
T,left,Distractor,0,48,48,48,1778.5216737425071,1780.5250171468942,left,1,3,0.9423585148178972,M18T09,2022-11-01_16h17.42.928,t1_Paradigm,2021.1.4,59.981565932363786,
S,right,Target,0,49,49,49,1782.022352239932,1784.024350198335,right,1,3,1.0590944000286981,M18T09,2022-11-01_16h17.42.928,t1_Paradigm,2021.1.4,59.981565932363786,
K,left,Distractor,0,50,50,50,1785.5218861137982,1787.5244060179684,left,1,3,0.7589794243685901,M18T09,2022-11-01_16h17.42.928,t1_Paradigm,2021.1.4,59.981565932363786,
S,left,Lure,0,51,51,51,1789.0225793681457,1791.024532414216,right,0,3,1.2750968663021922,M18T09,2022-11-01_16h17.42.928,t1_Paradigm,2021.1.4,59.981565932363786,
T,left,Pretarget,0,52,52,52,1792.5220452318317,1794.5238013051567,right,0,3,1.1355949059361592,M18T09,2022-11-01_16h17.42.928,t1_Paradigm,2021.1.4,59.981565932363786,
V,left,Distractor,0,53,53,53,1796.022222314903,1798.023676192155,left,1,3,0.4999242905760184,M18T09,2022-11-01_16h17.42.928,t1_Paradigm,2021.1.4,59.981565932363786,
B,left,Distractor,0,54,54,54,1799.5217504142784,1801.5243110604351,left,1,3,1.0793078491697088,M18T09,2022-11-01_16h17.42.928,t1_Paradigm,2021.1.4,59.981565932363786,
T,right,Target,0,55,55,55,1803.0220715376781,1805.0245385094313,left,0,3,1.1950797226745635,M18T09,2022-11-01_16h17.42.928,t1_Paradigm,2021.1.4,59.981565932363786,
Y,left,Pretarget,0,56,56,56,1806.52201283077,1808.5213439574582,left,1,3,1.3940459684235975,M18T09,2022-11-01_16h17.42.928,t1_Paradigm,2021.1.4,59.981565932363786,
T,left,Lure,0,57,57,57,1810.0222521495307,1812.0226034283405,None,0,3,,M18T09,2022-11-01_16h17.42.928,t1_Paradigm,2021.1.4,59.981565932363786,
P,left,Pretarget,0,58,58,58,1813.5218309357297,1815.524369125662,left,1,3,1.0472571059362963,M18T09,2022-11-01_16h17.42.928,t1_Paradigm,2021.1.4,59.981565932363786,
Y,right,Target,0,59,59,59,1817.0222207108745,1819.0246430910775,right,1,3,0.8750605515087955,M18T09,2022-11-01_16h17.42.928,t1_Paradigm,2021.1.4,59.981565932363786,
R,left,Distractor,0,60,60,60,1820.522476390528,1822.524459271226,left,1,3,0.9909601043327712,M18T09,2022-11-01_16h17.42.928,t1_Paradigm,2021.1.4,59.981565932363786,
P,right,Target,0,61,61,61,1824.0220468358602,1826.0242937370786,right,1,3,0.6112726173596457,M18T09,2022-11-01_16h17.42.928,t1_Paradigm,2021.1.4,59.981565932363786,
L,left,Distractor,0,62,62,62,1827.522435969382,1829.5251207660767,left,1,3,1.0785953466547653,M18T09,2022-11-01_16h17.42.928,t1_Paradigm,2021.1.4,59.981565932363786,
V,left,Distractor,0,63,63,63,1831.0222457334748,1833.0236992898863,left,1,3,0.9878473569988273,M18T09,2022-11-01_16h17.42.928,t1_Paradigm,2021.1.4,59.981565932363786,
H,left,Lure,0,0,0,0,1849.76777005638,1851.7740712604718,left,1,3,0.765385210106615,M18T09,2022-11-01_16h17.42.928,t1_Paradigm,2021.1.4,59.981565932363786,
B,left,Distractor,0,1,1,1,1853.272335397778,1855.2744064991712,left,1,3,0.4651473670382984,M18T09,2022-11-01_16h17.42.928,t1_Paradigm,2021.1.4,59.981565932363786,
T,left,Distractor,0,2,2,2,1856.7723466258612,1858.7740731852828,left,1,3,0.9494902768055908,M18T09,2022-11-01_16h17.42.928,t1_Paradigm,2021.1.4,59.981565932363786,
R,left,Distractor,0,3,3,3,1860.2722908062278,1862.285022177035,left,1,3,0.5905981748946942,M18T09,2022-11-01_16h17.42.928,t1_Paradigm,2021.1.4,59.981565932363786,
H,left,Pretarget,0,4,4,4,1863.7720620739856,1865.772593323025,left,1,3,0.9430690925219096,M18T09,2022-11-01_16h17.42.928,t1_Paradigm,2021.1.4,59.981565932363786,
K,left,Distractor,0,5,5,5,1867.2723270569113,1869.274390779843,None,0,3,,M18T09,2022-11-01_16h17.42.928,t1_Paradigm,2021.1.4,59.981565932363786,
G,left,Distractor,0,6,6,6,1870.7722689916263,1872.7717197776656,left,1,3,0.7279138658195734,M18T09,2022-11-01_16h17.42.928,t1_Paradigm,2021.1.4,59.981565932363786,
H,right,Target,0,7,7,7,1874.272478475701,1876.272972832492,right,1,3,1.2747231313260272,M18T09,2022-11-01_16h17.42.928,t1_Paradigm,2021.1.4,59.981565932363786,
Y,left,Pretarget,0,8,8,8,1877.772370686056,1879.7717746348935,left,1,3,0.6238541734055616,M18T09,2022-11-01_16h17.42.928,t1_Paradigm,2021.1.4,59.981565932363786,
S,left,Distractor,0,9,9,9,1881.2723434178624,1883.2743535667541,left,1,3,0.6573799668694846,M18T09,2022-11-01_16h17.42.928,t1_Paradigm,2021.1.4,59.981565932363786,
P,left,Distractor,0,10,10,10,1884.7723113375832,1886.774032764195,left,1,3,0.9815747043467127,M18T09,2022-11-01_16h17.42.928,t1_Paradigm,2021.1.4,59.981565932363786,
Y,right,Target,0,11,11,11,1888.2722568011377,1890.2736965630902,right,1,3,0.7780607612803578,M18T09,2022-11-01_16h17.42.928,t1_Paradigm,2021.1.4,59.981565932363786,
H,left,Lure,0,12,12,12,1891.772106023971,1893.773994909483,left,1,3,0.7015750122955069,M18T09,2022-11-01_16h17.42.928,t1_Paradigm,2021.1.4,59.981565932363786,
Q,left,Distractor,0,13,13,13,1895.2723591371905,1897.2724589067511,left,1,3,0.8511665344121866,M18T09,2022-11-01_16h17.42.928,t1_Paradigm,2021.1.4,59.981565932363786,
V,left,Pretarget,0,14,14,14,1898.7723257737234,1900.7725320497411,left,1,3,0.7429915866232477,M18T09,2022-11-01_16h17.42.928,t1_Paradigm,2021.1.4,59.981565932363786,
G,left,Distractor,0,15,15,15,1902.2723440594273,1904.2741001327522,left,1,3,1.193544682348147,M18T09,2022-11-01_16h17.42.928,t1_Paradigm,2021.1.4,59.981565932363786,
Z,left,Pretarget,0,16,16,16,1905.7724518491304,1907.7735576555715,left,1,3,0.6221478244988248,M18T09,2022-11-01_16h17.42.928,t1_Paradigm,2021.1.4,59.981565932363786,
V,right,Target,0,17,17,17,1909.272377743735,1911.2741299673798,left,0,3,0.7375581534579396,M18T09,2022-11-01_16h17.42.928,t1_Paradigm,2021.1.4,59.981565932363786,
N,left,Distractor,0,18,18,18,1912.772411748767,1914.7741832205793,left,1,3,0.8375500692636706,M18T09,2022-11-01_16h17.42.928,t1_Paradigm,2021.1.4,59.981565932363786,
Z,right,Target,0,19,19,19,1916.2725134431967,1918.2738046735758,right,1,3,0.9378692036843859,M18T09,2022-11-01_16h17.42.928,t1_Paradigm,2021.1.4,59.981565932363786,
R,left,Distractor,0,20,20,20,1919.7723918590345,1921.7740382178454,left,1,3,0.653590646921657,M18T09,2022-11-01_16h17.42.928,t1_Paradigm,2021.1.4,59.981565932363786,
P,left,Distractor,0,21,21,21,1923.2720187656232,1925.2741944486625,None,0,3,,M18T09,2022-11-01_16h17.42.928,t1_Paradigm,2021.1.4,59.981565932363786,
Z,right,Target,0,22,22,22,1926.7724005206837,1928.773904763977,right,1,3,0.757576233940199,M18T09,2022-11-01_16h17.42.928,t1_Paradigm,2021.1.4,59.981565932363786,
D,left,Pretarget,0,23,23,23,1930.2725413530134,1932.2746708404738,left,1,3,0.777164118073415,M18T09,2022-11-01_16h17.42.928,t1_Paradigm,2021.1.4,59.981565932363786,
K,left,Distractor,0,24,24,24,1933.7721615227638,1935.7745242337114,left,1,3,0.9252934220712632,M18T09,2022-11-01_16h17.42.928,t1_Paradigm,2021.1.4,59.981565932363786,
W,left,Distractor,0,25,25,25,1937.2722369114053,1939.2740545787383,left,1,3,0.5942633442464285,M18T09,2022-11-01_16h17.42.928,t1_Paradigm,2021.1.4,59.981565932363786,
D,right,Target,0,26,26,26,1940.7726132128155,1942.771972890885,right,1,3,0.6801274355966598,M18T09,2022-11-01_16h17.42.928,t1_Paradigm,2021.1.4,59.981565932363786,
G,left,Pretarget,0,27,27,27,1944.2724066159572,1946.274122268078,left,1,3,0.6656027783756144,M18T09,2022-11-01_16h17.42.928,t1_Paradigm,2021.1.4,59.981565932363786,
V,left,Distractor,0,28,28,28,1947.7724194480688,1949.7743497171323,left,1,3,0.8615153045393527,M18T09,2022-11-01_16h17.42.928,t1_Paradigm,2021.1.4,59.981565932363786,
D,right,Target,0,29,29,29,1951.2721246305155,1953.2738255257136,right,1,3,1.0420232119504362,M18T09,2022-11-01_16h17.42.928,t1_Paradigm,2021.1.4,59.981565932363786,
G,right,Target,0,30,30,30,1954.7724239393137,1956.774546048313,right,1,3,0.5811271205893718,M18T09,2022-11-01_16h17.42.928,t1_Paradigm,2021.1.4,59.981565932363786,
B,left,Pretarget,0,31,31,31,1958.272482966946,1960.2740898670163,left,1,3,0.6656184977036901,M18T09,2022-11-01_16h17.42.928,t1_Paradigm,2021.1.4,59.981565932363786,
N,left,Distractor,0,32,32,32,1961.7725930022425,1963.7731553691556,left,1,3,1.006627460301388,M18T09,2022-11-01_16h17.42.928,t1_Paradigm,2021.1.4,59.981565932363786,
F,left,Distractor,0,33,33,33,1965.2723004302825,1967.2745447650668,left,1,3,1.1213345900177956,M18T09,2022-11-01_16h17.42.928,t1_Paradigm,2021.1.4,59.981565932363786,
B,right,Target,0,34,34,34,1968.7723004302825,1970.774994209467,left,0,3,0.8367589701083489,M18T09,2022-11-01_16h17.42.928,t1_Paradigm,2021.1.4,59.981565932363786,
Q,left,Pretarget,0,35,35,35,1972.272516972036,1974.2741299673798,left,1,3,0.8095677442033775,M18T09,2022-11-01_16h17.42.928,t1_Paradigm,2021.1.4,59.981565932363786,
S,left,Pretarget,0,36,36,36,1975.7722083599656,1977.7730835093535,None,0,3,,M18T09,2022-11-01_16h17.42.928,t1_Paradigm,2021.1.4,59.981565932363786,
W,left,Distractor,0,37,37,37,1979.272288881417,1981.2748533771373,left,1,3,1.025068796123378,M18T09,2022-11-01_16h17.42.928,t1_Paradigm,2021.1.4,59.981565932363786,
Q,right,Target,0,38,38,38,1982.7724820045405,1984.7727267768933,right,1,3,0.7429293509339914,M18T09,2022-11-01_16h17.42.928,t1_Paradigm,2021.1.4,59.981565932363786,
S,right,Target,0,39,39,39,1986.272589473403,1988.2746037927573,left,0,3,0.6330955330631696,M18T09,2022-11-01_16h17.42.928,t1_Paradigm,2021.1.4,59.981565932363786,
T,left,Distractor,0,40,40,40,1989.7723199992324,1991.7743115416379,left,1,3,1.1014358481625095,M18T09,2022-11-01_16h17.42.928,t1_Paradigm,2021.1.4,59.981565932363786,
G,left,Distractor,0,41,41,41,1993.2721660140087,1995.2744687348604,right,0,3,1.2978010267252102,M18T09,2022-11-01_16h17.42.928,t1_Paradigm,2021.1.4,59.981565932363786,
D,left,Distractor,0,42,42,42,1996.7725278793368,1998.7742104888312,left,1,3,0.661799022287596,M18T09,2022-11-01_16h17.42.928,t1_Paradigm,2021.1.4,59.981565932363786,
S,left,Lure,0,43,43,43,2000.2725249921205,2002.2747529659537,right,0,3,1.1772007537656464,M18T09,2022-11-01_16h17.42.928,t1_Paradigm,2021.1.4,59.981565932363786,
Z,left,Pretarget,0,44,44,44,2003.7725872278097,2005.773571770871,left,1,3,0.9583498814026825,M18T09,2022-11-01_16h17.42.928,t1_Paradigm,2021.1.4,59.981565932363786,
J,left,Distractor,0,45,45,45,2007.2718230760656,2009.274777346931,left,1,3,0.8973082097945735,M18T09,2022-11-01_16h17.42.928,t1_Paradigm,2021.1.4,59.981565932363786,
M,left,Pretarget,0,46,46,46,2010.7726391978213,2012.7743356018327,left,1,3,0.7892506757634692,M18T09,2022-11-01_16h17.42.928,t1_Paradigm,2021.1.4,59.981565932363786,
Z,right,Target,0,47,47,47,2014.272411748767,2016.2742383986479,right,1,3,0.8416877808049321,M18T09,2022-11-01_16h17.42.928,t1_Paradigm,2021.1.4,59.981565932363786,
P,left,Distractor,0,48,48,48,2017.7724897038424,2019.7743015967426,left,1,3,1.0535233425325714,M18T09,2022-11-01_16h17.42.928,t1_Paradigm,2021.1.4,59.981565932363786,
M,right,Target,0,49,49,49,2021.2723232072894,2023.2751963151386,left,0,3,0.832575062988326,M18T09,2022-11-01_16h17.42.928,t1_Paradigm,2021.1.4,59.981565932363786,
K,left,Distractor,0,50,50,50,2024.7723690820276,2026.77375526994,left,1,3,0.7100669771898538,M18T09,2022-11-01_16h17.42.928,t1_Paradigm,2021.1.4,59.981565932363786,
Y,left,Distractor,0,51,51,51,2028.2725496938801,2030.2734200312989,left,1,3,0.7787533740629442,M18T09,2022-11-01_16h17.42.928,t1_Paradigm,2021.1.4,59.981565932363786,
X,left,Distractor,0,52,52,52,2031.7725599595578,2033.774124192947,left,1,3,1.198159106541425,M18T09,2022-11-01_16h17.42.928,t1_Paradigm,2021.1.4,59.981565932363786,
F,left,Pretarget,0,53,53,53,2035.2725285209017,2037.274662499607,None,0,3,,M18T09,2022-11-01_16h17.42.928,t1_Paradigm,2021.1.4,59.981565932363786,
M,left,Lure,0,54,54,54,2038.7726844309946,2040.774619191303,left,1,3,0.6134483003988862,M18T09,2022-11-01_16h17.42.928,t1_Paradigm,2021.1.4,59.981565932363786,
V,left,Distractor,0,55,55,55,2042.2726234784932,2044.274215621641,left,1,3,0.7936206484446302,M18T09,2022-11-01_16h17.42.928,t1_Paradigm,2021.1.4,59.981565932363786,
F,right,Target,0,56,56,56,2045.7722779741162,2047.7744966446771,right,1,3,0.5256645265035331,M18T09,2022-11-01_16h17.42.928,t1_Paradigm,2021.1.4,59.981565932363786,
S,left,Distractor,0,57,57,57,2049.2726927718613,2051.2747151112417,left,1,3,0.737199817027431,M18T09,2022-11-01_16h17.42.928,t1_Paradigm,2021.1.4,59.981565932363786,
D,left,Distractor,0,58,58,58,2052.772585623781,2054.772755328333,left,1,3,0.6154238026356325,M18T09,2022-11-01_16h17.42.928,t1_Paradigm,2021.1.4,59.981565932363786,
F,right,Target,0,59,59,59,2056.272565092426,2058.2748575476,right,1,3,0.6650359202758409,M18T09,2022-11-01_16h17.42.928,t1_Paradigm,2021.1.4,59.981565932363786,
V,left,Pretarget,0,60,60,60,2059.7727986366954,2061.7722324201604,left,1,3,0.7516843738849275,M18T09,2022-11-01_16h17.42.928,t1_Paradigm,2021.1.4,59.981565932363786,
J,left,Distractor,0,61,61,61,2063.2726000599214,2065.2746432514978,left,1,3,1.089384899532888,M18T09,2022-11-01_16h17.42.928,t1_Paradigm,2021.1.4,59.981565932363786,
V,left,Lure,0,62,62,62,2066.7723501547007,2068.7743147496367,right,0,3,0.853592443454545,M18T09,2022-11-01_16h17.42.928,t1_Paradigm,2021.1.4,59.981565932363786,
V,right,Target,0,63,63,63,2070.2726183456252,2072.2725269169314,None,0,3,,M18T09,2022-11-01_16h17.42.928,t1_Paradigm,2021.1.4,59.981565932363786,
R,left,Distractor,0,0,0,0,2231.324049093062,2233.3246117807576,left,1,4,0.4636633343761787,M18T09,2022-11-01_16h17.42.928,t1_Paradigm,2021.1.4,59.981565932363786,
F,left,Distractor,0,1,1,1,2234.82209380134,2236.822447005019,left,1,4,0.3738065342186019,M18T09,2022-11-01_16h17.42.928,t1_Paradigm,2021.1.4,59.981565932363786,
P,left,Pretarget,0,2,2,2,2238.3225342633086,2240.3238149071694,left,1,4,0.712590089358855,M18T09,2022-11-01_16h17.42.928,t1_Paradigm,2021.1.4,59.981565932363786,
H,left,Distractor,0,3,3,3,2241.8228544242447,2243.8221156159416,left,1,4,0.8619730898062699,M18T09,2022-11-01_16h17.42.928,t1_Paradigm,2021.1.4,59.981565932363786,
Z,left,Distractor,0,4,4,4,2245.323032790504,2247.324836021755,None,0,4,,M18T09,2022-11-01_16h17.42.928,t1_Paradigm,2021.1.4,59.981565932363786,
T,left,Distractor,0,5,5,5,2248.823032148881,2250.8248395505943,left,1,4,0.7873569781659171,M18T09,2022-11-01_16h17.42.928,t1_Paradigm,2021.1.4,59.981565932363786,
P,right,Target,0,6,6,6,2252.3225974614033,2254.325136613741,right,1,4,1.047697888687253,M18T09,2022-11-01_16h17.42.928,t1_Paradigm,2021.1.4,59.981565932363786,
G,left,Distractor,0,7,7,7,2255.8229673467577,2257.824557885935,left,1,4,0.7959362013498321,M18T09,2022-11-01_16h17.42.928,t1_Paradigm,2021.1.4,59.981565932363786,
L,left,Distractor,0,8,8,8,2259.322803095856,2261.324781164527,left,1,4,0.7194895902648568,M18T09,2022-11-01_16h17.42.928,t1_Paradigm,2021.1.4,59.981565932363786,
P,left,Lure,0,9,9,9,2262.822972158785,2264.8253531554947,right,0,4,0.9148843410657719,M18T09,2022-11-01_16h17.42.928,t1_Paradigm,2021.1.4,59.981565932363786,
Q,left,Pretarget,0,10,10,10,2266.322880088468,2268.3250884933514,left,1,4,0.6311713592149317,M18T09,2022-11-01_16h17.42.928,t1_Paradigm,2021.1.4,59.981565932363786,
D,left,Distractor,0,11,11,11,2269.82294649462,2271.822561852343,left,1,4,0.5417928757378832,M18T09,2022-11-01_16h17.42.928,t1_Paradigm,2021.1.4,59.981565932363786,
M,left,Pretarget,0,12,12,12,2273.3229503442417,2275.3250637915917,left,1,4,0.7831721086404286,M18T09,2022-11-01_16h17.42.928,t1_Paradigm,2021.1.4,59.981565932363786,
C,left,Distractor,0,13,13,13,2276.822799567017,2278.824987119762,left,1,4,0.7232060880633071,M18T09,2022-11-01_16h17.42.928,t1_Paradigm,2021.1.4,59.981565932363786,
Q,right,Target,0,14,14,14,2280.322714233538,2282.3254445842467,right,1,4,1.1588893430307508,M18T09,2022-11-01_16h17.42.928,t1_Paradigm,2021.1.4,59.981565932363786,
R,left,Distractor,0,15,15,15,2283.8230696828105,2285.8247782772523,left,1,4,0.7796846639248542,M18T09,2022-11-01_16h17.42.928,t1_Paradigm,2021.1.4,59.981565932363786,
M,right,Target,0,16,16,16,2287.323081873299,2289.322479726863,None,0,4,,M18T09,2022-11-01_16h17.42.928,t1_Paradigm,2021.1.4,59.981565932363786,
S,left,Distractor,0,17,17,17,2290.8229914069525,2292.825048393046,left,1,4,1.17129285359988,M18T09,2022-11-01_16h17.42.928,t1_Paradigm,2021.1.4,59.981565932363786,
Z,left,Distractor,0,18,18,18,2294.3225734012085,2296.3249005030375,left,1,4,0.9994244801928289,M18T09,2022-11-01_16h17.42.928,t1_Paradigm,2021.1.4,59.981565932363786,
L,left,Pretarget,0,19,19,19,2297.8227694116067,2299.823684019735,left,1,4,0.7967837617616169,M18T09,2022-11-01_16h17.42.928,t1_Paradigm,2021.1.4,59.981565932363786,
M,right,Target,0,20,20,20,2301.3230286200414,2303.335636161093,right,1,4,0.4848847452085465,M18T09,2022-11-01_16h17.42.928,t1_Paradigm,2021.1.4,59.981565932363786,
P,left,Distractor,0,21,21,21,2304.8230417729355,2306.82483153051,left,1,4,0.675613101804629,M18T09,2022-11-01_16h17.42.928,t1_Paradigm,2021.1.4,59.981565932363786,
F,left,Distractor,0,22,22,22,2308.32306422916,2310.324984232546,left,1,4,0.6636112360865809,M18T09,2022-11-01_16h17.42.928,t1_Paradigm,2021.1.4,59.981565932363786,
L,right,Target,0,23,23,23,2311.823203136679,2313.825480193307,right,1,4,0.618860881368164,M18T09,2022-11-01_16h17.42.928,t1_Paradigm,2021.1.4,59.981565932363786,
L,left,Lure,0,24,24,24,2315.32321564795,2317.3230129007134,None,0,4,,M18T09,2022-11-01_16h17.42.928,t1_Paradigm,2021.1.4,59.981565932363786,
V,left,Pretarget,0,25,25,25,2318.8230064846575,2320.8248722724384,left,1,4,1.0594880247372203,M18T09,2022-11-01_16h17.42.928,t1_Paradigm,2021.1.4,59.981565932363786,
Z,left,Distractor,0,26,26,26,2322.3228162487503,2324.325265255582,left,1,4,1.2871693086926825,M18T09,2022-11-01_16h17.42.928,t1_Paradigm,2021.1.4,59.981565932363786,
H,left,Distractor,0,27,27,27,2325.822925963206,2327.8239339248976,left,1,4,0.8445454901084304,M18T09,2022-11-01_16h17.42.928,t1_Paradigm,2021.1.4,59.981565932363786,
X,left,Distractor,0,28,28,28,2329.3230931013823,2331.323235858523,left,1,4,0.6411823242669925,M18T09,2022-11-01_16h17.42.928,t1_Paradigm,2021.1.4,59.981565932363786,
V,right,Target,0,29,29,29,2332.822320287989,2334.8235765508725,right,1,4,0.6289969594799913,M18T09,2022-11-01_16h17.42.928,t1_Paradigm,2021.1.4,59.981565932363786,
C,left,Distractor,0,30,30,30,2336.3230770612718,2338.3247725028195,left,1,4,0.6156400236068293,M18T09,2022-11-01_16h17.42.928,t1_Paradigm,2021.1.4,59.981565932363786,
S,left,Pretarget,0,31,31,31,2339.823079948488,2341.8240410729777,left,1,4,0.5404471089714207,M18T09,2022-11-01_16h17.42.928,t1_Paradigm,2021.1.4,59.981565932363786,
D,left,Distractor,0,32,32,32,2343.323070645216,2345.3255260680453,left,1,4,0.8473355100722983,M18T09,2022-11-01_16h17.42.928,t1_Paradigm,2021.1.4,59.981565932363786,
V,left,Distractor,0,33,33,33,2346.823052359454,2348.8251975662424,left,1,4,0.8031741489539854,M18T09,2022-11-01_16h17.42.928,t1_Paradigm,2021.1.4,59.981565932363786,
R,left,Distractor,0,34,34,34,2350.322528488876,2352.325504253502,None,0,4,,M18T09,2022-11-01_16h17.42.928,t1_Paradigm,2021.1.4,59.981565932363786,
S,right,Target,0,35,35,35,2353.82304081053,2355.824873876467,None,0,4,,M18T09,2022-11-01_16h17.42.928,t1_Paradigm,2021.1.4,59.981565932363786,
Y,left,Distractor,0,36,36,36,2357.3230645499425,2359.322346914618,left,1,4,0.8822808549157344,M18T09,2022-11-01_16h17.42.928,t1_Paradigm,2021.1.4,59.981565932363786,
N,left,Pretarget,0,37,37,37,2360.82304979302,2362.8254901382024,left,1,4,1.2029589546145871,M18T09,2022-11-01_16h17.42.928,t1_Paradigm,2021.1.4,59.981565932363786,
Z,left,Pretarget,0,38,38,38,2364.3230860437034,2366.324902748689,left,1,4,0.7434564295690507,M18T09,2022-11-01_16h17.42.928,t1_Paradigm,2021.1.4,59.981565932363786,
P,left,Pretarget,0,39,39,39,2367.8231643195613,2369.82507052843,left,1,4,0.6513277055928484,M18T09,2022-11-01_16h17.42.928,t1_Paradigm,2021.1.4,59.981565932363786,
M,left,Distractor,0,40,40,40,2371.3230709659983,2373.325158107502,left,1,4,0.7512978067970835,M18T09,2022-11-01_16h17.42.928,t1_Paradigm,2021.1.4,59.981565932363786,
N,right,Target,0,41,41,41,2374.8232278384385,2376.8222394457553,right,1,4,0.7101147767389193,M18T09,2022-11-01_16h17.42.928,t1_Paradigm,2021.1.4,59.981565932363786,
Z,right,Target,0,42,42,42,2378.3230578131042,2380.325728173717,left,0,4,0.8068434887682088,M18T09,2022-11-01_16h17.42.928,t1_Paradigm,2021.1.4,59.981565932363786,
P,right,Target,0,43,43,43,2381.8232903949684,2383.8251683731796,left,0,4,0.7795107889105566,M18T09,2022-11-01_16h17.42.928,t1_Paradigm,2021.1.4,59.981565932363786,
X,left,Pretarget,0,44,44,44,2385.3229644595413,2387.3252014158643,left,1,4,1.0234153796336614,M18T09,2022-11-01_16h17.42.928,t1_Paradigm,2021.1.4,59.981565932363786,
Z,left,Lure,0,45,45,45,2388.823276279669,2390.824597665458,left,1,4,0.8038356438628398,M18T09,2022-11-01_16h17.42.928,t1_Paradigm,2021.1.4,59.981565932363786,
R,left,Pretarget,0,46,46,46,2392.323042093776,2394.325738760177,left,1,4,0.9347157143638469,M18T09,2022-11-01_16h17.42.928,t1_Paradigm,2021.1.4,59.981565932363786,
K,left,Distractor,0,47,47,47,2395.822851857869,2397.8244950086228,left,1,4,0.5241551504004747,M18T09,2022-11-01_16h17.42.928,t1_Paradigm,2021.1.4,59.981565932363786,
X,right,Target,0,48,48,48,2399.323001993471,2401.325404804724,right,1,4,0.5275094620301388,M18T09,2022-11-01_16h17.42.928,t1_Paradigm,2021.1.4,59.981565932363786,
B,left,Distractor,0,49,49,49,2402.8232121191104,2404.8256091559306,left,1,4,0.5790643600630574,M18T09,2022-11-01_16h17.42.928,t1_Paradigm,2021.1.4,59.981565932363786,
R,right,Target,0,50,50,50,2406.322935587319,2408.324284241302,right,1,4,0.7286404836340807,M18T09,2022-11-01_16h17.42.928,t1_Paradigm,2021.1.4,59.981565932363786,
Y,left,Pretarget,0,51,51,51,2409.8232194975717,2411.8252241928712,left,1,4,1.0832944627618417,M18T09,2022-11-01_16h17.42.928,t1_Paradigm,2021.1.4,59.981565932363786,
W,left,Pretarget,0,52,52,52,2413.3232897533453,2415.325615892769,left,1,4,0.5912211734685116,M18T09,2022-11-01_16h17.42.928,t1_Paradigm,2021.1.4,59.981565932363786,
Z,left,Distractor,0,53,53,53,2416.8231081790873,2418.8252771252883,left,1,4,0.5794342454173602,M18T09,2022-11-01_16h17.42.928,t1_Paradigm,2021.1.4,59.981565932363786,
Q,left,Distractor,0,54,54,54,2420.323151808232,2422.3252572354977,left,1,4,0.6633853910607286,M18T09,2022-11-01_16h17.42.928,t1_Paradigm,2021.1.4,59.981565932363786,
Y,right,Target,0,55,55,55,2423.823085722921,2425.8359922519303,right,1,4,0.5126588694402017,M18T09,2022-11-01_16h17.42.928,t1_Paradigm,2021.1.4,59.981565932363786,
W,right,Target,0,56,56,56,2427.3231639987207,2429.3252825789386,left,0,4,1.1832799625117332,M18T09,2022-11-01_16h17.42.928,t1_Paradigm,2021.1.4,59.981565932363786,
H,left,Pretarget,0,57,57,57,2430.823223668034,2432.82517767651,left,1,4,0.8993337572319433,M18T09,2022-11-01_16h17.42.928,t1_Paradigm,2021.1.4,59.981565932363786,
M,left,Distractor,0,58,58,58,2434.3229359081015,2436.3242309881025,left,1,4,0.5364005053415895,M18T09,2022-11-01_16h17.42.928,t1_Paradigm,2021.1.4,59.981565932363786,
R,left,Pretarget,0,59,59,59,2437.8232952069957,2439.8256633715937,left,1,4,0.6828504078439437,M18T09,2022-11-01_16h17.42.928,t1_Paradigm,2021.1.4,59.981565932363786,
J,left,Distractor,0,60,60,60,2441.323029582447,2443.3251930749975,left,1,4,0.6075416834792122,M18T09,2022-11-01_16h17.42.928,t1_Paradigm,2021.1.4,59.981565932363786,
H,right,Target,0,61,61,61,2444.823200570245,2446.824542808172,right,1,4,0.5482073231833056,M18T09,2022-11-01_16h17.42.928,t1_Paradigm,2021.1.4,59.981565932363786,
Z,left,Distractor,0,62,62,62,2448.3233093222952,2450.3246733748238,left,1,4,0.9199286407092586,M18T09,2022-11-01_16h17.42.928,t1_Paradigm,2021.1.4,59.981565932363786,
R,right,Target,0,63,63,63,2451.8232948862133,2453.8254208448343,left,0,4,0.8113199678482488,M18T09,2022-11-01_16h17.42.928,t1_Paradigm,2021.1.4,59.981565932363786,
J,left,Pretarget,0,0,0,0,2477.9748676849413,2479.973745517549,left,1,4,1.4310572819085792,M18T09,2022-11-01_16h17.42.928,t1_Paradigm,2021.1.4,59.981565932363786,
G,left,Pretarget,0,1,1,1,2481.473320133344,2483.4723644625046,left,1,4,0.3644275502883829,M18T09,2022-11-01_16h17.42.928,t1_Paradigm,2021.1.4,59.981565932363786,
Z,left,Distractor,0,2,2,2,2484.9732290254324,2486.9755397663685,left,1,4,0.4772945564473048,M18T09,2022-11-01_16h17.42.928,t1_Paradigm,2021.1.4,59.981565932363786,
F,left,Distractor,0,3,3,3,2488.4735430911533,2490.47539187636,left,1,4,0.6734133586287498,M18T09,2022-11-01_16h17.42.928,t1_Paradigm,2021.1.4,59.981565932363786,
J,right,Target,0,4,4,4,2491.9733461183496,2493.9741381799104,right,1,4,0.5025891975383274,M18T09,2022-11-01_16h17.42.928,t1_Paradigm,2021.1.4,59.981565932363786,
G,right,Target,0,5,5,5,2495.473373707384,2497.474529238243,right,1,4,0.6181320179603063,M18T09,2022-11-01_16h17.42.928,t1_Paradigm,2021.1.4,59.981565932363786,
H,left,Distractor,0,6,6,6,2498.9733826898737,2500.974766952975,left,1,4,0.6216772071784362,M18T09,2022-11-01_16h17.42.928,t1_Paradigm,2021.1.4,59.981565932363786,
P,left,Distractor,0,7,7,7,2502.473294148338,2504.476009742124,left,1,4,1.1526891917455941,M18T09,2022-11-01_16h17.42.928,t1_Paradigm,2021.1.4,59.981565932363786,
G,left,Lure,0,8,8,8,2505.973356704868,2507.973878650635,left,1,4,1.2868218795047142,M18T09,2022-11-01_16h17.42.928,t1_Paradigm,2021.1.4,59.981565932363786,
S,left,Distractor,0,9,9,9,2509.473285486689,2511.47524559038,right,0,4,0.7934268836397678,M18T09,2022-11-01_16h17.42.928,t1_Paradigm,2021.1.4,59.981565932363786,
R,left,Pretarget,0,10,10,10,2512.9733525344054,2514.975617400545,left,1,4,0.6368774745496921,M18T09,2022-11-01_16h17.42.928,t1_Paradigm,2021.1.4,59.981565932363786,
T,left,Pretarget,0,11,11,11,2516.473462569702,2518.4757761978544,left,1,4,0.7689477226231247,M18T09,2022-11-01_16h17.42.928,t1_Paradigm,2021.1.4,59.981565932363786,
X,left,Distractor,0,12,12,12,2519.973340343917,2521.9738802546635,left,1,4,0.5987744699814357,M18T09,2022-11-01_16h17.42.928,t1_Paradigm,2021.1.4,59.981565932363786,
F,left,Pretarget,0,13,13,13,2523.4734009755775,2525.4753014100133,left,1,4,0.601489101361949,M18T09,2022-11-01_16h17.42.928,t1_Paradigm,2021.1.4,59.981565932363786,
R,right,Target,0,14,14,14,2526.973251802381,2528.975617400545,right,1,4,0.6850684368400835,M18T09,2022-11-01_16h17.42.928,t1_Paradigm,2021.1.4,59.981565932363786,
T,right,Target,0,15,15,15,2530.473425998178,2532.475617721386,left,0,4,0.609149545955006,M18T09,2022-11-01_16h17.42.928,t1_Paradigm,2021.1.4,59.981565932363786,
C,left,Distractor,0,16,16,16,2533.9734811762464,2535.9751506328466,left,1,4,0.6137492132256739,M18T09,2022-11-01_16h17.42.928,t1_Paradigm,2021.1.4,59.981565932363786,
F,right,Target,0,17,17,17,2537.472968854534,2539.475648518419,right,1,4,0.7292625198024325,M18T09,2022-11-01_16h17.42.928,t1_Paradigm,2021.1.4,59.981565932363786,
M,left,Distractor,0,18,18,18,2540.973446208751,2542.9752937107696,left,1,4,0.6052787421504036,M18T09,2022-11-01_16h17.42.928,t1_Paradigm,2021.1.4,59.981565932363786,
N,left,Distractor,0,19,19,19,2544.4731090452406,2546.475175655447,left,1,4,0.7856778975692578,M18T09,2022-11-01_16h17.42.928,t1_Paradigm,2021.1.4,59.981565932363786,
R,left,Lure,0,20,20,20,2547.9732716921717,2549.9750303318724,left,1,4,1.125833846104797,M18T09,2022-11-01_16h17.42.928,t1_Paradigm,2021.1.4,59.981565932363786,
F,right,Target,0,21,21,21,2551.473401937983,2553.4739104100736,left,0,4,1.0348638609866612,M18T09,2022-11-01_16h17.42.928,t1_Paradigm,2021.1.4,59.981565932363786,
P,left,Distractor,0,22,22,22,2554.973574850592,2556.9740736985696,left,1,4,1.0227660752716474,M18T09,2022-11-01_16h17.42.928,t1_Paradigm,2021.1.4,59.981565932363786,
L,left,Pretarget,0,23,23,23,2558.47336055449,2560.475358512893,left,1,4,0.9778489032178186,M18T09,2022-11-01_16h17.42.928,t1_Paradigm,2021.1.4,59.981565932363786,
T,left,Distractor,0,24,24,24,2561.973541807907,2563.974204586062,left,1,4,0.6146962224156596,M18T09,2022-11-01_16h17.42.928,t1_Paradigm,2021.1.4,59.981565932363786,
F,left,Distractor,0,25,25,25,2565.4734741185675,2567.475098021212,right,0,4,0.5217565095517784,M18T09,2022-11-01_16h17.42.928,t1_Paradigm,2021.1.4,59.981565932363786,
V,left,Distractor,0,26,26,26,2568.9731722433935,2570.975292748364,left,1,4,0.8616911043063737,M18T09,2022-11-01_16h17.42.928,t1_Paradigm,2021.1.4,59.981565932363786,
L,right,Target,0,27,27,27,2572.473314358911,2574.4744185613818,left,0,4,0.8183590178377926,M18T09,2022-11-01_16h17.42.928,t1_Paradigm,2021.1.4,59.981565932363786,
S,left,Pretarget,0,28,28,28,2575.9730298070353,2577.986279915611,left,1,4,0.8425526645733044,M18T09,2022-11-01_16h17.42.928,t1_Paradigm,2021.1.4,59.981565932363786,
W,left,Distractor,0,29,29,29,2579.4733865394956,2581.47438231064,left,1,4,0.6504150222754106,M18T09,2022-11-01_16h17.42.928,t1_Paradigm,2021.1.4,59.981565932363786,
Q,left,Distractor,0,30,30,30,2582.973222930159,2584.9758377919206,left,1,4,0.5569302658550441,M18T09,2022-11-01_16h17.42.928,t1_Paradigm,2021.1.4,59.981565932363786,
L,right,Target,0,31,31,31,2586.4735459783697,2588.475520518201,right,1,4,0.8013301757746376,M18T09,2022-11-01_16h17.42.928,t1_Paradigm,2021.1.4,59.981565932363786,
S,right,Target,0,32,32,32,2589.973728515033,2591.9754733602167,left,0,4,1.0615389156155288,M18T09,2022-11-01_16h17.42.928,t1_Paradigm,2021.1.4,59.981565932363786,
Z,left,Pretarget,0,33,33,33,2593.473409637285,2595.486176937993,left,1,4,0.6708819054765627,M18T09,2022-11-01_16h17.42.928,t1_Paradigm,2021.1.4,59.981565932363786,
F,left,Distractor,0,34,34,34,2596.973245065543,2598.974885008298,left,1,4,0.7339006833499297,M18T09,2022-11-01_16h17.42.928,t1_Paradigm,2021.1.4,59.981565932363786,
V,left,Distractor,0,35,35,35,2600.4734603240504,2602.476126514259,left,1,4,0.6728705606656149,M18T09,2022-11-01_16h17.42.928,t1_Paradigm,2021.1.4,59.981565932363786,
M,left,Distractor,0,36,36,36,2603.97346930654,2605.975372949033,left,1,4,0.5652903808513656,M18T09,2022-11-01_16h17.42.928,t1_Paradigm,2021.1.4,59.981565932363786,
Z,right,Target,0,37,37,37,2607.4735392415314,2609.4755080068717,right,1,4,0.5373677251045592,M18T09,2022-11-01_16h17.42.928,t1_Paradigm,2021.1.4,59.981565932363786,
H,left,Pretarget,0,38,38,38,2610.9737358934944,2612.973559452046,left,1,4,0.7353086858638562,M18T09,2022-11-01_16h17.42.928,t1_Paradigm,2021.1.4,59.981565932363786,
L,left,Distractor,0,39,39,39,2614.472532563028,2616.475921521429,left,1,4,0.8649305686703883,M18T09,2022-11-01_16h17.42.928,t1_Paradigm,2021.1.4,59.981565932363786,
G,left,Distractor,0,40,40,40,2617.973311150854,2619.975429731072,left,1,4,0.6458560969331302,M18T09,2022-11-01_16h17.42.928,t1_Paradigm,2021.1.4,59.981565932363786,
K,left,Distractor,0,41,41,41,2621.4735607352923,2623.475992097985,left,1,4,0.5849491623812355,M18T09,2022-11-01_16h17.42.928,t1_Paradigm,2021.1.4,59.981565932363786,
H,right,Target,0,42,42,42,2624.9735485448036,2626.9752414199756,right,1,4,0.5575410739402287,M18T09,2022-11-01_16h17.42.928,t1_Paradigm,2021.1.4,59.981565932363786,
B,left,Distractor,0,43,43,43,2628.473562660103,2630.47555773129,left,1,4,0.6894942290964536,M18T09,2022-11-01_16h17.42.928,t1_Paradigm,2021.1.4,59.981565932363786,
Z,left,Distractor,0,44,44,44,2631.973676224181,2633.976068448974,None,0,4,,M18T09,2022-11-01_16h17.42.928,t1_Paradigm,2021.1.4,59.981565932363786,
T,left,Pretarget,0,45,45,45,2635.4736386903096,2637.4759048396954,left,1,4,0.7292050961405039,M18T09,2022-11-01_16h17.42.928,t1_Paradigm,2021.1.4,59.981565932363786,
H,right,Target,0,46,46,46,2638.9735687553184,2640.9741962451953,right,1,4,0.5107189762638882,M18T09,2022-11-01_16h17.42.928,t1_Paradigm,2021.1.4,59.981565932363786,
F,left,Distractor,0,47,47,47,2642.47375642485,2644.4760812810855,left,1,4,0.6569892293773592,M18T09,2022-11-01_16h17.42.928,t1_Paradigm,2021.1.4,59.981565932363786,
R,left,Distractor,0,48,48,48,2645.9735456575872,2647.9747826723033,left,1,4,0.5340811027563177,M18T09,2022-11-01_16h17.42.928,t1_Paradigm,2021.1.4,59.981565932363786,
T,right,Target,0,49,49,49,2649.4734558328637,2651.4755080068717,right,1,4,0.5694409245043062,M18T09,2022-11-01_16h17.42.928,t1_Paradigm,2021.1.4,59.981565932363786,
H,right,Target,0,50,50,50,2652.9736451063654,2654.975397009228,left,0,4,0.749534355069045,M18T09,2022-11-01_16h17.42.928,t1_Paradigm,2021.1.4,59.981565932363786,
Y,left,Pretarget,0,51,51,51,2656.4733368150773,2658.473970720952,left,1,4,0.6432624081498943,M18T09,2022-11-01_16h17.42.928,t1_Paradigm,2021.1.4,59.981565932363786,
H,left,Distractor,0,52,52,52,2659.9735222389572,2661.975007875706,left,1,4,0.646049861679785,M18T09,2022-11-01_16h17.42.928,t1_Paradigm,2021.1.4,59.981565932363786,
S,left,Distractor,0,53,53,53,2663.4735831914586,2665.475640819175,left,1,4,0.6333585911779664,M18T09,2022-11-01_16h17.42.928,t1_Paradigm,2021.1.4,59.981565932363786,
Q,left,Distractor,0,54,54,54,2666.9735389206908,2668.9732861282537,left,1,4,0.9279086046735756,M18T09,2022-11-01_16h17.42.928,t1_Paradigm,2021.1.4,59.981565932363786,
Y,right,Target,0,55,55,55,2670.473567792913,2672.4754881171393,right,1,4,0.5138471221434884,M18T09,2022-11-01_16h17.42.928,t1_Paradigm,2021.1.4,59.981565932363786,
R,left,Distractor,0,56,56,56,2673.973718570138,2675.9750348231173,right,0,4,1.0621096233371645,M18T09,2022-11-01_16h17.42.928,t1_Paradigm,2021.1.4,59.981565932363786,
H,left,Pretarget,0,57,57,57,2677.473589286732,2679.4750200661947,left,1,4,0.5540071128052659,M18T09,2022-11-01_16h17.42.928,t1_Paradigm,2021.1.4,59.981565932363786,
J,left,Distractor,0,58,58,58,2680.9736361238756,2682.976079677057,left,1,4,0.7809200746123679,M18T09,2022-11-01_16h17.42.928,t1_Paradigm,2021.1.4,59.981565932363786,
V,left,Distractor,0,59,59,59,2684.473368574516,2686.475516026956,left,1,4,0.6895587103790604,M18T09,2022-11-01_16h17.42.928,t1_Paradigm,2021.1.4,59.981565932363786,
Y,left,Lure,0,60,60,60,2687.9734009755775,2689.9862613090663,left,1,4,0.858720472548157,M18T09,2022-11-01_16h17.42.928,t1_Paradigm,2021.1.4,59.981565932363786,
H,right,Target,0,61,61,61,2691.4734478127793,2693.475971887412,right,1,4,0.5210741625051014,M18T09,2022-11-01_16h17.42.928,t1_Paradigm,2021.1.4,59.981565932363786,
L,left,Distractor,0,62,62,62,2694.973602439626,2696.975544899178,left,1,4,0.6532736939843744,M18T09,2022-11-01_16h17.42.928,t1_Paradigm,2021.1.4,59.981565932363786,
P,left,Distractor,0,63,63,63,2698.473437226319,2700.4750579209067,left,1,4,0.8659725354518741,M18T09,2022-11-01_16h17.42.928,t1_Paradigm,2021.1.4,59.981565932363786,
