Letter,CorrAnswer,Stimulus,nback_run.thisRepN,nback_run.thisTrialN,nback_run.thisN,nback_run.thisIndex,fixcross.started,nback_trial.started,trial_resp.keys,trial_resp.corr,currentlevel,trial_resp.rt,Participant,date,expName,psychopyVersion,frameRate,
H,left,Distractor,0,0,0,0,231.08825310808606,233.0337901348248,None,0,1,,M22N07,2022-11-02_09h11.25.266,t1_Paradigm,2021.1.4,60.069412055831044,
Q,left,Pretarget,0,1,1,1,234.5248410262866,236.52353920944734,left,1,1,0.7916281436337158,M22N07,2022-11-02_09h11.25.266,t1_Paradigm,2021.1.4,60.069412055831044,
Q,right,Target,0,2,2,2,238.02120376675157,240.02142897015437,right,1,1,1.1175045281415805,M22N07,2022-11-02_09h11.25.266,t1_Paradigm,2021.1.4,60.069412055831044,
T,left,Distractor,0,3,3,3,241.52120665396797,243.5226733633317,left,1,1,0.8162580818170682,M22N07,2022-11-02_09h11.25.266,t1_Paradigm,2021.1.4,60.069412055831044,
Q,left,Lure,0,4,4,4,245.02130000753095,247.02356904407497,left,1,1,1.1874811929883435,M22N07,2022-11-02_09h11.25.266,t1_Paradigm,2021.1.4,60.069412055831044,
L,left,Distractor,0,5,5,5,248.52132182207424,250.5226938946871,left,1,1,0.8882843542960472,M22N07,2022-11-02_09h11.25.266,t1_Paradigm,2021.1.4,60.069412055831044,
V,left,Pretarget,0,6,6,6,252.02094167104224,254.02348242740845,left,1,1,0.6035682228393853,M22N07,2022-11-02_09h11.25.266,t1_Paradigm,2021.1.4,60.069412055831044,
V,right,Target,0,7,7,7,255.52121082437225,257.52126953128027,None,0,1,,M22N07,2022-11-02_09h11.25.266,t1_Paradigm,2021.1.4,60.069412055831044,
K,left,Distractor,0,8,8,8,259.02112741570454,261.0228074587649,left,1,1,0.7882654910790734,M22N07,2022-11-02_09h11.25.266,t1_Paradigm,2021.1.4,60.069412055831044,
G,left,Pretarget,0,9,9,9,262.52104561106535,264.523695119482,left,1,1,0.8234341145725921,M22N07,2022-11-02_09h11.25.266,t1_Paradigm,2021.1.4,60.069412055831044,
G,right,Target,0,10,10,10,266.02119350107387,268.0213442782406,right,1,1,0.6856096307164989,M22N07,2022-11-02_09h11.25.266,t1_Paradigm,2021.1.4,60.069412055831044,
G,right,Target,0,11,11,11,269.5211604583892,271.52135261910735,right,1,1,0.6258036906365305,M22N07,2022-11-02_09h11.25.266,t1_Paradigm,2021.1.4,60.069412055831044,
P,left,Pretarget,0,12,12,12,273.02118323539617,275.0226383958361,left,1,1,0.6286434350186028,M22N07,2022-11-02_09h11.25.266,t1_Paradigm,2021.1.4,60.069412055831044,
P,right,Target,0,13,13,13,276.5212846089853,278.52135839359835,right,1,1,1.049932278576307,M22N07,2022-11-02_09h11.25.266,t1_Paradigm,2021.1.4,60.069412055831044,
G,left,Lure,0,14,14,14,280.0212785137119,282.0231218453264,left,1,1,0.892129814659711,M22N07,2022-11-02_09h11.25.266,t1_Paradigm,2021.1.4,60.069412055831044,
Y,left,Distractor,0,15,15,15,283.5214392358321,285.5226210724795,left,1,1,0.7684344385634176,M22N07,2022-11-02_09h11.25.266,t1_Paradigm,2021.1.4,60.069412055831044,
B,left,Distractor,0,16,16,16,287.021423516504,289.0231670784997,left,1,1,0.6439405847922899,M22N07,2022-11-02_09h11.25.266,t1_Paradigm,2021.1.4,60.069412055831044,
T,left,Pretarget,0,17,17,17,290.52136416803114,292.5232681313064,left,1,1,0.743834976630751,M22N07,2022-11-02_09h11.25.266,t1_Paradigm,2021.1.4,60.069412055831044,
T,right,Target,0,18,18,18,294.02139945630915,296.02126921043964,right,1,1,0.5898304943693802,M22N07,2022-11-02_09h11.25.266,t1_Paradigm,2021.1.4,60.069412055831044,
S,left,Distractor,0,19,19,19,297.5213753961143,299.5232681313064,left,1,1,0.7039986757445149,M22N07,2022-11-02_09h11.25.266,t1_Paradigm,2021.1.4,60.069412055831044,
T,left,Lure,0,20,20,20,301.0213093108032,303.0229367422289,left,1,1,1.1082423162879422,M22N07,2022-11-02_09h11.25.266,t1_Paradigm,2021.1.4,60.069412055831044,
J,left,Distractor,0,21,21,21,304.52131027320866,306.52173565741396,left,1,1,0.7135438354453072,M22N07,2022-11-02_09h11.25.266,t1_Paradigm,2021.1.4,60.069412055831044,
P,left,Distractor,0,22,22,22,308.0213356165914,310.0229935242678,left,1,1,0.844138391665183,M22N07,2022-11-02_09h11.25.266,t1_Paradigm,2021.1.4,60.069412055831044,
F,left,Distractor,0,23,23,23,311.5213282381301,313.52278660662705,left,1,1,0.8484663391136564,M22N07,2022-11-02_09h11.25.266,t1_Paradigm,2021.1.4,60.069412055831044,
L,left,Distractor,0,24,24,24,315.02107865375,317.02380836283555,left,1,1,0.6753038481110707,M22N07,2022-11-02_09h11.25.266,t1_Paradigm,2021.1.4,60.069412055831044,
W,left,Pretarget,0,25,25,25,318.52134074945934,320.5228674488608,left,1,1,0.6321664888528176,M22N07,2022-11-02_09h11.25.266,t1_Paradigm,2021.1.4,60.069412055831044,
W,right,Target,0,26,26,26,322.02142993255984,324.02147997776046,right,1,1,0.7818593845004216,M22N07,2022-11-02_09h11.25.266,t1_Paradigm,2021.1.4,60.069412055831044,
V,left,Distractor,0,27,27,27,325.52141838363605,327.5224834482069,left,1,1,0.7047121406649239,M22N07,2022-11-02_09h11.25.266,t1_Paradigm,2021.1.4,60.069412055831044,
W,left,Lure,0,28,28,28,329.0213843786041,331.0235780265648,left,1,1,1.107683157431893,M22N07,2022-11-02_09h11.25.266,t1_Paradigm,2021.1.4,60.069412055831044,
R,left,Pretarget,0,29,29,29,332.52135839359835,334.5241352606099,left,1,1,0.8709619778092019,M22N07,2022-11-02_09h11.25.266,t1_Paradigm,2021.1.4,60.069412055831044,
R,right,Target,0,30,30,30,336.0214658624609,338.02134556148667,right,1,1,0.8617466032155789,M22N07,2022-11-02_09h11.25.266,t1_Paradigm,2021.1.4,60.069412055831044,
G,left,Distractor,0,31,31,31,339.52135967678623,341.52234646549914,left,1,1,1.1368168428889476,M22N07,2022-11-02_09h11.25.266,t1_Paradigm,2021.1.4,60.069412055831044,
R,left,Lure,0,32,32,32,343.0213298421586,345.02290049154544,left,1,1,0.9804618402267806,M22N07,2022-11-02_09h11.25.266,t1_Paradigm,2021.1.4,60.069412055831044,
S,left,Distractor,0,33,33,33,346.52145655918866,348.5230092435959,left,1,1,0.7600874764611945,M22N07,2022-11-02_09h11.25.266,t1_Paradigm,2021.1.4,60.069412055831044,
R,left,Lure,0,34,34,34,350.02119061385747,352.0232860962278,left,1,1,0.6998308087349869,M22N07,2022-11-02_09h11.25.266,t1_Paradigm,2021.1.4,60.069412055831044,
P,left,Pretarget,0,35,35,35,353.5213019323419,355.5232139156433,left,1,1,0.8481089650886133,M22N07,2022-11-02_09h11.25.266,t1_Paradigm,2021.1.4,60.069412055831044,
P,right,Target,0,36,36,36,357.0214100427693,359.0213693008409,right,1,1,0.725926814659033,M22N07,2022-11-02_09h11.25.266,t1_Paradigm,2021.1.4,60.069412055831044,
Y,left,Pretarget,0,37,37,37,360.52146361680934,362.52252771897474,left,1,1,0.6487830996047705,M22N07,2022-11-02_09h11.25.266,t1_Paradigm,2021.1.4,60.069412055831044,
Y,right,Target,0,38,38,38,364.0214129300439,366.02151494525606,right,1,1,0.7978513927082531,M22N07,2022-11-02_09h11.25.266,t1_Paradigm,2021.1.4,60.069412055831044,
J,left,Distractor,0,39,39,39,367.52141260920325,369.52363416703884,left,1,1,0.5755602335557342,M22N07,2022-11-02_09h11.25.266,t1_Paradigm,2021.1.4,60.069412055831044,
Y,left,Lure,0,40,40,40,371.0212088995613,373.02334223670186,left,1,1,0.7719616628601216,M22N07,2022-11-02_09h11.25.266,t1_Paradigm,2021.1.4,60.069412055831044,
T,left,Distractor,0,41,41,41,374.521385661792,376.5229264765512,left,1,1,0.9362648699898273,M22N07,2022-11-02_09h11.25.266,t1_Paradigm,2021.1.4,60.069412055831044,
V,left,Distractor,0,42,42,42,378.02137315052096,380.0230477399309,left,1,1,0.8123208718607202,M22N07,2022-11-02_09h11.25.266,t1_Paradigm,2021.1.4,60.069412055831044,
N,left,Pretarget,0,43,43,43,381.521423516504,383.52283921826165,left,1,1,0.8646258062799461,M22N07,2022-11-02_09h11.25.266,t1_Paradigm,2021.1.4,60.069412055831044,
N,right,Target,0,44,44,44,385.0214379526442,387.0216005995171,right,1,1,0.661594350298401,M22N07,2022-11-02_09h11.25.266,t1_Paradigm,2021.1.4,60.069412055831044,
N,right,Target,0,45,45,45,388.5214604088105,390.5214321781532,right,1,1,0.7940004786360078,M22N07,2022-11-02_09h11.25.266,t1_Paradigm,2021.1.4,60.069412055831044,
X,left,Distractor,0,46,46,46,392.02140523074195,394.02299576991936,left,1,1,0.6362750073312782,M22N07,2022-11-02_09h11.25.266,t1_Paradigm,2021.1.4,60.069412055831044,
Z,left,Distractor,0,47,47,47,395.5214353862102,397.52314590552123,None,0,1,,M22N07,2022-11-02_09h11.25.266,t1_Paradigm,2021.1.4,60.069412055831044,
H,left,Pretarget,0,48,48,48,399.0214642584324,401.02294444147265,left,1,1,0.9964791918173432,M22N07,2022-11-02_09h11.25.266,t1_Paradigm,2021.1.4,60.069412055831044,
H,right,Target,0,49,49,49,402.5213869449799,404.52140234352555,right,1,1,0.601800921431277,M22N07,2022-11-02_09h11.25.266,t1_Paradigm,2021.1.4,60.069412055831044,
K,left,Distractor,0,50,50,50,406.02127530571306,408.0225418342743,left,1,1,0.653053302608896,M22N07,2022-11-02_09h11.25.266,t1_Paradigm,2021.1.4,60.069412055831044,
V,left,Pretarget,0,51,51,51,409.5214892810327,411.5229245517403,left,1,1,0.5924864188418724,M22N07,2022-11-02_09h11.25.266,t1_Paradigm,2021.1.4,60.069412055831044,
V,right,Target,0,52,52,52,413.0212133908062,415.021476448921,right,1,1,0.6939954099361785,M22N07,2022-11-02_09h11.25.266,t1_Paradigm,2021.1.4,60.069412055831044,
R,left,Distractor,0,53,53,53,416.5214106843923,418.52289888751693,left,1,1,0.7449523319955915,M22N07,2022-11-02_09h11.25.266,t1_Paradigm,2021.1.4,60.069412055831044,
V,left,Lure,0,54,54,54,420.02165385277476,422.0221632872126,left,1,1,0.6051751229097135,M22N07,2022-11-02_09h11.25.266,t1_Paradigm,2021.1.4,60.069412055831044,
Y,left,Distractor,0,55,55,55,423.52156434883364,425.5228491630987,left,1,1,0.7524793226621114,M22N07,2022-11-02_09h11.25.266,t1_Paradigm,2021.1.4,60.069412055831044,
Q,left,Distractor,0,56,56,56,427.02152521093376,429.02365052793175,left,1,1,1.0119046625914052,M22N07,2022-11-02_09h11.25.266,t1_Paradigm,2021.1.4,60.069412055831044,
Z,left,Pretarget,0,57,57,57,430.5215826345957,432.5234785777866,left,1,1,1.0960226255701855,M22N07,2022-11-02_09h11.25.266,t1_Paradigm,2021.1.4,60.069412055831044,
Z,right,Target,0,58,58,58,434.02167983778054,436.0214074763935,right,1,1,0.8940793318906799,M22N07,2022-11-02_09h11.25.266,t1_Paradigm,2021.1.4,60.069412055831044,
B,left,Distractor,0,59,59,59,437.5214831857593,439.5230339454138,left,1,1,0.6404127189307474,M22N07,2022-11-02_09h11.25.266,t1_Paradigm,2021.1.4,60.069412055831044,
S,left,Pretarget,0,60,60,60,441.0213763585198,443.02288028097246,left,1,1,0.9648791761719622,M22N07,2022-11-02_09h11.25.266,t1_Paradigm,2021.1.4,60.069412055831044,
S,right,Target,0,61,61,61,444.52148831862723,446.5215714065125,right,1,1,0.6819281004718505,M22N07,2022-11-02_09h11.25.266,t1_Paradigm,2021.1.4,60.069412055831044,
T,left,Distractor,0,62,62,62,448.02152104047127,450.023259469599,left,1,1,0.8760191095643677,M22N07,2022-11-02_09h11.25.266,t1_Paradigm,2021.1.4,60.069412055831044,
D,left,Distractor,0,63,63,63,451.52127498493064,453.52306698809844,left,1,1,0.8645273198490031,M22N07,2022-11-02_09h11.25.266,t1_Paradigm,2021.1.4,60.069412055831044,
R,left,Distractor,0,0,0,0,471.52012330369325,473.5232139156433,None,0,1,,M22N07,2022-11-02_09h11.25.266,t1_Paradigm,2021.1.4,60.069412055831044,
V,left,Distractor,0,1,1,1,475.0216544943396,477.02304709830787,left,1,1,0.6926801194204018,M22N07,2022-11-02_09h11.25.266,t1_Paradigm,2021.1.4,60.069412055831044,
N,left,Pretarget,0,2,2,2,478.5214774113265,480.52244174387306,left,1,1,0.6168661309638992,M22N07,2022-11-02_09h11.25.266,t1_Paradigm,2021.1.4,60.069412055831044,
N,right,Target,0,3,3,3,482.02159354183823,484.0216644392349,right,1,1,0.6536766220233403,M22N07,2022-11-02_09h11.25.266,t1_Paradigm,2021.1.4,60.069412055831044,
S,left,Distractor,0,4,4,4,485.5215226444998,487.52322642697254,left,1,1,0.7521460087737069,M22N07,2022-11-02_09h11.25.266,t1_Paradigm,2021.1.4,60.069412055831044,
N,left,Lure,0,5,5,5,489.02160669479053,491.0226531527587,left,1,1,1.0767558647785336,M22N07,2022-11-02_09h11.25.266,t1_Paradigm,2021.1.4,60.069412055831044,
Z,left,Distractor,0,6,6,6,492.52161567722214,494.5228196493117,left,1,1,0.888436414708849,M22N07,2022-11-02_09h11.25.266,t1_Paradigm,2021.1.4,60.069412055831044,
L,left,Pretarget,0,7,7,7,496.0218107252149,498.0222495830967,left,1,1,0.5892155157634988,M22N07,2022-11-02_09h11.25.266,t1_Paradigm,2021.1.4,60.069412055831044,
L,right,Target,0,8,8,8,499.52161888527917,501.5213782833307,right,1,1,0.8664893483510241,M22N07,2022-11-02_09h11.25.266,t1_Paradigm,2021.1.4,60.069412055831044,
H,left,Distractor,0,9,9,9,503.0214308949653,505.02321038680384,left,1,1,0.6923833769978955,M22N07,2022-11-02_09h11.25.266,t1_Paradigm,2021.1.4,60.069412055831044,
L,left,Lure,0,10,10,10,506.5215332309599,508.52183638938004,left,1,1,0.905619241995737,M22N07,2022-11-02_09h11.25.266,t1_Paradigm,2021.1.4,60.069412055831044,
X,left,Pretarget,0,11,11,11,510.0215008298983,512.0229425166617,left,1,1,1.1646198393427767,M22N07,2022-11-02_09h11.25.266,t1_Paradigm,2021.1.4,60.069412055831044,
X,right,Target,0,12,12,12,513.5215248900931,515.5213930402533,right,1,1,0.5142041753861122,M22N07,2022-11-02_09h11.25.266,t1_Paradigm,2021.1.4,60.069412055831044,
X,right,Target,0,13,13,13,517.0214809401659,519.021710313973,right,1,1,0.80584001832176,M22N07,2022-11-02_09h11.25.266,t1_Paradigm,2021.1.4,60.069412055831044,
R,left,Distractor,0,14,14,14,520.5216500030947,522.5221559087513,left,1,1,0.5852866467321292,M22N07,2022-11-02_09h11.25.266,t1_Paradigm,2021.1.4,60.069412055831044,
T,left,Distractor,0,15,15,15,524.021531306149,526.0219682392781,left,1,1,0.7334287827834487,M22N07,2022-11-02_09h11.25.266,t1_Paradigm,2021.1.4,60.069412055831044,
V,left,Pretarget,0,16,16,16,527.5214649000554,529.5226329421857,left,1,1,0.6249057642417029,M22N07,2022-11-02_09h11.25.266,t1_Paradigm,2021.1.4,60.069412055831044,
V,right,Target,0,17,17,17,531.0215306645841,533.0214527095086,right,1,1,0.5822178493253887,M22N07,2022-11-02_09h11.25.266,t1_Paradigm,2021.1.4,60.069412055831044,
N,left,Distractor,0,18,18,18,534.5215919378679,536.5224141548388,left,1,1,0.5051129513885826,M22N07,2022-11-02_09h11.25.266,t1_Paradigm,2021.1.4,60.069412055831044,
B,left,Distractor,0,19,19,19,538.0217148052179,540.0399748875643,left,1,1,0.6674451475846581,M22N07,2022-11-02_09h11.25.266,t1_Paradigm,2021.1.4,60.069412055831044,
V,left,Lure,0,20,20,20,541.5215261733392,543.5218883594498,left,1,1,1.1375704081729054,M22N07,2022-11-02_09h11.25.266,t1_Paradigm,2021.1.4,60.069412055831044,
P,left,Distractor,0,21,21,21,545.0216990858898,547.0228020051727,left,1,1,0.7088363784714602,M22N07,2022-11-02_09h11.25.266,t1_Paradigm,2021.1.4,60.069412055831044,
K,left,Pretarget,0,22,22,22,548.521642945474,550.5230679505039,left,1,1,0.6004096007090993,M22N07,2022-11-02_09h11.25.266,t1_Paradigm,2021.1.4,60.069412055831044,
K,right,Target,0,23,23,23,552.0215380430454,554.0216188852792,right,1,1,0.7018406368442811,M22N07,2022-11-02_09h11.25.266,t1_Paradigm,2021.1.4,60.069412055831044,
J,left,Pretarget,0,24,24,24,555.5216464743135,557.5231471887091,left,1,1,1.312545754481107,M22N07,2022-11-02_09h11.25.266,t1_Paradigm,2021.1.4,60.069412055831044,
J,right,Target,0,25,25,25,559.0215611407766,561.0215361181763,right,1,1,0.9339329561335035,M22N07,2022-11-02_09h11.25.266,t1_Paradigm,2021.1.4,60.069412055831044,
H,left,Distractor,0,26,26,26,562.5215720480774,564.5222280893358,left,1,1,0.7134969982434995,M22N07,2022-11-02_09h11.25.266,t1_Paradigm,2021.1.4,60.069412055831044,
J,left,Lure,0,27,27,27,566.021528739715,568.0231459055212,right,0,1,1.324540562578477,M22N07,2022-11-02_09h11.25.266,t1_Paradigm,2021.1.4,60.069412055831044,
V,left,Distractor,0,28,28,28,569.5214572007535,571.522367317637,left,1,1,0.57713377015898,M22N07,2022-11-02_09h11.25.266,t1_Paradigm,2021.1.4,60.069412055831044,
Z,left,Pretarget,0,29,29,29,573.02131765167,575.0221921594348,left,1,1,0.6455221414798871,M22N07,2022-11-02_09h11.25.266,t1_Paradigm,2021.1.4,60.069412055831044,
Z,right,Target,0,30,30,30,576.5216596272076,578.5215592159657,right,1,1,0.5059945168322884,M22N07,2022-11-02_09h11.25.266,t1_Paradigm,2021.1.4,60.069412055831044,
T,left,Distractor,0,31,31,31,580.021856599953,582.0224654832273,left,1,1,0.6530927613493986,M22N07,2022-11-02_09h11.25.266,t1_Paradigm,2021.1.4,60.069412055831044,
Z,left,Lure,0,32,32,32,583.5215425342321,585.5224475183059,left,1,1,0.641183607513085,M22N07,2022-11-02_09h11.25.266,t1_Paradigm,2021.1.4,60.069412055831044,
F,left,Distractor,0,33,33,33,587.0218864346389,589.0226528319763,left,1,1,0.8688658538740128,M22N07,2022-11-02_09h11.25.266,t1_Paradigm,2021.1.4,60.069412055831044,
Y,left,Pretarget,0,34,34,34,590.5218909258256,592.5229300053907,left,1,1,0.6650644717155956,M22N07,2022-11-02_09h11.25.266,t1_Paradigm,2021.1.4,60.069412055831044,
Y,right,Target,0,35,35,35,594.0215255317162,596.0215409302618,right,1,1,0.8461761295911856,M22N07,2022-11-02_09h11.25.266,t1_Paradigm,2021.1.4,60.069412055831044,
Y,right,Target,0,36,36,36,597.5215114164166,599.5216939530801,right,1,1,0.850136116554495,M22N07,2022-11-02_09h11.25.266,t1_Paradigm,2021.1.4,60.069412055831044,
W,left,Distractor,0,37,37,37,601.0215412510443,603.0220429862384,left,1,1,0.853532453358639,M22N07,2022-11-02_09h11.25.266,t1_Paradigm,2021.1.4,60.069412055831044,
Q,left,Distractor,0,38,38,38,604.5217119180015,606.5232427878655,left,1,1,0.6805768799968064,M22N07,2022-11-02_09h11.25.266,t1_Paradigm,2021.1.4,60.069412055831044,
P,left,Pretarget,0,39,39,39,608.0217975723208,610.022116450069,left,1,1,0.5256488071754575,M22N07,2022-11-02_09h11.25.266,t1_Paradigm,2021.1.4,60.069412055831044,
P,right,Target,0,40,40,40,611.5217276373296,613.5215967498953,right,1,1,0.610102329577785,M22N07,2022-11-02_09h11.25.266,t1_Paradigm,2021.1.4,60.069412055831044,
J,left,Distractor,0,41,41,41,615.0218107252149,617.0235138660646,left,1,1,0.6600984479300678,M22N07,2022-11-02_09h11.25.266,t1_Paradigm,2021.1.4,60.069412055831044,
P,left,Lure,0,42,42,42,618.5217273165472,620.5233807329787,left,1,1,0.7123921542079188,M22N07,2022-11-02_09h11.25.266,t1_Paradigm,2021.1.4,60.069412055831044,
L,left,Distractor,0,43,43,43,622.021584238566,624.0234926930862,left,1,1,1.132108744350262,M22N07,2022-11-02_09h11.25.266,t1_Paradigm,2021.1.4,60.069412055831044,
Z,left,Distractor,0,44,44,44,625.521897662722,627.5229425166617,left,1,1,0.5930478232912719,M22N07,2022-11-02_09h11.25.266,t1_Paradigm,2021.1.4,60.069412055831044,
F,left,Pretarget,0,45,45,45,629.02187937696,631.0231016347534,left,1,1,0.8045831138151698,M22N07,2022-11-02_09h11.25.266,t1_Paradigm,2021.1.4,60.069412055831044,
F,right,Target,0,46,46,46,632.521773512126,634.52183638938,right,1,1,0.9537534221890382,M22N07,2022-11-02_09h11.25.266,t1_Paradigm,2021.1.4,60.069412055831044,
G,left,Pretarget,0,47,47,47,636.0218517879257,638.022227447771,left,1,1,0.877410430344753,M22N07,2022-11-02_09h11.25.266,t1_Paradigm,2021.1.4,60.069412055831044,
G,right,Target,0,48,48,48,639.521529381338,641.5218915674486,right,1,1,0.6898102196282707,M22N07,2022-11-02_09h11.25.266,t1_Paradigm,2021.1.4,60.069412055831044,
V,left,Distractor,0,49,49,49,643.0219692016835,645.022680741793,left,1,1,0.5654902408714406,M22N07,2022-11-02_09h11.25.266,t1_Paradigm,2021.1.4,60.069412055831044,
G,left,Lure,0,50,50,50,646.5219775425503,648.5225845010136,left,1,1,0.5050539236981422,M22N07,2022-11-02_09h11.25.266,t1_Paradigm,2021.1.4,60.069412055831044,
Q,left,Pretarget,0,51,51,51,650.0217327701976,652.0220766705461,left,1,1,0.797805838752538,M22N07,2022-11-02_09h11.25.266,t1_Paradigm,2021.1.4,60.069412055831044,
Q,right,Target,0,52,52,52,653.5219605399761,655.5218373518437,right,1,1,0.8018264573765919,M22N07,2022-11-02_09h11.25.266,t1_Paradigm,2021.1.4,60.069412055831044,
Y,left,Distractor,0,53,53,53,657.022022454883,659.0235632696422,left,1,1,0.5482929773861542,M22N07,2022-11-02_09h11.25.266,t1_Paradigm,2021.1.4,60.069412055831044,
V,left,Distractor,0,54,54,54,660.5218296525418,662.5225553079508,left,1,1,0.7455304181785323,M22N07,2022-11-02_09h11.25.266,t1_Paradigm,2021.1.4,60.069412055831044,
B,left,Distractor,0,55,55,55,664.0218941338826,666.022975238564,left,1,1,0.6847200451884419,M22N07,2022-11-02_09h11.25.266,t1_Paradigm,2021.1.4,60.069412055831044,
J,left,Pretarget,0,56,56,56,667.5217873066431,669.5221466054791,left,1,1,0.8498326372937299,M22N07,2022-11-02_09h11.25.266,t1_Paradigm,2021.1.4,60.069412055831044,
J,right,Target,0,57,57,57,671.0219101739931,673.0216471158783,right,1,1,0.5501561987330206,M22N07,2022-11-02_09h11.25.266,t1_Paradigm,2021.1.4,60.069412055831044,
H,left,Distractor,0,58,58,58,674.5216211308725,676.5219685600605,left,1,1,0.7617139454814605,M22N07,2022-11-02_09h11.25.266,t1_Paradigm,2021.1.4,60.069412055831044,
J,left,Lure,0,59,59,59,678.0217186548398,680.0219740137109,left,1,1,1.3418770543066785,M22N07,2022-11-02_09h11.25.266,t1_Paradigm,2021.1.4,60.069412055831044,
D,left,Pretarget,0,60,60,60,681.5218854721752,683.524025546154,left,1,1,0.9919013390899636,M22N07,2022-11-02_09h11.25.266,t1_Paradigm,2021.1.4,60.069412055831044,
D,right,Target,0,61,61,61,685.0220301541849,687.0220766705461,right,1,1,1.0940259503549896,M22N07,2022-11-02_09h11.25.266,t1_Paradigm,2021.1.4,60.069412055831044,
R,left,Distractor,0,62,62,62,688.5219291013782,690.5346370536136,left,1,1,0.5890939316013828,M22N07,2022-11-02_09h11.25.266,t1_Paradigm,2021.1.4,60.069412055831044,
F,left,Distractor,0,63,63,63,692.021876810526,694.0225630072528,left,1,1,0.5733075579046272,M22N07,2022-11-02_09h11.25.266,t1_Paradigm,2021.1.4,60.069412055831044,
F,left,Distractor,0,0,0,0,781.6489698067307,783.6388285958092,None,0,2,,M22N07,2022-11-02_09h11.25.266,t1_Paradigm,2021.1.4,60.069412055831044,
N,left,Pretarget,0,1,1,1,785.1385421191226,787.1400665729307,None,0,2,,M22N07,2022-11-02_09h11.25.266,t1_Paradigm,2021.1.4,60.069412055831044,
V,left,Distractor,0,2,2,2,788.6387779090437,790.63935150404,left,1,2,0.6605347393779084,M22N07,2022-11-02_09h11.25.266,t1_Paradigm,2021.1.4,60.069412055831044,
N,right,Target,0,3,3,3,792.1387506407918,794.1391436239355,right,1,2,0.6810154171544127,M22N07,2022-11-02_09h11.25.266,t1_Paradigm,2021.1.4,60.069412055831044,
N,left,Lure,0,4,4,4,795.6386701193405,797.6388600344653,left,1,2,1.4530694711138494,M22N07,2022-11-02_09h11.25.266,t1_Paradigm,2021.1.4,60.069412055831044,
X,left,Distractor,0,5,5,5,799.1387230517576,801.1395285870531,left,1,2,1.2965665783849545,M22N07,2022-11-02_09h11.25.266,t1_Paradigm,2021.1.4,60.069412055831044,
G,left,Pretarget,0,6,6,6,802.638905588421,804.6408271958353,left,1,2,1.0112681903410703,M22N07,2022-11-02_09h11.25.266,t1_Paradigm,2021.1.4,60.069412055831044,
H,left,Pretarget,0,7,7,7,806.1387429415481,808.1412724698312,left,1,2,0.7108478106092662,M22N07,2022-11-02_09h11.25.266,t1_Paradigm,2021.1.4,60.069412055831044,
G,right,Target,0,8,8,8,809.6385183797684,811.6401961771771,right,1,2,0.8596145492629148,M22N07,2022-11-02_09h11.25.266,t1_Paradigm,2021.1.4,60.069412055831044,
H,right,Target,0,9,9,9,813.1386325854692,815.1395410983241,right,1,2,0.608570818149019,M22N07,2022-11-02_09h11.25.266,t1_Paradigm,2021.1.4,60.069412055831044,
T,left,Pretarget,0,10,10,10,816.6386114124907,818.6391920651658,left,1,2,0.6771677110809833,M22N07,2022-11-02_09h11.25.266,t1_Paradigm,2021.1.4,60.069412055831044,
K,left,Distractor,0,11,11,11,820.138603713247,822.1393797346391,left,1,2,0.7605834372225218,M22N07,2022-11-02_09h11.25.266,t1_Paradigm,2021.1.4,60.069412055831044,
T,right,Target,0,12,12,12,823.6552604243043,825.6398586928844,right,1,2,0.8763360625016503,M22N07,2022-11-02_09h11.25.266,t1_Paradigm,2021.1.4,60.069412055831044,
T,left,Lure,0,13,13,13,827.138545647962,829.1388484855997,left,1,2,1.0092166578397155,M22N07,2022-11-02_09h11.25.266,t1_Paradigm,2021.1.4,60.069412055831044,
J,left,Distractor,0,14,14,14,830.6385308910394,832.6405907643493,left,1,2,1.395581008750014,M22N07,2022-11-02_09h11.25.266,t1_Paradigm,2021.1.4,60.069412055831044,
Q,left,Pretarget,0,15,15,15,834.1388074228889,836.139422080596,left,1,2,1.0164969514589757,M22N07,2022-11-02_09h11.25.266,t1_Paradigm,2021.1.4,60.069412055831044,
M,left,Distractor,0,16,16,16,837.6386088460567,839.6402151045622,left,1,2,0.6677714037941769,M22N07,2022-11-02_09h11.25.266,t1_Paradigm,2021.1.4,60.069412055831044,
Q,right,Target,0,17,17,17,841.1389370270772,843.1400611192803,right,1,2,0.6720829903497361,M22N07,2022-11-02_09h11.25.266,t1_Paradigm,2021.1.4,60.069412055831044,
R,left,Distractor,0,18,18,18,844.6385918435408,846.6413100037025,left,1,2,0.7068509313976392,M22N07,2022-11-02_09h11.25.266,t1_Paradigm,2021.1.4,60.069412055831044,
W,left,Distractor,0,19,19,19,848.138618790952,850.1391279046074,left,1,2,0.6331975482753478,M22N07,2022-11-02_09h11.25.266,t1_Paradigm,2021.1.4,60.069412055831044,
C,left,Pretarget,0,20,20,20,851.6388786410098,853.6406401679269,left,1,2,0.7315832055755891,M22N07,2022-11-02_09h11.25.266,t1_Paradigm,2021.1.4,60.069412055831044,
T,left,Distractor,0,21,21,21,855.1387573776883,857.1406398471445,left,1,2,0.8955380211700685,M22N07,2022-11-02_09h11.25.266,t1_Paradigm,2021.1.4,60.069412055831044,
C,right,Target,0,22,22,22,858.6388539392501,860.6390804258408,right,1,2,0.48485715623246506,M22N07,2022-11-02_09h11.25.266,t1_Paradigm,2021.1.4,60.069412055831044,
F,left,Pretarget,0,23,23,23,862.1388334078947,864.1406433759839,left,1,2,0.5513842310174368,M22N07,2022-11-02_09h11.25.266,t1_Paradigm,2021.1.4,60.069412055831044,
C,right,Target,0,24,24,24,865.6389851474669,867.6401608888991,right,1,2,0.651948137790896,M22N07,2022-11-02_09h11.25.266,t1_Paradigm,2021.1.4,60.069412055831044,
F,right,Target,0,25,25,25,869.1387538488489,871.1406116165454,right,1,2,0.7834223347017542,M22N07,2022-11-02_09h11.25.266,t1_Paradigm,2021.1.4,60.069412055831044,
H,left,Distractor,0,26,26,26,872.6388000444276,874.6395417399472,left,1,2,0.8205427209613845,M22N07,2022-11-02_09h11.25.266,t1_Paradigm,2021.1.4,60.069412055831044,
H,left,Lure,0,27,27,27,876.138842711167,878.1389508215943,left,1,2,1.0653227819711901,M22N07,2022-11-02_09h11.25.266,t1_Paradigm,2021.1.4,60.069412055831044,
P,left,Distractor,0,28,28,28,879.6390162653406,881.6390894083306,left,1,2,0.7494114877190441,M22N07,2022-11-02_09h11.25.266,t1_Paradigm,2021.1.4,60.069412055831044,
G,left,Pretarget,0,29,29,29,883.1388500896282,885.1400319262757,left,1,2,0.8802822548896074,M22N07,2022-11-02_09h11.25.266,t1_Paradigm,2021.1.4,60.069412055831044,
K,left,Distractor,0,30,30,30,886.6388340494595,888.6391920651658,left,1,2,0.7569837115588598,M22N07,2022-11-02_09h11.25.266,t1_Paradigm,2021.1.4,60.069412055831044,
G,right,Target,0,31,31,31,890.1388587512774,892.1401114853215,right,1,2,0.9039911689469591,M22N07,2022-11-02_09h11.25.266,t1_Paradigm,2021.1.4,60.069412055831044,
M,left,Pretarget,0,32,32,32,893.6389267613995,895.6403373303474,left,1,2,0.5718273748643696,M22N07,2022-11-02_09h11.25.266,t1_Paradigm,2021.1.4,60.069412055831044,
B,left,Distractor,0,33,33,33,897.1387737385812,899.1391789122135,left,1,2,0.7370313956635073,M22N07,2022-11-02_09h11.25.266,t1_Paradigm,2021.1.4,60.069412055831044,
M,right,Target,0,34,34,34,900.6390175485285,902.6397399959387,right,1,2,0.5645092265913263,M22N07,2022-11-02_09h11.25.266,t1_Paradigm,2021.1.4,60.069412055831044,
M,left,Lure,0,35,35,35,904.1386511920136,906.1388873027172,left,1,2,1.0334366104216315,M22N07,2022-11-02_09h11.25.266,t1_Paradigm,2021.1.4,60.069412055831044,
T,left,Distractor,0,36,36,36,907.6390756138135,909.639618090936,left,1,2,1.1646333130192943,M22N07,2022-11-02_09h11.25.266,t1_Paradigm,2021.1.4,60.069412055831044,
F,left,Distractor,0,37,37,37,911.1387528864434,913.1411675674026,left,1,2,1.1190068465657532,M22N07,2022-11-02_09h11.25.266,t1_Paradigm,2021.1.4,60.069412055831044,
X,left,Distractor,0,38,38,38,914.6388208965654,916.6413879587199,left,1,2,0.6587010319344699,M22N07,2022-11-02_09h11.25.266,t1_Paradigm,2021.1.4,60.069412055831044,
C,left,Distractor,0,39,39,39,918.1389739193837,920.1404236262315,left,1,2,0.6799314252566546,M22N07,2022-11-02_09h11.25.266,t1_Paradigm,2021.1.4,60.069412055831044,
R,left,Distractor,0,40,40,40,921.6390268518007,923.6553682140075,left,1,2,0.7007088453974575,M22N07,2022-11-02_09h11.25.266,t1_Paradigm,2021.1.4,60.069412055831044,
B,left,Pretarget,0,41,41,41,925.1387034828076,927.1400027332129,left,1,2,0.7521495376131497,M22N07,2022-11-02_09h11.25.266,t1_Paradigm,2021.1.4,60.069412055831044,
H,left,Distractor,0,42,42,42,928.6388959643664,930.6393633737462,left,1,2,0.6771054753917269,M22N07,2022-11-02_09h11.25.266,t1_Paradigm,2021.1.4,60.069412055831044,
B,right,Target,0,43,43,43,932.1389476135955,934.1402584128664,right,1,2,0.5838898723013699,M22N07,2022-11-02_09h11.25.266,t1_Paradigm,2021.1.4,60.069412055831044,
W,left,Pretarget,0,44,44,44,935.6389938091743,937.6408637673594,left,1,2,0.8438778999843635,M22N07,2022-11-02_09h11.25.266,t1_Paradigm,2021.1.4,60.069412055831044,
L,left,Pretarget,0,45,45,45,939.1387294678134,941.1407890203409,left,1,2,0.8796079279272817,M22N07,2022-11-02_09h11.25.266,t1_Paradigm,2021.1.4,60.069412055831044,
W,right,Target,0,46,46,46,942.6388821698492,944.6391006364138,right,1,2,0.5494035959709436,M22N07,2022-11-02_09h11.25.266,t1_Paradigm,2021.1.4,60.069412055831044,
L,right,Target,0,47,47,47,946.1389915635227,948.1402651497629,right,1,2,0.568066927138716,M22N07,2022-11-02_09h11.25.266,t1_Paradigm,2021.1.4,60.069412055831044,
W,right,Target,0,48,48,48,949.639091653924,951.6401034652372,right,1,2,0.6208238722756505,M22N07,2022-11-02_09h11.25.266,t1_Paradigm,2021.1.4,60.069412055831044,
X,left,Distractor,0,49,49,49,953.1387868914753,955.1390056788223,left,1,2,0.6732776591088623,M22N07,2022-11-02_09h11.25.266,t1_Paradigm,2021.1.4,60.069412055831044,
R,left,Distractor,0,50,50,50,956.6386348310625,958.6394855994731,left,1,2,0.7408527958905324,M22N07,2022-11-02_09h11.25.266,t1_Paradigm,2021.1.4,60.069412055831044,
V,left,Pretarget,0,51,51,51,960.1387865706929,962.1409754066262,left,1,2,0.9512437836965546,M22N07,2022-11-02_09h11.25.266,t1_Paradigm,2021.1.4,60.069412055831044,
Z,left,Distractor,0,52,52,52,963.6390371174784,965.640880449093,left,1,2,0.9394623092375696,M22N07,2022-11-02_09h11.25.266,t1_Paradigm,2021.1.4,60.069412055831044,
V,right,Target,0,53,53,53,967.1389675033279,969.1410488703987,right,1,2,0.6552004342083819,M22N07,2022-11-02_09h11.25.266,t1_Paradigm,2021.1.4,60.069412055831044,
V,left,Lure,0,54,54,54,970.6389816186856,972.6387557736598,left,1,2,0.9655987362493761,M22N07,2022-11-02_09h11.25.266,t1_Paradigm,2021.1.4,60.069412055831044,
N,left,Distractor,0,55,55,55,974.1391134685255,976.1401624929276,left,1,2,1.176453925378155,M22N07,2022-11-02_09h11.25.266,t1_Paradigm,2021.1.4,60.069412055831044,
B,left,Distractor,0,56,56,56,977.6389652577345,979.6390817090869,left,1,2,1.0212072955910116,M22N07,2022-11-02_09h11.25.266,t1_Paradigm,2021.1.4,60.069412055831044,
V,left,Lure,0,57,57,57,981.1391394535312,983.1394766170415,left,1,2,1.2328853432554752,M22N07,2022-11-02_09h11.25.266,t1_Paradigm,2021.1.4,60.069412055831044,
J,left,Distractor,0,58,58,58,984.6388837738778,986.6405718370224,left,1,2,0.8195033206720836,M22N07,2022-11-02_09h11.25.266,t1_Paradigm,2021.1.4,60.069412055831044,
H,left,Distractor,0,59,59,59,988.138872224954,990.140293380362,left,1,2,0.9999464260181412,M22N07,2022-11-02_09h11.25.266,t1_Paradigm,2021.1.4,60.069412055831044,
X,left,Pretarget,0,60,60,60,991.6390339094796,993.6386685153702,left,1,2,0.8457112866453826,M22N07,2022-11-02_09h11.25.266,t1_Paradigm,2021.1.4,60.069412055831044,
P,left,Distractor,0,61,61,61,995.1390355135081,997.1404332502862,left,1,2,0.5920039317570627,M22N07,2022-11-02_09h11.25.266,t1_Paradigm,2021.1.4,60.069412055831044,
X,right,Target,0,62,62,62,998.6391603056691,1000.6401599264937,right,1,2,0.5321521168807521,M22N07,2022-11-02_09h11.25.266,t1_Paradigm,2021.1.4,60.069412055831044,
Q,left,Distractor,0,63,63,63,1002.1388837738778,1004.1409449303756,left,1,2,0.695572154596448,M22N07,2022-11-02_09h11.25.266,t1_Paradigm,2021.1.4,60.069412055831044,
B,left,Pretarget,0,0,0,0,1021.1465926596429,1023.1405060724937,None,0,2,,M22N07,2022-11-02_09h11.25.266,t1_Paradigm,2021.1.4,60.069412055831044,
F,left,Distractor,0,1,1,1,1024.6390971075743,1026.6410867251107,None,0,2,,M22N07,2022-11-02_09h11.25.266,t1_Paradigm,2021.1.4,60.069412055831044,
B,right,Target,0,2,2,2,1028.1390502704307,1030.1401798162842,right,1,2,0.8083220678381622,M22N07,2022-11-02_09h11.25.266,t1_Paradigm,2021.1.4,60.069412055831044,
V,left,Distractor,0,3,3,3,1031.6389213077491,1033.639407002891,left,1,2,0.604987453436479,M22N07,2022-11-02_09h11.25.266,t1_Paradigm,2021.1.4,60.069412055831044,
G,left,Pretarget,0,4,4,4,1035.1390586112975,1037.1398282166338,left,1,2,0.768504052713979,M22N07,2022-11-02_09h11.25.266,t1_Paradigm,2021.1.4,60.069412055831044,
B,left,Lure,0,5,5,5,1038.6392151629552,1040.6409670657595,left,1,2,0.5478316633380018,M22N07,2022-11-02_09h11.25.266,t1_Paradigm,2021.1.4,60.069412055831044,
G,right,Target,0,6,6,6,1042.1390839546802,1044.1403206486139,left,0,2,1.1282353741116822,M22N07,2022-11-02_09h11.25.266,t1_Paradigm,2021.1.4,60.069412055831044,
Y,left,Pretarget,0,7,7,7,1045.6392138797091,1047.640454744047,left,1,2,0.9080024842987768,M22N07,2022-11-02_09h11.25.266,t1_Paradigm,2021.1.4,60.069412055831044,
P,left,Distractor,0,8,8,8,1049.1390031124465,1051.1390849170857,left,1,2,0.7852679118514061,M22N07,2022-11-02_09h11.25.266,t1_Paradigm,2021.1.4,60.069412055831044,
Y,right,Target,0,9,9,9,1052.6392289574142,1054.6409718777868,right,1,2,0.6914793553878553,M22N07,2022-11-02_09h11.25.266,t1_Paradigm,2021.1.4,60.069412055831044,
X,left,Distractor,0,10,10,10,1056.1388828114723,1058.139763093728,left,1,2,0.7606620338046923,M22N07,2022-11-02_09h11.25.266,t1_Paradigm,2021.1.4,60.069412055831044,
Y,right,Target,0,11,11,11,1059.639184365864,1061.6414498736267,right,1,2,0.7791235801996663,M22N07,2022-11-02_09h11.25.266,t1_Paradigm,2021.1.4,60.069412055831044,
N,left,Distractor,0,12,12,12,1063.1392616793164,1065.1418171926052,left,1,2,0.6387320342473686,M22N07,2022-11-02_09h11.25.266,t1_Paradigm,2021.1.4,60.069412055831044,
Y,right,Target,0,13,13,13,1066.6390162653406,1068.6518602378783,right,1,2,0.6806359076872468,M22N07,2022-11-02_09h11.25.266,t1_Paradigm,2021.1.4,60.069412055831044,
Y,left,Lure,0,14,14,14,1070.13923537347,1072.139108014875,left,1,2,0.9212933348026127,M22N07,2022-11-02_09h11.25.266,t1_Paradigm,2021.1.4,60.069412055831044,
K,left,Distractor,0,15,15,15,1073.639216446143,1075.6404807290528,left,1,2,1.0199792633065954,M22N07,2022-11-02_09h11.25.266,t1_Paradigm,2021.1.4,60.069412055831044,
T,left,Pretarget,0,16,16,16,1077.1392186917365,1079.1396306022652,left,1,2,0.9929218120523728,M22N07,2022-11-02_09h11.25.266,t1_Paradigm,2021.1.4,60.069412055831044,
J,left,Distractor,0,17,17,17,1080.63916223048,1082.6417514280765,left,1,2,0.9144791674334556,M22N07,2022-11-02_09h11.25.266,t1_Paradigm,2021.1.4,60.069412055831044,
T,right,Target,0,18,18,18,1084.1391914235428,1086.141128108662,right,1,2,0.7756184912868775,M22N07,2022-11-02_09h11.25.266,t1_Paradigm,2021.1.4,60.069412055831044,
S,left,Pretarget,0,19,19,19,1087.6389582000556,1089.640509601275,left,1,2,0.6520020326133817,M22N07,2022-11-02_09h11.25.266,t1_Paradigm,2021.1.4,60.069412055831044,
R,left,Distractor,0,20,20,20,1091.1392623208812,1093.1396466423757,left,1,2,0.7528383007156663,M22N07,2022-11-02_09h11.25.266,t1_Paradigm,2021.1.4,60.069412055831044,
S,right,Target,0,21,21,21,1094.6390159445582,1096.6403989244136,right,1,2,0.5320725578349084,M22N07,2022-11-02_09h11.25.266,t1_Paradigm,2021.1.4,60.069412055831044,
Q,left,Distractor,0,22,22,22,1098.139057007269,1100.140062081744,left,1,2,0.6326047051115893,M22N07,2022-11-02_09h11.25.266,t1_Paradigm,2021.1.4,60.069412055831044,
D,left,Distractor,0,23,23,23,1101.6392677745316,1103.6405346238753,left,1,2,0.7961463270476088,M22N07,2022-11-02_09h11.25.266,t1_Paradigm,2021.1.4,60.069412055831044,
F,left,Distractor,0,24,24,24,1105.139275794616,1107.155520915985,left,1,2,0.5931488760979846,M22N07,2022-11-02_09h11.25.266,t1_Paradigm,2021.1.4,60.069412055831044,
Z,left,Distractor,0,25,25,25,1108.6391878947034,1110.6409385143197,left,1,2,0.6438838026951998,M22N07,2022-11-02_09h11.25.266,t1_Paradigm,2021.1.4,60.069412055831044,
P,left,Distractor,0,26,26,26,1112.1390621400787,1114.1394509528182,left,1,2,0.7773155369213782,M22N07,2022-11-02_09h11.25.266,t1_Paradigm,2021.1.4,60.069412055831044,
H,left,Distractor,0,27,27,27,1115.6391057692817,1117.6394355542725,left,1,2,0.989110677561257,M22N07,2022-11-02_09h11.25.266,t1_Paradigm,2021.1.4,60.069412055831044,
Z,left,Pretarget,0,28,28,28,1119.1389925259282,1121.1408509352477,left,1,2,1.2317914064624347,M22N07,2022-11-02_09h11.25.266,t1_Paradigm,2021.1.4,60.069412055831044,
J,left,Pretarget,0,29,29,29,1122.6393046668381,1124.6399796354817,left,1,2,1.0445758380228654,M22N07,2022-11-02_09h11.25.266,t1_Paradigm,2021.1.4,60.069412055831044,
Z,right,Target,0,30,30,30,1126.1392180501716,1128.140111806104,right,1,2,0.664614706474822,M22N07,2022-11-02_09h11.25.266,t1_Paradigm,2021.1.4,60.069412055831044,
J,right,Target,0,31,31,31,1129.6393986620242,1131.6408159677521,right,1,2,0.5557814718340524,M22N07,2022-11-02_09h11.25.266,t1_Paradigm,2021.1.4,60.069412055831044,
V,left,Pretarget,0,32,32,32,1133.1393203861662,1135.1398705625907,None,0,2,,M22N07,2022-11-02_09h11.25.266,t1_Paradigm,2021.1.4,60.069412055831044,
Z,left,Lure,0,33,33,33,1136.6392680953722,1138.6407441080082,left,1,2,0.8677443280466832,M22N07,2022-11-02_09h11.25.266,t1_Paradigm,2021.1.4,60.069412055831044,
V,right,Target,0,34,34,34,1140.1390650273534,1142.1402417311328,right,1,2,1.448777132667601,M22N07,2022-11-02_09h11.25.266,t1_Paradigm,2021.1.4,60.069412055831044,
X,left,Distractor,0,35,35,35,1143.639242431149,1145.640368448163,left,1,2,1.0202172988210805,M22N07,2022-11-02_09h11.25.266,t1_Paradigm,2021.1.4,60.069412055831044,
S,left,Distractor,0,36,36,36,1147.1393909627222,1149.1396245069918,left,1,2,0.6889847946004011,M22N07,2022-11-02_09h11.25.266,t1_Paradigm,2021.1.4,60.069412055831044,
Q,left,Distractor,0,37,37,37,1150.6391368870973,1152.6406533208792,left,1,2,0.7239840342663229,M22N07,2022-11-02_09h11.25.266,t1_Paradigm,2021.1.4,60.069412055831044,
P,left,Distractor,0,38,38,38,1154.1390441751573,1156.141438324761,left,1,2,0.7753544708248228,M22N07,2022-11-02_09h11.25.266,t1_Paradigm,2021.1.4,60.069412055831044,
S,left,Lure,0,39,39,39,1157.6393531080103,1159.6411024444387,left,1,2,1.3075444424175657,M22N07,2022-11-02_09h11.25.266,t1_Paradigm,2021.1.4,60.069412055831044,
K,left,Pretarget,0,40,40,40,1161.1391109020915,1163.1412564296625,left,1,2,1.2153011919581331,M22N07,2022-11-02_09h11.25.266,t1_Paradigm,2021.1.4,60.069412055831044,
L,left,Distractor,0,41,41,41,1164.639290872321,1166.6418515184778,left,1,2,1.0428082158905454,M22N07,2022-11-02_09h11.25.266,t1_Paradigm,2021.1.4,60.069412055831044,
K,right,Target,0,42,42,42,1168.1393434839556,1170.1405262830085,right,1,2,1.192128659808077,M22N07,2022-11-02_09h11.25.266,t1_Paradigm,2021.1.4,60.069412055831044,
B,left,Distractor,0,43,43,43,1171.6391028820071,1173.6413228358142,left,1,2,0.8435920649208128,M22N07,2022-11-02_09h11.25.266,t1_Paradigm,2021.1.4,60.069412055831044,
N,left,Distractor,0,44,44,44,1175.1392850978882,1177.1405423231772,left,1,2,1.1520523986546323,M22N07,2022-11-02_09h11.25.266,t1_Paradigm,2021.1.4,60.069412055831044,
S,left,Pretarget,0,45,45,45,1178.639384867507,1180.6419063757057,left,1,2,0.7388442509691231,M22N07,2022-11-02_09h11.25.266,t1_Paradigm,2021.1.4,60.069412055831044,
Z,left,Distractor,0,46,46,46,1182.1392982507823,1184.1401916859322,left,1,2,0.6806359076872468,M22N07,2022-11-02_09h11.25.266,t1_Paradigm,2021.1.4,60.069412055831044,
S,right,Target,0,47,47,47,1185.6394891283126,1187.6407919075573,right,1,2,0.6358621344552375,M22N07,2022-11-02_09h11.25.266,t1_Paradigm,2021.1.4,60.069412055831044,
C,left,Distractor,0,48,48,48,1189.1391513232375,1191.1414056028589,left,1,2,0.6393749226117507,M22N07,2022-11-02_09h11.25.266,t1_Paradigm,2021.1.4,60.069412055831044,
T,left,Pretarget,0,49,49,49,1192.6393380303052,1194.6416269566398,left,1,2,0.7070841548265889,M22N07,2022-11-02_09h11.25.266,t1_Paradigm,2021.1.4,60.069412055831044,
S,left,Lure,0,50,50,50,1196.139163513726,1198.1417742050253,left,1,2,1.1428780866554007,M22N07,2022-11-02_09h11.25.266,t1_Paradigm,2021.1.4,60.069412055831044,
T,right,Target,0,51,51,51,1199.6394233637839,1201.6417411623988,right,1,2,1.0988857885240577,M22N07,2022-11-02_09h11.25.266,t1_Paradigm,2021.1.4,60.069412055831044,
N,left,Pretarget,0,52,52,52,1203.1393794138567,1205.1413055124576,left,1,2,1.0234769737580791,M22N07,2022-11-02_09h11.25.266,t1_Paradigm,2021.1.4,60.069412055831044,
B,left,Distractor,0,53,53,53,1206.6391821202706,1208.6397948531667,left,1,2,0.5329040781361982,M22N07,2022-11-02_09h11.25.266,t1_Paradigm,2021.1.4,60.069412055831044,
N,right,Target,0,54,54,54,1210.1391266214196,1212.140672248206,right,1,2,1.0961753275478259,M22N07,2022-11-02_09h11.25.266,t1_Paradigm,2021.1.4,60.069412055831044,
N,left,Lure,0,55,55,55,1213.6395196045632,1215.63959050196,left,1,2,1.0210594055824913,M22N07,2022-11-02_09h11.25.266,t1_Paradigm,2021.1.4,60.069412055831044,
X,left,Distractor,0,56,56,56,1217.1391455487465,1219.1394506320357,left,1,2,0.9774424464558251,M22N07,2022-11-02_09h11.25.266,t1_Paradigm,2021.1.4,60.069412055831044,
W,left,Distractor,0,57,57,57,1220.6394961859914,1222.6420042204554,left,1,2,0.8025845138472505,M22N07,2022-11-02_09h11.25.266,t1_Paradigm,2021.1.4,60.069412055831044,
S,left,Distractor,0,58,58,58,1224.1394166269456,1226.141785753949,left,1,2,0.6790957344928756,M22N07,2022-11-02_09h11.25.266,t1_Paradigm,2021.1.4,60.069412055831044,
L,left,Distractor,0,59,59,59,1227.6395218502148,1229.6410309054772,left,1,2,0.7480435855104588,M22N07,2022-11-02_09h11.25.266,t1_Paradigm,2021.1.4,60.069412055831044,
K,left,Pretarget,0,60,60,60,1231.1395125468844,1233.1411775122397,left,1,2,1.0076633318094537,M22N07,2022-11-02_09h11.25.266,t1_Paradigm,2021.1.4,60.069412055831044,
V,left,Pretarget,0,61,61,61,1234.6395484767854,1236.6414386455435,left,1,2,0.6755867960164323,M22N07,2022-11-02_09h11.25.266,t1_Paradigm,2021.1.4,60.069412055831044,
K,right,Target,0,62,62,62,1238.1393296894385,1240.1415820443071,right,1,2,0.9991097728488967,M22N07,2022-11-02_09h11.25.266,t1_Paradigm,2021.1.4,60.069412055831044,
V,right,Target,0,63,63,63,1241.6394936195575,1243.641479387472,right,1,2,0.8591513103456236,M22N07,2022-11-02_09h11.25.266,t1_Paradigm,2021.1.4,60.069412055831044,
R,left,Distractor,0,0,0,0,1321.5309128565714,1323.5232177652651,None,0,3,,M22N07,2022-11-02_09h11.25.266,t1_Paradigm,2021.1.4,60.069412055831044,
P,left,Lure,0,1,1,1,1325.0229463662836,1327.0244987299666,None,0,3,,M22N07,2022-11-02_09h11.25.266,t1_Paradigm,2021.1.4,60.069412055831044,
V,left,Distractor,0,2,2,2,1328.522902095574,1330.52340768039,left,1,3,0.9533010905142874,M22N07,2022-11-02_09h11.25.266,t1_Paradigm,2021.1.4,60.069412055831044,
P,left,Pretarget,0,3,3,3,1332.0229123612517,1334.0246206349111,None,0,3,,M22N07,2022-11-02_09h11.25.266,t1_Paradigm,2021.1.4,60.069412055831044,
Z,left,Distractor,0,4,4,4,1335.5225774433347,1337.5245545496,left,1,3,0.9124876250280067,M22N07,2022-11-02_09h11.25.266,t1_Paradigm,2021.1.4,60.069412055831044,
L,left,Pretarget,0,5,5,5,1339.0229133236571,1341.0242106492515,left,1,3,0.6929502352140844,M22N07,2022-11-02_09h11.25.266,t1_Paradigm,2021.1.4,60.069412055831044,
P,right,Target,0,6,6,6,1342.5227468271041,1344.5240990099264,right,1,3,0.9366443794569932,M22N07,2022-11-02_09h11.25.266,t1_Paradigm,2021.1.4,60.069412055831044,
S,left,Distractor,0,7,7,7,1346.0229983362951,1348.024594329123,left,1,3,0.828420028090477,M22N07,2022-11-02_09h11.25.266,t1_Paradigm,2021.1.4,60.069412055831044,
L,right,Target,0,8,8,8,1349.5228680904838,1351.524627050967,None,0,3,,M22N07,2022-11-02_09h11.25.266,t1_Paradigm,2021.1.4,60.069412055831044,
D,left,Distractor,0,9,9,9,1353.0230076395674,1355.024842630315,left,1,3,1.0122357308864594,M22N07,2022-11-02_09h11.25.266,t1_Paradigm,2021.1.4,60.069412055831044,
G,left,Distractor,0,10,10,10,1356.5229855042417,1358.524241767067,left,1,3,1.0485335793346167,M22N07,2022-11-02_09h11.25.266,t1_Paradigm,2021.1.4,60.069412055831044,
M,left,Pretarget,0,11,11,11,1360.0229133236571,1362.0245577575988,left,1,3,0.716309474373702,M22N07,2022-11-02_09h11.25.266,t1_Paradigm,2021.1.4,60.069412055831044,
Y,left,Distractor,0,12,12,12,1363.5227051227703,1365.523284171417,left,1,3,0.7536534600658342,M22N07,2022-11-02_09h11.25.266,t1_Paradigm,2021.1.4,60.069412055831044,
V,left,Distractor,0,13,13,13,1367.0229312885785,1369.0244336070027,left,1,3,1.060647405218333,M22N07,2022-11-02_09h11.25.266,t1_Paradigm,2021.1.4,60.069412055831044,
M,right,Target,0,14,14,14,1370.5229300053907,1372.524858991208,right,1,3,0.9207325719180517,M22N07,2022-11-02_09h11.25.266,t1_Paradigm,2021.1.4,60.069412055831044,
S,left,Pretarget,0,15,15,15,1374.0232036499656,1376.0242074411944,left,1,3,0.7487455015070736,M22N07,2022-11-02_09h11.25.266,t1_Paradigm,2021.1.4,60.069412055831044,
Q,left,Distractor,0,16,16,16,1377.523008602031,1379.5246591312462,left,1,3,0.8803602099651471,M22N07,2022-11-02_09h11.25.266,t1_Paradigm,2021.1.4,60.069412055831044,
R,left,Pretarget,0,17,17,17,1381.022737523832,1383.0245304894052,left,1,3,1.396662754996214,M22N07,2022-11-02_09h11.25.266,t1_Paradigm,2021.1.4,60.069412055831044,
S,right,Target,0,18,18,18,1384.5230528727407,1386.5249764049659,right,1,3,0.7759546923916787,M22N07,2022-11-02_09h11.25.266,t1_Paradigm,2021.1.4,60.069412055831044,
F,left,Distractor,0,19,19,19,1388.022878676944,1390.035713025427,left,1,3,0.7052363320253789,M22N07,2022-11-02_09h11.25.266,t1_Paradigm,2021.1.4,60.069412055831044,
R,right,Target,0,20,20,20,1391.5233245925629,1393.5233274797793,right,1,3,0.9457198841846548,M22N07,2022-11-02_09h11.25.266,t1_Paradigm,2021.1.4,60.069412055831044,
P,left,Distractor,0,21,21,21,1395.0227529223775,1397.0234320614254,left,1,3,0.8695276695652865,M22N07,2022-11-02_09h11.25.266,t1_Paradigm,2021.1.4,60.069412055831044,
L,left,Distractor,0,22,22,22,1398.523024962924,1400.5249783297768,left,1,3,0.8080987892462872,M22N07,2022-11-02_09h11.25.266,t1_Paradigm,2021.1.4,60.069412055831044,
R,right,Target,0,23,23,23,1402.022895037895,1404.0250302997883,right,1,3,1.1319605335593224,M22N07,2022-11-02_09h11.25.266,t1_Paradigm,2021.1.4,60.069412055831044,
H,left,Pretarget,0,24,24,24,1405.5230166220572,1407.5252105908585,left,1,3,0.6398744122125208,M22N07,2022-11-02_09h11.25.266,t1_Paradigm,2021.1.4,60.069412055831044,
G,left,Pretarget,0,25,25,25,1409.0230820658035,1411.0237223877339,left,1,3,0.709431788069196,M22N07,2022-11-02_09h11.25.266,t1_Paradigm,2021.1.4,60.069412055831044,
T,left,Distractor,0,26,26,26,1412.5230265669525,1414.524517336511,left,1,3,1.0649304403341375,M22N07,2022-11-02_09h11.25.266,t1_Paradigm,2021.1.4,60.069412055831044,
H,right,Target,0,27,27,27,1416.0231382062193,1418.0243389702518,right,1,3,1.0687091738218442,M22N07,2022-11-02_09h11.25.266,t1_Paradigm,2021.1.4,60.069412055831044,
G,right,Target,0,28,28,28,1419.5231048427522,1421.523664322449,left,0,3,1.089481140312273,M22N07,2022-11-02_09h11.25.266,t1_Paradigm,2021.1.4,60.069412055831044,
D,left,Distractor,0,29,29,29,1423.0228363310453,1425.0245359430555,None,0,3,,M22N07,2022-11-02_09h11.25.266,t1_Paradigm,2021.1.4,60.069412055831044,
N,left,Pretarget,0,30,30,30,1426.5231754193665,1428.525167282496,left,1,3,1.0800784170278348,M22N07,2022-11-02_09h11.25.266,t1_Paradigm,2021.1.4,60.069412055831044,
V,left,Distractor,0,31,31,31,1430.0233294045902,1432.0245102788322,left,1,3,0.9726615257095546,M22N07,2022-11-02_09h11.25.266,t1_Paradigm,2021.1.4,60.069412055831044,
R,left,Distractor,0,32,32,32,1433.5231160708936,1435.5247393318568,left,1,3,1.0083030121750198,M22N07,2022-11-02_09h11.25.266,t1_Paradigm,2021.1.4,60.069412055831044,
N,right,Target,0,33,33,33,1437.02291909809,1439.0254733281326,right,1,3,1.4276773059973493,M22N07,2022-11-02_09h11.25.266,t1_Paradigm,2021.1.4,60.069412055831044,
Z,left,Distractor,0,34,34,34,1440.5228870178107,1442.5240576264332,left,1,3,0.6654070888180286,M22N07,2022-11-02_09h11.25.266,t1_Paradigm,2021.1.4,60.069412055831044,
N,left,Lure,0,35,35,35,1444.0231272989768,1446.02322225651,left,1,3,0.5898965796804987,M22N07,2022-11-02_09h11.25.266,t1_Paradigm,2021.1.4,60.069412055831044,
Y,left,Pretarget,0,36,36,36,1447.5230657048523,1449.5248102292535,left,1,3,0.8162016205606051,M22N07,2022-11-02_09h11.25.266,t1_Paradigm,2021.1.4,60.069412055831044,
Y,left,Lure,0,37,37,37,1451.0228927923017,1453.0231590584153,left,1,3,0.9338877229602076,M22N07,2022-11-02_09h11.25.266,t1_Paradigm,2021.1.4,60.069412055831044,
B,left,Distractor,0,38,38,38,1454.5229431582848,1456.5238763729576,left,1,3,0.6974032957223244,M22N07,2022-11-02_09h11.25.266,t1_Paradigm,2021.1.4,60.069412055831044,
Y,right,Target,0,39,39,39,1458.0232164820773,1460.024498409126,right,1,3,0.6526452417601831,M22N07,2022-11-02_09h11.25.266,t1_Paradigm,2021.1.4,60.069412055831044,
J,left,Distractor,0,40,40,40,1461.5231362814084,1463.5257049475913,left,1,3,0.6395016396418214,M22N07,2022-11-02_09h11.25.266,t1_Paradigm,2021.1.4,60.069412055831044,
X,left,Distractor,0,41,41,41,1465.023128902947,1467.0246071612346,left,1,3,0.9967416083090939,M22N07,2022-11-02_09h11.25.266,t1_Paradigm,2021.1.4,60.069412055831044,
W,left,Pretarget,0,42,42,42,1468.523120882921,1470.5250771369901,left,1,3,0.8401514572906308,M22N07,2022-11-02_09h11.25.266,t1_Paradigm,2021.1.4,60.069412055831044,
S,left,Pretarget,0,43,43,43,1472.0232905874727,1474.0235029587639,left,1,3,0.6535794188384898,M22N07,2022-11-02_09h11.25.266,t1_Paradigm,2021.1.4,60.069412055831044,
R,left,Distractor,0,44,44,44,1475.523184401798,1477.5240887442487,left,1,3,0.6890996419242583,M22N07,2022-11-02_09h11.25.266,t1_Paradigm,2021.1.4,60.069412055831044,
W,right,Target,0,45,45,45,1479.0231709281215,1481.0250383198727,right,1,3,1.0282437791465782,M22N07,2022-11-02_09h11.25.266,t1_Paradigm,2021.1.4,60.069412055831044,
S,right,Target,0,46,46,46,1482.5231805521762,1484.5244355318137,None,0,3,,M22N07,2022-11-02_09h11.25.266,t1_Paradigm,2021.1.4,60.069412055831044,
D,left,Distractor,0,47,47,47,1486.0232103868038,1488.02440826362,left,1,3,0.6207751103211194,M22N07,2022-11-02_09h11.25.266,t1_Paradigm,2021.1.4,60.069412055831044,
T,left,Distractor,0,48,48,48,1489.523300532368,1491.5245070708334,left,1,3,0.5127920025261119,M22N07,2022-11-02_09h11.25.266,t1_Paradigm,2021.1.4,60.069412055831044,
S,right,Target,0,49,49,49,1493.0233101564227,1495.024645336729,left,0,3,0.788559025444556,M22N07,2022-11-02_09h11.25.266,t1_Paradigm,2021.1.4,60.069412055831044,
K,left,Distractor,0,50,50,50,1496.5232459959225,1498.5245737977675,left,1,3,1.0646869512274861,M22N07,2022-11-02_09h11.25.266,t1_Paradigm,2021.1.4,60.069412055831044,
S,left,Lure,0,51,51,51,1500.0232190485112,1502.0248743897537,right,0,3,0.8124934636289254,M22N07,2022-11-02_09h11.25.266,t1_Paradigm,2021.1.4,60.069412055831044,
T,left,Pretarget,0,52,52,52,1503.5232386174612,1505.5256507319864,right,0,3,1.0075343691860326,M22N07,2022-11-02_09h11.25.266,t1_Paradigm,2021.1.4,60.069412055831044,
V,left,Distractor,0,53,53,53,1507.0229652936687,1509.0246033116127,left,1,3,0.6447374583804049,M22N07,2022-11-02_09h11.25.266,t1_Paradigm,2021.1.4,60.069412055831044,
B,left,Distractor,0,54,54,54,1510.5230393990641,1512.5249138484942,left,1,3,0.44037948379991576,M22N07,2022-11-02_09h11.25.266,t1_Paradigm,2021.1.4,60.069412055831044,
T,right,Target,0,55,55,55,1514.0232585071935,1516.0251454679528,right,1,3,1.1479528625495732,M22N07,2022-11-02_09h11.25.266,t1_Paradigm,2021.1.4,60.069412055831044,
Y,left,Pretarget,0,56,56,56,1517.522947328689,1519.5228286317433,left,1,3,0.9782537561259232,M22N07,2022-11-02_09h11.25.266,t1_Paradigm,2021.1.4,60.069412055831044,
T,left,Lure,0,57,57,57,1521.023208461993,1523.0234477806953,left,1,3,1.0618196178111248,M22N07,2022-11-02_09h11.25.266,t1_Paradigm,2021.1.4,60.069412055831044,
P,left,Pretarget,0,58,58,58,1524.5232825673884,1526.5251990419347,left,1,3,0.8080862779170275,M22N07,2022-11-02_09h11.25.266,t1_Paradigm,2021.1.4,60.069412055831044,
Y,right,Target,0,59,59,59,1528.0230907274527,1530.0253020196105,left,0,3,0.6998988188570365,M22N07,2022-11-02_09h11.25.266,t1_Paradigm,2021.1.4,60.069412055831044,
R,left,Distractor,0,60,60,60,1531.5234131340403,1533.525644636713,left,1,3,1.0235337557969615,M22N07,2022-11-02_09h11.25.266,t1_Paradigm,2021.1.4,60.069412055831044,
P,right,Target,0,61,61,61,1535.0230528727407,1537.0235372846364,right,1,3,0.9016845984733663,M22N07,2022-11-02_09h11.25.266,t1_Paradigm,2021.1.4,60.069412055831044,
L,left,Distractor,0,62,62,62,1538.5232572240056,1540.5248429510975,left,1,3,1.032202803704422,M22N07,2022-11-02_09h11.25.266,t1_Paradigm,2021.1.4,60.069412055831044,
V,left,Distractor,0,63,63,63,1542.0233014947735,1544.0237278413842,right,0,3,1.197690093133133,M22N07,2022-11-02_09h11.25.266,t1_Paradigm,2021.1.4,60.069412055831044,
H,left,Lure,0,0,0,0,1564.6552289856481,1566.6585881093633,left,1,3,1.026754934398923,M22N07,2022-11-02_09h11.25.266,t1_Paradigm,2021.1.4,60.069412055831044,
B,left,Distractor,0,1,1,1,1568.1560293880757,1570.158784440544,left,1,3,0.7588424416608177,M22N07,2022-11-02_09h11.25.266,t1_Paradigm,2021.1.4,60.069412055831044,
T,left,Distractor,0,2,2,2,1571.656785198953,1573.657301049505,left,1,3,1.0679928217432462,M22N07,2022-11-02_09h11.25.266,t1_Paradigm,2021.1.4,60.069412055831044,
R,left,Distractor,0,3,3,3,1575.156781990896,1577.1588463554508,left,1,3,0.7824528692872263,M22N07,2022-11-02_09h11.25.266,t1_Paradigm,2021.1.4,60.069412055831044,
H,left,Pretarget,0,4,4,4,1578.6567078855005,1580.658402364701,left,1,3,1.0591960944002494,M22N07,2022-11-02_09h11.25.266,t1_Paradigm,2021.1.4,60.069412055831044,
K,left,Distractor,0,5,5,5,1582.1567672339734,1584.1569664523704,left,1,3,0.8883475523907691,M22N07,2022-11-02_09h11.25.266,t1_Paradigm,2021.1.4,60.069412055831044,
G,left,Distractor,0,6,6,6,1585.6566424418124,1587.6586602899479,left,1,3,0.7788120809127577,M22N07,2022-11-02_09h11.25.266,t1_Paradigm,2021.1.4,60.069412055831044,
H,right,Target,0,7,7,7,1589.1566703516291,1591.1582753268885,right,1,3,0.7829882887308486,M22N07,2022-11-02_09h11.25.266,t1_Paradigm,2021.1.4,60.069412055831044,
Y,left,Pretarget,0,8,8,8,1592.6564753036364,1594.6574098015553,left,1,3,0.8197185791796073,M22N07,2022-11-02_09h11.25.266,t1_Paradigm,2021.1.4,60.069412055831044,
S,left,Distractor,0,9,9,9,1596.1568066927139,1598.1579599779798,left,1,3,0.615508173708804,M22N07,2022-11-02_09h11.25.266,t1_Paradigm,2021.1.4,60.069412055831044,
P,left,Distractor,0,10,10,10,1599.6567194344243,1601.6585409514373,left,1,3,0.7468996035167947,M22N07,2022-11-02_09h11.25.266,t1_Paradigm,2021.1.4,60.069412055831044,
Y,right,Target,0,11,11,11,1603.1566886373912,1605.1583763796953,right,1,3,0.7029830148094334,M22N07,2022-11-02_09h11.25.266,t1_Paradigm,2021.1.4,60.069412055831044,
H,left,Lure,0,12,12,12,1606.6565426721936,1608.656821770419,left,1,3,1.1086683421162888,M22N07,2022-11-02_09h11.25.266,t1_Paradigm,2021.1.4,60.069412055831044,
Q,left,Distractor,0,13,13,13,1610.156729058479,1612.1587555683218,left,1,3,0.9186293902457692,M22N07,2022-11-02_09h11.25.266,t1_Paradigm,2021.1.4,60.069412055831044,
V,left,Pretarget,0,14,14,14,1613.6568769484875,1615.6590584059595,right,0,3,1.0502841989509761,M22N07,2022-11-02_09h11.25.266,t1_Paradigm,2021.1.4,60.069412055831044,
G,left,Distractor,0,15,15,15,1617.1568750236765,1619.1583256928716,left,1,3,0.6071653820690699,M22N07,2022-11-02_09h11.25.266,t1_Paradigm,2021.1.4,60.069412055831044,
Z,left,Pretarget,0,16,16,16,1620.6568121463642,1622.6586278888863,left,1,3,0.6908675848972052,M22N07,2022-11-02_09h11.25.266,t1_Paradigm,2021.1.4,60.069412055831044,
V,right,Target,0,17,17,17,1624.1567370785633,1626.1580016823136,None,0,3,,M22N07,2022-11-02_09h11.25.266,t1_Paradigm,2021.1.4,60.069412055831044,
N,left,Distractor,0,18,18,18,1627.6569042166811,1629.658495718264,left,1,3,1.1950874219182879,M22N07,2022-11-02_09h11.25.266,t1_Paradigm,2021.1.4,60.069412055831044,
Z,right,Target,0,19,19,19,1631.1567887277924,1633.157807917567,right,1,3,0.5276993772131391,M22N07,2022-11-02_09h11.25.266,t1_Paradigm,2021.1.4,60.069412055831044,
R,left,Distractor,0,20,20,20,1634.6568467930192,1636.6569173695752,left,1,3,0.5328832259401679,M22N07,2022-11-02_09h11.25.266,t1_Paradigm,2021.1.4,60.069412055831044,
P,left,Distractor,0,21,21,21,1638.1567771788687,1640.1572923877975,left,1,3,0.5521053952397779,M22N07,2022-11-02_09h11.25.266,t1_Paradigm,2021.1.4,60.069412055831044,
Z,right,Target,0,22,22,22,1641.6567964270362,1643.6580106647452,right,1,3,0.5555078272591345,M22N07,2022-11-02_09h11.25.266,t1_Paradigm,2021.1.4,60.069412055831044,
D,left,Pretarget,0,23,23,23,1645.156695053447,1647.1578682284453,left,1,3,0.6716787791228853,M22N07,2022-11-02_09h11.25.266,t1_Paradigm,2021.1.4,60.069412055831044,
K,left,Distractor,0,24,24,24,1648.6567999558756,1650.659020230465,left,1,3,0.674557019781787,M22N07,2022-11-02_09h11.25.266,t1_Paradigm,2021.1.4,60.069412055831044,
W,left,Distractor,0,25,25,25,1652.1567425322137,1654.1571964678587,left,1,3,0.7125435729976743,M22N07,2022-11-02_09h11.25.266,t1_Paradigm,2021.1.4,60.069412055831044,
D,right,Target,0,26,26,26,1655.6566626523854,1657.6732244059094,right,1,3,0.9082620135741308,M22N07,2022-11-02_09h11.25.266,t1_Paradigm,2021.1.4,60.069412055831044,
G,left,Pretarget,0,27,27,27,1659.1568291488802,1661.156968056399,left,1,3,1.1205133353942074,M22N07,2022-11-02_09h11.25.266,t1_Paradigm,2021.1.4,60.069412055831044,
V,left,Distractor,0,28,28,28,1662.6568262616638,1664.6578553963336,left,1,3,1.0436451897840016,M22N07,2022-11-02_09h11.25.266,t1_Paradigm,2021.1.4,60.069412055831044,
D,right,Target,0,29,29,29,1666.1567560058902,1668.1579949454172,None,0,3,,M22N07,2022-11-02_09h11.25.266,t1_Paradigm,2021.1.4,60.069412055831044,
G,right,Target,0,30,30,30,1669.6568496802356,1671.6574114055838,right,1,3,0.956125115568284,M22N07,2022-11-02_09h11.25.266,t1_Paradigm,2021.1.4,60.069412055831044,
B,left,Pretarget,0,31,31,31,1673.1565603163326,1675.1579147448065,left,1,3,0.7675198303768411,M22N07,2022-11-02_09h11.25.266,t1_Paradigm,2021.1.4,60.069412055831044,
N,left,Distractor,0,32,32,32,1676.6565397849772,1678.6573812501156,left,1,3,1.044018283195328,M22N07,2022-11-02_09h11.25.266,t1_Paradigm,2021.1.4,60.069412055831044,
F,left,Distractor,0,33,33,33,1680.156772046059,1682.1572141119977,left,1,3,0.9043078011018224,M22N07,2022-11-02_09h11.25.266,t1_Paradigm,2021.1.4,60.069412055831044,
B,right,Target,0,34,34,34,1683.656548767467,1685.6575779020786,right,1,3,0.8599212365807034,M22N07,2022-11-02_09h11.25.266,t1_Paradigm,2021.1.4,60.069412055831044,
Q,left,Pretarget,0,35,35,35,1687.156747985864,1689.1593875493854,left,1,3,0.6861331805121154,M22N07,2022-11-02_09h11.25.266,t1_Paradigm,2021.1.4,60.069412055831044,
S,left,Pretarget,0,36,36,36,1690.6567470234586,1692.6583863245905,left,1,3,1.0271123084821738,M22N07,2022-11-02_09h11.25.266,t1_Paradigm,2021.1.4,60.069412055831044,
W,left,Distractor,0,37,37,37,1694.1567409281852,1696.1575413306127,left,1,3,1.3519637287827209,M22N07,2022-11-02_09h11.25.266,t1_Paradigm,2021.1.4,60.069412055831044,
Q,right,Target,0,38,38,38,1697.6568265824462,1699.659511379199,right,1,3,0.7460879730642773,M22N07,2022-11-02_09h11.25.266,t1_Paradigm,2021.1.4,60.069412055831044,
S,right,Target,0,39,39,39,1701.1570100815734,1703.1575031551183,right,1,3,0.5121410941355862,M22N07,2022-11-02_09h11.25.266,t1_Paradigm,2021.1.4,60.069412055831044,
T,left,Distractor,0,40,40,40,1704.6568907430046,1706.656874061271,left,1,3,0.6446826011524536,M22N07,2022-11-02_09h11.25.266,t1_Paradigm,2021.1.4,60.069412055831044,
G,left,Distractor,0,41,41,41,1708.156951695506,1710.1588636788074,left,1,3,0.5506428562221117,M22N07,2022-11-02_09h11.25.266,t1_Paradigm,2021.1.4,60.069412055831044,
D,left,Distractor,0,42,42,42,1711.6572269441094,1713.6588662452414,left,1,3,0.8271756349131465,M22N07,2022-11-02_09h11.25.266,t1_Paradigm,2021.1.4,60.069412055831044,
S,left,Lure,0,43,43,43,1715.1566254392383,1717.1695691813948,left,1,3,1.380119928799104,M22N07,2022-11-02_09h11.25.266,t1_Paradigm,2021.1.4,60.069412055831044,
Z,left,Pretarget,0,44,44,44,1718.6568285073154,1720.657016497571,left,1,3,0.9967983903479762,M22N07,2022-11-02_09h11.25.266,t1_Paradigm,2021.1.4,60.069412055831044,
J,left,Distractor,0,45,45,45,1722.1568695700262,1724.1560762252775,left,1,3,0.8735989750130102,M22N07,2022-11-02_09h11.25.266,t1_Paradigm,2021.1.4,60.069412055831044,
M,left,Pretarget,0,46,46,46,1725.6569000462769,1727.6572118663462,left,1,3,0.7645742212189361,M22N07,2022-11-02_09h11.25.266,t1_Paradigm,2021.1.4,60.069412055831044,
Z,right,Target,0,47,47,47,1729.1566777300905,1731.158021572046,right,1,3,0.5116752887843177,M22N07,2022-11-02_09h11.25.266,t1_Paradigm,2021.1.4,60.069412055831044,
P,left,Distractor,0,48,48,48,1732.6568259408814,1734.659075729316,left,1,3,0.6746080273296684,M22N07,2022-11-02_09h11.25.266,t1_Paradigm,2021.1.4,60.069412055831044,
M,right,Target,0,49,49,49,1736.1567415698082,1738.1584986054804,right,1,3,0.8073307878803462,M22N07,2022-11-02_09h11.25.266,t1_Paradigm,2021.1.4,60.069412055831044,
K,left,Distractor,0,50,50,50,1739.656944637827,1741.6583664348,left,1,3,0.6991975444252603,M22N07,2022-11-02_09h11.25.266,t1_Paradigm,2021.1.4,60.069412055831044,
Y,left,Distractor,0,51,51,51,1743.1569539410993,1745.1577771204757,left,1,3,0.8800073271268047,M22N07,2022-11-02_09h11.25.266,t1_Paradigm,2021.1.4,60.069412055831044,
X,left,Distractor,0,52,52,52,1746.6571018311079,1748.6580498027033,left,1,3,0.8194394808961079,M22N07,2022-11-02_09h11.25.266,t1_Paradigm,2021.1.4,60.069412055831044,
F,left,Pretarget,0,53,53,53,1750.156944637827,1752.1589563907473,left,1,3,0.6147950296290219,M22N07,2022-11-02_09h11.25.266,t1_Paradigm,2021.1.4,60.069412055831044,
M,left,Lure,0,54,54,54,1753.657036708144,1755.659336220997,left,1,3,0.7141645884257741,M22N07,2022-11-02_09h11.25.266,t1_Paradigm,2021.1.4,60.069412055831044,
V,left,Distractor,0,55,55,55,1757.1567255296395,1759.1589891125914,left,1,3,0.862820971000474,M22N07,2022-11-02_09h11.25.266,t1_Paradigm,2021.1.4,60.069412055831044,
F,right,Target,0,56,56,56,1760.656658481923,1762.6577774413163,right,1,3,0.5959581442875788,M22N07,2022-11-02_09h11.25.266,t1_Paradigm,2021.1.4,60.069412055831044,
S,left,Distractor,0,57,57,57,1764.1567319456954,1766.1574656211887,left,1,3,1.0643446549074724,M22N07,2022-11-02_09h11.25.266,t1_Paradigm,2021.1.4,60.069412055831044,
D,left,Distractor,0,58,58,58,1767.656749910675,1769.6591950678849,left,1,3,0.922458168992307,M22N07,2022-11-02_09h11.25.266,t1_Paradigm,2021.1.4,60.069412055831044,
F,right,Target,0,59,59,59,1771.15709669824,1773.1589252728736,right,1,3,0.9267591690295376,M22N07,2022-11-02_09h11.25.266,t1_Paradigm,2021.1.4,60.069412055831044,
V,left,Pretarget,0,60,60,60,1774.6572016006685,1776.6577610803652,left,1,3,0.8357153993565589,M22N07,2022-11-02_09h11.25.266,t1_Paradigm,2021.1.4,60.069412055831044,
J,left,Distractor,0,61,61,61,1778.1569770388887,1780.1588656036183,right,0,3,1.0629915096214972,M22N07,2022-11-02_09h11.25.266,t1_Paradigm,2021.1.4,60.069412055831044,
V,left,Lure,0,62,62,62,1781.6568256200408,1783.6582673068042,None,0,3,,M22N07,2022-11-02_09h11.25.266,t1_Paradigm,2021.1.4,60.069412055831044,
V,right,Target,0,63,63,63,1785.15702355525,1787.1570338209276,left,0,3,0.9927530699060299,M22N07,2022-11-02_09h11.25.266,t1_Paradigm,2021.1.4,60.069412055831044,
R,left,Distractor,0,0,0,0,1841.3819452954922,1843.3760191095644,left,1,4,0.5497320977738127,M22N07,2022-11-02_09h11.25.266,t1_Paradigm,2021.1.4,60.069412055831044,
F,left,Distractor,0,1,1,1,1844.8735713859787,1846.875457063492,left,1,4,0.5064500565058552,M22N07,2022-11-02_09h11.25.266,t1_Paradigm,2021.1.4,60.069412055831044,
P,left,Pretarget,0,2,2,2,1848.3736916868947,1850.3756566026714,left,1,4,0.33412293542642146,M22N07,2022-11-02_09h11.25.266,t1_Paradigm,2021.1.4,60.069412055831044,
H,left,Distractor,0,3,3,3,1851.87374076969,1853.8742380136973,left,1,4,0.6117355354945175,M22N07,2022-11-02_09h11.25.266,t1_Paradigm,2021.1.4,60.069412055831044,
Z,left,Distractor,0,4,4,4,1855.3738110254635,1857.3742072166642,left,1,4,0.5835819018539041,M22N07,2022-11-02_09h11.25.266,t1_Paradigm,2021.1.4,60.069412055831044,
T,left,Distractor,0,5,5,5,1858.8735941629275,1860.8761230495875,left,1,4,0.6335186716751195,M22N07,2022-11-02_09h11.25.266,t1_Paradigm,2021.1.4,60.069412055831044,
P,right,Target,0,6,6,6,1862.3738110254635,1864.3752751683933,right,1,4,0.6226434644777328,M22N07,2022-11-02_09h11.25.266,t1_Paradigm,2021.1.4,60.069412055831044,
G,left,Distractor,0,7,7,7,1865.8735874260892,1867.8756569234538,left,1,4,0.546345705864951,M22N07,2022-11-02_09h11.25.266,t1_Paradigm,2021.1.4,60.069412055831044,
L,left,Distractor,0,8,8,8,1869.373888338916,1871.375906507892,left,1,4,0.6620903110597283,M22N07,2022-11-02_09h11.25.266,t1_Paradigm,2021.1.4,60.069412055831044,
P,left,Lure,0,9,9,9,1872.8736169399344,1874.8748594083008,left,1,4,1.3230799484881572,M22N07,2022-11-02_09h11.25.266,t1_Paradigm,2021.1.4,60.069412055831044,
Q,left,Pretarget,0,10,10,10,1876.3737542434246,1878.3758025678108,left,1,4,0.9423248305683956,M22N07,2022-11-02_09h11.25.266,t1_Paradigm,2021.1.4,60.069412055831044,
D,left,Distractor,0,11,11,11,1879.8738344440353,1881.876091290149,left,1,4,0.8978824463556521,M22N07,2022-11-02_09h11.25.266,t1_Paradigm,2021.1.4,60.069412055831044,
M,left,Pretarget,0,12,12,12,1883.3738267447916,1885.3741055222345,left,1,4,0.9517246666946448,M22N07,2022-11-02_09h11.25.266,t1_Paradigm,2021.1.4,60.069412055831044,
C,left,Distractor,0,13,13,13,1886.8738520882325,1888.874265281891,left,1,4,0.7637879340909421,M22N07,2022-11-02_09h11.25.266,t1_Paradigm,2021.1.4,60.069412055831044,
Q,right,Target,0,14,14,14,1890.3738238575752,1892.3758109086775,right,1,4,0.5582137969322503,M22N07,2022-11-02_09h11.25.266,t1_Paradigm,2021.1.4,60.069412055831044,
R,left,Distractor,0,15,15,15,1893.8738739027758,1895.8744125302765,left,1,4,0.8035129164927639,M22N07,2022-11-02_09h11.25.266,t1_Paradigm,2021.1.4,60.069412055831044,
M,right,Target,0,16,16,16,1897.3741667955182,1899.3745758188306,right,1,4,0.8074514096369967,M22N07,2022-11-02_09h11.25.266,t1_Paradigm,2021.1.4,60.069412055831044,
S,left,Distractor,0,17,17,17,1900.8737869652687,1902.874380770838,left,1,4,0.8115647402009927,M22N07,2022-11-02_09h11.25.266,t1_Paradigm,2021.1.4,60.069412055831044,
Z,left,Distractor,0,18,18,18,1904.3735492505948,1906.3740503441659,left,1,4,1.1038341681123711,M22N07,2022-11-02_09h11.25.266,t1_Paradigm,2021.1.4,60.069412055831044,
L,left,Pretarget,0,19,19,19,1907.8906345539144,1909.8759109990788,left,1,4,1.185962192772422,M22N07,2022-11-02_09h11.25.266,t1_Paradigm,2021.1.4,60.069412055831044,
M,right,Target,0,20,20,20,1911.3737074062228,1913.3760008238023,right,1,4,0.982016128662508,M22N07,2022-11-02_09h11.25.266,t1_Paradigm,2021.1.4,60.069412055831044,
P,left,Distractor,0,21,21,21,1914.8739849004778,1916.8741911764955,left,1,4,1.2277473692665808,M22N07,2022-11-02_09h11.25.266,t1_Paradigm,2021.1.4,60.069412055831044,
F,left,Distractor,0,22,22,22,1918.3739823340438,1920.375819570385,left,1,4,1.2144565187045373,M22N07,2022-11-02_09h11.25.266,t1_Paradigm,2021.1.4,60.069412055831044,
L,right,Target,0,23,23,23,1921.8737965893815,1923.8739143239218,right,1,4,1.012036512431223,M22N07,2022-11-02_09h11.25.266,t1_Paradigm,2021.1.4,60.069412055831044,
L,left,Lure,0,24,24,24,1925.3740554770338,1927.3739130406757,left,1,4,0.7280222970293835,M22N07,2022-11-02_09h11.25.266,t1_Paradigm,2021.1.4,60.069412055831044,
V,left,Pretarget,0,25,25,25,1928.8740115271066,1930.8744551970158,left,1,4,0.9715117692830972,M22N07,2022-11-02_09h11.25.266,t1_Paradigm,2021.1.4,60.069412055831044,
Z,left,Distractor,0,26,26,26,1932.3738803188317,1934.3739579530666,left,1,4,1.2323393372353166,M22N07,2022-11-02_09h11.25.266,t1_Paradigm,2021.1.4,60.069412055831044,
H,left,Distractor,0,27,27,27,1935.8737176719005,1937.8744952973793,left,1,4,0.8194227991625667,M22N07,2022-11-02_09h11.25.266,t1_Paradigm,2021.1.4,60.069412055831044,
X,left,Distractor,0,28,28,28,1939.373848559393,1941.3749110574718,left,1,4,0.6792760255630128,M22N07,2022-11-02_09h11.25.266,t1_Paradigm,2021.1.4,60.069412055831044,
V,right,Target,0,29,29,29,1942.8739220231655,1944.8756071990938,right,1,4,0.8584699257044122,M22N07,2022-11-02_09h11.25.266,t1_Paradigm,2021.1.4,60.069412055831044,
C,left,Distractor,0,30,30,30,1946.3737426945008,1948.375617785554,left,1,4,0.6703265963005833,M22N07,2022-11-02_09h11.25.266,t1_Paradigm,2021.1.4,60.069412055831044,
S,left,Pretarget,0,31,31,31,1949.8737426945008,1951.8759645731188,left,1,4,1.1221189523348585,M22N07,2022-11-02_09h11.25.266,t1_Paradigm,2021.1.4,60.069412055831044,
D,left,Distractor,0,32,32,32,1953.3738617122872,1955.3762125535286,left,1,4,0.821865069156047,M22N07,2022-11-02_09h11.25.266,t1_Paradigm,2021.1.4,60.069412055831044,
V,left,Distractor,0,33,33,33,1956.8737228047685,1958.8744577634498,left,1,4,0.8916370618971996,M22N07,2022-11-02_09h11.25.266,t1_Paradigm,2021.1.4,60.069412055831044,
R,left,Distractor,0,34,34,34,1960.3739197775722,1962.3740397577058,left,1,4,1.167903574416414,M22N07,2022-11-02_09h11.25.266,t1_Paradigm,2021.1.4,60.069412055831044,
S,right,Target,0,35,35,35,1963.8741010309896,1965.8761358816992,right,1,4,0.8657489360775799,M22N07,2022-11-02_09h11.25.266,t1_Paradigm,2021.1.4,60.069412055831044,
Y,left,Distractor,0,36,36,36,1967.3738280280377,1969.3868490835885,left,1,4,0.9391200128593482,M22N07,2022-11-02_09h11.25.266,t1_Paradigm,2021.1.4,60.069412055831044,
N,left,Pretarget,0,37,37,37,1970.8739829756669,1972.8746502450085,left,1,4,0.8435638342634775,M22N07,2022-11-02_09h11.25.266,t1_Paradigm,2021.1.4,60.069412055831044,
Z,left,Pretarget,0,38,38,38,1974.373981050856,1976.3758590290672,left,1,4,0.7821404075948521,M22N07,2022-11-02_09h11.25.266,t1_Paradigm,2021.1.4,60.069412055831044,
P,left,Pretarget,0,39,39,39,1977.8739451209549,1979.8750477193971,left,1,4,0.7550078885396942,M22N07,2022-11-02_09h11.25.266,t1_Paradigm,2021.1.4,60.069412055831044,
M,left,Distractor,0,40,40,40,1981.373779266025,1983.375711139117,left,1,4,0.7904376452788711,M22N07,2022-11-02_09h11.25.266,t1_Paradigm,2021.1.4,60.069412055831044,
N,right,Target,0,41,41,41,1984.87395121617,1986.875906507892,left,0,4,1.274278499011416,M22N07,2022-11-02_09h11.25.266,t1_Paradigm,2021.1.4,60.069412055831044,
Z,right,Target,0,42,42,42,1988.3740371912718,1990.3757002318162,right,1,4,0.9426263849600218,M22N07,2022-11-02_09h11.25.266,t1_Paradigm,2021.1.4,60.069412055831044,
P,right,Target,0,43,43,43,1991.87409750215,1993.8746727011749,left,0,4,0.899429677228909,M22N07,2022-11-02_09h11.25.266,t1_Paradigm,2021.1.4,60.069412055831044,
X,left,Pretarget,0,44,44,44,1995.3737686795066,1997.3746720595518,right,0,4,0.9674391806474887,M22N07,2022-11-02_09h11.25.266,t1_Paradigm,2021.1.4,60.069412055831044,
Z,left,Lure,0,45,45,45,1998.8740054318332,2000.8760492650326,left,1,4,0.9221190806129016,M22N07,2022-11-02_09h11.25.266,t1_Paradigm,2021.1.4,60.069412055831044,
R,left,Pretarget,0,46,46,46,2002.373772849969,2004.376311360742,left,1,4,1.229808525822591,M22N07,2022-11-02_09h11.25.266,t1_Paradigm,2021.1.4,60.069412055831044,
K,left,Distractor,0,47,47,47,2005.8738992461585,2007.890122873825,left,1,4,0.9002948817214929,M22N07,2022-11-02_09h11.25.266,t1_Paradigm,2021.1.4,60.069412055831044,
X,right,Target,0,48,48,48,2009.3737462233403,2011.3745969917509,right,1,4,0.8236314081004821,M22N07,2022-11-02_09h11.25.266,t1_Paradigm,2021.1.4,60.069412055831044,
B,left,Distractor,0,49,49,49,2012.8740256424062,2014.8757428985555,left,1,4,0.6982219838537276,M22N07,2022-11-02_09h11.25.266,t1_Paradigm,2021.1.4,60.069412055831044,
R,right,Target,0,50,50,50,2016.3740205095382,2018.3755282816128,right,1,4,0.6067040679627098,M22N07,2022-11-02_09h11.25.266,t1_Paradigm,2021.1.4,60.069412055831044,
Y,left,Pretarget,0,51,51,51,2019.8742126703146,2021.8755744771915,left,1,4,0.658360981149599,M22N07,2022-11-02_09h11.25.266,t1_Paradigm,2021.1.4,60.069412055831044,
W,left,Pretarget,0,52,52,52,2023.3740195471328,2025.3759318512748,left,1,4,0.6303536334889941,M22N07,2022-11-02_09h11.25.266,t1_Paradigm,2021.1.4,60.069412055831044,
Z,left,Distractor,0,53,53,53,2026.8739852212602,2028.8752568826894,left,1,4,1.1949635921046138,M22N07,2022-11-02_09h11.25.266,t1_Paradigm,2021.1.4,60.069412055831044,
Q,left,Distractor,0,54,54,54,2030.3742213319638,2032.3869834998623,left,1,4,1.027223306184169,M22N07,2022-11-02_09h11.25.266,t1_Paradigm,2021.1.4,60.069412055831044,
Y,right,Target,0,55,55,55,2033.8738780732383,2035.8747856236878,right,1,4,0.8992368748877198,M22N07,2022-11-02_09h11.25.266,t1_Paradigm,2021.1.4,60.069412055831044,
W,right,Target,0,56,56,56,2037.3738437473658,2039.3750984062208,left,0,4,0.9350063615129329,M22N07,2022-11-02_09h11.25.266,t1_Paradigm,2021.1.4,60.069412055831044,
H,left,Pretarget,0,57,57,57,2040.8739473665482,2042.8752045918372,left,1,4,0.826909368741326,M22N07,2022-11-02_09h11.25.266,t1_Paradigm,2021.1.4,60.069412055831044,
M,left,Distractor,0,58,58,58,2044.3738835268305,2046.3743846204598,left,1,4,1.0558607100974768,M22N07,2022-11-02_09h11.25.266,t1_Paradigm,2021.1.4,60.069412055831044,
R,left,Pretarget,0,59,59,59,2047.8738678075024,2049.875456421869,left,1,4,0.7548121989821084,M22N07,2022-11-02_09h11.25.266,t1_Paradigm,2021.1.4,60.069412055831044,
J,left,Distractor,0,60,60,60,2051.3738703739364,2053.3868478003424,left,1,4,0.6992636297945864,M22N07,2022-11-02_09h11.25.266,t1_Paradigm,2021.1.4,60.069412055831044,
H,right,Target,0,61,61,61,2054.874124770402,2056.8761256160215,right,1,4,1.1622391634737141,M22N07,2022-11-02_09h11.25.266,t1_Paradigm,2021.1.4,60.069412055831044,
Z,left,Distractor,0,62,62,62,2058.3741812316584,2060.376116312749,left,1,4,0.6700779742677696,M22N07,2022-11-02_09h11.25.266,t1_Paradigm,2021.1.4,60.069412055831044,
R,right,Target,0,63,63,63,2061.874070554739,2063.858987059444,right,1,4,0.7232384891249239,M22N07,2022-11-02_09h11.25.266,t1_Paradigm,2021.1.4,60.069412055831044,
J,left,Pretarget,0,0,0,0,2087.1145897159586,2089.1088011543616,left,1,4,0.5773708432679996,M22N07,2022-11-02_09h11.25.266,t1_Paradigm,2021.1.4,60.069412055831044,
G,left,Pretarget,0,1,1,1,2090.6074287609663,2092.6085769133642,left,1,4,0.40575012943008915,M22N07,2022-11-02_09h11.25.266,t1_Paradigm,2021.1.4,60.069412055831044,
Z,left,Distractor,0,2,2,2,2094.1076138640638,2096.108111749636,left,1,4,0.5541485867579468,M22N07,2022-11-02_09h11.25.266,t1_Paradigm,2021.1.4,60.069412055831044,
F,left,Distractor,0,3,3,3,2097.60760616482,2099.608949685993,left,1,4,0.7012859691749327,M22N07,2022-11-02_09h11.25.266,t1_Paradigm,2021.1.4,60.069412055831044,
J,right,Target,0,4,4,4,2101.107243657869,2103.107587879058,left,0,4,1.2346112610539421,M22N07,2022-11-02_09h11.25.266,t1_Paradigm,2021.1.4,60.069412055831044,
G,right,Target,0,5,5,5,2104.6075490619405,2106.607700801571,right,1,4,0.9664116500061937,M22N07,2022-11-02_09h11.25.266,t1_Paradigm,2021.1.4,60.069412055831044,
H,left,Distractor,0,6,6,6,2108.1076138640638,2110.1089160016854,left,1,4,1.0173287924844772,M22N07,2022-11-02_09h11.25.266,t1_Paradigm,2021.1.4,60.069412055831044,
P,left,Distractor,0,7,7,7,2111.607545533101,2113.6091800222057,left,1,4,0.717061435629148,M22N07,2022-11-02_09h11.25.266,t1_Paradigm,2021.1.4,60.069412055831044,
G,left,Lure,0,8,8,8,2115.107317442482,2117.109032453038,None,0,4,,M22N07,2022-11-02_09h11.25.266,t1_Paradigm,2021.1.4,60.069412055831044,
S,left,Distractor,0,9,9,9,2118.6077418642817,2120.6077389770653,left,1,4,0.7586775491945446,M22N07,2022-11-02_09h11.25.266,t1_Paradigm,2021.1.4,60.069412055831044,
R,left,Pretarget,0,10,10,10,2122.1074496131623,2124.107610014442,left,1,4,1.1628076256019995,M22N07,2022-11-02_09h11.25.266,t1_Paradigm,2021.1.4,60.069412055831044,
T,left,Pretarget,0,11,11,11,2125.6076947062975,2127.6077232577372,left,1,4,1.006589605647605,M22N07,2022-11-02_09h11.25.266,t1_Paradigm,2021.1.4,60.069412055831044,
X,left,Distractor,0,12,12,12,2129.1074701445177,2131.10910591681,left,1,4,0.8332503524143249,M22N07,2022-11-02_09h11.25.266,t1_Paradigm,2021.1.4,60.069412055831044,
F,left,Pretarget,0,13,13,13,2132.607576971757,2134.608947761182,left,1,4,1.1574486186727881,M22N07,2022-11-02_09h11.25.266,t1_Paradigm,2021.1.4,60.069412055831044,
R,right,Target,0,14,14,14,2136.107576971757,2138.1090087136254,right,1,4,1.1932476192014292,M22N07,2022-11-02_09h11.25.266,t1_Paradigm,2021.1.4,60.069412055831044,
T,right,Target,0,15,15,15,2139.607263226877,2141.6093429899192,left,0,4,0.8131206326652318,M22N07,2022-11-02_09h11.25.266,t1_Paradigm,2021.1.4,60.069412055831044,
C,left,Distractor,0,16,16,16,2143.1075019039563,2145.1077332026325,left,1,4,0.7386216140002944,M22N07,2022-11-02_09h11.25.266,t1_Paradigm,2021.1.4,60.069412055831044,
F,right,Target,0,17,17,17,2146.6076568515855,2148.609203119995,right,1,4,1.3490979993948713,M22N07,2022-11-02_09h11.25.266,t1_Paradigm,2021.1.4,60.069412055831044,
M,left,Distractor,0,18,18,18,2150.107536871452,2152.1091341474676,left,1,4,0.7771779126487672,M22N07,2022-11-02_09h11.25.266,t1_Paradigm,2021.1.4,60.069412055831044,
N,left,Distractor,0,19,19,19,2153.6076555683976,2155.6088017959846,left,1,4,0.8457077578641474,M22N07,2022-11-02_09h11.25.266,t1_Paradigm,2021.1.4,60.069412055831044,
R,left,Lure,0,20,20,20,2157.107559006836,2159.109216914512,right,0,4,1.0892424632329494,M22N07,2022-11-02_09h11.25.266,t1_Paradigm,2021.1.4,60.069412055831044,
F,right,Target,0,21,21,21,2160.6076847614604,2162.607784531021,right,1,4,1.1108096992829815,M22N07,2022-11-02_09h11.25.266,t1_Paradigm,2021.1.4,60.069412055831044,
P,left,Distractor,0,22,22,22,2164.107789022266,2166.1100875727134,left,1,4,1.0963684507878497,M22N07,2022-11-02_09h11.25.266,t1_Paradigm,2021.1.4,60.069412055831044,
L,left,Pretarget,0,23,23,23,2167.6068278977764,2169.6092483531684,left,1,4,0.8132646729936823,M22N07,2022-11-02_09h11.25.266,t1_Paradigm,2021.1.4,60.069412055831044,
T,left,Distractor,0,24,24,24,2171.1076809117803,2173.1093295162427,left,1,4,1.0411730851628818,M22N07,2022-11-02_09h11.25.266,t1_Paradigm,2021.1.4,60.069412055831044,
F,left,Distractor,0,25,25,25,2174.6074999791454,2176.609106237651,right,0,4,1.3012762809521519,M22N07,2022-11-02_09h11.25.266,t1_Paradigm,2021.1.4,60.069412055831044,
V,left,Distractor,0,26,26,26,2178.10766487167,2180.109150829201,left,1,4,0.729432545194868,M22N07,2022-11-02_09h11.25.266,t1_Paradigm,2021.1.4,60.069412055831044,
L,right,Target,0,27,27,27,2181.607785172644,2183.607909964863,right,1,4,1.0864450648077764,M22N07,2022-11-02_09h11.25.266,t1_Paradigm,2021.1.4,60.069412055831044,
S,left,Pretarget,0,28,28,28,2185.107647869154,2187.108415549679,left,1,4,0.9300890996819362,M22N07,2022-11-02_09h11.25.266,t1_Paradigm,2021.1.4,60.069412055831044,
W,left,Distractor,0,29,29,29,2188.6077319193864,2190.6088050039834,None,0,4,,M22N07,2022-11-02_09h11.25.266,t1_Paradigm,2021.1.4,60.069412055831044,
Q,left,Distractor,0,30,30,30,2192.1076738541597,2194.1097148000845,left,1,4,0.8408658846165054,M22N07,2022-11-02_09h11.25.266,t1_Paradigm,2021.1.4,60.069412055831044,
L,right,Target,0,31,31,31,2195.606746734702,2197.6086494147894,left,0,4,0.5579010144574568,M22N07,2022-11-02_09h11.25.266,t1_Paradigm,2021.1.4,60.069412055831044,
S,right,Target,0,32,32,32,2199.1074184952886,2201.1096840030514,left,0,4,0.8811724820989184,M22N07,2022-11-02_09h11.25.266,t1_Paradigm,2021.1.4,60.069412055831044,
Z,left,Pretarget,0,33,33,33,2202.607664230047,2204.608331820229,left,1,4,0.8379619797924533,M22N07,2022-11-02_09h11.25.266,t1_Paradigm,2021.1.4,60.069412055831044,
F,left,Distractor,0,34,34,34,2206.1075269265566,2208.126072523184,left,1,4,1.0162332517211325,M22N07,2022-11-02_09h11.25.266,t1_Paradigm,2021.1.4,60.069412055831044,
V,left,Distractor,0,35,35,35,2209.6068246897194,2211.6092230097856,left,1,4,1.1816101850708947,M22N07,2022-11-02_09h11.25.266,t1_Paradigm,2021.1.4,60.069412055831044,
M,left,Distractor,0,36,36,36,2213.1076491523418,2215.109389827121,right,0,4,0.9612358213053085,M22N07,2022-11-02_09h11.25.266,t1_Paradigm,2021.1.4,60.069412055831044,
Z,right,Target,0,37,37,37,2216.607729673793,2218.607990807097,right,1,4,0.9988123889197595,M22N07,2022-11-02_09h11.25.266,t1_Paradigm,2021.1.4,60.069412055831044,
H,left,Pretarget,0,38,38,38,2220.1076331122313,2222.109699401597,left,1,4,0.6811831968370825,M22N07,2022-11-02_09h11.25.266,t1_Paradigm,2021.1.4,60.069412055831044,
L,left,Distractor,0,39,39,39,2223.607799608726,2225.6087363522383,left,1,4,0.7496408615261316,M22N07,2022-11-02_09h11.25.266,t1_Paradigm,2021.1.4,60.069412055831044,
G,left,Distractor,0,40,40,40,2227.1077117088716,2229.1096214465797,left,1,4,0.7528678145608865,M22N07,2022-11-02_09h11.25.266,t1_Paradigm,2021.1.4,60.069412055831044,
K,left,Distractor,0,41,41,41,2230.607764962071,2232.609330478648,left,1,4,1.0133556526270695,M22N07,2022-11-02_09h11.25.266,t1_Paradigm,2021.1.4,60.069412055831044,
H,right,Target,0,42,42,42,2234.1076000695466,2236.1084104168694,right,1,4,0.8262789917644113,M22N07,2022-11-02_09h11.25.266,t1_Paradigm,2021.1.4,60.069412055831044,
B,left,Distractor,0,43,43,43,2237.607744751498,2239.609585837461,left,1,4,0.6369207829120569,M22N07,2022-11-02_09h11.25.266,t1_Paradigm,2021.1.4,60.069412055831044,
Z,left,Distractor,0,44,44,44,2241.1068150656647,2243.108165323676,right,0,4,1.0424781100009568,M22N07,2022-11-02_09h11.25.266,t1_Paradigm,2021.1.4,60.069412055831044,
T,left,Pretarget,0,45,45,45,2244.6077508467715,2246.6094058672315,left,1,4,0.8213954141829163,M22N07,2022-11-02_09h11.25.266,t1_Paradigm,2021.1.4,60.069412055831044,
H,right,Target,0,46,46,46,2248.1078644108493,2250.108374166186,left,0,4,0.7781082400470041,M22N07,2022-11-02_09h11.25.266,t1_Paradigm,2021.1.4,60.069412055831044,
F,left,Distractor,0,47,47,47,2251.6077659244766,2253.6086487731664,left,1,4,0.7821070441277698,M22N07,2022-11-02_09h11.25.266,t1_Paradigm,2021.1.4,60.069412055831044,
R,left,Distractor,0,48,48,48,2255.107783247833,2257.110002560017,left,1,4,0.7525248766760342,M22N07,2022-11-02_09h11.25.266,t1_Paradigm,2021.1.4,60.069412055831044,
T,right,Target,0,49,49,49,2258.6076934231096,2260.6097622789093,right,1,4,0.564625357161276,M22N07,2022-11-02_09h11.25.266,t1_Paradigm,2021.1.4,60.069412055831044,
H,right,Target,0,50,50,50,2262.1077553380164,2264.10922204738,right,1,4,0.5533100088359788,M22N07,2022-11-02_09h11.25.266,t1_Paradigm,2021.1.4,60.069412055831044,
Y,left,Pretarget,0,51,51,51,2265.6069809205947,2267.6093234209693,left,1,4,0.9571921048918739,M22N07,2022-11-02_09h11.25.266,t1_Paradigm,2021.1.4,60.069412055831044,
H,left,Distractor,0,52,52,52,2269.107584671001,2271.1095393211,left,1,4,1.169031516299583,M22N07,2022-11-02_09h11.25.266,t1_Paradigm,2021.1.4,60.069412055831044,
S,left,Distractor,0,53,53,53,2272.6075975031126,2274.6096933063236,left,1,4,1.1249927017488517,M22N07,2022-11-02_09h11.25.266,t1_Paradigm,2021.1.4,60.069412055831044,
Q,left,Distractor,0,54,54,54,2276.107587879058,2278.1084633492865,left,1,4,0.9541156082414091,M22N07,2022-11-02_09h11.25.266,t1_Paradigm,2021.1.4,60.069412055831044,
Y,right,Target,0,55,55,55,2279.6078345762216,2281.6093959223363,right,1,4,0.5892812803504057,M22N07,2022-11-02_09h11.25.266,t1_Paradigm,2021.1.4,60.069412055831044,
R,left,Distractor,0,56,56,56,2283.107828801789,2285.1090982175665,left,1,4,1.361610582913272,M22N07,2022-11-02_09h11.25.266,t1_Paradigm,2021.1.4,60.069412055831044,
H,left,Pretarget,0,57,57,57,2286.6079337042174,2288.60882232734,left,1,4,1.301737595058512,M22N07,2022-11-02_09h11.25.266,t1_Paradigm,2021.1.4,60.069412055831044,
J,left,Distractor,0,58,58,58,2290.1078948871,2292.109537396289,left,1,4,1.3370659782085568,M22N07,2022-11-02_09h11.25.266,t1_Paradigm,2021.1.4,60.069412055831044,
V,left,Distractor,0,59,59,59,2293.6076077687903,2295.6084469883353,left,1,4,0.9419170905021019,M22N07,2022-11-02_09h11.25.266,t1_Paradigm,2021.1.4,60.069412055831044,
Y,left,Lure,0,60,60,60,2297.1079349874635,2299.1097443139297,right,0,4,1.2168221168685704,M22N07,2022-11-02_09h11.25.266,t1_Paradigm,2021.1.4,60.069412055831044,
H,right,Target,0,61,61,61,2300.606990223867,2302.6092634308734,right,1,4,1.3013391582644545,M22N07,2022-11-02_09h11.25.266,t1_Paradigm,2021.1.4,60.069412055831044,
L,left,Distractor,0,62,62,62,2304.1075529115624,2306.10986204847,left,1,4,0.9206526920897886,M22N07,2022-11-02_09h11.25.266,t1_Paradigm,2021.1.4,60.069412055831044,
P,left,Distractor,0,63,63,63,2307.6068638276774,2309.608889375115,left,1,4,0.6696946152369492,M22N07,2022-11-02_09h11.25.266,t1_Paradigm,2021.1.4,60.069412055831044,
