Letter,CorrAnswer,Stimulus,nback_run.thisRepN,nback_run.thisTrialN,nback_run.thisN,nback_run.thisIndex,fixcross.started,nback_trial.started,trial_resp.keys,trial_resp.corr,currentlevel,trial_resp.rt,Participant,date,expName,psychopyVersion,frameRate,
H,left,Distractor,0,0,0,0,21.141989556609587,23.092568716601818,None,0,1,,M23B10,2023-01-11_16h21.03.649,t1_Paradigm,2021.1.4,60.058282131774995,
Q,left,Pretarget,0,1,1,1,24.589884084592086,26.594450701866663,left,1,1,0.5026349076906627,M23B10,2023-01-11_16h21.03.649,t1_Paradigm,2021.1.4,60.058282131774995,
Q,right,Target,0,2,2,2,28.089935252520263,30.089942951769444,right,1,1,0.9271067151248644,M23B10,2023-01-11_16h21.03.649,t1_Paradigm,2021.1.4,60.058282131774995,
T,left,Distractor,0,3,3,3,31.59004224000637,33.59284508757355,left,1,1,0.9923001090401158,M23B10,2023-01-11_16h21.03.649,t1_Paradigm,2021.1.4,60.058282131774995,
Q,left,Lure,0,4,4,4,35.08973956326645,37.08945180382125,left,1,1,1.0316962055849217,M23B10,2023-01-11_16h21.03.649,t1_Paradigm,2021.1.4,60.058282131774995,
L,left,Distractor,0,5,5,5,38.59009324753333,40.59170110744071,left,1,1,0.9372722906909985,M23B10,2023-01-11_16h21.03.649,t1_Paradigm,2021.1.4,60.058282131774995,
V,left,Pretarget,0,6,6,6,42.089607072016406,44.091471252766496,left,1,1,0.6857233781611285,M23B10,2023-01-11_16h21.03.649,t1_Paradigm,2021.1.4,60.058282131774995,
V,right,Target,0,7,7,7,45.589987703656334,47.59010158838646,right,1,1,0.658973619484641,M23B10,2023-01-11_16h21.03.649,t1_Paradigm,2021.1.4,60.058282131774995,
K,left,Distractor,0,8,8,8,49.089966691121845,51.09197330798543,left,1,1,0.5489908048502912,M23B10,2023-01-11_16h21.03.649,t1_Paradigm,2021.1.4,60.058282131774995,
G,left,Pretarget,0,9,9,9,52.59006758336909,54.591958711491316,left,1,1,0.5850890562551285,M23B10,2023-01-11_16h21.03.649,t1_Paradigm,2021.1.4,60.058282131774995,
G,right,Target,0,10,10,10,56.090006470577464,58.08979666603227,right,1,1,0.9274859031556844,M23B10,2023-01-11_16h21.03.649,t1_Paradigm,2021.1.4,60.058282131774995,
G,right,Target,0,11,11,11,59.58997038034613,61.58985874123027,right,1,1,1.1071613605472521,M23B10,2023-01-11_16h21.03.649,t1_Paradigm,2021.1.4,60.058282131774995,
P,left,Pretarget,0,12,12,12,63.08969304696802,65.0919319245204,left,1,1,0.8530235754224123,M23B10,2023-01-11_16h21.03.649,t1_Paradigm,2021.1.4,60.058282131774995,
P,right,Target,0,13,13,13,66.5899145607882,68.58947602437638,right,1,1,0.8915239926245704,M23B10,2023-01-11_16h21.03.649,t1_Paradigm,2021.1.4,60.058282131774995,
G,left,Lure,0,14,14,14,70.08992338284406,72.09176093702354,left,1,1,0.8134080502713914,M23B10,2023-01-11_16h21.03.649,t1_Paradigm,2021.1.4,60.058282131774995,
Y,left,Distractor,0,15,15,15,73.58996556831517,75.59131518256618,left,1,1,0.7376990857464989,M23B10,2023-01-11_16h21.03.649,t1_Paradigm,2021.1.4,60.058282131774995,
B,left,Distractor,0,16,16,16,77.0899541798417,79.09197876162034,left,1,1,0.9488984780182363,M23B10,2023-01-11_16h21.03.649,t1_Paradigm,2021.1.4,60.058282131774995,
T,left,Pretarget,0,17,17,17,80.58983500187787,82.59195935309617,left,1,1,0.7930011898542944,M23B10,2023-01-11_16h21.03.649,t1_Paradigm,2021.1.4,60.058282131774995,
T,right,Target,0,18,18,18,84.0899779191941,86.09003887158451,left,0,1,0.8789735745713187,M23B10,2023-01-11_16h21.03.649,t1_Paradigm,2021.1.4,60.058282131774995,
S,left,Distractor,0,19,19,19,87.59002170867461,89.59282968907519,left,1,1,0.6401896966717686,M23B10,2023-01-11_16h21.03.649,t1_Paradigm,2021.1.4,60.058282131774995,
T,left,Lure,0,20,20,20,91.0898236134044,93.09244552861219,left,1,1,0.6127120381288478,M23B10,2023-01-11_16h21.03.649,t1_Paradigm,2021.1.4,60.058282131774995,
J,left,Distractor,0,21,21,21,94.58998674125087,96.59319540341949,left,1,1,0.7119864801179574,M23B10,2023-01-11_16h21.03.649,t1_Paradigm,2021.1.4,60.058282131774995,
P,left,Distractor,0,22,22,22,98.08991632519883,100.09075746819144,left,1,1,0.6382263880868777,M23B10,2023-01-11_16h21.03.649,t1_Paradigm,2021.1.4,60.058282131774995,
F,left,Distractor,0,23,23,23,101.59000759338414,103.59200041575878,left,1,1,0.608957691661999,M23B10,2023-01-11_16h21.03.649,t1_Paradigm,2021.1.4,60.058282131774995,
L,left,Distractor,0,24,24,24,105.09004111719878,107.0919293581037,left,1,1,0.8530425027438469,M23B10,2023-01-11_16h21.03.649,t1_Paradigm,2021.1.4,60.058282131774995,
W,left,Pretarget,0,25,25,25,108.58993605452542,110.59246910756337,left,1,1,0.6484878834662595,M23B10,2023-01-11_16h21.03.649,t1_Paradigm,2021.1.4,60.058282131774995,
W,right,Target,0,26,26,26,112.08990220990836,114.08976522743069,right,1,1,0.7675028800003929,M23B10,2023-01-11_16h21.03.649,t1_Paradigm,2021.1.4,60.058282131774995,
V,left,Distractor,0,27,27,27,115.59004480642307,117.5921842353373,left,1,1,0.4808582224932252,M23B10,2023-01-11_16h21.03.649,t1_Paradigm,2021.1.4,60.058282131774995,
W,left,Lure,0,28,28,28,119.08949671610935,121.0917445761188,left,1,1,0.9976138743040792,M23B10,2023-01-11_16h21.03.649,t1_Paradigm,2021.1.4,60.058282131774995,
R,left,Pretarget,0,29,29,29,122.59007560341979,124.59220604987695,left,1,1,0.7449684603452624,M23B10,2023-01-11_16h21.03.649,t1_Paradigm,2021.1.4,60.058282131774995,
R,right,Target,0,30,30,30,126.08992306204254,128.0899092675536,right,1,1,0.8631702236662022,M23B10,2023-01-11_16h21.03.649,t1_Paradigm,2021.1.4,60.058282131774995,
G,left,Distractor,0,31,31,31,129.58943592411924,131.5904294480888,left,1,1,0.5944000151421278,M23B10,2023-01-11_16h21.03.649,t1_Paradigm,2021.1.4,60.058282131774995,
R,left,Lure,0,32,32,32,133.08962599933784,135.09187642576399,left,1,1,0.6451938879508816,M23B10,2023-01-11_16h21.03.649,t1_Paradigm,2021.1.4,60.058282131774995,
S,left,Distractor,0,33,33,33,136.5900425608088,138.5927940800466,left,1,1,0.7123647057424023,M23B10,2023-01-11_16h21.03.649,t1_Paradigm,2021.1.4,60.058282131774995,
R,left,Lure,0,34,34,34,140.0899012475029,142.09240125792894,left,1,1,0.8766573837247051,M23B10,2023-01-11_16h21.03.649,t1_Paradigm,2021.1.4,60.058282131774995,
P,left,Pretarget,0,35,35,35,143.59021868113723,145.59024562851027,left,1,1,0.7547596599106328,M23B10,2023-01-11_16h21.03.649,t1_Paradigm,2021.1.4,60.058282131774995,
P,right,Target,0,36,36,36,147.0899952425052,149.0898948314616,left,0,1,0.9510857064396987,M23B10,2023-01-11_16h21.03.649,t1_Paradigm,2021.1.4,60.058282131774995,
Y,left,Pretarget,0,37,37,37,150.5903133177444,152.59102421510124,left,1,1,0.6179568309498791,M23B10,2023-01-11_16h21.03.649,t1_Paradigm,2021.1.4,60.058282131774995,
Y,right,Target,0,38,38,38,154.0899567462584,156.09003117233533,left,0,1,0.95908394331218,M23B10,2023-01-11_16h21.03.649,t1_Paradigm,2021.1.4,60.058282131774995,
J,left,Distractor,0,39,39,39,157.59002844551833,159.59181531297236,left,1,1,0.8813850436299617,M23B10,2023-01-11_16h21.03.649,t1_Paradigm,2021.1.4,60.058282131774995,
Y,left,Lure,0,40,40,40,161.08990060589804,163.0894049667213,left,1,1,0.7756993725433858,M23B10,2023-01-11_16h21.03.649,t1_Paradigm,2021.1.4,60.058282131774995,
T,left,Distractor,0,41,41,41,164.59013944302933,166.59225641579997,left,1,1,0.7768160845025704,M23B10,2023-01-11_16h21.03.649,t1_Paradigm,2021.1.4,60.058282131774995,
V,left,Distractor,0,42,42,42,168.08999877132737,170.09229154362492,left,1,1,0.7006759620126104,M23B10,2023-01-11_16h21.03.649,t1_Paradigm,2021.1.4,60.058282131774995,
N,left,Pretarget,0,43,43,43,171.5902629518214,173.5912282452091,left,1,1,0.7218071934730688,M23B10,2023-01-11_16h21.03.649,t1_Paradigm,2021.1.4,60.058282131774995,
N,right,Target,0,44,44,44,175.08991696680368,177.0897957036259,right,1,1,0.7592345277971617,M23B10,2023-01-11_16h21.03.649,t1_Paradigm,2021.1.4,60.058282131774995,
N,right,Target,0,45,45,45,178.58965631513274,180.5896438038526,right,1,1,0.6674716659608748,M23B10,2023-01-11_16h21.03.649,t1_Paradigm,2021.1.4,60.058282131774995,
X,left,Distractor,0,46,46,46,182.0900927663306,184.09197330798543,left,1,1,0.5731581069721869,M23B10,2023-01-11_16h21.03.649,t1_Paradigm,2021.1.4,60.058282131774995,
Z,left,Distractor,0,47,47,47,185.58980484648418,187.59184610997,left,1,1,0.8331694569496904,M23B10,2023-01-11_16h21.03.649,t1_Paradigm,2021.1.4,60.058282131774995,
H,left,Pretarget,0,48,48,48,189.08995482144564,191.09002603950285,left,1,1,0.8709512775458279,M23B10,2023-01-11_16h21.03.649,t1_Paradigm,2021.1.4,60.058282131774995,
H,right,Target,0,49,49,49,192.5902963152348,194.59009100191906,right,1,1,0.8271271502162563,M23B10,2023-01-11_16h21.03.649,t1_Paradigm,2021.1.4,60.058282131774995,
K,left,Distractor,0,50,50,50,196.08956023491646,198.09148633046334,left,1,1,0.6854275986652283,M23B10,2023-01-11_16h21.03.649,t1_Paradigm,2021.1.4,60.058282131774995,
V,left,Pretarget,0,51,51,51,199.58956937777475,201.5916918041803,left,1,1,0.8012964894314791,M23B10,2023-01-11_16h21.03.649,t1_Paradigm,2021.1.4,60.058282131774995,
V,right,Target,0,52,52,52,203.08949799931725,205.0899766359862,left,0,1,0.8709730920854781,M23B10,2023-01-11_16h21.03.649,t1_Paradigm,2021.1.4,60.058282131774995,
R,left,Distractor,0,53,53,53,206.5900781698365,208.59222433559444,left,1,1,0.8568911650154405,M23B10,2023-01-11_16h21.03.649,t1_Paradigm,2021.1.4,60.058282131774995,
V,left,Lure,0,54,54,54,210.08963145297275,212.09225657620118,left,1,1,0.9087417597984313,M23B10,2023-01-11_16h21.03.649,t1_Paradigm,2021.1.4,60.058282131774995,
Y,left,Distractor,0,55,55,55,213.59015548313255,215.59030754330706,left,1,1,1.234704879752826,M23B10,2023-01-11_16h21.03.649,t1_Paradigm,2021.1.4,60.058282131774995,
Q,left,Distractor,0,56,56,56,217.090038550783,219.08932733262372,left,1,1,1.0638755390673396,M23B10,2023-01-11_16h21.03.649,t1_Paradigm,2021.1.4,60.058282131774995,
Z,left,Pretarget,0,57,57,57,220.5904111623713,222.59075506217596,left,1,1,1.0182395217225348,M23B10,2023-01-11_16h21.03.649,t1_Paradigm,2021.1.4,60.058282131774995,
Z,right,Target,0,58,58,58,224.08987847055687,226.08999460090126,left,0,1,0.8790823264689607,M23B10,2023-01-11_16h21.03.649,t1_Paradigm,2021.1.4,60.058282131774995,
B,left,Distractor,0,59,59,59,227.59031973378478,229.59190128792397,left,1,1,0.6254077795138073,M23B10,2023-01-11_16h21.03.649,t1_Paradigm,2021.1.4,60.058282131774995,
S,left,Pretarget,0,60,60,60,231.0899872224536,233.09135191440146,left,1,1,0.6298152789686355,M23B10,2023-01-11_16h21.03.649,t1_Paradigm,2021.1.4,60.058282131774995,
S,right,Target,0,61,61,61,234.58989146303975,236.59022926760554,right,1,1,1.0988744018250145,M23B10,2023-01-11_16h21.03.649,t1_Paradigm,2021.1.4,60.058282131774995,
T,left,Distractor,0,62,62,62,238.0900953327464,240.09228833560428,left,1,1,1.1166914272380382,M23B10,2023-01-11_16h21.03.649,t1_Paradigm,2021.1.4,60.058282131774995,
D,left,Distractor,0,63,63,63,241.59003133273654,243.5898420595231,left,1,1,0.9472809940498337,M23B10,2023-01-11_16h21.03.649,t1_Paradigm,2021.1.4,60.058282131774995,
R,left,Distractor,0,0,0,0,267.3228170141856,269.3253465384014,None,0,1,,M23B10,2023-01-11_16h21.03.649,t1_Paradigm,2021.1.4,60.058282131774995,
V,left,Distractor,0,1,1,1,270.8225367935893,272.82511251330106,left,1,1,0.959902309357858,M23B10,2023-01-11_16h21.03.649,t1_Paradigm,2021.1.4,60.058282131774995,
N,left,Pretarget,0,2,2,2,274.3232728739076,276.3256038216505,left,1,1,0.5477066342182297,M23B10,2023-01-11_16h21.03.649,t1_Paradigm,2021.1.4,60.058282131774995,
N,right,Target,0,3,3,3,277.82320823229384,279.823239350093,right,1,1,0.6819398387069668,M23B10,2023-01-11_16h21.03.649,t1_Paradigm,2021.1.4,60.058282131774995,
S,left,Distractor,0,4,4,4,281.3233700769315,283.325728292848,left,1,1,0.49147484575041744,M23B10,2023-01-11_16h21.03.649,t1_Paradigm,2021.1.4,60.058282131774995,
N,left,Lure,0,5,5,5,284.8229130944019,286.8246563327766,left,1,1,0.6404200325487182,M23B10,2023-01-11_16h21.03.649,t1_Paradigm,2021.1.4,60.058282131774995,
Z,left,Distractor,0,6,6,6,288.3232873100005,290.32400847302324,left,1,1,0.6609632338386291,M23B10,2023-01-11_16h21.03.649,t1_Paradigm,2021.1.4,60.058282131774995,
L,left,Pretarget,0,7,7,7,291.8232656558621,293.82248482365594,left,1,1,0.6185310666314763,M23B10,2023-01-11_16h21.03.649,t1_Paradigm,2021.1.4,60.058282131774995,
L,right,Target,0,8,8,8,295.32338130500284,297.3229462974141,right,1,1,0.7180643958799919,M23B10,2023-01-11_16h21.03.649,t1_Paradigm,2021.1.4,60.058282131774995,
H,left,Distractor,0,9,9,9,298.8233673501136,300.82503808722413,left,1,1,0.6880870477134522,M23B10,2023-01-11_16h21.03.649,t1_Paradigm,2021.1.4,60.058282131774995,
L,left,Lure,0,10,10,10,302.3233209942164,304.32417625249946,left,1,1,0.7409693419094765,M23B10,2023-01-11_16h21.03.649,t1_Paradigm,2021.1.4,60.058282131774995,
X,left,Pretarget,0,11,11,11,305.8232999816819,307.8232582774144,left,1,1,0.7139231621331419,M23B10,2023-01-11_16h21.03.649,t1_Paradigm,2021.1.4,60.058282131774995,
X,right,Target,0,12,12,12,309.3229196708435,311.32280706932215,right,1,1,0.6541490773570331,M23B10,2023-01-11_16h21.03.649,t1_Paradigm,2021.1.4,60.058282131774995,
X,right,Target,0,13,13,13,312.82270008183605,314.8234202824533,right,1,1,0.7376214516480104,M23B10,2023-01-11_16h21.03.649,t1_Paradigm,2021.1.4,60.058282131774995,
R,left,Distractor,0,14,14,14,316.3231945982061,318.32486565611816,left,1,1,0.6923354293476223,M23B10,2023-01-11_16h21.03.649,t1_Paradigm,2021.1.4,60.058282131774995,
T,left,Distractor,0,15,15,15,319.8232884328081,321.8250948691875,left,1,1,0.5839489257459718,M23B10,2023-01-11_16h21.03.649,t1_Paradigm,2021.1.4,60.058282131774995,
V,left,Pretarget,0,16,16,16,323.3232776859386,325.3255816863084,left,1,1,0.7314309343646528,M23B10,2023-01-11_16h21.03.649,t1_Paradigm,2021.1.4,60.058282131774995,
V,right,Target,0,17,17,17,326.8232765631319,328.823248332551,left,0,1,0.8979307304953181,M23B10,2023-01-11_16h21.03.649,t1_Paradigm,2021.1.4,60.058282131774995,
N,left,Distractor,0,18,18,18,330.323305595718,332.3255999720259,left,1,1,0.8513614999674246,M23B10,2023-01-11_16h21.03.649,t1_Paradigm,2021.1.4,60.058282131774995,
B,left,Distractor,0,19,19,19,333.8232727135073,335.82537492938263,left,1,1,0.8557410896428337,M23B10,2023-01-11_16h21.03.649,t1_Paradigm,2021.1.4,60.058282131774995,
V,left,Lure,0,20,20,20,337.3232568338053,339.3257773755631,left,1,1,0.7474521098665718,M23B10,2023-01-11_16h21.03.649,t1_Paradigm,2021.1.4,60.058282131774995,
P,left,Distractor,0,21,21,21,340.82333655311595,342.82491040800505,left,1,1,0.6561585814388309,M23B10,2023-01-11_16h21.03.649,t1_Paradigm,2021.1.4,60.058282131774995,
K,left,Pretarget,0,22,22,22,344.3232183375585,346.32488522504354,left,1,1,0.5321281655542407,M23B10,2023-01-11_16h21.03.649,t1_Paradigm,2021.1.4,60.058282131774995,
K,right,Target,0,23,23,23,347.8232409541033,349.8229846332606,left,0,1,0.585964525066629,M23B10,2023-01-11_16h21.03.649,t1_Paradigm,2021.1.4,60.058282131774995,
J,left,Pretarget,0,24,24,24,351.32337488896155,353.3247132751412,left,1,1,0.6843015834465405,M23B10,2023-01-11_16h21.03.649,t1_Paradigm,2021.1.4,60.058282131774995,
J,right,Target,0,25,25,25,354.82333911953265,356.823224914001,left,0,1,0.6738703837791036,M23B10,2023-01-11_16h21.03.649,t1_Paradigm,2021.1.4,60.058282131774995,
H,left,Distractor,0,26,26,26,358.32331554058146,360.3244832600667,left,1,1,1.2045597521100717,M23B10,2023-01-11_16h21.03.649,t1_Paradigm,2021.1.4,60.058282131774995,
J,left,Lure,0,27,27,27,361.822930417713,363.82503969123445,left,1,1,1.224106542212212,M23B10,2023-01-11_16h21.03.649,t1_Paradigm,2021.1.4,60.058282131774995,
V,left,Distractor,0,28,28,28,365.32336301928626,367.3232831395735,left,1,1,0.5099017158745482,M23B10,2023-01-11_16h21.03.649,t1_Paradigm,2021.1.4,60.058282131774995,
Z,left,Pretarget,0,29,29,29,368.8232431997176,370.82507914988673,left,1,1,0.5120738665982572,M23B10,2023-01-11_16h21.03.649,t1_Paradigm,2021.1.4,60.058282131774995,
Z,right,Target,0,30,30,30,372.323251059368,374.3232286032244,right,1,1,0.6617491988772599,M23B10,2023-01-11_16h21.03.649,t1_Paradigm,2021.1.4,60.058282131774995,
T,left,Distractor,0,31,31,31,375.8234215656612,377.82448374127034,left,1,1,0.6164298131616306,M23B10,2023-01-11_16h21.03.649,t1_Paradigm,2021.1.4,60.058282131774995,
Z,left,Lure,0,32,32,32,379.32323886889026,381.32332227742427,left,1,1,0.5258292171747598,M23B10,2023-01-11_16h21.03.649,t1_Paradigm,2021.1.4,60.058282131774995,
F,left,Distractor,0,33,33,33,382.8230770242526,384.82304462324464,left,1,1,0.6740218023496709,M23B10,2023-01-11_16h21.03.649,t1_Paradigm,2021.1.4,60.058282131774995,
Y,left,Pretarget,0,34,34,34,386.32325843781564,388.32487463857615,left,1,1,0.772270640163697,M23B10,2023-01-11_16h21.03.649,t1_Paradigm,2021.1.4,60.058282131774995,
Y,right,Target,0,35,35,35,389.8232210643755,391.83988031516856,left,0,1,0.7292866934194535,M23B10,2023-01-11_16h21.03.649,t1_Paradigm,2021.1.4,60.058282131774995,
Y,right,Target,0,36,36,36,393.32322282878704,395.3232853851878,left,0,1,0.9098498101011501,M23B10,2023-01-11_16h21.03.649,t1_Paradigm,2021.1.4,60.058282131774995,
W,left,Distractor,0,37,37,37,396.82326886388273,398.82518886418984,left,1,1,0.8477781409974341,M23B10,2023-01-11_16h21.03.649,t1_Paradigm,2021.1.4,60.058282131774995,
Q,left,Distractor,0,38,38,38,400.32327062829336,402.3232847435838,left,1,1,0.5177219076040274,M23B10,2023-01-11_16h21.03.649,t1_Paradigm,2021.1.4,60.058282131774995,
P,left,Pretarget,0,39,39,39,403.82331024734776,405.82536049329065,left,1,1,0.679667918542691,M23B10,2023-01-11_16h21.03.649,t1_Paradigm,2021.1.4,60.058282131774995,
P,right,Target,0,40,40,40,407.3230864879133,409.323526949137,right,1,1,0.5735850945093262,M23B10,2023-01-11_16h21.03.649,t1_Paradigm,2021.1.4,60.058282131774995,
J,left,Distractor,0,41,41,41,410.8233503476049,412.823280733558,left,1,1,0.7536865770325676,M23B10,2023-01-11_16h21.03.649,t1_Paradigm,2021.1.4,60.058282131774995,
P,left,Lure,0,42,42,42,414.3232436809212,416.32614116509467,left,1,1,0.7709835823134199,M23B10,2023-01-11_16h21.03.649,t1_Paradigm,2021.1.4,60.058282131774995,
L,left,Distractor,0,43,43,43,417.82330511451437,419.82329966087946,left,1,1,0.7618994304802982,M23B10,2023-01-11_16h21.03.649,t1_Paradigm,2021.1.4,60.058282131774995,
Z,left,Distractor,0,44,44,44,421.3232260368077,423.3252281624418,left,1,1,0.9878592461727749,M23B10,2023-01-11_16h21.03.649,t1_Paradigm,2021.1.4,60.058282131774995,
F,left,Pretarget,0,45,45,45,424.82285470842726,426.82233436749175,left,1,1,0.8828953797128634,M23B10,2023-01-11_16h21.03.649,t1_Paradigm,2021.1.4,60.058282131774995,
F,right,Target,0,46,46,46,428.32345252306004,430.3228484527872,left,0,1,1.270139391702287,M23B10,2023-01-11_16h21.03.649,t1_Paradigm,2021.1.4,60.058282131774995,
G,left,Pretarget,0,47,47,47,431.82298912448914,433.8249094455987,None,0,1,,M23B10,2023-01-11_16h21.03.649,t1_Paradigm,2021.1.4,60.058282131774995,
G,right,Target,0,48,48,48,435.32296265831974,437.3229411645816,right,1,1,0.8142937847487701,M23B10,2023-01-11_16h21.03.649,t1_Paradigm,2021.1.4,60.058282131774995,
V,left,Distractor,0,49,49,49,438.8233096057438,440.8243105081592,left,1,1,0.9450802919427588,M23B10,2023-01-11_16h21.03.649,t1_Paradigm,2021.1.4,60.058282131774995,
G,left,Lure,0,50,50,50,442.3232921220315,444.32338675863775,left,1,1,1.2696498477635032,M23B10,2023-01-11_16h21.03.649,t1_Paradigm,2021.1.4,60.058282131774995,
Q,left,Pretarget,0,51,51,51,445.82326790147636,447.8253463780002,left,1,1,0.663876116512256,M23B10,2023-01-11_16h21.03.649,t1_Paradigm,2021.1.4,60.058282131774995,
Q,right,Target,0,52,52,52,449.32329950047824,451.3230608237491,right,1,1,1.1179807307034935,M23B10,2023-01-11_16h21.03.649,t1_Paradigm,2021.1.4,60.058282131774995,
Y,left,Distractor,0,53,53,53,452.82326918468425,454.82578459360957,left,1,1,0.6713402179584591,M23B10,2023-01-11_16h21.03.649,t1_Paradigm,2021.1.4,60.058282131774995,
V,left,Distractor,0,54,54,54,456.32330110448856,458.3236661772289,left,1,1,0.629560882937767,M23B10,2023-01-11_16h21.03.649,t1_Paradigm,2021.1.4,60.058282131774995,
B,left,Distractor,0,55,55,55,459.8234728939906,461.8246216861544,left,1,1,1.064821584332094,M23B10,2023-01-11_16h21.03.649,t1_Paradigm,2021.1.4,60.058282131774995,
J,left,Pretarget,0,56,56,56,463.323305595718,465.3253150997998,left,1,1,0.8756936943464098,M23B10,2023-01-11_16h21.03.649,t1_Paradigm,2021.1.4,60.058282131774995,
J,right,Target,0,57,57,57,466.82308408189783,468.8234167536302,right,1,1,0.6737096619481235,M23B10,2023-01-11_16h21.03.649,t1_Paradigm,2021.1.4,60.058282131774995,
H,left,Distractor,0,58,58,58,470.32326389145055,472.3254969945656,left,1,1,0.755677474595359,M23B10,2023-01-11_16h21.03.649,t1_Paradigm,2021.1.4,60.058282131774995,
J,left,Lure,0,59,59,59,473.8232643726533,475.825228964447,left,1,1,0.9997917994651289,M23B10,2023-01-11_16h21.03.649,t1_Paradigm,2021.1.4,60.058282131774995,
D,left,Pretarget,0,60,60,60,477.32321641274575,479.3245198315017,None,0,1,,M23B10,2023-01-11_16h21.03.649,t1_Paradigm,2021.1.4,60.058282131774995,
D,right,Target,0,61,61,61,480.82325988142475,482.82330351050405,right,1,1,0.8979140487881523,M23B10,2023-01-11_16h21.03.649,t1_Paradigm,2021.1.4,60.058282131774995,
R,left,Distractor,0,62,62,62,484.32339317467904,486.3253523128378,left,1,1,0.8037977830654199,M23B10,2023-01-11_16h21.03.649,t1_Paradigm,2021.1.4,60.058282131774995,
F,left,Distractor,0,63,63,63,487.82308696911605,489.8229557610748,left,1,1,0.9540691655647606,M23B10,2023-01-11_16h21.03.649,t1_Paradigm,2021.1.4,60.058282131774995,
F,left,Distractor,0,0,0,0,610.1755419228939,612.1732860428328,None,0,2,,M23B10,2023-01-11_16h21.03.649,t1_Paradigm,2021.1.4,60.058282131774995,
N,left,Pretarget,0,1,1,1,613.672941982627,615.6753415820094,None,0,2,,M23B10,2023-01-11_16h21.03.649,t1_Paradigm,2021.1.4,60.058282131774995,
V,left,Distractor,0,2,2,2,617.1732331104931,619.1730579525702,left,1,2,0.611956549286333,M23B10,2023-01-11_16h21.03.649,t1_Paradigm,2021.1.4,60.058282131774995,
N,right,Target,0,3,3,3,620.6732499526015,622.6750249503793,right,1,2,1.0781951804619894,M23B10,2023-01-11_16h21.03.649,t1_Paradigm,2021.1.4,60.058282131774995,
N,left,Lure,0,4,4,4,624.173234393701,626.1734518974954,left,1,2,1.3236892749773688,M23B10,2023-01-11_16h21.03.649,t1_Paradigm,2021.1.4,60.058282131774995,
X,left,Distractor,0,5,5,5,627.6734109952331,629.6749392962301,left,1,2,0.8942431108562232,M23B10,2023-01-11_16h21.03.649,t1_Paradigm,2021.1.4,60.058282131774995,
G,left,Pretarget,0,6,6,6,631.1730884287654,633.1730890703693,left,1,2,1.1239957692623648,M23B10,2023-01-11_16h21.03.649,t1_Paradigm,2021.1.4,60.058282131774995,
H,left,Pretarget,0,7,7,7,634.6728293811047,636.6749043288064,left,1,2,0.9980148768745494,M23B10,2023-01-11_16h21.03.649,t1_Paradigm,2021.1.4,60.058282131774995,
G,right,Target,0,8,8,8,638.1732260528479,640.1748477072433,None,0,2,,M23B10,2023-01-11_16h21.03.649,t1_Paradigm,2021.1.4,60.058282131774995,
H,right,Target,0,9,9,9,641.6732406493411,643.6753085393975,right,1,2,1.2618546785934086,M23B10,2023-01-11_16h21.03.649,t1_Paradigm,2021.1.4,60.058282131774995,
T,left,Pretarget,0,10,10,10,645.17309227839,647.1744255317371,left,1,2,1.106770302840232,M23B10,2023-01-11_16h21.03.649,t1_Paradigm,2021.1.4,60.058282131774995,
K,left,Distractor,0,11,11,11,648.6730552257532,650.674253742236,None,0,2,,M23B10,2023-01-11_16h21.03.649,t1_Paradigm,2021.1.4,60.058282131774995,
T,right,Target,0,12,12,12,652.1734515766939,654.1859378343352,right,1,2,0.6872321102327987,M23B10,2023-01-11_16h21.03.649,t1_Paradigm,2021.1.4,60.058282131774995,
T,left,Lure,0,13,13,13,655.6730298823904,657.6730087094547,left,1,2,0.7679510404732355,M23B10,2023-01-11_16h21.03.649,t1_Paradigm,2021.1.4,60.058282131774995,
J,left,Distractor,0,14,14,14,659.1730877871614,661.1754893113566,left,1,2,1.1855679495647564,M23B10,2023-01-11_16h21.03.649,t1_Paradigm,2021.1.4,60.058282131774995,
Q,left,Pretarget,0,15,15,15,662.6730728698658,664.686130155168,left,1,2,0.8269619371567387,M23B10,2023-01-11_16h21.03.649,t1_Paradigm,2021.1.4,60.058282131774995,
M,left,Distractor,0,16,16,16,666.1732969501027,668.1760455821222,left,1,2,0.7131465003549238,M23B10,2023-01-11_16h21.03.649,t1_Paradigm,2021.1.4,60.058282131774995,
Q,right,Target,0,17,17,17,669.6733721781848,671.6756928602608,right,1,2,0.9733731085107138,M23B10,2023-01-11_16h21.03.649,t1_Paradigm,2021.1.4,60.058282131774995,
R,left,Distractor,0,18,18,18,673.1733117069971,675.1739424038396,left,1,2,0.8831834599586728,M23B10,2023-01-11_16h21.03.649,t1_Paradigm,2021.1.4,60.058282131774995,
W,left,Distractor,0,19,19,19,676.6733016017324,678.674415747274,left,1,2,0.9186606385819687,M23B10,2023-01-11_16h21.03.649,t1_Paradigm,2021.1.4,60.058282131774995,
C,left,Pretarget,0,20,20,20,680.1732683987193,682.1751380331043,left,1,2,0.9060280952026005,M23B10,2023-01-11_16h21.03.649,t1_Paradigm,2021.1.4,60.058282131774995,
T,left,Distractor,0,21,21,21,683.673259255861,685.6749582235516,left,1,2,1.3421703606491064,M23B10,2023-01-11_16h21.03.649,t1_Paradigm,2021.1.4,60.058282131774995,
C,right,Target,0,22,22,22,687.1733729801899,689.1752544842511,right,1,2,0.9619846355062691,M23B10,2023-01-11_16h21.03.649,t1_Paradigm,2021.1.4,60.058282131774995,
F,left,Pretarget,0,23,23,23,690.6734071456085,692.6753175218546,left,1,2,0.8058833172344748,M23B10,2023-01-11_16h21.03.649,t1_Paradigm,2021.1.4,60.058282131774995,
C,right,Target,0,24,24,24,694.1734756368478,696.1753574617114,left,0,2,1.2097015674708018,M23B10,2023-01-11_16h21.03.649,t1_Paradigm,2021.1.4,60.058282131774995,
F,right,Target,0,25,25,25,697.6732403285396,699.6749113864516,right,1,2,0.9901497728560571,M23B10,2023-01-11_16h21.03.649,t1_Paradigm,2021.1.4,60.058282131774995,
H,left,Distractor,0,26,26,26,701.173284759624,703.1733530904621,left,1,2,0.947878648281403,M23B10,2023-01-11_16h21.03.649,t1_Paradigm,2021.1.4,60.058282131774995,
H,left,Lure,0,27,27,27,704.6730638874087,706.6734084288173,left,1,2,1.0957116143499661,M23B10,2023-01-11_16h21.03.649,t1_Paradigm,2021.1.4,60.058282131774995,
P,left,Distractor,0,28,28,28,708.1731609300305,710.1732138623693,left,1,2,0.9079901205795977,M23B10,2023-01-11_16h21.03.649,t1_Paradigm,2021.1.4,60.058282131774995,
G,left,Pretarget,0,29,29,29,711.673255085434,713.6746678976906,left,1,2,0.8785125820168105,M23B10,2023-01-11_16h21.03.649,t1_Paradigm,2021.1.4,60.058282131774995,
K,left,Distractor,0,30,30,30,715.1732488297939,717.1750982536496,left,1,2,0.8180782866093068,M23B10,2023-01-11_16h21.03.649,t1_Paradigm,2021.1.4,60.058282131774995,
G,right,Target,0,31,31,31,718.6733086593777,720.6753659629658,right,1,2,0.7898422520047461,M23B10,2023-01-11_16h21.03.649,t1_Paradigm,2021.1.4,60.058282131774995,
M,left,Pretarget,0,32,32,32,722.1733126694035,724.1745702134649,left,1,2,1.1466748706443468,M23B10,2023-01-11_16h21.03.649,t1_Paradigm,2021.1.4,60.058282131774995,
B,left,Distractor,0,33,33,33,725.6733878974856,727.6752706847547,left,1,2,0.8142373235868945,M23B10,2023-01-11_16h21.03.649,t1_Paradigm,2021.1.4,60.058282131774995,
M,right,Target,0,34,34,34,729.1732972709042,731.1745961984307,right,1,2,0.5945366768173699,M23B10,2023-01-11_16h21.03.649,t1_Paradigm,2021.1.4,60.058282131774995,
M,left,Lure,0,35,35,35,732.6733388147704,734.6734209400975,left,1,2,1.0957424113466914,M23B10,2023-01-11_16h21.03.649,t1_Paradigm,2021.1.4,60.058282131774995,
T,left,Distractor,0,36,36,36,736.1732722483439,738.174946835079,left,1,2,0.7622542375538615,M23B10,2023-01-11_16h21.03.649,t1_Paradigm,2021.1.4,60.058282131774995,
F,left,Distractor,0,37,37,37,739.673297110503,741.6750689002611,left,1,2,0.7660076216152447,M23B10,2023-01-11_16h21.03.649,t1_Paradigm,2021.1.4,60.058282131774995,
X,left,Distractor,0,38,38,38,743.1730030954186,745.1860530022741,left,1,2,0.8872364731405469,M23B10,2023-01-11_16h21.03.649,t1_Paradigm,2021.1.4,60.058282131774995,
C,left,Distractor,0,39,39,39,746.6732310252801,748.6749996070166,left,1,2,1.302153191322759,M23B10,2023-01-11_16h21.03.649,t1_Paradigm,2021.1.4,60.058282131774995,
R,left,Distractor,0,40,40,40,750.1731949350487,752.1736148649406,left,1,2,0.7958775010929457,M23B10,2023-01-11_16h21.03.649,t1_Paradigm,2021.1.4,60.058282131774995,
B,left,Pretarget,0,41,41,41,753.6731752057221,755.6740609401995,left,1,2,0.8471442361333175,M23B10,2023-01-11_16h21.03.649,t1_Paradigm,2021.1.4,60.058282131774995,
H,left,Distractor,0,42,42,42,757.1728080477678,759.1753497624613,left,1,2,1.0420324478445764,M23B10,2023-01-11_16h21.03.649,t1_Paradigm,2021.1.4,60.058282131774995,
B,right,Target,0,43,43,43,760.67327786238,762.6752969905237,right,1,2,1.0138281726440255,M23B10,2023-01-11_16h21.03.649,t1_Paradigm,2021.1.4,60.058282131774995,
W,left,Pretarget,0,44,44,44,764.1733729801899,766.1753449504313,left,1,2,0.7458997487156012,M23B10,2023-01-11_16h21.03.649,t1_Paradigm,2021.1.4,60.058282131774995,
L,left,Pretarget,0,45,45,45,767.6733680077577,769.6750034566421,left,1,2,0.7499742556346973,M23B10,2023-01-11_16h21.03.649,t1_Paradigm,2021.1.4,60.058282131774995,
W,right,Target,0,46,46,46,771.1732427345551,773.1746754365386,right,1,2,0.6103871856266778,M23B10,2023-01-11_16h21.03.649,t1_Paradigm,2021.1.4,60.058282131774995,
L,right,Target,0,47,47,47,774.6728367595524,776.6731925290333,right,1,2,1.1920298653885766,M23B10,2023-01-11_16h21.03.649,t1_Paradigm,2021.1.4,60.058282131774995,
W,right,Target,0,48,48,48,778.1728343535369,780.174877862637,None,0,2,,M23B10,2023-01-11_16h21.03.649,t1_Paradigm,2021.1.4,60.058282131774995,
X,left,Distractor,0,49,49,49,781.6732990353157,783.6751266446317,left,1,2,0.990074705175175,M23B10,2023-01-11_16h21.03.649,t1_Paradigm,2021.1.4,60.058282131774995,
R,left,Distractor,0,50,50,50,785.1731015816504,787.1753260231098,left,1,2,0.7538325419682224,M23B10,2023-01-11_16h21.03.649,t1_Paradigm,2021.1.4,60.058282131774995,
V,left,Pretarget,0,51,51,51,788.6734013711721,790.6754368602196,left,1,2,0.91750895919904,M23B10,2023-01-11_16h21.03.649,t1_Paradigm,2021.1.4,60.058282131774995,
Z,left,Distractor,0,52,52,52,792.1899414440004,794.1742445993768,left,1,2,0.6990703477204079,M23B10,2023-01-11_16h21.03.649,t1_Paradigm,2021.1.4,60.058282131774995,
V,right,Target,0,53,53,53,795.6733891806934,797.6750573513873,right,1,2,0.9259152562872259,M23B10,2023-01-11_16h21.03.649,t1_Paradigm,2021.1.4,60.058282131774995,
V,left,Lure,0,54,54,54,799.1728885690845,801.1733893410947,left,1,2,1.29991559697919,M23B10,2023-01-11_16h21.03.649,t1_Paradigm,2021.1.4,60.058282131774995,
N,left,Distractor,0,55,55,55,802.6733994463593,804.6723969399327,left,1,2,0.8088125608119299,M23B10,2023-01-11_16h21.03.649,t1_Paradigm,2021.1.4,60.058282131774995,
B,left,Distractor,0,56,56,56,806.1729979625861,808.174067516642,left,1,2,1.0350152236615031,M23B10,2023-01-11_16h21.03.649,t1_Paradigm,2021.1.4,60.058282131774995,
V,left,Lure,0,57,57,57,809.6733465140196,811.6753463940404,left,1,2,1.1017231240857654,M23B10,2023-01-11_16h21.03.649,t1_Paradigm,2021.1.4,60.058282131774995,
J,left,Distractor,0,58,58,58,813.1732947044875,815.1749789152846,left,1,2,0.882035309398816,M23B10,2023-01-11_16h21.03.649,t1_Paradigm,2021.1.4,60.058282131774995,
H,left,Distractor,0,59,59,59,816.6729933109555,818.6753229754904,left,1,2,1.0779619573668242,M23B10,2023-01-11_16h21.03.649,t1_Paradigm,2021.1.4,60.058282131774995,
X,left,Pretarget,0,60,60,60,820.1732260528479,822.1749179628932,left,1,2,0.8901576966673019,M23B10,2023-01-11_16h21.03.649,t1_Paradigm,2021.1.4,60.058282131774995,
P,left,Distractor,0,61,61,61,823.6729179224731,825.6757823640346,left,1,2,1.101381469896296,M23B10,2023-01-11_16h21.03.649,t1_Paradigm,2021.1.4,60.058282131774995,
X,right,Target,0,62,62,62,827.1732972709042,829.1753629153463,right,1,2,0.641878077894944,M23B10,2023-01-11_16h21.03.649,t1_Paradigm,2021.1.4,60.058282131774995,
Q,left,Distractor,0,63,63,63,830.6732457821745,832.6732647094959,left,1,2,0.9197151149419369,M23B10,2023-01-11_16h21.03.649,t1_Paradigm,2021.1.4,60.058282131774995,
B,left,Pretarget,0,0,0,0,875.3092156485955,877.3079609917531,None,0,2,,M23B10,2023-01-11_16h21.03.649,t1_Paradigm,2021.1.4,60.058282131774995,
F,left,Distractor,0,1,1,1,878.8065813825087,880.8085305758041,None,0,2,,M23B10,2023-01-11_16h21.03.649,t1_Paradigm,2021.1.4,60.058282131774995,
B,right,Target,0,2,2,2,882.3067156381694,884.3085958590227,right,1,2,1.0608843806930963,M23B10,2023-01-11_16h21.03.649,t1_Paradigm,2021.1.4,60.058282131774995,
V,left,Distractor,0,3,3,3,885.8064116782207,887.8084407512279,left,1,2,0.8405719644033525,M23B10,2023-01-11_16h21.03.649,t1_Paradigm,2021.1.4,60.058282131774995,
G,left,Pretarget,0,4,4,4,889.3064875479076,891.3090799493257,left,1,2,0.8919910804188476,M23B10,2023-01-11_16h21.03.649,t1_Paradigm,2021.1.4,60.058282131774995,
B,left,Lure,0,5,5,5,892.8066182747452,894.8093550370895,left,1,2,0.9438939659376047,M23B10,2023-01-11_16h21.03.649,t1_Paradigm,2021.1.4,60.058282131774995,
G,right,Target,0,6,6,6,896.3066748963083,898.3086426961227,right,1,2,0.8364342594777554,M23B10,2023-01-11_16h21.03.649,t1_Paradigm,2021.1.4,60.058282131774995,
Y,left,Pretarget,0,7,7,7,899.8067254226326,901.8082553276399,left,1,2,0.6327156503602964,M23B10,2023-01-11_16h21.03.649,t1_Paradigm,2021.1.4,60.058282131774995,
P,left,Distractor,0,8,8,8,903.3067149965655,905.3091957588676,left,1,2,0.7159182301229521,M23B10,2023-01-11_16h21.03.649,t1_Paradigm,2021.1.4,60.058282131774995,
Y,right,Target,0,9,9,9,906.8065890817579,908.8085074780556,right,1,2,0.8644479782569761,M23B10,2023-01-11_16h21.03.649,t1_Paradigm,2021.1.4,60.058282131774995,
X,left,Distractor,0,10,10,10,910.3064788862521,912.308478124668,left,1,2,0.8525869638233416,M23B10,2023-01-11_16h21.03.649,t1_Paradigm,2021.1.4,60.058282131774995,
Y,right,Target,0,11,11,11,913.8063388561541,915.8083024855414,right,1,2,0.7609222674163902,M23B10,2023-01-11_16h21.03.649,t1_Paradigm,2021.1.4,60.058282131774995,
N,left,Distractor,0,12,12,12,917.3066534025702,919.3084883903339,left,1,2,0.7968017318171405,M23B10,2023-01-11_16h21.03.649,t1_Paradigm,2021.1.4,60.058282131774995,
Y,right,Target,0,13,13,13,920.8067000792698,922.808747758796,right,1,2,0.9604037229719324,M23B10,2023-01-11_16h21.03.649,t1_Paradigm,2021.1.4,60.058282131774995,
Y,left,Lure,0,14,14,14,924.3066405704885,926.3066569313933,left,1,2,1.2544213741430212,M23B10,2023-01-11_16h21.03.649,t1_Paradigm,2021.1.4,60.058282131774995,
K,left,Distractor,0,15,15,15,927.8066208411619,929.8083499642462,left,1,2,1.1768286599426574,M23B10,2023-01-11_16h21.03.649,t1_Paradigm,2021.1.4,60.058282131774995,
T,left,Pretarget,0,16,16,16,931.3066845203703,933.3092085909502,left,1,2,0.908119083006568,M23B10,2023-01-11_16h21.03.649,t1_Paradigm,2021.1.4,60.058282131774995,
J,left,Distractor,0,17,17,17,934.8066375228691,936.8094823955053,left,1,2,0.7677357822931299,M23B10,2023-01-11_16h21.03.649,t1_Paradigm,2021.1.4,60.058282131774995,
T,right,Target,0,18,18,18,938.3066139439179,940.3062719689251,right,1,2,1.4309949964499538,M23B10,2023-01-11_16h21.03.649,t1_Paradigm,2021.1.4,60.058282131774995,
S,left,Pretarget,0,19,19,19,941.8064578737167,943.8093072375823,left,1,2,0.8397577687837838,M23B10,2023-01-11_16h21.03.649,t1_Paradigm,2021.1.4,60.058282131774995,
R,left,Distractor,0,20,20,20,945.3067737033416,947.3071137535217,None,0,2,,M23B10,2023-01-11_16h21.03.649,t1_Paradigm,2021.1.4,60.058282131774995,
S,right,Target,0,21,21,21,948.8066343148485,950.808562976812,right,1,2,1.1845269468913102,M23B10,2023-01-11_16h21.03.649,t1_Paradigm,2021.1.4,60.058282131774995,
Q,left,Distractor,0,22,22,22,952.3066142647194,954.307676761131,left,1,2,1.1255632081101794,M23B10,2023-01-11_16h21.03.649,t1_Paradigm,2021.1.4,60.058282131774995,
D,left,Distractor,0,23,23,23,955.8066246907865,957.8085854329556,left,1,2,1.016520985106581,M23B10,2023-01-11_16h21.03.649,t1_Paradigm,2021.1.4,60.058282131774995,
F,left,Distractor,0,24,24,24,959.3066088110845,961.3083883000918,left,1,2,1.068875239117915,M23B10,2023-01-11_16h21.03.649,t1_Paradigm,2021.1.4,60.058282131774995,
Z,left,Distractor,0,25,25,25,962.8066314276293,964.8061819839486,left,1,2,1.1069377615140183,M23B10,2023-01-11_16h21.03.649,t1_Paradigm,2021.1.4,60.058282131774995,
P,left,Distractor,0,26,26,26,966.3064888311155,968.3083145156188,None,0,2,,M23B10,2023-01-11_16h21.03.649,t1_Paradigm,2021.1.4,60.058282131774995,
H,left,Distractor,0,27,27,27,969.8068059439483,971.8071893024062,left,1,2,0.9859379626568625,M23B10,2023-01-11_16h21.03.649,t1_Paradigm,2021.1.4,60.058282131774995,
Z,left,Pretarget,0,28,28,28,973.3067249414289,975.3078268964928,left,1,2,1.2613792499460033,M23B10,2023-01-11_16h21.03.649,t1_Paradigm,2021.1.4,60.058282131774995,
J,left,Pretarget,0,29,29,29,976.8064569113112,978.8084956083794,left,1,2,1.1687219919758718,M23B10,2023-01-11_16h21.03.649,t1_Paradigm,2021.1.4,60.058282131774995,
Z,right,Target,0,30,30,30,980.3065902045655,982.30852367856,right,1,2,1.364764770288275,M23B10,2023-01-11_16h21.03.649,t1_Paradigm,2021.1.4,60.058282131774995,
J,right,Target,0,31,31,31,983.8066259739944,985.8092440395776,right,1,2,1.1120003387668476,M23B10,2023-01-11_16h21.03.649,t1_Paradigm,2021.1.4,60.058282131774995,
V,left,Pretarget,0,32,32,32,987.3064294827354,989.3089413628377,left,1,2,0.9563702787154398,M23B10,2023-01-11_16h21.03.649,t1_Paradigm,2021.1.4,60.058282131774995,
Z,left,Lure,0,33,33,33,990.8067562196293,992.8199042919141,left,1,2,1.3495613192271776,M23B10,2023-01-11_16h21.03.649,t1_Paradigm,2021.1.4,60.058282131774995,
V,right,Target,0,34,34,34,994.30665949781,996.30883261094,right,1,2,0.9163053098836826,M23B10,2023-01-11_16h21.03.649,t1_Paradigm,2021.1.4,60.058282131774995,
X,left,Distractor,0,35,35,35,997.8066481093365,999.8085180645239,left,1,2,0.7765369867129266,M23B10,2023-01-11_16h21.03.649,t1_Paradigm,2021.1.4,60.058282131774995,
S,left,Distractor,0,36,36,36,1001.3066039990536,1003.3087796786012,left,1,2,1.3564354656946307,M23B10,2023-01-11_16h21.03.649,t1_Paradigm,2021.1.4,60.058282131774995,
Q,left,Distractor,0,37,37,37,1004.8063125503859,1006.807900841367,None,0,2,,M23B10,2023-01-11_16h21.03.649,t1_Paradigm,2021.1.4,60.058282131774995,
P,left,Distractor,0,38,38,38,1008.3064612421385,1010.3074547661072,left,1,2,1.3175658053241932,M23B10,2023-01-11_16h21.03.649,t1_Paradigm,2021.1.4,60.058282131774995,
S,left,Lure,0,39,39,39,1011.8063985253366,1013.8071662046577,left,1,2,0.7783944306202102,M23B10,2023-01-11_16h21.03.649,t1_Paradigm,2021.1.4,60.058282131774995,
K,left,Pretarget,0,40,40,40,1015.3061731618918,1017.3063611518974,left,1,2,0.8149443713200526,M23B10,2023-01-11_16h21.03.649,t1_Paradigm,2021.1.4,60.058282131774995,
L,left,Distractor,0,41,41,41,1018.8064251519072,1020.8086425357214,left,1,2,0.8002545243516579,M23B10,2023-01-11_16h21.03.649,t1_Paradigm,2021.1.4,60.058282131774995,
K,right,Target,0,42,42,42,1022.3064352571719,1024.3080658940253,right,1,2,0.7252647980376423,M23B10,2023-01-11_16h21.03.649,t1_Paradigm,2021.1.4,60.058282131774995,
B,left,Distractor,0,43,43,43,1025.8068813324317,1027.8055804800924,left,1,2,0.6838463653293729,M23B10,2023-01-11_16h21.03.649,t1_Paradigm,2021.1.4,60.058282131774995,
N,left,Distractor,0,44,44,44,1029.3066434577067,1031.3084085106211,left,1,2,1.0208197326628579,M23B10,2023-01-11_16h21.03.649,t1_Paradigm,2021.1.4,60.058282131774995,
S,left,Pretarget,0,45,45,45,1032.8066445805143,1034.8083053727605,left,1,2,0.9289551765741635,M23B10,2023-01-11_16h21.03.649,t1_Paradigm,2021.1.4,60.058282131774995,
Z,left,Distractor,0,46,46,46,1036.306696710848,1038.3078442198039,left,1,2,1.3332741988215275,M23B10,2023-01-11_16h21.03.649,t1_Paradigm,2021.1.4,60.058282131774995,
S,right,Target,0,47,47,47,1039.8067100241333,1041.8057537132036,right,1,2,0.7314992652027286,M23B10,2023-01-11_16h21.03.649,t1_Paradigm,2021.1.4,60.058282131774995,
C,left,Distractor,0,48,48,48,1043.3059887007093,1045.3084983351973,left,1,2,0.684678205061573,M23B10,2023-01-11_16h21.03.649,t1_Paradigm,2021.1.4,60.058282131774995,
T,left,Pretarget,0,49,49,49,1046.8065441694707,1048.8087185658087,left,1,2,0.9285888206250092,M23B10,2023-01-11_16h21.03.649,t1_Paradigm,2021.1.4,60.058282131774995,
S,left,Lure,0,50,50,50,1050.3065234777378,1052.3087893026623,left,1,2,0.9322822147023544,M23B10,2023-01-11_16h21.03.649,t1_Paradigm,2021.1.4,60.058282131774995,
T,right,Target,0,51,51,51,1053.8066259739944,1055.8082768213771,right,1,2,0.6488378785106761,M23B10,2023-01-11_16h21.03.649,t1_Paradigm,2021.1.4,60.058282131774995,
N,left,Pretarget,0,52,52,52,1057.3064384651925,1059.319143509837,left,1,2,0.6420275716536707,M23B10,2023-01-11_16h21.03.649,t1_Paradigm,2021.1.4,60.058282131774995,
B,left,Distractor,0,53,53,53,1060.8067260642365,1062.8080917185907,left,1,2,0.9930199888558491,M23B10,2023-01-11_16h21.03.649,t1_Paradigm,2021.1.4,60.058282131774995,
N,right,Target,0,54,54,54,1064.3066380040718,1066.3059963999585,right,1,2,0.6631892793084262,M23B10,2023-01-11_16h21.03.649,t1_Paradigm,2021.1.4,60.058282131774995,
N,left,Lure,0,55,55,55,1067.8066012722365,1069.8066163499334,left,1,2,0.7626289343561439,M23B10,2023-01-11_16h21.03.649,t1_Paradigm,2021.1.4,60.058282131774995,
X,left,Distractor,0,56,56,56,1071.3066123399076,1073.3085865557632,left,1,2,1.0045582764205392,M23B10,2023-01-11_16h21.03.649,t1_Paradigm,2021.1.4,60.058282131774995,
W,left,Distractor,0,57,57,57,1074.8066516381596,1076.8082444203692,left,1,2,0.8971418782384717,M23B10,2023-01-11_16h21.03.649,t1_Paradigm,2021.1.4,60.058282131774995,
S,left,Distractor,0,58,58,58,1078.3057952570698,1080.3084582349402,None,0,2,,M23B10,2023-01-11_16h21.03.649,t1_Paradigm,2021.1.4,60.058282131774995,
L,left,Distractor,0,59,59,59,1081.8066420140976,1083.8067571820357,left,1,2,1.0664409931132468,M23B10,2023-01-11_16h21.03.649,t1_Paradigm,2021.1.4,60.058282131774995,
K,left,Pretarget,0,60,60,60,1085.3066485905401,1087.3087524104258,left,1,2,0.9884418227075003,M23B10,2023-01-11_16h21.03.649,t1_Paradigm,2021.1.4,60.058282131774995,
V,left,Pretarget,0,61,61,61,1088.8066545253778,1090.8081080794955,left,1,2,0.8489968680096354,M23B10,2023-01-11_16h21.03.649,t1_Paradigm,2021.1.4,60.058282131774995,
K,right,Target,0,62,62,62,1092.3067156381694,1094.3077072373262,left,0,2,1.301373000721469,M23B10,2023-01-11_16h21.03.649,t1_Paradigm,2021.1.4,60.058282131774995,
V,right,Target,0,63,63,63,1095.8063462346017,1097.8080400694598,None,0,2,,M23B10,2023-01-11_16h21.03.649,t1_Paradigm,2021.1.4,60.058282131774995,
R,left,Distractor,0,0,0,0,1199.269152925377,1201.274974199494,None,0,3,,M23B10,2023-01-11_16h21.03.649,t1_Paradigm,2021.1.4,60.058282131774995,
P,left,Lure,0,1,1,1,1202.7733029811807,1204.7750933774587,None,0,3,,M23B10,2023-01-11_16h21.03.649,t1_Paradigm,2021.1.4,60.058282131774995,
V,left,Distractor,0,2,2,2,1206.2733717932224,1208.2737095977882,None,0,3,,M23B10,2023-01-11_16h21.03.649,t1_Paradigm,2021.1.4,60.058282131774995,
P,left,Pretarget,0,3,3,3,1209.7733552719164,1211.7728243445126,left,1,3,1.3883312101588672,M23B10,2023-01-11_16h21.03.649,t1_Paradigm,2021.1.4,60.058282131774995,
Z,left,Distractor,0,4,4,4,1213.273294159124,1215.2736191316071,left,1,3,1.2956264734839351,M23B10,2023-01-11_16h21.03.649,t1_Paradigm,2021.1.4,60.058282131774995,
L,left,Pretarget,0,5,5,5,1216.773105367114,1218.7753362246149,left,1,3,1.3779465267871274,M23B10,2023-01-11_16h21.03.649,t1_Paradigm,2021.1.4,60.058282131774995,
P,right,Target,0,6,6,6,1220.2732441140033,1222.275343121859,right,1,3,1.2378416822612053,M23B10,2023-01-11_16h21.03.649,t1_Paradigm,2021.1.4,60.058282131774995,
S,left,Distractor,0,7,7,7,1223.773295602734,1225.7895682870476,left,1,3,1.051591065919638,M23B10,2023-01-11_16h21.03.649,t1_Paradigm,2021.1.4,60.058282131774995,
L,right,Target,0,8,8,8,1227.273264645335,1229.2741250364506,right,1,3,0.559228240075754,M23B10,2023-01-11_16h21.03.649,t1_Paradigm,2021.1.4,60.058282131774995,
D,left,Distractor,0,9,9,9,1230.7733421190314,1232.7751661995244,left,1,3,1.1379634908007574,M23B10,2023-01-11_16h21.03.649,t1_Paradigm,2021.1.4,60.058282131774995,
G,left,Distractor,0,10,10,10,1234.2727693269608,1236.2753537083263,left,1,3,0.949774267633984,M23B10,2023-01-11_16h21.03.649,t1_Paradigm,2021.1.4,60.058282131774995,
M,left,Pretarget,0,11,11,11,1237.7732580688935,1239.7754937384252,left,1,3,1.0656486120333284,M23B10,2023-01-11_16h21.03.649,t1_Paradigm,2021.1.4,60.058282131774995,
Y,left,Distractor,0,12,12,12,1241.2732431515979,1243.2753806556993,left,1,3,1.1337863272237882,M23B10,2023-01-11_16h21.03.649,t1_Paradigm,2021.1.4,60.058282131774995,
V,left,Distractor,0,13,13,13,1244.7732311215204,1246.7744193723374,left,1,3,0.8345899684554752,M23B10,2023-01-11_16h21.03.649,t1_Paradigm,2021.1.4,60.058282131774995,
M,right,Target,0,14,14,14,1248.2733169360708,1250.2752991719772,right,1,3,1.2378753664761462,M23B10,2023-01-11_16h21.03.649,t1_Paradigm,2021.1.4,60.058282131774995,
S,left,Pretarget,0,15,15,15,1251.7732571064862,1253.7751514426309,left,1,3,1.1941227780043846,M23B10,2023-01-11_16h21.03.649,t1_Paradigm,2021.1.4,60.058282131774995,
Q,left,Distractor,0,16,16,16,1255.2730368758748,1257.274904585447,left,1,3,1.342290982222039,M23B10,2023-01-11_16h21.03.649,t1_Paradigm,2021.1.4,60.058282131774995,
R,left,Pretarget,0,17,17,17,1258.772801246765,1260.7754642246346,left,1,3,1.1218114280600275,M23B10,2023-01-11_16h21.03.649,t1_Paradigm,2021.1.4,60.058282131774995,
S,right,Target,0,18,18,18,1262.2734821491304,1264.2748802044916,right,1,3,0.9821601976400416,M23B10,2023-01-11_16h21.03.649,t1_Paradigm,2021.1.4,60.058282131774995,
F,left,Distractor,0,19,19,19,1265.7734120538807,1267.7754456181156,left,1,3,1.38567849795254,M23B10,2023-01-11_16h21.03.649,t1_Paradigm,2021.1.4,60.058282131774995,
R,right,Target,0,20,20,20,1269.2732081841732,1271.275152244636,None,0,3,,M23B10,2023-01-11_16h21.03.649,t1_Paradigm,2021.1.4,60.058282131774995,
P,left,Distractor,0,21,21,21,1272.7730299786308,1274.7744530565542,None,0,3,,M23B10,2023-01-11_16h21.03.649,t1_Paradigm,2021.1.4,60.058282131774995,
L,left,Distractor,0,22,22,22,1276.2732133170066,1278.27545700659,left,1,3,1.301891737646656,M23B10,2023-01-11_16h21.03.649,t1_Paradigm,2021.1.4,60.058282131774995,
R,right,Target,0,23,23,23,1279.7732519736546,1281.7754924552155,left,0,3,1.1297191987523547,M23B10,2023-01-11_16h21.03.649,t1_Paradigm,2021.1.4,60.058282131774995,
H,left,Pretarget,0,24,24,24,1283.2728578683273,1285.2744602745988,left,1,3,1.0068244221474743,M23B10,2023-01-11_16h21.03.649,t1_Paradigm,2021.1.4,60.058282131774995,
G,left,Pretarget,0,25,25,25,1286.7730261290071,1288.7748126756596,left,1,3,1.3785364817704249,M23B10,2023-01-11_16h21.03.649,t1_Paradigm,2021.1.4,60.058282131774995,
T,left,Distractor,0,26,26,26,1290.273315652863,1292.2742180690475,left,1,3,1.0952503009939392,M23B10,2023-01-11_16h21.03.649,t1_Paradigm,2021.1.4,60.058282131774995,
H,right,Target,0,27,27,27,1293.7732676929554,1295.7750131769444,right,1,3,1.1304679507520632,M23B10,2023-01-11_16h21.03.649,t1_Paradigm,2021.1.4,60.058282131774995,
G,right,Target,0,28,28,28,1297.273205296955,1299.2751734175708,left,0,3,1.29414661359624,M23B10,2023-01-11_16h21.03.649,t1_Paradigm,2021.1.4,60.058282131774995,
D,left,Distractor,0,29,29,29,1300.773351422291,1302.7749903999975,left,1,3,1.2181896690817666,M23B10,2023-01-11_16h21.03.649,t1_Paradigm,2021.1.4,60.058282131774995,
N,left,Pretarget,0,30,30,30,1304.2733082744144,1306.2759921044199,None,0,3,,M23B10,2023-01-11_16h21.03.649,t1_Paradigm,2021.1.4,60.058282131774995,
V,left,Distractor,0,31,31,31,1307.7733074724092,1309.775499833664,None,0,3,,M23B10,2023-01-11_16h21.03.649,t1_Paradigm,2021.1.4,60.058282131774995,
R,left,Distractor,0,32,32,32,1311.27325149245,1313.2741131667754,left,1,3,1.2632168041236582,M23B10,2023-01-11_16h21.03.649,t1_Paradigm,2021.1.4,60.058282131774995,
N,right,Target,0,33,33,33,1314.7733353821895,1316.7755816381887,left,0,3,1.409630862697668,M23B10,2023-01-11_16h21.03.649,t1_Paradigm,2021.1.4,60.058282131774995,
Z,left,Distractor,0,34,34,34,1318.2728569059218,1320.2732428307954,left,1,3,1.1760673966618924,M23B10,2023-01-11_16h21.03.649,t1_Paradigm,2021.1.4,60.058282131774995,
N,left,Lure,0,35,35,35,1321.7732641641323,1323.773425206764,None,0,3,,M23B10,2023-01-11_16h21.03.649,t1_Paradigm,2021.1.4,60.058282131774995,
Y,left,Pretarget,0,36,36,36,1325.2723878933157,1327.274241166795,left,1,3,1.2311298616350541,M23B10,2023-01-11_16h21.03.649,t1_Paradigm,2021.1.4,60.058282131774995,
Y,left,Lure,0,37,37,37,1328.7730360738697,1330.7731897380545,left,1,3,1.3801642314047058,M23B10,2023-01-11_16h21.03.649,t1_Paradigm,2021.1.4,60.058282131774995,
B,left,Distractor,0,38,38,38,1332.2734131766865,1334.2740137181372,left,1,3,0.9831235662168183,M23B10,2023-01-11_16h21.03.649,t1_Paradigm,2021.1.4,60.058282131774995,
Y,right,Target,0,39,39,39,1335.7732221390634,1337.7753477734896,right,1,3,0.8736774534208962,M23B10,2023-01-11_16h21.03.649,t1_Paradigm,2021.1.4,60.058282131774995,
J,left,Distractor,0,40,40,40,1339.2734199135302,1341.2732081841732,left,1,3,0.944055329373441,M23B10,2023-01-11_16h21.03.649,t1_Paradigm,2021.1.4,60.058282131774995,
X,left,Distractor,0,41,41,41,1342.773272184184,1344.7741550314422,left,1,3,1.0591491623690672,M23B10,2023-01-11_16h21.03.649,t1_Paradigm,2021.1.4,60.058282131774995,
W,left,Pretarget,0,42,42,42,1346.273319823289,1348.2741320940968,left,1,3,0.9350472076257574,M23B10,2023-01-11_16h21.03.649,t1_Paradigm,2021.1.4,60.058282131774995,
S,left,Pretarget,0,43,43,43,1349.77324042478,1351.774602550311,left,1,3,1.3386027209780877,M23B10,2023-01-11_16h21.03.649,t1_Paradigm,2021.1.4,60.058282131774995,
R,left,Distractor,0,44,44,44,1353.272937748039,1355.2741930464872,left,1,3,1.1828632674278197,M23B10,2023-01-11_16h21.03.649,t1_Paradigm,2021.1.4,60.058282131774995,
W,right,Target,0,45,45,45,1356.7730267706102,1358.773543261921,right,1,3,1.123729182754687,M23B10,2023-01-11_16h21.03.649,t1_Paradigm,2021.1.4,60.058282131774995,
S,right,Target,0,46,46,46,1360.2728976477829,1362.2753248361423,left,0,3,1.3337842740911583,M23B10,2023-01-11_16h21.03.649,t1_Paradigm,2021.1.4,60.058282131774995,
D,left,Distractor,0,47,47,47,1363.7726950612832,1365.7729786503023,left,1,3,1.116596469830256,M23B10,2023-01-11_16h21.03.649,t1_Paradigm,2021.1.4,60.058282131774995,
T,left,Distractor,0,48,48,48,1367.2733037831858,1369.2752760742296,left,1,3,0.8460387522482051,M23B10,2023-01-11_16h21.03.649,t1_Paradigm,2021.1.4,60.058282131774995,
S,right,Target,0,49,49,49,1370.7732939987236,1372.7858620608895,right,1,3,0.5995216199735296,M23B10,2023-01-11_16h21.03.649,t1_Paradigm,2021.1.4,60.058282131774995,
K,left,Distractor,0,50,50,50,1374.2733814172843,1376.2749020190313,left,1,3,0.9662798542412929,M23B10,2023-01-11_16h21.03.649,t1_Paradigm,2021.1.4,60.058282131774995,
S,left,Lure,0,51,51,51,1377.7732420287903,1379.773398259391,left,1,3,1.451772704043833,M23B10,2023-01-11_16h21.03.649,t1_Paradigm,2021.1.4,60.058282131774995,
T,left,Pretarget,0,52,52,52,1381.273351582693,1383.274126640461,left,1,3,1.2472325208600523,M23B10,2023-01-11_16h21.03.649,t1_Paradigm,2021.1.4,60.058282131774995,
V,left,Distractor,0,53,53,53,1384.7733360237926,1386.7729600437833,None,0,3,,M23B10,2023-01-11_16h21.03.649,t1_Paradigm,2021.1.4,60.058282131774995,
B,left,Distractor,0,54,54,54,1388.2730641440503,1390.2757582397207,left,1,3,1.1736074864929833,M23B10,2023-01-11_16h21.03.649,t1_Paradigm,2021.1.4,60.058282131774995,
T,right,Target,0,55,55,55,1391.7731916628672,1393.7753634927903,right,1,3,0.5219106200547685,M23B10,2023-01-11_16h21.03.649,t1_Paradigm,2021.1.4,60.058282131774995,
Y,left,Pretarget,0,56,56,56,1395.2732915927081,1397.2750678736938,left,1,3,0.8145456143629417,M23B10,2023-01-11_16h21.03.649,t1_Paradigm,2021.1.4,60.058282131774995,
T,left,Lure,0,57,57,57,1398.7732346503435,1400.7749698686657,left,1,3,1.2020947091077687,M23B10,2023-01-11_16h21.03.649,t1_Paradigm,2021.1.4,60.058282131774995,
P,left,Pretarget,0,58,58,58,1402.273081146559,1404.2724312015926,left,1,3,0.9367651026404928,M23B10,2023-01-11_16h21.03.649,t1_Paradigm,2021.1.4,60.058282131774995,
Y,right,Target,0,59,59,59,1405.773271542579,1407.7736189712068,right,1,3,1.1158785148272727,M23B10,2023-01-11_16h21.03.649,t1_Paradigm,2021.1.4,60.058282131774995,
R,left,Distractor,0,60,60,60,1409.2729646954122,1411.272810710425,left,1,3,0.7203661506355274,M23B10,2023-01-11_16h21.03.649,t1_Paradigm,2021.1.4,60.058282131774995,
P,right,Target,0,61,61,61,1412.7733972969854,1414.77536188878,left,0,3,1.1858117591291375,M23B10,2023-01-11_16h21.03.649,t1_Paradigm,2021.1.4,60.058282131774995,
L,left,Distractor,0,62,62,62,1416.2733268809334,1418.274116374796,left,1,3,1.0312268721754663,M23B10,2023-01-11_16h21.03.649,t1_Paradigm,2021.1.4,60.058282131774995,
V,left,Distractor,0,63,63,63,1419.7733434022393,1421.7750802245737,left,1,3,0.8739289622335491,M23B10,2023-01-11_16h21.03.649,t1_Paradigm,2021.1.4,60.058282131774995,
H,left,Lure,0,0,0,0,1456.622941132502,1458.624761684172,None,0,3,,M23B10,2023-01-11_16h21.03.649,t1_Paradigm,2021.1.4,60.058282131774995,
B,left,Distractor,0,1,1,1,1460.1234709370983,1462.1253636692309,None,0,3,,M23B10,2023-01-11_16h21.03.649,t1_Paradigm,2021.1.4,60.058282131774995,
T,left,Distractor,0,2,2,2,1463.6233068468464,1465.624655498692,None,0,3,,M23B10,2023-01-11_16h21.03.649,t1_Paradigm,2021.1.4,60.058282131774995,
R,left,Distractor,0,3,3,3,1467.1233057240388,1469.1249831979912,left,1,3,0.7243652690704039,M23B10,2023-01-11_16h21.03.649,t1_Paradigm,2021.1.4,60.058282131774995,
H,left,Pretarget,0,4,4,4,1470.6232773330557,1472.625886416181,left,1,3,0.9033157138146635,M23B10,2023-01-11_16h21.03.649,t1_Paradigm,2021.1.4,60.058282131774995,
K,left,Distractor,0,5,5,5,1474.1234337240585,1476.1255827770347,left,1,3,0.9717078250359918,M23B10,2023-01-11_16h21.03.649,t1_Paradigm,2021.1.4,60.058282131774995,
G,left,Distractor,0,6,6,6,1477.623361062393,1479.6231717891806,left,1,3,1.2501704260921542,M23B10,2023-01-11_16h21.03.649,t1_Paradigm,2021.1.4,60.058282131774995,
H,right,Target,0,7,7,7,1481.1233429370768,1483.1231969721412,right,1,3,0.9501358115503535,M23B10,2023-01-11_16h21.03.649,t1_Paradigm,2021.1.4,60.058282131774995,
Y,left,Pretarget,0,8,8,8,1484.6234614734367,1486.6250542556481,left,1,3,0.8241972650339449,M23B10,2023-01-11_16h21.03.649,t1_Paradigm,2021.1.4,60.058282131774995,
S,left,Distractor,0,9,9,9,1488.1233929821974,1490.1251111980127,left,1,3,0.8122351979527593,M23B10,2023-01-11_16h21.03.649,t1_Paradigm,2021.1.4,60.058282131774995,
P,left,Distractor,0,10,10,10,1491.622869914445,1493.6254238196161,left,1,3,1.0235632318490389,M23B10,2023-01-11_16h21.03.649,t1_Paradigm,2021.1.4,60.058282131774995,
Y,right,Target,0,11,11,11,1495.1232422052308,1497.1257229675339,left,0,3,1.2355303034419194,M23B10,2023-01-11_16h21.03.649,t1_Paradigm,2021.1.4,60.058282131774995,
H,left,Lure,0,12,12,12,1498.623255518516,1500.6248813433394,left,1,3,0.7444362497353723,M23B10,2023-01-11_16h21.03.649,t1_Paradigm,2021.1.4,60.058282131774995,
Q,left,Distractor,0,13,13,13,1502.122927177612,1504.1252841103214,left,1,3,1.3240549893234856,M23B10,2023-01-11_16h21.03.649,t1_Paradigm,2021.1.4,60.058282131774995,
V,left,Pretarget,0,14,14,14,1505.6232997892002,1507.6233023556179,left,1,3,0.9620876129665703,M23B10,2023-01-11_16h21.03.649,t1_Paradigm,2021.1.4,60.058282131774995,
G,left,Distractor,0,15,15,15,1509.1228973430207,1511.125183057673,left,1,3,0.8680255627914448,M23B10,2023-01-11_16h21.03.649,t1_Paradigm,2021.1.4,60.058282131774995,
Z,left,Pretarget,0,16,16,16,1512.6233087716573,1514.6249904160377,left,1,3,0.7283640667046711,M23B10,2023-01-11_16h21.03.649,t1_Paradigm,2021.1.4,60.058282131774995,
V,right,Target,0,17,17,17,1516.123330746599,1518.1253100952872,right,1,3,1.1642776002845494,M23B10,2023-01-11_16h21.03.649,t1_Paradigm,2021.1.4,60.058282131774995,
N,left,Distractor,0,18,18,18,1519.6232709170163,1521.625175518824,left,1,3,1.0398092895939044,M23B10,2023-01-11_16h21.03.649,t1_Paradigm,2021.1.4,60.058282131774995,
Z,right,Target,0,19,19,19,1523.123074746558,1525.12458508264,right,1,3,1.252713423993555,M23B10,2023-01-11_16h21.03.649,t1_Paradigm,2021.1.4,60.058282131774995,
R,left,Distractor,0,20,20,20,1526.6232917691486,1528.6246413834015,None,0,3,,M23B10,2023-01-11_16h21.03.649,t1_Paradigm,2021.1.4,60.058282131774995,
P,left,Distractor,0,21,21,21,1530.1233843205428,1532.124939568912,left,1,3,0.8602688898681663,M23B10,2023-01-11_16h21.03.649,t1_Paradigm,2021.1.4,60.058282131774995,
Z,right,Target,0,22,22,22,1533.6224227163784,1535.6226116687885,left,0,3,1.2346076767280465,M23B10,2023-01-11_16h21.03.649,t1_Paradigm,2021.1.4,60.058282131774995,
D,left,Pretarget,0,23,23,23,1537.123293533561,1539.1357833200254,left,1,3,1.0175940679855557,M23B10,2023-01-11_16h21.03.649,t1_Paradigm,2021.1.4,60.058282131774995,
K,left,Distractor,0,24,24,24,1540.6229619846345,1542.6252496240995,left,1,3,0.8560853102499095,M23B10,2023-01-11_16h21.03.649,t1_Paradigm,2021.1.4,60.058282131774995,
W,left,Distractor,0,25,25,25,1544.1231501350412,1546.123372130065,left,1,3,1.2939781925178977,M23B10,2023-01-11_16h21.03.649,t1_Paradigm,2021.1.4,60.058282131774995,
D,right,Target,0,26,26,26,1547.623306526044,1549.6250760701878,left,0,3,0.8160293238743179,M23B10,2023-01-11_16h21.03.649,t1_Paradigm,2021.1.4,60.058282131774995,
G,left,Pretarget,0,27,27,27,1551.1229412929024,1553.1228363906303,left,1,3,0.7264876954777719,M23B10,2023-01-11_16h21.03.649,t1_Paradigm,2021.1.4,60.058282131774995,
V,left,Distractor,0,28,28,28,1554.623365874424,1556.6247004109791,left,1,3,0.7286900015951687,M23B10,2023-01-11_16h21.03.649,t1_Paradigm,2021.1.4,60.058282131774995,
D,right,Target,0,29,29,29,1558.1232774934579,1560.1246604711232,right,1,3,0.7807016390088393,M23B10,2023-01-11_16h21.03.649,t1_Paradigm,2021.1.4,60.058282131774995,
G,right,Target,0,30,30,30,1561.6232773330557,1563.6251825764703,left,0,3,1.1680094906096201,M23B10,2023-01-11_16h21.03.649,t1_Paradigm,2021.1.4,60.058282131774995,
B,left,Pretarget,0,31,31,31,1565.1234452729332,1567.1246569423001,left,1,3,0.9806909242215625,M23B10,2023-01-11_16h21.03.649,t1_Paradigm,2021.1.4,60.058282131774995,
N,left,Distractor,0,32,32,32,1568.622959739021,1570.6241242504857,left,1,3,0.9370733934156306,M23B10,2023-01-11_16h21.03.649,t1_Paradigm,2021.1.4,60.058282131774995,
F,left,Distractor,0,33,33,33,1572.1230096237396,1574.1233147064959,left,1,3,0.7980445189841703,M23B10,2023-01-11_16h21.03.649,t1_Paradigm,2021.1.4,60.058282131774995,
B,right,Target,0,34,34,34,1575.623127197694,1577.625936140501,left,0,3,1.1192504652426578,M23B10,2023-01-11_16h21.03.649,t1_Paradigm,2021.1.4,60.058282131774995,
Q,left,Pretarget,0,35,35,35,1579.1232271275348,1581.124788471143,left,1,3,1.3323640833878017,M23B10,2023-01-11_16h21.03.649,t1_Paradigm,2021.1.4,60.058282131774995,
S,left,Pretarget,0,36,36,36,1582.623182375648,1584.6238210925421,left,1,3,0.8894336464254593,M23B10,2023-01-11_16h21.03.649,t1_Paradigm,2021.1.4,60.058282131774995,
W,left,Distractor,0,37,37,37,1586.1232819846864,1588.1240791777964,left,1,3,0.8133320201850438,M23B10,2023-01-11_16h21.03.649,t1_Paradigm,2021.1.4,60.058282131774995,
Q,right,Target,0,38,38,38,1589.6232930523565,1591.6255877494677,right,1,3,1.023420795736456,M23B10,2023-01-11_16h21.03.649,t1_Paradigm,2021.1.4,60.058282131774995,
S,right,Target,0,39,39,39,1593.1229518793698,1595.1258243409848,left,0,3,0.9153554149943375,M23B10,2023-01-11_16h21.03.649,t1_Paradigm,2021.1.4,60.058282131774995,
T,left,Distractor,0,40,40,40,1596.6232523104954,1598.6254501253843,left,1,3,1.1757619931049703,M23B10,2023-01-11_16h21.03.649,t1_Paradigm,2021.1.4,60.058282131774995,
G,left,Distractor,0,41,41,41,1600.1232707566141,1602.1227892327279,left,1,3,0.8626360882426525,M23B10,2023-01-11_16h21.03.649,t1_Paradigm,2021.1.4,60.058282131774995,
D,left,Distractor,0,42,42,42,1603.623094155082,1605.6253298246138,left,1,3,1.0236646052999276,M23B10,2023-01-11_16h21.03.649,t1_Paradigm,2021.1.4,60.058282131774995,
S,left,Lure,0,43,43,43,1607.1229650322548,1609.125278977488,None,0,3,,M23B10,2023-01-11_16h21.03.649,t1_Paradigm,2021.1.4,60.058282131774995,
Z,left,Pretarget,0,44,44,44,1610.6228307765941,1612.6251658947622,left,1,3,1.2560613142559305,M23B10,2023-01-11_16h21.03.649,t1_Paradigm,2021.1.4,60.058282131774995,
J,left,Distractor,0,45,45,45,1614.1232271275348,1616.1257752582696,left,1,3,1.131345985979351,M23B10,2023-01-11_16h21.03.649,t1_Paradigm,2021.1.4,60.058282131774995,
M,left,Pretarget,0,46,46,46,1617.6230001600798,1619.6259281204493,left,1,3,0.7832558649843122,M23B10,2023-01-11_16h21.03.649,t1_Paradigm,2021.1.4,60.058282131774995,
Z,right,Target,0,47,47,47,1621.1233047616315,1623.125137503781,right,1,3,1.124114786825885,M23B10,2023-01-11_16h21.03.649,t1_Paradigm,2021.1.4,60.058282131774995,
P,left,Distractor,0,48,48,48,1624.6228015836077,1626.6253516391535,left,1,3,0.8079977235884144,M23B10,2023-01-11_16h21.03.649,t1_Paradigm,2021.1.4,60.058282131774995,
M,right,Target,0,49,49,49,1628.1233538443466,1630.1247618445723,right,1,3,0.9565990105820674,M23B10,2023-01-11_16h21.03.649,t1_Paradigm,2021.1.4,60.058282131774995,
K,left,Distractor,0,50,50,50,1631.6232946563669,1633.6247549473283,left,1,3,0.7525214239631168,M23B10,2023-01-11_16h21.03.649,t1_Paradigm,2021.1.4,60.058282131774995,
Y,left,Distractor,0,51,51,51,1635.123410626311,1637.1253559699817,None,0,3,,M23B10,2023-01-11_16h21.03.649,t1_Paradigm,2021.1.4,60.058282131774995,
X,left,Distractor,0,52,52,52,1638.6233732528708,1640.623259688944,left,1,3,1.2099886853102362,M23B10,2023-01-11_16h21.03.649,t1_Paradigm,2021.1.4,60.058282131774995,
F,left,Pretarget,0,53,53,53,1642.1230821250047,1644.1249976340841,left,1,3,0.9403555192548083,M23B10,2023-01-11_16h21.03.649,t1_Paradigm,2021.1.4,60.058282131774995,
M,left,Lure,0,54,54,54,1645.6233302653964,1647.6232397992153,left,1,3,0.7859284669157205,M23B10,2023-01-11_16h21.03.649,t1_Paradigm,2021.1.4,60.058282131774995,
V,left,Distractor,0,55,55,55,1649.1233448618896,1651.1232524708976,left,1,3,0.9821159269558848,M23B10,2023-01-11_16h21.03.649,t1_Paradigm,2021.1.4,60.058282131774995,
F,right,Target,0,56,56,56,1652.6233565711645,1654.6258998898684,None,0,3,,M23B10,2023-01-11_16h21.03.649,t1_Paradigm,2021.1.4,60.058282131774995,
S,left,Distractor,0,57,57,57,1656.1233551275545,1658.1250046917303,None,0,3,,M23B10,2023-01-11_16h21.03.649,t1_Paradigm,2021.1.4,60.058282131774995,
D,left,Distractor,0,58,58,58,1659.6232452528511,1661.624789273148,left,1,3,1.3285898471931432,M23B10,2023-01-11_16h21.03.649,t1_Paradigm,2021.1.4,60.058282131774995,
F,right,Target,0,59,59,59,1663.1233557691594,1665.1259157695695,right,1,3,0.6273989978781174,M23B10,2023-01-11_16h21.03.649,t1_Paradigm,2021.1.4,60.058282131774995,
V,left,Pretarget,0,60,60,60,1666.6232638593701,1668.6256195088718,left,1,3,0.8077218338203238,M23B10,2023-01-11_16h21.03.649,t1_Paradigm,2021.1.4,60.058282131774995,
J,left,Distractor,0,61,61,61,1670.1227055033905,1672.1247419548454,left,1,3,1.2286773299147171,M23B10,2023-01-11_16h21.03.649,t1_Paradigm,2021.1.4,60.058282131774995,
V,left,Lure,0,62,62,62,1673.6230075385265,1675.6250144761925,left,1,3,1.039954933727131,M23B10,2023-01-11_16h21.03.649,t1_Paradigm,2021.1.4,60.058282131774995,
V,right,Target,0,63,63,63,1677.1233564107642,1679.1234394984967,left,0,3,0.9819086888273887,M23B10,2023-01-11_16h21.03.649,t1_Paradigm,2021.1.4,60.058282131774995,
R,left,Distractor,0,0,0,0,1791.6902986570894,1793.7028766641197,None,0,4,,M23B10,2023-01-11_16h21.03.649,t1_Paradigm,2021.1.4,60.058282131774995,
F,left,Distractor,0,1,1,1,1795.1899055141694,1797.1910443614706,None,0,4,,M23B10,2023-01-11_16h21.03.649,t1_Paradigm,2021.1.4,60.058282131774995,
P,left,Pretarget,0,2,2,2,1798.690025975342,1800.6918112387866,None,0,4,,M23B10,2023-01-11_16h21.03.649,t1_Paradigm,2021.1.4,60.058282131774995,
H,left,Distractor,0,3,3,3,1802.1901403412758,1804.1911123715072,None,0,4,,M23B10,2023-01-11_16h21.03.649,t1_Paradigm,2021.1.4,60.058282131774995,
Z,left,Distractor,0,4,4,4,1805.6896596193928,1807.6915889229604,left,1,4,0.7817291679966729,M23B10,2023-01-11_16h21.03.649,t1_Paradigm,2021.1.4,60.058282131774995,
T,left,Distractor,0,5,5,5,1809.1897367722886,1811.1894576744999,left,1,4,1.0918010372806748,M23B10,2023-01-11_16h21.03.649,t1_Paradigm,2021.1.4,60.058282131774995,
P,right,Target,0,6,6,6,1812.6894061857693,1814.6905767924727,right,1,4,1.1106885791577952,M23B10,2023-01-11_16h21.03.649,t1_Paradigm,2021.1.4,60.058282131774995,
G,left,Distractor,0,7,7,7,1816.1900248525344,1818.1902141257488,left,1,4,0.9071355039013724,M23B10,2023-01-11_16h21.03.649,t1_Paradigm,2021.1.4,60.058282131774995,
L,left,Distractor,0,8,8,8,1819.6900083312285,1821.6899643813467,left,1,4,1.0712770841146266,M23B10,2023-01-11_16h21.03.649,t1_Paradigm,2021.1.4,60.058282131774995,
P,left,Lure,0,9,9,9,1823.1900530831153,1825.1920308277931,left,1,4,1.0893039140737528,M23B10,2023-01-11_16h21.03.649,t1_Paradigm,2021.1.4,60.058282131774995,
Q,left,Pretarget,0,10,10,10,1826.6901892635888,1828.689947378838,left,1,4,0.8392621296061407,M23B10,2023-01-11_16h21.03.649,t1_Paradigm,2021.1.4,60.058282131774995,
D,left,Distractor,0,11,11,11,1830.1899276495114,1832.1903578450692,left,1,4,0.7948458016799123,M23B10,2023-01-11_16h21.03.649,t1_Paradigm,2021.1.4,60.058282131774995,
M,left,Pretarget,0,12,12,12,1833.6900975141998,1835.6900442610586,left,1,4,0.6872013132360735,M23B10,2023-01-11_16h21.03.649,t1_Paradigm,2021.1.4,60.058282131774995,
C,left,Distractor,0,13,13,13,1837.1895407622324,1839.191957684925,left,1,4,0.6416041129396035,M23B10,2023-01-11_16h21.03.649,t1_Paradigm,2021.1.4,60.058282131774995,
Q,right,Target,0,14,14,14,1840.6900352786015,1842.7026902781254,left,0,4,1.0667252237362845,M23B10,2023-01-11_16h21.03.649,t1_Paradigm,2021.1.4,60.058282131774995,
R,left,Distractor,0,15,15,15,1844.1898548274457,1846.1918274392901,left,1,4,1.1296454142793664,M23B10,2023-01-11_16h21.03.649,t1_Paradigm,2021.1.4,60.058282131774995,
M,right,Target,0,16,16,16,1847.6901151583133,1849.6896374840526,left,0,4,1.231775956977799,M23B10,2023-01-11_16h21.03.649,t1_Paradigm,2021.1.4,60.058282131774995,
S,left,Distractor,0,17,17,17,1851.1898994189305,1853.191548020699,left,1,4,1.0420010092439043,M23B10,2023-01-11_16h21.03.649,t1_Paradigm,2021.1.4,60.058282131774995,
Z,left,Distractor,0,18,18,18,1854.6899624565358,1856.6904324315474,left,1,4,0.9186025734106806,M23B10,2023-01-11_16h21.03.649,t1_Paradigm,2021.1.4,60.058282131774995,
L,left,Pretarget,0,19,19,19,1858.189960371321,1860.192583890539,left,1,4,1.000656681810142,M23B10,2023-01-11_16h21.03.649,t1_Paradigm,2021.1.4,60.058282131774995,
M,right,Target,0,20,20,20,1861.6896512785406,1863.6915424066628,right,1,4,0.9414590783289896,M23B10,2023-01-11_16h21.03.649,t1_Paradigm,2021.1.4,60.058282131774995,
P,left,Distractor,0,21,21,21,1865.1899013437433,1867.18952953416,left,1,4,1.4440339960347046,M23B10,2023-01-11_16h21.03.649,t1_Paradigm,2021.1.4,60.058282131774995,
F,left,Distractor,0,22,22,22,1868.6900195593007,1870.691172842693,left,1,4,1.1742266344626842,M23B10,2023-01-11_16h21.03.649,t1_Paradigm,2021.1.4,60.058282131774995,
L,right,Target,0,23,23,23,1872.1899667873622,1874.1914241911054,left,0,4,1.065844301288962,M23B10,2023-01-11_16h21.03.649,t1_Paradigm,2021.1.4,60.058282131774995,
L,left,Lure,0,24,24,24,1875.6900227673214,1877.690062546777,left,1,4,1.151157437780057,M23B10,2023-01-11_16h21.03.649,t1_Paradigm,2021.1.4,60.058282131774995,
V,left,Pretarget,0,25,25,25,1879.1899629377385,1881.1902513387868,left,1,4,1.1550083456659195,M23B10,2023-01-11_16h21.03.649,t1_Paradigm,2021.1.4,60.058282131774995,
Z,left,Distractor,0,26,26,26,1882.690141784884,1884.692093544596,left,1,4,1.1091910751583782,M23B10,2023-01-11_16h21.03.649,t1_Paradigm,2021.1.4,60.058282131774995,
H,left,Distractor,0,27,27,27,1886.1899468976353,1888.1919034693783,left,1,4,0.921498453573804,M23B10,2023-01-11_16h21.03.649,t1_Paradigm,2021.1.4,60.058282131774995,
X,left,Distractor,0,28,28,28,1889.6900189176977,1891.6926578354141,left,1,4,0.7165893480232626,M23B10,2023-01-11_16h21.03.649,t1_Paradigm,2021.1.4,60.058282131774995,
V,right,Target,0,29,29,29,1893.1899186670544,1895.1902105969257,right,1,4,1.2350327394524356,M23B10,2023-01-11_16h21.03.649,t1_Paradigm,2021.1.4,60.058282131774995,
C,left,Distractor,0,30,30,30,1896.6898973337175,1898.7028413758944,None,0,4,,M23B10,2023-01-11_16h21.03.649,t1_Paradigm,2021.1.4,60.058282131774995,
S,left,Pretarget,0,31,31,31,1900.1895593687514,1902.1908682411413,left,1,4,1.2265908333374682,M23B10,2023-01-11_16h21.03.649,t1_Paradigm,2021.1.4,60.058282131774995,
D,left,Distractor,0,32,32,32,1903.6899765718263,1905.691263308874,None,0,4,,M23B10,2023-01-11_16h21.03.649,t1_Paradigm,2021.1.4,60.058282131774995,
V,left,Distractor,0,33,33,33,1907.1900822761036,1909.1917523716093,right,0,4,1.1056237562897877,M23B10,2023-01-11_16h21.03.649,t1_Paradigm,2021.1.4,60.058282131774995,
R,left,Distractor,0,34,34,34,1910.6900317497784,1912.689487348689,left,1,4,1.1277173939197382,M23B10,2023-01-11_16h21.03.649,t1_Paradigm,2021.1.4,60.058282131774995,
S,right,Target,0,35,35,35,1914.1894637697387,1916.1920157500972,None,0,4,,M23B10,2023-01-11_16h21.03.649,t1_Paradigm,2021.1.4,60.058282131774995,
Y,left,Distractor,0,36,36,36,1917.6897042108794,1919.6920553691507,None,0,4,,M23B10,2023-01-11_16h21.03.649,t1_Paradigm,2021.1.4,60.058282131774995,
N,left,Pretarget,0,37,37,37,1921.189461844926,1923.189479168237,None,0,4,,M23B10,2023-01-11_16h21.03.649,t1_Paradigm,2021.1.4,60.058282131774995,
Z,left,Pretarget,0,38,38,38,1924.6899855542833,1926.6919421260245,left,1,4,0.9330710669601103,M23B10,2023-01-11_16h21.03.649,t1_Paradigm,2021.1.4,60.058282131774995,
P,left,Pretarget,0,39,39,39,1928.1897496043712,1930.1907774541596,left,1,4,0.8265885235632595,M23B10,2023-01-11_16h21.03.649,t1_Paradigm,2021.1.4,60.058282131774995,
M,left,Distractor,0,40,40,40,1931.6900708876292,1933.6920402914548,left,1,4,0.7652145989322889,M23B10,2023-01-11_16h21.03.649,t1_Paradigm,2021.1.4,60.058282131774995,
N,right,Target,0,41,41,41,1935.1898910780765,1937.1897303562473,left,0,4,0.7396187652520894,M23B10,2023-01-11_16h21.03.649,t1_Paradigm,2021.1.4,60.058282131774995,
Z,right,Target,0,42,42,42,1938.6901010430229,1940.6918683415515,left,0,4,0.8693799890734226,M23B10,2023-01-11_16h21.03.649,t1_Paradigm,2021.1.4,60.058282131774995,
P,right,Target,0,43,43,43,1942.189903910159,1944.1894271983037,left,0,4,0.5879310416730732,M23B10,2023-01-11_16h21.03.649,t1_Paradigm,2021.1.4,60.058282131774995,
X,left,Pretarget,0,44,44,44,1945.6899345467555,1947.6913531334503,left,1,4,0.5419880167592055,M23B10,2023-01-11_16h21.03.649,t1_Paradigm,2021.1.4,60.058282131774995,
Z,left,Lure,0,45,45,45,1949.1900919001655,1951.1912923414602,left,1,4,0.7380028852949181,M23B10,2023-01-11_16h21.03.649,t1_Paradigm,2021.1.4,60.058282131774995,
R,left,Pretarget,0,46,46,46,1952.6899627773364,1954.6917547776247,left,1,4,1.1576389225283492,M23B10,2023-01-11_16h21.03.649,t1_Paradigm,2021.1.4,60.058282131774995,
K,left,Distractor,0,47,47,47,1956.1899562008948,1958.192422527105,None,0,4,,M23B10,2023-01-11_16h21.03.649,t1_Paradigm,2021.1.4,60.058282131774995,
X,right,Target,0,48,48,48,1959.690123178365,1961.6921416649038,left,0,4,1.2292801169787708,M23B10,2023-01-11_16h21.03.649,t1_Paradigm,2021.1.4,60.058282131774995,
B,left,Distractor,0,49,49,49,1963.1900453838662,1965.1919069981996,left,1,4,1.0416744327503693,M23B10,2023-01-11_16h21.03.649,t1_Paradigm,2021.1.4,60.058282131774995,
R,right,Target,0,50,50,50,1966.6899624565358,1968.6920139856866,left,0,4,0.7733940889665973,M23B10,2023-01-11_16h21.03.649,t1_Paradigm,2021.1.4,60.058282131774995,
Y,left,Pretarget,0,51,51,51,1970.1896565717743,1972.1917286322569,left,1,4,0.7296087786835415,M23B10,2023-01-11_16h21.03.649,t1_Paradigm,2021.1.4,60.058282131774995,
W,left,Pretarget,0,52,52,52,1973.6899489828484,1975.691545935486,left,1,4,0.7657391102929978,M23B10,2023-01-11_16h21.03.649,t1_Paradigm,2021.1.4,60.058282131774995,
Z,left,Distractor,0,53,53,53,1977.1894515792592,1979.1919615345505,left,1,4,0.9454379862363567,M23B10,2023-01-11_16h21.03.649,t1_Paradigm,2021.1.4,60.058282131774995,
Q,left,Distractor,0,54,54,54,1980.6899913287198,1982.692107980689,left,1,4,0.8372535879298084,M23B10,2023-01-11_16h21.03.649,t1_Paradigm,2021.1.4,60.058282131774995,
Y,right,Target,0,55,55,55,1984.189973524206,1986.191912131033,left,0,4,0.7777159342713276,M23B10,2023-01-11_16h21.03.649,t1_Paradigm,2021.1.4,60.058282131774995,
W,right,Target,0,56,56,56,1987.6899663061595,1989.7028028796467,left,0,4,0.7867583818369894,M23B10,2023-01-11_16h21.03.649,t1_Paradigm,2021.1.4,60.058282131774995,
H,left,Pretarget,0,57,57,57,1991.1902327322678,1993.1920872889568,left,1,4,0.6732736919529998,M23B10,2023-01-11_16h21.03.649,t1_Paradigm,2021.1.4,60.058282131774995,
M,left,Distractor,0,58,58,58,1994.6899140154237,1996.7027983884182,left,1,4,0.5866754224243778,M23B10,2023-01-11_16h21.03.649,t1_Paradigm,2021.1.4,60.058282131774995,
R,left,Pretarget,0,59,59,59,1998.189950105656,2000.191175569511,left,1,4,0.41015377004987386,M23B10,2023-01-11_16h21.03.649,t1_Paradigm,2021.1.4,60.058282131774995,
J,left,Distractor,0,60,60,60,2001.6900346369985,2003.6917688929152,left,1,4,0.7015344283154263,M23B10,2023-01-11_16h21.03.649,t1_Paradigm,2021.1.4,60.058282131774995,
H,right,Target,0,61,61,61,2005.1896751782933,2007.1917334442878,left,0,4,0.7855845671110728,M23B10,2023-01-11_16h21.03.649,t1_Paradigm,2021.1.4,60.058282131774995,
Z,left,Distractor,0,62,62,62,2008.6899403211937,2010.6918154092127,left,1,4,1.3653627453204535,M23B10,2023-01-11_16h21.03.649,t1_Paradigm,2021.1.4,60.058282131774995,
R,right,Target,0,63,63,63,2012.1896995592488,2014.1924533241017,right,1,4,1.0808706696134323,M23B10,2023-01-11_16h21.03.649,t1_Paradigm,2021.1.4,60.058282131774995,
J,left,Pretarget,0,0,0,0,2055.085113918414,2057.0915514532808,None,0,4,,M23B10,2023-01-11_16h21.03.649,t1_Paradigm,2021.1.4,60.058282131774995,
G,left,Pretarget,0,1,1,1,2058.590055713692,2060.5916645360066,None,0,4,,M23B10,2023-01-11_16h21.03.649,t1_Paradigm,2021.1.4,60.058282131774995,
Z,left,Distractor,0,2,2,2,2062.0897838339497,2064.0912829419594,None,0,4,,M23B10,2023-01-11_16h21.03.649,t1_Paradigm,2021.1.4,60.058282131774995,
F,left,Distractor,0,3,3,3,2065.5893906910296,2067.590723944377,None,0,4,,M23B10,2023-01-11_16h21.03.649,t1_Paradigm,2021.1.4,60.058282131774995,
J,right,Target,0,4,4,4,2069.0899326861036,2071.0919030523346,right,1,4,0.8533924977873539,M23B10,2023-01-11_16h21.03.649,t1_Paradigm,2021.1.4,60.058282131774995,
G,right,Target,0,5,5,5,2072.5894933476884,2074.5911506111115,right,1,4,1.3382633124037966,M23B10,2023-01-11_16h21.03.649,t1_Paradigm,2021.1.4,60.058282131774995,
H,left,Distractor,0,6,6,6,2076.0897078038633,2078.091602140006,left,1,4,0.8137859550934081,M23B10,2023-01-11_16h21.03.649,t1_Paradigm,2021.1.4,60.058282131774995,
P,left,Distractor,0,7,7,7,2079.5901381598214,2081.592659984786,left,1,4,0.7686404440919432,M23B10,2023-01-11_16h21.03.649,t1_Paradigm,2021.1.4,60.058282131774995,
G,left,Lure,0,8,8,8,2083.0890078137745,2085.0911382602317,None,0,4,,M23B10,2023-01-11_16h21.03.649,t1_Paradigm,2021.1.4,60.058282131774995,
S,left,Distractor,0,9,9,9,2086.5902664806435,2088.591355603625,left,1,4,0.8260255159548251,M23B10,2023-01-11_16h21.03.649,t1_Paradigm,2021.1.4,60.058282131774995,
R,left,Pretarget,0,10,10,10,2090.089555743687,2092.0894803552037,left,1,4,0.7198037846301304,M23B10,2023-01-11_16h21.03.649,t1_Paradigm,2021.1.4,60.058282131774995,
T,left,Pretarget,0,11,11,11,2093.5902623102174,2095.5900175382485,left,1,4,0.7872803267819108,M23B10,2023-01-11_16h21.03.649,t1_Paradigm,2021.1.4,60.058282131774995,
X,left,Distractor,0,12,12,12,2097.0899201748234,2099.0919505310394,left,1,4,0.8060507759073516,M23B10,2023-01-11_16h21.03.649,t1_Paradigm,2021.1.4,60.058282131774995,
F,left,Pretarget,0,13,13,13,2100.5897746910905,2102.591358490845,left,1,4,1.2740740289245878,M23B10,2023-01-11_16h21.03.649,t1_Paradigm,2021.1.4,60.058282131774995,
R,right,Target,0,14,14,14,2104.0900180194512,2106.091764786648,None,0,4,,M23B10,2023-01-11_16h21.03.649,t1_Paradigm,2021.1.4,60.058282131774995,
T,right,Target,0,15,15,15,2107.589271673467,2109.59033449068,None,0,4,,M23B10,2023-01-11_16h21.03.649,t1_Paradigm,2021.1.4,60.058282131774995,
C,left,Distractor,0,16,16,16,2111.0898929066498,2113.09190690196,left,1,4,0.8214418961706542,M23B10,2023-01-11_16h21.03.649,t1_Paradigm,2021.1.4,60.058282131774995,
F,right,Target,0,17,17,17,2114.5893319842526,2116.5922525661754,right,1,4,1.305138575260571,M23B10,2023-01-11_16h21.03.649,t1_Paradigm,2021.1.4,60.058282131774995,
M,left,Distractor,0,18,18,18,2118.089934290114,2120.0906997238217,left,1,4,0.9747329884285136,M23B10,2023-01-11_16h21.03.649,t1_Paradigm,2021.1.4,60.058282131774995,
N,left,Distractor,0,19,19,19,2121.5896486158836,2123.591538460798,left,1,4,1.0097902371599048,M23B10,2023-01-11_16h21.03.649,t1_Paradigm,2021.1.4,60.058282131774995,
R,left,Lure,0,20,20,20,2125.089968936736,2127.090059723718,left,1,4,0.8873022375628352,M23B10,2023-01-11_16h21.03.649,t1_Paradigm,2021.1.4,60.058282131774995,
F,right,Target,0,21,21,21,2128.5901596535587,2130.5914402953676,left,0,4,1.2740127557317464,M23B10,2023-01-11_16h21.03.649,t1_Paradigm,2021.1.4,60.058282131774995,
P,left,Distractor,0,22,22,22,2132.0899381397394,2134.0915389420006,left,1,4,0.8617679978760862,M23B10,2023-01-11_16h21.03.649,t1_Paradigm,2021.1.4,60.058282131774995,
L,left,Pretarget,0,23,23,23,2135.5902751423,2137.5914707715638,left,1,4,1.265810167949894,M23B10,2023-01-11_16h21.03.649,t1_Paradigm,2021.1.4,60.058282131774995,
T,left,Distractor,0,24,24,24,2139.0899962049116,2141.0922161551425,left,1,4,1.4612055677116587,M23B10,2023-01-11_16h21.03.649,t1_Paradigm,2021.1.4,60.058282131774995,
F,left,Distractor,0,25,25,25,2142.5894243752464,2144.5907816887466,right,0,4,1.3705180343695247,M23B10,2023-01-11_16h21.03.649,t1_Paradigm,2021.1.4,60.058282131774995,
V,left,Distractor,0,26,26,26,2146.0898961146704,2148.091967533548,None,0,4,,M23B10,2023-01-11_16h21.03.649,t1_Paradigm,2021.1.4,60.058282131774995,
L,right,Target,0,27,27,27,2149.590104154804,2151.5910761850337,right,1,4,1.1063054606602236,M23B10,2023-01-11_16h21.03.649,t1_Paradigm,2021.1.4,60.058282131774995,
S,left,Pretarget,0,28,28,28,2153.089862751256,2155.0899788816005,left,1,4,1.1753930707400286,M23B10,2023-01-11_16h21.03.649,t1_Paradigm,2021.1.4,60.058282131774995,
W,left,Distractor,0,29,29,29,2156.589570981785,2158.5907800847363,left,1,4,0.5385422818726511,M23B10,2023-01-11_16h21.03.649,t1_Paradigm,2021.1.4,60.058282131774995,
Q,left,Distractor,0,30,30,30,2160.0899445557807,2162.091734310454,left,1,4,0.5254718436844996,M23B10,2023-01-11_16h21.03.649,t1_Paradigm,2021.1.4,60.058282131774995,
L,right,Target,0,31,31,31,2163.589376575739,2165.5916340598105,right,1,4,0.5618902555397653,M23B10,2023-01-11_16h21.03.649,t1_Paradigm,2021.1.4,60.058282131774995,
S,right,Target,0,32,32,32,2167.09006004452,2169.09253567399,left,0,4,0.6449019580795721,M23B10,2023-01-11_16h21.03.649,t1_Paradigm,2021.1.4,60.058282131774995,
Z,left,Pretarget,0,33,33,33,2170.589102610784,2172.5907871423806,left,1,4,0.874662315734895,M23B10,2023-01-11_16h21.03.649,t1_Paradigm,2021.1.4,60.058282131774995,
F,left,Distractor,0,34,34,34,2174.0900051873687,2176.0921773380924,left,1,4,0.4933996580894018,M23B10,2023-01-11_16h21.03.649,t1_Paradigm,2021.1.4,60.058282131774995,
V,left,Distractor,0,35,35,35,2177.590182751306,2179.5904624907,left,1,4,0.8992646254446299,M23B10,2023-01-11_16h21.03.649,t1_Paradigm,2021.1.4,60.058282131774995,
M,left,Distractor,0,36,36,36,2181.0898649968694,2183.0917333480465,left,1,4,1.2056601031636092,M23B10,2023-01-11_16h21.03.649,t1_Paradigm,2021.1.4,60.058282131774995,
Z,right,Target,0,37,37,37,2184.590254290166,2186.589866761282,left,0,4,0.8594957569130202,M23B10,2023-01-11_16h21.03.649,t1_Paradigm,2021.1.4,60.058282131774995,
H,left,Pretarget,0,38,38,38,2188.089992355286,2190.0890023601405,left,1,4,0.7362965391548641,M23B10,2023-01-11_16h21.03.649,t1_Paradigm,2021.1.4,60.058282131774995,
L,left,Distractor,0,39,39,39,2191.5899046159248,2193.589598570763,left,1,4,0.8517086077936256,M23B10,2023-01-11_16h21.03.649,t1_Paradigm,2021.1.4,60.058282131774995,
G,left,Distractor,0,40,40,40,2195.089355884007,2197.0904665007256,left,1,4,1.2388165997090255,M23B10,2023-01-11_16h21.03.649,t1_Paradigm,2021.1.4,60.058282131774995,
K,left,Distractor,0,41,41,41,2198.589089457899,2200.590363362864,left,1,4,0.8109507065200887,M23B10,2023-01-11_16h21.03.649,t1_Paradigm,2021.1.4,60.058282131774995,
H,right,Target,0,42,42,42,2202.089995884109,2204.091113558474,right,1,4,1.0382517956095398,M23B10,2023-01-11_16h21.03.649,t1_Paradigm,2021.1.4,60.058282131774995,
B,left,Distractor,0,43,43,43,2205.5891093476257,2207.591280535944,left,1,4,1.1061482676523156,M23B10,2023-01-11_16h21.03.649,t1_Paradigm,2021.1.4,60.058282131774995,
Z,left,Distractor,0,44,44,44,2209.0897389216625,2211.0912620898252,right,0,4,0.9180450194362493,M23B10,2023-01-11_16h21.03.649,t1_Paradigm,2021.1.4,60.058282131774995,
T,left,Pretarget,0,45,45,45,2212.5893823501756,2214.5914803956257,left,1,4,0.649832044084178,M23B10,2023-01-11_16h21.03.649,t1_Paradigm,2021.1.4,60.058282131774995,
H,right,Target,0,46,46,46,2216.0900892375084,2218.0909987113373,right,1,4,0.46248396390728885,M23B10,2023-01-11_16h21.03.649,t1_Paradigm,2021.1.4,60.058282131774995,
F,left,Distractor,0,47,47,47,2219.5901686360157,2221.590624816541,left,1,4,0.7226897199288942,M23B10,2023-01-11_16h21.03.649,t1_Paradigm,2021.1.4,60.058282131774995,
R,left,Distractor,0,48,48,48,2223.089948726207,2225.091935774144,left,1,4,1.1574990528333728,M23B10,2023-01-11_16h21.03.649,t1_Paradigm,2021.1.4,60.058282131774995,
T,right,Target,0,49,49,49,2226.590411803976,2228.6025034750874,left,0,4,0.8469482260770747,M23B10,2023-01-11_16h21.03.649,t1_Paradigm,2021.1.4,60.058282131774995,
H,right,Target,0,50,50,50,2230.089856656017,2232.0919341701338,left,0,4,1.0374462616455276,M23B10,2023-01-11_16h21.03.649,t1_Paradigm,2021.1.4,60.058282131774995,
Y,left,Pretarget,0,51,51,51,2233.5890339591424,2235.591508947009,left,1,4,0.7218944516316697,M23B10,2023-01-11_16h21.03.649,t1_Paradigm,2021.1.4,60.058282131774995,
H,left,Distractor,0,52,52,52,2237.0901251673386,2239.0908174581764,left,1,4,0.7586169838396017,M23B10,2023-01-11_16h21.03.649,t1_Paradigm,2021.1.4,60.058282131774995,
S,left,Distractor,0,53,53,53,2240.5901022299913,2242.5919118743914,left,1,4,1.321422808448915,M23B10,2023-01-11_16h21.03.649,t1_Paradigm,2021.1.4,60.058282131774995,
Q,left,Distractor,0,54,54,54,2244.0901360746084,2246.092041318021,left,1,4,0.9893689406508202,M23B10,2023-01-11_16h21.03.649,t1_Paradigm,2021.1.4,60.058282131774995,
Y,right,Target,0,55,55,55,2247.590013688623,2249.5909491474195,right,1,4,1.1383792502656433,M23B10,2023-01-11_16h21.03.649,t1_Paradigm,2021.1.4,60.058282131774995,
R,left,Distractor,0,56,56,56,2251.089957067061,2253.0915857791006,left,1,4,0.5976131685401924,M23B10,2023-01-11_16h21.03.649,t1_Paradigm,2021.1.4,60.058282131774995,
H,left,Pretarget,0,57,57,57,2254.5894734579597,2256.5908272426386,left,1,4,1.1626893093034596,M23B10,2023-01-11_16h21.03.649,t1_Paradigm,2021.1.4,60.058282131774995,
J,left,Distractor,0,58,58,58,2258.0901989518115,2260.091945398206,left,1,4,0.7333448394347215,M23B10,2023-01-11_16h21.03.649,t1_Paradigm,2021.1.4,60.058282131774995,
V,left,Distractor,0,59,59,59,2261.5895953627423,2263.5897769367057,left,1,4,0.5956277246114041,M23B10,2023-01-11_16h21.03.649,t1_Paradigm,2021.1.4,60.058282131774995,
Y,left,Lure,0,60,60,60,2265.0898402951116,2267.091899202711,left,1,4,1.0455352854987723,M23B10,2023-01-11_16h21.03.649,t1_Paradigm,2021.1.4,60.058282131774995,
H,right,Target,0,61,61,61,2268.5900685457746,2270.590284124757,left,0,4,0.8109548769443791,M23B10,2023-01-11_16h21.03.649,t1_Paradigm,2021.1.4,60.058282131774995,
L,left,Distractor,0,62,62,62,2272.0896189416926,2274.090764846638,left,1,4,1.0065876702301466,M23B10,2023-01-11_16h21.03.649,t1_Paradigm,2021.1.4,60.058282131774995,
P,left,Distractor,0,63,63,63,2275.5889595330664,2277.591123984541,left,1,4,0.6263573536016338,M23B10,2023-01-11_16h21.03.649,t1_Paradigm,2021.1.4,60.058282131774995,
