Letter,CorrAnswer,Stimulus,finaln_nback_run.thisRepN,finaln_nback_run.thisTrialN,finaln_nback_run.thisN,finaln_nback_run.thisIndex,finaln_fixcross.started,finaln_nback_trial.started,finaln_trial_resp.keys,finaln_trial_resp.corr,finaln_level,finaln_money,finaln_trial_resp.rt,Participant,date,expName,psychopyVersion,frameRate,
T,left,Distractor,0,0,0,0,2698.1306723016605,2700.125296300799,None,0,0,3.0,,M23B10,2023-01-11_16h21.03.649,t1_Paradigm,2021.1.4,60.058282131774995,
F,left,Distractor,0,1,1,1,2701.62336844084,2703.624832902229,left,1,0,3.0,1.024339893629076,M23B10,2023-01-11_16h21.03.649,t1_Paradigm,2021.1.4,60.058282131774995,
G,left,Distractor,0,2,2,2,2705.1233904157816,2707.1250550576533,left,1,0,3.0,0.6285080105881207,M23B10,2023-01-11_16h21.03.649,t1_Paradigm,2021.1.4,60.058282131774995,
V,left,Distractor,0,3,3,3,2708.623259688944,2710.6253696040694,left,1,0,3.0,0.4721465218481171,M23B10,2023-01-11_16h21.03.649,t1_Paradigm,2021.1.4,60.058282131774995,
H,left,Distractor,0,4,4,4,2712.123376300491,2714.125210646649,left,1,0,3.0,0.7161848166306299,M23B10,2023-01-11_16h21.03.649,t1_Paradigm,2021.1.4,60.058282131774995,
C,left,Pretarget,0,5,5,5,2715.623265784183,2717.6250674085313,left,1,0,3.0,0.5124745483662991,M23B10,2023-01-11_16h21.03.649,t1_Paradigm,2021.1.4,60.058282131774995,
C,right,Target,0,6,6,6,2719.123285834312,2721.12336988445,right,1,0,3.0,0.8540716357420024,M23B10,2023-01-11_16h21.03.649,t1_Paradigm,2021.1.4,60.058282131774995,
C,right,Target,0,7,7,7,2722.6232449320487,2724.6233001100027,right,1,0,3.0,0.7780781197925535,M23B10,2023-01-11_16h21.03.649,t1_Paradigm,2021.1.4,60.058282131774995,
W,left,Distractor,0,8,8,8,2726.1232861551125,2728.1254977644912,left,1,0,3.0,0.7158669017935608,M23B10,2023-01-11_16h21.03.649,t1_Paradigm,2021.1.4,60.058282131774995,
R,left,Pretarget,0,9,9,9,2729.623289844336,2731.6252454536734,left,1,0,3.0,0.7042079926559381,M23B10,2023-01-11_16h21.03.649,t1_Paradigm,2021.1.4,60.058282131774995,
R,right,Target,0,10,10,10,2733.12326081175,2735.123018285396,right,1,0,3.0,0.7584921918387408,M23B10,2023-01-11_16h21.03.649,t1_Paradigm,2021.1.4,60.058282131774995,
Z,left,Distractor,0,11,11,11,2736.6232805410764,2738.622962305437,left,1,0,3.0,0.4904768305532343,M23B10,2023-01-11_16h21.03.649,t1_Paradigm,2021.1.4,60.058282131774995,
R,left,Lure,0,12,12,12,2740.1233233681523,2742.1244150575494,left,1,0,3.0,0.6369396510381193,M23B10,2023-01-11_16h21.03.649,t1_Paradigm,2021.1.4,60.058282131774995,
H,left,Pretarget,0,13,13,13,2743.623194886928,2745.625436972501,left,1,0,3.0,0.8158490331170469,M23B10,2023-01-11_16h21.03.649,t1_Paradigm,2021.1.4,60.058282131774995,
H,right,Target,0,14,14,14,2747.1228152176936,2749.1231170924293,right,1,0,3.0,0.6303773241706949,M23B10,2023-01-11_16h21.03.649,t1_Paradigm,2021.1.4,60.058282131774995,
K,left,Distractor,0,15,15,15,2750.6232455736535,2752.6252688722234,left,1,0,3.0,0.904196636261986,M23B10,2023-01-11_16h21.03.649,t1_Paradigm,2021.1.4,60.058282131774995,
J,left,Distractor,0,16,16,16,2754.1230048117104,2756.1239591978283,left,1,0,3.0,0.813562676861693,M23B10,2023-01-11_16h21.03.649,t1_Paradigm,2021.1.4,60.058282131774995,
H,left,Lure,0,17,17,17,2757.6232766914527,2759.624162425931,left,1,0,3.0,0.913375103900762,M23B10,2023-01-11_16h21.03.649,t1_Paradigm,2021.1.4,60.058282131774995,
S,left,Distractor,0,18,18,18,2761.1232842303016,2763.1252584461563,left,1,0,3.0,0.580305255989515,M23B10,2023-01-11_16h21.03.649,t1_Paradigm,2021.1.4,60.058282131774995,
T,left,Pretarget,0,19,19,19,2764.6232779746606,2766.625600260748,left,1,0,3.0,0.615742334353854,M23B10,2023-01-11_16h21.03.649,t1_Paradigm,2021.1.4,60.058282131774995,
T,right,Target,0,20,20,20,2768.123398435833,2770.1229371224763,right,1,0,3.0,0.7503698045711644,M23B10,2023-01-11_16h21.03.649,t1_Paradigm,2021.1.4,60.058282131774995,
X,left,Pretarget,0,21,21,21,2771.6227695034013,2773.624876852111,left,1,0,3.0,0.7205409877569764,M23B10,2023-01-11_16h21.03.649,t1_Paradigm,2021.1.4,60.058282131774995,
X,right,Target,0,22,22,22,2775.1233657140237,2777.123347749108,right,1,0,3.0,0.7421011315636861,M23B10,2023-01-11_16h21.03.649,t1_Paradigm,2021.1.4,60.058282131774995,
W,left,Distractor,0,23,23,23,2778.6229019946513,2780.62524032084,left,1,0,3.0,0.64815232451474,M23B10,2023-01-11_16h21.03.649,t1_Paradigm,2021.1.4,60.058282131774995,
K,left,Distractor,0,24,24,24,2782.123240922023,2784.124367258044,left,1,0,3.0,0.6530025308074983,M23B10,2023-01-11_16h21.03.649,t1_Paradigm,2021.1.4,60.058282131774995,
F,left,Pretarget,0,25,25,25,2785.6232529521003,2787.6234698142907,left,1,0,3.0,0.5620962104603677,M23B10,2023-01-11_16h21.03.649,t1_Paradigm,2021.1.4,60.058282131774995,
F,right,Target,0,26,26,26,2789.123293533561,2791.1230827666095,right,1,0,3.0,0.7104405350073648,M23B10,2023-01-11_16h21.03.649,t1_Paradigm,2021.1.4,60.058282131774995,
Z,left,Distractor,0,27,27,27,2792.6232702754114,2794.6227669369855,left,1,0,3.0,0.586561537693342,M23B10,2023-01-11_16h21.03.649,t1_Paradigm,2021.1.4,60.058282131774995,
F,left,Lure,0,28,28,28,2796.1232380348047,2798.124725914742,left,1,0,3.0,0.6206342449149815,M23B10,2023-01-11_16h21.03.649,t1_Paradigm,2021.1.4,60.058282131774995,
P,left,Distractor,0,29,29,29,2799.6228987866307,2801.6253474687273,left,1,0,3.0,0.5600867063785699,M23B10,2023-01-11_16h21.03.649,t1_Paradigm,2021.1.4,60.058282131774995,
F,left,Lure,0,30,30,30,2803.123341653869,2805.1251532230817,left,1,0,3.0,0.5320453986241773,M23B10,2023-01-11_16h21.03.649,t1_Paradigm,2021.1.4,60.058282131774995,
R,left,Distractor,0,31,31,31,2806.6233992378384,2808.6228076788466,left,1,0,3.0,0.5866587407163024,M23B10,2023-01-11_16h21.03.649,t1_Paradigm,2021.1.4,60.058282131774995,
V,left,Distractor,0,32,32,32,2810.123089182651,2812.125108631595,left,1,0,3.0,0.5721071594362002,M23B10,2023-01-11_16h21.03.649,t1_Paradigm,2021.1.4,60.058282131774995,
M,left,Pretarget,0,33,33,33,2813.622712721437,2815.625140872202,left,1,0,3.0,0.9444268181523512,M23B10,2023-01-11_16h21.03.649,t1_Paradigm,2021.1.4,60.058282131774995,
M,right,Target,0,34,34,34,2817.1232903255404,2819.12341832556,left,0,0,3.0,0.9499436511177919,M23B10,2023-01-11_16h21.03.649,t1_Paradigm,2021.1.4,60.058282131774995,
M,right,Target,0,35,35,35,2820.623314225293,2822.6232433280384,right,1,0,3.0,0.730293370272193,M23B10,2023-01-11_16h21.03.649,t1_Paradigm,2021.1.4,60.058282131774995,
D,left,Distractor,0,36,36,36,2824.1229846011793,2826.126042486383,left,1,0,3.0,0.5231078533306572,M23B10,2023-01-11_16h21.03.649,t1_Paradigm,2021.1.4,60.058282131774995,
M,left,Lure,0,37,37,37,2827.62327476664,2829.624506004933,left,1,0,3.0,0.6569400552489242,M23B10,2023-01-11_16h21.03.649,t1_Paradigm,2021.1.4,60.058282131774995,
F,left,Distractor,0,38,38,38,2831.1232226363063,2833.1244455337455,left,1,0,3.0,0.676940459459729,M23B10,2023-01-11_16h21.03.649,t1_Paradigm,2021.1.4,60.058282131774995,
T,left,Pretarget,0,39,39,39,2834.6232827866916,2836.625054897251,left,1,0,3.0,0.7922659115411079,M23B10,2023-01-11_16h21.03.649,t1_Paradigm,2021.1.4,60.058282131774995,
T,right,Target,0,40,40,40,2838.123258245334,2840.1232704358117,right,1,0,3.0,0.7983223335650109,M23B10,2023-01-11_16h21.03.649,t1_Paradigm,2021.1.4,60.058282131774995,
Z,left,Distractor,0,41,41,41,2841.623282465889,2843.625212731864,left,1,0,3.0,0.5284225810009957,M23B10,2023-01-11_16h21.03.649,t1_Paradigm,2021.1.4,60.058282131774995,
S,left,Distractor,0,42,42,42,2845.1231308869174,2847.124664320747,left,1,0,3.0,0.5807277522981167,M23B10,2023-01-11_16h21.03.649,t1_Paradigm,2021.1.4,60.058282131774995,
D,left,Distractor,0,43,43,43,2848.623279578671,2850.6252711178367,left,1,0,3.0,0.4402713087165466,M23B10,2023-01-11_16h21.03.649,t1_Paradigm,2021.1.4,60.058282131774995,
Y,left,Pretarget,0,44,44,44,2852.1233868869585,2854.1248760501057,left,1,0,3.0,0.3805690835997666,M23B10,2023-01-11_16h21.03.649,t1_Paradigm,2021.1.4,60.058282131774995,
Y,right,Target,0,45,45,45,2855.6227467264544,2857.6229180347527,right,1,0,3.0,0.6106957972042437,M23B10,2023-01-11_16h21.03.649,t1_Paradigm,2021.1.4,60.058282131774995,
Z,left,Pretarget,0,46,46,46,2859.123253433303,2861.124679719247,left,1,0,3.0,0.5812747198033321,M23B10,2023-01-11_16h21.03.649,t1_Paradigm,2021.1.4,60.058282131774995,
Z,right,Target,0,47,47,47,2862.6231756388042,2864.623373252871,right,1,0,3.0,0.969857117972424,M23B10,2023-01-11_16h21.03.649,t1_Paradigm,2021.1.4,60.058282131774995,
H,left,Pretarget,0,48,48,48,2866.1232848719046,2868.1240618544853,left,1,0,3.0,0.5411237760199583,M23B10,2023-01-11_16h21.03.649,t1_Paradigm,2021.1.4,60.058282131774995,
H,right,Target,0,49,49,49,2869.623426506012,2871.6234951576535,right,1,0,3.0,0.5939277945144568,M23B10,2023-01-11_16h21.03.649,t1_Paradigm,2021.1.4,60.058282131774995,
Z,left,Lure,0,50,50,50,2873.122773513427,2875.124652130269,left,1,0,3.0,0.8048102343545906,M23B10,2023-01-11_16h21.03.649,t1_Paradigm,2021.1.4,60.058282131774995,
R,left,Distractor,0,51,51,51,2876.6228426462694,2878.6250763909884,left,1,0,3.0,0.3603909550511162,M23B10,2023-01-11_16h21.03.649,t1_Paradigm,2021.1.4,60.058282131774995,
H,left,Lure,0,52,52,52,2880.122925252799,2882.1252497845016,left,1,0,3.0,0.9563067599101487,M23B10,2023-01-11_16h21.03.649,t1_Paradigm,2021.1.4,60.058282131774995,
L,left,Distractor,0,53,53,53,2883.6232545561106,2885.625804611658,left,1,0,3.0,0.7356193260147847,M23B10,2023-01-11_16h21.03.649,t1_Paradigm,2021.1.4,60.058282131774995,
N,left,Pretarget,0,54,54,54,2887.1232957791744,2889.1253091328817,left,1,0,3.0,0.32426543547080655,M23B10,2023-01-11_16h21.03.649,t1_Paradigm,2021.1.4,60.058282131774995,
N,right,Target,0,55,55,55,2890.62329818519,2892.6231791676273,right,1,0,3.0,0.6823847911600751,M23B10,2023-01-11_16h21.03.649,t1_Paradigm,2021.1.4,60.058282131774995,
W,left,Distractor,0,56,56,56,2894.12337148846,2896.1251455238325,left,1,0,3.0,0.6040587234583654,M23B10,2023-01-11_16h21.03.649,t1_Paradigm,2021.1.4,60.058282131774995,
R,left,Pretarget,0,57,57,57,2897.623130726517,2899.6228853129433,left,1,0,3.0,0.5627272281071782,M23B10,2023-01-11_16h21.03.649,t1_Paradigm,2021.1.4,60.058282131774995,
R,right,Target,0,58,58,58,2901.1233034784236,2903.12334806991,right,1,0,3.0,0.9020479040882492,M23B10,2023-01-11_16h21.03.649,t1_Paradigm,2021.1.4,60.058282131774995,
Q,left,Distractor,0,59,59,59,2904.622884350538,2906.6249791879654,left,1,0,3.0,0.6004343018230429,M23B10,2023-01-11_16h21.03.649,t1_Paradigm,2021.1.4,60.058282131774995,
R,left,Lure,0,60,60,60,2908.123296099977,2910.123426666414,left,1,0,3.0,0.4461403823370347,M23B10,2023-01-11_16h21.03.649,t1_Paradigm,2021.1.4,60.058282131774995,
Z,left,Distractor,0,61,61,61,2911.623299468398,2913.6222866963053,left,1,0,3.0,0.6272013838115527,M23B10,2023-01-11_16h21.03.649,t1_Paradigm,2021.1.4,60.058282131774995,
K,left,Pretarget,0,62,62,62,2915.1232393180126,2917.12547755396,left,1,0,3.0,0.5961153437383473,M23B10,2023-01-11_16h21.03.649,t1_Paradigm,2021.1.4,60.058282131774995,
K,right,Target,0,63,63,63,2918.623353363144,2920.623265142578,right,1,0,3.0,0.6502952822538646,M23B10,2023-01-11_16h21.03.649,t1_Paradigm,2021.1.4,60.058282131774995,
