Letter,CorrAnswer,Stimulus,nback_run.thisRepN,nback_run.thisTrialN,nback_run.thisN,nback_run.thisIndex,fixcross.started,nback_trial.started,trial_resp.keys,trial_resp.corr,currentlevel,trial_resp.rt,Participant,date,expName,psychopyVersion,frameRate,
H,left,Distractor,0,0,0,0,234.41131397918798,236.35987146105617,None,0,1,,M25R08,2022-10-21_09h11.15.393,t1_Paradigm,2021.1.4,59.81238040557512,
Q,left,Pretarget,0,1,1,1,237.8487489365507,239.8485535682412,left,1,1,0.482418128172867,M25R08,2022-10-21_09h11.15.393,t1_Paradigm,2021.1.4,59.81238040557512,
Q,right,Target,0,2,2,2,241.34709327772725,243.34674713236745,right,1,1,0.66446617920883,M25R08,2022-10-21_09h11.15.393,t1_Paradigm,2021.1.4,59.81238040557512,
T,left,Distractor,0,3,3,3,244.84672082657926,246.8466829720419,left,1,1,0.5723748455056921,M25R08,2022-10-21_09h11.15.393,t1_Paradigm,2021.1.4,59.81238040557512,
Q,left,Lure,0,4,4,4,248.34667783917394,250.3472966661211,left,1,1,0.751850064843893,M25R08,2022-10-21_09h11.15.393,t1_Paradigm,2021.1.4,59.81238040557512,
L,left,Distractor,0,5,5,5,251.84715647564735,253.84854298178107,left,1,1,0.7225756034022197,M25R08,2022-10-21_09h11.15.393,t1_Paradigm,2021.1.4,59.81238040557512,
V,left,Pretarget,0,6,6,6,255.34692485665437,257.34873514214996,left,1,1,0.6945195477455854,M25R08,2022-10-21_09h11.15.393,t1_Paradigm,2021.1.4,59.81238040557512,
V,right,Target,0,7,7,7,258.84715198446065,260.846828936832,right,1,1,0.54022086574696,M25R08,2022-10-21_09h11.15.393,t1_Paradigm,2021.1.4,59.81238040557512,
K,left,Distractor,0,8,8,8,262.3469514832832,264.3468356737867,left,1,1,0.576257832464762,M25R08,2022-10-21_09h11.15.393,t1_Paradigm,2021.1.4,59.81238040557512,
G,left,Pretarget,0,9,9,9,265.8468796235975,267.8494781194022,left,1,1,0.5140578623395413,M25R08,2022-10-21_09h11.15.393,t1_Paradigm,2021.1.4,59.81238040557512,
G,right,Target,0,10,10,10,269.34710226010066,271.34690721251536,right,1,1,0.5201053000055254,M25R08,2022-10-21_09h11.15.393,t1_Paradigm,2021.1.4,59.81238040557512,
G,right,Target,0,11,11,11,272.84717283654027,274.8467538692057,right,1,1,0.47634181834291667,M25R08,2022-10-21_09h11.15.393,t1_Paradigm,2021.1.4,59.81238040557512,
P,left,Pretarget,0,12,12,12,276.346822841675,278.34754657081794,left,1,1,0.6715071403887123,M25R08,2022-10-21_09h11.15.393,t1_Paradigm,2021.1.4,59.81238040557512,
P,right,Target,0,13,13,13,279.84715775889345,281.84715615492314,right,1,1,0.6118331650504842,M25R08,2022-10-21_09h11.15.393,t1_Paradigm,2021.1.4,59.81238040557512,
G,left,Lure,0,14,14,14,283.3470759544289,285.34666789427865,left,1,1,0.8244950256776065,M25R08,2022-10-21_09h11.15.393,t1_Paradigm,2021.1.4,59.81238040557512,
Y,left,Distractor,0,15,15,15,286.8471500596497,288.84909604431596,left,1,1,0.809967829962261,M25R08,2022-10-21_09h11.15.393,t1_Paradigm,2021.1.4,59.81238040557512,
B,left,Distractor,0,16,16,16,290.3468039142899,292.359851571382,left,1,1,0.6272149770520627,M25R08,2022-10-21_09h11.15.393,t1_Paradigm,2021.1.4,59.81238040557512,
T,left,Pretarget,0,17,17,17,293.84708557848353,295.8488044353435,left,1,1,0.45021282008383423,M25R08,2022-10-21_09h11.15.393,t1_Paradigm,2021.1.4,59.81238040557512,
T,right,Target,0,18,18,18,297.3471545508364,299.34682059602346,right,1,1,0.45623940555378795,M25R08,2022-10-21_09h11.15.393,t1_Paradigm,2021.1.4,59.81238040557512,
S,left,Distractor,0,19,19,19,300.84706408472266,302.8485773075372,left,1,1,0.5225004074163735,M25R08,2022-10-21_09h11.15.393,t1_Paradigm,2021.1.4,59.81238040557512,
T,left,Lure,0,20,20,20,304.3469380096067,306.34895777865313,left,1,1,0.7341761228162795,M25R08,2022-10-21_09h11.15.393,t1_Paradigm,2021.1.4,59.81238040557512,
J,left,Distractor,0,21,21,21,307.8471442852169,309.84871589392424,left,1,1,0.5145326491910964,M25R08,2022-10-21_09h11.15.393,t1_Paradigm,2021.1.4,59.81238040557512,
P,left,Distractor,0,22,22,22,311.347166099702,313.34740702202544,left,1,1,0.5835698712617159,M25R08,2022-10-21_09h11.15.393,t1_Paradigm,2021.1.4,59.81238040557512,
F,left,Distractor,0,23,23,23,314.8470618390711,316.8478317637928,left,1,1,0.5072552569909021,M25R08,2022-10-21_09h11.15.393,t1_Paradigm,2021.1.4,59.81238040557512,
L,left,Distractor,0,24,24,24,318.34687481157016,320.3472466210369,left,1,1,0.5117477675667033,M25R08,2022-10-21_09h11.15.393,t1_Paradigm,2021.1.4,59.81238040557512,
W,left,Pretarget,0,25,25,25,321.8471410771599,323.8478112324374,left,1,1,0.5155717268353328,M25R08,2022-10-21_09h11.15.393,t1_Paradigm,2021.1.4,59.81238040557512,
W,right,Target,0,26,26,26,325.34721486165654,327.34697714739013,right,1,1,0.5040822048904374,M25R08,2022-10-21_09h11.15.393,t1_Paradigm,2021.1.4,59.81238040557512,
V,left,Distractor,0,27,27,27,328.8462328868918,330.8467330171261,left,1,1,0.6202879005577415,M25R08,2022-10-21_09h11.15.393,t1_Paradigm,2021.1.4,59.81238040557512,
W,left,Lure,0,28,28,28,332.3466496085748,334.34770825505257,left,1,1,1.0713120286818594,M25R08,2022-10-21_09h11.15.393,t1_Paradigm,2021.1.4,59.81238040557512,
R,left,Pretarget,0,29,29,29,335.84710193937644,337.8481917035533,left,1,1,0.7068675358314067,M25R08,2022-10-21_09h11.15.393,t1_Paradigm,2021.1.4,59.81238040557512,
R,right,Target,0,30,30,30,339.3468722451944,341.3471487764036,right,1,1,0.4239016061183065,M25R08,2022-10-21_09h11.15.393,t1_Paradigm,2021.1.4,59.81238040557512,
G,left,Distractor,0,31,31,31,342.84670703217853,344.8470778792398,left,1,1,0.6359715872677043,M25R08,2022-10-21_09h11.15.393,t1_Paradigm,2021.1.4,59.81238040557512,
R,left,Lure,0,32,32,32,346.34705381910317,348.3472029919503,left,1,1,0.6079633310437202,M25R08,2022-10-21_09h11.15.393,t1_Paradigm,2021.1.4,59.81238040557512,
S,left,Distractor,0,33,33,33,349.84668810479343,351.8469957539346,left,1,1,0.580177711439319,M25R08,2022-10-21_09h11.15.393,t1_Paradigm,2021.1.4,59.81238040557512,
R,left,Lure,0,34,34,34,353.3471779694082,355.3485888564028,left,1,1,0.566678686067462,M25R08,2022-10-21_09h11.15.393,t1_Paradigm,2021.1.4,59.81238040557512,
P,left,Pretarget,0,35,35,35,356.8468324657297,358.84667046077084,left,1,1,0.5723071563988924,M25R08,2022-10-21_09h11.15.393,t1_Paradigm,2021.1.4,59.81238040557512,
P,right,Target,0,36,36,36,360.3471208666451,362.34716834535357,right,1,1,0.6239729525987059,M25R08,2022-10-21_09h11.15.393,t1_Paradigm,2021.1.4,59.81238040557512,
Y,left,Pretarget,0,37,37,37,363.84713305719197,365.84818207949866,left,1,1,0.49882426077965647,M25R08,2022-10-21_09h11.15.393,t1_Paradigm,2021.1.4,59.81238040557512,
Y,right,Target,0,38,38,38,367.34666789427865,369.34716064610984,right,1,1,0.40781852102372795,M25R08,2022-10-21_09h11.15.393,t1_Paradigm,2021.1.4,59.81238040557512,
J,left,Distractor,0,39,39,39,370.847110280185,372.8484480243642,left,1,1,0.5385546203469858,M25R08,2022-10-21_09h11.15.393,t1_Paradigm,2021.1.4,59.81238040557512,
Y,left,Lure,0,40,40,40,374.34691683657,376.34717829024885,left,1,1,0.6558965964941308,M25R08,2022-10-21_09h11.15.393,t1_Paradigm,2021.1.4,59.81238040557512,
T,left,Distractor,0,41,41,41,377.8471163754584,379.847124716267,left,1,1,0.611907591111958,M25R08,2022-10-21_09h11.15.393,t1_Paradigm,2021.1.4,59.81238040557512,
V,left,Distractor,0,42,42,42,381.3468093679985,383.3471792526543,left,1,1,0.5999208260327578,M25R08,2022-10-21_09h11.15.393,t1_Paradigm,2021.1.4,59.81238040557512,
N,left,Pretarget,0,43,43,43,384.8471218290506,386.8486773977056,left,1,1,0.5703553972998634,M25R08,2022-10-21_09h11.15.393,t1_Paradigm,2021.1.4,59.81238040557512,
N,right,Target,0,44,44,44,388.34662234038115,390.34692421508953,right,1,1,0.6241894939448684,M25R08,2022-10-21_09h11.15.393,t1_Paradigm,2021.1.4,59.81238040557512,
N,right,Target,0,45,45,45,391.84712279145606,393.8470839743968,right,1,1,0.467934240703471,M25R08,2022-10-21_09h11.15.393,t1_Paradigm,2021.1.4,59.81238040557512,
X,left,Distractor,0,46,46,46,395.3471378692193,397.3484659892274,left,1,1,0.5025423554470763,M25R08,2022-10-21_09h11.15.393,t1_Paradigm,2021.1.4,59.81238040557512,
Z,left,Distractor,0,47,47,47,398.84644365368877,400.8485102598788,left,1,1,0.5545260664075613,M25R08,2022-10-21_09h11.15.393,t1_Paradigm,2021.1.4,59.81238040557512,
H,left,Pretarget,0,48,48,48,402.34707146312576,404.3485493977787,left,1,1,0.606572333839722,M25R08,2022-10-21_09h11.15.393,t1_Paradigm,2021.1.4,59.81238040557512,
H,right,Target,0,49,49,49,405.8471616085153,407.847215824062,right,1,1,0.6277686812682077,M25R08,2022-10-21_09h11.15.393,t1_Paradigm,2021.1.4,59.81238040557512,
K,left,Distractor,0,50,50,50,409.34712696191855,411.34784716228023,left,1,1,0.5191775407874957,M25R08,2022-10-21_09h11.15.393,t1_Paradigm,2021.1.4,59.81238040557512,
V,left,Pretarget,0,51,51,51,412.8467169769574,414.8472700396087,left,1,1,0.5876610585255548,M25R08,2022-10-21_09h11.15.393,t1_Paradigm,2021.1.4,59.81238040557512,
V,right,Target,0,52,52,52,416.3467715133447,418.3471157338936,right,1,1,0.43180199584458023,M25R08,2022-10-21_09h11.15.393,t1_Paradigm,2021.1.4,59.81238040557512,
R,left,Distractor,0,53,53,53,419.8471276034834,421.84689245570917,left,1,1,0.5642482903786004,M25R08,2022-10-21_09h11.15.393,t1_Paradigm,2021.1.4,59.81238040557512,
V,left,Lure,0,54,54,54,423.34662843565457,425.34667078149505,left,1,1,0.520346863893792,M25R08,2022-10-21_09h11.15.393,t1_Paradigm,2021.1.4,59.81238040557512,
Y,left,Distractor,0,55,55,55,426.8470339293126,428.846661478281,left,1,1,0.5563767729327083,M25R08,2022-10-21_09h11.15.393,t1_Paradigm,2021.1.4,59.81238040557512,
Q,left,Distractor,0,56,56,56,430.3466188115999,432.34735890175216,left,1,1,0.5917140705278143,M25R08,2022-10-21_09h11.15.393,t1_Paradigm,2021.1.4,59.81238040557512,
Z,left,Pretarget,0,57,57,57,433.8467991022626,435.84797612472903,left,1,1,0.4669217896880582,M25R08,2022-10-21_09h11.15.393,t1_Paradigm,2021.1.4,59.81238040557512,
Z,right,Target,0,58,58,58,437.3471734782215,439.34720202954486,right,1,1,0.42360229801852256,M25R08,2022-10-21_09h11.15.393,t1_Paradigm,2021.1.4,59.81238040557512,
B,left,Distractor,0,59,59,59,440.84714332281146,442.8481050870614,left,1,1,0.5229026930173859,M25R08,2022-10-21_09h11.15.393,t1_Paradigm,2021.1.4,59.81238040557512,
S,left,Pretarget,0,60,60,60,444.34665762865916,446.34751416987274,left,1,1,0.5916049977531657,M25R08,2022-10-21_09h11.15.393,t1_Paradigm,2021.1.4,59.81238040557512,
S,right,Target,0,61,61,61,447.84664415498264,449.84667816001456,right,1,1,0.38831953681074083,M25R08,2022-10-21_09h11.15.393,t1_Paradigm,2021.1.4,59.81238040557512,
T,left,Distractor,0,62,62,62,451.3466480046045,453.34760206961073,left,1,1,0.5514165331842378,M25R08,2022-10-21_09h11.15.393,t1_Paradigm,2021.1.4,59.81238040557512,
D,left,Distractor,0,63,63,63,454.847139152349,456.8503471718868,left,1,1,0.47279278631322086,M25R08,2022-10-21_09h11.15.393,t1_Paradigm,2021.1.4,59.81238040557512,
R,left,Distractor,0,0,0,0,482.07444754696917,484.0639047116274,None,0,1,,M25R08,2022-10-21_09h11.15.393,t1_Paradigm,2021.1.4,59.81238040557512,
V,left,Distractor,0,1,1,1,485.5635364309419,487.5638049421832,left,1,1,0.6073060078779235,M25R08,2022-10-21_09h11.15.393,t1_Paradigm,2021.1.4,59.81238040557512,
N,left,Pretarget,0,2,2,2,489.0636480699759,491.06323038588744,left,1,1,0.5478912404505536,M25R08,2022-10-21_09h11.15.393,t1_Paradigm,2021.1.4,59.81238040557512,
N,right,Target,0,3,3,3,492.5634116389556,494.5637860149145,right,1,1,0.647365189390257,M25R08,2022-10-21_09h11.15.393,t1_Paradigm,2021.1.4,59.81238040557512,
S,left,Distractor,0,4,4,4,496.06372538325377,498.0653672476765,left,1,1,0.6178199710557237,M25R08,2022-10-21_09h11.15.393,t1_Paradigm,2021.1.4,59.81238040557512,
N,left,Lure,0,5,5,5,499.5632034385344,501.5638286814792,left,1,1,0.6871773534221575,M25R08,2022-10-21_09h11.15.393,t1_Paradigm,2021.1.4,59.81238040557512,
Z,left,Distractor,0,6,6,6,503.06341099739075,505.0632778645959,left,1,1,0.7397612847853452,M25R08,2022-10-21_09h11.15.393,t1_Paradigm,2021.1.4,59.81238040557512,
L,left,Pretarget,0,7,7,7,506.56374976423103,508.56399774411693,left,1,1,0.518995325313881,M25R08,2022-10-21_09h11.15.393,t1_Paradigm,2021.1.4,59.81238040557512,
L,right,Target,0,8,8,8,510.06365320284385,512.0638273983495,right,1,1,0.61914809118025,M25R08,2022-10-21_09h11.15.393,t1_Paradigm,2021.1.4,59.81238040557512,
H,left,Distractor,0,9,9,9,513.5637507266365,515.5819026635727,left,1,1,0.44524135219398886,M25R08,2022-10-21_09h11.15.393,t1_Paradigm,2021.1.4,59.81238040557512,
L,left,Lure,0,10,10,10,517.0632878094912,519.0643836689414,left,1,1,0.4664745918707922,M25R08,2022-10-21_09h11.15.393,t1_Paradigm,2021.1.4,59.81238040557512,
X,left,Pretarget,0,11,11,11,520.5634825362358,522.5649383354466,left,1,1,0.5500608240254223,M25R08,2022-10-21_09h11.15.393,t1_Paradigm,2021.1.4,59.81238040557512,
X,right,Target,0,12,12,12,524.0637680499349,526.0637914685067,right,1,1,0.475312685710378,M25R08,2022-10-21_09h11.15.393,t1_Paradigm,2021.1.4,59.81238040557512,
X,right,Target,0,13,13,13,527.5634806114249,529.5637337241787,right,1,1,0.43141735438257456,M25R08,2022-10-21_09h11.15.393,t1_Paradigm,2021.1.4,59.81238040557512,
R,left,Distractor,0,14,14,14,531.0633401001105,533.065321693779,left,1,1,0.48177941143512726,M25R08,2022-10-21_09h11.15.393,t1_Paradigm,2021.1.4,59.81238040557512,
T,left,Distractor,0,15,15,15,534.5638296438847,536.5639117691899,left,1,1,0.6632933270884678,M25R08,2022-10-21_09h11.15.393,t1_Paradigm,2021.1.4,59.81238040557512,
V,left,Pretarget,0,16,16,16,538.063948340714,540.0638126414269,left,1,1,0.5072356880409643,M25R08,2022-10-21_09h11.15.393,t1_Paradigm,2021.1.4,59.81238040557512,
V,right,Target,0,17,17,17,541.5629500049399,543.5639197892742,right,1,1,0.6391940427711233,M25R08,2022-10-21_09h11.15.393,t1_Paradigm,2021.1.4,59.81238040557512,
N,left,Distractor,0,18,18,18,545.063510766835,547.0642563105794,left,1,1,0.5950808870838955,M25R08,2022-10-21_09h11.15.393,t1_Paradigm,2021.1.4,59.81238040557512,
B,left,Distractor,0,19,19,19,548.5635335437255,550.5633583858144,left,1,1,0.5676359590142965,M25R08,2022-10-21_09h11.15.393,t1_Paradigm,2021.1.4,59.81238040557512,
V,left,Lure,0,20,20,20,552.0633458745433,554.0639303757343,left,1,1,0.5071128209820017,M25R08,2022-10-21_09h11.15.393,t1_Paradigm,2021.1.4,59.81238040557512,
P,left,Distractor,0,21,21,21,555.5634992179694,557.5637545762584,left,1,1,0.5112178026465699,M25R08,2022-10-21_09h11.15.393,t1_Paradigm,2021.1.4,59.81238040557512,
K,left,Pretarget,0,22,22,22,559.0636929823086,561.064788200194,left,1,1,0.5303940603043884,M25R08,2022-10-21_09h11.15.393,t1_Paradigm,2021.1.4,59.81238040557512,
K,right,Target,0,23,23,23,562.5637879397254,564.5636188770877,right,1,1,0.5513344077626243,M25R08,2022-10-21_09h11.15.393,t1_Paradigm,2021.1.4,59.81238040557512,
J,left,Pretarget,0,24,24,24,566.063631709083,568.0643592879642,left,1,1,0.4906816657166928,M25R08,2022-10-21_09h11.15.393,t1_Paradigm,2021.1.4,59.81238040557512,
J,right,Target,0,25,25,25,569.5638142453972,571.5634170926642,right,1,1,0.6556040252326056,M25R08,2022-10-21_09h11.15.393,t1_Paradigm,2021.1.4,59.81238040557512,
H,left,Distractor,0,26,26,26,573.0636785462266,575.0633285512449,left,1,1,0.6279124005232006,M25R08,2022-10-21_09h11.15.393,t1_Paradigm,2021.1.4,59.81238040557512,
J,left,Lure,0,27,27,27,576.5637728619622,578.5652004306903,left,1,1,0.6619048963766545,M25R08,2022-10-21_09h11.15.393,t1_Paradigm,2021.1.4,59.81238040557512,
V,left,Distractor,0,28,28,28,580.0633253433043,582.0634340951219,left,1,1,0.5875378707423806,M25R08,2022-10-21_09h11.15.393,t1_Paradigm,2021.1.4,59.81238040557512,
Z,left,Pretarget,0,29,29,29,583.5637022855226,585.5636625061743,left,1,1,0.5594343362608925,M25R08,2022-10-21_09h11.15.393,t1_Paradigm,2021.1.4,59.81238040557512,
Z,right,Target,0,30,30,30,587.0636913783383,589.0636766214157,right,1,1,0.5794180524535477,M25R08,2022-10-21_09h11.15.393,t1_Paradigm,2021.1.4,59.81238040557512,
T,left,Distractor,0,31,31,31,590.5636458244408,592.563764200313,left,1,1,0.647422292153351,M25R08,2022-10-21_09h11.15.393,t1_Paradigm,2021.1.4,59.81238040557512,
Z,left,Lure,0,32,32,32,594.0633853332838,596.0645642804448,left,1,1,0.8584506292827427,M25R08,2022-10-21_09h11.15.393,t1_Paradigm,2021.1.4,59.81238040557512,
F,left,Distractor,0,33,33,33,597.5638132829918,599.563699077582,left,1,1,0.5914208575850353,M25R08,2022-10-21_09h11.15.393,t1_Paradigm,2021.1.4,59.81238040557512,
Y,left,Pretarget,0,34,34,34,601.0636339547345,603.0644683606224,left,1,1,0.6267498142551631,M25R08,2022-10-21_09h11.15.393,t1_Paradigm,2021.1.4,59.81238040557512,
Y,right,Target,0,35,35,35,604.5633401001105,606.5632849222748,right,1,1,0.8078101160936058,M25R08,2022-10-21_09h11.15.393,t1_Paradigm,2021.1.4,59.81238040557512,
Y,right,Target,0,36,36,36,608.0636362003861,610.0637212129077,right,1,1,0.5712616627570242,M25R08,2022-10-21_09h11.15.393,t1_Paradigm,2021.1.4,59.81238040557512,
W,left,Distractor,0,37,37,37,611.5637138343882,613.5635483006481,left,1,1,0.6074776368914172,M25R08,2022-10-21_09h11.15.393,t1_Paradigm,2021.1.4,59.81238040557512,
Q,left,Distractor,0,38,38,38,615.0631755287759,617.063516861992,left,1,1,0.5316374887479469,M25R08,2022-10-21_09h11.15.393,t1_Paradigm,2021.1.4,59.81238040557512,
P,left,Pretarget,0,39,39,39,618.5633150775684,620.5635146164568,left,1,1,0.6795900664292276,M25R08,2022-10-21_09h11.15.393,t1_Paradigm,2021.1.4,59.81238040557512,
P,right,Target,0,40,40,40,622.0633542154683,624.0634905563202,right,1,1,0.6194605523487553,M25R08,2022-10-21_09h11.15.393,t1_Paradigm,2021.1.4,59.81238040557512,
J,left,Distractor,0,41,41,41,625.5636596189579,627.5633073783247,left,1,1,0.5757936319569126,M25R08,2022-10-21_09h11.15.393,t1_Paradigm,2021.1.4,59.81238040557512,
P,left,Lure,0,42,42,42,629.0634825362358,631.06363491714,left,1,1,0.5153433157829568,M25R08,2022-10-21_09h11.15.393,t1_Paradigm,2021.1.4,59.81238040557512,
L,left,Distractor,0,43,43,43,632.5632932630833,634.5634661753429,left,1,1,0.5674543852219358,M25R08,2022-10-21_09h11.15.393,t1_Paradigm,2021.1.4,59.81238040557512,
Z,left,Distractor,0,44,44,44,636.0633792380104,638.0637590675615,left,1,1,0.47526007413398474,M25R08,2022-10-21_09h11.15.393,t1_Paradigm,2021.1.4,59.81238040557512,
F,left,Pretarget,0,45,45,45,639.563598666573,641.565562936943,left,1,1,0.49344537453725934,M25R08,2022-10-21_09h11.15.393,t1_Paradigm,2021.1.4,59.81238040557512,
F,right,Target,0,46,46,46,643.0633044911083,645.0638700650306,right,1,1,0.5472457869909704,M25R08,2022-10-21_09h11.15.393,t1_Paradigm,2021.1.4,59.81238040557512,
G,left,Pretarget,0,47,47,47,646.5636583357118,648.563631709083,left,1,1,0.5834223023848608,M25R08,2022-10-21_09h11.15.393,t1_Paradigm,2021.1.4,59.81238040557512,
G,right,Target,0,48,48,48,650.0635492630536,652.0636429372244,right,1,1,0.491428813431412,M25R08,2022-10-21_09h11.15.393,t1_Paradigm,2021.1.4,59.81238040557512,
V,left,Distractor,0,49,49,49,653.5634523808258,655.5652780648088,left,1,1,0.5577321611344814,M25R08,2022-10-21_09h11.15.393,t1_Paradigm,2021.1.4,59.81238040557512,
G,left,Lure,0,50,50,50,657.0633510074113,659.0638004509965,left,1,1,0.6911838491214439,M25R08,2022-10-21_09h11.15.393,t1_Paradigm,2021.1.4,59.81238040557512,
Q,left,Pretarget,0,51,51,51,660.563617273001,662.5636817542836,left,1,1,0.5192753854207695,M25R08,2022-10-21_09h11.15.393,t1_Paradigm,2021.1.4,59.81238040557512,
Q,right,Target,0,52,52,52,664.0633779547643,666.0637770324247,right,1,1,0.5392241340596229,M25R08,2022-10-21_09h11.15.393,t1_Paradigm,2021.1.4,59.81238040557512,
Y,left,Distractor,0,53,53,53,667.5636759798508,669.5632666364545,left,1,1,0.6077702082693577,M25R08,2022-10-21_09h11.15.393,t1_Paradigm,2021.1.4,59.81238040557512,
V,left,Distractor,0,54,54,54,671.0633978445549,673.0636769422563,left,1,1,0.6913833878934383,M25R08,2022-10-21_09h11.15.393,t1_Paradigm,2021.1.4,59.81238040557512,
B,left,Distractor,0,55,55,55,674.5636211226229,676.5634607216343,left,1,1,0.5998749514110386,M25R08,2022-10-21_09h11.15.393,t1_Paradigm,2021.1.4,59.81238040557512,
J,left,Pretarget,0,56,56,56,678.0633067367598,680.0632201202679,left,1,1,0.45976020698435605,M25R08,2022-10-21_09h11.15.393,t1_Paradigm,2021.1.4,59.81238040557512,
J,right,Target,0,57,57,57,681.5636089321924,683.5637048520148,right,1,1,0.4474346750648692,M25R08,2022-10-21_09h11.15.393,t1_Paradigm,2021.1.4,59.81238040557512,
H,left,Distractor,0,58,58,58,685.0629416641314,687.063251237967,left,1,1,0.5478498570155352,M25R08,2022-10-21_09h11.15.393,t1_Paradigm,2021.1.4,59.81238040557512,
J,left,Lure,0,59,59,59,688.5637577843154,690.5654198592529,left,1,1,0.5174817816587165,M25R08,2022-10-21_09h11.15.393,t1_Paradigm,2021.1.4,59.81238040557512,
D,left,Pretarget,0,60,60,60,692.0634565512883,694.0636984359007,left,1,1,0.507272259448655,M25R08,2022-10-21_09h11.15.393,t1_Paradigm,2021.1.4,59.81238040557512,
D,right,Target,0,61,61,61,695.5636923407437,697.5635412429692,right,1,1,0.4155607554130256,M25R08,2022-10-21_09h11.15.393,t1_Paradigm,2021.1.4,59.81238040557512,
R,left,Distractor,0,62,62,62,699.0803458116716,701.0632592580514,left,1,1,0.5318796940846369,M25R08,2022-10-21_09h11.15.393,t1_Paradigm,2021.1.4,59.81238040557512,
F,left,Distractor,0,63,63,63,702.5636092530331,704.563872952247,left,1,1,0.615288843633607,M25R08,2022-10-21_09h11.15.393,t1_Paradigm,2021.1.4,59.81238040557512,
F,left,Distractor,0,0,0,0,835.5615019049728,837.5632149874,None,0,2,,M25R08,2022-10-21_09h11.15.393,t1_Paradigm,2021.1.4,59.81238040557512,
N,left,Pretarget,0,1,1,1,839.0633189271903,841.0643432479119,None,0,2,,M25R08,2022-10-21_09h11.15.393,t1_Paradigm,2021.1.4,59.81238040557512,
V,left,Distractor,0,2,2,2,842.5635810224339,844.5646197791211,left,1,2,0.6625234024832025,M25R08,2022-10-21_09h11.15.393,t1_Paradigm,2021.1.4,59.81238040557512,
N,right,Target,0,3,3,3,846.063711588853,848.0638033382129,right,1,2,0.6670755821978673,M25R08,2022-10-21_09h11.15.393,t1_Paradigm,2021.1.4,59.81238040557512,
N,left,Lure,0,4,4,4,849.5631983056664,851.5636339547345,left,1,2,0.6712456868262962,M25R08,2022-10-21_09h11.15.393,t1_Paradigm,2021.1.4,59.81238040557512,
X,left,Distractor,0,5,5,5,853.0631697543431,855.0642457241192,left,1,2,0.6587417891714722,M25R08,2022-10-21_09h11.15.393,t1_Paradigm,2021.1.4,59.81238040557512,
G,left,Pretarget,0,6,6,6,856.5636265763314,858.5647237190278,left,1,2,0.8383026624796912,M25R08,2022-10-21_09h11.15.393,t1_Paradigm,2021.1.4,59.81238040557512,
H,left,Pretarget,0,7,7,7,860.0636268970557,862.0631543558557,left,1,2,0.6836879905313253,M25R08,2022-10-21_09h11.15.393,t1_Paradigm,2021.1.4,59.81238040557512,
G,right,Target,0,8,8,8,863.5632303858874,865.5631434485549,right,1,2,0.5919222709489986,M25R08,2022-10-21_09h11.15.393,t1_Paradigm,2021.1.4,59.81238040557512,
H,right,Target,0,9,9,9,867.06329775427,869.0638800098095,right,1,2,0.8994879359379411,M25R08,2022-10-21_09h11.15.393,t1_Paradigm,2021.1.4,59.81238040557512,
T,left,Pretarget,0,10,10,10,870.5633269472746,872.5637186464155,left,1,2,0.5191881272476166,M25R08,2022-10-21_09h11.15.393,t1_Paradigm,2021.1.4,59.81238040557512,
K,left,Distractor,0,11,11,11,874.0633019247325,876.0632271778304,left,1,2,0.6196799807948992,M25R08,2022-10-21_09h11.15.393,t1_Paradigm,2021.1.4,59.81238040557512,
T,right,Target,0,12,12,12,877.5635460549966,879.5637147967936,right,1,2,1.119226046022959,M25R08,2022-10-21_09h11.15.393,t1_Paradigm,2021.1.4,59.81238040557512,
T,left,Lure,0,13,13,13,881.0631059147418,883.0637099847663,left,1,2,0.9313522316515446,M25R08,2022-10-21_09h11.15.393,t1_Paradigm,2021.1.4,59.81238040557512,
J,left,Distractor,0,14,14,14,884.5634687417187,886.5632072881563,left,1,2,0.7757648880360648,M25R08,2022-10-21_09h11.15.393,t1_Paradigm,2021.1.4,59.81238040557512,
Q,left,Pretarget,0,15,15,15,888.063446606393,890.0648032778408,left,1,2,0.6020971465623006,M25R08,2022-10-21_09h11.15.393,t1_Paradigm,2021.1.4,59.81238040557512,
M,left,Distractor,0,16,16,16,891.5636625061743,893.565272290376,left,1,2,0.6856169727398083,M25R08,2022-10-21_09h11.15.393,t1_Paradigm,2021.1.4,59.81238040557512,
Q,right,Target,0,17,17,17,895.063575889566,897.0632291026413,right,1,2,0.5478556314483285,M25R08,2022-10-21_09h11.15.393,t1_Paradigm,2021.1.4,59.81238040557512,
R,left,Distractor,0,18,18,18,898.5634940851014,900.5648016738705,left,1,2,0.47010125790257007,M25R08,2022-10-21_09h11.15.393,t1_Paradigm,2021.1.4,59.81238040557512,
W,left,Distractor,0,19,19,19,902.0632297443226,904.0636326714884,left,1,2,0.6032658281037584,M25R08,2022-10-21_09h11.15.393,t1_Paradigm,2021.1.4,59.81238040557512,
C,left,Pretarget,0,20,20,20,905.5631065563066,907.5762770805741,left,1,2,0.7546211521839723,M25R08,2022-10-21_09h11.15.393,t1_Paradigm,2021.1.4,59.81238040557512,
T,left,Distractor,0,21,21,21,909.0633529322222,911.0631970225368,left,1,2,0.6280535534024239,M25R08,2022-10-21_09h11.15.393,t1_Paradigm,2021.1.4,59.81238040557512,
C,right,Target,0,22,22,22,912.5632249322953,914.5631646214752,right,1,2,0.5839086381020024,M25R08,2022-10-21_09h11.15.393,t1_Paradigm,2021.1.4,59.81238040557512,
F,left,Pretarget,0,23,23,23,916.0636464660056,918.0637593882857,left,1,2,0.6190868179546669,M25R08,2022-10-21_09h11.15.393,t1_Paradigm,2021.1.4,59.81238040557512,
C,right,Target,0,24,24,24,919.5635098044295,921.5763890404487,left,0,2,1.0745094617595896,M25R08,2022-10-21_09h11.15.393,t1_Paradigm,2021.1.4,59.81238040557512,
F,right,Target,0,25,25,25,923.0631723207189,925.0637751076138,right,1,2,0.49932086223270744,M25R08,2022-10-21_09h11.15.393,t1_Paradigm,2021.1.4,59.81238040557512,
H,left,Distractor,0,26,26,26,926.563629784272,928.5630898746895,left,1,2,0.6159452045103535,M25R08,2022-10-21_09h11.15.393,t1_Paradigm,2021.1.4,59.81238040557512,
H,left,Lure,0,27,27,27,930.0633461953839,932.063121954794,left,1,2,0.8599304886301979,M25R08,2022-10-21_09h11.15.393,t1_Paradigm,2021.1.4,59.81238040557512,
P,left,Distractor,0,28,28,28,933.5631463357713,935.5635142956162,left,1,2,0.6394436268601567,M25R08,2022-10-21_09h11.15.393,t1_Paradigm,2021.1.4,59.81238040557512,
G,left,Pretarget,0,29,29,29,937.063173603965,939.0638630073518,left,1,2,0.6750844030175358,M25R08,2022-10-21_09h11.15.393,t1_Paradigm,2021.1.4,59.81238040557512,
K,left,Distractor,0,30,30,30,940.5635460549966,942.5631764911814,left,1,2,0.6798422167776152,M25R08,2022-10-21_09h11.15.393,t1_Paradigm,2021.1.4,59.81238040557512,
G,right,Target,0,31,31,31,944.0631623758236,946.0634385863086,right,1,2,0.45950388617347926,M25R08,2022-10-21_09h11.15.393,t1_Paradigm,2021.1.4,59.81238040557512,
M,left,Pretarget,0,32,32,32,947.563279147842,949.5640619045589,left,1,2,0.527291905367747,M25R08,2022-10-21_09h11.15.393,t1_Paradigm,2021.1.4,59.81238040557512,
B,left,Distractor,0,33,33,33,951.0633282305207,953.0631873984821,left,1,2,0.6116419670870528,M25R08,2022-10-21_09h11.15.393,t1_Paradigm,2021.1.4,59.81238040557512,
M,right,Target,0,34,34,34,954.5635829472449,956.563481894671,right,1,2,0.39157888456247747,M25R08,2022-10-21_09h11.15.393,t1_Paradigm,2021.1.4,59.81238040557512,
M,left,Lure,0,35,35,35,958.063625613926,960.063473553746,left,1,2,0.6514050484402105,M25R08,2022-10-21_09h11.15.393,t1_Paradigm,2021.1.4,59.81238040557512,
T,left,Distractor,0,36,36,36,961.563558245427,963.564492420759,left,1,2,0.6384683888172731,M25R08,2022-10-21_09h11.15.393,t1_Paradigm,2021.1.4,59.81238040557512,
F,left,Distractor,0,37,37,37,965.0636422955431,967.0657496436033,left,1,2,0.6572696288349107,M25R08,2022-10-21_09h11.15.393,t1_Paradigm,2021.1.4,59.81238040557512,
X,left,Distractor,0,38,38,38,968.5635264860466,970.5632570123998,left,1,2,0.7280154421459883,M25R08,2022-10-21_09h11.15.393,t1_Paradigm,2021.1.4,59.81238040557512,
C,left,Distractor,0,39,39,39,972.0635807015933,974.0639704760397,left,1,2,0.554962036316283,M25R08,2022-10-21_09h11.15.393,t1_Paradigm,2021.1.4,59.81238040557512,
R,left,Distractor,0,40,40,40,975.56334747863,977.5631556389853,left,1,2,0.8957162672886625,M25R08,2022-10-21_09h11.15.393,t1_Paradigm,2021.1.4,59.81238040557512,
B,left,Pretarget,0,41,41,41,979.0634424359305,981.0642819746863,left,1,2,0.8506660489365458,M25R08,2022-10-21_09h11.15.393,t1_Paradigm,2021.1.4,59.81238040557512,
H,left,Distractor,0,42,42,42,982.5802701024804,984.5631710374728,left,1,2,0.6478791141416878,M25R08,2022-10-21_09h11.15.393,t1_Paradigm,2021.1.4,59.81238040557512,
B,right,Target,0,43,43,43,986.0633673683042,988.0632175537758,right,1,2,0.7156754742609337,M25R08,2022-10-21_09h11.15.393,t1_Paradigm,2021.1.4,59.81238040557512,
W,left,Pretarget,0,44,44,44,989.5636426163837,991.5643018643605,left,1,2,0.6226801206357777,M25R08,2022-10-21_09h11.15.393,t1_Paradigm,2021.1.4,59.81238040557512,
L,left,Pretarget,0,45,45,45,993.0636009121081,995.0645228970097,left,1,2,0.8824350665090606,M25R08,2022-10-21_09h11.15.393,t1_Paradigm,2021.1.4,59.81238040557512,
W,right,Target,0,46,46,46,996.5631857943954,998.563487989828,right,1,2,0.7755730486242101,M25R08,2022-10-21_09h11.15.393,t1_Paradigm,2021.1.4,59.81238040557512,
L,right,Target,0,47,47,47,1000.0630407918943,1002.0631431277143,left,0,2,0.5877486375393346,M25R08,2022-10-21_09h11.15.393,t1_Paradigm,2021.1.4,59.81238040557512,
W,right,Target,0,48,48,48,1003.5635011427803,1005.5642412328161,None,0,2,,M25R08,2022-10-21_09h11.15.393,t1_Paradigm,2021.1.4,59.81238040557512,
X,left,Distractor,0,49,49,49,1007.063412601361,1009.0651786162052,left,1,2,0.817629222292453,M25R08,2022-10-21_09h11.15.393,t1_Paradigm,2021.1.4,59.81238040557512,
R,left,Distractor,0,50,50,50,1010.5632114586188,1012.5642412328161,left,1,2,0.646811806014739,M25R08,2022-10-21_09h11.15.393,t1_Paradigm,2021.1.4,59.81238040557512,
V,left,Pretarget,0,51,51,51,1014.0632906967076,1016.0635027467506,left,1,2,1.0194017813773826,M25R08,2022-10-21_09h11.15.393,t1_Paradigm,2021.1.4,59.81238040557512,
Z,left,Distractor,0,52,52,52,1017.5632862054044,1019.5635280901333,left,1,2,0.655408977647312,M25R08,2022-10-21_09h11.15.393,t1_Paradigm,2021.1.4,59.81238040557512,
V,right,Target,0,53,53,53,1021.0635627367301,1023.063101423555,right,1,2,1.2037689096760005,M25R08,2022-10-21_09h11.15.393,t1_Paradigm,2021.1.4,59.81238040557512,
V,left,Lure,0,54,54,54,1024.563258295646,1026.5633150775684,left,1,2,0.7278534371871501,M25R08,2022-10-21_09h11.15.393,t1_Paradigm,2021.1.4,59.81238040557512,
N,left,Distractor,0,55,55,55,1028.063269523671,1030.0641645612195,left,1,2,0.7149174192454666,M25R08,2022-10-21_09h11.15.393,t1_Paradigm,2021.1.4,59.81238040557512,
B,left,Distractor,0,56,56,56,1031.5631229171995,1033.5636852830648,left,1,2,0.7192389422561973,M25R08,2022-10-21_09h11.15.393,t1_Paradigm,2021.1.4,59.81238040557512,
V,left,Lure,0,57,57,57,1035.0633118696278,1037.063474836992,left,1,2,0.563544130185619,M25R08,2022-10-21_09h11.15.393,t1_Paradigm,2021.1.4,59.81238040557512,
J,left,Distractor,0,58,58,58,1038.5635389973177,1040.5636201602174,left,1,2,0.5995964952744544,M25R08,2022-10-21_09h11.15.393,t1_Paradigm,2021.1.4,59.81238040557512,
H,left,Distractor,0,59,59,59,1042.0631745663704,1044.0636698845774,left,1,2,0.6191516199614853,M25R08,2022-10-21_09h11.15.393,t1_Paradigm,2021.1.4,59.81238040557512,
X,left,Pretarget,0,60,60,60,1045.5635752480011,1047.5655427263118,left,1,2,0.541268284083344,M25R08,2022-10-21_09h11.15.393,t1_Paradigm,2021.1.4,59.81238040557512,
P,left,Distractor,0,61,61,61,1049.0633125111926,1051.0637221753132,left,1,2,0.5313516540918499,M25R08,2022-10-21_09h11.15.393,t1_Paradigm,2021.1.4,59.81238040557512,
X,right,Target,0,62,62,62,1052.5631328620948,1054.5637218544725,right,1,2,0.8391624117502943,M25R08,2022-10-21_09h11.15.393,t1_Paradigm,2021.1.4,59.81238040557512,
Q,left,Distractor,0,63,63,63,1056.0635444510262,1058.064650576096,left,1,2,0.6021994823822752,M25R08,2022-10-21_09h11.15.393,t1_Paradigm,2021.1.4,59.81238040557512,
B,left,Pretarget,0,0,0,0,1082.825231266208,1084.814220059896,None,0,2,,M25R08,2022-10-21_09h11.15.393,t1_Paradigm,2021.1.4,59.81238040557512,
F,left,Distractor,0,1,1,1,1086.3135098044295,1088.3133051327895,None,0,2,,M25R08,2022-10-21_09h11.15.393,t1_Paradigm,2021.1.4,59.81238040557512,
B,right,Target,0,2,2,2,1089.8133911077166,1091.813167187851,right,1,2,0.5498907989822328,M25R08,2022-10-21_09h11.15.393,t1_Paradigm,2021.1.4,59.81238040557512,
V,left,Distractor,0,3,3,3,1093.3131245212862,1095.3147971826838,left,1,2,0.6321524399099872,M25R08,2022-10-21_09h11.15.393,t1_Paradigm,2021.1.4,59.81238040557512,
G,left,Pretarget,0,4,4,4,1096.8135636991356,1098.8142300047912,left,1,2,0.7166956244036555,M25R08,2022-10-21_09h11.15.393,t1_Paradigm,2021.1.4,59.81238040557512,
B,left,Lure,0,5,5,5,1100.3133433081675,1102.3132736941334,left,1,2,0.6577517942059785,M25R08,2022-10-21_09h11.15.393,t1_Paradigm,2021.1.4,59.81238040557512,
G,right,Target,0,6,6,6,1103.813256370835,1105.8143002603902,right,1,2,0.788638670463115,M25R08,2022-10-21_09h11.15.393,t1_Paradigm,2021.1.4,59.81238040557512,
Y,left,Pretarget,0,7,7,7,1107.313493122696,1109.3155536336126,left,1,2,0.6153347183717415,M25R08,2022-10-21_09h11.15.393,t1_Paradigm,2021.1.4,59.81238040557512,
P,left,Distractor,0,8,8,8,1110.813636841951,1112.813224290614,left,1,2,0.6216464968165383,M25R08,2022-10-21_09h11.15.393,t1_Paradigm,2021.1.4,59.81238040557512,
Y,right,Target,0,9,9,9,1114.3130757593317,1116.3138960499782,right,1,2,0.4492908352985978,M25R08,2022-10-21_09h11.15.393,t1_Paradigm,2021.1.4,59.81238040557512,
X,left,Distractor,0,10,10,10,1117.813446606393,1119.8151526311412,left,1,2,0.5958793630125001,M25R08,2022-10-21_09h11.15.393,t1_Paradigm,2021.1.4,59.81238040557512,
Y,right,Target,0,11,11,11,1121.3135030675912,1123.3152623454807,right,1,2,1.1758976359851658,M25R08,2022-10-21_09h11.15.393,t1_Paradigm,2021.1.4,59.81238040557512,
N,left,Distractor,0,12,12,12,1124.8133240600582,1126.8130966115277,left,1,2,0.7979268494527787,M25R08,2022-10-21_09h11.15.393,t1_Paradigm,2021.1.4,59.81238040557512,
Y,right,Target,0,13,13,13,1128.3135797391878,1130.3142030574381,right,1,2,0.6086427895352244,M25R08,2022-10-21_09h11.15.393,t1_Paradigm,2021.1.4,59.81238040557512,
Y,left,Lure,0,14,14,14,1131.8135046715615,1133.8135531126754,left,1,2,0.7414618560578674,M25R08,2022-10-21_09h11.15.393,t1_Paradigm,2021.1.4,59.81238040557512,
K,left,Distractor,0,15,15,15,1135.3133118696278,1137.3143326614518,left,1,2,0.7127035649027675,M25R08,2022-10-21_09h11.15.393,t1_Paradigm,2021.1.4,59.81238040557512,
T,left,Pretarget,0,16,16,16,1138.813408431015,1140.8143676287727,left,1,2,0.6524858302436769,M25R08,2022-10-21_09h11.15.393,t1_Paradigm,2021.1.4,59.81238040557512,
J,left,Distractor,0,17,17,17,1142.3131242004456,1144.3147557991324,left,1,2,0.8642642021877691,M25R08,2022-10-21_09h11.15.393,t1_Paradigm,2021.1.4,59.81238040557512,
T,right,Target,0,18,18,18,1145.8134876691038,1147.8138671778142,right,1,2,0.48498646856751293,M25R08,2022-10-21_09h11.15.393,t1_Paradigm,2021.1.4,59.81238040557512,
S,left,Pretarget,0,19,19,19,1149.313238726696,1151.313055548817,left,1,2,0.6177516402676702,M25R08,2022-10-21_09h11.15.393,t1_Paradigm,2021.1.4,59.81238040557512,
R,left,Distractor,0,20,20,20,1152.8130863457918,1154.8137314785272,left,1,2,0.7653952857945114,M25R08,2022-10-21_09h11.15.393,t1_Paradigm,2021.1.4,59.81238040557512,
S,right,Target,0,21,21,21,1156.3135816639988,1158.3130231478717,right,1,2,0.4500322084641084,M25R08,2022-10-21_09h11.15.393,t1_Paradigm,2021.1.4,59.81238040557512,
Q,left,Distractor,0,22,22,22,1159.8133506865706,1161.8147124908864,left,1,2,0.6922120193485171,M25R08,2022-10-21_09h11.15.393,t1_Paradigm,2021.1.4,59.81238040557512,
D,left,Distractor,0,23,23,23,1163.313333042548,1165.313609253033,left,1,2,0.6012476629111916,M25R08,2022-10-21_09h11.15.393,t1_Paradigm,2021.1.4,59.81238040557512,
F,left,Distractor,0,24,24,24,1166.8136105361627,1168.8135268068872,left,1,2,0.5574296448612586,M25R08,2022-10-21_09h11.15.393,t1_Paradigm,2021.1.4,59.81238040557512,
Z,left,Distractor,0,25,25,25,1170.312970857136,1172.3131630175048,left,1,2,0.5617024060338736,M25R08,2022-10-21_09h11.15.393,t1_Paradigm,2021.1.4,59.81238040557512,
P,left,Distractor,0,26,26,26,1173.8135896840831,1175.8152973129181,left,1,2,0.4995649926131591,M25R08,2022-10-21_09h11.15.393,t1_Paradigm,2021.1.4,59.81238040557512,
H,left,Distractor,0,27,27,27,1177.3135649823816,1179.313424791908,left,1,2,0.6975780735956505,M25R08,2022-10-21_09h11.15.393,t1_Paradigm,2021.1.4,59.81238040557512,
Z,left,Pretarget,0,28,28,28,1180.8135303356685,1182.814416711568,left,1,2,0.7806250377325341,M25R08,2022-10-21_09h11.15.393,t1_Paradigm,2021.1.4,59.81238040557512,
J,left,Pretarget,0,29,29,29,1184.3132085714024,1186.3136086113518,left,1,2,0.6254204110009596,M25R08,2022-10-21_09h11.15.393,t1_Paradigm,2021.1.4,59.81238040557512,
Z,right,Target,0,30,30,30,1187.813218195457,1189.8146816939116,right,1,2,0.6123798114713281,M25R08,2022-10-21_09h11.15.393,t1_Paradigm,2021.1.4,59.81238040557512,
J,right,Target,0,31,31,31,1191.3132416139124,1193.3135207116138,right,1,2,0.8574795618187636,M25R08,2022-10-21_09h11.15.393,t1_Paradigm,2021.1.4,59.81238040557512,
V,left,Pretarget,0,32,32,32,1194.8130558696575,1196.8134597592289,left,1,2,0.7816105412784964,M25R08,2022-10-21_09h11.15.393,t1_Paradigm,2021.1.4,59.81238040557512,
Z,left,Lure,0,33,33,33,1198.313398165279,1200.3142813331215,left,1,2,0.8325304730096832,M25R08,2022-10-21_09h11.15.393,t1_Paradigm,2021.1.4,59.81238040557512,
V,right,Target,0,34,34,34,1201.8131925312337,1203.8135351476958,right,1,2,0.6453518363414332,M25R08,2022-10-21_09h11.15.393,t1_Paradigm,2021.1.4,59.81238040557512,
X,left,Distractor,0,35,35,35,1205.3132724108873,1207.313361914712,left,1,2,0.6655816076090559,M25R08,2022-10-21_09h11.15.393,t1_Paradigm,2021.1.4,59.81238040557512,
S,left,Distractor,0,36,36,36,1208.8133227768121,1210.8130472080084,left,1,2,0.8299582828767598,M25R08,2022-10-21_09h11.15.393,t1_Paradigm,2021.1.4,59.81238040557512,
Q,left,Distractor,0,37,37,37,1212.3133609523065,1214.313781844452,left,1,2,0.8009994905441999,M25R08,2022-10-21_09h11.15.393,t1_Paradigm,2021.1.4,59.81238040557512,
P,left,Distractor,0,38,38,38,1215.8131819447735,1217.8134825362358,left,1,2,0.6296832272782922,M25R08,2022-10-21_09h11.15.393,t1_Paradigm,2021.1.4,59.81238040557512,
S,left,Lure,0,39,39,39,1219.3136143857846,1221.3145517691737,left,1,2,1.0484250548761338,M25R08,2022-10-21_09h11.15.393,t1_Paradigm,2021.1.4,59.81238040557512,
K,left,Pretarget,0,40,40,40,1222.8136082906276,1224.8143313782057,left,1,2,0.9883199216565117,M25R08,2022-10-21_09h11.15.393,t1_Paradigm,2021.1.4,59.81238040557512,
L,left,Distractor,0,41,41,41,1226.3132493131561,1228.3130863457918,left,1,2,0.8501781092491001,M25R08,2022-10-21_09h11.15.393,t1_Paradigm,2021.1.4,59.81238040557512,
K,right,Target,0,42,42,42,1229.8133025662974,1231.8140789070167,right,1,2,0.5809200472431257,M25R08,2022-10-21_09h11.15.393,t1_Paradigm,2021.1.4,59.81238040557512,
B,left,Distractor,0,43,43,43,1233.3136923407437,1235.3145787165267,left,1,2,0.6803952793125063,M25R08,2022-10-21_09h11.15.393,t1_Paradigm,2021.1.4,59.81238040557512,
N,left,Distractor,0,44,44,44,1236.8132230074843,1238.813518786803,left,1,2,0.6373333914671093,M25R08,2022-10-21_09h11.15.393,t1_Paradigm,2021.1.4,59.81238040557512,
S,left,Pretarget,0,45,45,45,1240.313539638999,1242.3131877192063,left,1,2,0.7216173679335043,M25R08,2022-10-21_09h11.15.393,t1_Paradigm,2021.1.4,59.81238040557512,
Z,left,Distractor,0,46,46,46,1243.813259578892,1245.8129743859172,left,1,2,0.7099257408408448,M25R08,2022-10-21_09h11.15.393,t1_Paradigm,2021.1.4,59.81238040557512,
S,right,Target,0,47,47,47,1247.3132878094912,1249.313836380723,right,1,2,0.6329457832034677,M25R08,2022-10-21_09h11.15.393,t1_Paradigm,2021.1.4,59.81238040557512,
C,left,Distractor,0,48,48,48,1250.8130821753293,1252.8152065259637,left,1,2,0.6996620030840859,M25R08,2022-10-21_09h11.15.393,t1_Paradigm,2021.1.4,59.81238040557512,
T,left,Pretarget,0,49,49,49,1254.3134315287462,1256.3144058042672,left,1,2,0.8163845107192174,M25R08,2022-10-21_09h11.15.393,t1_Paradigm,2021.1.4,59.81238040557512,
S,left,Lure,0,50,50,50,1257.8130683809286,1259.812948080129,left,1,2,0.5980704403482378,M25R08,2022-10-21_09h11.15.393,t1_Paradigm,2021.1.4,59.81238040557512,
T,right,Target,0,51,51,51,1261.3135258444818,1263.3151526311412,right,1,2,0.7597109959460795,M25R08,2022-10-21_09h11.15.393,t1_Paradigm,2021.1.4,59.81238040557512,
N,left,Pretarget,0,52,52,52,1264.8135832680855,1266.8140766614815,left,1,2,0.6688024591421708,M25R08,2022-10-21_09h11.15.393,t1_Paradigm,2021.1.4,59.81238040557512,
B,left,Distractor,0,53,53,53,1268.3134100349853,1270.3138152078027,left,1,2,0.7531246111029759,M25R08,2022-10-21_09h11.15.393,t1_Paradigm,2021.1.4,59.81238040557512,
N,right,Target,0,54,54,54,1271.813299679081,1273.8137956389692,right,1,2,0.4531924285693094,M25R08,2022-10-21_09h11.15.393,t1_Paradigm,2021.1.4,59.81238040557512,
N,left,Lure,0,55,55,55,1275.3130943658762,1277.3130574736279,left,1,2,0.841932536684908,M25R08,2022-10-21_09h11.15.393,t1_Paradigm,2021.1.4,59.81238040557512,
X,left,Distractor,0,56,56,56,1278.8134167718235,1280.8140526013449,left,1,2,0.6847953988472,M25R08,2022-10-21_09h11.15.393,t1_Paradigm,2021.1.4,59.81238040557512,
W,left,Distractor,0,57,57,57,1282.312946155318,1284.3134347366868,left,1,2,0.7053450096864253,M25R08,2022-10-21_09h11.15.393,t1_Paradigm,2021.1.4,59.81238040557512,
S,left,Distractor,0,58,58,58,1285.8132027969696,1287.8136127818143,left,1,2,0.61345193174202,M25R08,2022-10-21_09h11.15.393,t1_Paradigm,2021.1.4,59.81238040557512,
L,left,Distractor,0,59,59,59,1289.3134135637665,1291.3146415937226,left,1,2,0.6162416253937408,M25R08,2022-10-21_09h11.15.393,t1_Paradigm,2021.1.4,59.81238040557512,
K,left,Pretarget,0,60,60,60,1292.8134389071492,1294.8148372828728,left,1,2,0.8921393256168813,M25R08,2022-10-21_09h11.15.393,t1_Paradigm,2021.1.4,59.81238040557512,
V,left,Pretarget,0,61,61,61,1296.3134523808258,1298.314151087543,left,1,2,0.7687390045030043,M25R08,2022-10-21_09h11.15.393,t1_Paradigm,2021.1.4,59.81238040557512,
K,right,Target,0,62,62,62,1299.813558245427,1301.8134607216343,right,1,2,0.40543111285660416,M25R08,2022-10-21_09h11.15.393,t1_Paradigm,2021.1.4,59.81238040557512,
V,right,Target,0,63,63,63,1303.3135508670239,1305.3130815337645,right,1,2,0.8418882659170777,M25R08,2022-10-21_09h11.15.393,t1_Paradigm,2021.1.4,59.81238040557512,
R,left,Distractor,0,0,0,0,1430.5707355475752,1432.5641959997592,None,0,3,,M25R08,2022-10-21_09h11.15.393,t1_Paradigm,2021.1.4,59.81238040557512,
P,left,Lure,0,1,1,1,1434.0631870776415,1436.0640676789917,None,0,3,,M25R08,2022-10-21_09h11.15.393,t1_Paradigm,2021.1.4,59.81238040557512,
V,left,Distractor,0,2,2,2,1437.5629458345938,1439.562924340833,None,0,3,,M25R08,2022-10-21_09h11.15.393,t1_Paradigm,2021.1.4,59.81238040557512,
P,left,Pretarget,0,3,3,3,1441.0630375839537,1443.0629702154547,left,1,3,0.5959358242107555,M25R08,2022-10-21_09h11.15.393,t1_Paradigm,2021.1.4,59.81238040557512,
Z,left,Distractor,0,4,4,4,1444.5633702555206,1446.5630286014639,left,1,3,0.9198335165856406,M25R08,2022-10-21_09h11.15.393,t1_Paradigm,2021.1.4,59.81238040557512,
L,left,Pretarget,0,5,5,5,1448.0630212230608,1450.063125162851,left,1,3,0.6517123767407611,M25R08,2022-10-21_09h11.15.393,t1_Paradigm,2021.1.4,59.81238040557512,
P,right,Target,0,6,6,6,1451.5632230074843,1453.5645597891416,right,1,3,1.342352787265554,M25R08,2022-10-21_09h11.15.393,t1_Paradigm,2021.1.4,59.81238040557512,
S,left,Distractor,0,7,7,7,1455.063154035015,1457.064901764039,left,1,3,1.1859217345481738,M25R08,2022-10-21_09h11.15.393,t1_Paradigm,2021.1.4,59.81238040557512,
L,right,Target,0,8,8,8,1458.5630821753293,1460.565737453173,left,0,3,0.8691275598248467,M25R08,2022-10-21_09h11.15.393,t1_Paradigm,2021.1.4,59.81238040557512,
D,left,Distractor,0,9,9,9,1462.063166546286,1464.0650650522439,left,1,3,0.7940368049312383,M25R08,2022-10-21_09h11.15.393,t1_Paradigm,2021.1.4,59.81238040557512,
G,left,Distractor,0,10,10,10,1465.5633362504886,1467.5641870172694,left,1,3,0.7666550750145689,M25R08,2022-10-21_09h11.15.393,t1_Paradigm,2021.1.4,59.81238040557512,
M,left,Pretarget,0,11,11,11,1469.0634299246594,1471.0631193884183,left,1,3,0.6437333904905245,M25R08,2022-10-21_09h11.15.393,t1_Paradigm,2021.1.4,59.81238040557512,
Y,left,Distractor,0,12,12,12,1472.5629878595937,1474.564805844333,left,1,3,0.8859879480442032,M25R08,2022-10-21_09h11.15.393,t1_Paradigm,2021.1.4,59.81238040557512,
V,left,Distractor,0,13,13,13,1476.0630205813795,1478.0654124807334,left,1,3,0.9217111704638228,M25R08,2022-10-21_09h11.15.393,t1_Paradigm,2021.1.4,59.81238040557512,
M,right,Target,0,14,14,14,1479.563719608821,1481.563424791908,right,1,3,0.5754959277110174,M25R08,2022-10-21_09h11.15.393,t1_Paradigm,2021.1.4,59.81238040557512,
S,left,Pretarget,0,15,15,15,1483.0634010524955,1485.0634687417187,left,1,3,1.091514210915193,M25R08,2022-10-21_09h11.15.393,t1_Paradigm,2021.1.4,59.81238040557512,
Q,left,Distractor,0,16,16,16,1486.563136390876,1488.5650567114353,left,1,3,1.1097729748580605,M25R08,2022-10-21_09h11.15.393,t1_Paradigm,2021.1.4,59.81238040557512,
R,left,Pretarget,0,17,17,17,1490.0633365713293,1492.065091358032,left,1,3,0.8897974712308496,M25R08,2022-10-21_09h11.15.393,t1_Paradigm,2021.1.4,59.81238040557512,
S,right,Target,0,18,18,18,1493.5631745663704,1495.5647740848362,right,1,3,0.5901357248658314,M25R08,2022-10-21_09h11.15.393,t1_Paradigm,2021.1.4,59.81238040557512,
F,left,Distractor,0,19,19,19,1497.0634100349853,1499.0641225361032,left,1,3,0.9308960511116311,M25R08,2022-10-21_09h11.15.393,t1_Paradigm,2021.1.4,59.81238040557512,
R,right,Target,0,20,20,20,1500.5632980751107,1502.563073192956,right,1,3,0.5517363726394251,M25R08,2022-10-21_09h11.15.393,t1_Paradigm,2021.1.4,59.81238040557512,
P,left,Distractor,0,21,21,21,1504.0633545361925,1506.063008390949,left,1,3,0.6518403766676784,M25R08,2022-10-21_09h11.15.393,t1_Paradigm,2021.1.4,59.81238040557512,
L,left,Distractor,0,22,22,22,1507.5634565512883,1509.562924340833,left,1,3,0.6558744612848386,M25R08,2022-10-21_09h11.15.393,t1_Paradigm,2021.1.4,59.81238040557512,
R,right,Target,0,23,23,23,1511.0634398695547,1513.064076340641,right,1,3,0.48269915068522096,M25R08,2022-10-21_09h11.15.393,t1_Paradigm,2021.1.4,59.81238040557512,
H,left,Pretarget,0,24,24,24,1514.5634626464453,1516.5640805111034,left,1,3,0.6308965003117919,M25R08,2022-10-21_09h11.15.393,t1_Paradigm,2021.1.4,59.81238040557512,
G,left,Pretarget,0,25,25,25,1518.063171679154,1520.0631405613385,left,1,3,0.9237992704147473,M25R08,2022-10-21_09h11.15.393,t1_Paradigm,2021.1.4,59.81238040557512,
T,left,Distractor,0,26,26,26,1521.5635800600285,1523.5630670976825,left,1,3,0.7037563984049484,M25R08,2022-10-21_09h11.15.393,t1_Paradigm,2021.1.4,59.81238040557512,
H,right,Target,0,27,27,27,1525.0634568720125,1527.0632592580514,left,0,3,0.7395229289541021,M25R08,2022-10-21_09h11.15.393,t1_Paradigm,2021.1.4,59.81238040557512,
G,right,Target,0,28,28,28,1528.5634296039352,1530.5637571427505,left,0,3,1.3991494898218662,M25R08,2022-10-21_09h11.15.393,t1_Paradigm,2021.1.4,59.81238040557512,
D,left,Distractor,0,29,29,29,1532.0631976641016,1534.0647102453513,left,1,3,0.8742902256781235,M25R08,2022-10-21_09h11.15.393,t1_Paradigm,2021.1.4,59.81238040557512,
N,left,Pretarget,0,30,30,30,1535.5630148069467,1537.565719809034,left,1,3,0.9089900897815824,M25R08,2022-10-21_09h11.15.393,t1_Paradigm,2021.1.4,59.81238040557512,
V,left,Distractor,0,31,31,31,1539.0630776841426,1541.0637269873405,left,1,3,0.802997445105575,M25R08,2022-10-21_09h11.15.393,t1_Paradigm,2021.1.4,59.81238040557512,
R,left,Distractor,0,32,32,32,1542.5629981253296,1544.5644446213264,left,1,3,0.758537502377294,M25R08,2022-10-21_09h11.15.393,t1_Paradigm,2021.1.4,59.81238040557512,
N,right,Target,0,33,33,33,1546.0630038997624,1548.063489273074,right,1,3,0.8753995588049293,M25R08,2022-10-21_09h11.15.393,t1_Paradigm,2021.1.4,59.81238040557512,
Z,left,Distractor,0,34,34,34,1549.5631643006345,1551.563341062516,left,1,3,0.5594128426164389,M25R08,2022-10-21_09h11.15.393,t1_Paradigm,2021.1.4,59.81238040557512,
N,left,Lure,0,35,35,35,1553.0630985363387,1555.0650432377588,left,1,3,0.9619901013793424,M25R08,2022-10-21_09h11.15.393,t1_Paradigm,2021.1.4,59.81238040557512,
Y,left,Pretarget,0,36,36,36,1556.5634995386936,1558.5634713082109,left,1,3,0.7434129734756425,M25R08,2022-10-21_09h11.15.393,t1_Paradigm,2021.1.4,59.81238040557512,
Y,left,Lure,0,37,37,37,1560.063199268072,1562.0629561002133,left,1,3,0.8759394685039297,M25R08,2022-10-21_09h11.15.393,t1_Paradigm,2021.1.4,59.81238040557512,
B,left,Distractor,0,38,38,38,1563.5632939046482,1565.5647400799207,left,1,3,0.862299931817688,M25R08,2022-10-21_09h11.15.393,t1_Paradigm,2021.1.4,59.81238040557512,
Y,right,Target,0,39,39,39,1567.0635938545456,1569.0648738542804,right,1,3,0.7378749693743885,M25R08,2022-10-21_09h11.15.393,t1_Paradigm,2021.1.4,59.81238040557512,
J,left,Distractor,0,40,40,40,1570.5631719998783,1572.5630022956757,left,1,3,0.9358100955141708,M25R08,2022-10-21_09h11.15.393,t1_Paradigm,2021.1.4,59.81238040557512,
X,left,Distractor,0,41,41,41,1574.062967007514,1576.062882957398,left,1,3,0.6678259379696101,M25R08,2022-10-21_09h11.15.393,t1_Paradigm,2021.1.4,59.81238040557512,
W,left,Pretarget,0,42,42,42,1577.562964441022,1579.5629577041836,left,1,3,0.6079764839960262,M25R08,2022-10-21_09h11.15.393,t1_Paradigm,2021.1.4,59.81238040557512,
S,left,Pretarget,0,43,43,43,1581.0631813032087,1583.0796384434216,left,1,3,0.6592284456128255,M25R08,2022-10-21_09h11.15.393,t1_Paradigm,2021.1.4,59.81238040557512,
R,left,Distractor,0,44,44,44,1584.5629711778602,1586.5634632881265,left,1,3,0.7594274070579559,M25R08,2022-10-21_09h11.15.393,t1_Paradigm,2021.1.4,59.81238040557512,
W,right,Target,0,45,45,45,1588.0630369422724,1590.0650948868133,right,1,3,0.9377714786678553,M25R08,2022-10-21_09h11.15.393,t1_Paradigm,2021.1.4,59.81238040557512,
S,right,Target,0,46,46,46,1591.563369293115,1593.5650509370025,None,0,3,,M25R08,2022-10-21_09h11.15.393,t1_Paradigm,2021.1.4,59.81238040557512,
D,left,Distractor,0,47,47,47,1595.0630488119787,1597.0635158995865,left,1,3,1.2351869697449729,M25R08,2022-10-21_09h11.15.393,t1_Paradigm,2021.1.4,59.81238040557512,
T,left,Distractor,0,48,48,48,1598.5630526616005,1600.5634199798806,left,1,3,0.7914392716484144,M25R08,2022-10-21_09h11.15.393,t1_Paradigm,2021.1.4,59.81238040557512,
S,right,Target,0,49,49,49,1602.0629163207486,1604.0639602103038,right,1,3,0.4908869789214805,M25R08,2022-10-21_09h11.15.393,t1_Paradigm,2021.1.4,59.81238040557512,
K,left,Distractor,0,50,50,50,1605.5629339648876,1607.5649014433147,left,1,3,0.7019008798524737,M25R08,2022-10-21_09h11.15.393,t1_Paradigm,2021.1.4,59.81238040557512,
S,left,Lure,0,51,51,51,1609.0634225462563,1611.065059277811,left,1,3,0.7856093376176432,M25R08,2022-10-21_09h11.15.393,t1_Paradigm,2021.1.4,59.81238040557512,
T,left,Pretarget,0,52,52,52,1612.563313473598,1614.5632659948897,left,1,3,0.7115695299580693,M25R08,2022-10-21_09h11.15.393,t1_Paradigm,2021.1.4,59.81238040557512,
V,left,Distractor,0,53,53,53,1616.0633301553316,1618.063024751842,left,1,3,0.7959414061624557,M25R08,2022-10-21_09h11.15.393,t1_Paradigm,2021.1.4,59.81238040557512,
B,left,Distractor,0,54,54,54,1619.562968932325,1621.5650111575378,left,1,3,0.6698312709340826,M25R08,2022-10-21_09h11.15.393,t1_Paradigm,2021.1.4,59.81238040557512,
T,right,Target,0,55,55,55,1623.0631389573682,1625.0635001803748,right,1,3,0.5474312104051933,M25R08,2022-10-21_09h11.15.393,t1_Paradigm,2021.1.4,59.81238040557512,
Y,left,Pretarget,0,56,56,56,1626.5633340049535,1628.5631851528306,left,1,3,0.7437132440973073,M25R08,2022-10-21_09h11.15.393,t1_Paradigm,2021.1.4,59.81238040557512,
T,left,Lure,0,57,57,57,1630.063243859564,1632.0634379447438,left,1,3,0.9553835059050471,M25R08,2022-10-21_09h11.15.393,t1_Paradigm,2021.1.4,59.81238040557512,
P,left,Pretarget,0,58,58,58,1633.5628967517987,1635.5634142054478,left,1,3,0.7194124960806221,M25R08,2022-10-21_09h11.15.393,t1_Paradigm,2021.1.4,59.81238040557512,
Y,right,Target,0,59,59,59,1637.0634430776117,1639.0649181249319,right,1,3,0.9300577956018969,M25R08,2022-10-21_09h11.15.393,t1_Paradigm,2021.1.4,59.81238040557512,
R,left,Distractor,0,60,60,60,1640.5630542655708,1642.5637731828028,left,1,3,0.6793622970581055,M25R08,2022-10-21_09h11.15.393,t1_Paradigm,2021.1.4,59.81238040557512,
P,right,Target,0,61,61,61,1644.0633558194386,1646.0647336638067,left,0,3,0.7141779706580564,M25R08,2022-10-21_09h11.15.393,t1_Paradigm,2021.1.4,59.81238040557512,
L,left,Distractor,0,62,62,62,1647.5629310776712,1649.5633792380104,left,1,3,0.639471857342869,M25R08,2022-10-21_09h11.15.393,t1_Paradigm,2021.1.4,59.81238040557512,
V,left,Distractor,0,63,63,63,1651.0630144862225,1653.0628637092886,left,1,3,0.7717256706673652,M25R08,2022-10-21_09h11.15.393,t1_Paradigm,2021.1.4,59.81238040557512,
H,left,Lure,0,0,0,0,1685.8374775599223,1687.829804939567,None,0,3,,M25R08,2022-10-21_09h11.15.393,t1_Paradigm,2021.1.4,59.81238040557512,
B,left,Distractor,0,1,1,1,1689.3301530097378,1691.3308205986395,None,0,3,,M25R08,2022-10-21_09h11.15.393,t1_Paradigm,2021.1.4,59.81238040557512,
T,left,Distractor,0,2,2,2,1692.8297125486424,1694.8295309747336,None,0,3,,M25R08,2022-10-21_09h11.15.393,t1_Paradigm,2021.1.4,59.81238040557512,
R,left,Distractor,0,3,3,3,1696.3297622730024,1698.3300907741068,left,1,3,0.560646005324088,M25R08,2022-10-21_09h11.15.393,t1_Paradigm,2021.1.4,59.81238040557512,
H,left,Pretarget,0,4,4,4,1699.846706069773,1701.8297369296197,left,1,3,1.3812458536121994,M25R08,2022-10-21_09h11.15.393,t1_Paradigm,2021.1.4,59.81238040557512,
K,left,Distractor,0,5,5,5,1703.3298322077608,1705.3307375109289,left,1,3,0.6961703945416957,M25R08,2022-10-21_09h11.15.393,t1_Paradigm,2021.1.4,59.81238040557512,
G,left,Distractor,0,6,6,6,1706.829565942171,1708.8295845487155,left,1,3,0.7171072132186964,M25R08,2022-10-21_09h11.15.393,t1_Paradigm,2021.1.4,59.81238040557512,
H,right,Target,0,7,7,7,1710.3295155762462,1712.330112909549,left,0,3,0.9767084950581193,M25R08,2022-10-21_09h11.15.393,t1_Paradigm,2021.1.4,59.81238040557512,
Y,left,Pretarget,0,8,8,8,1713.8295559972757,1715.8302822929109,left,1,3,0.8365770688978955,M25R08,2022-10-21_09h11.15.393,t1_Paradigm,2021.1.4,59.81238040557512,
S,left,Distractor,0,9,9,9,1717.3298482479295,1719.3299002178246,left,1,3,0.8569579377071932,M25R08,2022-10-21_09h11.15.393,t1_Paradigm,2021.1.4,59.81238040557512,
P,left,Distractor,0,10,10,10,1720.829757460975,1722.8306772001088,left,1,3,0.6360463340533897,M25R08,2022-10-21_09h11.15.393,t1_Paradigm,2021.1.4,59.81238040557512,
Y,right,Target,0,11,11,11,1724.3296653907746,1726.3300638267538,right,1,3,1.0407752115279436,M25R08,2022-10-21_09h11.15.393,t1_Paradigm,2021.1.4,59.81238040557512,
H,left,Lure,0,12,12,12,1727.829704528558,1729.8295919271186,left,1,3,0.8051676703616977,M25R08,2022-10-21_09h11.15.393,t1_Paradigm,2021.1.4,59.81238040557512,
Q,left,Distractor,0,13,13,13,1731.3295861526858,1733.3306691801408,left,1,3,0.744142477051355,M25R08,2022-10-21_09h11.15.393,t1_Paradigm,2021.1.4,59.81238040557512,
V,left,Pretarget,0,14,14,14,1734.8300253305351,1736.8296865636948,left,1,3,0.717009368701838,M25R08,2022-10-21_09h11.15.393,t1_Paradigm,2021.1.4,59.81238040557512,
G,left,Distractor,0,15,15,15,1738.3300227641594,1740.3306592352455,left,1,3,0.7362658267375082,M25R08,2022-10-21_09h11.15.393,t1_Paradigm,2021.1.4,59.81238040557512,
Z,left,Pretarget,0,16,16,16,1741.82992074918,1743.831923836493,left,1,3,0.8348537207348272,M25R08,2022-10-21_09h11.15.393,t1_Paradigm,2021.1.4,59.81238040557512,
V,right,Target,0,17,17,17,1745.3298793656286,1747.3300490699476,right,1,3,0.4726660696323961,M25R08,2022-10-21_09h11.15.393,t1_Paradigm,2021.1.4,59.81238040557512,
N,left,Distractor,0,18,18,18,1748.8299355059862,1750.8297244183486,left,1,3,0.7009760078508407,M25R08,2022-10-21_09h11.15.393,t1_Paradigm,2021.1.4,59.81238040557512,
Z,right,Target,0,19,19,19,1752.3296390849864,1754.330307315453,left,0,3,0.9605837055714801,M25R08,2022-10-21_09h11.15.393,t1_Paradigm,2021.1.4,59.81238040557512,
R,left,Distractor,0,20,20,20,1755.829607325606,1757.8297141526127,left,1,3,0.8530233016936108,M25R08,2022-10-21_09h11.15.393,t1_Paradigm,2021.1.4,59.81238040557512,
P,left,Distractor,0,21,21,21,1759.3298931601457,1761.3320354756434,left,1,3,0.6948766002897173,M25R08,2022-10-21_09h11.15.393,t1_Paradigm,2021.1.4,59.81238040557512,
Z,right,Target,0,22,22,22,1762.8298042980023,1764.8295351451961,right,1,3,0.7496288320980966,M25R08,2022-10-21_09h11.15.393,t1_Paradigm,2021.1.4,59.81238040557512,
D,left,Pretarget,0,23,23,23,1766.3297876162687,1768.3302534207469,left,1,3,0.7525561499642208,M25R08,2022-10-21_09h11.15.393,t1_Paradigm,2021.1.4,59.81238040557512,
K,left,Distractor,0,24,24,24,1769.8299274860183,1771.8303563981317,left,1,3,0.7084539014613256,M25R08,2022-10-21_09h11.15.393,t1_Paradigm,2021.1.4,59.81238040557512,
W,left,Distractor,0,25,25,25,1773.3298703832552,1775.3303942527855,left,1,3,0.5843532696599141,M25R08,2022-10-21_09h11.15.393,t1_Paradigm,2021.1.4,59.81238040557512,
D,right,Target,0,26,26,26,1776.8299977416173,1778.8302425134461,right,1,3,0.7647228848654777,M25R08,2022-10-21_09h11.15.393,t1_Paradigm,2021.1.4,59.81238040557512,
G,left,Pretarget,0,27,27,27,1780.3296535210684,1782.3303916864097,left,1,3,0.7044101927895099,M25R08,2022-10-21_09h11.15.393,t1_Paradigm,2021.1.4,59.81238040557512,
V,left,Distractor,0,28,28,28,1783.8300121776992,1785.8302976913983,left,1,3,0.8044651140226051,M25R08,2022-10-21_09h11.15.393,t1_Paradigm,2021.1.4,59.81238040557512,
D,right,Target,0,29,29,29,1787.3297465536743,1789.3299932503141,right,1,3,1.1767856157384813,M25R08,2022-10-21_09h11.15.393,t1_Paradigm,2021.1.4,59.81238040557512,
G,right,Target,0,30,30,30,1790.8299749646103,1792.8316877263132,None,0,3,,M25R08,2022-10-21_09h11.15.393,t1_Paradigm,2021.1.4,59.81238040557512,
B,left,Pretarget,0,31,31,31,1794.3296977917198,1796.3309514857829,left,1,3,1.0878288380336016,M25R08,2022-10-21_09h11.15.393,t1_Paradigm,2021.1.4,59.81238040557512,
N,left,Distractor,0,32,32,32,1797.8297382128658,1799.8295749246608,left,1,3,0.6933130116667598,M25R08,2022-10-21_09h11.15.393,t1_Paradigm,2021.1.4,59.81238040557512,
F,left,Distractor,0,33,33,33,1801.329567866982,1803.3309806787875,left,1,3,0.791946780285798,M25R08,2022-10-21_09h11.15.393,t1_Paradigm,2021.1.4,59.81238040557512,
B,right,Target,0,34,34,34,1804.8299316563644,1806.8297895410797,right,1,3,0.5890363366343081,M25R08,2022-10-21_09h11.15.393,t1_Paradigm,2021.1.4,59.81238040557512,
Q,left,Pretarget,0,35,35,35,1808.3297016413417,1810.3307727990905,left,1,3,1.2159866520669311,M25R08,2022-10-21_09h11.15.393,t1_Paradigm,2021.1.4,59.81238040557512,
S,left,Pretarget,0,36,36,36,1811.8299942127196,1813.8299387140432,left,1,3,0.8368157454533502,M25R08,2022-10-21_09h11.15.393,t1_Paradigm,2021.1.4,59.81238040557512,
W,left,Distractor,0,37,37,37,1815.3295941727702,1817.3304981926922,left,1,3,0.8083477801410481,M25R08,2022-10-21_09h11.15.393,t1_Paradigm,2021.1.4,59.81238040557512,
Q,right,Target,0,38,38,38,1818.8299691901775,1820.8303887991933,right,1,3,0.604459532070905,M25R08,2022-10-21_09h11.15.393,t1_Paradigm,2021.1.4,59.81238040557512,
S,right,Target,0,39,39,39,1822.329675656394,1824.3307817815803,right,1,3,0.5600387272424996,M25R08,2022-10-21_09h11.15.393,t1_Paradigm,2021.1.4,59.81238040557512,
T,left,Distractor,0,40,40,40,1825.829989079968,1827.8296875261003,left,1,3,0.5971776485675946,M25R08,2022-10-21_09h11.15.393,t1_Paradigm,2021.1.4,59.81238040557512,
G,left,Distractor,0,41,41,41,1829.3296653907746,1831.3305334808538,left,1,3,0.6804357003420591,M25R08,2022-10-21_09h11.15.393,t1_Paradigm,2021.1.4,59.81238040557512,
D,left,Distractor,0,42,42,42,1832.829435375752,1834.8307776111178,left,1,3,0.7482253236230463,M25R08,2022-10-21_09h11.15.393,t1_Paradigm,2021.1.4,59.81238040557512,
S,left,Lure,0,43,43,43,1836.3295065937564,1838.330142102437,left,1,3,0.8006292851641774,M25R08,2022-10-21_09h11.15.393,t1_Paradigm,2021.1.4,59.81238040557512,
Z,left,Pretarget,0,44,44,44,1839.8299252403667,1841.8297680474352,left,1,3,0.7730823421152309,M25R08,2022-10-21_09h11.15.393,t1_Paradigm,2021.1.4,59.81238040557512,
J,left,Distractor,0,45,45,45,1843.329974643886,1845.330744889332,left,1,3,0.8240908151492476,M25R08,2022-10-21_09h11.15.393,t1_Paradigm,2021.1.4,59.81238040557512,
M,left,Pretarget,0,46,46,46,1846.8296875261003,1848.829419014859,left,1,3,0.7653834159718826,M25R08,2022-10-21_09h11.15.393,t1_Paradigm,2021.1.4,59.81238040557512,
Z,right,Target,0,47,47,47,1850.3300237265648,1852.3299329396104,left,0,3,1.1369798677042127,M25R08,2022-10-21_09h11.15.393,t1_Paradigm,2021.1.4,59.81238040557512,
P,left,Distractor,0,48,48,48,1853.8299140123418,1855.8308719269698,left,1,3,0.8837952667381614,M25R08,2022-10-21_09h11.15.393,t1_Paradigm,2021.1.4,59.81238040557512,
M,right,Target,0,49,49,49,1857.3298909144942,1859.3299255612073,right,1,3,0.42493490932974964,M25R08,2022-10-21_09h11.15.393,t1_Paradigm,2021.1.4,59.81238040557512,
K,left,Distractor,0,50,50,50,1860.8296926589683,1862.8296862428542,left,1,3,0.9729483752744272,M25R08,2022-10-21_09h11.15.393,t1_Paradigm,2021.1.4,59.81238040557512,
Y,left,Distractor,0,51,51,51,1864.3298004483804,1866.3306345334277,left,1,3,0.6242584662977606,M25R08,2022-10-21_09h11.15.393,t1_Paradigm,2021.1.4,59.81238040557512,
X,left,Distractor,0,52,52,52,1867.829836699064,1869.829919465934,left,1,3,0.5489537365501747,M25R08,2022-10-21_09h11.15.393,t1_Paradigm,2021.1.4,59.81238040557512,
F,left,Pretarget,0,53,53,53,1871.329634272959,1873.3299255612073,left,1,3,0.6330840488662943,M25R08,2022-10-21_09h11.15.393,t1_Paradigm,2021.1.4,59.81238040557512,
M,left,Lure,0,54,54,54,1874.8299502629088,1876.8316771398531,left,1,3,0.6191577152349055,M25R08,2022-10-21_09h11.15.393,t1_Paradigm,2021.1.4,59.81238040557512,
V,left,Distractor,0,55,55,55,1878.329985871911,1880.3299342228565,left,1,3,0.8649712497135624,M25R08,2022-10-21_09h11.15.393,t1_Paradigm,2021.1.4,59.81238040557512,
F,right,Target,0,56,56,56,1881.829485100112,1883.8307343028719,left,0,3,0.7561035780236125,M25R08,2022-10-21_09h11.15.393,t1_Paradigm,2021.1.4,59.81238040557512,
S,left,Distractor,0,57,57,57,1885.3299364683917,1887.330120287952,left,1,3,1.0006586064118892,M25R08,2022-10-21_09h11.15.393,t1_Paradigm,2021.1.4,59.81238040557512,
D,left,Distractor,0,58,58,58,1888.8299749646103,1890.8300051200204,left,1,3,0.8129198495298624,M25R08,2022-10-21_09h11.15.393,t1_Paradigm,2021.1.4,59.81238040557512,
F,right,Target,0,59,59,59,1892.3300115361344,1894.3296711652074,right,1,3,0.6571849371539429,M25R08,2022-10-21_09h11.15.393,t1_Paradigm,2021.1.4,59.81238040557512,
V,left,Pretarget,0,60,60,60,1895.829980739043,1897.82971896464,left,1,3,0.9813456871779636,M25R08,2022-10-21_09h11.15.393,t1_Paradigm,2021.1.4,59.81238040557512,
J,left,Distractor,0,61,61,61,1899.3294745136518,1901.3302091500955,left,1,3,0.8406297599431127,M25R08,2022-10-21_09h11.15.393,t1_Paradigm,2021.1.4,59.81238040557512,
V,left,Lure,0,62,62,62,1902.8295521476539,1904.8309354457306,left,1,3,0.8919324083253741,M25R08,2022-10-21_09h11.15.393,t1_Paradigm,2021.1.4,59.81238040557512,
V,right,Target,0,63,63,63,1906.3296150248498,1908.3299528292846,right,1,3,0.5608497145585716,M25R08,2022-10-21_09h11.15.393,t1_Paradigm,2021.1.4,59.81238040557512,
R,left,Distractor,0,0,0,0,2029.4402609018143,2031.430971439695,None,0,4,,M25R08,2022-10-21_09h11.15.393,t1_Paradigm,2021.1.4,59.81238040557512,
F,left,Distractor,0,1,1,1,2032.928915419965,2034.929757204256,None,0,4,,M25R08,2022-10-21_09h11.15.393,t1_Paradigm,2021.1.4,59.81238040557512,
P,left,Pretarget,0,2,2,2,2036.4293886028463,2038.429062347277,None,0,4,,M25R08,2022-10-21_09h11.15.393,t1_Paradigm,2021.1.4,59.81238040557512,
H,left,Distractor,0,3,3,3,2039.9299195300555,2041.9306958707748,None,0,4,,M25R08,2022-10-21_09h11.15.393,t1_Paradigm,2021.1.4,59.81238040557512,
Z,left,Distractor,0,4,4,4,2043.4295249436982,2045.4316762415692,left,1,4,0.43484351923689246,M25R08,2022-10-21_09h11.15.393,t1_Paradigm,2021.1.4,59.81238040557512,
T,left,Distractor,0,5,5,5,2046.9299275501398,2048.9296991390875,left,1,4,0.697184449643828,M25R08,2022-10-21_09h11.15.393,t1_Paradigm,2021.1.4,59.81238040557512,
P,right,Target,0,6,6,6,2050.429680211819,2052.4295573446434,right,1,4,0.6690982384607196,M25R08,2022-10-21_09h11.15.393,t1_Paradigm,2021.1.4,59.81238040557512,
G,left,Distractor,0,7,7,7,2053.9296070690034,2055.930047209258,left,1,4,0.6887216940522194,M25R08,2022-10-21_09h11.15.393,t1_Paradigm,2021.1.4,59.81238040557512,
L,left,Distractor,0,8,8,8,2057.429917926085,2059.429897073889,left,1,4,0.8690518505172804,M25R08,2022-10-21_09h11.15.393,t1_Paradigm,2021.1.4,59.81238040557512,
P,left,Lure,0,9,9,9,2060.9300035801716,2062.9305717204697,right,0,4,1.0803580021020025,M25R08,2022-10-21_09h11.15.393,t1_Paradigm,2021.1.4,59.81238040557512,
Q,left,Pretarget,0,10,10,10,2064.4299050939735,2066.430566587602,left,1,4,0.8604450549464673,M25R08,2022-10-21_09h11.15.393,t1_Paradigm,2021.1.4,59.81238040557512,
D,left,Distractor,0,11,11,11,2067.929708442418,2069.930449174135,left,1,4,0.7042754559079185,M25R08,2022-10-21_09h11.15.393,t1_Paradigm,2021.1.4,59.81238040557512,
M,left,Pretarget,0,12,12,12,2071.429633053951,2073.430120993755,left,1,4,0.6130624780198559,M25R08,2022-10-21_09h11.15.393,t1_Paradigm,2021.1.4,59.81238040557512,
C,left,Distractor,0,13,13,13,2074.929900602787,2076.930002938607,left,1,4,0.5846233848715201,M25R08,2022-10-21_09h11.15.393,t1_Paradigm,2021.1.4,59.81238040557512,
Q,right,Target,0,14,14,14,2078.4298560112948,2080.4302602217067,right,1,4,0.492317434749566,M25R08,2022-10-21_09h11.15.393,t1_Paradigm,2021.1.4,59.81238040557512,
R,left,Distractor,0,15,15,15,2081.929890337051,2083.9302829987137,left,1,4,0.7525417138822377,M25R08,2022-10-21_09h11.15.393,t1_Paradigm,2021.1.4,59.81238040557512,
M,right,Target,0,16,16,16,2085.429965725518,2087.4301405625883,left,0,4,0.7087124678073451,M25R08,2022-10-21_09h11.15.393,t1_Paradigm,2021.1.4,59.81238040557512,
S,left,Distractor,0,17,17,17,2088.9298187983222,2090.9300921214744,left,1,4,0.7926955319708213,M25R08,2022-10-21_09h11.15.393,t1_Paradigm,2021.1.4,59.81238040557512,
Z,left,Distractor,0,18,18,18,2092.4298316303175,2094.4302653545747,left,1,4,0.6683950406732038,M25R08,2022-10-21_09h11.15.393,t1_Paradigm,2021.1.4,59.81238040557512,
L,left,Pretarget,0,19,19,19,2095.9295316805365,2097.9302637506044,left,1,4,1.1844710680888966,M25R08,2022-10-21_09h11.15.393,t1_Paradigm,2021.1.4,59.81238040557512,
M,right,Target,0,20,20,20,2099.4298066077754,2101.4302040814655,left,0,4,1.316720390226692,M25R08,2022-10-21_09h11.15.393,t1_Paradigm,2021.1.4,59.81238040557512,
P,left,Distractor,0,21,21,21,2102.9299301165156,2104.9312537454534,left,1,4,1.2555476282723248,M25R08,2022-10-21_09h11.15.393,t1_Paradigm,2021.1.4,59.81238040557512,
F,left,Distractor,0,22,22,22,2106.429668983794,2108.4302332743537,left,1,4,0.7328412659699097,M25R08,2022-10-21_09h11.15.393,t1_Paradigm,2021.1.4,59.81238040557512,
L,right,Target,0,23,23,23,2109.929890978732,2111.930548943463,left,0,4,0.6561458596261218,M25R08,2022-10-21_09h11.15.393,t1_Paradigm,2021.1.4,59.81238040557512,
L,left,Lure,0,24,24,24,2113.4298893746454,2115.429842858459,right,0,4,1.028939544223249,M25R08,2022-10-21_09h11.15.393,t1_Paradigm,2021.1.4,59.81238040557512,
V,left,Pretarget,0,25,25,25,2116.929822647944,2118.9304844622966,left,1,4,1.0160911051789299,M25R08,2022-10-21_09h11.15.393,t1_Paradigm,2021.1.4,59.81238040557512,
Z,left,Distractor,0,26,26,26,2120.4297687531216,2122.4296965727117,left,1,4,0.6849917296785861,M25R08,2022-10-21_09h11.15.393,t1_Paradigm,2021.1.4,59.81238040557512,
H,left,Distractor,0,27,27,27,2123.929667058983,2125.9312296852004,left,1,4,0.7195029623107985,M25R08,2022-10-21_09h11.15.393,t1_Paradigm,2021.1.4,59.81238040557512,
X,left,Distractor,0,28,28,28,2127.4298839210533,2129.4304273595335,left,1,4,0.788326530251652,M25R08,2022-10-21_09h11.15.393,t1_Paradigm,2021.1.4,59.81238040557512,
V,right,Target,0,29,29,29,2130.9298704473767,2132.9302480312763,right,1,4,0.6806827179389074,M25R08,2022-10-21_09h11.15.393,t1_Paradigm,2021.1.4,59.81238040557512,
C,left,Distractor,0,30,30,30,2134.42987782578,2136.4306294647977,left,1,4,0.668071030639112,M25R08,2022-10-21_09h11.15.393,t1_Paradigm,2021.1.4,59.81238040557512,
S,left,Pretarget,0,31,31,31,2137.9293773748213,2139.9311777153052,left,1,4,0.8319247988983989,M25R08,2022-10-21_09h11.15.393,t1_Paradigm,2021.1.4,59.81238040557512,
D,left,Distractor,0,32,32,32,2141.4295980865136,2143.4307093444513,left,1,4,0.612128944369033,M25R08,2022-10-21_09h11.15.393,t1_Paradigm,2021.1.4,59.81238040557512,
V,left,Distractor,0,33,33,33,2144.9295550991083,2146.9313830286264,right,0,4,0.5353000845061615,M25R08,2022-10-21_09h11.15.393,t1_Paradigm,2021.1.4,59.81238040557512,
R,left,Distractor,0,34,34,34,2148.429308402352,2150.430815209169,left,1,4,0.9560202978318557,M25R08,2022-10-21_09h11.15.393,t1_Paradigm,2021.1.4,59.81238040557512,
S,right,Target,0,35,35,35,2151.929644923657,2153.9305274498183,left,0,4,1.1681659880559891,M25R08,2022-10-21_09h11.15.393,t1_Paradigm,2021.1.4,59.81238040557512,
Y,left,Distractor,0,36,36,36,2155.429652943625,2157.4297042719554,left,1,4,0.7251596631249413,M25R08,2022-10-21_09h11.15.393,t1_Paradigm,2021.1.4,59.81238040557512,
N,left,Pretarget,0,37,37,37,2158.929675720632,2160.9299172845203,left,1,4,0.6487780011957511,M25R08,2022-10-21_09h11.15.393,t1_Paradigm,2021.1.4,59.81238040557512,
Z,left,Pretarget,0,38,38,38,2162.4298544073245,2164.429477144149,left,1,4,0.845223002252169,M25R08,2022-10-21_09h11.15.393,t1_Paradigm,2021.1.4,59.81238040557512,
P,left,Pretarget,0,39,39,39,2165.929604502511,2167.9301450538915,left,1,4,0.6566177593776956,M25R08,2022-10-21_09h11.15.393,t1_Paradigm,2021.1.4,59.81238040557512,
M,left,Distractor,0,40,40,40,2169.42948965542,2171.429293324705,left,1,4,0.8694069783668965,M25R08,2022-10-21_09h11.15.393,t1_Paradigm,2021.1.4,59.81238040557512,
N,right,Target,0,41,41,41,2172.9296914398437,2174.9314548881957,left,0,4,0.7594642991898581,M25R08,2022-10-21_09h11.15.393,t1_Paradigm,2021.1.4,59.81238040557512,
Z,right,Target,0,42,42,42,2176.429476823425,2178.429814948584,right,1,4,1.0048672071425244,M25R08,2022-10-21_09h11.15.393,t1_Paradigm,2021.1.4,59.81238040557512,
P,right,Target,0,43,43,43,2179.9294367231196,2181.9296946479008,None,0,4,,M25R08,2022-10-21_09h11.15.393,t1_Paradigm,2021.1.4,59.81238040557512,
X,left,Pretarget,0,44,44,44,2183.4294492343906,2185.429886166705,left,1,4,0.9809738777112216,M25R08,2022-10-21_09h11.15.393,t1_Paradigm,2021.1.4,59.81238040557512,
Z,left,Lure,0,45,45,45,2186.9298874498345,2188.9306214447133,right,0,4,1.2881462395889685,M25R08,2022-10-21_09h11.15.393,t1_Paradigm,2021.1.4,59.81238040557512,
R,left,Pretarget,0,46,46,46,2190.4296109186253,2192.4319197302684,left,1,4,0.6667502891505137,M25R08,2022-10-21_09h11.15.393,t1_Paradigm,2021.1.4,59.81238040557512,
K,left,Distractor,0,47,47,47,2193.929634337197,2195.9316220260225,left,1,4,0.5272758653154597,M25R08,2022-10-21_09h11.15.393,t1_Paradigm,2021.1.4,59.81238040557512,
X,right,Target,0,48,48,48,2197.4295624775114,2199.4300658158027,left,0,4,0.6766938663786277,M25R08,2022-10-21_09h11.15.393,t1_Paradigm,2021.1.4,59.81238040557512,
B,left,Distractor,0,49,49,49,2200.9299333245726,2202.9297058759257,left,1,4,0.6330368908820674,M25R08,2022-10-21_09h11.15.393,t1_Paradigm,2021.1.4,59.81238040557512,
R,right,Target,0,50,50,50,2204.429903490003,2206.4304254347226,right,1,4,0.4447874173056334,M25R08,2022-10-21_09h11.15.393,t1_Paradigm,2021.1.4,59.81238040557512,
Y,left,Pretarget,0,51,51,51,2207.92986595619,2209.9314998005284,left,1,4,0.5753499628044665,M25R08,2022-10-21_09h11.15.393,t1_Paradigm,2021.1.4,59.81238040557512,
W,left,Pretarget,0,52,52,52,2211.4296917606844,2213.4301569234813,left,1,4,0.5807355861179531,M25R08,2022-10-21_09h11.15.393,t1_Paradigm,2021.1.4,59.81238040557512,
Z,left,Distractor,0,53,53,53,2214.9294732945273,2216.946024108911,left,1,4,0.5846099113114178,M25R08,2022-10-21_09h11.15.393,t1_Paradigm,2021.1.4,59.81238040557512,
Q,left,Distractor,0,54,54,54,2218.4295448333723,2220.4295207732357,left,1,4,0.7654597669607028,M25R08,2022-10-21_09h11.15.393,t1_Paradigm,2021.1.4,59.81238040557512,
Y,right,Target,0,55,55,55,2221.929075500113,2223.929423249443,left,0,4,1.1052974667400122,M25R08,2022-10-21_09h11.15.393,t1_Paradigm,2021.1.4,59.81238040557512,
W,right,Target,0,56,56,56,2225.429612201755,2227.4297193496022,right,1,4,0.7250483448151499,M25R08,2022-10-21_09h11.15.393,t1_Paradigm,2021.1.4,59.81238040557512,
H,left,Pretarget,0,57,57,57,2228.9299015651923,2230.929500562721,left,1,4,0.5851264024386182,M25R08,2022-10-21_09h11.15.393,t1_Paradigm,2021.1.4,59.81238040557512,
M,left,Distractor,0,58,58,58,2232.4293937357143,2234.4309246025514,left,1,4,0.7479795892722905,M25R08,2022-10-21_09h11.15.393,t1_Paradigm,2021.1.4,59.81238040557512,
R,left,Pretarget,0,59,59,59,2235.9298675601603,2237.9294489136664,left,1,4,0.6893090824596584,M25R08,2022-10-21_09h11.15.393,t1_Paradigm,2021.1.4,59.81238040557512,
J,left,Distractor,0,60,60,60,2239.4296808533836,2241.429541304591,left,1,4,0.5653396586421877,M25R08,2022-10-21_09h11.15.393,t1_Paradigm,2021.1.4,59.81238040557512,
H,right,Target,0,61,61,61,2242.9296410740353,2244.931772482116,right,1,4,0.5828698814148083,M25R08,2022-10-21_09h11.15.393,t1_Paradigm,2021.1.4,59.81238040557512,
Z,left,Distractor,0,62,62,62,2246.429647490033,2248.4294595001265,left,1,4,0.6692461281782016,M25R08,2022-10-21_09h11.15.393,t1_Paradigm,2021.1.4,59.81238040557512,
R,right,Target,0,63,63,63,2249.9296523020603,2251.9302461064653,right,1,4,0.44879359216429293,M25R08,2022-10-21_09h11.15.393,t1_Paradigm,2021.1.4,59.81238040557512,
J,left,Pretarget,0,0,0,0,2274.5009168520337,2276.4981332534226,None,0,4,,M25R08,2022-10-21_09h11.15.393,t1_Paradigm,2021.1.4,59.81238040557512,
G,left,Pretarget,0,1,1,1,2277.9960592688294,2279.9967820356833,None,0,4,,M25R08,2022-10-21_09h11.15.393,t1_Paradigm,2021.1.4,59.81238040557512,
Z,left,Distractor,0,2,2,2,2281.496568060713,2283.4959960709093,None,0,4,,M25R08,2022-10-21_09h11.15.393,t1_Paradigm,2021.1.4,59.81238040557512,
F,left,Distractor,0,3,3,3,2284.996429153485,2286.996696060756,None,0,4,,M25R08,2022-10-21_09h11.15.393,t1_Paradigm,2021.1.4,59.81238040557512,
J,right,Target,0,4,4,4,2288.4963374041254,2290.497907729703,right,1,4,0.5847715954296291,M25R08,2022-10-21_09h11.15.393,t1_Paradigm,2021.1.4,59.81238040557512,
G,right,Target,0,5,5,5,2291.996302436688,2293.9985634488985,right,1,4,0.8919218218652532,M25R08,2022-10-21_09h11.15.393,t1_Paradigm,2021.1.4,59.81238040557512,
H,left,Distractor,0,6,6,6,2295.4962979455013,2297.496069534449,left,1,4,0.5786622429732233,M25R08,2022-10-21_09h11.15.393,t1_Paradigm,2021.1.4,59.81238040557512,
P,left,Distractor,0,7,7,7,2298.996434286353,2300.9970656245714,left,1,4,0.6937252421630546,M25R08,2022-10-21_09h11.15.393,t1_Paradigm,2021.1.4,59.81238040557512,
G,left,Lure,0,8,8,8,2302.4964076597244,2304.4962023465196,left,1,4,0.890633802046068,M25R08,2022-10-21_09h11.15.393,t1_Paradigm,2021.1.4,59.81238040557512,
S,left,Distractor,0,9,9,9,2305.9966235595057,2307.997982476605,left,1,4,0.7807783810421824,M25R08,2022-10-21_09h11.15.393,t1_Paradigm,2021.1.4,59.81238040557512,
R,left,Pretarget,0,10,10,10,2309.49650967482,2311.4967653539497,left,1,4,1.2499101754510775,M25R08,2022-10-21_09h11.15.393,t1_Paradigm,2021.1.4,59.81238040557512,
T,left,Pretarget,0,11,11,11,2312.9962783765513,2314.997152561904,left,1,4,0.8213473169598728,M25R08,2022-10-21_09h11.15.393,t1_Paradigm,2021.1.4,59.81238040557512,
X,left,Distractor,0,12,12,12,2316.4962995494716,2318.497312642052,left,1,4,0.5694853824097663,M25R08,2022-10-21_09h11.15.393,t1_Paradigm,2021.1.4,59.81238040557512,
F,left,Pretarget,0,13,13,13,2319.9960502863396,2321.996456421679,None,0,4,,M25R08,2022-10-21_09h11.15.393,t1_Paradigm,2021.1.4,59.81238040557512,
R,right,Target,0,14,14,14,2323.4964002813213,2325.4981008524774,right,1,4,0.49677754438016564,M25R08,2022-10-21_09h11.15.393,t1_Paradigm,2021.1.4,59.81238040557512,
T,right,Target,0,15,15,15,2326.996487218654,2328.9985996994656,left,0,4,0.64452416729182,M25R08,2022-10-21_09h11.15.393,t1_Paradigm,2021.1.4,59.81238040557512,
C,left,Distractor,0,16,16,16,2330.4965106372256,2332.4965440005763,left,1,4,0.7624099027598277,M25R08,2022-10-21_09h11.15.393,t1_Paradigm,2021.1.4,59.81238040557512,
F,right,Target,0,17,17,17,2333.996492672246,2335.9979892134434,right,1,4,1.1326775926863775,M25R08,2022-10-21_09h11.15.393,t1_Paradigm,2021.1.4,59.81238040557512,
M,left,Distractor,0,18,18,18,2337.4965324517107,2339.4970832687104,left,1,4,0.9137860789196566,M25R08,2022-10-21_09h11.15.393,t1_Paradigm,2021.1.4,59.81238040557512,
N,left,Distractor,0,19,19,19,2340.996231539524,2342.998464000295,left,1,4,0.8520817480748519,M25R08,2022-10-21_09h11.15.393,t1_Paradigm,2021.1.4,59.81238040557512,
R,left,Lure,0,20,20,20,2344.4960121109616,2346.497293073102,left,1,4,0.9534304635599256,M25R08,2022-10-21_09h11.15.393,t1_Paradigm,2021.1.4,59.81238040557512,
F,right,Target,0,21,21,21,2347.9965080707334,2349.997517313692,right,1,4,1.2453724318183959,M25R08,2022-10-21_09h11.15.393,t1_Paradigm,2021.1.4,59.81238040557512,
P,left,Distractor,0,22,22,22,2351.496202025679,2353.4965828176355,left,1,4,0.6103269999148324,M25R08,2022-10-21_09h11.15.393,t1_Paradigm,2021.1.4,59.81238040557512,
L,left,Pretarget,0,23,23,23,2354.9964288326446,2356.9978910479695,left,1,4,0.6452276860363781,M25R08,2022-10-21_09h11.15.393,t1_Paradigm,2021.1.4,59.81238040557512,
T,left,Distractor,0,24,24,24,2358.4961109180003,2360.4960486823693,left,1,4,0.874762446153909,M25R08,2022-10-21_09h11.15.393,t1_Paradigm,2021.1.4,59.81238040557512,
F,left,Distractor,0,25,25,25,2361.9964451935375,2363.996339970501,right,0,4,0.4465274470858276,M25R08,2022-10-21_09h11.15.393,t1_Paradigm,2021.1.4,59.81238040557512,
V,left,Distractor,0,26,26,26,2365.4960541359615,2367.49672493292,left,1,4,0.5939641754375771,M25R08,2022-10-21_09h11.15.393,t1_Paradigm,2021.1.4,59.81238040557512,
L,right,Target,0,27,27,27,2368.9962507876335,2370.9973472886486,right,1,4,0.565474716364406,M25R08,2022-10-21_09h11.15.393,t1_Paradigm,2021.1.4,59.81238040557512,
S,left,Pretarget,0,28,28,28,2372.4964195294306,2374.4960448327474,left,1,4,1.1147415555315092,M25R08,2022-10-21_09h11.15.393,t1_Paradigm,2021.1.4,59.81238040557512,
W,left,Distractor,0,29,29,29,2375.9961112387246,2377.9982317396207,left,1,4,0.7164543813560158,M25R08,2022-10-21_09h11.15.393,t1_Paradigm,2021.1.4,59.81238040557512,
Q,left,Distractor,0,30,30,30,2379.4963835995877,2381.4976286320016,left,1,4,0.8170768013224006,M25R08,2022-10-21_09h11.15.393,t1_Paradigm,2021.1.4,59.81238040557512,
L,right,Target,0,31,31,31,2382.996381674777,2384.9970996296033,right,1,4,0.7737370989052579,M25R08,2022-10-21_09h11.15.393,t1_Paradigm,2021.1.4,59.81238040557512,
S,right,Target,0,32,32,32,2386.496472461731,2388.4974063162226,right,1,4,0.6012223196448758,M25R08,2022-10-21_09h11.15.393,t1_Paradigm,2021.1.4,59.81238040557512,
Z,left,Pretarget,0,33,33,33,2389.996223198599,2391.9960679304786,left,1,4,0.5266692287987098,M25R08,2022-10-21_09h11.15.393,t1_Paradigm,2021.1.4,59.81238040557512,
F,left,Distractor,0,34,34,34,2393.496249825228,2395.49641920859,left,1,4,0.6264197090640664,M25R08,2022-10-21_09h11.15.393,t1_Paradigm,2021.1.4,59.81238040557512,
V,left,Distractor,0,35,35,35,2396.9964384566993,2398.9975243713707,left,1,4,0.6453438163734972,M25R08,2022-10-21_09h11.15.393,t1_Paradigm,2021.1.4,59.81238040557512,
M,left,Distractor,0,36,36,36,2400.4962151786312,2402.4971878500655,left,1,4,0.9055401855148375,M25R08,2022-10-21_09h11.15.393,t1_Paradigm,2021.1.4,59.81238040557512,
Z,right,Target,0,37,37,37,2403.996517374064,2405.9971397297923,right,1,4,0.44592273549642414,M25R08,2022-10-21_09h11.15.393,t1_Paradigm,2021.1.4,59.81238040557512,
H,left,Pretarget,0,38,38,38,2407.496560361469,2409.4964830481913,left,1,4,0.9464273570338264,M25R08,2022-10-21_09h11.15.393,t1_Paradigm,2021.1.4,59.81238040557512,
L,left,Distractor,0,39,39,39,2410.996296662255,2412.9961526221596,right,0,4,1.2705643675290048,M25R08,2022-10-21_09h11.15.393,t1_Paradigm,2021.1.4,59.81238040557512,
G,left,Distractor,0,40,40,40,2414.496427870239,2416.496984140831,left,1,4,0.5857686478411779,M25R08,2022-10-21_09h11.15.393,t1_Paradigm,2021.1.4,59.81238040557512,
K,left,Distractor,0,41,41,41,2417.9965074291686,2419.996930246125,left,1,4,0.6217985568800941,M25R08,2022-10-21_09h11.15.393,t1_Paradigm,2021.1.4,59.81238040557512,
H,right,Target,0,42,42,42,2421.496045795153,2423.498149935156,right,1,4,0.7365465285256505,M25R08,2022-10-21_09h11.15.393,t1_Paradigm,2021.1.4,59.81238040557512,
B,left,Distractor,0,43,43,43,2424.9961526221596,2426.9982224364066,left,1,4,0.6286540946457535,M25R08,2022-10-21_09h11.15.393,t1_Paradigm,2021.1.4,59.81238040557512,
Z,left,Distractor,0,44,44,44,2428.4964830481913,2430.49665403564,left,1,4,0.7142055595759302,M25R08,2022-10-21_09h11.15.393,t1_Paradigm,2021.1.4,59.81238040557512,
T,left,Pretarget,0,45,45,45,2431.996465083328,2433.996784602059,left,1,4,0.7980631903046742,M25R08,2022-10-21_09h11.15.393,t1_Paradigm,2021.1.4,59.81238040557512,
H,right,Target,0,46,46,46,2435.496429153485,2437.496669754968,right,1,4,0.4339702962897718,M25R08,2022-10-21_09h11.15.393,t1_Paradigm,2021.1.4,59.81238040557512,
F,left,Distractor,0,47,47,47,2438.996391619672,2440.9970434892457,left,1,4,0.6138160418486223,M25R08,2022-10-21_09h11.15.393,t1_Paradigm,2021.1.4,59.81238040557512,
R,left,Distractor,0,48,48,48,2442.496395469294,2444.495946988114,left,1,4,0.570852640317753,M25R08,2022-10-21_09h11.15.393,t1_Paradigm,2021.1.4,59.81238040557512,
T,right,Target,0,49,49,49,2445.9961859856267,2447.996308211121,right,1,4,0.5584234893321991,M25R08,2022-10-21_09h11.15.393,t1_Paradigm,2021.1.4,59.81238040557512,
H,right,Target,0,50,50,50,2449.496453213622,2451.4976414641133,left,0,4,0.7050582127412781,M25R08,2022-10-21_09h11.15.393,t1_Paradigm,2021.1.4,59.81238040557512,
Y,left,Pretarget,0,51,51,51,2452.9964673289796,2454.9972545768833,left,1,4,0.5493152803974226,M25R08,2022-10-21_09h11.15.393,t1_Paradigm,2021.1.4,59.81238040557512,
H,left,Distractor,0,52,52,52,2456.4964968427084,2458.4970710781636,right,0,4,0.7619380031246692,M25R08,2022-10-21_09h11.15.393,t1_Paradigm,2021.1.4,59.81238040557512,
S,left,Distractor,0,53,53,53,2459.9963749379385,2461.996137223672,left,1,4,0.7665537016000599,M25R08,2022-10-21_09h11.15.393,t1_Paradigm,2021.1.4,59.81238040557512,
Q,left,Distractor,0,54,54,54,2463.4962357098702,2465.4960133942077,left,1,4,0.6427863831631839,M25R08,2022-10-21_09h11.15.393,t1_Paradigm,2021.1.4,59.81238040557512,
Y,right,Target,0,55,55,55,2466.9963909781072,2468.9960377750685,left,0,4,0.9024245570180938,M25R08,2022-10-21_09h11.15.393,t1_Paradigm,2021.1.4,59.81238040557512,
R,left,Distractor,0,56,56,56,2470.496373975533,2472.4965225068154,left,1,4,0.6822421360993758,M25R08,2022-10-21_09h11.15.393,t1_Paradigm,2021.1.4,59.81238040557512,
H,left,Pretarget,0,57,57,57,2473.9963688427815,2475.9981435191585,left,1,4,0.6845352285308763,M25R08,2022-10-21_09h11.15.393,t1_Paradigm,2021.1.4,59.81238040557512,
J,left,Distractor,0,58,58,58,2477.4963707675925,2479.4961628878955,left,1,4,0.5946028920589015,M25R08,2022-10-21_09h11.15.393,t1_Paradigm,2021.1.4,59.81238040557512,
V,left,Distractor,0,59,59,59,2480.996484652278,2482.9978916896507,left,1,4,0.6129376861499622,M25R08,2022-10-21_09h11.15.393,t1_Paradigm,2021.1.4,59.81238040557512,
Y,left,Lure,0,60,60,60,2484.496293775039,2486.4960881409934,right,0,4,0.8427149725612253,M25R08,2022-10-21_09h11.15.393,t1_Paradigm,2021.1.4,59.81238040557512,
H,right,Target,0,61,61,61,2487.996357293916,2489.996868973016,left,0,4,1.0218350641662255,M25R08,2022-10-21_09h11.15.393,t1_Paradigm,2021.1.4,59.81238040557512,
L,left,Distractor,0,62,62,62,2491.4962652237155,2493.4973020555917,left,1,4,1.1213366020238027,M25R08,2022-10-21_09h11.15.393,t1_Paradigm,2021.1.4,59.81238040557512,
P,left,Distractor,0,63,63,63,2494.996438135975,2496.9967095344327,left,1,4,1.1100276915822178,M25R08,2022-10-21_09h11.15.393,t1_Paradigm,2021.1.4,59.81238040557512,
