Currentstep,EDround.thisRepN,EDround.thisTrialN,EDround.thisN,EDround.thisIndex,question.started,EDclick.clicked_name,EDleftbutton.wasclicked,EDrightbutton.wasclicked,EDleftbutton.value,EDrightbutton.value,EDleftbutton.nback,EDrightbutton.nback,Participant,date,expName,psychopyVersion,frameRate,
,,,,,,,,,,,,,M25R08,2022-10-21_09h11.15.393,t1_Paradigm,2021.1.4,59.81238040557512,
0,0,0,0,0,2707.19468123198,EDrightbutton,0,1,1.00,2.00,3,4,M25R08,2022-10-21_09h11.15.393,t1_Paradigm,2021.1.4,59.81238040557512,
1,0,1,1,1,2717.041591331712,EDrightbutton,0,1,1.50,2.00,3,4,M25R08,2022-10-21_09h11.15.393,t1_Paradigm,2021.1.4,59.81238040557512,
2,0,2,2,2,2723.4907884927234,EDrightbutton,0,1,1.75,2.00,3,4,M25R08,2022-10-21_09h11.15.393,t1_Paradigm,2021.1.4,59.81238040557512,
3,0,3,3,3,2728.154464215855,EDrightbutton,0,1,1.88,2.00,3,4,M25R08,2022-10-21_09h11.15.393,t1_Paradigm,2021.1.4,59.81238040557512,
4,0,4,4,4,2737.497205173364,EDrightbutton,0,1,1.94,2.00,3,4,M25R08,2022-10-21_09h11.15.393,t1_Paradigm,2021.1.4,59.81238040557512,
5,0,5,5,5,2744.0607149777934,EDrightbutton,0,1,1.97,2.00,3,4,M25R08,2022-10-21_09h11.15.393,t1_Paradigm,2021.1.4,59.81238040557512,
0,0,0,0,0,2749.3059093644843,EDleftbutton,1,0,1.00,2.00,2,4,M25R08,2022-10-21_09h11.15.393,t1_Paradigm,2021.1.4,59.81238040557512,
1,0,1,1,1,2757.103752805502,EDrightbutton,0,1,0.50,2.00,2,4,M25R08,2022-10-21_09h11.15.393,t1_Paradigm,2021.1.4,59.81238040557512,
2,0,2,2,2,2762.119567700196,EDleftbutton,1,0,0.75,2.00,2,4,M25R08,2022-10-21_09h11.15.393,t1_Paradigm,2021.1.4,59.81238040557512,
3,0,3,3,3,2767.762192078284,EDleftbutton,1,0,0.62,2.00,2,4,M25R08,2022-10-21_09h11.15.393,t1_Paradigm,2021.1.4,59.81238040557512,
4,0,4,4,4,2777.849155392614,EDleftbutton,1,0,0.56,2.00,2,4,M25R08,2022-10-21_09h11.15.393,t1_Paradigm,2021.1.4,59.81238040557512,
5,0,5,5,5,2779.908915342996,EDrightbutton,0,1,0.53,2.00,2,4,M25R08,2022-10-21_09h11.15.393,t1_Paradigm,2021.1.4,59.81238040557512,
0,0,0,0,0,2782.866615038947,EDleftbutton,1,0,1.00,2.00,1,4,M25R08,2022-10-21_09h11.15.393,t1_Paradigm,2021.1.4,59.81238040557512,
1,0,1,1,1,2786.7358321025968,EDleftbutton,1,0,0.50,2.00,1,4,M25R08,2022-10-21_09h11.15.393,t1_Paradigm,2021.1.4,59.81238040557512,
2,0,2,2,2,2792.435998406261,EDrightbutton,0,1,0.25,2.00,1,4,M25R08,2022-10-21_09h11.15.393,t1_Paradigm,2021.1.4,59.81238040557512,
3,0,3,3,3,2794.022084648139,EDrightbutton,0,1,0.38,2.00,1,4,M25R08,2022-10-21_09h11.15.393,t1_Paradigm,2021.1.4,59.81238040557512,
4,0,4,4,4,2795.7186858797213,EDrightbutton,0,1,0.44,2.00,1,4,M25R08,2022-10-21_09h11.15.393,t1_Paradigm,2021.1.4,59.81238040557512,
5,0,5,5,5,2798.5043641898083,EDleftbutton,1,0,0.47,2.00,1,4,M25R08,2022-10-21_09h11.15.393,t1_Paradigm,2021.1.4,59.81238040557512,
0,0,0,0,0,2800.703897551284,EDrightbutton,0,1,1.00,2.00,1,2,M25R08,2022-10-21_09h11.15.393,t1_Paradigm,2021.1.4,59.81238040557512,
1,0,1,1,1,2804.7686382727697,EDrightbutton,0,1,1.50,2.00,1,2,M25R08,2022-10-21_09h11.15.393,t1_Paradigm,2021.1.4,59.81238040557512,
2,0,2,2,2,2807.2052798869554,EDleftbutton,1,0,1.75,2.00,1,2,M25R08,2022-10-21_09h11.15.393,t1_Paradigm,2021.1.4,59.81238040557512,
3,0,3,3,3,2809.4026978802867,EDrightbutton,0,1,1.62,2.00,1,2,M25R08,2022-10-21_09h11.15.393,t1_Paradigm,2021.1.4,59.81238040557512,
4,0,4,4,4,2813.70535270893,EDrightbutton,0,1,1.68,2.00,1,2,M25R08,2022-10-21_09h11.15.393,t1_Paradigm,2021.1.4,59.81238040557512,
5,0,5,5,5,2816.0842406682204,EDleftbutton,1,0,1.71,2.00,1,2,M25R08,2022-10-21_09h11.15.393,t1_Paradigm,2021.1.4,59.81238040557512,
0,0,0,0,0,2819.3874803188955,EDrightbutton,0,1,1.00,2.00,2,3,M25R08,2022-10-21_09h11.15.393,t1_Paradigm,2021.1.4,59.81238040557512,
1,0,1,1,1,2824.6353967101313,EDrightbutton,0,1,1.50,2.00,2,3,M25R08,2022-10-21_09h11.15.393,t1_Paradigm,2021.1.4,59.81238040557512,
2,0,2,2,2,2827.1053439831594,EDleftbutton,1,0,1.75,2.00,2,3,M25R08,2022-10-21_09h11.15.393,t1_Paradigm,2021.1.4,59.81238040557512,
3,0,3,3,3,2828.6685288151493,EDleftbutton,1,0,1.62,2.00,2,3,M25R08,2022-10-21_09h11.15.393,t1_Paradigm,2021.1.4,59.81238040557512,
4,0,4,4,4,2833.4879125031875,EDleftbutton,1,0,1.56,2.00,2,3,M25R08,2022-10-21_09h11.15.393,t1_Paradigm,2021.1.4,59.81238040557512,
5,0,5,5,5,2835.6382451107493,EDrightbutton,0,1,1.53,2.00,2,3,M25R08,2022-10-21_09h11.15.393,t1_Paradigm,2021.1.4,59.81238040557512,
0,0,0,0,0,2837.0887411988806,EDleftbutton,1,0,1.00,2.00,1,3,M25R08,2022-10-21_09h11.15.393,t1_Paradigm,2021.1.4,59.81238040557512,
1,0,1,1,1,2841.788752555265,EDleftbutton,1,0,0.50,2.00,1,3,M25R08,2022-10-21_09h11.15.393,t1_Paradigm,2021.1.4,59.81238040557512,
2,0,2,2,2,2845.8839935223805,EDrightbutton,0,1,0.25,2.00,1,3,M25R08,2022-10-21_09h11.15.393,t1_Paradigm,2021.1.4,59.81238040557512,
3,0,3,3,3,2847.785318691167,EDrightbutton,0,1,0.38,2.00,1,3,M25R08,2022-10-21_09h11.15.393,t1_Paradigm,2021.1.4,59.81238040557512,
4,0,4,4,4,2852.174099861877,EDrightbutton,0,1,0.44,2.00,1,3,M25R08,2022-10-21_09h11.15.393,t1_Paradigm,2021.1.4,59.81238040557512,
5,0,5,5,5,2859.352798740496,EDrightbutton,0,1,0.47,2.00,1,3,M25R08,2022-10-21_09h11.15.393,t1_Paradigm,2021.1.4,59.81238040557512,
