Letter,CorrAnswer,Stimulus,nback_run.thisRepN,nback_run.thisTrialN,nback_run.thisN,nback_run.thisIndex,fixcross.started,nback_trial.started,trial_resp.keys,trial_resp.corr,currentlevel,trial_resp.rt,Participant,date,expName,psychopyVersion,frameRate,
H,left,Distractor,0,0,0,0,273.26671444483236,275.21733911119827,None,0,1,,M27Y05,2022-09-19_10h38.07.152,t1_Paradigm,2021.1.4,60.02283698502957,
Q,left,Pretarget,0,1,1,1,276.71409227045933,278.717984244754,left,1,1,0.5877590158288513,M27Y05,2022-09-19_10h38.07.152,t1_Paradigm,2021.1.4,60.02283698502957,
Q,right,Target,0,2,2,2,280.21413557877895,282.2143123408823,right,1,1,0.7073592704182374,M27Y05,2022-09-19_10h38.07.152,t1_Paradigm,2021.1.4,60.02283698502957,
T,left,Distractor,0,3,3,3,283.71418081191223,285.7160770746932,left,1,1,0.5015116207450774,M27Y05,2022-09-19_10h38.07.152,t1_Paradigm,2021.1.4,60.02283698502957,
Q,left,Lure,0,4,4,4,287.2141153682296,289.21642257884014,left,1,1,1.0333313657456529,M27Y05,2022-09-19_10h38.07.152,t1_Paradigm,2021.1.4,60.02283698502957,
L,left,Distractor,0,5,5,5,290.7141516188967,292.71581080872966,left,1,1,0.6697740653098663,M27Y05,2022-09-19_10h38.07.152,t1_Paradigm,2021.1.4,60.02283698502957,
V,left,Pretarget,0,6,6,6,294.21418337833165,296.2156654852588,left,1,1,0.5621487214102672,M27Y05,2022-09-19_10h38.07.152,t1_Paradigm,2021.1.4,60.02283698502957,
V,right,Target,0,7,7,7,297.7140941952739,299.71424850121093,None,0,1,,M27Y05,2022-09-19_10h38.07.152,t1_Paradigm,2021.1.4,60.02283698502957,
K,left,Distractor,0,8,8,8,301.21412723791764,303.21647166160255,left,1,1,0.6330932020691762,M27Y05,2022-09-19_10h38.07.152,t1_Paradigm,2021.1.4,60.02283698502957,
G,left,Pretarget,0,9,9,9,304.7141923607978,306.7159593402248,left,1,1,0.6377044152668532,M27Y05,2022-09-19_10h38.07.152,t1_Paradigm,2021.1.4,60.02283698502957,
G,right,Target,0,10,10,10,308.214152581304,310.2141978144373,right,1,1,0.5956276562428684,M27Y05,2022-09-19_10h38.07.152,t1_Paradigm,2021.1.4,60.02283698502957,
G,right,Target,0,11,11,11,311.7141615637702,313.71423214029073,right,1,1,0.6635476122046384,M27Y05,2022-09-19_10h38.07.152,t1_Paradigm,2021.1.4,60.02283698502957,
P,left,Pretarget,0,12,12,12,315.21415290210643,317.2156234601489,left,1,1,0.682176605551831,M27Y05,2022-09-19_10h38.07.152,t1_Paradigm,2021.1.4,60.02283698502957,
P,right,Target,0,13,13,13,318.7140909872496,320.7142433683739,left,0,1,0.7513480115385391,M27Y05,2022-09-19_10h38.07.152,t1_Paradigm,2021.1.4,60.02283698502957,
G,left,Lure,0,14,14,14,322.2141593181541,324.2165983785362,left,1,1,0.6891303176207657,M27Y05,2022-09-19_10h38.07.152,t1_Paradigm,2021.1.4,60.02283698502957,
Y,left,Distractor,0,15,15,15,325.71424048115205,327.71617203219284,left,1,1,0.5974751570647641,M27Y05,2022-09-19_10h38.07.152,t1_Paradigm,2021.1.4,60.02283698502957,
B,left,Distractor,0,16,16,16,329.21402361875334,331.2163536063317,left,1,1,1.0813003018110976,M27Y05,2022-09-19_10h38.07.152,t1_Paradigm,2021.1.4,60.02283698502957,
T,left,Pretarget,0,17,17,17,332.7141663758057,334.714781033138,right,0,1,0.5107532952815745,M27Y05,2022-09-19_10h38.07.152,t1_Paradigm,2021.1.4,60.02283698502957,
T,right,Target,0,18,18,18,336.2142215538124,338.2143890126472,right,1,1,0.5313885866216879,M27Y05,2022-09-19_10h38.07.152,t1_Paradigm,2021.1.4,60.02283698502957,
S,left,Distractor,0,19,19,19,339.71417407506306,341.716868494128,left,1,1,0.67713712119712,M27Y05,2022-09-19_10h38.07.152,t1_Paradigm,2021.1.4,60.02283698502957,
T,left,Lure,0,20,20,20,343.21417856629614,345.21608092432143,left,1,1,0.9695709332527258,M27Y05,2022-09-19_10h38.07.152,t1_Paradigm,2021.1.4,60.02283698502957,
J,left,Distractor,0,21,21,21,346.7142600500965,348.7137470871148,left,1,1,0.9918400710384958,M27Y05,2022-09-19_10h38.07.152,t1_Paradigm,2021.1.4,60.02283698502957,
P,left,Distractor,0,22,22,22,350.2138879193526,352.2160090645921,left,1,1,0.7057369728581762,M27Y05,2022-09-19_10h38.07.152,t1_Paradigm,2021.1.4,60.02283698502957,
F,left,Distractor,0,23,23,23,353.7141349371741,355.71608349073995,left,1,1,0.6617270587812527,M27Y05,2022-09-19_10h38.07.152,t1_Paradigm,2021.1.4,60.02283698502957,
L,left,Distractor,0,24,24,24,357.21415065649035,359.2161620873203,left,1,1,0.6013738682095209,M27Y05,2022-09-19_10h38.07.152,t1_Paradigm,2021.1.4,60.02283698502957,
W,left,Pretarget,0,25,25,25,360.7142401603496,362.7157694252246,left,1,1,0.6059998383161656,M27Y05,2022-09-19_10h38.07.152,t1_Paradigm,2021.1.4,60.02283698502957,
W,right,Target,0,26,26,26,364.2142783358313,366.21431619051054,right,1,1,0.883311026876072,M27Y05,2022-09-19_10h38.07.152,t1_Paradigm,2021.1.4,60.02283698502957,
V,left,Distractor,0,27,27,27,367.7138811825034,369.714666506693,left,1,1,0.7911028030430316,M27Y05,2022-09-19_10h38.07.152,t1_Paradigm,2021.1.4,60.02283698502957,
W,left,Lure,0,28,28,28,371.2143646316672,373.21486091292627,right,0,1,0.7948343761554497,M27Y05,2022-09-19_10h38.07.152,t1_Paradigm,2021.1.4,60.02283698502957,
R,left,Pretarget,0,29,29,29,374.71421160893897,376.7168357722867,left,1,1,0.6849464131728382,M27Y05,2022-09-19_10h38.07.152,t1_Paradigm,2021.1.4,60.02283698502957,
R,right,Target,0,30,30,30,378.214230857081,380.21418337833165,left,0,1,0.8194816218738197,M27Y05,2022-09-19_10h38.07.152,t1_Paradigm,2021.1.4,60.02283698502957,
G,left,Distractor,0,31,31,31,381.7141779246913,383.7145009726728,None,0,1,,M27Y05,2022-09-19_10h38.07.152,t1_Paradigm,2021.1.4,60.02283698502957,
R,left,Lure,0,32,32,32,385.2143328722332,387.2164684535783,None,0,1,,M27Y05,2022-09-19_10h38.07.152,t1_Paradigm,2021.1.4,60.02283698502957,
S,left,Distractor,0,33,33,33,388.71432421056943,390.7162599320409,None,0,1,,M27Y05,2022-09-19_10h38.07.152,t1_Paradigm,2021.1.4,60.02283698502957,
R,left,Lure,0,34,34,34,392.21419396480906,394.21598436280965,left,1,1,0.6255982964112263,M27Y05,2022-09-19_10h38.07.152,t1_Paradigm,2021.1.4,60.02283698502957,
P,left,Pretarget,0,35,35,35,395.7141936440066,397.71637349607863,None,0,1,,M27Y05,2022-09-19_10h38.07.152,t1_Paradigm,2021.1.4,60.02283698502957,
P,right,Target,0,36,36,36,399.2142866766926,401.21438131339073,right,1,1,0.7795988302259502,M27Y05,2022-09-19_10h38.07.152,t1_Paradigm,2021.1.4,60.02283698502957,
Y,left,Pretarget,0,37,37,37,402.7143328722332,404.71640397230294,left,1,1,0.9253611593030655,M27Y05,2022-09-19_10h38.07.152,t1_Paradigm,2021.1.4,60.02283698502957,
Y,right,Target,0,38,38,38,406.2143168321154,408.2143473083397,right,1,1,0.6433518201047264,M27Y05,2022-09-19_10h38.07.152,t1_Paradigm,2021.1.4,60.02283698502957,
J,left,Distractor,0,39,39,39,409.71423823553596,411.71606616741246,left,1,1,0.6457793316021707,M27Y05,2022-09-19_10h38.07.152,t1_Paradigm,2021.1.4,60.02283698502957,
Y,left,Lure,0,40,40,40,413.2143412130945,415.2160482024801,left,1,1,0.6976899663286531,M27Y05,2022-09-19_10h38.07.152,t1_Paradigm,2021.1.4,60.02283698502957,
T,left,Distractor,0,41,41,41,416.71420904252045,418.7270623100849,left,1,1,0.5947730387424599,M27Y05,2022-09-19_10h38.07.152,t1_Paradigm,2021.1.4,60.02283698502957,
V,left,Distractor,0,42,42,42,420.2142372731287,422.21435597000345,left,1,1,0.5795451920712367,M27Y05,2022-09-19_10h38.07.152,t1_Paradigm,2021.1.4,60.02283698502957,
N,left,Pretarget,0,43,43,43,423.7142587668868,425.7174302190697,left,1,1,1.0604298623375144,M27Y05,2022-09-19_10h38.07.152,t1_Paradigm,2021.1.4,60.02283698502957,
N,right,Target,0,44,44,44,427.214335759455,429.214372651727,left,0,1,0.635102387283041,M27Y05,2022-09-19_10h38.07.152,t1_Paradigm,2021.1.4,60.02283698502957,
N,right,Target,0,45,45,45,430.71424176436176,432.7143601404341,right,1,1,0.6553796631833393,M27Y05,2022-09-19_10h38.07.152,t1_Paradigm,2021.1.4,60.02283698502957,
X,left,Distractor,0,46,46,46,434.2142167417769,436.21614989682985,left,1,1,0.7536247459247534,M27Y05,2022-09-19_10h38.07.152,t1_Paradigm,2021.1.4,60.02283698502957,
Z,left,Distractor,0,47,47,47,437.7139440597666,439.71702664969416,left,1,1,0.468706691681291,M27Y05,2022-09-19_10h38.07.152,t1_Paradigm,2021.1.4,60.02283698502957,
H,left,Pretarget,0,48,48,48,441.21426871176027,443.21355845532344,left,1,1,0.7163269797356406,M27Y05,2022-09-19_10h38.07.152,t1_Paradigm,2021.1.4,60.02283698502957,
H,right,Target,0,49,49,49,444.71420904252045,446.71423438590773,left,0,1,0.783535396049956,M27Y05,2022-09-19_10h38.07.152,t1_Paradigm,2021.1.4,60.02283698502957,
K,left,Distractor,0,50,50,50,448.2134381544365,450.2162015460108,left,1,1,0.8976868224654027,M27Y05,2022-09-19_10h38.07.152,t1_Paradigm,2021.1.4,60.02283698502957,
V,left,Pretarget,0,51,51,51,451.7140265059743,453.7146610530526,left,1,1,0.5991298556646143,M27Y05,2022-09-19_10h38.07.152,t1_Paradigm,2021.1.4,60.02283698502957,
V,right,Target,0,52,52,52,455.2143007919967,457.21439799511336,left,0,1,0.939384072291432,M27Y05,2022-09-19_10h38.07.152,t1_Paradigm,2021.1.4,60.02283698502957,
R,left,Distractor,0,53,53,53,458.7142728821909,460.71619192193975,left,1,1,0.8136767030755436,M27Y05,2022-09-19_10h38.07.152,t1_Paradigm,2021.1.4,60.02283698502957,
V,left,Lure,0,54,54,54,462.2143097744629,464.2144393786184,left,1,1,1.123437692481275,M27Y05,2022-09-19_10h38.07.152,t1_Paradigm,2021.1.4,60.02283698502957,
Y,left,Distractor,0,55,55,55,465.71477205067094,467.71590608703264,None,0,1,,M27Y05,2022-09-19_10h38.07.152,t1_Paradigm,2021.1.4,60.02283698502957,
Q,left,Distractor,0,56,56,56,469.2142186665915,471.21628302981117,left,1,1,0.7779348283575018,M27Y05,2022-09-19_10h38.07.152,t1_Paradigm,2021.1.4,60.02283698502957,
Z,left,Pretarget,0,57,57,57,472.71437682215765,474.7162692353095,None,0,1,,M27Y05,2022-09-19_10h38.07.152,t1_Paradigm,2021.1.4,60.02283698502957,
Z,right,Target,0,58,58,58,476.21426293731747,478.2143328722332,left,0,1,0.9954045061185752,M27Y05,2022-09-19_10h38.07.152,t1_Paradigm,2021.1.4,60.02283698502957,
B,left,Distractor,0,59,59,59,479.7142667869466,481.716699431282,left,1,1,0.821129262822069,M27Y05,2022-09-19_10h38.07.152,t1_Paradigm,2021.1.4,60.02283698502957,
S,left,Pretarget,0,60,60,60,483.21432068174363,485.2165816968136,left,1,1,0.601168554695505,M27Y05,2022-09-19_10h38.07.152,t1_Paradigm,2021.1.4,60.02283698502957,
S,right,Target,0,61,61,61,486.71429886718306,488.71438131339073,right,1,1,0.783439796944549,M27Y05,2022-09-19_10h38.07.152,t1_Paradigm,2021.1.4,60.02283698502957,
T,left,Distractor,0,62,62,62,490.21433479704774,492.2162878418467,None,0,1,,M27Y05,2022-09-19_10h38.07.152,t1_Paradigm,2021.1.4,60.02283698502957,
D,left,Distractor,0,63,63,63,493.71403195961466,495.71589357573976,left,1,1,0.7098737193564375,M27Y05,2022-09-19_10h38.07.152,t1_Paradigm,2021.1.4,60.02283698502957,
R,left,Distractor,0,0,0,0,516.4935987096042,518.4995989970439,None,0,1,,M27Y05,2022-09-19_10h38.07.152,t1_Paradigm,2021.1.4,60.02283698502957,
V,left,Distractor,0,1,1,1,519.9976918269822,521.9993571120604,left,1,1,0.5225915441633333,M27Y05,2022-09-19_10h38.07.152,t1_Paradigm,2021.1.4,60.02283698502957,
N,left,Pretarget,0,2,2,2,523.4977697819568,525.499679518437,left,1,1,0.6701994492468657,M27Y05,2022-09-19_10h38.07.152,t1_Paradigm,2021.1.4,60.02283698502957,
N,right,Target,0,3,3,3,526.9974614908842,528.9976661627934,None,0,1,,M27Y05,2022-09-19_10h38.07.152,t1_Paradigm,2021.1.4,60.02283698502957,
S,left,Distractor,0,4,4,4,530.4976889397612,532.4999323107013,left,1,1,0.7260591610884148,M27Y05,2022-09-19_10h38.07.152,t1_Paradigm,2021.1.4,60.02283698502957,
N,left,Lure,0,5,5,5,533.9977524586293,535.997729360859,left,1,1,1.1483309936147634,M27Y05,2022-09-19_10h38.07.152,t1_Paradigm,2021.1.4,60.02283698502957,
Z,left,Distractor,0,6,6,6,537.4977694611543,539.4972394956476,left,1,1,0.6726439632693655,M27Y05,2022-09-19_10h38.07.152,t1_Paradigm,2021.1.4,60.02283698502957,
L,left,Pretarget,0,7,7,7,540.9976745036547,542.9987854422452,left,1,1,0.6431551682544523,M27Y05,2022-09-19_10h38.07.152,t1_Paradigm,2021.1.4,60.02283698502957,
L,right,Target,0,8,8,8,544.4976292705214,546.4977335312897,left,0,1,0.7442245950187498,M27Y05,2022-09-19_10h38.07.152,t1_Paradigm,2021.1.4,60.02283698502957,
H,left,Distractor,0,9,9,9,547.9978355464418,549.9998084809877,left,1,1,0.618060082433658,M27Y05,2022-09-19_10h38.07.152,t1_Paradigm,2021.1.4,60.02283698502957,
L,left,Lure,0,10,10,10,551.4977065838912,553.5001863861744,left,1,1,0.7816368876519846,M27Y05,2022-09-19_10h38.07.152,t1_Paradigm,2021.1.4,60.02283698502957,
X,left,Pretarget,0,11,11,11,554.9977607994906,556.9996548166555,left,1,1,0.6423345558041547,M27Y05,2022-09-19_10h38.07.152,t1_Paradigm,2021.1.4,60.02283698502957,
X,right,Target,0,12,12,12,558.4976995262386,560.497761120293,left,0,1,0.7602544476039839,M27Y05,2022-09-19_10h38.07.152,t1_Paradigm,2021.1.4,60.02283698502957,
X,right,Target,0,13,13,13,561.9977822932497,563.9978470953274,right,1,1,0.540116335770108,M27Y05,2022-09-19_10h38.07.152,t1_Paradigm,2021.1.4,60.02283698502957,
R,left,Distractor,0,14,14,14,565.4976757868644,567.5003525617994,left,1,1,0.9576903384595425,M27Y05,2022-09-19_10h38.07.152,t1_Paradigm,2021.1.4,60.02283698502957,
T,left,Distractor,0,15,15,15,568.997788388494,570.9972324379951,left,1,1,0.7565777316958702,M27Y05,2022-09-19_10h38.07.152,t1_Paradigm,2021.1.4,60.02283698502957,
V,left,Pretarget,0,16,16,16,572.4979718874474,574.4994761297376,left,1,1,0.8864606644974629,M27Y05,2022-09-19_10h38.07.152,t1_Paradigm,2021.1.4,60.02283698502957,
V,right,Target,0,17,17,17,575.9977277568469,577.9978265639757,right,1,1,0.5240800671372199,M27Y05,2022-09-19_10h38.07.152,t1_Paradigm,2021.1.4,60.02283698502957,
N,left,Distractor,0,18,18,18,579.4978246391611,581.4982294917463,left,1,1,0.6717014459209167,M27Y05,2022-09-19_10h38.07.152,t1_Paradigm,2021.1.4,60.02283698502957,
B,left,Distractor,0,19,19,19,582.9977668947358,584.9972953152592,left,1,1,0.7084435824126558,M27Y05,2022-09-19_10h38.07.152,t1_Paradigm,2021.1.4,60.02283698502957,
V,left,Lure,0,20,20,20,586.4973828943048,588.4996490422127,left,1,1,1.3663251832422247,M27Y05,2022-09-19_10h38.07.152,t1_Paradigm,2021.1.4,60.02283698502957,
P,left,Distractor,0,21,21,21,589.9978714763065,591.9997173731163,left,1,1,0.6344957500105011,M27Y05,2022-09-19_10h38.07.152,t1_Paradigm,2021.1.4,60.02283698502957,
K,left,Pretarget,0,22,22,22,593.497604568739,595.4995797489019,left,1,1,0.7182899694080334,M27Y05,2022-09-19_10h38.07.152,t1_Paradigm,2021.1.4,60.02283698502957,
K,right,Target,0,23,23,23,596.9974566788487,598.997866022667,right,1,1,0.8038681707585056,M27Y05,2022-09-19_10h38.07.152,t1_Paradigm,2021.1.4,60.02283698502957,
J,left,Pretarget,0,24,24,24,600.4977607994906,602.499943859586,left,1,1,0.5659242444462507,M27Y05,2022-09-19_10h38.07.152,t1_Paradigm,2021.1.4,60.02283698502957,
J,right,Target,0,25,25,25,603.9975577315936,605.9978756467372,right,1,1,0.7961820668906512,M27Y05,2022-09-19_10h38.07.152,t1_Paradigm,2021.1.4,60.02283698502957,
H,left,Distractor,0,26,26,26,607.4977656115261,609.4997061450331,left,1,1,0.7502377145528953,M27Y05,2022-09-19_10h38.07.152,t1_Paradigm,2021.1.4,60.02283698502957,
J,left,Lure,0,27,27,27,610.9978557569912,612.999385663471,left,1,1,0.9946961744954024,M27Y05,2022-09-19_10h38.07.152,t1_Paradigm,2021.1.4,60.02283698502957,
V,left,Distractor,0,28,28,28,614.4976305537302,616.4997308468155,left,1,1,0.870249879378207,M27Y05,2022-09-19_10h38.07.152,t1_Paradigm,2021.1.4,60.02283698502957,
Z,left,Pretarget,0,29,29,29,617.997535917033,619.9998322203628,None,0,1,,M27Y05,2022-09-19_10h38.07.152,t1_Paradigm,2021.1.4,60.02283698502957,
Z,right,Target,0,30,30,30,621.4979038773454,623.497817260707,right,1,1,1.1361366541086682,M27Y05,2022-09-19_10h38.07.152,t1_Paradigm,2021.1.4,60.02283698502957,
T,left,Distractor,0,31,31,31,624.9977976917626,627.0000134736993,left,1,1,0.6901479027228561,M27Y05,2022-09-19_10h38.07.152,t1_Paradigm,2021.1.4,60.02283698502957,
Z,left,Lure,0,32,32,32,628.4976533306981,630.497467906931,left,1,1,0.8405952295406678,M27Y05,2022-09-19_10h38.07.152,t1_Paradigm,2021.1.4,60.02283698502957,
F,left,Distractor,0,33,33,33,631.9974704733504,633.9977370601155,left,1,1,0.7000959840670475,M27Y05,2022-09-19_10h38.07.152,t1_Paradigm,2021.1.4,60.02283698502957,
Y,left,Pretarget,0,34,34,34,635.4977681779455,637.4976664835958,left,1,1,0.7522613358723902,M27Y05,2022-09-19_10h38.07.152,t1_Paradigm,2021.1.4,60.02283698502957,
Y,right,Target,0,35,35,35,638.9972529693468,640.9973344531472,right,1,1,0.8045004722216618,M27Y05,2022-09-19_10h38.07.152,t1_Paradigm,2021.1.4,60.02283698502957,
Y,right,Target,0,36,36,36,642.4974541124293,644.4975994359011,right,1,1,0.48834460846683214,M27Y05,2022-09-19_10h38.07.152,t1_Paradigm,2021.1.4,60.02283698502957,
W,left,Distractor,0,37,37,37,645.9972911448285,647.9975205185192,left,1,1,0.6363560829258859,M27Y05,2022-09-19_10h38.07.152,t1_Paradigm,2021.1.4,60.02283698502957,
Q,left,Distractor,0,38,38,38,649.4975288593805,651.4998639797968,left,1,1,1.150195496960805,M27Y05,2022-09-19_10h38.07.152,t1_Paradigm,2021.1.4,60.02283698502957,
P,left,Pretarget,0,39,39,39,652.9975808293639,654.9997523405737,left,1,1,0.7221331817436294,M27Y05,2022-09-19_10h38.07.152,t1_Paradigm,2021.1.4,60.02283698502957,
P,right,Target,0,40,40,40,656.4978069950312,658.4979459024553,right,1,1,0.6801533050338548,M27Y05,2022-09-19_10h38.07.152,t1_Paradigm,2021.1.4,60.02283698502957,
J,left,Distractor,0,41,41,41,659.9975744133162,661.9997266763849,left,1,1,0.730246915164571,M27Y05,2022-09-19_10h38.07.152,t1_Paradigm,2021.1.4,60.02283698502957,
P,left,Lure,0,42,42,42,663.497815015091,665.4997792879731,right,0,1,0.5903466077079429,M27Y05,2022-09-19_10h38.07.152,t1_Paradigm,2021.1.4,60.02283698502957,
L,left,Distractor,0,43,43,43,666.9978143734861,668.9987209609699,left,1,1,0.5315720855751351,M27Y05,2022-09-19_10h38.07.152,t1_Paradigm,2021.1.4,60.02283698502957,
Z,left,Distractor,0,44,44,44,670.4969276757483,672.4997670974826,left,1,1,0.7102131282590562,M27Y05,2022-09-19_10h38.07.152,t1_Paradigm,2021.1.4,60.02283698502957,
F,left,Pretarget,0,45,45,45,673.9978948948792,676.0001478898903,left,1,1,0.7298561778834483,M27Y05,2022-09-19_10h38.07.152,t1_Paradigm,2021.1.4,60.02283698502957,
F,right,Target,0,46,46,46,677.4977957669489,679.4979157470334,right,1,1,0.7200444375439474,M27Y05,2022-09-19_10h38.07.152,t1_Paradigm,2021.1.4,60.02283698502957,
G,left,Pretarget,0,47,47,47,680.9975689596768,682.99865455488,left,1,1,0.5153853606325356,M27Y05,2022-09-19_10h38.07.152,t1_Paradigm,2021.1.4,60.02283698502957,
G,right,Target,0,48,48,48,684.4978506241532,686.4978884788325,None,0,1,,M27Y05,2022-09-19_10h38.07.152,t1_Paradigm,2021.1.4,60.02283698502957,
V,left,Distractor,0,49,49,49,687.9979465440601,690.0003009126185,left,1,1,0.7619591913726254,M27Y05,2022-09-19_10h38.07.152,t1_Paradigm,2021.1.4,60.02283698502957,
G,left,Lure,0,50,50,50,691.4979176718471,693.5110991202318,left,1,1,0.8189853406156544,M27Y05,2022-09-19_10h38.07.152,t1_Paradigm,2021.1.4,60.02283698502957,
Q,left,Pretarget,0,51,51,51,694.9978628146428,696.9995726912493,left,1,1,0.706287469716699,M27Y05,2022-09-19_10h38.07.152,t1_Paradigm,2021.1.4,60.02283698502957,
Q,right,Target,0,52,52,52,698.4977450801753,700.4978329800233,right,1,1,1.3201909159033676,M27Y05,2022-09-19_10h38.07.152,t1_Paradigm,2021.1.4,60.02283698502957,
Y,left,Distractor,0,53,53,53,701.9978435665007,703.9985676174392,left,1,1,0.7478220727425651,M27Y05,2022-09-19_10h38.07.152,t1_Paradigm,2021.1.4,60.02283698502957,
V,left,Distractor,0,54,54,54,705.4976125887979,707.497019746027,left,1,1,1.1210592637453374,M27Y05,2022-09-19_10h38.07.152,t1_Paradigm,2021.1.4,60.02283698502957,
B,left,Distractor,0,55,55,55,708.9977835764585,710.9998659046114,left,1,1,0.6584340225026608,M27Y05,2022-09-19_10h38.07.152,t1_Paradigm,2021.1.4,60.02283698502957,
J,left,Pretarget,0,56,56,56,712.4978278471854,714.4996824056589,left,1,1,0.8543980721060507,M27Y05,2022-09-19_10h38.07.152,t1_Paradigm,2021.1.4,60.02283698502957,
J,right,Target,0,57,57,57,715.9978657018646,717.9978528697693,right,1,1,0.6521809428004417,M27Y05,2022-09-19_10h38.07.152,t1_Paradigm,2021.1.4,60.02283698502957,
H,left,Distractor,0,58,58,58,719.49694147025,721.4984405797031,left,1,1,0.5598819318975075,M27Y05,2022-09-19_10h38.07.152,t1_Paradigm,2021.1.4,60.02283698502957,
J,left,Lure,0,59,59,59,722.9978746843308,724.9977790852254,left,1,1,0.8041344367220518,M27Y05,2022-09-19_10h38.07.152,t1_Paradigm,2021.1.4,60.02283698502957,
D,left,Pretarget,0,60,60,60,726.4978647394573,728.4995861649486,left,1,1,0.8545697013714744,M27Y05,2022-09-19_10h38.07.152,t1_Paradigm,2021.1.4,60.02283698502957,
D,right,Target,0,61,61,61,729.997604568739,731.9967262118635,None,0,1,,M27Y05,2022-09-19_10h38.07.152,t1_Paradigm,2021.1.4,60.02283698502957,
R,left,Distractor,0,62,62,62,733.4976802780975,735.4998354283871,left,1,1,0.5743491561615883,M27Y05,2022-09-19_10h38.07.152,t1_Paradigm,2021.1.4,60.02283698502957,
F,left,Distractor,0,63,63,63,736.9978647394573,738.9997048618243,left,1,1,0.5785628952280604,M27Y05,2022-09-19_10h38.07.152,t1_Paradigm,2021.1.4,60.02283698502957,
F,left,Distractor,0,0,0,0,893.4475841015483,895.4481836811683,None,0,2,,M27Y05,2022-09-19_10h38.07.152,t1_Paradigm,2021.1.4,60.02283698502957,
N,left,Pretarget,0,1,1,1,896.9476235602388,898.9499708711455,None,0,2,,M27Y05,2022-09-19_10h38.07.152,t1_Paradigm,2021.1.4,60.02283698502957,
V,left,Distractor,0,2,2,2,900.4480027486343,902.44979250503,left,1,2,0.776497312959691,M27Y05,2022-09-19_10h38.07.152,t1_Paradigm,2021.1.4,60.02283698502957,
N,right,Target,0,3,3,3,903.9480345080692,905.9503035431981,left,0,2,1.3240941182812094,M27Y05,2022-09-19_10h38.07.152,t1_Paradigm,2021.1.4,60.02283698502957,
N,left,Lure,0,4,4,4,907.4479847837019,909.4481939468442,None,0,2,,M27Y05,2022-09-19_10h38.07.152,t1_Paradigm,2021.1.4,60.02283698502957,
X,left,Distractor,0,5,5,5,910.9480800620049,912.9493536473947,left,1,2,1.3652463248881759,M27Y05,2022-09-19_10h38.07.152,t1_Paradigm,2021.1.4,60.02283698502957,
G,left,Pretarget,0,6,6,6,914.4480280920216,916.4500645454355,left,1,2,0.6001923530984641,M27Y05,2022-09-19_10h38.07.152,t1_Paradigm,2021.1.4,60.02283698502957,
H,left,Pretarget,0,7,7,7,917.9476678309657,919.9504559243214,left,1,2,1.083774650453961,M27Y05,2022-09-19_10h38.07.152,t1_Paradigm,2021.1.4,60.02283698502957,
G,right,Target,0,8,8,8,921.4481474305012,923.4500712822855,left,0,2,1.0883152871310813,M27Y05,2022-09-19_10h38.07.152,t1_Paradigm,2021.1.4,60.02283698502957,
H,right,Target,0,9,9,9,924.9479802924689,926.9496519935947,right,1,2,0.45255782141794043,M27Y05,2022-09-19_10h38.07.152,t1_Paradigm,2021.1.4,60.02283698502957,
T,left,Pretarget,0,10,10,10,928.4481422976633,930.4498739888313,left,1,2,0.9524955857586974,M27Y05,2022-09-19_10h38.07.152,t1_Paradigm,2021.1.4,60.02283698502957,
K,left,Distractor,0,11,11,11,931.9479806132713,933.9506201751328,left,1,2,0.7316892425978949,M27Y05,2022-09-19_10h38.07.152,t1_Paradigm,2021.1.4,60.02283698502957,
T,right,Target,0,12,12,12,935.4480755707718,937.4500164250812,right,1,2,1.1363130954086955,M27Y05,2022-09-19_10h38.07.152,t1_Paradigm,2021.1.4,60.02283698502957,
T,left,Lure,0,13,13,13,938.9481589793868,940.9481070094034,left,1,2,1.2062772040399068,M27Y05,2022-09-19_10h38.07.152,t1_Paradigm,2021.1.4,60.02283698502957,
J,left,Distractor,0,14,14,14,942.4478211744963,944.4499458485607,None,0,2,,M27Y05,2022-09-19_10h38.07.152,t1_Paradigm,2021.1.4,60.02283698502957,
Q,left,Pretarget,0,15,15,15,945.9476363923341,947.9609179310555,left,1,2,0.7372875646742614,M27Y05,2022-09-19_10h38.07.152,t1_Paradigm,2021.1.4,60.02283698502957,
M,left,Distractor,0,16,16,16,949.4481121422414,951.450636536053,left,1,2,1.2640104016954865,M27Y05,2022-09-19_10h38.07.152,t1_Paradigm,2021.1.4,60.02283698502957,
Q,right,Target,0,17,17,17,952.9481994004846,954.949608685275,right,1,2,0.4047242639508113,M27Y05,2022-09-19_10h38.07.152,t1_Paradigm,2021.1.4,60.02283698502957,
R,left,Distractor,0,18,18,18,956.4481551297586,958.4503343402248,left,1,2,0.7121219023329104,M27Y05,2022-09-19_10h38.07.152,t1_Paradigm,2021.1.4,60.02283698502957,
W,left,Distractor,0,19,19,19,959.9481811147498,961.9494710610606,left,1,2,0.6208863512711105,M27Y05,2022-09-19_10h38.07.152,t1_Paradigm,2021.1.4,60.02283698502957,
C,left,Pretarget,0,20,20,20,963.4478811645386,965.451255363816,left,1,2,0.7190906921123315,M27Y05,2022-09-19_10h38.07.152,t1_Paradigm,2021.1.4,60.02283698502957,
T,left,Distractor,0,21,21,21,966.948199721287,968.9507501000908,left,1,2,0.6277338777563273,M27Y05,2022-09-19_10h38.07.152,t1_Paradigm,2021.1.4,60.02283698502957,
C,right,Target,0,22,22,22,970.4480258464046,972.4496715625382,right,1,2,1.016861693118699,M27Y05,2022-09-19_10h38.07.152,t1_Paradigm,2021.1.4,60.02283698502957,
F,left,Pretarget,0,23,23,23,973.9482221774524,975.9498098283575,left,1,2,0.6524841010350428,M27Y05,2022-09-19_10h38.07.152,t1_Paradigm,2021.1.4,60.02283698502957,
C,right,Target,0,24,24,24,977.4478660868272,979.44994167813,right,1,2,0.7204098314377916,M27Y05,2022-09-19_10h38.07.152,t1_Paradigm,2021.1.4,60.02283698502957,
F,right,Target,0,25,25,25,980.948082307621,982.9490036520137,right,1,2,0.7413136343566293,M27Y05,2022-09-19_10h38.07.152,t1_Paradigm,2021.1.4,60.02283698502957,
H,left,Distractor,0,26,26,26,984.4480887236687,986.4507696690343,left,1,2,0.6639839034205579,M27Y05,2022-09-19_10h38.07.152,t1_Paradigm,2021.1.4,60.02283698502957,
H,left,Lure,0,27,27,27,987.9481743778997,989.948216723812,right,0,2,0.878381577732398,M27Y05,2022-09-19_10h38.07.152,t1_Paradigm,2021.1.4,60.02283698502957,
P,left,Distractor,0,28,28,28,991.4482106285677,993.4499577182487,left,1,2,0.84844141378926,M27Y05,2022-09-19_10h38.07.152,t1_Paradigm,2021.1.4,60.02283698502957,
G,left,Pretarget,0,29,29,29,994.9481156710672,996.9501046457317,left,1,2,1.1883587879310653,M27Y05,2022-09-19_10h38.07.152,t1_Paradigm,2021.1.4,60.02283698502957,
K,left,Distractor,0,30,30,30,998.4481416560584,1000.4494582289653,left,1,2,0.6169164220018502,M27Y05,2022-09-19_10h38.07.152,t1_Paradigm,2021.1.4,60.02283698502957,
G,right,Target,0,31,31,31,1001.9482472000373,1003.9495929659588,right,1,2,0.8130447224166346,M27Y05,2022-09-19_10h38.07.152,t1_Paradigm,2021.1.4,60.02283698502957,
M,left,Pretarget,0,32,32,32,1005.4478715404675,1007.4488413260169,left,1,2,1.2335729940868987,M27Y05,2022-09-19_10h38.07.152,t1_Paradigm,2021.1.4,60.02283698502957,
B,left,Distractor,0,33,33,33,1008.948234367942,1010.950819714204,left,1,2,0.755374722826673,M27Y05,2022-09-19_10h38.07.152,t1_Paradigm,2021.1.4,60.02283698502957,
M,right,Target,0,34,34,34,1012.4481451848851,1014.4502971271504,right,1,2,0.8242118527496132,M27Y05,2022-09-19_10h38.07.152,t1_Paradigm,2021.1.4,60.02283698502957,
M,left,Lure,0,35,35,35,1015.9481586585844,1017.9481528841416,right,0,2,0.5583545918361779,M27Y05,2022-09-19_10h38.07.152,t1_Paradigm,2021.1.4,60.02283698502957,
T,left,Distractor,0,36,36,36,1019.448268372993,1021.4503952926743,left,1,2,0.5760465214762007,M27Y05,2022-09-19_10h38.07.152,t1_Paradigm,2021.1.4,60.02283698502957,
F,left,Distractor,0,37,37,37,1022.9483177765569,1024.9492118527496,left,1,2,0.821129262822069,M27Y05,2022-09-19_10h38.07.152,t1_Paradigm,2021.1.4,60.02283698502957,
X,left,Distractor,0,38,38,38,1026.4482642025623,1028.4494553417444,left,1,2,0.5529035180470601,M27Y05,2022-09-19_10h38.07.152,t1_Paradigm,2021.1.4,60.02283698502957,
C,left,Distractor,0,39,39,39,1029.9481769443191,1031.9502438739582,left,1,2,1.2601934951544536,M27Y05,2022-09-19_10h38.07.152,t1_Paradigm,2021.1.4,60.02283698502957,
R,left,Distractor,0,40,40,40,1033.4482882627399,1035.4501649565764,left,1,2,0.9762795523138266,M27Y05,2022-09-19_10h38.07.152,t1_Paradigm,2021.1.4,60.02283698502957,
B,left,Pretarget,0,41,41,41,1036.9482308391161,1038.947920623229,right,0,2,0.8702954333139132,M27Y05,2022-09-19_10h38.07.152,t1_Paradigm,2021.1.4,60.02283698502957,
H,left,Distractor,0,42,42,42,1040.4479453250115,1042.4501161946164,left,1,2,1.256452939576775,M27Y05,2022-09-19_10h38.07.152,t1_Paradigm,2021.1.4,60.02283698502957,
B,right,Target,0,43,43,43,1043.9482362927565,1045.9494883843881,right,1,2,0.5730627386765264,M27Y05,2022-09-19_10h38.07.152,t1_Paradigm,2021.1.4,60.02283698502957,
W,left,Pretarget,0,44,44,44,1047.4481958716588,1049.4495948907734,left,1,2,0.9768861895863665,M27Y05,2022-09-19_10h38.07.152,t1_Paradigm,2021.1.4,60.02283698502957,
L,left,Pretarget,0,45,45,45,1050.948260994539,1052.9502493275986,left,1,2,0.8839725213529164,M27Y05,2022-09-19_10h38.07.152,t1_Paradigm,2021.1.4,60.02283698502957,
W,right,Target,0,46,46,46,1054.4482744682382,1056.4496818282141,right,1,2,0.7609165836856846,M27Y05,2022-09-19_10h38.07.152,t1_Paradigm,2021.1.4,60.02283698502957,
L,right,Target,0,47,47,47,1057.9474179259232,1059.9500395228515,right,1,2,1.0364296749885398,M27Y05,2022-09-19_10h38.07.152,t1_Paradigm,2021.1.4,60.02283698502957,
W,right,Target,0,48,48,48,1061.4482966036012,1063.4491332561693,None,0,2,,M27Y05,2022-09-19_10h38.07.152,t1_Paradigm,2021.1.4,60.02283698502957,
X,left,Distractor,0,49,49,49,1064.9482003628918,1066.9500603750048,left,1,2,0.6444800820227101,M27Y05,2022-09-19_10h38.07.152,t1_Paradigm,2021.1.4,60.02283698502957,
R,left,Distractor,0,50,50,50,1068.447906507925,1070.4501065705454,left,1,2,0.6163524514440724,M27Y05,2022-09-19_10h38.07.152,t1_Paradigm,2021.1.4,60.02283698502957,
V,left,Pretarget,0,51,51,51,1071.9482468792348,1073.9501556533078,left,1,2,1.0202782383075828,M27Y05,2022-09-19_10h38.07.152,t1_Paradigm,2021.1.4,60.02283698502957,
Z,left,Distractor,0,52,52,52,1075.4482016461016,1077.4506185711207,left,1,2,0.815791432266451,M27Y05,2022-09-19_10h38.07.152,t1_Paradigm,2021.1.4,60.02283698502957,
V,right,Target,0,53,53,53,1078.94802103437,1080.9476405627647,right,1,2,1.1589752160925855,M27Y05,2022-09-19_10h38.07.152,t1_Paradigm,2021.1.4,60.02283698502957,
V,left,Lure,0,54,54,54,1082.4481904180184,1084.4481920220305,right,0,2,0.7782274001147016,M27Y05,2022-09-19_10h38.07.152,t1_Paradigm,2021.1.4,60.02283698502957,
N,left,Distractor,0,55,55,55,1085.948275751448,1087.9496850362375,left,1,2,0.7328001811893046,M27Y05,2022-09-19_10h38.07.152,t1_Paradigm,2021.1.4,60.02283698502957,
B,left,Distractor,0,56,56,56,1089.4483315710586,1091.4502512524123,left,1,2,0.7042583947559251,M27Y05,2022-09-19_10h38.07.152,t1_Paradigm,2021.1.4,60.02283698502957,
V,left,Lure,0,57,57,57,1092.948189455611,1094.9501287059093,right,0,2,0.7244978159769744,M27Y05,2022-09-19_10h38.07.152,t1_Paradigm,2021.1.4,60.02283698502957,
J,left,Distractor,0,58,58,58,1096.4481884932038,1098.4500308611878,left,1,2,0.6324711662828122,M27Y05,2022-09-19_10h38.07.152,t1_Paradigm,2021.1.4,60.02283698502957,
H,left,Distractor,0,59,59,59,1099.9483338166756,1101.9509159549134,left,1,2,0.5876570006776092,M27Y05,2022-09-19_10h38.07.152,t1_Paradigm,2021.1.4,60.02283698502957,
X,left,Pretarget,0,60,60,60,1103.4483043028577,1105.4479600819204,left,1,2,0.8185384629205146,M27Y05,2022-09-19_10h38.07.152,t1_Paradigm,2021.1.4,60.02283698502957,
P,left,Distractor,0,61,61,61,1106.9481907388208,1108.9500578085863,left,1,2,0.7404481095754818,M27Y05,2022-09-19_10h38.07.152,t1_Paradigm,2021.1.4,60.02283698502957,
X,right,Target,0,62,62,62,1110.448287621135,1112.4491518627065,right,1,2,0.7934420938900075,M27Y05,2022-09-19_10h38.07.152,t1_Paradigm,2021.1.4,60.02283698502957,
Q,left,Distractor,0,63,63,63,1113.9483389495135,1115.9504174280373,left,1,2,0.6840991741264588,M27Y05,2022-09-19_10h38.07.152,t1_Paradigm,2021.1.4,60.02283698502957,
B,left,Pretarget,0,0,0,0,1124.5274571536365,1126.5335418120967,None,0,2,,M27Y05,2022-09-19_10h38.07.152,t1_Paradigm,2021.1.4,60.02283698502957,
F,left,Distractor,0,1,1,1,1128.0306446459372,1130.0335309048169,None,0,2,,M27Y05,2022-09-19_10h38.07.152,t1_Paradigm,2021.1.4,60.02283698502957,
B,right,Target,0,2,2,2,1131.531550591816,1133.5330063929496,right,1,2,0.6056309155956114,M27Y05,2022-09-19_10h38.07.152,t1_Paradigm,2021.1.4,60.02283698502957,
V,left,Distractor,0,3,3,3,1135.0315849176695,1137.0334362681187,left,1,2,1.3452949841912414,M27Y05,2022-09-19_10h38.07.152,t1_Paradigm,2021.1.4,60.02283698502957,
G,left,Pretarget,0,4,4,4,1138.5316644766563,1140.5325871042578,left,1,2,1.1580904431693853,M27Y05,2022-09-19_10h38.07.152,t1_Paradigm,2021.1.4,60.02283698502957,
B,left,Lure,0,5,5,5,1142.031668005482,1144.0318505420273,right,0,2,0.8905075863340244,M27Y05,2022-09-19_10h38.07.152,t1_Paradigm,2021.1.4,60.02283698502957,
G,right,Target,0,6,6,6,1145.5315813888437,1147.5329585933969,right,1,2,0.9256405781634385,M27Y05,2022-09-19_10h38.07.152,t1_Paradigm,2021.1.4,60.02283698502957,
Y,left,Pretarget,0,7,7,7,1149.031521719603,1151.0334340225027,left,1,2,0.8652209815008973,M27Y05,2022-09-19_10h38.07.152,t1_Paradigm,2021.1.4,60.02283698502957,
P,left,Distractor,0,8,8,8,1152.5316224515464,1154.5336460728658,left,1,2,0.7089209363330156,M27Y05,2022-09-19_10h38.07.152,t1_Paradigm,2021.1.4,60.02283698502957,
Y,right,Target,0,9,9,9,1156.031354902373,1158.0334048294872,right,1,2,1.1453587597006845,M27Y05,2022-09-19_10h38.07.152,t1_Paradigm,2021.1.4,60.02283698502957,
X,left,Distractor,0,10,10,10,1159.5316724967151,1161.5325707433376,left,1,2,0.6863441490786499,M27Y05,2022-09-19_10h38.07.152,t1_Paradigm,2021.1.4,60.02283698502957,
Y,right,Target,0,11,11,11,1163.03159999538,1165.033331686548,right,1,2,0.8812951048121249,M27Y05,2022-09-19_10h38.07.152,t1_Paradigm,2021.1.4,60.02283698502957,
N,left,Distractor,0,12,12,12,1166.5317613589705,1168.5335434161088,left,1,2,0.7571433062657889,M27Y05,2022-09-19_10h38.07.152,t1_Paradigm,2021.1.4,60.02283698502957,
Y,right,Target,0,13,13,13,1170.03164875734,1172.0307322249828,right,1,2,1.1640082843996424,M27Y05,2022-09-19_10h38.07.152,t1_Paradigm,2021.1.4,60.02283698502957,
Y,left,Lure,0,14,14,14,1173.5313103108447,1175.5318255194434,None,0,2,,M27Y05,2022-09-19_10h38.07.152,t1_Paradigm,2021.1.4,60.02283698502957,
K,left,Distractor,0,15,15,15,1177.0316092986486,1179.0331376011172,left,1,2,1.089539789758419,M27Y05,2022-09-19_10h38.07.152,t1_Paradigm,2021.1.4,60.02283698502957,
T,left,Pretarget,0,16,16,16,1180.53147520326,1182.5333823733217,left,1,2,0.9331951530612059,M27Y05,2022-09-19_10h38.07.152,t1_Paradigm,2021.1.4,60.02283698502957,
J,left,Distractor,0,17,17,17,1184.031568235946,1186.0334648195294,left,1,2,0.6490669142403931,M27Y05,2022-09-19_10h38.07.152,t1_Paradigm,2021.1.4,60.02283698502957,
T,right,Target,0,18,18,18,1187.5317453188518,1189.5337557872745,right,1,2,0.49282621750899125,M27Y05,2022-09-19_10h38.07.152,t1_Paradigm,2021.1.4,60.02283698502957,
S,left,Pretarget,0,19,19,19,1191.0316076946374,1193.0323221215049,left,1,2,0.6740612681187486,M27Y05,2022-09-19_10h38.07.152,t1_Paradigm,2021.1.4,60.02283698502957,
R,left,Distractor,0,20,20,20,1194.5312320350677,1196.533479255636,left,1,2,0.8371180527037723,M27Y05,2022-09-19_10h38.07.152,t1_Paradigm,2021.1.4,60.02283698502957,
S,right,Target,0,21,21,21,1198.0316882160305,1200.0334654611343,left,0,2,1.113323756313548,M27Y05,2022-09-19_10h38.07.152,t1_Paradigm,2021.1.4,60.02283698502957,
Q,left,Distractor,0,22,22,22,1201.5317729078552,1203.5320372490041,right,0,2,0.5747116628335789,M27Y05,2022-09-19_10h38.07.152,t1_Paradigm,2021.1.4,60.02283698502957,
D,left,Distractor,0,23,23,23,1205.0317305619428,1207.0315736895864,left,1,2,0.6589210004931374,M27Y05,2022-09-19_10h38.07.152,t1_Paradigm,2021.1.4,60.02283698502957,
F,left,Distractor,0,24,24,24,1208.5317013689282,1210.5335639474606,left,1,2,0.9813995580625487,M27Y05,2022-09-19_10h38.07.152,t1_Paradigm,2021.1.4,60.02283698502957,
Z,left,Distractor,0,25,25,25,1212.031768416622,1214.0341012914223,None,0,2,,M27Y05,2022-09-19_10h38.07.152,t1_Paradigm,2021.1.4,60.02283698502957,
P,left,Distractor,0,26,26,26,1215.5315005466473,1217.5306921246865,left,1,2,0.6239923597713641,M27Y05,2022-09-19_10h38.07.152,t1_Paradigm,2021.1.4,60.02283698502957,
H,left,Distractor,0,27,27,27,1219.0316978401015,1221.0336361279924,left,1,2,0.7208859021475291,M27Y05,2022-09-19_10h38.07.152,t1_Paradigm,2021.1.4,60.02283698502957,
Z,left,Pretarget,0,28,28,28,1222.5313340502198,1224.5449697547529,left,1,2,0.6018483349071175,M27Y05,2022-09-19_10h38.07.152,t1_Paradigm,2021.1.4,60.02283698502957,
J,left,Pretarget,0,29,29,29,1226.031687895229,1228.034188228863,left,1,2,0.5844826612737961,M27Y05,2022-09-19_10h38.07.152,t1_Paradigm,2021.1.4,60.02283698502957,
Z,right,Target,0,30,30,30,1229.5316859704144,1231.533855877613,left,0,2,0.6208023010512989,M27Y05,2022-09-19_10h38.07.152,t1_Paradigm,2021.1.4,60.02283698502957,
J,right,Target,0,31,31,31,1233.0318197450006,1235.0341397877055,left,0,2,1.2646385327270764,M27Y05,2022-09-19_10h38.07.152,t1_Paradigm,2021.1.4,60.02283698502957,
V,left,Pretarget,0,32,32,32,1236.531781569519,1238.5308044055146,None,0,2,,M27Y05,2022-09-19_10h38.07.152,t1_Paradigm,2021.1.4,60.02283698502957,
Z,left,Lure,0,33,33,33,1240.0317773990882,1242.0447204913153,right,0,2,0.7661280181082475,M27Y05,2022-09-19_10h38.07.152,t1_Paradigm,2021.1.4,60.02283698502957,
V,right,Target,0,34,34,34,1243.5317433940381,1245.5335684386937,right,1,2,0.605201040425527,M27Y05,2022-09-19_10h38.07.152,t1_Paradigm,2021.1.4,60.02283698502957,
X,left,Distractor,0,35,35,35,1247.0319137400938,1249.0340791560584,left,1,2,0.6566757047394276,M27Y05,2022-09-19_10h38.07.152,t1_Paradigm,2021.1.4,60.02283698502957,
S,left,Distractor,0,36,36,36,1250.5318335395023,1252.5333650499942,left,1,2,0.7733848884117833,M27Y05,2022-09-19_10h38.07.152,t1_Paradigm,2021.1.4,60.02283698502957,
Q,left,Distractor,0,37,37,37,1254.031707784975,1256.033559135425,left,1,2,1.0011096553807874,M27Y05,2022-09-19_10h38.07.152,t1_Paradigm,2021.1.4,60.02283698502957,
P,left,Distractor,0,38,38,38,1257.5318255194434,1259.5335921780688,None,0,2,,M27Y05,2022-09-19_10h38.07.152,t1_Paradigm,2021.1.4,60.02283698502957,
S,left,Lure,0,39,39,39,1261.031800817661,1263.0313879450168,None,0,2,,M27Y05,2022-09-19_10h38.07.152,t1_Paradigm,2021.1.4,60.02283698502957,
K,left,Pretarget,0,40,40,40,1264.5316535693755,1266.5334850300787,left,1,2,0.7412443410457854,M27Y05,2022-09-19_10h38.07.152,t1_Paradigm,2021.1.4,60.02283698502957,
L,left,Distractor,0,41,41,41,1268.031724145896,1270.0336842483475,None,0,2,,M27Y05,2022-09-19_10h38.07.152,t1_Paradigm,2021.1.4,60.02283698502957,
K,right,Target,0,42,42,42,1271.5317902311826,1273.5324404975772,left,0,2,1.1984772153327867,M27Y05,2022-09-19_10h38.07.152,t1_Paradigm,2021.1.4,60.02283698502957,
B,left,Distractor,0,43,43,43,1275.031511453928,1277.0336155966415,right,0,2,1.297161797314402,M27Y05,2022-09-19_10h38.07.152,t1_Paradigm,2021.1.4,60.02283698502957,
N,left,Distractor,0,44,44,44,1278.5318239154312,1280.5312955539357,left,1,2,0.7113824528805708,M27Y05,2022-09-19_10h38.07.152,t1_Paradigm,2021.1.4,60.02283698502957,
S,left,Pretarget,0,45,45,45,1282.0317305619428,1284.0339158676552,right,0,2,0.9206710287226088,M27Y05,2022-09-19_10h38.07.152,t1_Paradigm,2021.1.4,60.02283698502957,
Z,left,Distractor,0,46,46,46,1285.531866582146,1287.5337942835586,left,1,2,0.9410471117525958,M27Y05,2022-09-19_10h38.07.152,t1_Paradigm,2021.1.4,60.02283698502957,
S,right,Target,0,47,47,47,1289.0318572788774,1291.0316186019172,right,1,2,0.834874681763722,M27Y05,2022-09-19_10h38.07.152,t1_Paradigm,2021.1.4,60.02283698502957,
C,left,Distractor,0,48,48,48,1292.5314078347637,1294.5325364174842,left,1,2,0.6781771624646353,M27Y05,2022-09-19_10h38.07.152,t1_Paradigm,2021.1.4,60.02283698502957,
T,left,Pretarget,0,49,49,49,1296.0310013781673,1298.0312538496282,left,1,2,1.163598940582233,M27Y05,2022-09-19_10h38.07.152,t1_Paradigm,2021.1.4,60.02283698502957,
S,left,Lure,0,50,50,50,1299.5316965568927,1301.5338799377896,left,1,2,0.9089059227817415,M27Y05,2022-09-19_10h38.07.152,t1_Paradigm,2021.1.4,60.02283698502957,
T,right,Target,0,51,51,51,1303.0318447675854,1305.0335440577137,right,1,2,0.8170893986371084,M27Y05,2022-09-19_10h38.07.152,t1_Paradigm,2021.1.4,60.02283698502957,
N,left,Pretarget,0,52,52,52,1306.5315345516983,1308.5336486392844,left,1,2,0.7412209224739854,M27Y05,2022-09-19_10h38.07.152,t1_Paradigm,2021.1.4,60.02283698502957,
B,left,Distractor,0,53,53,53,1310.03177354946,1312.0443470773625,left,1,2,0.7982185203054541,M27Y05,2022-09-19_10h38.07.152,t1_Paradigm,2021.1.4,60.02283698502957,
N,right,Target,0,54,54,54,1313.5317636045866,1315.531994261487,right,1,2,1.0867799270117757,M27Y05,2022-09-19_10h38.07.152,t1_Paradigm,2021.1.4,60.02283698502957,
N,left,Lure,0,55,55,55,1317.0319092488608,1319.0318588828895,right,0,2,0.9947988312524103,M27Y05,2022-09-19_10h38.07.152,t1_Paradigm,2021.1.4,60.02283698502957,
X,left,Distractor,0,56,56,56,1320.5317790031004,1322.533222292941,left,1,2,0.6775830364840658,M27Y05,2022-09-19_10h38.07.152,t1_Paradigm,2021.1.4,60.02283698502957,
W,left,Distractor,0,57,57,57,1324.031849579621,1326.0336226542931,left,1,2,0.9370505558863442,M27Y05,2022-09-19_10h38.07.152,t1_Paradigm,2021.1.4,60.02283698502957,
S,left,Distractor,0,58,58,58,1327.5313654888514,1329.5313279549746,left,1,2,0.6875076992573668,M27Y05,2022-09-19_10h38.07.152,t1_Paradigm,2021.1.4,60.02283698502957,
L,left,Distractor,0,59,59,59,1331.0317273539195,1333.0335148646982,left,1,2,0.7531178781873678,M27Y05,2022-09-19_10h38.07.152,t1_Paradigm,2021.1.4,60.02283698502957,
K,left,Pretarget,0,60,60,60,1334.5317857399496,1336.5337538624608,left,1,2,0.6770489005466516,M27Y05,2022-09-19_10h38.07.152,t1_Paradigm,2021.1.4,60.02283698502957,
V,left,Pretarget,0,61,61,61,1338.0318174993845,1340.0339457022747,left,1,2,0.7130586452385614,M27Y05,2022-09-19_10h38.07.152,t1_Paradigm,2021.1.4,60.02283698502957,
K,right,Target,0,62,62,62,1341.53156599033,1343.532565931302,right,1,2,0.718203673572134,M27Y05,2022-09-19_10h38.07.152,t1_Paradigm,2021.1.4,60.02283698502957,
V,right,Target,0,63,63,63,1345.0318874342993,1347.0337801682545,right,1,2,0.929194426765207,M27Y05,2022-09-19_10h38.07.152,t1_Paradigm,2021.1.4,60.02283698502957,
R,left,Distractor,0,0,0,0,1447.615475056975,1449.6166309078963,left,1,3,0.5063833254625933,M27Y05,2022-09-19_10h38.07.152,t1_Paradigm,2021.1.4,60.02283698502957,
P,left,Lure,0,1,1,1,1451.1153541144831,1453.1169930937667,left,1,3,0.7176692168322916,M27Y05,2022-09-19_10h38.07.152,t1_Paradigm,2021.1.4,60.02283698502957,
V,left,Distractor,0,2,2,2,1454.6151776731822,1456.6171618358112,None,0,3,,M27Y05,2022-09-19_10h38.07.152,t1_Paradigm,2021.1.4,60.02283698502957,
P,left,Pretarget,0,3,3,3,1458.1153056733256,1460.117191991234,left,1,3,0.8214818246215145,M27Y05,2022-09-19_10h38.07.152,t1_Paradigm,2021.1.4,60.02283698502957,
Z,left,Distractor,0,4,4,4,1461.615344490412,1463.617255510102,left,1,3,1.2576549860386876,M27Y05,2022-09-19_10h38.07.152,t1_Paradigm,2021.1.4,60.02283698502957,
L,left,Pretarget,0,5,5,5,1465.1152302847695,1467.1170248532017,left,1,3,0.7017975198123168,M27Y05,2022-09-19_10h38.07.152,t1_Paradigm,2021.1.4,60.02283698502957,
P,right,Target,0,6,6,6,1468.615212961442,1470.616763720076,right,1,3,0.7222412921400974,M27Y05,2022-09-19_10h38.07.152,t1_Paradigm,2021.1.4,60.02283698502957,
S,left,Distractor,0,7,7,7,1472.1153428864,1474.1149476578867,left,1,3,0.9041817871511739,M27Y05,2022-09-19_10h38.07.152,t1_Paradigm,2021.1.4,60.02283698502957,
L,right,Target,0,8,8,8,1475.6153833074986,1477.6152094326153,left,0,3,0.9235473427306715,M27Y05,2022-09-19_10h38.07.152,t1_Paradigm,2021.1.4,60.02283698502957,
D,left,Distractor,0,9,9,9,1479.1151718987403,1481.1171839711733,left,1,3,0.9257323276397074,M27Y05,2022-09-19_10h38.07.152,t1_Paradigm,2021.1.4,60.02283698502957,
G,left,Distractor,0,10,10,10,1482.6151407809102,1484.6171695350677,left,1,3,0.7697566136630485,M27Y05,2022-09-19_10h38.07.152,t1_Paradigm,2021.1.4,60.02283698502957,
M,left,Pretarget,0,11,11,11,1486.1152405504454,1488.1175253048914,left,1,3,0.8052258063689806,M27Y05,2022-09-19_10h38.07.152,t1_Paradigm,2021.1.4,60.02283698502957,
Y,left,Distractor,0,12,12,12,1489.6153749666373,1491.6172609637415,left,1,3,0.5857363569175504,M27Y05,2022-09-19_10h38.07.152,t1_Paradigm,2021.1.4,60.02283698502957,
V,left,Distractor,0,13,13,13,1493.1150031566958,1495.1170254948047,left,1,3,0.5580488671821513,M27Y05,2022-09-19_10h38.07.152,t1_Paradigm,2021.1.4,60.02283698502957,
M,right,Target,0,14,14,14,1496.6153165806063,1498.617170497475,right,1,3,0.8018791960948874,M27Y05,2022-09-19_10h38.07.152,t1_Paradigm,2021.1.4,60.02283698502957,
S,left,Pretarget,0,15,15,15,1500.115288991603,1502.1174672396628,left,1,3,0.6777540241455426,M27Y05,2022-09-19_10h38.07.152,t1_Paradigm,2021.1.4,60.02283698502957,
Q,left,Distractor,0,16,16,16,1503.6153948563824,1505.6171961616637,left,1,3,0.47387770500608895,M27Y05,2022-09-19_10h38.07.152,t1_Paradigm,2021.1.4,60.02283698502957,
R,left,Pretarget,0,17,17,17,1507.1154317486544,1509.1176626083034,left,1,3,0.6531751093298226,M27Y05,2022-09-19_10h38.07.152,t1_Paradigm,2021.1.4,60.02283698502957,
S,right,Target,0,18,18,18,1510.6153926107672,1512.617053725413,right,1,3,0.8497781972437224,M27Y05,2022-09-19_10h38.07.152,t1_Paradigm,2021.1.4,60.02283698502957,
F,left,Distractor,0,19,19,19,1514.1150400489678,1516.1282404246904,left,1,3,0.7306289907828614,M27Y05,2022-09-19_10h38.07.152,t1_Paradigm,2021.1.4,60.02283698502957,
R,right,Target,0,20,20,20,1517.6153557184953,1519.617181725558,left,0,3,0.7779091641677951,M27Y05,2022-09-19_10h38.07.152,t1_Paradigm,2021.1.4,60.02283698502957,
P,left,Distractor,0,21,21,21,1521.1153005404885,1523.117115961073,left,1,3,1.294401292961993,M27Y05,2022-09-19_10h38.07.152,t1_Paradigm,2021.1.4,60.02283698502957,
L,left,Distractor,0,22,22,22,1524.6153493024467,1526.6162347169757,left,1,3,0.9469104165818862,M27Y05,2022-09-19_10h38.07.152,t1_Paradigm,2021.1.4,60.02283698502957,
R,right,Target,0,23,23,23,1528.115300861291,1530.1147474772097,right,1,3,0.6162523611055803,M27Y05,2022-09-19_10h38.07.152,t1_Paradigm,2021.1.4,60.02283698502957,
H,left,Pretarget,0,24,24,24,1531.6149636980044,1533.6176125631337,left,1,3,0.9533745842400094,M27Y05,2022-09-19_10h38.07.152,t1_Paradigm,2021.1.4,60.02283698502957,
G,left,Pretarget,0,25,25,25,1535.115383628301,1537.1170925424994,left,1,3,0.6697163208846177,M27Y05,2022-09-19_10h38.07.152,t1_Paradigm,2021.1.4,60.02283698502957,
T,left,Distractor,0,26,26,26,1538.6153560392977,1540.6285878536528,left,1,3,0.5983256041345157,M27Y05,2022-09-19_10h38.07.152,t1_Paradigm,2021.1.4,60.02283698502957,
H,right,Target,0,27,27,27,1542.1150243296506,1544.1174803925587,left,0,3,0.5816830190324254,M27Y05,2022-09-19_10h38.07.152,t1_Paradigm,2021.1.4,60.02283698502957,
G,right,Target,0,28,28,28,1545.6154439391448,1547.6171509285305,left,0,3,0.905932726462197,M27Y05,2022-09-19_10h38.07.152,t1_Paradigm,2021.1.4,60.02283698502957,
D,left,Distractor,0,29,29,29,1549.1153518688661,1551.117309404899,left,1,3,0.957856193283078,M27Y05,2022-09-19_10h38.07.152,t1_Paradigm,2021.1.4,60.02283698502957,
N,left,Pretarget,0,30,30,30,1552.6153287710968,1554.6144526598364,right,0,3,1.1086977862069034,M27Y05,2022-09-19_10h38.07.152,t1_Paradigm,2021.1.4,60.02283698502957,
V,left,Distractor,0,31,31,31,1556.1153351871435,1558.1172080313518,left,1,3,1.0938488071296888,M27Y05,2022-09-19_10h38.07.152,t1_Paradigm,2021.1.4,60.02283698502957,
R,left,Distractor,0,32,32,32,1559.6153964603945,1561.617265775778,left,1,3,0.5378912505639164,M27Y05,2022-09-19_10h38.07.152,t1_Paradigm,2021.1.4,60.02283698502957,
N,right,Target,0,33,33,33,1563.11539164836,1565.1153169014087,left,0,3,0.5436605603008502,M27Y05,2022-09-19_10h38.07.152,t1_Paradigm,2021.1.4,60.02283698502957,
Z,left,Distractor,0,34,34,34,1566.6154365606908,1568.617140983657,left,1,3,1.105947547530377,M27Y05,2022-09-19_10h38.07.152,t1_Paradigm,2021.1.4,60.02283698502957,
N,left,Lure,0,35,35,35,1570.1150272168725,1572.116945294214,right,0,3,0.6303115247610549,M27Y05,2022-09-19_10h38.07.152,t1_Paradigm,2021.1.4,60.02283698502957,
Y,left,Pretarget,0,36,36,36,1573.6154667161136,1575.6173385979146,left,1,3,1.273837861352149,M27Y05,2022-09-19_10h38.07.152,t1_Paradigm,2021.1.4,60.02283698502957,
Y,left,Lure,0,37,37,37,1577.1153794578695,1579.115043898595,left,1,3,1.3120252124990657,M27Y05,2022-09-19_10h38.07.152,t1_Paradigm,2021.1.4,60.02283698502957,
B,left,Distractor,0,38,38,38,1580.6154535632159,1582.6171156402706,left,1,3,1.1539180876079627,M27Y05,2022-09-19_10h38.07.152,t1_Paradigm,2021.1.4,60.02283698502957,
Y,right,Target,0,39,39,39,1584.1153464152267,1586.1283645752064,right,1,3,1.4508578896839026,M27Y05,2022-09-19_10h38.07.152,t1_Paradigm,2021.1.4,60.02283698502957,
J,left,Distractor,0,40,40,40,1587.615345132017,1589.6171618358112,left,1,3,0.7620788506555982,M27Y05,2022-09-19_10h38.07.152,t1_Paradigm,2021.1.4,60.02283698502957,
X,left,Distractor,0,41,41,41,1591.115499437954,1593.1172122017815,left,1,3,0.9420355038400885,M27Y05,2022-09-19_10h38.07.152,t1_Paradigm,2021.1.4,60.02283698502957,
W,left,Pretarget,0,42,42,42,1594.6153861947187,1596.6172715502198,left,1,3,0.8017675568717095,M27Y05,2022-09-19_10h38.07.152,t1_Paradigm,2021.1.4,60.02283698502957,
S,left,Pretarget,0,43,43,43,1598.115420520573,1600.1147240586379,left,1,3,0.6486344726527022,M27Y05,2022-09-19_10h38.07.152,t1_Paradigm,2021.1.4,60.02283698502957,
R,left,Distractor,0,44,44,44,1601.6151552170159,1603.6172179762252,left,1,3,1.1619994199882058,M27Y05,2022-09-19_10h38.07.152,t1_Paradigm,2021.1.4,60.02283698502957,
W,right,Target,0,45,45,45,1605.1154654329039,1607.1160890727024,right,1,3,0.7667693020375737,M27Y05,2022-09-19_10h38.07.152,t1_Paradigm,2021.1.4,60.02283698502957,
S,right,Target,0,46,46,46,1608.6153877987308,1610.6174669188604,right,1,3,0.8656056235377037,M27Y05,2022-09-19_10h38.07.152,t1_Paradigm,2021.1.4,60.02283698502957,
D,left,Distractor,0,47,47,47,1612.1153611721347,1614.114806825648,left,1,3,0.5362724818296556,M27Y05,2022-09-19_10h38.07.152,t1_Paradigm,2021.1.4,60.02283698502957,
T,left,Distractor,0,48,48,48,1615.6152623650069,1617.6167893842648,left,1,3,0.5862762672986719,M27Y05,2022-09-19_10h38.07.152,t1_Paradigm,2021.1.4,60.02283698502957,
S,right,Target,0,49,49,49,1619.1155007211637,1621.1160448019746,right,1,3,0.9110062158670189,M27Y05,2022-09-19_10h38.07.152,t1_Paradigm,2021.1.4,60.02283698502957,
K,left,Distractor,0,50,50,50,1622.6155199693058,1624.617375810989,left,1,3,0.6419191167406098,M27Y05,2022-09-19_10h38.07.152,t1_Paradigm,2021.1.4,60.02283698502957,
S,left,Lure,0,51,51,51,1626.1153996684188,1628.114652519711,right,0,3,0.712805532173661,M27Y05,2022-09-19_10h38.07.152,t1_Paradigm,2021.1.4,60.02283698502957,
T,left,Pretarget,0,52,52,52,1629.6152453624818,1631.616884020963,left,1,3,0.7784224479528348,M27Y05,2022-09-19_10h38.07.152,t1_Paradigm,2021.1.4,60.02283698502957,
V,left,Distractor,0,53,53,53,1633.1154080092801,1635.1168930034291,None,0,3,,M27Y05,2022-09-19_10h38.07.152,t1_Paradigm,2021.1.4,60.02283698502957,
B,left,Distractor,0,54,54,54,1636.6153682297863,1638.6172462068334,right,0,3,0.6741530175950174,M27Y05,2022-09-19_10h38.07.152,t1_Paradigm,2021.1.4,60.02283698502957,
T,right,Target,0,55,55,55,1640.1155145156663,1642.1162709676428,left,0,3,0.550693831355602,M27Y05,2022-09-19_10h38.07.152,t1_Paradigm,2021.1.4,60.02283698502957,
Y,left,Pretarget,0,56,56,56,1643.6154102548971,1645.6148706653184,left,1,3,0.6682354971653695,M27Y05,2022-09-19_10h38.07.152,t1_Paradigm,2021.1.4,60.02283698502957,
T,left,Lure,0,57,57,57,1647.115237342421,1649.1162173936482,left,1,3,0.5590439961197262,M27Y05,2022-09-19_10h38.07.152,t1_Paradigm,2021.1.4,60.02283698502957,
P,left,Pretarget,0,58,58,58,1650.6154676785209,1652.6170540462153,left,1,3,0.7221822645042266,M27Y05,2022-09-19_10h38.07.152,t1_Paradigm,2021.1.4,60.02283698502957,
Y,right,Target,0,59,59,59,1654.1154949467218,1656.1148812517968,right,1,3,0.6166370031405677,M27Y05,2022-09-19_10h38.07.152,t1_Paradigm,2021.1.4,60.02283698502957,
R,left,Distractor,0,60,60,60,1657.6155347262138,1659.618062648853,left,1,3,0.5530376134356629,M27Y05,2022-09-19_10h38.07.152,t1_Paradigm,2021.1.4,60.02283698502957,
P,right,Target,0,61,61,61,1661.1154663953112,1663.1173039512578,left,0,3,0.6376736182392051,M27Y05,2022-09-19_10h38.07.152,t1_Paradigm,2021.1.4,60.02283698502957,
L,left,Distractor,0,62,62,62,1664.6154484303788,1666.6167589080396,right,0,3,1.2824173998069455,M27Y05,2022-09-19_10h38.07.152,t1_Paradigm,2021.1.4,60.02283698502957,
V,left,Distractor,0,63,63,63,1668.1150788660543,1670.1170158707355,right,0,3,0.7898988317665498,M27Y05,2022-09-19_10h38.07.152,t1_Paradigm,2021.1.4,60.02283698502957,
H,left,Lure,0,0,0,0,1706.87895645557,1708.8839782957948,left,1,3,0.9989692620001733,M27Y05,2022-09-19_10h38.07.152,t1_Paradigm,2021.1.4,60.02283698502957,
B,left,Distractor,0,1,1,1,1710.3821433062658,1712.3840344362088,left,1,3,0.5069351055317384,M27Y05,2022-09-19_10h38.07.152,t1_Paradigm,2021.1.4,60.02283698502957,
T,left,Distractor,0,2,2,2,1713.8822456422204,1715.882750585144,left,1,3,0.49655650741260615,M27Y05,2022-09-19_10h38.07.152,t1_Paradigm,2021.1.4,60.02283698502957,
R,left,Distractor,0,3,3,3,1717.3818645290103,1719.3841056543333,left,1,3,0.563212181252311,M27Y05,2022-09-19_10h38.07.152,t1_Paradigm,2021.1.4,60.02283698502957,
H,left,Pretarget,0,4,4,4,1720.8821612711981,1722.8821378526263,right,0,3,0.8729885691700474,M27Y05,2022-09-19_10h38.07.152,t1_Paradigm,2021.1.4,60.02283698502957,
K,left,Distractor,0,5,5,5,1724.381395515953,1726.3823720383534,left,1,3,0.7167950303864927,M27Y05,2022-09-19_10h38.07.152,t1_Paradigm,2021.1.4,60.02283698502957,
G,left,Distractor,0,6,6,6,1727.8820271758104,1729.8841678899935,left,1,3,1.1027972683041298,M27Y05,2022-09-19_10h38.07.152,t1_Paradigm,2021.1.4,60.02283698502957,
H,right,Target,0,7,7,7,1731.3822620031406,1733.3821680080491,right,1,3,0.981174675604052,M27Y05,2022-09-19_10h38.07.152,t1_Paradigm,2021.1.4,60.02283698502957,
Y,left,Pretarget,0,8,8,8,1734.8822283188929,1736.8951813559925,left,1,3,0.7480694113655773,M27Y05,2022-09-19_10h38.07.152,t1_Paradigm,2021.1.4,60.02283698502957,
S,left,Distractor,0,9,9,9,1738.3820274966129,1740.38407517811,left,1,3,0.7311599186959938,M27Y05,2022-09-19_10h38.07.152,t1_Paradigm,2021.1.4,60.02283698502957,
P,left,Distractor,0,10,10,10,1741.8817849700245,1743.884123298465,left,1,3,0.8311681312370638,M27Y05,2022-09-19_10h38.07.152,t1_Paradigm,2021.1.4,60.02283698502957,
Y,right,Target,0,11,11,11,1745.3819697521867,1747.3823550358265,right,1,3,0.9492464994054899,M27Y05,2022-09-19_10h38.07.152,t1_Paradigm,2021.1.4,60.02283698502957,
H,left,Lure,0,12,12,12,1748.8819764890359,1750.8821895018064,left,1,3,0.7130997079420922,M27Y05,2022-09-19_10h38.07.152,t1_Paradigm,2021.1.4,60.02283698502957,
Q,left,Distractor,0,13,13,13,1752.382339958116,1754.3841406217925,left,1,3,0.7792369651579065,M27Y05,2022-09-19_10h38.07.152,t1_Paradigm,2021.1.4,60.02283698502957,
V,left,Pretarget,0,14,14,14,1755.8823158979394,1757.8831127710146,right,0,3,0.7520675712439697,M27Y05,2022-09-19_10h38.07.152,t1_Paradigm,2021.1.4,60.02283698502957,
G,left,Distractor,0,15,15,15,1759.3822629655479,1761.3840665164462,left,1,3,0.46704333141678944,M27Y05,2022-09-19_10h38.07.152,t1_Paradigm,2021.1.4,60.02283698502957,
Z,left,Pretarget,0,16,16,16,1762.8822135619848,1764.881591847001,left,1,3,0.9535661032532516,M27Y05,2022-09-19_10h38.07.152,t1_Paradigm,2021.1.4,60.02283698502957,
V,right,Target,0,17,17,17,1766.3822286396953,1768.3822443590107,right,1,3,0.7652695509787009,M27Y05,2022-09-19_10h38.07.152,t1_Paradigm,2021.1.4,60.02283698502957,
N,left,Distractor,0,18,18,18,1769.8822279980905,1771.8840989174842,right,0,3,0.4633268360157672,M27Y05,2022-09-19_10h38.07.152,t1_Paradigm,2021.1.4,60.02283698502957,
Z,right,Target,0,19,19,19,1773.3823338628717,1775.3843035893933,left,0,3,1.0110798720888852,M27Y05,2022-09-19_10h38.07.152,t1_Paradigm,2021.1.4,60.02283698502957,
R,left,Distractor,0,20,20,20,1776.8823345044766,1778.881408668849,left,1,3,0.5383272209783172,M27Y05,2022-09-19_10h38.07.152,t1_Paradigm,2021.1.4,60.02283698502957,
P,left,Distractor,0,21,21,21,1780.3823319380572,1782.3841277896972,right,0,3,0.6991470506709447,M27Y05,2022-09-19_10h38.07.152,t1_Paradigm,2021.1.4,60.02283698502957,
Z,right,Target,0,22,22,22,1783.8822360181493,1785.8840902558204,right,1,3,0.6871891425071226,M27Y05,2022-09-19_10h38.07.152,t1_Paradigm,2021.1.4,60.02283698502957,
D,left,Pretarget,0,23,23,23,1787.3822199780316,1789.38442517349,left,1,3,1.0268842006116756,M27Y05,2022-09-19_10h38.07.152,t1_Paradigm,2021.1.4,60.02283698502957,
K,left,Distractor,0,24,24,24,1790.8822616823381,1792.8818327695772,left,1,3,0.8415390300997387,M27Y05,2022-09-19_10h38.07.152,t1_Paradigm,2021.1.4,60.02283698502957,
W,left,Distractor,0,25,25,25,1794.3820274966129,1796.3845371335156,left,1,3,0.8427686655650177,M27Y05,2022-09-19_10h38.07.152,t1_Paradigm,2021.1.4,60.02283698502957,
D,right,Target,0,26,26,26,1797.8823268052183,1799.8838672981765,left,0,3,0.7356213171879062,M27Y05,2022-09-19_10h38.07.152,t1_Paradigm,2021.1.4,60.02283698502957,
G,left,Pretarget,0,27,27,27,1801.382239546976,1803.383132339959,left,1,3,0.7242982769057562,M27Y05,2022-09-19_10h38.07.152,t1_Paradigm,2021.1.4,60.02283698502957,
V,left,Distractor,0,28,28,28,1804.8822337725323,1806.884014546462,right,0,3,0.5353835384757986,M27Y05,2022-09-19_10h38.07.152,t1_Paradigm,2021.1.4,60.02283698502957,
D,right,Target,0,29,29,29,1808.382249171047,1810.3846022563957,right,1,3,0.7308468155879382,M27Y05,2022-09-19_10h38.07.152,t1_Paradigm,2021.1.4,60.02283698502957,
G,right,Target,0,30,30,30,1811.8822369805566,1813.8842076694855,left,0,3,1.1029640855322214,M27Y05,2022-09-19_10h38.07.152,t1_Paradigm,2021.1.4,60.02283698502957,
B,left,Pretarget,0,31,31,31,1815.382296328995,1817.3844935043944,right,0,3,0.5790729709897278,M27Y05,2022-09-19_10h38.07.152,t1_Paradigm,2021.1.4,60.02283698502957,
N,left,Distractor,0,32,32,32,1818.8822555870938,1820.8833492023568,left,1,3,0.5838445853696612,M27Y05,2022-09-19_10h38.07.152,t1_Paradigm,2021.1.4,60.02283698502957,
F,left,Distractor,0,33,33,33,1822.3823653015024,1824.3847742064627,left,1,3,0.6184020577547926,M27Y05,2022-09-19_10h38.07.152,t1_Paradigm,2021.1.4,60.02283698502957,
B,right,Target,0,34,34,34,1825.8823175019497,1827.8844976748242,right,1,3,0.7188577895940398,M27Y05,2022-09-19_10h38.07.152,t1_Paradigm,2021.1.4,60.02283698502957,
Q,left,Pretarget,0,35,35,35,1829.382291196156,1831.384568572148,right,0,3,1.090843530571874,M27Y05,2022-09-19_10h38.07.152,t1_Paradigm,2021.1.4,60.02283698502957,
S,left,Pretarget,0,36,36,36,1832.8815360273893,1834.8841909877628,left,1,3,0.5991340260952711,M27Y05,2022-09-19_10h38.07.152,t1_Paradigm,2021.1.4,60.02283698502957,
W,left,Distractor,0,37,37,37,1836.3823713967486,1838.3838932831677,left,1,3,0.8915726501854806,M27Y05,2022-09-19_10h38.07.152,t1_Paradigm,2021.1.4,60.02283698502957,
Q,right,Target,0,38,38,38,1839.8823409205233,1841.8841037295206,right,1,3,0.7992515039222781,M27Y05,2022-09-19_10h38.07.152,t1_Paradigm,2021.1.4,60.02283698502957,
S,right,Target,0,39,39,39,1843.3818593961732,1845.383235638319,left,0,3,1.060047786719224,M27Y05,2022-09-19_10h38.07.152,t1_Paradigm,2021.1.4,60.02283698502957,
T,left,Distractor,0,40,40,40,1846.8820021532247,1848.884087689401,left,1,3,1.2072922227234812,M27Y05,2022-09-19_10h38.07.152,t1_Paradigm,2021.1.4,60.02283698502957,
G,left,Distractor,0,41,41,41,1850.3823656223049,1852.3833341246464,left,1,3,0.7160016861380427,M27Y05,2022-09-19_10h38.07.152,t1_Paradigm,2021.1.4,60.02283698502957,
D,left,Distractor,0,42,42,42,1853.8822530206744,1855.8951268195906,left,1,3,0.7247127535611071,M27Y05,2022-09-19_10h38.07.152,t1_Paradigm,2021.1.4,60.02283698502957,
S,left,Lure,0,43,43,43,1857.3823364292894,1859.3842051030679,left,1,3,0.7070949292701698,M27Y05,2022-09-19_10h38.07.152,t1_Paradigm,2021.1.4,60.02283698502957,
Z,left,Pretarget,0,44,44,44,1860.8823579230484,1862.8815973006404,left,1,3,0.6339680301189219,M27Y05,2022-09-19_10h38.07.152,t1_Paradigm,2021.1.4,60.02283698502957,
J,left,Distractor,0,45,45,45,1864.3820842786317,1866.3824378028366,left,1,3,1.084879172996807,M27Y05,2022-09-19_10h38.07.152,t1_Paradigm,2021.1.4,60.02283698502957,
M,left,Pretarget,0,46,46,46,1867.882019476554,1869.8830004901865,left,1,3,0.9762195622715808,M27Y05,2022-09-19_10h38.07.152,t1_Paradigm,2021.1.4,60.02283698502957,
Z,right,Target,0,47,47,47,1871.3818083885963,1873.3842942861247,left,0,3,1.1870733328560163,M27Y05,2022-09-19_10h38.07.152,t1_Paradigm,2021.1.4,60.02283698502957,
P,left,Distractor,0,48,48,48,1874.8821089804132,1876.882110263623,left,1,3,0.6813964142002078,M27Y05,2022-09-19_10h38.07.152,t1_Paradigm,2021.1.4,60.02283698502957,
M,right,Target,0,49,49,49,1878.3823595270605,1880.3844970332193,right,1,3,0.6346596800176485,M27Y05,2022-09-19_10h38.07.152,t1_Paradigm,2021.1.4,60.02283698502957,
K,left,Distractor,0,50,50,50,1881.8821205292988,1883.8846144468862,left,1,3,0.6707868383782625,M27Y05,2022-09-19_10h38.07.152,t1_Paradigm,2021.1.4,60.02283698502957,
Y,left,Distractor,0,51,51,51,1885.3823098026933,1887.3844492336666,left,1,3,0.6432071382369031,M27Y05,2022-09-19_10h38.07.152,t1_Paradigm,2021.1.4,60.02283698502957,
X,left,Distractor,0,52,52,52,1888.8822427549985,1890.8814564684017,left,1,3,0.5539348976508336,M27Y05,2022-09-19_10h38.07.152,t1_Paradigm,2021.1.4,60.02283698502957,
F,left,Pretarget,0,53,53,53,1892.3823726799565,1894.3837550173484,left,1,3,0.7637345116618235,M27Y05,2022-09-19_10h38.07.152,t1_Paradigm,2021.1.4,60.02283698502957,
M,left,Lure,0,54,54,54,1895.882185652179,1897.8841024463109,left,1,3,0.7512520916316134,M27Y05,2022-09-19_10h38.07.152,t1_Paradigm,2021.1.4,60.02283698502957,
V,left,Distractor,0,55,55,55,1899.3823152563346,1901.3839670677116,right,0,3,0.6751840763972723,M27Y05,2022-09-19_10h38.07.152,t1_Paradigm,2021.1.4,60.02283698502957,
F,right,Target,0,56,56,56,1902.882315577137,1904.8846545471806,left,0,3,0.6146935824126558,M27Y05,2022-09-19_10h38.07.152,t1_Paradigm,2021.1.4,60.02283698502957,
S,left,Distractor,0,57,57,57,1906.382169291257,1908.384825534842,left,1,3,0.538359301215678,M27Y05,2022-09-19_10h38.07.152,t1_Paradigm,2021.1.4,60.02283698502957,
D,left,Distractor,0,58,58,58,1909.8824262539529,1911.8842320504664,None,0,3,,M27Y05,2022-09-19_10h38.07.152,t1_Paradigm,2021.1.4,60.02283698502957,
F,right,Target,0,59,59,59,1913.3815841477444,1915.3842853036585,left,0,3,0.5792417130323884,M27Y05,2022-09-19_10h38.07.152,t1_Paradigm,2021.1.4,60.02283698502957,
V,left,Pretarget,0,60,60,60,1916.8824374820342,1918.8831393976106,right,0,3,0.7602265377990989,M27Y05,2022-09-19_10h38.07.152,t1_Paradigm,2021.1.4,60.02283698502957,
J,left,Distractor,0,61,61,61,1920.382235697347,1922.384703629943,left,1,3,0.6344861259403842,M27Y05,2022-09-19_10h38.07.152,t1_Paradigm,2021.1.4,60.02283698502957,
V,left,Lure,0,62,62,62,1923.88144941075,1925.8829870164864,right,0,3,0.7684445319864608,M27Y05,2022-09-19_10h38.07.152,t1_Paradigm,2021.1.4,60.02283698502957,
V,right,Target,0,63,63,63,1927.3820403287064,1929.382430745185,None,0,3,,M27Y05,2022-09-19_10h38.07.152,t1_Paradigm,2021.1.4,60.02283698502957,
R,left,Distractor,0,0,0,0,2032.677531387304,2034.6843805178014,left,1,4,0.6232750456820213,M27Y05,2022-09-19_10h38.07.152,t1_Paradigm,2021.1.4,60.02283698502957,
F,left,Distractor,0,1,1,1,2036.1824897086608,2038.1843362470736,left,1,4,0.48318257760911365,M27Y05,2022-09-19_10h38.07.152,t1_Paradigm,2021.1.4,60.02283698502957,
P,left,Pretarget,0,2,2,2,2039.6825942902306,2041.68464229253,left,1,4,0.9668216569825745,M27Y05,2022-09-19_10h38.07.152,t1_Paradigm,2021.1.4,60.02283698502957,
H,left,Distractor,0,3,3,3,2043.1822115730101,2045.1845627335442,left,1,4,0.507120208496417,M27Y05,2022-09-19_10h38.07.152,t1_Paradigm,2021.1.4,60.02283698502957,
Z,left,Distractor,0,4,4,4,2046.6825419994457,2048.6844167684685,left,1,4,0.8473160390913108,M27Y05,2022-09-19_10h38.07.152,t1_Paradigm,2021.1.4,60.02283698502957,
T,left,Distractor,0,5,5,5,2050.199208323924,2052.184638763705,left,1,4,0.546788383360763,M27Y05,2022-09-19_10h38.07.152,t1_Paradigm,2021.1.4,60.02283698502957,
P,right,Target,0,6,6,6,2053.6824990119294,2055.684572036813,left,0,4,1.1111522451028577,M27Y05,2022-09-19_10h38.07.152,t1_Paradigm,2021.1.4,60.02283698502957,
G,left,Distractor,0,7,7,7,2057.182591723813,2059.183476175933,left,1,4,1.180286117214564,M27Y05,2022-09-19_10h38.07.152,t1_Paradigm,2021.1.4,60.02283698502957,
L,left,Distractor,0,8,8,8,2060.682582741347,2062.684826112287,left,1,4,0.7827430142078811,M27Y05,2022-09-19_10h38.07.152,t1_Paradigm,2021.1.4,60.02283698502957,
P,left,Lure,0,9,9,9,2064.182531092165,2066.1825461698772,left,1,4,1.0131557841941685,M27Y05,2022-09-19_10h38.07.152,t1_Paradigm,2021.1.4,60.02283698502957,
Q,left,Pretarget,0,10,10,10,2067.6825018991494,2069.6848020521084,left,1,4,0.7427498665474559,M27Y05,2022-09-19_10h38.07.152,t1_Paradigm,2021.1.4,60.02283698502957,
D,left,Distractor,0,11,11,11,2071.1825670220296,2073.1845386733676,left,1,4,1.1951748757855967,M27Y05,2022-09-19_10h38.07.152,t1_Paradigm,2021.1.4,60.02283698502957,
M,left,Pretarget,0,12,12,12,2074.6840260311874,2076.6826895685335,left,1,4,0.8651003598115494,M27Y05,2022-09-19_10h38.07.152,t1_Paradigm,2021.1.4,60.02283698502957,
C,left,Distractor,0,13,13,13,2078.1826549218786,2080.18447387129,left,1,4,0.6590368101460626,M27Y05,2022-09-19_10h38.07.152,t1_Paradigm,2021.1.4,60.02283698502957,
Q,right,Target,0,14,14,14,2081.6825262801303,2083.6815657978477,right,1,4,0.6821705103066051,M27Y05,2022-09-19_10h38.07.152,t1_Paradigm,2021.1.4,60.02283698502957,
R,left,Distractor,0,15,15,15,2085.182520184884,2087.1841585225648,right,0,4,0.8754083814110345,M27Y05,2022-09-19_10h38.07.152,t1_Paradigm,2021.1.4,60.02283698502957,
M,right,Target,0,16,16,16,2088.6826270120728,2090.6847969192713,right,1,4,0.9110710179447779,M27Y05,2022-09-19_10h38.07.152,t1_Paradigm,2021.1.4,60.02283698502957,
S,left,Distractor,0,17,17,17,2092.182610971955,2094.183682451854,left,1,4,0.7558540015597828,M27Y05,2022-09-19_10h38.07.152,t1_Paradigm,2021.1.4,60.02283698502957,
Z,left,Distractor,0,18,18,18,2095.682484575822,2097.6825079943956,left,1,4,0.9531278872218536,M27Y05,2022-09-19_10h38.07.152,t1_Paradigm,2021.1.4,60.02283698502957,
L,left,Pretarget,0,19,19,19,2099.182692134953,2101.1844661720315,left,1,4,0.6510523600791203,M27Y05,2022-09-19_10h38.07.152,t1_Paradigm,2021.1.4,60.02283698502957,
M,right,Target,0,20,20,20,2102.6822901695887,2104.6839958757646,right,1,4,0.7515684027621319,M27Y05,2022-09-19_10h38.07.152,t1_Paradigm,2021.1.4,60.02283698502957,
P,left,Distractor,0,21,21,21,2106.182335402722,2108.183894181415,left,1,4,0.7394850608743582,M27Y05,2022-09-19_10h38.07.152,t1_Paradigm,2021.1.4,60.02283698502957,
F,left,Distractor,0,22,22,22,2109.6826298992946,2111.6843664024964,left,1,4,0.7432900977291865,M27Y05,2022-09-19_10h38.07.152,t1_Paradigm,2021.1.4,60.02283698502957,
L,right,Target,0,23,23,23,2113.182558360366,2115.1846551246254,left,0,4,0.6509038285839779,M27Y05,2022-09-19_10h38.07.152,t1_Paradigm,2021.1.4,60.02283698502957,
L,left,Lure,0,24,24,24,2116.682324495441,2118.6823039640913,left,1,4,1.1053316069883294,M27Y05,2022-09-19_10h38.07.152,t1_Paradigm,2021.1.4,60.02283698502957,
V,left,Pretarget,0,25,25,25,2120.1824162449193,2122.1837588028175,left,1,4,0.8517225803807378,M27Y05,2022-09-19_10h38.07.152,t1_Paradigm,2021.1.4,60.02283698502957,
Z,left,Distractor,0,26,26,26,2123.682328986675,2125.684511405165,right,0,4,1.1912027008984296,M27Y05,2022-09-19_10h38.07.152,t1_Paradigm,2021.1.4,60.02283698502957,
H,left,Distractor,0,27,27,27,2127.182658771506,2129.1845659415685,left,1,4,0.7148705369963864,M27Y05,2022-09-19_10h38.07.152,t1_Paradigm,2021.1.4,60.02283698502957,
X,left,Distractor,0,28,28,28,2130.682409187266,2132.6850981526914,left,1,4,0.5906824877838517,M27Y05,2022-09-19_10h38.07.152,t1_Paradigm,2021.1.4,60.02283698502957,
V,right,Target,0,29,29,29,2134.1826866813117,2136.185141461012,left,0,4,0.7703199426141509,M27Y05,2022-09-19_10h38.07.152,t1_Paradigm,2021.1.4,60.02283698502957,
C,left,Distractor,0,30,30,30,2137.6824184905345,2139.684394953907,left,1,4,0.9192206812294899,M27Y05,2022-09-19_10h38.07.152,t1_Paradigm,2021.1.4,60.02283698502957,
S,left,Pretarget,0,31,31,31,2141.1827036838386,2143.1842416103773,left,1,4,0.9073064021886239,M27Y05,2022-09-19_10h38.07.152,t1_Paradigm,2021.1.4,60.02283698502957,
D,left,Distractor,0,32,32,32,2144.682342139573,2146.683457890198,left,1,4,1.2161922427421814,M27Y05,2022-09-19_10h38.07.152,t1_Paradigm,2021.1.4,60.02283698502957,
V,left,Distractor,0,33,33,33,2148.1826889269287,2150.184349079169,left,1,4,0.9316039733312209,M27Y05,2022-09-19_10h38.07.152,t1_Paradigm,2021.1.4,60.02283698502957,
R,left,Distractor,0,34,34,34,2151.6823652373423,2153.6851129096012,left,1,4,0.774777170678135,M27Y05,2022-09-19_10h38.07.152,t1_Paradigm,2021.1.4,60.02283698502957,
S,right,Target,0,35,35,35,2155.1825426410505,2157.18409147487,left,0,4,0.7475378418475884,M27Y05,2022-09-19_10h38.07.152,t1_Paradigm,2021.1.4,60.02283698502957,
Y,left,Distractor,0,36,36,36,2158.682646260215,2160.6818817881776,left,1,4,1.041932718761018,M27Y05,2022-09-19_10h38.07.152,t1_Paradigm,2021.1.4,60.02283698502957,
N,left,Pretarget,0,37,37,37,2162.182450570772,2164.1843946331046,None,0,4,,M27Y05,2022-09-19_10h38.07.152,t1_Paradigm,2021.1.4,60.02283698502957,
Z,left,Pretarget,0,38,38,38,2165.682612255163,2167.684409069212,left,1,4,1.1274518924783479,M27Y05,2022-09-19_10h38.07.152,t1_Paradigm,2021.1.4,60.02283698502957,
P,left,Pretarget,0,39,39,39,2169.182234349977,2171.1845726784177,right,0,4,1.0190989688144327,M27Y05,2022-09-19_10h38.07.152,t1_Paradigm,2021.1.4,60.02283698502957,
M,left,Distractor,0,40,40,40,2172.682371653389,2174.6833934089227,right,0,4,0.560285822075457,M27Y05,2022-09-19_10h38.07.152,t1_Paradigm,2021.1.4,60.02283698502957,
N,right,Target,0,41,41,41,2176.182308134521,2178.1839278656626,left,0,4,0.38785615478445834,M27Y05,2022-09-19_10h38.07.152,t1_Paradigm,2021.1.4,60.02283698502957,
Z,right,Target,0,42,42,42,2179.6823947511602,2181.682297868845,right,1,4,0.7935668860100122,M27Y05,2022-09-19_10h38.07.152,t1_Paradigm,2021.1.4,60.02283698502957,
P,right,Target,0,43,43,43,2183.1823992423924,2185.183336626904,right,1,4,0.7162734057419584,M27Y05,2022-09-19_10h38.07.152,t1_Paradigm,2021.1.4,60.02283698502957,
X,left,Pretarget,0,44,44,44,2186.682684114894,2188.6827546914137,left,1,4,0.5449675091367681,M27Y05,2022-09-19_10h38.07.152,t1_Paradigm,2021.1.4,60.02283698502957,
Z,left,Lure,0,45,45,45,2190.1826141799775,2192.184551505461,right,0,4,0.8671538157504983,M27Y05,2022-09-19_10h38.07.152,t1_Paradigm,2021.1.4,60.02283698502957,
R,left,Pretarget,0,46,46,46,2193.6825869117765,2195.6842374399457,left,1,4,0.7435496268426505,M27Y05,2022-09-19_10h38.07.152,t1_Paradigm,2021.1.4,60.02283698502957,
K,left,Distractor,0,47,47,47,2197.1826193128163,2199.195415156757,right,0,4,0.288312464070259,M27Y05,2022-09-19_10h38.07.152,t1_Paradigm,2021.1.4,60.02283698502957,
X,right,Target,0,48,48,48,2200.682734801667,2202.684533861331,left,0,4,0.6553225603638566,M27Y05,2022-09-19_10h38.07.152,t1_Paradigm,2021.1.4,60.02283698502957,
B,left,Distractor,0,49,49,49,2204.1825958942427,2206.1827197239563,left,1,4,1.17309725701125,M27Y05,2022-09-19_10h38.07.152,t1_Paradigm,2021.1.4,60.02283698502957,
R,right,Target,0,50,50,50,2207.682672245206,2209.6844196556885,left,0,4,1.127991161254613,M27Y05,2022-09-19_10h38.07.152,t1_Paradigm,2021.1.4,60.02283698502957,
Y,left,Pretarget,0,51,51,51,2211.182684756499,2213.1839682867612,left,1,4,0.6517472180021286,M27Y05,2022-09-19_10h38.07.152,t1_Paradigm,2021.1.4,60.02283698502957,
W,left,Pretarget,0,52,52,52,2214.6827367264814,2216.6832721456285,left,1,4,0.7045698938527494,M27Y05,2022-09-19_10h38.07.152,t1_Paradigm,2021.1.4,60.02283698502957,
Z,left,Distractor,0,53,53,53,2218.1821320140225,2220.184267916171,left,1,4,0.5797039892404428,M27Y05,2022-09-19_10h38.07.152,t1_Paradigm,2021.1.4,60.02283698502957,
Q,left,Distractor,0,54,54,54,2221.6825994230694,2223.6848296411117,left,1,4,0.6951992567646812,M27Y05,2022-09-19_10h38.07.152,t1_Paradigm,2021.1.4,60.02283698502957,
Y,right,Target,0,55,55,55,2225.182870821871,2227.184177770705,left,0,4,0.619489898574102,M27Y05,2022-09-19_10h38.07.152,t1_Paradigm,2021.1.4,60.02283698502957,
W,right,Target,0,56,56,56,2228.682719403154,2230.6843696105207,right,1,4,0.9756809351001721,M27Y05,2022-09-19_10h38.07.152,t1_Paradigm,2021.1.4,60.02283698502957,
H,left,Pretarget,0,57,57,57,2232.1824489667597,2234.1834819503765,left,1,4,0.5486862501529686,M27Y05,2022-09-19_10h38.07.152,t1_Paradigm,2021.1.4,60.02283698502957,
M,left,Distractor,0,58,58,58,2235.6824688565066,2237.6837632940496,left,1,4,0.9679579389594437,M27Y05,2022-09-19_10h38.07.152,t1_Paradigm,2021.1.4,60.02283698502957,
R,left,Pretarget,0,59,59,59,2239.18251280643,2241.184566903976,right,0,4,0.44319039235415403,M27Y05,2022-09-19_10h38.07.152,t1_Paradigm,2021.1.4,60.02283698502957,
J,left,Distractor,0,60,60,60,2242.68241239529,2244.6845887185355,left,1,4,0.7671847410983901,M27Y05,2022-09-19_10h38.07.152,t1_Paradigm,2021.1.4,60.02283698502957,
H,right,Target,0,61,61,61,2246.182773297951,2248.169012801298,left,0,4,0.5949860515138425,M27Y05,2022-09-19_10h38.07.152,t1_Paradigm,2021.1.4,60.02283698502957,
Z,left,Distractor,0,62,62,62,2249.682488425451,2251.684547014229,right,0,4,0.8234252453494264,M27Y05,2022-09-19_10h38.07.152,t1_Paradigm,2021.1.4,60.02283698502957,
R,right,Target,0,63,63,63,2253.1826504306446,2255.1823033224864,left,0,4,0.5732818466931349,M27Y05,2022-09-19_10h38.07.152,t1_Paradigm,2021.1.4,60.02283698502957,
J,left,Pretarget,0,0,0,0,2267.6799646732434,2269.6845925681646,left,1,4,1.3512352815887425,M27Y05,2022-09-19_10h38.07.152,t1_Paradigm,2021.1.4,60.02283698502957,
G,left,Pretarget,0,1,1,1,2271.18234727241,2273.1844838161614,left,1,4,0.4274540739334043,M27Y05,2022-09-19_10h38.07.152,t1_Paradigm,2021.1.4,60.02283698502957,
Z,left,Distractor,0,2,2,2,2274.682806661396,2276.6840844172184,left,1,4,0.49598098796741397,M27Y05,2022-09-19_10h38.07.152,t1_Paradigm,2021.1.4,60.02283698502957,
F,left,Distractor,0,3,3,3,2278.1828188518866,2280.1832391029857,left,1,4,0.5807279903910967,M27Y05,2022-09-19_10h38.07.152,t1_Paradigm,2021.1.4,60.02283698502957,
J,right,Target,0,4,4,4,2281.682559964378,2283.681757958466,right,1,4,0.7308057528862264,M27Y05,2022-09-19_10h38.07.152,t1_Paradigm,2021.1.4,60.02283698502957,
G,right,Target,0,5,5,5,2285.182689247731,2287.1848508140683,None,0,4,,M27Y05,2022-09-19_10h38.07.152,t1_Paradigm,2021.1.4,60.02283698502957,
H,left,Distractor,0,6,6,6,2288.6824014880094,2290.6957160693746,None,0,4,,M27Y05,2022-09-19_10h38.07.152,t1_Paradigm,2021.1.4,60.02283698502957,
P,left,Distractor,0,7,7,7,2292.1818493871397,2294.1818432918935,left,1,4,0.7258984391046397,M27Y05,2022-09-19_10h38.07.152,t1_Paradigm,2021.1.4,60.02283698502957,
G,left,Lure,0,8,8,8,2295.682850932124,2297.684662823882,right,0,4,0.679449464645586,M27Y05,2022-09-19_10h38.07.152,t1_Paradigm,2021.1.4,60.02283698502957,
S,left,Distractor,0,9,9,9,2299.1828223807133,2301.1837867126233,left,1,4,0.4440732404636947,M27Y05,2022-09-19_10h38.07.152,t1_Paradigm,2021.1.4,60.02283698502957,
R,left,Pretarget,0,10,10,10,2302.6827479545645,2304.682764636287,left,1,4,0.5452527024390292,M27Y05,2022-09-19_10h38.07.152,t1_Paradigm,2021.1.4,60.02283698502957,
T,left,Pretarget,0,11,11,11,2306.182422660966,2308.18200016425,left,1,4,0.773783645752701,M27Y05,2022-09-19_10h38.07.152,t1_Paradigm,2021.1.4,60.02283698502957,
X,left,Distractor,0,12,12,12,2309.682706891861,2311.6833475341846,left,1,4,0.8087235145576415,M27Y05,2022-09-19_10h38.07.152,t1_Paradigm,2021.1.4,60.02283698502957,
F,left,Pretarget,0,13,13,13,2313.1828012077567,2315.1843962371167,left,1,4,0.8437461503708619,M27Y05,2022-09-19_10h38.07.152,t1_Paradigm,2021.1.4,60.02283698502957,
R,right,Target,0,14,14,14,2316.6825670220296,2318.682750520984,right,1,4,0.4972911448276136,M27Y05,2022-09-19_10h38.07.152,t1_Paradigm,2021.1.4,60.02283698502957,
T,right,Target,0,15,15,15,2320.182303643289,2322.184860758942,right,1,4,0.8189218217466987,M27Y05,2022-09-19_10h38.07.152,t1_Paradigm,2021.1.4,60.02283698502957,
C,left,Distractor,0,16,16,16,2323.681862219233,2325.682056946269,right,0,4,0.6980345080701227,M27Y05,2022-09-19_10h38.07.152,t1_Paradigm,2021.1.4,60.02283698502957,
F,right,Target,0,17,17,17,2327.1824274730006,2329.1847933904446,right,1,4,0.6670241474366776,M27Y05,2022-09-19_10h38.07.152,t1_Paradigm,2021.1.4,60.02283698502957,
M,left,Distractor,0,18,18,18,2330.6827184407466,2332.6847032449805,left,1,4,0.6069847015769483,M27Y05,2022-09-19_10h38.07.152,t1_Paradigm,2021.1.4,60.02283698502957,
N,left,Distractor,0,19,19,19,2334.1826510722494,2336.1848264330893,left,1,4,0.7069403025288921,M27Y05,2022-09-19_10h38.07.152,t1_Paradigm,2021.1.4,60.02283698502957,
R,left,Lure,0,20,20,20,2337.6827678443115,2339.684834453148,right,0,4,0.5510001976144849,M27Y05,2022-09-19_10h38.07.152,t1_Paradigm,2021.1.4,60.02283698502957,
F,right,Target,0,21,21,21,2341.1825705508563,2343.184170392251,right,1,4,0.7800428207010555,M27Y05,2022-09-19_10h38.07.152,t1_Paradigm,2021.1.4,60.02283698502957,
P,left,Distractor,0,22,22,22,2344.682774901963,2346.684728588367,left,1,4,0.3991682877876883,M27Y05,2022-09-19_10h38.07.152,t1_Paradigm,2021.1.4,60.02283698502957,
L,left,Pretarget,0,23,23,23,2348.1828541401464,2350.185309882252,left,1,4,0.45057397959135415,M27Y05,2022-09-19_10h38.07.152,t1_Paradigm,2021.1.4,60.02283698502957,
T,left,Distractor,0,24,24,24,2351.6825375082117,2353.6844536607405,left,1,4,0.8555022738473781,M27Y05,2022-09-19_10h38.07.152,t1_Paradigm,2021.1.4,60.02283698502957,
F,left,Distractor,0,25,25,25,2355.1827447465403,2357.1819231716836,right,0,4,0.6219170892691182,M27Y05,2022-09-19_10h38.07.152,t1_Paradigm,2021.1.4,60.02283698502957,
V,left,Distractor,0,26,26,26,2358.6827915836857,2360.682653638669,left,1,4,0.8013107343049342,M27Y05,2022-09-19_10h38.07.152,t1_Paradigm,2021.1.4,60.02283698502957,
L,right,Target,0,27,27,27,2362.1827893380687,2364.184931656264,right,1,4,0.7709009156988031,M27Y05,2022-09-19_10h38.07.152,t1_Paradigm,2021.1.4,60.02283698502957,
S,left,Pretarget,0,28,28,28,2365.6828948820475,2367.684671806348,left,1,4,0.791451515213339,M27Y05,2022-09-19_10h38.07.152,t1_Paradigm,2021.1.4,60.02283698502957,
W,left,Distractor,0,29,29,29,2369.182819814294,2371.184554392683,left,1,4,0.9872708829498151,M27Y05,2022-09-19_10h38.07.152,t1_Paradigm,2021.1.4,60.02283698502957,
Q,left,Distractor,0,30,30,30,2372.6829292079,2374.6850737717123,left,1,4,1.102781228186359,M27Y05,2022-09-19_10h38.07.152,t1_Paradigm,2021.1.4,60.02283698502957,
L,right,Target,0,31,31,31,2376.1824650068775,2378.1827014382216,left,0,4,0.5974225454774569,M27Y05,2022-09-19_10h38.07.152,t1_Paradigm,2021.1.4,60.02283698502957,
S,right,Target,0,32,32,32,2379.682455703609,2381.6826623003326,right,1,4,0.4730413732395391,M27Y05,2022-09-19_10h38.07.152,t1_Paradigm,2021.1.4,60.02283698502957,
Z,left,Pretarget,0,33,33,33,2383.1830668321145,2385.1829067517356,right,0,4,0.7169134064588434,M27Y05,2022-09-19_10h38.07.152,t1_Paradigm,2021.1.4,60.02283698502957,
F,left,Distractor,0,34,34,34,2386.6828653682296,2388.6824704605187,left,1,4,0.6733368963778048,M27Y05,2022-09-19_10h38.07.152,t1_Paradigm,2021.1.4,60.02283698502957,
V,left,Distractor,0,35,35,35,2390.1831826417692,2392.1827803556025,left,1,4,1.1249955087678245,M27Y05,2022-09-19_10h38.07.152,t1_Paradigm,2021.1.4,60.02283698502957,
M,left,Distractor,0,36,36,36,2393.6827816388122,2395.6827412177154,right,0,4,0.7133816932200716,M27Y05,2022-09-19_10h38.07.152,t1_Paradigm,2021.1.4,60.02283698502957,
Z,right,Target,0,37,37,37,2397.1829112429677,2399.185161350757,right,1,4,0.49092225547065027,M27Y05,2022-09-19_10h38.07.152,t1_Paradigm,2021.1.4,60.02283698502957,
H,left,Pretarget,0,38,38,38,2400.682978611465,2402.682126560383,left,1,4,0.5618048212745634,M27Y05,2022-09-19_10h38.07.152,t1_Paradigm,2021.1.4,60.02283698502957,
L,left,Distractor,0,39,39,39,2404.1828262303407,2406.168075737589,left,1,4,0.9156812687360798,M27Y05,2022-09-19_10h38.07.152,t1_Paradigm,2021.1.4,60.02283698502957,
G,left,Distractor,0,40,40,40,2407.682944606415,2409.683777730157,left,1,4,0.6643114426351531,M27Y05,2022-09-19_10h38.07.152,t1_Paradigm,2021.1.4,60.02283698502957,
K,left,Distractor,0,41,41,41,2411.1826051975113,2413.1847776711293,left,1,4,1.1151940341023874,M27Y05,2022-09-19_10h38.07.152,t1_Paradigm,2021.1.4,60.02283698502957,
H,right,Target,0,42,42,42,2414.682919583829,2416.685052919558,right,1,4,0.9589382596604992,M27Y05,2022-09-19_10h38.07.152,t1_Paradigm,2021.1.4,60.02283698502957,
B,left,Distractor,0,43,43,43,2418.1828557441586,2420.1851690500152,left,1,4,0.7707170959438372,M27Y05,2022-09-19_10h38.07.152,t1_Paradigm,2021.1.4,60.02283698502957,
Z,left,Distractor,0,44,44,44,2421.682844836878,2423.684769330268,right,0,4,0.3910420430747763,M27Y05,2022-09-19_10h38.07.152,t1_Paradigm,2021.1.4,60.02283698502957,
T,left,Pretarget,0,45,45,45,2425.182682510882,2427.1847866535954,left,1,4,0.5710221148328856,M27Y05,2022-09-19_10h38.07.152,t1_Paradigm,2021.1.4,60.02283698502957,
H,right,Target,0,46,46,46,2428.6828624810078,2430.6849040672605,right,1,4,0.47919468340660387,M27Y05,2022-09-19_10h38.07.152,t1_Paradigm,2021.1.4,60.02283698502957,
F,left,Distractor,0,47,47,47,2432.1829080349453,2434.184993250319,left,1,4,0.6271596415226668,M27Y05,2022-09-19_10h38.07.152,t1_Paradigm,2021.1.4,60.02283698502957,
R,left,Distractor,0,48,48,48,2435.6825766461006,2437.6846827136287,left,1,4,0.47129845398922043,M27Y05,2022-09-19_10h38.07.152,t1_Paradigm,2021.1.4,60.02283698502957,
T,right,Target,0,49,49,49,2439.166149960991,2441.176568338604,left,0,4,0.8036307770089479,M27Y05,2022-09-19_10h38.07.152,t1_Paradigm,2021.1.4,60.02283698502957,
H,right,Target,0,50,50,50,2442.682547453085,2444.6852399473373,right,1,4,0.5268585364228784,M27Y05,2022-09-19_10h38.07.152,t1_Paradigm,2021.1.4,60.02283698502957,
Y,left,Pretarget,0,51,51,51,2446.182921187841,2448.185002553586,left,1,4,0.5473151408441481,M27Y05,2022-09-19_10h38.07.152,t1_Paradigm,2021.1.4,60.02283698502957,
H,left,Distractor,0,52,52,52,2449.6828188518866,2451.684524878865,left,1,4,0.7116127889785275,M27Y05,2022-09-19_10h38.07.152,t1_Paradigm,2021.1.4,60.02283698502957,
S,left,Distractor,0,53,53,53,2453.1829872731287,2455.1853470953265,left,1,4,0.7948818549048156,M27Y05,2022-09-19_10h38.07.152,t1_Paradigm,2021.1.4,60.02283698502957,
Q,left,Distractor,0,54,54,54,2456.6829362655517,2458.6848042977253,left,1,4,0.9113334342800954,M27Y05,2022-09-19_10h38.07.152,t1_Paradigm,2021.1.4,60.02283698502957,
Y,right,Target,0,55,55,55,2460.1829760450455,2462.1849569996502,left,0,4,0.6589068851899356,M27Y05,2022-09-19_10h38.07.152,t1_Paradigm,2021.1.4,60.02283698502957,
R,left,Distractor,0,56,56,56,2463.6826408065735,2465.684628177227,left,1,4,0.6477051082001708,M27Y05,2022-09-19_10h38.07.152,t1_Paradigm,2021.1.4,60.02283698502957,
H,left,Pretarget,0,57,57,57,2467.182869538661,2469.185219095183,None,0,4,,M27Y05,2022-09-19_10h38.07.152,t1_Paradigm,2021.1.4,60.02283698502957,
J,left,Distractor,0,58,58,58,2470.682889428408,2472.685006403215,right,0,4,1.4231675127284689,M27Y05,2022-09-19_10h38.07.152,t1_Paradigm,2021.1.4,60.02283698502957,
V,left,Distractor,0,59,59,59,2474.1829397943784,2476.1844713048704,right,0,4,0.6117652984248707,M27Y05,2022-09-19_10h38.07.152,t1_Paradigm,2021.1.4,60.02283698502957,
Y,left,Lure,0,60,60,60,2477.6830100500956,2479.684744307682,right,0,4,0.9832586077682208,M27Y05,2022-09-19_10h38.07.152,t1_Paradigm,2021.1.4,60.02283698502957,
H,right,Target,0,61,61,61,2481.1829590425205,2483.1850789045493,right,1,4,0.747340548392458,M27Y05,2022-09-19_10h38.07.152,t1_Paradigm,2021.1.4,60.02283698502957,
L,left,Distractor,0,62,62,62,2484.6829481352397,2486.682468535704,left,1,4,0.4976969598210417,M27Y05,2022-09-19_10h38.07.152,t1_Paradigm,2021.1.4,60.02283698502957,
P,left,Distractor,0,63,63,63,2488.166184607646,2490.1756649591425,left,1,4,1.1484981316480116,M27Y05,2022-09-19_10h38.07.152,t1_Paradigm,2021.1.4,60.02283698502957,
