Letter,CorrAnswer,Stimulus,nback_run.thisRepN,nback_run.thisTrialN,nback_run.thisN,nback_run.thisIndex,fixcross.started,nback_trial.started,trial_resp.keys,trial_resp.corr,currentlevel,trial_resp.rt,Participant,date,expName,psychopyVersion,frameRate,
H,left,Distractor,0,0,0,0,245.3455717139932,247.28033824074737,None,0,1,,N06L10,2022-11-14_11h59.04.238,t1_Paradigm,2021.1.4,59.98999264848032,
Q,left,Pretarget,0,1,1,1,248.78346381418123,250.7808678847723,left,1,1,0.4647637550242507,N06L10,2022-11-14_11h59.04.238,t1_Paradigm,2021.1.4,59.98999264848032,
Q,right,Target,0,2,2,2,252.27876599037336,254.2784586621019,left,0,1,0.5835377911116666,N06L10,2022-11-14_11h59.04.238,t1_Paradigm,2021.1.4,59.98999264848032,
T,left,Distractor,0,3,3,3,255.77879807056888,257.7803096893731,left,1,1,0.8094045017496683,N06L10,2022-11-14_11h59.04.238,t1_Paradigm,2021.1.4,59.98999264848032,
Q,left,Lure,0,4,4,4,259.2787416094252,261.29506946645415,left,1,1,0.8946085382085585,N06L10,2022-11-14_11h59.04.238,t1_Paradigm,2021.1.4,59.98999264848032,
L,left,Distractor,0,5,5,5,262.77868675229,264.7805156442282,left,1,1,1.2169853085542854,N06L10,2022-11-14_11h59.04.238,t1_Paradigm,2021.1.4,59.98999264848032,
V,left,Pretarget,0,6,6,6,266.2786492184623,268.2808454286351,left,1,1,0.8366989735623065,N06L10,2022-11-14_11h59.04.238,t1_Paradigm,2021.1.4,59.98999264848032,
V,right,Target,0,7,7,7,269.7787207572983,271.7788468324652,right,1,1,0.5385555827888311,N06L10,2022-11-14_11h59.04.238,t1_Paradigm,2021.1.4,59.98999264848032,
K,left,Distractor,0,8,8,8,273.2787791432529,275.28031738862046,left,1,1,0.4931104572460754,N06L10,2022-11-14_11h59.04.238,t1_Paradigm,2021.1.4,59.98999264848032,
G,left,Pretarget,0,9,9,9,276.77836562953416,278.7804158748204,left,1,1,0.913305517664412,N06L10,2022-11-14_11h59.04.238,t1_Paradigm,2021.1.4,59.98999264848032,
G,right,Target,0,10,10,10,280.27868161945844,282.27877272721344,right,1,1,0.75881692089024,N06L10,2022-11-14_11h59.04.238,t1_Paradigm,2021.1.4,59.98999264848032,
G,right,Target,0,11,11,11,283.77871177484303,285.77864408563073,right,1,1,0.49095434731680143,N06L10,2022-11-14_11h59.04.238,t1_Paradigm,2021.1.4,59.98999264848032,
P,left,Pretarget,0,12,12,12,287.2786838650736,289.2807350727635,left,1,1,0.5888579707097961,N06L10,2022-11-14_11h59.04.238,t1_Paradigm,2021.1.4,59.98999264848032,
P,right,Target,0,13,13,13,290.77877016079765,292.7786094390194,right,1,1,0.9470667152581882,N06L10,2022-11-14_11h59.04.238,t1_Paradigm,2021.1.4,59.98999264848032,
G,left,Lure,0,14,14,14,294.2786007773666,296.2798438849368,left,1,1,0.7897098282155639,N06L10,2022-11-14_11h59.04.238,t1_Paradigm,2021.1.4,59.98999264848032,
Y,left,Distractor,0,15,15,15,297.7786052685933,299.78054227078974,left,1,1,0.7450532338771154,N06L10,2022-11-14_11h59.04.238,t1_Paradigm,2021.1.4,59.98999264848032,
B,left,Distractor,0,16,16,16,301.27873423098026,303.28024937860573,left,1,1,0.6532512636385945,N06L10,2022-11-14_11h59.04.238,t1_Paradigm,2021.1.4,59.98999264848032,
T,left,Pretarget,0,17,17,17,304.7785083864037,306.7806968973309,left,1,1,0.7528089419047319,N06L10,2022-11-14_11h59.04.238,t1_Paradigm,2021.1.4,59.98999264848032,
T,right,Target,0,18,18,18,308.2787525166914,310.2785969277429,right,1,1,0.7430071590169973,N06L10,2022-11-14_11h59.04.238,t1_Paradigm,2021.1.4,59.98999264848032,
S,left,Distractor,0,19,19,19,311.7787807472632,313.7802224312418,left,1,1,0.6816566726156452,N06L10,2022-11-14_11h59.04.238,t1_Paradigm,2021.1.4,59.98999264848032,
T,left,Lure,0,20,20,20,315.27879614575613,317.2797418699156,left,1,1,0.6218030481322785,N06L10,2022-11-14_11h59.04.238,t1_Paradigm,2021.1.4,59.98999264848032,
J,left,Distractor,0,21,21,21,318.778680657053,320.78026349389256,left,1,1,0.6893539946904639,N06L10,2022-11-14_11h59.04.238,t1_Paradigm,2021.1.4,59.98999264848032,
P,left,Distractor,0,22,22,22,322.2788526068998,324.28060193995225,left,1,1,0.5328956739213027,N06L10,2022-11-14_11h59.04.238,t1_Paradigm,2021.1.4,59.98999264848032,
F,left,Distractor,0,23,23,23,325.7788753838395,327.7804851680412,left,1,1,0.6813345874561492,N06L10,2022-11-14_11h59.04.238,t1_Paradigm,2021.1.4,59.98999264848032,
L,left,Distractor,0,24,24,24,329.2786309327512,331.2796992032563,left,1,1,0.7821257492341829,N06L10,2022-11-14_11h59.04.238,t1_Paradigm,2021.1.4,59.98999264848032,
W,left,Pretarget,0,25,25,25,332.7785831332585,334.78037545377447,left,1,1,0.4972529728711379,N06L10,2022-11-14_11h59.04.238,t1_Paradigm,2021.1.4,59.98999264848032,
W,right,Target,0,26,26,26,336.2784493588442,338.2787361557912,right,1,1,0.822745050987578,N06L10,2022-11-14_11h59.04.238,t1_Paradigm,2021.1.4,59.98999264848032,
V,left,Distractor,0,27,27,27,339.7787457798495,341.7789860605135,left,1,1,0.6505299006676069,N06L10,2022-11-14_11h59.04.238,t1_Paradigm,2021.1.4,59.98999264848032,
W,left,Lure,0,28,28,28,343.2786889979034,345.28019740868876,left,1,1,0.6853580855567998,N06L10,2022-11-14_11h59.04.238,t1_Paradigm,2021.1.4,59.98999264848032,
R,left,Pretarget,0,29,29,29,346.7786370279882,348.78029236606744,left,1,1,0.4974553989050037,N06L10,2022-11-14_11h59.04.238,t1_Paradigm,2021.1.4,59.98999264848032,
R,right,Target,0,30,30,30,350.27876631117397,352.27846219092316,right,1,1,0.6152070391653979,N06L10,2022-11-14_11h59.04.238,t1_Paradigm,2021.1.4,59.98999264848032,
G,left,Distractor,0,31,31,31,353.77876983999704,355.7801589124556,left,1,1,0.7617474467388092,N06L10,2022-11-14_11h59.04.238,t1_Paradigm,2021.1.4,59.98999264848032,
R,left,Lure,0,32,32,32,357.2786739202129,359.2802282056764,left,1,1,0.7172714638963953,N06L10,2022-11-14_11h59.04.238,t1_Paradigm,2021.1.4,59.98999264848032,
S,left,Distractor,0,33,33,33,360.77855201547027,362.7789087472429,left,1,1,0.6108075611737149,N06L10,2022-11-14_11h59.04.238,t1_Paradigm,2021.1.4,59.98999264848032,
R,left,Lure,0,34,34,34,364.2786081558115,366.2796036042728,left,1,1,0.5979671421810053,N06L10,2022-11-14_11h59.04.238,t1_Paradigm,2021.1.4,59.98999264848032,
P,left,Pretarget,0,35,35,35,367.77875893272903,369.7786893187058,left,1,1,0.6027968155922281,N06L10,2022-11-14_11h59.04.238,t1_Paradigm,2021.1.4,59.98999264848032,
P,right,Target,0,36,36,36,371.2787586119284,373.27875508310717,right,1,1,0.7026942231277644,N06L10,2022-11-14_11h59.04.238,t1_Paradigm,2021.1.4,59.98999264848032,
Y,left,Pretarget,0,37,37,37,374.7787088876248,376.78062952892105,left,1,1,0.48097804816461576,N06L10,2022-11-14_11h59.04.238,t1_Paradigm,2021.1.4,59.98999264848032,
Y,right,Target,0,38,38,38,378.27872556932743,380.2786533888866,right,1,1,0.7429462066447741,N06L10,2022-11-14_11h59.04.238,t1_Paradigm,2021.1.4,59.98999264848032,
J,left,Distractor,0,39,39,39,381.7787432134337,383.7799975490725,left,1,1,0.6173823972112586,N06L10,2022-11-14_11h59.04.238,t1_Paradigm,2021.1.4,59.98999264848032,
Y,left,Lure,0,40,40,40,385.2786963763483,387.28004502776093,left,1,1,0.6055582788085303,N06L10,2022-11-14_11h59.04.238,t1_Paradigm,2021.1.4,59.98999264848032,
T,left,Distractor,0,41,41,41,388.7786646169552,390.7797845365749,left,1,1,0.9139009260907187,N06L10,2022-11-14_11h59.04.238,t1_Paradigm,2021.1.4,59.98999264848032,
V,left,Distractor,0,42,42,42,392.2786793738451,394.2790900003456,left,1,1,0.8544428504155803,N06L10,2022-11-14_11h59.04.238,t1_Paradigm,2021.1.4,59.98999264848032,
N,left,Pretarget,0,43,43,43,395.77852153928507,397.7805679349458,left,1,1,0.6489435350067652,N06L10,2022-11-14_11h59.04.238,t1_Paradigm,2021.1.4,59.98999264848032,
N,right,Target,0,44,44,44,399.27875059187863,401.2787515542841,right,1,1,0.7027240577081102,N06L10,2022-11-14_11h59.04.238,t1_Paradigm,2021.1.4,59.98999264848032,
N,right,Target,0,45,45,45,402.7787406470179,404.7787444966416,right,1,1,0.8831289611007378,N06L10,2022-11-14_11h59.04.238,t1_Paradigm,2021.1.4,59.98999264848032,
X,left,Distractor,0,46,46,46,406.27869284752705,408.2806988221437,left,1,1,0.91675317625959,N06L10,2022-11-14_11h59.04.238,t1_Paradigm,2021.1.4,59.98999264848032,
Z,left,Distractor,0,47,47,47,409.7784236946882,411.78099556394955,left,1,1,0.6484793345807702,N06L10,2022-11-14_11h59.04.238,t1_Paradigm,2021.1.4,59.98999264848032,
H,left,Pretarget,0,48,48,48,413.2787461006519,415.2912381287224,left,1,1,1.0583769730910717,N06L10,2022-11-14_11h59.04.238,t1_Paradigm,2021.1.4,59.98999264848032,
H,right,Target,0,49,49,49,416.77865691770785,418.7784997247509,left,0,1,0.5471845137344644,N06L10,2022-11-14_11h59.04.238,t1_Paradigm,2021.1.4,59.98999264848032,
K,left,Distractor,0,50,50,50,420.27870920842724,422.28057018055915,left,1,1,0.69293189887685,N06L10,2022-11-14_11h59.04.238,t1_Paradigm,2021.1.4,59.98999264848032,
V,left,Pretarget,0,51,51,51,423.7786697497868,425.77952276218093,left,1,1,0.6339784446754493,N06L10,2022-11-14_11h59.04.238,t1_Paradigm,2021.1.4,59.98999264848032,
V,right,Target,0,52,52,52,427.27862387510686,429.27859051170344,right,1,1,0.6549117345512059,N06L10,2022-11-14_11h59.04.238,t1_Paradigm,2021.1.4,59.98999264848032,
R,left,Distractor,0,53,53,53,430.7787088876248,432.77983073205723,left,1,1,0.5458371455297311,N06L10,2022-11-14_11h59.04.238,t1_Paradigm,2021.1.4,59.98999264848032,
V,left,Lure,0,54,54,54,434.27863766959126,436.2780470731941,left,1,1,0.5514563125489076,N06L10,2022-11-14_11h59.04.238,t1_Paradigm,2021.1.4,59.98999264848032,
Y,left,Distractor,0,55,55,55,437.77867616582625,439.7797861405852,left,1,1,0.8897949048950977,N06L10,2022-11-14_11h59.04.238,t1_Paradigm,2021.1.4,59.98999264848032,
Q,left,Distractor,0,56,56,56,441.2786405568095,443.2802500202106,left,1,1,1.08518960037145,N06L10,2022-11-14_11h59.04.238,t1_Paradigm,2021.1.4,59.98999264848032,
Z,left,Pretarget,0,57,57,57,444.7952513611617,446.7794117647045,left,1,1,0.5302368673310411,N06L10,2022-11-14_11h59.04.238,t1_Paradigm,2021.1.4,59.98999264848032,
Z,right,Target,0,58,58,58,448.2787419302258,450.2787210780989,left,0,1,0.5027399694863561,N06L10,2022-11-14_11h59.04.238,t1_Paradigm,2021.1.4,59.98999264848032,
B,left,Distractor,0,59,59,59,451.77873711819666,453.77976496765586,left,1,1,0.8098898751050001,N06L10,2022-11-14_11h59.04.238,t1_Paradigm,2021.1.4,59.98999264848032,
S,left,Pretarget,0,60,60,60,455.27868963950823,457.2802047871337,left,1,1,0.6532955343081994,N06L10,2022-11-14_11h59.04.238,t1_Paradigm,2021.1.4,59.98999264848032,
S,right,Target,0,61,61,61,458.77874545904706,460.77853822098587,right,1,1,0.5467273709509755,N06L10,2022-11-14_11h59.04.238,t1_Paradigm,2021.1.4,59.98999264848032,
T,left,Distractor,0,62,62,62,462.27852153928507,464.27956831605843,left,1,1,0.8379109633424378,N06L10,2022-11-14_11h59.04.238,t1_Paradigm,2021.1.4,59.98999264848032,
D,left,Distractor,0,63,63,63,465.778738722207,467.7804296693048,left,1,1,0.6172011441085488,N06L10,2022-11-14_11h59.04.238,t1_Paradigm,2021.1.4,59.98999264848032,
R,left,Distractor,0,0,0,0,477.6095683032272,479.5962210171474,right,0,1,1.1534058901797835,N06L10,2022-11-14_11h59.04.238,t1_Paradigm,2021.1.4,59.98999264848032,
V,left,Distractor,0,1,1,1,481.09525187444524,483.097041307743,left,1,1,1.012631256118766,N06L10,2022-11-14_11h59.04.238,t1_Paradigm,2021.1.4,59.98999264848032,
N,left,Pretarget,0,2,2,2,484.5954623205271,486.5964587313938,left,1,1,0.5689339237796958,N06L10,2022-11-14_11h59.04.238,t1_Paradigm,2021.1.4,59.98999264848032,
N,right,Target,0,3,3,3,488.09527016015636,490.095143764187,left,0,1,0.7343240125410375,N06L10,2022-11-14_11h59.04.238,t1_Paradigm,2021.1.4,59.98999264848032,
S,left,Distractor,0,4,4,4,491.5953538894664,493.59483066148096,left,1,1,0.658786701347708,N06L10,2022-11-14_11h59.04.238,t1_Paradigm,2021.1.4,59.98999264848032,
N,left,Lure,0,5,5,5,495.09537249598,497.0968189919877,left,1,1,1.0288333587832312,N06L10,2022-11-14_11h59.04.238,t1_Paradigm,2021.1.4,59.98999264848032,
Z,left,Distractor,0,6,6,6,498.5952711225618,500.596898230071,left,1,1,0.840700977931192,N06L10,2022-11-14_11h59.04.238,t1_Paradigm,2021.1.4,59.98999264848032,
L,left,Pretarget,0,7,7,7,502.0953269421025,504.095378591217,left,1,1,0.6220705969608389,N06L10,2022-11-14_11h59.04.238,t1_Paradigm,2021.1.4,59.98999264848032,
L,right,Target,0,8,8,8,505.5945483557607,507.5954847766643,right,1,1,0.6900597589865356,N06L10,2022-11-14_11h59.04.238,t1_Paradigm,2021.1.4,59.98999264848032,
H,left,Distractor,0,9,9,9,509.09543729797406,511.0963255985844,left,1,1,0.5812446987474686,N06L10,2022-11-14_11h59.04.238,t1_Paradigm,2021.1.4,59.98999264848032,
L,left,Lure,0,10,10,10,512.5952752929879,514.5963560747696,left,1,1,0.5370721945546393,N06L10,2022-11-14_11h59.04.238,t1_Paradigm,2021.1.4,59.98999264848032,
X,left,Pretarget,0,11,11,11,516.0951463306028,518.0970037739135,left,1,1,0.8765021551462269,N06L10,2022-11-14_11h59.04.238,t1_Paradigm,2021.1.4,59.98999264848032,
X,right,Target,0,12,12,12,519.5953269421025,521.5953740999903,right,1,1,0.7381511798466818,N06L10,2022-11-14_11h59.04.238,t1_Paradigm,2021.1.4,59.98999264848032,
X,right,Target,0,13,13,13,523.0950638845006,525.095209849389,right,1,1,0.6304345454955183,N06L10,2022-11-14_11h59.04.238,t1_Paradigm,2021.1.4,59.98999264848032,
R,left,Distractor,0,14,14,14,526.5952842754432,528.5964211975661,left,1,1,0.6652550311373489,N06L10,2022-11-14_11h59.04.238,t1_Paradigm,2021.1.4,59.98999264848032,
T,left,Distractor,0,15,15,15,530.0950706213407,532.0969120245554,left,1,1,0.7325538273598795,N06L10,2022-11-14_11h59.04.238,t1_Paradigm,2021.1.4,59.98999264848032,
V,left,Pretarget,0,16,16,16,533.5953657591381,535.5970210972191,left,1,1,0.5605600303879328,N06L10,2022-11-14_11h59.04.238,t1_Paradigm,2021.1.4,59.98999264848032,
V,right,Target,0,17,17,17,537.0952955035118,539.0953708919697,right,1,1,0.8540453767964209,N06L10,2022-11-14_11h59.04.238,t1_Paradigm,2021.1.4,59.98999264848032,
N,left,Distractor,0,18,18,18,540.5953516438531,542.5968292576508,left,1,1,0.8567718725989835,N06L10,2022-11-14_11h59.04.238,t1_Paradigm,2021.1.4,59.98999264848032,
B,left,Distractor,0,19,19,19,544.0952210774576,546.0966617990307,left,1,1,0.6847953989290545,N06L10,2022-11-14_11h59.04.238,t1_Paradigm,2021.1.4,59.98999264848032,
V,left,Lure,0,20,20,20,547.5952836338383,549.5964186311503,left,1,1,0.8972288485656463,N06L10,2022-11-14_11h59.04.238,t1_Paradigm,2021.1.4,59.98999264848032,
P,left,Distractor,0,21,21,21,551.0953519646555,553.0962399444616,left,1,1,1.1572308118720684,N06L10,2022-11-14_11h59.04.238,t1_Paradigm,2021.1.4,59.98999264848032,
K,left,Pretarget,0,22,22,22,554.5951966965094,556.5957837640835,left,1,1,0.6016098483632959,N06L10,2022-11-14_11h59.04.238,t1_Paradigm,2021.1.4,59.98999264848032,
K,right,Target,0,23,23,23,558.0953683255539,560.0952496288319,right,1,1,0.654273338661369,N06L10,2022-11-14_11h59.04.238,t1_Paradigm,2021.1.4,59.98999264848032,
J,left,Pretarget,0,24,24,24,561.5952550824641,563.5971083553504,left,1,1,0.6724531853724329,N06L10,2022-11-14_11h59.04.238,t1_Paradigm,2021.1.4,59.98999264848032,
J,right,Target,0,25,25,25,565.09514440579,567.0952887666699,right,1,1,0.6463235454521055,N06L10,2022-11-14_11h59.04.238,t1_Paradigm,2021.1.4,59.98999264848032,
H,left,Distractor,0,26,26,26,568.5952708017612,570.5961427414695,left,1,1,0.585324657991805,N06L10,2022-11-14_11h59.04.238,t1_Paradigm,2021.1.4,59.98999264848032,
J,left,Lure,0,27,27,27,572.0954360147662,574.0963653780254,left,1,1,0.9411928314875695,N06L10,2022-11-14_11h59.04.238,t1_Paradigm,2021.1.4,59.98999264848032,
V,left,Distractor,0,28,28,28,575.5952576488799,577.5967275634321,left,1,1,0.7365487740880781,N06L10,2022-11-14_11h59.04.238,t1_Paradigm,2021.1.4,59.98999264848032,
Z,left,Pretarget,0,29,29,29,579.0949439045708,581.096011533471,left,1,1,0.7735446177775884,N06L10,2022-11-14_11h59.04.238,t1_Paradigm,2021.1.4,59.98999264848032,
Z,right,Target,0,30,30,30,582.5953160348363,584.595339453379,right,1,1,0.9541660624890937,N06L10,2022-11-14_11h59.04.238,t1_Paradigm,2021.1.4,59.98999264848032,
T,left,Distractor,0,31,31,31,586.0952566864744,588.0958229019234,left,1,1,0.6216647824894608,N06L10,2022-11-14_11h59.04.238,t1_Paradigm,2021.1.4,59.98999264848032,
Z,left,Lure,0,32,32,32,589.5954183706599,591.5954931175147,left,1,1,0.8663506981283717,N06L10,2022-11-14_11h59.04.238,t1_Paradigm,2021.1.4,59.98999264848032,
F,left,Distractor,0,33,33,33,593.0953230924788,595.0972190320244,left,1,1,0.5964305008237716,N06L10,2022-11-14_11h59.04.238,t1_Paradigm,2021.1.4,59.98999264848032,
Y,left,Pretarget,0,34,34,34,596.5952797842147,598.5956355535818,left,1,1,0.7620105043388321,N06L10,2022-11-14_11h59.04.238,t1_Paradigm,2021.1.4,59.98999264848032,
Y,right,Target,0,35,35,35,600.0953076939859,602.0952801050171,right,1,1,0.5582736748619936,N06L10,2022-11-14_11h59.04.238,t1_Paradigm,2021.1.4,59.98999264848032,
Y,right,Target,0,36,36,36,603.5953420197948,605.595019613831,right,1,1,0.5784463433064957,N06L10,2022-11-14_11h59.04.238,t1_Paradigm,2021.1.4,59.98999264848032,
W,left,Distractor,0,37,37,37,607.0953477942294,609.0967926862286,left,1,1,0.7408536155016918,N06L10,2022-11-14_11h59.04.238,t1_Paradigm,2021.1.4,59.98999264848032,
Q,left,Distractor,0,38,38,38,610.595242250387,612.5971372275271,left,1,1,0.6162704976413806,N06L10,2022-11-14_11h59.04.238,t1_Paradigm,2021.1.4,59.98999264848032,
P,left,Pretarget,0,39,39,39,614.0950237842571,616.0956381199976,left,1,1,0.7017552358083776,N06L10,2022-11-14_11h59.04.238,t1_Paradigm,2021.1.4,59.98999264848032,
P,right,Target,0,40,40,40,617.5950420699683,619.5950378995421,right,1,1,0.690496370447363,N06L10,2022-11-14_11h59.04.238,t1_Paradigm,2021.1.4,59.98999264848032,
J,left,Distractor,0,41,41,41,621.0952502704349,623.0963958542125,left,1,1,0.5811571198137244,N06L10,2022-11-14_11h59.04.238,t1_Paradigm,2021.1.4,59.98999264848032,
P,left,Lure,0,42,42,42,624.5952573280792,626.5963114832975,right,0,1,0.5371796632098267,N06L10,2022-11-14_11h59.04.238,t1_Paradigm,2021.1.4,59.98999264848032,
L,left,Distractor,0,43,43,43,628.0953378493687,630.0966338892613,left,1,1,1.27683508341579,N06L10,2022-11-14_11h59.04.238,t1_Paradigm,2021.1.4,59.98999264848032,
Z,left,Distractor,0,44,44,44,631.5954125962235,633.5949817592009,left,1,1,0.6745852351541544,N06L10,2022-11-14_11h59.04.238,t1_Paradigm,2021.1.4,59.98999264848032,
F,left,Pretarget,0,45,45,45,635.0950978895071,637.0967307714509,left,1,1,0.628921964284018,N06L10,2022-11-14_11h59.04.238,t1_Paradigm,2021.1.4,59.98999264848032,
F,right,Target,0,46,46,46,638.5952502704349,640.5952621401084,right,1,1,1.3542599933025485,N06L10,2022-11-14_11h59.04.238,t1_Paradigm,2021.1.4,59.98999264848032,
G,left,Pretarget,0,47,47,47,642.095279463414,644.0954350523607,left,1,1,0.8623124431378528,N06L10,2022-11-14_11h59.04.238,t1_Paradigm,2021.1.4,59.98999264848032,
G,right,Target,0,48,48,48,645.5952637441169,647.5952531576531,right,1,1,0.6903587464094016,N06L10,2022-11-14_11h59.04.238,t1_Paradigm,2021.1.4,59.98999264848032,
V,left,Distractor,0,49,49,49,649.0952865210566,651.0965039644707,left,1,1,0.548912994659986,N06L10,2022-11-14_11h59.04.238,t1_Paradigm,2021.1.4,59.98999264848032,
G,left,Lure,0,50,50,50,652.5952521952477,654.5969351222957,left,1,1,0.8566239828978723,N06L10,2022-11-14_11h59.04.238,t1_Paradigm,2021.1.4,59.98999264848032,
Q,left,Pretarget,0,51,51,51,656.095132215316,658.0972700395359,left,1,1,0.5882949632814416,N06L10,2022-11-14_11h59.04.238,t1_Paradigm,2021.1.4,59.98999264848032,
Q,right,Target,0,52,52,52,659.595287483462,661.6120384782698,right,1,1,0.7533459643746028,N06L10,2022-11-14_11h59.04.238,t1_Paradigm,2021.1.4,59.98999264848032,
Y,left,Distractor,0,53,53,53,663.0950439947792,665.0961318342033,left,1,1,1.061529814691312,N06L10,2022-11-14_11h59.04.238,t1_Paradigm,2021.1.4,59.98999264848032,
V,left,Distractor,0,54,54,54,666.5953150724308,668.5959823404937,left,1,1,0.5854539411793667,N06L10,2022-11-14_11h59.04.238,t1_Paradigm,2021.1.4,59.98999264848032,
B,left,Distractor,0,55,55,55,670.0950779997856,672.0965514431591,left,1,1,0.46098567041917704,N06L10,2022-11-14_11h59.04.238,t1_Paradigm,2021.1.4,59.98999264848032,
J,left,Pretarget,0,56,56,56,673.5952666313351,675.5963801349153,left,1,1,0.5454226694055251,N06L10,2022-11-14_11h59.04.238,t1_Paradigm,2021.1.4,59.98999264848032,
J,right,Target,0,57,57,57,677.0953214884685,679.0954267115103,right,1,1,0.5179437364695332,N06L10,2022-11-14_11h59.04.238,t1_Paradigm,2021.1.4,59.98999264848032,
H,left,Distractor,0,58,58,58,680.5951505010271,682.5959108016577,left,1,1,0.6014715827204782,N06L10,2022-11-14_11h59.04.238,t1_Paradigm,2021.1.4,59.98999264848032,
J,left,Lure,0,59,59,59,684.0953965561257,686.0953407365869,left,1,1,0.8142704257825244,N06L10,2022-11-14_11h59.04.238,t1_Paradigm,2021.1.4,59.98999264848032,
D,left,Pretarget,0,60,60,60,687.5953173180442,689.5971381899326,left,1,1,0.6563864611325698,N06L10,2022-11-14_11h59.04.238,t1_Paradigm,2021.1.4,59.98999264848032,
D,right,Target,0,61,61,61,691.0951270824862,693.0952358343475,left,0,1,0.5021371826151153,N06L10,2022-11-14_11h59.04.238,t1_Paradigm,2021.1.4,59.98999264848032,
R,left,Distractor,0,62,62,62,694.594916315602,696.5960529169242,left,1,1,0.921401917368712,N06L10,2022-11-14_11h59.04.238,t1_Paradigm,2021.1.4,59.98999264848032,
F,left,Distractor,0,63,63,63,698.0953208468654,700.0964086862896,left,1,1,0.8770674081879406,N06L10,2022-11-14_11h59.04.238,t1_Paradigm,2021.1.4,59.98999264848032,
F,left,Distractor,0,0,0,0,800.5367488261854,802.5284387723805,left,1,2,1.1651847755092604,N06L10,2022-11-14_11h59.04.238,t1_Paradigm,2021.1.4,59.98999264848032,
N,left,Pretarget,0,1,1,1,804.028548486649,806.0287435342361,left,1,2,0.7526652226297301,N06L10,2022-11-14_11h59.04.238,t1_Paradigm,2021.1.4,59.98999264848032,
V,left,Distractor,0,2,2,2,807.5285908325059,809.5307264111107,left,1,2,0.978841827956785,N06L10,2022-11-14_11h59.04.238,t1_Paradigm,2021.1.4,59.98999264848032,
N,right,Target,0,3,3,3,811.0284795142288,813.0293809677187,right,1,2,1.3999954446135234,N06L10,2022-11-14_11h59.04.238,t1_Paradigm,2021.1.4,59.98999264848032,
N,left,Lure,0,4,4,4,814.5282944115006,816.5288590229393,left,1,2,1.3885598173746985,N06L10,2022-11-14_11h59.04.238,t1_Paradigm,2021.1.4,59.98999264848032,
X,left,Distractor,0,5,5,5,818.0285892284955,820.0303667921216,None,0,2,,N06L10,2022-11-14_11h59.04.238,t1_Paradigm,2021.1.4,59.98999264848032,
G,left,Pretarget,0,6,6,6,821.5286161758613,823.5303180302235,left,1,2,1.043077927926788,N06L10,2022-11-14_11h59.04.238,t1_Paradigm,2021.1.4,59.98999264848032,
H,left,Pretarget,0,7,7,7,825.0283758951973,827.0289934389584,left,1,2,0.7126410085002135,N06L10,2022-11-14_11h59.04.238,t1_Paradigm,2021.1.4,59.98999264848032,
G,right,Target,0,8,8,8,828.5286918851216,830.5303786617933,right,1,2,0.3951753952605941,N06L10,2022-11-14_11h59.04.238,t1_Paradigm,2021.1.4,59.98999264848032,
H,right,Target,0,9,9,9,832.0286007773666,834.0305024913469,left,0,2,1.0709790362343483,N06L10,2022-11-14_11h59.04.238,t1_Paradigm,2021.1.4,59.98999264848032,
T,left,Pretarget,0,10,10,10,835.5283309829247,837.5285840956658,left,1,2,1.4448438785220787,N06L10,2022-11-14_11h59.04.238,t1_Paradigm,2021.1.4,59.98999264848032,
K,left,Distractor,0,11,11,11,839.028509990414,841.0299484663738,left,1,2,1.2395742573116877,N06L10,2022-11-14_11h59.04.238,t1_Paradigm,2021.1.4,59.98999264848032,
T,right,Target,0,12,12,12,842.5286087974164,844.528895915164,right,1,2,0.9885229893097858,N06L10,2022-11-14_11h59.04.238,t1_Paradigm,2021.1.4,59.98999264848032,
T,left,Lure,0,13,13,13,846.0286068726036,848.0282716345628,left,1,2,1.2335178372304654,N06L10,2022-11-14_11h59.04.238,t1_Paradigm,2021.1.4,59.98999264848032,
J,left,Distractor,0,14,14,14,849.5285006871582,851.5287765768371,left,1,2,0.6767044528587576,N06L10,2022-11-14_11h59.04.238,t1_Paradigm,2021.1.4,59.98999264848032,
Q,left,Pretarget,0,15,15,15,853.0285311633434,855.0305461204134,left,1,2,0.5987951320221327,N06L10,2022-11-14_11h59.04.238,t1_Paradigm,2021.1.4,59.98999264848032,
M,left,Distractor,0,16,16,16,856.5282956947085,858.5312255789504,left,1,2,0.6981048303787247,N06L10,2022-11-14_11h59.04.238,t1_Paradigm,2021.1.4,59.98999264848032,
Q,right,Target,0,17,17,17,860.028576075616,862.0297460403417,right,1,2,0.8958340016706643,N06L10,2022-11-14_11h59.04.238,t1_Paradigm,2021.1.4,59.98999264848032,
R,left,Distractor,0,18,18,18,863.528523464096,865.5286575593127,left,1,2,0.692834054283594,N06L10,2022-11-14_11h59.04.238,t1_Paradigm,2021.1.4,59.98999264848032,
W,left,Distractor,0,19,19,19,867.0284884966823,869.0290399552414,left,1,2,0.6805450938463764,N06L10,2022-11-14_11h59.04.238,t1_Paradigm,2021.1.4,59.98999264848032,
C,left,Pretarget,0,20,20,20,870.5285532986782,872.5300832031935,left,1,2,0.7474185066803329,N06L10,2022-11-14_11h59.04.238,t1_Paradigm,2021.1.4,59.98999264848032,
T,left,Distractor,0,21,21,21,874.0286517848781,876.0301435139609,left,1,2,0.5912729678166215,N06L10,2022-11-14_11h59.04.238,t1_Paradigm,2021.1.4,59.98999264848032,
C,right,Target,0,22,22,22,877.5285022911667,879.5291830329134,right,1,2,0.6442514856335038,N06L10,2022-11-14_11h59.04.238,t1_Paradigm,2021.1.4,59.98999264848032,
F,left,Pretarget,0,23,23,23,881.0284852886634,883.0302647771005,left,1,2,0.5831278062141791,N06L10,2022-11-14_11h59.04.238,t1_Paradigm,2021.1.4,59.98999264848032,
C,right,Target,0,24,24,24,884.5285763964184,886.5287541206999,right,1,2,0.748793784654481,N06L10,2022-11-14_11h59.04.238,t1_Paradigm,2021.1.4,59.98999264848032,
F,right,Target,0,25,25,25,888.0285144816407,890.0308486366557,right,1,2,0.6226506068942399,N06L10,2022-11-14_11h59.04.238,t1_Paradigm,2021.1.4,59.98999264848032,
H,left,Distractor,0,26,26,26,891.5283361157544,893.5300017194986,left,1,2,0.7712624326795776,N06L10,2022-11-14_11h59.04.238,t1_Paradigm,2021.1.4,59.98999264848032,
H,left,Lure,0,27,27,27,895.0285330881543,897.0285112736219,left,1,2,1.4168840634574735,N06L10,2022-11-14_11h59.04.238,t1_Paradigm,2021.1.4,59.98999264848032,
P,left,Distractor,0,28,28,28,898.5284872134744,900.5302933284729,left,1,2,1.3711447625246365,N06L10,2022-11-14_11h59.04.238,t1_Paradigm,2021.1.4,59.98999264848032,
G,left,Pretarget,0,29,29,29,902.0282809378186,904.0291198349278,left,1,2,0.6403601579368114,N06L10,2022-11-14_11h59.04.238,t1_Paradigm,2021.1.4,59.98999264848032,
K,left,Distractor,0,30,30,30,905.5286607673315,907.5298509425793,left,1,2,0.6438222526194295,N06L10,2022-11-14_11h59.04.238,t1_Paradigm,2021.1.4,59.98999264848032,
G,right,Target,0,31,31,31,909.0285532986782,911.0299831129851,right,1,2,0.45552048833815206,N06L10,2022-11-14_11h59.04.238,t1_Paradigm,2021.1.4,59.98999264848032,
M,left,Pretarget,0,32,32,32,912.5286659001631,914.529142932668,left,1,2,1.4042560153575323,N06L10,2022-11-14_11h59.04.238,t1_Paradigm,2021.1.4,59.98999264848032,
B,left,Distractor,0,33,33,33,916.0283444566066,918.0295003060437,left,1,2,0.7678628943776857,N06L10,2022-11-14_11h59.04.238,t1_Paradigm,2021.1.4,59.98999264848032,
M,right,Target,0,34,34,34,919.528426261104,921.5302596442689,left,0,2,0.9792909506904834,N06L10,2022-11-14_11h59.04.238,t1_Paradigm,2021.1.4,59.98999264848032,
M,left,Lure,0,35,35,35,923.0284785518234,925.0286363863834,left,1,2,0.9367997695353552,N06L10,2022-11-14_11h59.04.238,t1_Paradigm,2021.1.4,59.98999264848032,
T,left,Distractor,0,36,36,36,926.5285513738654,928.5299818297772,left,1,2,0.6834146673227224,N06L10,2022-11-14_11h59.04.238,t1_Paradigm,2021.1.4,59.98999264848032,
F,left,Distractor,0,37,37,37,930.0285927573186,932.0304495590244,left,1,2,0.8470031323104195,N06L10,2022-11-14_11h59.04.238,t1_Paradigm,2021.1.4,59.98999264848032,
X,left,Distractor,0,38,38,38,933.5284676445553,935.5286594841236,left,1,2,0.9808766747464688,N06L10,2022-11-14_11h59.04.238,t1_Paradigm,2021.1.4,59.98999264848032,
C,left,Distractor,0,39,39,39,937.0284990831478,939.028750271078,left,1,2,0.6006057382492145,N06L10,2022-11-14_11h59.04.238,t1_Paradigm,2021.1.4,59.98999264848032,
R,left,Distractor,0,40,40,40,940.5284695693681,942.5307267319131,left,1,2,0.7628198876664101,N06L10,2022-11-14_11h59.04.238,t1_Paradigm,2021.1.4,59.98999264848032,
B,left,Pretarget,0,41,41,41,944.0283181508457,946.0302147319944,left,1,2,0.6392796969576011,N06L10,2022-11-14_11h59.04.238,t1_Paradigm,2021.1.4,59.98999264848032,
H,left,Distractor,0,42,42,42,947.5285911533083,949.529352737145,left,1,2,0.5961517239265959,N06L10,2022-11-14_11h59.04.238,t1_Paradigm,2021.1.4,59.98999264848032,
B,right,Target,0,43,43,43,951.0285520154703,953.0306301705241,right,1,2,0.6311358185648714,N06L10,2022-11-14_11h59.04.238,t1_Paradigm,2021.1.4,59.98999264848032,
W,left,Pretarget,0,44,44,44,954.5286774490341,956.5305371379582,left,1,2,0.634876369342237,N06L10,2022-11-14_11h59.04.238,t1_Paradigm,2021.1.4,59.98999264848032,
L,left,Pretarget,0,45,45,45,958.0282559152674,960.0302853084249,left,1,2,0.6711103083944181,N06L10,2022-11-14_11h59.04.238,t1_Paradigm,2021.1.4,59.98999264848032,
W,right,Target,0,46,46,46,961.5283874440684,963.5306914436987,right,1,2,0.41867413835825573,N06L10,2022-11-14_11h59.04.238,t1_Paradigm,2021.1.4,59.98999264848032,
L,right,Target,0,47,47,47,965.0285513738654,967.0299369175027,right,1,2,1.1278716586875817,N06L10,2022-11-14_11h59.04.238,t1_Paradigm,2021.1.4,59.98999264848032,
W,right,Target,0,48,48,48,968.5284192034615,970.5288850078978,right,1,2,1.06851110680509,N06L10,2022-11-14_11h59.04.238,t1_Paradigm,2021.1.4,59.98999264848032,
X,left,Distractor,0,49,49,49,972.0284891382871,974.0301454387736,left,1,2,1.3115625364898733,N06L10,2022-11-14_11h59.04.238,t1_Paradigm,2021.1.4,59.98999264848032,
R,left,Distractor,0,50,50,50,975.5285074239982,977.5280352035224,left,1,2,0.7572956780277309,N06L10,2022-11-14_11h59.04.238,t1_Paradigm,2021.1.4,59.98999264848032,
V,left,Pretarget,0,51,51,51,979.0286277247305,981.0289093888459,left,1,2,0.6164847933450801,N06L10,2022-11-14_11h59.04.238,t1_Paradigm,2021.1.4,59.98999264848032,
Z,left,Distractor,0,52,52,52,982.528548486649,984.530538421166,left,1,2,0.6667095471948414,N06L10,2022-11-14_11h59.04.238,t1_Paradigm,2021.1.4,59.98999264848032,
V,right,Target,0,53,53,53,986.0284689277632,988.0297203761838,right,1,2,0.4958414442753565,N06L10,2022-11-14_11h59.04.238,t1_Paradigm,2021.1.4,59.98999264848032,
V,left,Lure,0,54,54,54,989.5284795142288,991.5285568274994,left,1,2,1.1728118419541715,N06L10,2022-11-14_11h59.04.238,t1_Paradigm,2021.1.4,59.98999264848032,
N,left,Distractor,0,55,55,55,993.0286505016702,995.0298477345605,left,1,2,0.887553782447867,N06L10,2022-11-14_11h59.04.238,t1_Paradigm,2021.1.4,59.98999264848032,
B,left,Distractor,0,56,56,56,996.5284503212497,998.5303616592901,left,1,2,1.0829276257973106,N06L10,2022-11-14_11h59.04.238,t1_Paradigm,2021.1.4,59.98999264848032,
V,left,Lure,0,57,57,57,1000.0282774089974,1002.0303517144293,left,1,2,0.6710775865940377,N06L10,2022-11-14_11h59.04.238,t1_Paradigm,2021.1.4,59.98999264848032,
J,left,Distractor,0,58,58,58,1003.5285395041938,1005.5298817395669,left,1,2,0.9154751012756606,N06L10,2022-11-14_11h59.04.238,t1_Paradigm,2021.1.4,59.98999264848032,
H,left,Distractor,0,59,59,59,1007.0282097197851,1009.0302221104394,left,1,2,0.7431813544772012,N06L10,2022-11-14_11h59.04.238,t1_Paradigm,2021.1.4,59.98999264848032,
X,left,Pretarget,0,60,60,60,1010.5285991733563,1012.5298525465896,left,1,2,0.6674618277756963,N06L10,2022-11-14_11h59.04.238,t1_Paradigm,2021.1.4,59.98999264848032,
P,left,Distractor,0,61,61,61,1014.02845192526,1016.0291268925703,None,0,2,,N06L10,2022-11-14_11h59.04.238,t1_Paradigm,2021.1.4,59.98999264848032,
X,right,Target,0,62,62,62,1017.5286177798698,1019.5303533184397,left,0,2,0.6591052576877701,N06L10,2022-11-14_11h59.04.238,t1_Paradigm,2021.1.4,59.98999264848032,
Q,left,Distractor,0,63,63,63,1021.0284525668649,1023.0305477244237,left,1,2,0.6151791293959832,N06L10,2022-11-14_11h59.04.238,t1_Paradigm,2021.1.4,59.98999264848032,
B,left,Pretarget,0,0,0,0,1028.5697554975832,1030.562649092708,right,0,2,0.6187454847113258,N06L10,2022-11-14_11h59.04.238,t1_Paradigm,2021.1.4,59.98999264848032,
F,left,Distractor,0,1,1,1,1032.0618012131436,1034.0637215336374,left,1,2,0.6536650981597631,N06L10,2022-11-14_11h59.04.238,t1_Paradigm,2021.1.4,59.98999264848032,
B,right,Target,0,2,2,2,1035.561768491345,1037.5637029271256,right,1,2,0.9137132569485402,N06L10,2022-11-14_11h59.04.238,t1_Paradigm,2021.1.4,59.98999264848032,
V,left,Distractor,0,3,3,3,1039.0616629475026,1041.063712551184,left,1,2,1.0457877420285513,N06L10,2022-11-14_11h59.04.238,t1_Paradigm,2021.1.4,59.98999264848032,
G,left,Pretarget,0,4,4,4,1042.5617694537505,1044.564122215279,left,1,2,0.6651915123493382,N06L10,2022-11-14_11h59.04.238,t1_Paradigm,2021.1.4,59.98999264848032,
B,left,Lure,0,5,5,5,1046.0618201404595,1048.0637876188412,left,1,2,0.7977670900818339,N06L10,2022-11-14_11h59.04.238,t1_Paradigm,2021.1.4,59.98999264848032,
G,right,Target,0,6,6,6,1049.5621226567018,1051.5633548570058,right,1,2,0.7698008589795791,N06L10,2022-11-14_11h59.04.238,t1_Paradigm,2021.1.4,59.98999264848032,
Y,left,Pretarget,0,7,7,7,1053.0615962206957,1055.0637042103335,left,1,2,0.5336723354521382,N06L10,2022-11-14_11h59.04.238,t1_Paradigm,2021.1.4,59.98999264848032,
P,left,Distractor,0,8,8,8,1056.5619221554807,1058.5744934216345,left,1,2,0.5109778428504796,N06L10,2022-11-14_11h59.04.238,t1_Paradigm,2021.1.4,59.98999264848032,
Y,right,Target,0,9,9,9,1060.0618631279212,1062.0624530827135,right,1,2,0.6549287370526145,N06L10,2022-11-14_11h59.04.238,t1_Paradigm,2021.1.4,59.98999264848032,
X,left,Distractor,0,10,10,10,1063.5615320603047,1065.5640346363452,left,1,2,0.6416250800411945,N06L10,2022-11-14_11h59.04.238,t1_Paradigm,2021.1.4,59.98999264848032,
Y,right,Target,0,11,11,11,1067.0617915890853,1069.0625576641505,right,1,2,0.6949378734934726,N06L10,2022-11-14_11h59.04.238,t1_Paradigm,2021.1.4,59.98999264848032,
N,left,Distractor,0,12,12,12,1070.5617595088897,1072.5635906464413,left,1,2,0.6339668958044058,N06L10,2022-11-14_11h59.04.238,t1_Paradigm,2021.1.4,59.98999264848032,
Y,right,Target,0,13,13,13,1074.061717804636,1076.0625416240528,right,1,2,0.7990519019058411,N06L10,2022-11-14_11h59.04.238,t1_Paradigm,2021.1.4,59.98999264848032,
Y,left,Lure,0,14,14,14,1077.5615731229555,1079.5619532732708,left,1,2,1.123485333575445,N06L10,2022-11-14_11h59.04.238,t1_Paradigm,2021.1.4,59.98999264848032,
K,left,Distractor,0,15,15,15,1081.0618316893306,1083.0623959799668,left,1,2,1.0150369499697263,N06L10,2022-11-14_11h59.04.238,t1_Paradigm,2021.1.4,59.98999264848032,
T,left,Pretarget,0,16,16,16,1084.5617989675302,1086.5626978546043,left,1,2,0.7468997699215834,N06L10,2022-11-14_11h59.04.238,t1_Paradigm,2021.1.4,59.98999264848032,
J,left,Distractor,0,17,17,17,1088.0618288021124,1090.063414205366,left,1,2,0.47824449471772823,N06L10,2022-11-14_11h59.04.238,t1_Paradigm,2021.1.4,59.98999264848032,
T,right,Target,0,18,18,18,1091.5617803610166,1093.5626279197786,right,1,2,0.4827232107909367,N06L10,2022-11-14_11h59.04.238,t1_Paradigm,2021.1.4,59.98999264848032,
S,left,Pretarget,0,19,19,19,1095.0608702458758,1097.0640426563932,left,1,2,0.6614503199689352,N06L10,2022-11-14_11h59.04.238,t1_Paradigm,2021.1.4,59.98999264848032,
R,left,Distractor,0,20,20,20,1098.5616331129204,1100.5631825863566,left,1,2,0.5861956352982816,N06L10,2022-11-14_11h59.04.238,t1_Paradigm,2021.1.4,59.98999264848032,
S,right,Target,0,21,21,21,1102.0617803610166,1104.0623542757112,right,1,2,0.4471430661214981,N06L10,2022-11-14_11h59.04.238,t1_Paradigm,2021.1.4,59.98999264848032,
Q,left,Distractor,0,22,22,22,1105.5617960803138,1107.5639820248252,left,1,2,0.5935618897528911,N06L10,2022-11-14_11h59.04.238,t1_Paradigm,2021.1.4,59.98999264848032,
D,left,Distractor,0,23,23,23,1109.061794155501,1111.0746323288804,left,1,2,0.7148564667895698,N06L10,2022-11-14_11h59.04.238,t1_Paradigm,2021.1.4,59.98999264848032,
F,left,Distractor,0,24,24,24,1112.5616196392384,1114.5622336541783,left,1,2,0.5872263719738839,N06L10,2022-11-14_11h59.04.238,t1_Paradigm,2021.1.4,59.98999264848032,
Z,left,Distractor,0,25,25,25,1116.0618425965968,1118.0625387368345,left,1,2,0.5589743063301285,N06L10,2022-11-14_11h59.04.238,t1_Paradigm,2021.1.4,59.98999264848032,
P,left,Distractor,0,26,26,26,1119.5618355389524,1121.5635450925638,left,1,2,0.6739401024260587,N06L10,2022-11-14_11h59.04.238,t1_Paradigm,2021.1.4,59.98999264848032,
H,left,Distractor,0,27,27,27,1123.0619365915682,1125.0632650324587,left,1,2,0.6462542522294825,N06L10,2022-11-14_11h59.04.238,t1_Paradigm,2021.1.4,59.98999264848032,
Z,left,Pretarget,0,28,28,28,1126.5617848522452,1128.5780305839744,left,1,2,1.2594148957323341,N06L10,2022-11-14_11h59.04.238,t1_Paradigm,2021.1.4,59.98999264848032,
J,left,Pretarget,0,29,29,29,1130.0615131329905,1132.063470987312,left,1,2,0.7818825813519652,N06L10,2022-11-14_11h59.04.238,t1_Paradigm,2021.1.4,59.98999264848032,
Z,right,Target,0,30,30,30,1133.5617431479914,1135.5636121401712,right,1,2,0.8815804500718514,N06L10,2022-11-14_11h59.04.238,t1_Paradigm,2021.1.4,59.98999264848032,
J,right,Target,0,31,31,31,1137.0618336141415,1139.0625833283066,right,1,2,1.2548399390725535,N06L10,2022-11-14_11h59.04.238,t1_Paradigm,2021.1.4,59.98999264848032,
V,left,Pretarget,0,32,32,32,1140.5616055239516,1142.563028280616,left,1,2,0.6343313268225756,N06L10,2022-11-14_11h59.04.238,t1_Paradigm,2021.1.4,59.98999264848032,
Z,left,Lure,0,33,33,33,1144.0617973635199,1146.0631591678139,left,1,2,0.7501417944622517,N06L10,2022-11-14_11h59.04.238,t1_Paradigm,2021.1.4,59.98999264848032,
V,right,Target,0,34,34,34,1147.5614563510444,1149.5622102356356,right,1,2,0.8031318611519964,N06L10,2022-11-14_11h59.04.238,t1_Paradigm,2021.1.4,59.98999264848032,
X,left,Distractor,0,35,35,35,1151.0618801304245,1153.0637285912817,left,1,2,0.5815664631063555,N06L10,2022-11-14_11h59.04.238,t1_Paradigm,2021.1.4,59.98999264848032,
S,left,Distractor,0,36,36,36,1154.5615644613026,1156.5625804410902,left,1,2,0.6347156475640077,N06L10,2022-11-14_11h59.04.238,t1_Paradigm,2021.1.4,59.98999264848032,
Q,left,Distractor,0,37,37,37,1158.0617851730458,1160.0636195186162,left,1,2,0.6058569454253302,N06L10,2022-11-14_11h59.04.238,t1_Paradigm,2021.1.4,59.98999264848032,
P,left,Distractor,0,38,38,38,1161.5615760101718,1163.562583649109,left,1,2,0.5629583457921399,N06L10,2022-11-14_11h59.04.238,t1_Paradigm,2021.1.4,59.98999264848032,
S,left,Lure,0,39,39,39,1165.0618060251727,1167.0641061751812,left,1,2,0.4853095161415695,N06L10,2022-11-14_11h59.04.238,t1_Paradigm,2021.1.4,59.98999264848032,
K,left,Pretarget,0,40,40,40,1168.5617328823282,1170.5626298445895,left,1,2,0.6988779630864883,N06L10,2022-11-14_11h59.04.238,t1_Paradigm,2021.1.4,59.98999264848032,
L,left,Distractor,0,41,41,41,1172.0614977344958,1174.0634437191457,left,1,2,0.5580481510896789,N06L10,2022-11-14_11h59.04.238,t1_Paradigm,2021.1.4,59.98999264848032,
K,right,Target,0,42,42,42,1175.5617694537505,1177.5637106263712,right,1,2,0.8495993825199548,N06L10,2022-11-14_11h59.04.238,t1_Paradigm,2021.1.4,59.98999264848032,
B,left,Distractor,0,43,43,43,1179.0619337043518,1181.0634908770335,left,1,2,1.1259381853124069,N06L10,2022-11-14_11h59.04.238,t1_Paradigm,2021.1.4,59.98999264848032,
N,left,Distractor,0,44,44,44,1182.5615769725791,1184.5618958497198,left,1,2,0.891629571267913,N06L10,2022-11-14_11h59.04.238,t1_Paradigm,2021.1.4,59.98999264848032,
S,left,Pretarget,0,45,45,45,1186.0617716993638,1188.0627594485795,left,1,2,0.5907359453467507,N06L10,2022-11-14_11h59.04.238,t1_Paradigm,2021.1.4,59.98999264848032,
Z,left,Distractor,0,46,46,46,1189.5617604712952,1191.5624242105387,left,1,2,0.6590436637125094,N06L10,2022-11-14_11h59.04.238,t1_Paradigm,2021.1.4,59.98999264848032,
S,right,Target,0,47,47,47,1193.0617283911015,1195.0637497642092,right,1,2,0.7256832119201135,N06L10,2022-11-14_11h59.04.238,t1_Paradigm,2021.1.4,59.98999264848032,
C,left,Distractor,0,48,48,48,1196.5615461755915,1198.5638719897543,left,1,2,1.113648904076399,N06L10,2022-11-14_11h59.04.238,t1_Paradigm,2021.1.4,59.98999264848032,
T,left,Pretarget,0,49,49,49,1200.0616821956191,1202.0612786267611,left,1,2,0.5602203011185338,N06L10,2022-11-14_11h59.04.238,t1_Paradigm,2021.1.4,59.98999264848032,
S,left,Lure,0,50,50,50,1203.5617598296922,1205.5634456439584,left,1,2,0.49804118327119795,N06L10,2022-11-14_11h59.04.238,t1_Paradigm,2021.1.4,59.98999264848032,
T,right,Target,0,51,51,51,1207.061537834741,1209.0638870674466,right,1,2,0.7094592947232741,N06L10,2022-11-14_11h59.04.238,t1_Paradigm,2021.1.4,59.98999264848032,
N,left,Pretarget,0,52,52,52,1210.561827839707,1212.563256370806,left,1,2,0.5381423898725188,N06L10,2022-11-14_11h59.04.238,t1_Paradigm,2021.1.4,59.98999264848032,
B,left,Distractor,0,53,53,53,1214.0617527720497,1216.0635495837905,left,1,2,0.7497157694688212,N06L10,2022-11-14_11h59.04.238,t1_Paradigm,2021.1.4,59.98999264848032,
N,right,Target,0,54,54,54,1217.5617688121474,1219.5624036792124,left,0,2,0.5150212306725734,N06L10,2022-11-14_11h59.04.238,t1_Paradigm,2021.1.4,59.98999264848032,
N,left,Lure,0,55,55,55,1221.0617601504946,1223.0617999299357,left,1,2,0.7595611814249423,N06L10,2022-11-14_11h59.04.238,t1_Paradigm,2021.1.4,59.98999264848032,
X,left,Distractor,0,56,56,56,1224.5615474587994,1226.563282034962,left,1,2,0.9540925988421805,N06L10,2022-11-14_11h59.04.238,t1_Paradigm,2021.1.4,59.98999264848032,
W,left,Distractor,0,57,57,57,1228.0612856844054,1230.0635723607302,left,1,2,0.5259525572400889,N06L10,2022-11-14_11h59.04.238,t1_Paradigm,2021.1.4,59.98999264848032,
S,left,Distractor,0,58,58,58,1231.5615981455067,1233.563528410863,left,1,2,0.4817941683340905,N06L10,2022-11-14_11h59.04.238,t1_Paradigm,2021.1.4,59.98999264848032,
L,left,Distractor,0,59,59,59,1235.0617553384654,1237.0618605615055,left,1,2,0.6796134849737427,N06L10,2022-11-14_11h59.04.238,t1_Paradigm,2021.1.4,59.98999264848032,
K,left,Pretarget,0,60,60,60,1238.5614970928928,1240.5628624260062,left,1,2,0.5704282192800747,N06L10,2022-11-14_11h59.04.238,t1_Paradigm,2021.1.4,59.98999264848032,
V,left,Pretarget,0,61,61,61,1242.0617107469934,1244.064429864351,left,1,2,0.6048948603693134,N06L10,2022-11-14_11h59.04.238,t1_Paradigm,2021.1.4,59.98999264848032,
K,right,Target,0,62,62,62,1245.5617787570081,1247.563419659,left,0,2,0.7059734606955317,N06L10,2022-11-14_11h59.04.238,t1_Paradigm,2021.1.4,59.98999264848032,
V,right,Target,0,63,63,63,1249.061683478827,1251.063561453464,right,1,2,0.9980581857744255,N06L10,2022-11-14_11h59.04.238,t1_Paradigm,2021.1.4,59.98999264848032,
R,left,Distractor,0,0,0,0,1331.3019994302558,1333.296240072783,left,1,3,0.6211389880882052,N06L10,2022-11-14_11h59.04.238,t1_Paradigm,2021.1.4,59.98999264848032,
P,left,Lure,0,1,1,1,1334.795195541623,1336.8077812438642,left,1,3,1.01367386246784,N06L10,2022-11-14_11h59.04.238,t1_Paradigm,2021.1.4,59.98999264848032,
V,left,Distractor,0,2,2,2,1338.2951086042922,1340.2964996015635,left,1,3,0.8208212016743346,N06L10,2022-11-14_11h59.04.238,t1_Paradigm,2021.1.4,59.98999264848032,
P,left,Pretarget,0,3,3,3,1341.7948378474448,1343.7972964736164,right,0,3,0.9680904712840857,N06L10,2022-11-14_11h59.04.238,t1_Paradigm,2021.1.4,59.98999264848032,
Z,left,Distractor,0,4,4,4,1345.2949652058196,1347.2945212159157,left,1,3,0.7671330699340615,N06L10,2022-11-14_11h59.04.238,t1_Paradigm,2021.1.4,59.98999264848032,
L,left,Pretarget,0,5,5,5,1348.7950531055558,1350.7965063384054,left,1,3,0.6568769673176575,N06L10,2022-11-14_11h59.04.238,t1_Paradigm,2021.1.4,59.98999264848032,
P,right,Target,0,6,6,6,1352.2950319326264,1354.2964822782578,left,0,3,1.2208285159576917,N06L10,2022-11-14_11h59.04.238,t1_Paradigm,2021.1.4,59.98999264848032,
S,left,Distractor,0,7,7,7,1355.7950880729677,1357.7964752206153,left,1,3,0.6970715272855159,N06L10,2022-11-14_11h59.04.238,t1_Paradigm,2021.1.4,59.98999264848032,
L,right,Target,0,8,8,8,1359.295130098024,1361.2962641329304,right,1,3,0.7812547719295253,N06L10,2022-11-14_11h59.04.238,t1_Paradigm,2021.1.4,59.98999264848032,
D,left,Distractor,0,9,9,9,1362.795110529105,1364.797176814487,left,1,3,0.7041503431937599,N06L10,2022-11-14_11h59.04.238,t1_Paradigm,2021.1.4,59.98999264848032,
G,left,Distractor,0,10,10,10,1366.295062729614,1368.2965416266197,left,1,3,1.1409244485748786,N06L10,2022-11-14_11h59.04.238,t1_Paradigm,2021.1.4,59.98999264848032,
M,left,Pretarget,0,11,11,11,1369.794994398797,1371.796537776996,left,1,3,0.9367943159013521,N06L10,2022-11-14_11h59.04.238,t1_Paradigm,2021.1.4,59.98999264848032,
Y,left,Distractor,0,12,12,12,1373.2951605742091,1375.296023531464,left,1,3,0.7977712605079432,N06L10,2022-11-14_11h59.04.238,t1_Paradigm,2021.1.4,59.98999264848032,
V,left,Distractor,0,13,13,13,1376.7948458674928,1378.8114194588197,left,1,3,0.7698752850319579,N06L10,2022-11-14_11h59.04.238,t1_Paradigm,2021.1.4,59.98999264848032,
M,right,Target,0,14,14,14,1380.2950229501712,1382.2962586792964,right,1,3,1.1092045138120739,N06L10,2022-11-14_11h59.04.238,t1_Paradigm,2021.1.4,59.98999264848032,
S,left,Pretarget,0,15,15,15,1383.7950020980443,1385.7961650051257,left,1,3,0.8093807624045439,N06L10,2022-11-14_11h59.04.238,t1_Paradigm,2021.1.4,59.98999264848032,
Q,left,Distractor,0,16,16,16,1387.2949976068176,1389.2959892056551,left,1,3,0.6853160605023731,N06L10,2022-11-14_11h59.04.238,t1_Paradigm,2021.1.4,59.98999264848032,
R,left,Pretarget,0,17,17,17,1390.7950906393835,1392.7965772356365,left,1,3,1.1048493064899958,N06L10,2022-11-14_11h59.04.238,t1_Paradigm,2021.1.4,59.98999264848032,
S,right,Target,0,18,18,18,1394.2948663988172,1396.2967305789698,right,1,3,0.6927374928945937,N06L10,2022-11-14_11h59.04.238,t1_Paradigm,2021.1.4,59.98999264848032,
F,left,Distractor,0,19,19,19,1397.7950056268655,1399.796524303314,left,1,3,0.5526028587300971,N06L10,2022-11-14_11h59.04.238,t1_Paradigm,2021.1.4,59.98999264848032,
R,right,Target,0,20,20,20,1401.2951660278432,1403.2968890551347,right,1,3,0.9086705710415117,N06L10,2022-11-14_11h59.04.238,t1_Paradigm,2021.1.4,59.98999264848032,
P,left,Distractor,0,21,21,21,1404.7950168549341,1406.7963565238915,left,1,3,0.7529722300987487,N06L10,2022-11-14_11h59.04.238,t1_Paradigm,2021.1.4,59.98999264848032,
L,left,Distractor,0,22,22,22,1408.2950165341317,1410.2954079125157,left,1,3,0.77400111895804,N06L10,2022-11-14_11h59.04.238,t1_Paradigm,2021.1.4,59.98999264848032,
R,right,Target,0,23,23,23,1411.7947990304074,1413.79690477443,right,1,3,1.0003939447997254,N06L10,2022-11-14_11h59.04.238,t1_Paradigm,2021.1.4,59.98999264848032,
H,left,Pretarget,0,24,24,24,1415.2952953110307,1417.296479711842,left,1,3,0.6208297350040084,N06L10,2022-11-14_11h59.04.238,t1_Paradigm,2021.1.4,59.98999264848032,
G,left,Pretarget,0,25,25,25,1418.7949777170961,1420.7965576667175,left,1,3,0.9449430063250475,N06L10,2022-11-14_11h59.04.238,t1_Paradigm,2021.1.4,59.98999264848032,
T,left,Distractor,0,26,26,26,1422.2950498975351,1424.2963180276583,left,1,3,0.709147796027537,N06L10,2022-11-14_11h59.04.238,t1_Paradigm,2021.1.4,59.98999264848032,
H,right,Target,0,27,27,27,1425.795077486504,1427.795188804781,right,1,3,0.47420271090413735,N06L10,2022-11-14_11h59.04.238,t1_Paradigm,2021.1.4,59.98999264848032,
G,right,Target,0,28,28,28,1429.2949937571939,1431.2958227094423,right,1,3,1.117777946021306,N06L10,2022-11-14_11h59.04.238,t1_Paradigm,2021.1.4,59.98999264848032,
D,left,Distractor,0,29,29,29,1432.7951965040284,1434.8076843616745,left,1,3,0.6457120969280368,N06L10,2022-11-14_11h59.04.238,t1_Paradigm,2021.1.4,59.98999264848032,
N,left,Pretarget,0,30,30,30,1436.2949754714828,1438.2957008046997,left,1,3,0.5497069794964773,N06L10,2022-11-14_11h59.04.238,t1_Paradigm,2021.1.4,59.98999264848032,
V,left,Distractor,0,31,31,31,1439.794980925115,1441.7962904386895,left,1,3,0.9690464611067,N06L10,2022-11-14_11h59.04.238,t1_Paradigm,2021.1.4,59.98999264848032,
R,left,Distractor,0,32,32,32,1443.2949960028072,1445.2956029601028,left,1,3,0.861964052215626,N06L10,2022-11-14_11h59.04.238,t1_Paradigm,2021.1.4,59.98999264848032,
N,right,Target,0,33,33,33,1446.7948747396695,1448.7941484440453,right,1,3,0.8994189635031944,N06L10,2022-11-14_11h59.04.238,t1_Paradigm,2021.1.4,59.98999264848032,
Z,left,Distractor,0,34,34,34,1450.2950486143272,1452.2962166542402,left,1,3,1.0771015415175498,N06L10,2022-11-14_11h59.04.238,t1_Paradigm,2021.1.4,59.98999264848032,
N,left,Lure,0,35,35,35,1453.7949927947884,1455.796493185524,None,0,3,,N06L10,2022-11-14_11h59.04.238,t1_Paradigm,2021.1.4,59.98999264848032,
Y,left,Pretarget,0,36,36,36,1457.2950293662107,1459.2940297473233,left,1,3,0.7833967665737873,N06L10,2022-11-14_11h59.04.238,t1_Paradigm,2021.1.4,59.98999264848032,
Y,left,Lure,0,37,37,37,1460.794894629389,1462.7951811055336,right,0,3,0.5623237995278032,N06L10,2022-11-14_11h59.04.238,t1_Paradigm,2021.1.4,59.98999264848032,
B,left,Distractor,0,38,38,38,1464.2949725842645,1466.296656473718,left,1,3,0.5487509896738629,N06L10,2022-11-14_11h59.04.238,t1_Paradigm,2021.1.4,59.98999264848032,
Y,right,Target,0,39,39,39,1467.7950062684704,1469.796395340929,left,0,3,1.032910430811171,N06L10,2022-11-14_11h59.04.238,t1_Paradigm,2021.1.4,59.98999264848032,
J,left,Distractor,0,40,40,40,1471.2949751506803,1473.2964704085862,left,1,3,0.5729548554645589,N06L10,2022-11-14_11h59.04.238,t1_Paradigm,2021.1.4,59.98999264848032,
X,left,Distractor,0,41,41,41,1474.7950861481568,1476.7967886441238,left,1,3,0.7525317690178781,N06L10,2022-11-14_11h59.04.238,t1_Paradigm,2021.1.4,59.98999264848032,
W,left,Pretarget,0,42,42,42,1478.2948894965593,1480.296800834598,left,1,3,0.6765203125378321,N06L10,2022-11-14_11h59.04.238,t1_Paradigm,2021.1.4,59.98999264848032,
S,left,Pretarget,0,43,43,43,1481.7949886243623,1483.7954470503537,left,1,3,0.5696403296824428,N06L10,2022-11-14_11h59.04.238,t1_Paradigm,2021.1.4,59.98999264848032,
R,left,Distractor,0,44,44,44,1485.2949642434141,1487.296877827066,left,1,3,0.5725487201925716,N06L10,2022-11-14_11h59.04.238,t1_Paradigm,2021.1.4,59.98999264848032,
W,right,Target,0,45,45,45,1488.7950210253603,1490.796003962545,right,1,3,0.9454508358176099,N06L10,2022-11-14_11h59.04.238,t1_Paradigm,2021.1.4,59.98999264848032,
S,right,Target,0,46,46,46,1492.294788764746,1494.2966779674498,right,1,3,1.0127987147388922,N06L10,2022-11-14_11h59.04.238,t1_Paradigm,2021.1.4,59.98999264848032,
D,left,Distractor,0,47,47,47,1495.7950553511691,1497.7963930953156,left,1,3,0.6650259785419621,N06L10,2022-11-14_11h59.04.238,t1_Paradigm,2021.1.4,59.98999264848032,
T,left,Distractor,0,48,48,48,1499.294812183287,1501.2963010251551,left,1,3,0.6049952713801758,N06L10,2022-11-14_11h59.04.238,t1_Paradigm,2021.1.4,59.98999264848032,
S,right,Target,0,49,49,49,1502.7950521431485,1504.7963844336628,right,1,3,0.5290685066156584,N06L10,2022-11-14_11h59.04.238,t1_Paradigm,2021.1.4,59.98999264848032,
K,left,Distractor,0,50,50,50,1506.2950656168305,1508.2970712706447,left,1,3,0.8682844923041557,N06L10,2022-11-14_11h59.04.238,t1_Paradigm,2021.1.4,59.98999264848032,
S,left,Lure,0,51,51,51,1509.7949664890275,1511.7966125238509,left,1,3,0.904753579186945,N06L10,2022-11-14_11h59.04.238,t1_Paradigm,2021.1.4,59.98999264848032,
T,left,Pretarget,0,52,52,52,1513.294730699592,1515.2963667895547,left,1,3,0.8610917917048937,N06L10,2022-11-14_11h59.04.238,t1_Paradigm,2021.1.4,59.98999264848032,
V,left,Distractor,0,53,53,53,1516.7950191005475,1518.7968701278205,left,1,3,0.6085032407409017,N06L10,2022-11-14_11h59.04.238,t1_Paradigm,2021.1.4,59.98999264848032,
B,left,Distractor,0,54,54,54,1520.2949706594536,1522.296753035107,left,1,3,0.9967361609233194,N06L10,2022-11-14_11h59.04.238,t1_Paradigm,2021.1.4,59.98999264848032,
T,right,Target,0,55,55,55,1523.7948792308962,1525.7968665989974,right,1,3,0.7764363265869179,N06L10,2022-11-14_11h59.04.238,t1_Paradigm,2021.1.4,59.98999264848032,
Y,left,Pretarget,0,56,56,56,1527.2950216669633,1529.2965704987946,left,1,3,0.7007264239437063,N06L10,2022-11-14_11h59.04.238,t1_Paradigm,2021.1.4,59.98999264848032,
T,left,Lure,0,57,57,57,1530.7949546193558,1532.7964107394218,left,1,3,0.9450331516727601,N06L10,2022-11-14_11h59.04.238,t1_Paradigm,2021.1.4,59.98999264848032,
P,left,Pretarget,0,58,58,58,1534.2947640629955,1536.2945054966203,right,0,3,1.1748861473861325,N06L10,2022-11-14_11h59.04.238,t1_Paradigm,2021.1.4,59.98999264848032,
Y,right,Target,0,59,59,59,1537.7950733160778,1539.7970253959647,right,1,3,0.9682900100979168,N06L10,2022-11-14_11h59.04.238,t1_Paradigm,2021.1.4,59.98999264848032,
R,left,Distractor,0,60,60,60,1541.2949956820048,1543.2967594511465,left,1,3,0.9086927063763142,N06L10,2022-11-14_11h59.04.238,t1_Paradigm,2021.1.4,59.98999264848032,
P,right,Target,0,61,61,61,1544.794783952715,1546.7961512106413,right,1,3,1.1212708376915543,N06L10,2022-11-14_11h59.04.238,t1_Paradigm,2021.1.4,59.98999264848032,
L,left,Distractor,0,62,62,62,1548.2949058574577,1550.296225315893,left,1,3,0.8530656476286822,N06L10,2022-11-14_11h59.04.238,t1_Paradigm,2021.1.4,59.98999264848032,
V,left,Distractor,0,63,63,63,1551.7949815667198,1553.7967190301006,left,1,3,1.000505263076775,N06L10,2022-11-14_11h59.04.238,t1_Paradigm,2021.1.4,59.98999264848032,
H,left,Lure,0,0,0,0,1558.5261254694924,1560.5302160152023,left,1,3,0.5871012592106126,N06L10,2022-11-14_11h59.04.238,t1_Paradigm,2021.1.4,59.98999264848032,
B,left,Distractor,0,1,1,1,1562.0281846972339,1564.0303809074067,None,0,3,,N06L10,2022-11-14_11h59.04.238,t1_Paradigm,2021.1.4,59.98999264848032,
T,left,Distractor,0,2,2,2,1565.5282857498478,1567.5297547019945,left,1,3,0.6757542374725745,N06L10,2022-11-14_11h59.04.238,t1_Paradigm,2021.1.4,59.98999264848032,
R,left,Distractor,0,3,3,3,1569.0280576596597,1571.0291198349278,left,1,3,0.5841643173262128,N06L10,2022-11-14_11h59.04.238,t1_Paradigm,2021.1.4,59.98999264848032,
H,left,Pretarget,0,4,4,4,1572.528339323775,1574.530514040218,right,0,3,1.0507710795754974,N06L10,2022-11-14_11h59.04.238,t1_Paradigm,2021.1.4,59.98999264848032,
K,left,Distractor,0,5,5,5,1576.0282219102592,1578.0289170880933,left,1,3,0.67238389214981,N06L10,2022-11-14_11h59.04.238,t1_Paradigm,2021.1.4,59.98999264848032,
G,left,Distractor,0,6,6,6,1579.5283646671287,1581.529900025278,left,1,3,0.8993047580061102,N06L10,2022-11-14_11h59.04.238,t1_Paradigm,2021.1.4,59.98999264848032,
H,right,Target,0,7,7,7,1583.0283236044797,1585.0297739501111,right,1,3,0.439661964564948,N06L10,2022-11-14_11h59.04.238,t1_Paradigm,2021.1.4,59.98999264848032,
Y,left,Pretarget,0,8,8,8,1586.5282908826794,1588.5302028623228,left,1,3,0.7312956420973933,N06L10,2022-11-14_11h59.04.238,t1_Paradigm,2021.1.4,59.98999264848032,
S,left,Distractor,0,9,9,9,1590.0281558250572,1592.0297283962336,left,1,3,0.6076823085422802,N06L10,2022-11-14_11h59.04.238,t1_Paradigm,2021.1.4,59.98999264848032,
P,left,Distractor,0,10,10,10,1593.5283617799105,1595.5303305415,left,1,3,0.6749400421158498,N06L10,2022-11-14_11h59.04.238,t1_Paradigm,2021.1.4,59.98999264848032,
Y,right,Target,0,11,11,11,1597.028229288704,1599.0300148723782,left,0,3,0.6472946129651973,N06L10,2022-11-14_11h59.04.238,t1_Paradigm,2021.1.4,59.98999264848032,
H,left,Lure,0,12,12,12,1600.5281349729303,1602.5302618898822,right,0,3,0.6669575271043868,N06L10,2022-11-14_11h59.04.238,t1_Paradigm,2021.1.4,59.98999264848032,
Q,left,Distractor,0,13,13,13,1604.0284227322827,1606.0299510327895,left,1,3,0.5592963914914435,N06L10,2022-11-14_11h59.04.238,t1_Paradigm,2021.1.4,59.98999264848032,
V,left,Pretarget,0,14,14,14,1607.5279915744577,1609.5299936994488,left,1,3,0.46721339874238765,N06L10,2022-11-14_11h59.04.238,t1_Paradigm,2021.1.4,59.98999264848032,
G,left,Distractor,0,15,15,15,1611.028262331305,1613.030041178139,right,0,3,0.6633879637665814,N06L10,2022-11-14_11h59.04.238,t1_Paradigm,2021.1.4,59.98999264848032,
Z,left,Pretarget,0,16,16,16,1614.5281247072671,1616.529190732159,left,1,3,0.4922414047523489,N06L10,2022-11-14_11h59.04.238,t1_Paradigm,2021.1.4,59.98999264848032,
V,right,Target,0,17,17,17,1618.0283672335445,1620.0301743109485,left,0,3,0.6871975639587617,N06L10,2022-11-14_11h59.04.238,t1_Paradigm,2021.1.4,59.98999264848032,
N,left,Distractor,0,18,18,18,1621.5282498200304,1623.528920937717,left,1,3,0.4523493610267906,N06L10,2022-11-14_11h59.04.238,t1_Paradigm,2021.1.4,59.98999264848032,
Z,right,Target,0,19,19,19,1625.028406692185,1627.0288404164257,left,0,3,0.5684780642041005,N06L10,2022-11-14_11h59.04.238,t1_Paradigm,2021.1.4,59.98999264848032,
R,left,Distractor,0,20,20,20,1628.5281134791985,1630.5304838848333,left,1,3,0.7949116318941378,N06L10,2022-11-14_11h59.04.238,t1_Paradigm,2021.1.4,59.98999264848032,
P,left,Distractor,0,21,21,21,1632.02824821602,1634.0291438950735,left,1,3,0.5124830456170457,N06L10,2022-11-14_11h59.04.238,t1_Paradigm,2021.1.4,59.98999264848032,
Z,right,Target,0,22,22,22,1635.5282459704067,1637.5295583711977,right,1,3,0.7876515628831839,N06L10,2022-11-14_11h59.04.238,t1_Paradigm,2021.1.4,59.98999264848032,
D,left,Pretarget,0,23,23,23,1639.0282713137603,1641.0415448153908,left,1,3,0.667884644750302,N06L10,2022-11-14_11h59.04.238,t1_Paradigm,2021.1.4,59.98999264848032,
K,left,Distractor,0,24,24,24,1642.5279806671897,1644.5298307320572,left,1,3,0.6674441836694314,N06L10,2022-11-14_11h59.04.238,t1_Paradigm,2021.1.4,59.98999264848032,
W,left,Distractor,0,25,25,25,1646.028204266153,1648.0298050679012,left,1,3,0.5916220003418857,N06L10,2022-11-14_11h59.04.238,t1_Paradigm,2021.1.4,59.98999264848032,
D,right,Target,0,26,26,26,1649.5281750731738,1651.529268366232,left,0,3,0.6761276509478193,N06L10,2022-11-14_11h59.04.238,t1_Paradigm,2021.1.4,59.98999264848032,
G,left,Pretarget,0,27,27,27,1653.0282045869535,1655.0294056694675,left,1,3,0.9838434512130334,N06L10,2022-11-14_11h59.04.238,t1_Paradigm,2021.1.4,59.98999264848032,
V,left,Distractor,0,28,28,28,1656.5279838752103,1658.5298207871965,left,1,3,1.1316699538183457,N06L10,2022-11-14_11h59.04.238,t1_Paradigm,2021.1.4,59.98999264848032,
D,right,Target,0,29,29,29,1660.0283239252803,1662.0298281656414,left,0,3,1.039580224227393,N06L10,2022-11-14_11h59.04.238,t1_Paradigm,2021.1.4,59.98999264848032,
G,right,Target,0,30,30,30,1663.5281426721776,1665.529711072928,left,0,3,1.043527692267162,N06L10,2022-11-14_11h59.04.238,t1_Paradigm,2021.1.4,59.98999264848032,
B,left,Pretarget,0,31,31,31,1667.0279177900084,1669.0284785518234,left,1,3,0.8088950682467839,N06L10,2022-11-14_11h59.04.238,t1_Paradigm,2021.1.4,59.98999264848032,
N,left,Distractor,0,32,32,32,1670.5282376295545,1672.529333168226,left,1,3,0.939991107370588,N06L10,2022-11-14_11h59.04.238,t1_Paradigm,2021.1.4,59.98999264848032,
F,left,Distractor,0,33,33,33,1674.0283319453301,1676.0410106801373,left,1,3,0.8206223044617218,N06L10,2022-11-14_11h59.04.238,t1_Paradigm,2021.1.4,59.98999264848032,
B,right,Target,0,34,34,34,1677.5282652185233,1679.5299561656211,right,1,3,0.4352775642655615,N06L10,2022-11-14_11h59.04.238,t1_Paradigm,2021.1.4,59.98999264848032,
Q,left,Pretarget,0,35,35,35,1681.0284018801558,1683.0290056294325,left,1,3,0.6002788410587527,N06L10,2022-11-14_11h59.04.238,t1_Paradigm,2021.1.4,59.98999264848032,
S,left,Pretarget,0,36,36,36,1684.5284326771434,1686.5299420503343,left,1,3,0.7314736871830974,N06L10,2022-11-14_11h59.04.238,t1_Paradigm,2021.1.4,59.98999264848032,
W,left,Distractor,0,37,37,37,1688.0281121959906,1690.029121438938,left,1,3,0.5441721833904012,N06L10,2022-11-14_11h59.04.238,t1_Paradigm,2021.1.4,59.98999264848032,
Q,right,Target,0,38,38,38,1691.528407333788,1693.5286822610633,right,1,3,1.3004996811214369,N06L10,2022-11-14_11h59.04.238,t1_Paradigm,2021.1.4,59.98999264848032,
S,right,Target,0,39,39,39,1695.028176035581,1697.0302391129444,right,1,3,0.9510472258971276,N06L10,2022-11-14_11h59.04.238,t1_Paradigm,2021.1.4,59.98999264848032,
T,left,Distractor,0,40,40,40,1698.5280974391007,1700.5302824212067,left,1,3,0.5231304624558106,N06L10,2022-11-14_11h59.04.238,t1_Paradigm,2021.1.4,59.98999264848032,
G,left,Distractor,0,41,41,41,1702.02821709823,1704.0299750929353,left,1,3,0.4955463064779906,N06L10,2022-11-14_11h59.04.238,t1_Paradigm,2021.1.4,59.98999264848032,
D,left,Distractor,0,42,42,42,1705.5283868024635,1707.5296680854663,left,1,3,1.0596730129855132,N06L10,2022-11-14_11h59.04.238,t1_Paradigm,2021.1.4,59.98999264848032,
S,left,Lure,0,43,43,43,1709.0284022009582,1711.0300116643593,right,0,3,1.1754488340138778,N06L10,2022-11-14_11h59.04.238,t1_Paradigm,2021.1.4,59.98999264848032,
Z,left,Pretarget,0,44,44,44,1712.528230571912,1714.5285032535721,left,1,3,0.7006959477566852,N06L10,2022-11-14_11h59.04.238,t1_Paradigm,2021.1.4,59.98999264848032,
J,left,Distractor,0,45,45,45,1716.0282870330557,1718.0302708723375,left,1,3,1.0071157081310957,N06L10,2022-11-14_11h59.04.238,t1_Paradigm,2021.1.4,59.98999264848032,
M,left,Pretarget,0,46,46,46,1719.5282247974774,1721.5306824612435,left,1,3,0.6425127390466514,N06L10,2022-11-14_11h59.04.238,t1_Paradigm,2021.1.4,59.98999264848032,
Z,right,Target,0,47,47,47,1723.0282645769203,1725.0304492382238,left,0,3,0.6469545628951892,N06L10,2022-11-14_11h59.04.238,t1_Paradigm,2021.1.4,59.98999264848032,
P,left,Distractor,0,48,48,48,1726.5282228726646,1728.5295259702016,left,1,3,0.5398224297041452,N06L10,2022-11-14_11h59.04.238,t1_Paradigm,2021.1.4,59.98999264848032,
M,right,Target,0,49,49,49,1730.0283781408107,1732.030389248257,right,1,3,1.0069896329641779,N06L10,2022-11-14_11h59.04.238,t1_Paradigm,2021.1.4,59.98999264848032,
K,left,Distractor,0,50,50,50,1733.5283178300433,1735.5290685066157,left,1,3,0.6441093703688239,N06L10,2022-11-14_11h59.04.238,t1_Paradigm,2021.1.4,59.98999264848032,
Y,left,Distractor,0,51,51,51,1737.0282937698976,1739.0291916945644,left,1,3,0.5840327885252918,N06L10,2022-11-14_11h59.04.238,t1_Paradigm,2021.1.4,59.98999264848032,
X,left,Distractor,0,52,52,52,1740.5280541308384,1742.5295333486465,left,1,3,0.6197085321782652,N06L10,2022-11-14_11h59.04.238,t1_Paradigm,2021.1.4,59.98999264848032,
F,left,Pretarget,0,53,53,53,1744.0283274541016,1746.0302269224685,left,1,3,0.5590920406466466,N06L10,2022-11-14_11h59.04.238,t1_Paradigm,2021.1.4,59.98999264848032,
M,left,Lure,0,54,54,54,1747.5281564666602,1749.5295375190708,left,1,3,0.6119002126270061,N06L10,2022-11-14_11h59.04.238,t1_Paradigm,2021.1.4,59.98999264848032,
V,left,Distractor,0,55,55,55,1751.0282790130077,1753.0301425515554,left,1,3,0.9191421884079318,N06L10,2022-11-14_11h59.04.238,t1_Paradigm,2021.1.4,59.98999264848032,
F,right,Target,0,56,56,56,1754.5282921658873,1756.5288141106666,right,1,3,0.7807007469546079,N06L10,2022-11-14_11h59.04.238,t1_Paradigm,2021.1.4,59.98999264848032,
S,left,Distractor,0,57,57,57,1758.0279790631812,1760.0300373285154,left,1,3,0.9912507683202421,N06L10,2022-11-14_11h59.04.238,t1_Paradigm,2021.1.4,59.98999264848032,
D,left,Distractor,0,58,58,58,1761.528216456627,1763.5294348624466,left,1,3,0.7717891894881177,N06L10,2022-11-14_11h59.04.238,t1_Paradigm,2021.1.4,59.98999264848032,
F,right,Target,0,59,59,59,1765.0282257598828,1767.0297033736806,right,1,3,0.45567383167144726,N06L10,2022-11-14_11h59.04.238,t1_Paradigm,2021.1.4,59.98999264848032,
V,left,Pretarget,0,60,60,60,1768.5282860706502,1770.5293944414007,left,1,3,1.324008369081639,N06L10,2022-11-14_11h59.04.238,t1_Paradigm,2021.1.4,59.98999264848032,
J,left,Distractor,0,61,61,61,1772.028249499228,1774.0298782107457,left,1,3,0.6874064060284582,N06L10,2022-11-14_11h59.04.238,t1_Paradigm,2021.1.4,59.98999264848032,
V,left,Lure,0,62,62,62,1775.5282020205377,1777.5288981607773,right,0,3,1.2522837891083327,N06L10,2022-11-14_11h59.04.238,t1_Paradigm,2021.1.4,59.98999264848032,
V,right,Target,0,63,63,63,1779.0280127473852,1781.02813336892,right,1,3,0.889226123030312,N06L10,2022-11-14_11h59.04.238,t1_Paradigm,2021.1.4,59.98999264848032,
R,left,Distractor,0,0,0,0,1841.0419987501555,1843.0467337869904,left,1,4,0.34232423581852345,N06L10,2022-11-14_11h59.04.238,t1_Paradigm,2021.1.4,59.98999264848032,
F,left,Distractor,0,1,1,1,1844.5447268499684,1846.5460139074057,left,1,4,0.49129856781109993,N06L10,2022-11-14_11h59.04.238,t1_Paradigm,2021.1.4,59.98999264848032,
P,left,Pretarget,0,2,2,2,1848.0448907797672,1850.046325726904,left,1,4,0.5110917275451357,N06L10,2022-11-14_11h59.04.238,t1_Paradigm,2021.1.4,59.98999264848032,
H,left,Distractor,0,3,3,3,1851.544993115589,1853.5459288948878,left,1,4,0.6273458642845071,N06L10,2022-11-14_11h59.04.238,t1_Paradigm,2021.1.4,59.98999264848032,
Z,left,Distractor,0,4,4,4,1855.0449158023184,1857.047190929774,left,1,4,0.7741820512601407,N06L10,2022-11-14_11h59.04.238,t1_Paradigm,2021.1.4,59.98999264848032,
T,left,Distractor,0,5,5,5,1858.5448911005678,1860.546279210621,left,1,4,0.6988930407806038,N06L10,2022-11-14_11h59.04.238,t1_Paradigm,2021.1.4,59.98999264848032,
P,right,Target,0,6,6,6,1862.0447586093615,1864.047020263135,right,1,4,0.7822187818001112,N06L10,2022-11-14_11h59.04.238,t1_Paradigm,2021.1.4,59.98999264848032,
G,left,Distractor,0,7,7,7,1865.544913556705,1867.5453030102763,left,1,4,0.6600955733174487,N06L10,2022-11-14_11h59.04.238,t1_Paradigm,2021.1.4,59.98999264848032,
L,left,Distractor,0,8,8,8,1869.0449353712374,1871.0466859874978,left,1,4,0.7746972591958183,N06L10,2022-11-14_11h59.04.238,t1_Paradigm,2021.1.4,59.98999264848032,
P,left,Lure,0,9,9,9,1872.5448445842849,1874.5469843333158,right,0,4,0.8105876193549193,N06L10,2022-11-14_11h59.04.238,t1_Paradigm,2021.1.4,59.98999264848032,
Q,left,Pretarget,0,10,10,10,1876.0448015968232,1878.0467783784607,left,1,4,0.7189694686367147,N06L10,2022-11-14_11h59.04.238,t1_Paradigm,2021.1.4,59.98999264848032,
D,left,Distractor,0,11,11,11,1879.5449267095846,1881.5464444236277,left,1,4,0.6749256060265907,N06L10,2022-11-14_11h59.04.238,t1_Paradigm,2021.1.4,59.98999264848032,
M,left,Pretarget,0,12,12,12,1883.0449312008132,1885.0470176967192,left,1,4,0.5502071097416774,N06L10,2022-11-14_11h59.04.238,t1_Paradigm,2021.1.4,59.98999264848032,
C,left,Distractor,0,13,13,13,1886.544777857478,1888.5467575263337,left,1,4,0.9864977665765764,N06L10,2022-11-14_11h59.04.238,t1_Paradigm,2021.1.4,59.98999264848032,
Q,right,Target,0,14,14,14,1890.0447467396898,1892.0462452056145,right,1,4,0.7030833558965242,N06L10,2022-11-14_11h59.04.238,t1_Paradigm,2021.1.4,59.98999264848032,
R,left,Distractor,0,15,15,15,1893.544882438915,1895.545593656847,left,1,4,0.9154494371214241,N06L10,2022-11-14_11h59.04.238,t1_Paradigm,2021.1.4,59.98999264848032,
M,right,Target,0,16,16,16,1897.044635421411,1899.0455580478301,left,0,4,0.5676680392716662,N06L10,2022-11-14_11h59.04.238,t1_Paradigm,2021.1.4,59.98999264848032,
S,left,Distractor,0,17,17,17,1900.5448282233847,1902.5468896967395,left,1,4,1.0503373553328856,N06L10,2022-11-14_11h59.04.238,t1_Paradigm,2021.1.4,59.98999264848032,
Z,left,Distractor,0,18,18,18,1904.044825656969,1906.04642838353,left,1,4,0.8308947038149199,N06L10,2022-11-14_11h59.04.238,t1_Paradigm,2021.1.4,59.98999264848032,
L,left,Pretarget,0,19,19,19,1907.5448333562163,1909.5456632708701,left,1,4,0.6435941624313273,N06L10,2022-11-14_11h59.04.238,t1_Paradigm,2021.1.4,59.98999264848032,
M,right,Target,0,20,20,20,1911.0449915115805,1913.0464040025818,right,1,4,0.9191813262459618,N06L10,2022-11-14_11h59.04.238,t1_Paradigm,2021.1.4,59.98999264848032,
P,left,Distractor,0,21,21,21,1914.544934408832,1916.5466968947658,left,1,4,0.6824769632130483,N06L10,2022-11-14_11h59.04.238,t1_Paradigm,2021.1.4,59.98999264848032,
F,left,Distractor,0,22,22,22,1918.0448288649895,1920.0462824186416,left,1,4,0.6550304312731896,N06L10,2022-11-14_11h59.04.238,t1_Paradigm,2021.1.4,59.98999264848032,
L,right,Target,0,23,23,23,1921.545010759697,1923.546335992567,right,1,4,0.6428787740751432,N06L10,2022-11-14_11h59.04.238,t1_Paradigm,2021.1.4,59.98999264848032,
L,left,Lure,0,24,24,24,1925.0448888549545,1927.0447422484613,right,0,4,0.9844731854482234,N06L10,2022-11-14_11h59.04.238,t1_Paradigm,2021.1.4,59.98999264848032,
V,left,Pretarget,0,25,25,25,1928.5451756519014,1930.5467950601633,left,1,4,0.778654992896918,N06L10,2022-11-14_11h59.04.238,t1_Paradigm,2021.1.4,59.98999264848032,
Z,left,Distractor,0,26,26,26,1932.0448195617319,1934.0463071203922,right,0,4,0.815200109842408,N06L10,2022-11-14_11h59.04.238,t1_Paradigm,2021.1.4,59.98999264848032,
H,left,Distractor,0,27,27,27,1935.54483720584,1937.5462182582505,left,1,4,0.6270686913976533,N06L10,2022-11-14_11h59.04.238,t1_Paradigm,2021.1.4,59.98999264848032,
X,left,Distractor,0,28,28,28,1939.0448747396695,1941.0469654059998,left,1,4,0.4862905285153829,N06L10,2022-11-14_11h59.04.238,t1_Paradigm,2021.1.4,59.98999264848032,
V,right,Target,0,29,29,29,1942.5449206143476,1944.5452221681844,right,1,4,1.0040247813085443,N06L10,2022-11-14_11h59.04.238,t1_Paradigm,2021.1.4,59.98999264848032,
C,left,Distractor,0,30,30,30,1946.0616571730661,1948.0468829598976,right,0,4,1.006477312243078,N06L10,2022-11-14_11h59.04.238,t1_Paradigm,2021.1.4,59.98999264848032,
S,left,Pretarget,0,31,31,31,1949.5448532459377,1951.5455115315472,left,1,4,0.4996217744974274,N06L10,2022-11-14_11h59.04.238,t1_Paradigm,2021.1.4,59.98999264848032,
D,left,Distractor,0,32,32,32,1953.044908103071,1955.0467462982651,left,1,4,0.37455103766660613,N06L10,2022-11-14_11h59.04.238,t1_Paradigm,2021.1.4,59.98999264848032,
V,left,Distractor,0,33,33,33,1956.5448416970667,1958.5462727945815,left,1,4,0.42686806185520254,N06L10,2022-11-14_11h59.04.238,t1_Paradigm,2021.1.4,59.98999264848032,
R,left,Distractor,0,34,34,34,1960.044692844962,1962.0468848847104,left,1,4,0.7983714809633966,N06L10,2022-11-14_11h59.04.238,t1_Paradigm,2021.1.4,59.98999264848032,
S,right,Target,0,35,35,35,1963.544907461468,1965.546023531464,right,1,4,0.8029493248395738,N06L10,2022-11-14_11h59.04.238,t1_Paradigm,2021.1.4,59.98999264848032,
Y,left,Distractor,0,36,36,36,1967.044868965233,1969.0466410752251,left,1,4,0.7425400713709678,N06L10,2022-11-14_11h59.04.238,t1_Paradigm,2021.1.4,59.98999264848032,
N,left,Pretarget,0,37,37,37,1970.5445850555043,1972.5468162330908,left,1,4,0.7144634843971289,N06L10,2022-11-14_11h59.04.238,t1_Paradigm,2021.1.4,59.98999264848032,
Z,left,Pretarget,0,38,38,38,1974.0448105792784,1976.045514739566,left,1,4,1.039790028706193,N06L10,2022-11-14_11h59.04.238,t1_Paradigm,2021.1.4,59.98999264848032,
P,left,Pretarget,0,39,39,39,1977.5447608549748,1979.5456350402983,left,1,4,0.6598418189714721,N06L10,2022-11-14_11h59.04.238,t1_Paradigm,2021.1.4,59.98999264848032,
M,left,Distractor,0,40,40,40,1981.044860945185,1983.0462984587393,left,1,4,1.0791819421865512,N06L10,2022-11-14_11h59.04.238,t1_Paradigm,2021.1.4,59.98999264848032,
N,right,Target,0,41,41,41,1984.5448301481974,1986.5471023884347,right,1,4,0.7463075695141015,N06L10,2022-11-14_11h59.04.238,t1_Paradigm,2021.1.4,59.98999264848032,
Z,right,Target,0,42,42,42,1988.0446578775482,1990.0466696265994,right,1,4,0.6386814013148978,N06L10,2022-11-14_11h59.04.238,t1_Paradigm,2021.1.4,59.98999264848032,
P,right,Target,0,43,43,43,1991.5446334966,1993.5466353007905,right,1,4,0.4665217497313279,N06L10,2022-11-14_11h59.04.238,t1_Paradigm,2021.1.4,59.98999264848032,
X,left,Pretarget,0,44,44,44,1995.0446405542425,1997.046386679276,left,1,4,0.6470212897002057,N06L10,2022-11-14_11h59.04.238,t1_Paradigm,2021.1.4,59.98999264848032,
Z,left,Lure,0,45,45,45,1998.5448814765095,2000.5468874511262,left,1,4,1.1946302244195977,N06L10,2022-11-14_11h59.04.238,t1_Paradigm,2021.1.4,59.98999264848032,
R,left,Pretarget,0,46,46,46,2002.044861586788,2004.046461426131,right,0,4,1.3108330328486772,N06L10,2022-11-14_11h59.04.238,t1_Paradigm,2021.1.4,59.98999264848032,
K,left,Distractor,0,47,47,47,2005.545007872479,2007.5457633610804,left,1,4,0.595514932047081,N06L10,2022-11-14_11h59.04.238,t1_Paradigm,2021.1.4,59.98999264848032,
X,right,Target,0,48,48,48,2009.04479133116,2011.0464168346589,left,0,4,0.6949882394001179,N06L10,2022-11-14_11h59.04.238,t1_Paradigm,2021.1.4,59.98999264848032,
B,left,Distractor,0,49,49,49,2012.5446453662717,2014.5459760527756,left,1,4,0.9393668267694011,N06L10,2022-11-14_11h59.04.238,t1_Paradigm,2021.1.4,59.98999264848032,
R,right,Target,0,50,50,50,2016.0445818474855,2018.0576728128035,left,0,4,0.5955662603591918,N06L10,2022-11-14_11h59.04.238,t1_Paradigm,2021.1.4,59.98999264848032,
Y,left,Pretarget,0,51,51,51,2019.5448019176256,2021.5449382584557,left,1,4,0.8521189610637521,N06L10,2022-11-14_11h59.04.238,t1_Paradigm,2021.1.4,59.98999264848032,
W,left,Pretarget,0,52,52,52,2023.04468610812,2025.0471379974515,left,1,4,0.6462359665183612,N06L10,2022-11-14_11h59.04.238,t1_Paradigm,2021.1.4,59.98999264848032,
Z,left,Distractor,0,53,53,53,2026.5448580579668,2028.546869807018,right,0,4,0.9544364985358698,N06L10,2022-11-14_11h59.04.238,t1_Paradigm,2021.1.4,59.98999264848032,
Q,left,Distractor,0,54,54,54,2030.0445831306934,2032.0468665989974,left,1,4,0.606466789940896,N06L10,2022-11-14_11h59.04.238,t1_Paradigm,2021.1.4,59.98999264848032,
Y,right,Target,0,55,55,55,2033.54495205294,2035.5464354411724,left,0,4,0.882734374699794,N06L10,2022-11-14_11h59.04.238,t1_Paradigm,2021.1.4,59.98999264848032,
W,right,Target,0,56,56,56,2037.0448814765095,2039.045284082962,right,1,4,0.8080333941998106,N06L10,2022-11-14_11h59.04.238,t1_Paradigm,2021.1.4,59.98999264848032,
H,left,Pretarget,0,57,57,57,2040.5448214865446,2042.5450691456517,left,1,4,0.9402217639744777,N06L10,2022-11-14_11h59.04.238,t1_Paradigm,2021.1.4,59.98999264848032,
M,left,Distractor,0,58,58,58,2044.0446851457145,2046.0464194010747,left,1,4,0.5908924966988707,N06L10,2022-11-14_11h59.04.238,t1_Paradigm,2021.1.4,59.98999264848032,
R,left,Pretarget,0,59,59,59,2047.544783311112,2049.5458490152014,left,1,4,0.6596198240204103,N06L10,2022-11-14_11h59.04.238,t1_Paradigm,2021.1.4,59.98999264848032,
J,left,Distractor,0,60,60,60,2051.0448955917964,2053.057589404296,left,1,4,0.7316674515623163,N06L10,2022-11-14_11h59.04.238,t1_Paradigm,2021.1.4,59.98999264848032,
H,right,Target,0,61,61,61,2054.5448019176256,2056.546833877199,right,1,4,0.986374257825446,N06L10,2022-11-14_11h59.04.238,t1_Paradigm,2021.1.4,59.98999264848032,
Z,left,Distractor,0,62,62,62,2058.0445635617743,2060.0465259073244,left,1,4,1.0706816528236232,N06L10,2022-11-14_11h59.04.238,t1_Paradigm,2021.1.4,59.98999264848032,
R,right,Target,0,63,63,63,2061.5448314314053,2063.546776774452,right,1,4,0.8021790793500259,N06L10,2022-11-14_11h59.04.238,t1_Paradigm,2021.1.4,59.98999264848032,
J,left,Pretarget,0,0,0,0,2069.2078668338254,2071.196590003554,left,1,4,0.7206597741296719,N06L10,2022-11-14_11h59.04.238,t1_Paradigm,2021.1.4,59.98999264848032,
G,left,Pretarget,0,1,1,1,2072.694665512634,2074.6964177329046,left,1,4,0.34084245159465354,N06L10,2022-11-14_11h59.04.238,t1_Paradigm,2021.1.4,59.98999264848032,
Z,left,Distractor,0,2,2,2,2076.1948554273913,2078.196925562397,left,1,4,0.744378266565036,N06L10,2022-11-14_11h59.04.238,t1_Paradigm,2021.1.4,59.98999264848032,
F,left,Distractor,0,3,3,3,2079.6949529511858,2081.693941462625,left,1,4,0.7670932904911751,N06L10,2022-11-14_11h59.04.238,t1_Paradigm,2021.1.4,59.98999264848032,
J,right,Target,0,4,4,4,2083.194856710599,2085.1960180136703,left,0,4,0.6733119722011907,N06L10,2022-11-14_11h59.04.238,t1_Paradigm,2021.1.4,59.98999264848032,
G,right,Target,0,5,5,5,2086.694770735676,2088.6956571114733,right,1,4,1.0620504762628116,N06L10,2022-11-14_11h59.04.238,t1_Paradigm,2021.1.4,59.98999264848032,
H,left,Distractor,0,6,6,6,2090.194780359734,2092.196865572432,left,1,4,0.7125271238037385,N06L10,2022-11-14_11h59.04.238,t1_Paradigm,2021.1.4,59.98999264848032,
P,left,Distractor,0,7,7,7,2093.6949218333957,2095.6962653519768,left,1,4,0.6687379779468756,N06L10,2022-11-14_11h59.04.238,t1_Paradigm,2021.1.4,59.98999264848032,
G,left,Lure,0,8,8,8,2097.1945679888413,2099.196172961014,right,0,4,0.9770276929084503,N06L10,2022-11-14_11h59.04.238,t1_Paradigm,2021.1.4,59.98999264848032,
S,left,Distractor,0,9,9,9,2100.694822063988,2102.6963920687485,left,1,4,0.5648966311946424,N06L10,2022-11-14_11h59.04.238,t1_Paradigm,2021.1.4,59.98999264848032,
R,left,Pretarget,0,10,10,10,2104.1948695426763,2106.1966807905064,left,1,4,1.0646598793518933,N06L10,2022-11-14_11h59.04.238,t1_Paradigm,2021.1.4,59.98999264848032,
T,left,Pretarget,0,11,11,11,2107.6946590965963,2109.6955271866827,left,1,4,1.0056602296681376,N06L10,2022-11-14_11h59.04.238,t1_Paradigm,2021.1.4,59.98999264848032,
X,left,Distractor,0,12,12,12,2111.194801853464,2113.196642615074,left,1,4,0.6246995689707546,N06L10,2022-11-14_11h59.04.238,t1_Paradigm,2021.1.4,59.98999264848032,
F,left,Pretarget,0,13,13,13,2114.69475180836,2116.6967760686875,left,1,4,0.7564089814295585,N06L10,2022-11-14_11h59.04.238,t1_Paradigm,2021.1.4,59.98999264848032,
R,right,Target,0,14,14,14,2118.194804099079,2120.19642831937,right,1,4,1.2568834475168842,N06L10,2022-11-14_11h59.04.238,t1_Paradigm,2021.1.4,59.98999264848032,
T,right,Target,0,15,15,15,2121.6948413121045,2123.695895788127,left,0,4,0.7012326494277659,N06L10,2022-11-14_11h59.04.238,t1_Paradigm,2021.1.4,59.98999264848032,
C,left,Distractor,0,16,16,16,2125.1945464951095,2127.196262143958,left,1,4,1.1529679955128813,N06L10,2022-11-14_11h59.04.238,t1_Paradigm,2021.1.4,59.98999264848032,
F,right,Target,0,17,17,17,2128.6947813221395,2130.696155637708,left,0,4,1.0292382108491438,N06L10,2022-11-14_11h59.04.238,t1_Paradigm,2021.1.4,59.98999264848032,
M,left,Distractor,0,18,18,18,2132.194743146707,2134.1963333619915,left,1,4,0.665105858228344,N06L10,2022-11-14_11h59.04.238,t1_Paradigm,2021.1.4,59.98999264848032,
N,left,Distractor,0,19,19,19,2135.694834254462,2137.696449171497,left,1,4,0.5408884545959154,N06L10,2022-11-14_11h59.04.238,t1_Paradigm,2021.1.4,59.98999264848032,
R,left,Lure,0,20,20,20,2139.194746675528,2141.196325662744,left,1,4,0.8970636355588795,N06L10,2022-11-14_11h59.04.238,t1_Paradigm,2021.1.4,59.98999264848032,
F,right,Target,0,21,21,21,2142.6947611116175,2144.69676836944,right,1,4,0.7082059214899346,N06L10,2022-11-14_11h59.04.238,t1_Paradigm,2021.1.4,59.98999264848032,
P,left,Distractor,0,22,22,22,2146.211491575099,2148.1963895023327,left,1,4,0.665050680292552,N06L10,2022-11-14_11h59.04.238,t1_Paradigm,2021.1.4,59.98999264848032,
L,left,Pretarget,0,23,23,23,2149.6947813221395,2151.696196058754,left,1,4,0.6687825694189087,N06L10,2022-11-14_11h59.04.238,t1_Paradigm,2021.1.4,59.98999264848032,
T,left,Distractor,0,24,24,24,2153.1948522193707,2155.1967160787226,left,1,4,0.6725997918638313,N06L10,2022-11-14_11h59.04.238,t1_Paradigm,2021.1.4,59.98999264848032,
F,left,Distractor,0,25,25,25,2156.694823988799,2158.6963516477026,left,1,4,1.0768121781547961,N06L10,2022-11-14_11h59.04.238,t1_Paradigm,2021.1.4,59.98999264848032,
V,left,Distractor,0,26,26,26,2160.194841632907,2162.1937743248072,left,1,4,0.619388051025453,N06L10,2022-11-14_11h59.04.238,t1_Paradigm,2021.1.4,59.98999264848032,
L,right,Target,0,27,27,27,2163.694763357231,2165.6959413420045,left,0,4,0.68500809062607,N06L10,2022-11-14_11h59.04.238,t1_Paradigm,2021.1.4,59.98999264848032,
S,left,Pretarget,0,28,28,28,2167.1947672068545,2169.1956006503297,left,1,4,0.5137806895181711,N06L10,2022-11-14_11h59.04.238,t1_Paradigm,2021.1.4,59.98999264848032,
W,left,Distractor,0,29,29,29,2170.694743788312,2172.693788440094,left,1,4,0.5674617636159383,N06L10,2022-11-14_11h59.04.238,t1_Paradigm,2021.1.4,59.98999264848032,
Q,left,Distractor,0,30,30,30,2174.194728389817,2176.19563850496,left,1,4,0.617516492429786,N06L10,2022-11-14_11h59.04.238,t1_Paradigm,2021.1.4,59.98999264848032,
L,right,Target,0,31,31,31,2177.694610976303,2179.6966807905064,right,1,4,0.8286741126939887,N06L10,2022-11-14_11h59.04.238,t1_Paradigm,2021.1.4,59.98999264848032,
S,right,Target,0,32,32,32,2181.194491637976,2183.1964433970606,right,1,4,0.8649401319398748,N06L10,2022-11-14_11h59.04.238,t1_Paradigm,2021.1.4,59.98999264848032,
Z,left,Pretarget,0,33,33,33,2184.694727106609,2186.6971680886745,left,1,4,0.772088497709774,N06L10,2022-11-14_11h59.04.238,t1_Paradigm,2021.1.4,59.98999264848032,
F,left,Distractor,0,34,34,34,2188.1947386554803,2190.196170394598,right,0,4,0.8891231456036621,N06L10,2022-11-14_11h59.04.238,t1_Paradigm,2021.1.4,59.98999264848032,
V,left,Distractor,0,35,35,35,2191.6947104249084,2193.696964700235,left,1,4,1.1162226981487038,N06L10,2022-11-14_11h59.04.238,t1_Paradigm,2021.1.4,59.98999264848032,
M,left,Distractor,0,36,36,36,2195.194779718129,2197.196809432091,left,1,4,1.1044691561746731,N06L10,2022-11-14_11h59.04.238,t1_Paradigm,2021.1.4,59.98999264848032,
Z,right,Target,0,37,37,37,2198.694624449985,2200.6965264847677,right,1,4,0.8846793969423743,N06L10,2022-11-14_11h59.04.238,t1_Paradigm,2021.1.4,59.98999264848032,
H,left,Pretarget,0,38,38,38,2202.194781001337,2204.1966997178224,left,1,4,0.6164803021183616,N06L10,2022-11-14_11h59.04.238,t1_Paradigm,2021.1.4,59.98999264848032,
L,left,Distractor,0,39,39,39,2205.6948948860318,2207.6955682493317,left,1,4,0.6054575469934207,N06L10,2022-11-14_11h59.04.238,t1_Paradigm,2021.1.4,59.98999264848032,
G,left,Distractor,0,40,40,40,2209.1945243597747,2211.1966384446496,left,1,4,0.6886405311452108,N06L10,2022-11-14_11h59.04.238,t1_Paradigm,2021.1.4,59.98999264848032,
K,left,Distractor,0,41,41,41,2212.694689893584,2214.695967326963,left,1,4,0.645420808754352,N06L10,2022-11-14_11h59.04.238,t1_Paradigm,2021.1.4,59.98999264848032,
H,right,Target,0,42,42,42,2216.1946382444694,2218.196298073777,right,1,4,0.9688985714037699,N06L10,2022-11-14_11h59.04.238,t1_Paradigm,2021.1.4,59.98999264848032,
B,left,Distractor,0,43,43,43,2219.6947543747756,2221.6964305649835,left,1,4,0.6206876197393285,N06L10,2022-11-14_11h59.04.238,t1_Paradigm,2021.1.4,59.98999264848032,
Z,left,Distractor,0,44,44,44,2223.1947646404387,2225.1962185148914,right,0,4,0.8329609891989094,N06L10,2022-11-14_11h59.04.238,t1_Paradigm,2021.1.4,59.98999264848032,
T,left,Pretarget,0,45,45,45,2226.694558364783,2228.6961646201635,left,1,4,0.7087894602445886,N06L10,2022-11-14_11h59.04.238,t1_Paradigm,2021.1.4,59.98999264848032,
H,right,Target,0,46,46,46,2230.194821422385,2232.1966438982818,right,1,4,0.7605713867760642,N06L10,2022-11-14_11h59.04.238,t1_Paradigm,2021.1.4,59.98999264848032,
F,left,Distractor,0,47,47,47,2233.6947665652497,2235.6963125098646,right,0,4,0.7974276816148631,N06L10,2022-11-14_11h59.04.238,t1_Paradigm,2021.1.4,59.98999264848032,
R,left,Distractor,0,48,48,48,2237.1938048009924,2239.1939459538535,left,1,4,0.4994260853054584,N06L10,2022-11-14_11h59.04.238,t1_Paradigm,2021.1.4,59.98999264848032,
T,right,Target,0,49,49,49,2240.6948393872935,2242.69619349234,left,0,4,0.6928035780965729,N06L10,2022-11-14_11h59.04.238,t1_Paradigm,2021.1.4,59.98999264848032,
H,right,Target,0,50,50,50,2244.194787738179,2246.1958386853785,left,0,4,0.7454843917021208,N06L10,2022-11-14_11h59.04.238,t1_Paradigm,2021.1.4,59.98999264848032,
Y,left,Pretarget,0,51,51,51,2247.6943873773416,2249.695537452344,left,1,4,0.8776246411816828,N06L10,2022-11-14_11h59.04.238,t1_Paradigm,2021.1.4,59.98999264848032,
H,left,Distractor,0,52,52,52,2251.1947935126136,2253.195968610169,right,0,4,0.8173405004763481,N06L10,2022-11-14_11h59.04.238,t1_Paradigm,2021.1.4,59.98999264848032,
S,left,Distractor,0,53,53,53,2254.694782284545,2256.696139918413,left,1,4,0.6928430367352121,N06L10,2022-11-14_11h59.04.238,t1_Paradigm,2021.1.4,59.98999264848032,
Q,left,Distractor,0,54,54,54,2258.1945176229347,2260.1966114972856,left,1,4,0.8246544642152003,N06L10,2022-11-14_11h59.04.238,t1_Paradigm,2021.1.4,59.98999264848032,
Y,right,Target,0,55,55,55,2261.694642735696,2263.6965345048156,right,1,4,1.020670553076343,N06L10,2022-11-14_11h59.04.238,t1_Paradigm,2021.1.4,59.98999264848032,
R,left,Distractor,0,56,56,56,2265.1946087306897,2267.196742705284,left,1,4,0.5923890378107899,N06L10,2022-11-14_11h59.04.238,t1_Paradigm,2021.1.4,59.98999264848032,
H,left,Pretarget,0,57,57,57,2268.6946347156463,2270.6968800085197,right,0,4,1.0284868926737545,N06L10,2022-11-14_11h59.04.238,t1_Paradigm,2021.1.4,59.98999264848032,
J,left,Distractor,0,58,58,58,2272.1946982344343,2274.196271447214,left,1,4,0.5848883673352248,N06L10,2022-11-14_11h59.04.238,t1_Paradigm,2021.1.4,59.98999264848032,
V,left,Distractor,0,59,59,59,2275.694656209378,2277.6950966704608,left,1,4,0.6380125292416778,N06L10,2022-11-14_11h59.04.238,t1_Paradigm,2021.1.4,59.98999264848032,
Y,left,Lure,0,60,60,60,2279.194806665495,2281.1964068256384,right,0,4,1.072862464503487,N06L10,2022-11-14_11h59.04.238,t1_Paradigm,2021.1.4,59.98999264848032,
H,right,Target,0,61,61,61,2282.694642735696,2284.6965681890215,left,0,4,1.02881507307211,N06L10,2022-11-14_11h59.04.238,t1_Paradigm,2021.1.4,59.98999264848032,
L,left,Distractor,0,62,62,62,2286.1947258234013,2288.1948932820214,left,1,4,0.9063306415901025,N06L10,2022-11-14_11h59.04.238,t1_Paradigm,2021.1.4,59.98999264848032,
P,left,Distractor,0,63,63,63,2289.69486665546,2291.696633953421,left,1,4,0.6523238251920702,N06L10,2022-11-14_11h59.04.238,t1_Paradigm,2021.1.4,59.98999264848032,
