Letter,CorrAnswer,Stimulus,nback_run.thisRepN,nback_run.thisTrialN,nback_run.thisN,nback_run.thisIndex,fixcross.started,nback_trial.started,trial_resp.keys,trial_resp.corr,currentlevel,trial_resp.rt,Participant,date,expName,psychopyVersion,frameRate,
H,left,Distractor,0,0,0,0,48.40961672028061,50.39137488271808,None,0,1,,N13B03,2022-12-09_09h19.23.211,t1_Paradigm,2021.1.4,59.96827650352196,
Q,left,Pretarget,0,1,1,1,51.891832508612424,53.89223928717547,left,1,1,0.6060404051822843,N13B03,2022-12-09_09h19.23.211,t1_Paradigm,2021.1.4,59.96827650352196,
Q,right,Target,0,2,2,2,55.3878515001561,57.38791886885883,left,0,1,0.5032598426478216,N13B03,2022-12-09_09h19.23.211,t1_Paradigm,2021.1.4,59.96827650352196,
T,left,Distractor,0,3,3,3,58.887672652330366,60.888972226457554,left,1,1,0.7499482704588445,N13B03,2022-12-09_09h19.23.211,t1_Paradigm,2021.1.4,59.96827650352196,
Q,left,Lure,0,4,4,4,62.38713803363498,64.38907055267191,left,1,1,0.5739177299983567,N13B03,2022-12-09_09h19.23.211,t1_Paradigm,2021.1.4,59.96827650352196,
L,left,Distractor,0,5,5,5,65.8865552944626,67.8891656708438,right,0,1,1.135030917415861,N13B03,2022-12-09_09h19.23.211,t1_Paradigm,2021.1.4,59.96827650352196,
V,left,Pretarget,0,6,6,6,69.38600848524948,71.38785085856216,left,1,1,0.6832263187097851,N13B03,2022-12-09_09h19.23.211,t1_Paradigm,2021.1.4,59.96827650352196,
V,right,Target,0,7,7,7,72.8848553578282,74.88520695823536,right,1,1,0.5502726025879383,N13B03,2022-12-09_09h19.23.211,t1_Paradigm,2021.1.4,59.96827650352196,
K,left,Distractor,0,8,8,8,76.38485904705885,78.38744215515908,left,1,1,0.5106671906396514,N13B03,2022-12-09_09h19.23.211,t1_Paradigm,2021.1.4,59.96827650352196,
G,left,Pretarget,0,9,9,9,79.8844726394891,81.88736051072192,left,1,1,0.7057832813297864,N13B03,2022-12-09_09h19.23.211,t1_Paradigm,2021.1.4,59.96827650352196,
G,right,Target,0,10,10,10,83.3837971881585,85.38304426283867,right,1,1,0.6481878624181263,N13B03,2022-12-09_09h19.23.211,t1_Paradigm,2021.1.4,59.96827650352196,
G,right,Target,0,11,11,11,86.88307425794483,88.88280542478606,right,1,1,0.4193822932575131,N13B03,2022-12-09_09h19.23.211,t1_Paradigm,2021.1.4,59.96827650352196,
P,left,Pretarget,0,12,12,12,90.38249440600339,92.38422257332422,left,1,1,0.4748809418815654,N13B03,2022-12-09_09h19.23.211,t1_Paradigm,2021.1.4,59.96827650352196,
P,right,Target,0,13,13,13,93.88199283005088,95.88160177084501,right,1,1,0.7291573299444281,N13B03,2022-12-09_09h19.23.211,t1_Paradigm,2021.1.4,59.96827650352196,
G,left,Lure,0,14,14,14,97.38145660735609,99.38314948632615,left,1,1,0.5922153873252682,N13B03,2022-12-09_09h19.23.211,t1_Paradigm,2021.1.4,59.96827650352196,
Y,left,Distractor,0,15,15,15,100.88088509628142,102.88313264414319,left,1,1,0.563475903662038,N13B03,2022-12-09_09h19.23.211,t1_Paradigm,2021.1.4,59.96827650352196,
B,left,Distractor,0,16,16,16,104.38014676750754,106.38158492866205,left,1,1,0.5114207575825276,N13B03,2022-12-09_09h19.23.211,t1_Paradigm,2021.1.4,59.96827650352196,
T,left,Pretarget,0,17,17,17,107.87975041504251,109.89174460851063,left,1,1,0.5207291858823737,N13B03,2022-12-09_09h19.23.211,t1_Paradigm,2021.1.4,59.96827650352196,
T,right,Target,0,18,18,18,111.37927193693758,113.3789716650499,right,1,1,0.5783486650616396,N13B03,2022-12-09_09h19.23.211,t1_Paradigm,2021.1.4,59.96827650352196,
S,left,Distractor,0,19,19,19,114.87835588313465,116.88128962923656,left,1,1,0.4569637572421925,N13B03,2022-12-09_09h19.23.211,t1_Paradigm,2021.1.4,59.96827650352196,
T,left,Lure,0,20,20,20,118.3781558622868,120.39016288788116,left,1,1,0.6308862992882496,N13B03,2022-12-09_09h19.23.211,t1_Paradigm,2021.1.4,59.96827650352196,
J,left,Distractor,0,21,21,21,121.87729434504581,123.87914698405075,left,1,1,0.4657402936863946,N13B03,2022-12-09_09h19.23.211,t1_Paradigm,2021.1.4,59.96827650352196,
P,left,Distractor,0,22,22,22,125.3769586244016,127.38896532918443,left,1,1,0.48421631766541395,N13B03,2022-12-09_09h19.23.211,t1_Paradigm,2021.1.4,59.96827650352196,
F,left,Distractor,0,23,23,23,128.87640219109016,130.87897407107812,left,1,1,0.4896664447733201,N13B03,2022-12-09_09h19.23.211,t1_Paradigm,2021.1.4,59.96827650352196,
L,left,Distractor,0,24,24,24,132.37564204770024,134.37761498794134,left,1,1,0.5436951727169799,N13B03,2022-12-09_09h19.23.211,t1_Paradigm,2021.1.4,59.96827650352196,
W,left,Pretarget,0,25,25,25,135.8751420757617,137.8780495159881,left,1,1,0.5382877124211518,N13B03,2022-12-09_09h19.23.211,t1_Paradigm,2021.1.4,59.96827650352196,
W,right,Target,0,26,26,26,139.37469984842755,141.37422570116178,right,1,1,0.42722368812246714,N13B03,2022-12-09_09h19.23.211,t1_Paradigm,2021.1.4,59.96827650352196,
V,left,Distractor,0,27,27,27,142.8742630747438,144.87276652739092,left,1,1,0.5589464819931891,N13B03,2022-12-09_09h19.23.211,t1_Paradigm,2021.1.4,59.96827650352196,
W,left,Lure,0,28,28,28,146.37351415946614,148.3755855863128,left,1,1,0.7474100748368073,N13B03,2022-12-09_09h19.23.211,t1_Paradigm,2021.1.4,59.96827650352196,
R,left,Pretarget,0,29,29,29,149.88993912757724,151.8912727068673,left,1,1,0.4909259185078554,N13B03,2022-12-09_09h19.23.211,t1_Paradigm,2021.1.4,59.96827650352196,
R,right,Target,0,30,30,30,153.38887807069113,155.3885364151938,right,1,1,0.3707456270494731,N13B03,2022-12-09_09h19.23.211,t1_Paradigm,2021.1.4,59.96827650352196,
G,left,Distractor,0,31,31,31,156.88851026972407,158.89036034230958,left,1,1,0.43752532340295147,N13B03,2022-12-09_09h19.23.211,t1_Paradigm,2021.1.4,59.96827650352196,
R,left,Lure,0,32,32,32,160.38776007122942,162.39002911291027,left,1,1,0.7594029850879451,N13B03,2022-12-09_09h19.23.211,t1_Paradigm,2021.1.4,59.96827650352196,
S,left,Distractor,0,33,33,33,163.88714974296454,165.88940402769367,left,1,1,0.5030850048497086,N13B03,2022-12-09_09h19.23.211,t1_Paradigm,2021.1.4,59.96827650352196,
R,left,Lure,0,34,34,34,167.3866747936845,169.38865607482148,left,1,1,0.6051681410172023,N13B03,2022-12-09_09h19.23.211,t1_Paradigm,2021.1.4,59.96827650352196,
P,left,Pretarget,0,35,35,35,170.8862569474004,172.88831554212084,left,1,1,0.5032678627321729,N13B03,2022-12-09_09h19.23.211,t1_Paradigm,2021.1.4,59.96827650352196,
P,right,Target,0,36,36,36,174.38448402800714,176.3856174260436,right,1,1,0.39578592796169687,N13B03,2022-12-09_09h19.23.211,t1_Paradigm,2021.1.4,59.96827650352196,
Y,left,Pretarget,0,37,37,37,177.88501800509403,179.88668169095763,left,1,1,0.5531341679597972,N13B03,2022-12-09_09h19.23.211,t1_Paradigm,2021.1.4,59.96827650352196,
Y,right,Target,0,38,38,38,181.38448531122413,183.38394892812357,left,0,1,0.47888841660460457,N13B03,2022-12-09_09h19.23.211,t1_Paradigm,2021.1.4,59.96827650352196,
J,left,Distractor,0,39,39,39,184.88326866473653,186.88587936192926,left,1,1,0.5374860250158235,N13B03,2022-12-09_09h19.23.211,t1_Paradigm,2021.1.4,59.96827650352196,
Y,left,Lure,0,40,40,40,188.38335159239068,190.38467298114847,left,1,1,0.6242796763108345,N13B03,2022-12-09_09h19.23.211,t1_Paradigm,2021.1.4,59.96827650352196,
T,left,Distractor,0,41,41,41,191.88265304322704,193.88409569562646,left,1,1,0.5348198288411368,N13B03,2022-12-09_09h19.23.211,t1_Paradigm,2021.1.4,59.96827650352196,
V,left,Distractor,0,42,42,42,195.382179377164,197.38435666910664,left,1,1,0.48973990873491857,N13B03,2022-12-09_09h19.23.211,t1_Paradigm,2021.1.4,59.96827650352196,
N,left,Pretarget,0,43,43,43,198.88157257773855,200.88491695205448,left,1,1,0.5910778188554104,N13B03,2022-12-09_09h19.23.211,t1_Paradigm,2021.1.4,59.96827650352196,
N,right,Target,0,44,44,44,202.3809866305237,204.38075789778668,right,1,1,0.4848630570922978,N13B03,2022-12-09_09h19.23.211,t1_Paradigm,2021.1.4,59.96827650352196,
N,right,Target,0,45,45,45,205.8798835484049,207.87917457314325,right,1,1,0.5151215443474939,N13B03,2022-12-09_09h19.23.211,t1_Paradigm,2021.1.4,59.96827650352196,
X,left,Distractor,0,46,46,46,209.37983366349363,211.38342216912133,left,1,1,0.4900767521758098,N13B03,2022-12-09_09h19.23.211,t1_Paradigm,2021.1.4,59.96827650352196,
Z,left,Distractor,0,47,47,47,212.87900294337305,214.88113756847451,left,1,1,0.8386609670706093,N13B03,2022-12-09_09h19.23.211,t1_Paradigm,2021.1.4,59.96827650352196,
H,left,Pretarget,0,48,48,48,216.37872817536118,218.3806979075598,left,1,1,0.468009656178765,N13B03,2022-12-09_09h19.23.211,t1_Paradigm,2021.1.4,59.96827650352196,
H,right,Target,0,49,49,49,219.87804823278566,221.87776977552858,right,1,1,0.4667017411557026,N13B03,2022-12-09_09h19.23.211,t1_Paradigm,2021.1.4,59.96827650352196,
K,left,Distractor,0,50,50,50,223.37755275209201,225.37865984425298,left,1,1,0.5348069967149058,N13B03,2022-12-09_09h19.23.211,t1_Paradigm,2021.1.4,59.96827650352196,
V,left,Pretarget,0,51,51,51,226.8768416915991,228.87860803453077,left,1,1,0.6124561502074357,N13B03,2022-12-09_09h19.23.211,t1_Paradigm,2021.1.4,59.96827650352196,
V,right,Target,0,52,52,52,230.37637444160646,232.37594937725225,right,1,1,0.545337043949985,N13B03,2022-12-09_09h19.23.211,t1_Paradigm,2021.1.4,59.96827650352196,
R,left,Distractor,0,53,53,53,233.87586677039508,235.87743036563916,left,1,1,0.46633249656588305,N13B03,2022-12-09_09h19.23.211,t1_Paradigm,2021.1.4,59.96827650352196,
V,left,Lure,0,54,54,54,237.3747229462606,239.3770612814551,left,1,1,0.4580753406480653,N13B03,2022-12-09_09h19.23.211,t1_Paradigm,2021.1.4,59.96827650352196,
Y,left,Distractor,0,55,55,55,240.87469230954594,242.87653211642464,left,1,1,0.6623179641755996,N13B03,2022-12-09_09h19.23.211,t1_Paradigm,2021.1.4,59.96827650352196,
Q,left,Distractor,0,56,56,56,244.37405246737762,246.37600455540814,left,1,1,0.46293422729650047,N13B03,2022-12-09_09h19.23.211,t1_Paradigm,2021.1.4,59.96827650352196,
Z,left,Pretarget,0,57,57,57,247.8902448531153,249.89226591384795,left,1,1,0.6255882329423912,N13B03,2022-12-09_09h19.23.211,t1_Paradigm,2021.1.4,59.96827650352196,
Z,right,Target,0,58,58,58,251.3895636273228,253.38927939561836,right,1,1,0.4290962169325212,N13B03,2022-12-09_09h19.23.211,t1_Paradigm,2021.1.4,59.96827650352196,
B,left,Distractor,0,59,59,59,254.888975755297,256.88794597673404,left,1,1,0.45464723667828366,N13B03,2022-12-09_09h19.23.211,t1_Paradigm,2021.1.4,59.96827650352196,
S,left,Pretarget,0,60,60,60,258.3885011268285,260.39058217777347,left,1,1,0.44802649835764896,N13B03,2022-12-09_09h19.23.211,t1_Paradigm,2021.1.4,59.96827650352196,
S,right,Target,0,61,61,61,261.8879110091657,263.88760688765615,right,1,1,0.5769618324266048,N13B03,2022-12-09_09h19.23.211,t1_Paradigm,2021.1.4,59.96827650352196,
T,left,Distractor,0,62,62,62,265.38676943065366,267.3886079543299,left,1,1,0.5354126733291196,N13B03,2022-12-09_09h19.23.211,t1_Paradigm,2021.1.4,59.96827650352196,
D,left,Distractor,0,63,63,63,268.8867304530577,270.88698966211814,left,1,1,0.5201170932123205,N13B03,2022-12-09_09h19.23.211,t1_Paradigm,2021.1.4,59.96827650352196,
R,left,Distractor,0,0,0,0,284.18576852438855,286.18625261656416,None,0,1,,N13B03,2022-12-09_09h19.23.211,t1_Paradigm,2021.1.4,59.96827650352196,
V,left,Distractor,0,1,1,1,287.68368955866026,289.68585754730157,left,1,1,0.46085510117700323,N13B03,2022-12-09_09h19.23.211,t1_Paradigm,2021.1.4,59.96827650352196,
N,left,Pretarget,0,2,2,2,291.18276099352806,293.1843688596273,left,1,1,0.4497838587849401,N13B03,2022-12-09_09h19.23.211,t1_Paradigm,2021.1.4,59.96827650352196,
N,right,Target,0,3,3,3,294.68259241140913,296.6822218836023,right,1,1,0.43156896870641503,N13B03,2022-12-09_09h19.23.211,t1_Paradigm,2021.1.4,59.96827650352196,
S,left,Distractor,0,4,4,4,298.18188584216114,300.1942710948206,left,1,1,0.4682268400210887,N13B03,2022-12-09_09h19.23.211,t1_Paradigm,2021.1.4,59.96827650352196,
N,left,Lure,0,5,5,5,301.6810653877328,303.6830797115981,left,1,1,0.3688801559037529,N13B03,2022-12-09_09h19.23.211,t1_Paradigm,2021.1.4,59.96827650352196,
Z,left,Distractor,0,6,6,6,305.1808852566901,307.19279347486736,left,1,1,0.42871574421587866,N13B03,2022-12-09_09h19.23.211,t1_Paradigm,2021.1.4,59.96827650352196,
L,left,Pretarget,0,7,7,7,308.68012415088015,310.68235084653134,left,1,1,0.48765308332804125,N13B03,2022-12-09_09h19.23.211,t1_Paradigm,2021.1.4,59.96827650352196,
L,right,Target,0,8,8,8,312.17967326185317,314.1793133205647,right,1,1,0.658038448280422,N13B03,2022-12-09_09h19.23.211,t1_Paradigm,2021.1.4,59.96827650352196,
H,left,Distractor,0,9,9,9,315.6791713651037,317.68053445828264,left,1,1,0.43636722353403457,N13B03,2022-12-09_09h19.23.211,t1_Paradigm,2021.1.4,59.96827650352196,
L,left,Lure,0,10,10,10,319.1784481140785,321.17926263363915,left,1,1,0.4662131577497348,N13B03,2022-12-09_09h19.23.211,t1_Paradigm,2021.1.4,59.96827650352196,
X,left,Pretarget,0,11,11,11,322.6779260067269,324.6900427470391,left,1,1,0.5369445090473164,N13B03,2022-12-09_09h19.23.211,t1_Paradigm,2021.1.4,59.96827650352196,
X,right,Target,0,12,12,12,326.1770195770223,328.17713538701355,right,1,1,0.4882488150324207,N13B03,2022-12-09_09h19.23.211,t1_Paradigm,2021.1.4,59.96827650352196,
X,right,Target,0,13,13,13,329.67651543465036,331.67648495834146,right,1,1,0.5173078187799547,N13B03,2022-12-09_09h19.23.211,t1_Paradigm,2021.1.4,59.96827650352196,
R,left,Distractor,0,14,14,14,333.1762297593232,335.17800348071614,left,1,1,0.43842068540106993,N13B03,2022-12-09_09h19.23.211,t1_Paradigm,2021.1.4,59.96827650352196,
T,left,Distractor,0,15,15,15,336.67558478430146,338.67674737542984,left,1,1,0.49242054103524424,N13B03,2022-12-09_09h19.23.211,t1_Paradigm,2021.1.4,59.96827650352196,
V,left,Pretarget,0,16,16,16,340.1752259658242,342.176701340155,right,0,1,0.602160930968239,N13B03,2022-12-09_09h19.23.211,t1_Paradigm,2021.1.4,59.96827650352196,
V,right,Target,0,17,17,17,343.67449212829524,345.67407027196896,right,1,1,0.5601408326474484,N13B03,2022-12-09_09h19.23.211,t1_Paradigm,2021.1.4,59.96827650352196,
N,left,Distractor,0,18,18,18,347.17398766512633,349.1863049074891,left,1,1,0.4703608235140564,N13B03,2022-12-09_09h19.23.211,t1_Paradigm,2021.1.4,59.96827650352196,
B,left,Distractor,0,19,19,19,350.6735075829929,352.67461595837085,left,1,1,0.44523262248549145,N13B03,2022-12-09_09h19.23.211,t1_Paradigm,2021.1.4,59.96827650352196,
V,left,Lure,0,20,20,20,354.1725045915082,356.1749574534624,left,1,1,0.5062128369463608,N13B03,2022-12-09_09h19.23.211,t1_Paradigm,2021.1.4,59.96827650352196,
P,left,Distractor,0,21,21,21,357.6721451314079,359.6738040052296,left,1,1,0.5313679854298243,N13B03,2022-12-09_09h19.23.211,t1_Paradigm,2021.1.4,59.96827650352196,
K,left,Pretarget,0,22,22,22,361.171691034353,363.17359628510894,left,1,1,0.4051164917036658,N13B03,2022-12-09_09h19.23.211,t1_Paradigm,2021.1.4,59.96827650352196,
K,right,Target,0,23,23,23,364.6714582915738,366.6706341479148,right,1,1,0.672863409970887,N13B03,2022-12-09_09h19.23.211,t1_Paradigm,2021.1.4,59.96827650352196,
J,left,Pretarget,0,24,24,24,368.1705762429192,370.1724452428898,left,1,1,0.5813045465911273,N13B03,2022-12-09_09h19.23.211,t1_Paradigm,2021.1.4,59.96827650352196,
J,right,Target,0,25,25,25,371.6699678394798,373.6694484589534,right,1,1,0.7228500164492289,N13B03,2022-12-09_09h19.23.211,t1_Paradigm,2021.1.4,59.96827650352196,
H,left,Distractor,0,26,26,26,375.1697399087425,377.17146069758746,left,1,1,0.5047134023479884,N13B03,2022-12-09_09h19.23.211,t1_Paradigm,2021.1.4,59.96827650352196,
J,left,Lure,0,27,27,27,378.66890598057944,380.6701635294885,left,1,1,0.6649097339686705,N13B03,2022-12-09_09h19.23.211,t1_Paradigm,2021.1.4,59.96827650352196,
V,left,Distractor,0,28,28,28,382.18472559288784,384.186801510994,left,1,1,0.47326633891498204,N13B03,2022-12-09_09h19.23.211,t1_Paradigm,2021.1.4,59.96827650352196,
Z,left,Pretarget,0,29,29,29,385.68425096441933,387.6858488856087,left,1,1,0.673865599455894,N13B03,2022-12-09_09h19.23.211,t1_Paradigm,2021.1.4,59.96827650352196,
Z,right,Target,0,30,30,30,389.1837513132923,391.18332849456056,right,1,1,0.7227807229355676,N13B03,2022-12-09_09h19.23.211,t1_Paradigm,2021.1.4,59.96827650352196,
T,left,Distractor,0,31,31,31,392.6829879618599,394.6851001307368,left,1,1,0.48964045972388703,N13B03,2022-12-09_09h19.23.211,t1_Paradigm,2021.1.4,59.96827650352196,
Z,left,Lure,0,32,32,32,396.18260668714356,398.18394604089553,left,1,1,0.7067995861725649,N13B03,2022-12-09_09h19.23.211,t1_Paradigm,2021.1.4,59.96827650352196,
F,left,Distractor,0,33,33,33,399.6820428753708,401.68310409264814,left,1,1,0.6752270886354381,N13B03,2022-12-09_09h19.23.211,t1_Paradigm,2021.1.4,59.96827650352196,
Y,left,Pretarget,0,34,34,34,403.1814181109512,405.183639673749,left,1,1,0.5726775044749957,N13B03,2022-12-09_09h19.23.211,t1_Paradigm,2021.1.4,59.96827650352196,
Y,right,Target,0,35,35,35,406.6809290463425,408.6802540762146,left,0,1,0.5761290270893369,N13B03,2022-12-09_09h19.23.211,t1_Paradigm,2021.1.4,59.96827650352196,
Y,right,Target,0,36,36,36,410.1802330635983,412.17990584424115,right,1,1,0.49954365732264705,N13B03,2022-12-09_09h19.23.211,t1_Paradigm,2021.1.4,59.96827650352196,
W,left,Distractor,0,37,37,37,413.6797757585009,415.68099866065313,left,1,1,0.8607604642020306,N13B03,2022-12-09_09h19.23.211,t1_Paradigm,2021.1.4,59.96827650352196,
Q,left,Distractor,0,38,38,38,417.17907143487537,419.18091220415954,left,1,1,0.5229802625835873,N13B03,2022-12-09_09h19.23.211,t1_Paradigm,2021.1.4,59.96827650352196,
P,left,Pretarget,0,39,39,39,420.6787042755168,422.68033523944905,left,1,1,0.5234078933717683,N13B03,2022-12-09_09h19.23.211,t1_Paradigm,2021.1.4,59.96827650352196,
P,right,Target,0,40,40,40,424.17808817279,426.1775819452014,right,1,1,0.5507329553220188,N13B03,2022-12-09_09h19.23.211,t1_Paradigm,2021.1.4,59.96827650352196,
J,left,Distractor,0,41,41,41,427.6775788975647,429.679337220412,left,1,1,0.4431977672065841,N13B03,2022-12-09_09h19.23.211,t1_Paradigm,2021.1.4,59.96827650352196,
P,left,Lure,0,42,42,42,431.1771280085377,433.1764337902132,left,1,1,0.66994987448561,N13B03,2022-12-09_09h19.23.211,t1_Paradigm,2021.1.4,59.96827650352196,
L,left,Distractor,0,43,43,43,434.67625494238746,436.677946217329,left,1,1,0.5830301474925363,N13B03,2022-12-09_09h19.23.211,t1_Paradigm,2021.1.4,59.96827650352196,
Z,left,Distractor,0,44,44,44,438.17568054408184,440.1776072886569,left,1,1,0.5550952384801349,N13B03,2022-12-09_09h19.23.211,t1_Paradigm,2021.1.4,59.96827650352196,
F,left,Pretarget,0,45,45,45,441.67527809635794,443.6768250098248,left,1,1,0.47030596614058595,N13B03,2022-12-09_09h19.23.211,t1_Paradigm,2021.1.4,59.96827650352196,
F,right,Target,0,46,46,46,445.1744348649081,447.17439059405297,right,1,1,0.4565996455057757,N13B03,2022-12-09_09h19.23.211,t1_Paradigm,2021.1.4,59.96827650352196,
G,left,Pretarget,0,47,47,47,448.6738963965763,450.6763438048947,left,1,1,0.40974055032711476,N13B03,2022-12-09_09h19.23.211,t1_Paradigm,2021.1.4,59.96827650352196,
G,right,Target,0,48,48,48,452.17333739684545,454.1732434014848,right,1,1,0.5798343050992116,N13B03,2022-12-09_09h19.23.211,t1_Paradigm,2021.1.4,59.96827650352196,
V,left,Distractor,0,49,49,49,455.672680231306,457.67489826526435,left,1,1,0.5214609381800983,N13B03,2022-12-09_09h19.23.211,t1_Paradigm,2021.1.4,59.96827650352196,
G,left,Lure,0,50,50,50,459.17238749829994,461.1743780827237,left,1,1,0.6482584391342243,N13B03,2022-12-09_09h19.23.211,t1_Paradigm,2021.1.4,59.96827650352196,
Q,left,Pretarget,0,51,51,51,462.6717457313207,464.68359395928564,left,1,1,0.46426267373317387,N13B03,2022-12-09_09h19.23.211,t1_Paradigm,2021.1.4,59.96827650352196,
Q,right,Target,0,52,52,52,466.1711883356038,468.1706166641379,right,1,1,0.6521629359922372,N13B03,2022-12-09_09h19.23.211,t1_Paradigm,2021.1.4,59.96827650352196,
Y,left,Distractor,0,53,53,53,469.67047887912486,471.66972916183295,left,1,1,0.38408206148596946,N13B03,2022-12-09_09h19.23.211,t1_Paradigm,2021.1.4,59.96827650352196,
V,left,Distractor,0,54,54,54,473.1700311981258,475.1715489185008,left,1,1,0.5249592980835587,N13B03,2022-12-09_09h19.23.211,t1_Paradigm,2021.1.4,59.96827650352196,
B,left,Distractor,0,55,55,55,476.66933714020706,478.6713235541829,left,1,1,0.42771612116484903,N13B03,2022-12-09_09h19.23.211,t1_Paradigm,2021.1.4,59.96827650352196,
J,left,Pretarget,0,56,56,56,480.18528988587786,482.18669372108707,left,1,1,0.49813051881210413,N13B03,2022-12-09_09h19.23.211,t1_Paradigm,2021.1.4,59.96827650352196,
J,right,Target,0,57,57,57,483.68472479088814,485.68445627852634,right,1,1,0.4925244813057361,N13B03,2022-12-09_09h19.23.211,t1_Paradigm,2021.1.4,59.96827650352196,
H,left,Distractor,0,58,58,58,487.18438265417353,489.18630298267817,left,1,1,0.490902820660267,N13B03,2022-12-09_09h19.23.211,t1_Paradigm,2021.1.4,59.96827650352196,
J,left,Lure,0,59,59,59,490.6838352033519,492.68512419097533,left,1,1,0.7814806676033186,N13B03,2022-12-09_09h19.23.211,t1_Paradigm,2021.1.4,59.96827650352196,
D,left,Pretarget,0,60,60,60,494.1828681418265,496.1820690208406,left,1,1,0.6215701717155753,N13B03,2022-12-09_09h19.23.211,t1_Paradigm,2021.1.4,59.96827650352196,
D,right,Target,0,61,61,61,497.6823912677355,499.68216381820093,right,1,1,0.5846200485975714,N13B03,2022-12-09_09h19.23.211,t1_Paradigm,2021.1.4,59.96827650352196,
R,left,Distractor,0,62,62,62,501.18220728705637,503.1838947123615,left,1,1,0.579201039407053,N13B03,2022-12-09_09h19.23.211,t1_Paradigm,2021.1.4,59.96827650352196,
F,left,Distractor,0,63,63,63,504.6814882064791,506.6829510694806,left,1,1,0.4863496595498873,N13B03,2022-12-09_09h19.23.211,t1_Paradigm,2021.1.4,59.96827650352196,
F,left,Distractor,0,0,0,0,718.8107157923514,720.7960310216877,None,0,2,,N13B03,2022-12-09_09h19.23.211,t1_Paradigm,2021.1.4,59.96827650352196,
N,left,Pretarget,0,1,1,1,722.2959625301883,724.3078944878071,None,0,2,,N13B03,2022-12-09_09h19.23.211,t1_Paradigm,2021.1.4,59.96827650352196,
V,left,Distractor,0,2,2,2,725.7952248430083,727.7968513156957,left,1,2,0.5186199042364024,N13B03,2022-12-09_09h19.23.211,t1_Paradigm,2021.1.4,59.96827650352196,
N,right,Target,0,3,3,3,729.2946536527452,731.2968142629252,right,1,2,0.7719733412377536,N13B03,2022-12-09_09h19.23.211,t1_Paradigm,2021.1.4,59.96827650352196,
N,left,Lure,0,4,4,4,732.7946348857658,734.7936362251203,left,1,2,0.7223094628861872,N13B03,2022-12-09_09h19.23.211,t1_Paradigm,2021.1.4,59.96827650352196,
X,left,Distractor,0,5,5,5,736.2935815281526,738.2932135667797,left,1,2,0.8125738850067137,N13B03,2022-12-09_09h19.23.211,t1_Paradigm,2021.1.4,59.96827650352196,
G,left,Pretarget,0,6,6,6,739.7930430598208,741.8050577847025,left,1,2,0.6341864027635893,N13B03,2022-12-09_09h19.23.211,t1_Paradigm,2021.1.4,59.96827650352196,
H,left,Pretarget,0,7,7,7,743.2925790178706,745.2944396769599,left,1,2,0.5925118095765356,N13B03,2022-12-09_09h19.23.211,t1_Paradigm,2021.1.4,59.96827650352196,
G,right,Target,0,8,8,8,746.7917630547017,748.7938466720661,right,1,2,0.5894009800540516,N13B03,2022-12-09_09h19.23.211,t1_Paradigm,2021.1.4,59.96827650352196,
H,right,Target,0,9,9,9,750.2912210575305,752.2932645745022,right,1,2,0.8062409072299488,N13B03,2022-12-09_09h19.23.211,t1_Paradigm,2021.1.4,59.96827650352196,
T,left,Pretarget,0,10,10,10,753.7906027091958,755.7929516308941,left,1,2,0.5744120878662216,N13B03,2022-12-09_09h19.23.211,t1_Paradigm,2021.1.4,59.96827650352196,
K,left,Distractor,0,11,11,11,757.2894380328362,759.3021883596521,left,1,2,0.5291983927745605,N13B03,2022-12-09_09h19.23.211,t1_Paradigm,2021.1.4,59.96827650352196,
T,right,Target,0,12,12,12,760.7897118384426,762.7917669043381,right,1,2,0.8943822531582555,N13B03,2022-12-09_09h19.23.211,t1_Paradigm,2021.1.4,59.96827650352196,
T,left,Lure,0,13,13,13,764.289422313479,766.2886469319201,left,1,2,0.9631060174724553,N13B03,2022-12-09_09h19.23.211,t1_Paradigm,2021.1.4,59.96827650352196,
J,left,Distractor,0,14,14,14,767.7885848564911,769.7900207720231,left,1,2,0.7622324701078469,N13B03,2022-12-09_09h19.23.211,t1_Paradigm,2021.1.4,59.96827650352196,
Q,left,Pretarget,0,15,15,15,771.287726226481,773.290168822743,left,1,2,0.5869109049090184,N13B03,2022-12-09_09h19.23.211,t1_Paradigm,2021.1.4,59.96827650352196,
M,left,Distractor,0,16,16,16,774.7872846407408,776.7904140768514,left,1,2,0.5136134480708279,N13B03,2022-12-09_09h19.23.211,t1_Paradigm,2021.1.4,59.96827650352196,
Q,right,Target,0,17,17,17,778.2865764674789,780.2987114935822,right,1,2,0.546657470302307,N13B03,2022-12-09_09h19.23.211,t1_Paradigm,2021.1.4,59.96827650352196,
R,left,Distractor,0,18,18,18,781.7857826397376,783.7886159744085,left,1,2,0.7447875079233199,N13B03,2022-12-09_09h19.23.211,t1_Paradigm,2021.1.4,59.96827650352196,
W,left,Distractor,0,19,19,19,785.2852711188898,787.2869601482234,left,1,2,0.8200986470183125,N13B03,2022-12-09_09h19.23.211,t1_Paradigm,2021.1.4,59.96827650352196,
C,left,Pretarget,0,20,20,20,788.7850229775358,790.7867918868869,left,1,2,0.6167465734324651,N13B03,2022-12-09_09h19.23.211,t1_Paradigm,2021.1.4,59.96827650352196,
T,left,Distractor,0,21,21,21,792.2843285988201,794.2863724365889,left,1,2,0.7440336201834725,N13B03,2022-12-09_09h19.23.211,t1_Paradigm,2021.1.4,59.96827650352196,
C,right,Target,0,22,22,22,795.7836621299793,797.7859132066806,right,1,2,1.074689101515105,N13B03,2022-12-09_09h19.23.211,t1_Paradigm,2021.1.4,59.96827650352196,
F,left,Pretarget,0,23,23,23,799.2831294361094,801.285467771304,left,1,2,0.8069822836405365,N13B03,2022-12-09_09h19.23.211,t1_Paradigm,2021.1.4,59.96827650352196,
C,right,Target,0,24,24,24,802.7825906469807,804.7840034646797,right,1,2,0.4379757312417496,N13B03,2022-12-09_09h19.23.211,t1_Paradigm,2021.1.4,59.96827650352196,
F,right,Target,0,25,25,25,806.281944067945,808.2842747038667,right,1,2,0.8010012270678999,N13B03,2022-12-09_09h19.23.211,t1_Paradigm,2021.1.4,59.96827650352196,
H,left,Distractor,0,26,26,26,809.7814277350553,811.7830157113494,left,1,2,0.5946473970834631,N13B03,2022-12-09_09h19.23.211,t1_Paradigm,2021.1.4,59.96827650352196,
H,left,Lure,0,27,27,27,813.2809300087538,815.2807667198795,None,0,2,,N13B03,2022-12-09_09h19.23.211,t1_Paradigm,2021.1.4,59.96827650352196,
P,left,Distractor,0,28,28,28,816.780465966789,818.7820382237114,left,1,2,1.0898733629001072,N13B03,2022-12-09_09h19.23.211,t1_Paradigm,2021.1.4,59.96827650352196,
G,left,Pretarget,0,29,29,29,820.2964039555081,822.2984477932769,left,1,2,0.8578190188272856,N13B03,2022-12-09_09h19.23.211,t1_Paradigm,2021.1.4,59.96827650352196,
K,left,Distractor,0,30,30,30,823.795834048462,825.7974579547299,left,1,2,0.8226252937456593,N13B03,2022-12-09_09h19.23.211,t1_Paradigm,2021.1.4,59.96827650352196,
G,right,Target,0,31,31,31,827.2951576347259,829.2971190260432,right,1,2,0.6480672403704375,N13B03,2022-12-09_09h19.23.211,t1_Paradigm,2021.1.4,59.96827650352196,
M,left,Pretarget,0,32,32,32,830.7947705855477,832.7970008100383,left,1,2,0.6568495512765367,N13B03,2022-12-09_09h19.23.211,t1_Paradigm,2021.1.4,59.96827650352196,
B,left,Distractor,0,33,33,33,834.2941839967389,836.2964049179136,left,1,2,0.55161644758482,N13B03,2022-12-09_09h19.23.211,t1_Paradigm,2021.1.4,59.96827650352196,
M,right,Target,0,34,34,34,837.7936128064757,839.7952492240584,right,1,2,0.8587583308544708,N13B03,2022-12-09_09h19.23.211,t1_Paradigm,2021.1.4,59.96827650352196,
M,left,Lure,0,35,35,35,841.2928626079811,843.2928449637984,left,1,2,1.224405431188643,N13B03,2022-12-09_09h19.23.211,t1_Paradigm,2021.1.4,59.96827650352196,
T,left,Distractor,0,36,36,36,844.792361994434,846.7939903919469,left,1,2,0.4818019520898815,N13B03,2022-12-09_09h19.23.211,t1_Paradigm,2021.1.4,59.96827650352196,
F,left,Distractor,0,37,37,37,848.2920304442378,850.2942651599733,left,1,2,0.49034879337705206,N13B03,2022-12-09_09h19.23.211,t1_Paradigm,2021.1.4,59.96827650352196,
X,left,Distractor,0,38,38,38,851.7914303816797,853.7910556834395,left,1,2,0.563081636413699,N13B03,2022-12-09_09h19.23.211,t1_Paradigm,2021.1.4,59.96827650352196,
C,left,Distractor,0,39,39,39,855.2905983783421,857.2926678803778,left,1,2,0.7204709392244695,N13B03,2022-12-09_09h19.23.211,t1_Paradigm,2021.1.4,59.96827650352196,
R,left,Distractor,0,40,40,40,858.7900926319562,860.7919831257459,left,1,2,0.6809094773343531,N13B03,2022-12-09_09h19.23.211,t1_Paradigm,2021.1.4,59.96827650352196,
B,left,Pretarget,0,41,41,41,862.2896619535313,864.2915867732809,left,1,2,0.5386723555857316,N13B03,2022-12-09_09h19.23.211,t1_Paradigm,2021.1.4,59.96827650352196,
H,left,Distractor,0,42,42,42,865.7885460392863,867.7882371057203,left,1,2,0.6196889812126756,N13B03,2022-12-09_09h19.23.211,t1_Paradigm,2021.1.4,59.96827650352196,
B,right,Target,0,43,43,43,869.2882918026735,871.2905127238628,right,1,2,1.0171950564254075,N13B03,2022-12-09_09h19.23.211,t1_Paradigm,2021.1.4,59.96827650352196,
W,left,Pretarget,0,44,44,44,872.7879028286843,874.7897535428783,left,1,2,0.5213355041050818,N13B03,2022-12-09_09h19.23.211,t1_Paradigm,2021.1.4,59.96827650352196,
L,left,Pretarget,0,45,45,45,876.2871596878686,878.2880999623158,left,1,2,0.6132389102422167,N13B03,2022-12-09_09h19.23.211,t1_Paradigm,2021.1.4,59.96827650352196,
W,right,Target,0,46,46,46,879.7867164981144,881.7880715712236,right,1,2,0.5034532870195108,N13B03,2022-12-09_09h19.23.211,t1_Paradigm,2021.1.4,59.96827650352196,
L,right,Target,0,47,47,47,883.2857154314406,885.2875664664316,right,1,2,0.9121457730216207,N13B03,2022-12-09_09h19.23.211,t1_Paradigm,2021.1.4,59.96827650352196,
W,right,Target,0,48,48,48,886.7855654559098,888.7869554965728,right,1,2,0.6931231002527056,N13B03,2022-12-09_09h19.23.211,t1_Paradigm,2021.1.4,59.96827650352196,
X,left,Distractor,0,49,49,49,890.2849644309463,892.2866393449222,left,1,2,0.5673996487166733,N13B03,2022-12-09_09h19.23.211,t1_Paradigm,2021.1.4,59.96827650352196,
R,left,Distractor,0,50,50,50,893.7844968601421,895.7866298812296,left,1,2,0.4947855029022321,N13B03,2022-12-09_09h19.23.211,t1_Paradigm,2021.1.4,59.96827650352196,
V,left,Pretarget,0,51,51,51,897.28361705711,899.2851873892214,left,1,2,0.48852342265308835,N13B03,2022-12-09_09h19.23.211,t1_Paradigm,2021.1.4,59.96827650352196,
Z,left,Distractor,0,52,52,52,900.7833387602586,902.7856713209912,left,1,2,0.6390783321403433,N13B03,2022-12-09_09h19.23.211,t1_Paradigm,2021.1.4,59.96827650352196,
V,right,Target,0,53,53,53,904.2826546472497,906.2845098526741,right,1,2,0.6407070504501462,N13B03,2022-12-09_09h19.23.211,t1_Paradigm,2021.1.4,59.96827650352196,
V,left,Lure,0,54,54,54,907.7821020635747,909.7817469343281,left,1,2,0.6030768243654165,N13B03,2022-12-09_09h19.23.211,t1_Paradigm,2021.1.4,59.96827650352196,
N,left,Distractor,0,55,55,55,911.2815918259439,913.2804446333612,left,1,2,0.5763911233807448,N13B03,2022-12-09_09h19.23.211,t1_Paradigm,2021.1.4,59.96827650352196,
B,left,Distractor,0,56,56,56,914.7809343395929,916.782318926591,left,1,2,0.7665318758226931,N13B03,2022-12-09_09h19.23.211,t1_Paradigm,2021.1.4,59.96827650352196,
V,left,Lure,0,57,57,57,918.2806528346991,920.282075597308,right,0,2,0.958564726068289,N13B03,2022-12-09_09h19.23.211,t1_Paradigm,2021.1.4,59.96827650352196,
J,left,Distractor,0,58,58,58,921.796502923331,923.7980613857217,left,1,2,0.8743192153197015,N13B03,2022-12-09_09h19.23.211,t1_Paradigm,2021.1.4,59.96827650352196,
H,left,Distractor,0,59,59,59,925.2957915420266,927.2982123236579,left,1,2,0.882750567412586,N13B03,2022-12-09_09h19.23.211,t1_Paradigm,2021.1.4,59.96827650352196,
X,left,Pretarget,0,60,60,60,928.7952963821444,930.7972234475164,left,1,2,0.5256313809804851,N13B03,2022-12-09_09h19.23.211,t1_Paradigm,2021.1.4,59.96827650352196,
P,left,Distractor,0,61,61,61,932.2947174926085,934.2962015286321,left,1,2,0.4537637444300344,N13B03,2022-12-09_09h19.23.211,t1_Paradigm,2021.1.4,59.96827650352196,
X,right,Target,0,62,62,62,935.793445988762,937.7959280438226,right,1,2,0.7116321669600438,N13B03,2022-12-09_09h19.23.211,t1_Paradigm,2021.1.4,59.96827650352196,
Q,left,Distractor,0,63,63,63,939.2936447264074,941.2956535966077,left,1,2,0.6020133614510996,N13B03,2022-12-09_09h19.23.211,t1_Paradigm,2021.1.4,59.96827650352196,
B,left,Pretarget,0,0,0,0,956.0414728079195,958.0420688604354,None,0,2,,N13B03,2022-12-09_09h19.23.211,t1_Paradigm,2021.1.4,59.96827650352196,
F,left,Distractor,0,1,1,1,959.5403325126244,961.5415964775893,None,0,2,,N13B03,2022-12-09_09h19.23.211,t1_Paradigm,2021.1.4,59.96827650352196,
B,right,Target,0,2,2,2,963.0398890020733,965.0414869232627,left,0,2,0.9503120613953797,N13B03,2022-12-09_09h19.23.211,t1_Paradigm,2021.1.4,59.96827650352196,
V,left,Distractor,0,3,3,3,966.5391740919295,968.541587174288,left,1,2,1.1222404901927803,N13B03,2022-12-09_09h19.23.211,t1_Paradigm,2021.1.4,59.96827650352196,
G,left,Pretarget,0,4,4,4,970.0385733877629,972.0406489850575,left,1,2,0.671097067053779,N13B03,2022-12-09_09h19.23.211,t1_Paradigm,2021.1.4,59.96827650352196,
B,left,Lure,0,5,5,5,973.5380066887592,975.5392125883227,left,1,2,0.6848460545152193,N13B03,2022-12-09_09h19.23.211,t1_Paradigm,2021.1.4,59.96827650352196,
G,right,Target,0,6,6,6,977.0374845813931,979.0392400170094,right,1,2,0.7225048321124632,N13B03,2022-12-09_09h19.23.211,t1_Paradigm,2021.1.4,59.96827650352196,
Y,left,Pretarget,0,7,7,7,980.536888368486,982.5383332665078,left,1,2,0.6178151691856328,N13B03,2022-12-09_09h19.23.211,t1_Paradigm,2021.1.4,59.96827650352196,
P,left,Distractor,0,8,8,8,984.0360695180862,986.0386237538914,left,1,2,0.6059492970380234,N13B03,2022-12-09_09h19.23.211,t1_Paradigm,2021.1.4,59.96827650352196,
Y,right,Target,0,9,9,9,987.5354460368835,989.5373878592072,right,1,2,0.6037251678208122,N13B03,2022-12-09_09h19.23.211,t1_Paradigm,2021.1.4,59.96827650352196,
X,left,Distractor,0,10,10,10,991.034971408415,993.034432779692,left,1,2,0.6805938068864634,N13B03,2022-12-09_09h19.23.211,t1_Paradigm,2021.1.4,59.96827650352196,
Y,right,Target,0,11,11,11,994.5346812418284,996.5367391949549,right,1,2,0.5606136966962367,N13B03,2022-12-09_09h19.23.211,t1_Paradigm,2021.1.4,59.96827650352196,
N,left,Distractor,0,12,12,12,998.0339284769143,1000.0357695669954,left,1,2,0.46049163104908075,N13B03,2022-12-09_09h19.23.211,t1_Paradigm,2021.1.4,59.96827650352196,
Y,right,Target,0,13,13,13,1001.5335218587425,1003.5350411831314,right,1,2,0.41288346017245203,N13B03,2022-12-09_09h19.23.211,t1_Paradigm,2021.1.4,59.96827650352196,
Y,left,Lure,0,14,14,14,1005.0330286236858,1007.0324896741513,left,1,2,0.741799546070979,N13B03,2022-12-09_09h19.23.211,t1_Paradigm,2021.1.4,59.96827650352196,
K,left,Distractor,0,15,15,15,1008.5322841996385,1010.5333896877855,left,1,2,0.9326996398885967,N13B03,2022-12-09_09h19.23.211,t1_Paradigm,2021.1.4,59.96827650352196,
T,left,Pretarget,0,16,16,16,1012.0318028343027,1014.0327434295468,left,1,2,0.5224329721531831,N13B03,2022-12-09_09h19.23.211,t1_Paradigm,2021.1.4,59.96827650352196,
J,left,Distractor,0,17,17,17,1015.5312046965701,1017.5330143479368,left,1,2,0.7471797380567295,N13B03,2022-12-09_09h19.23.211,t1_Paradigm,2021.1.4,59.96827650352196,
T,right,Target,0,18,18,18,1019.0305754409055,1021.0322019135929,right,1,2,0.7645813918061322,N13B03,2022-12-09_09h19.23.211,t1_Paradigm,2021.1.4,59.96827650352196,
S,left,Pretarget,0,19,19,19,1022.5296821641386,1024.5318411702901,left,1,2,0.6966477660025703,N13B03,2022-12-09_09h19.23.211,t1_Paradigm,2021.1.4,59.96827650352196,
R,left,Distractor,0,20,20,20,1026.0295758178545,1028.0311609069176,left,1,2,0.583486971387174,N13B03,2022-12-09_09h19.23.211,t1_Paradigm,2021.1.4,59.96827650352196,
S,right,Target,0,21,21,21,1029.5288894592086,1031.5304376558925,right,1,2,0.72355129243806,N13B03,2022-12-09_09h19.23.211,t1_Paradigm,2021.1.4,59.96827650352196,
Q,left,Distractor,0,22,22,22,1033.028002919309,1035.0296050109464,left,1,2,0.6394077971199295,N13B03,2022-12-09_09h19.23.211,t1_Paradigm,2021.1.4,59.96827650352196,
D,left,Distractor,0,23,23,23,1036.527768893313,1038.5274955689092,left,1,2,0.6624074683059007,N13B03,2022-12-09_09h19.23.211,t1_Paradigm,2021.1.4,59.96827650352196,
F,left,Distractor,0,24,24,24,1040.0271646603214,1042.0288722962287,left,1,2,0.624925774129224,N13B03,2022-12-09_09h19.23.211,t1_Paradigm,2021.1.4,59.96827650352196,
Z,left,Distractor,0,25,25,25,1043.5267458516173,1045.5282651760062,left,1,2,0.6792063326574862,N13B03,2022-12-09_09h19.23.211,t1_Paradigm,2021.1.4,59.96827650352196,
P,left,Distractor,0,26,26,26,1047.0259366253158,1049.0276586973778,left,1,2,0.7004839317669393,N13B03,2022-12-09_09h19.23.211,t1_Paradigm,2021.1.4,59.96827650352196,
H,left,Distractor,0,27,27,27,1050.5420141634677,1052.543307321539,left,1,2,0.5958648455707589,N13B03,2022-12-09_09h19.23.211,t1_Paradigm,2021.1.4,59.96827650352196,
Z,left,Pretarget,0,28,28,28,1054.0414294994698,1056.043601337762,left,1,2,0.5472044399211882,N13B03,2022-12-09_09h19.23.211,t1_Paradigm,2021.1.4,59.96827650352196,
J,left,Pretarget,0,29,29,29,1057.54086344206,1059.5432508601662,left,1,2,0.5847111567272805,N13B03,2022-12-09_09h19.23.211,t1_Paradigm,2021.1.4,59.96827650352196,
Z,right,Target,0,30,30,30,1061.040366357367,1063.0415129083267,right,1,2,0.3632442836969858,N13B03,2022-12-09_09h19.23.211,t1_Paradigm,2021.1.4,59.96827650352196,
J,right,Target,0,31,31,31,1064.5396447103558,1066.541328606836,right,1,2,1.2603273797576549,N13B03,2022-12-09_09h19.23.211,t1_Paradigm,2021.1.4,59.96827650352196,
V,left,Pretarget,0,32,32,32,1068.039182914028,1070.0390847482195,left,1,2,0.578405126434518,N13B03,2022-12-09_09h19.23.211,t1_Paradigm,2021.1.4,59.96827650352196,
Z,left,Lure,0,33,33,33,1071.5384689663042,1073.5404242623626,left,1,2,0.6632665795041248,N13B03,2022-12-09_09h19.23.211,t1_Paradigm,2021.1.4,59.96827650352196,
V,right,Target,0,34,34,34,1075.0376796297933,1077.0401222260552,right,1,2,0.6111867315630661,N13B03,2022-12-09_09h19.23.211,t1_Paradigm,2021.1.4,59.96827650352196,
X,left,Distractor,0,35,35,35,1078.5374709472526,1080.5390855502192,left,1,2,0.5068605387932621,N13B03,2022-12-09_09h19.23.211,t1_Paradigm,2021.1.4,59.96827650352196,
S,left,Distractor,0,36,36,36,1082.0367865134322,1084.0385018486413,left,1,2,0.6341395654599182,N13B03,2022-12-09_09h19.23.211,t1_Paradigm,2021.1.4,59.96827650352196,
Q,left,Distractor,0,37,37,37,1085.5364110131777,1087.5381488046114,left,1,2,0.6558508906309726,N13B03,2022-12-09_09h19.23.211,t1_Paradigm,2021.1.4,59.96827650352196,
P,left,Distractor,0,38,38,38,1089.0357493563934,1091.0366828939732,left,1,2,0.7024408318393398,N13B03,2022-12-09_09h19.23.211,t1_Paradigm,2021.1.4,59.96827650352196,
S,left,Lure,0,39,39,39,1092.5351977351384,1094.5369294312986,right,0,2,0.8452586075436557,N13B03,2022-12-09_09h19.23.211,t1_Paradigm,2021.1.4,59.96827650352196,
K,left,Pretarget,0,40,40,40,1096.0349075685517,1098.034145660742,left,1,2,0.5631236616463866,N13B03,2022-12-09_09h19.23.211,t1_Paradigm,2021.1.4,59.96827650352196,
L,left,Distractor,0,41,41,41,1099.5340861517325,1101.5356725240126,left,1,2,0.48510686759254895,N13B03,2022-12-09_09h19.23.211,t1_Paradigm,2021.1.4,59.96827650352196,
K,right,Target,0,42,42,42,1103.033348464567,1105.0350480804045,right,1,2,0.7714661512436578,N13B03,2022-12-09_09h19.23.211,t1_Paradigm,2021.1.4,59.96827650352196,
B,left,Distractor,0,43,43,43,1106.5328237907815,1108.5342019617237,left,1,2,0.51591938213096,N13B03,2022-12-09_09h19.23.211,t1_Paradigm,2021.1.4,59.96827650352196,
N,left,Distractor,0,44,44,44,1110.032476842025,1112.0336496988457,left,1,2,0.6679422874876764,N13B03,2022-12-09_09h19.23.211,t1_Paradigm,2021.1.4,59.96827650352196,
S,left,Pretarget,0,45,45,45,1113.5318062027363,1115.5330223680212,left,1,2,0.7383650260308059,N13B03,2022-12-09_09h19.23.211,t1_Paradigm,2021.1.4,59.96827650352196,
Z,left,Distractor,0,46,46,46,1117.0311711726245,1119.0333221586916,left,1,2,0.689897743955953,N13B03,2022-12-09_09h19.23.211,t1_Paradigm,2021.1.4,59.96827650352196,
S,right,Target,0,47,47,47,1120.5306484236644,1122.5322851620585,right,1,2,0.7934334774326999,N13B03,2022-12-09_09h19.23.211,t1_Paradigm,2021.1.4,59.96827650352196,
C,left,Distractor,0,48,48,48,1124.0299732931308,1126.042169913475,left,1,2,0.6173259441711707,N13B03,2022-12-09_09h19.23.211,t1_Paradigm,2021.1.4,59.96827650352196,
T,left,Pretarget,0,49,49,49,1127.5286584808491,1129.5313821007876,left,1,2,0.46165133494650945,N13B03,2022-12-09_09h19.23.211,t1_Paradigm,2021.1.4,59.96827650352196,
S,left,Lure,0,50,50,50,1131.0287333884044,1133.0309697081539,left,1,2,0.6138766671792837,N13B03,2022-12-09_09h19.23.211,t1_Paradigm,2021.1.4,59.96827650352196,
T,right,Target,0,51,51,51,1134.5281641229667,1136.529941373199,right,1,2,0.9003517608070979,N13B03,2022-12-09_09h19.23.211,t1_Paradigm,2021.1.4,59.96827650352196,
N,left,Pretarget,0,52,52,52,1138.027874598003,1140.0291254100302,left,1,2,0.567799048818415,N13B03,2022-12-09_09h19.23.211,t1_Paradigm,2021.1.4,59.96827650352196,
B,left,Distractor,0,53,53,53,1141.52717252,1143.528453487539,left,1,2,0.9358412665314972,N13B03,2022-12-09_09h19.23.211,t1_Paradigm,2021.1.4,59.96827650352196,
N,right,Target,0,54,54,54,1145.026879786994,1147.0426491935796,right,1,2,0.6004882626148174,N13B03,2022-12-09_09h19.23.211,t1_Paradigm,2021.1.4,59.96827650352196,
N,left,Lure,0,55,55,55,1148.5260477836564,1150.5258864196076,left,1,2,0.7521476978436112,N13B03,2022-12-09_09h19.23.211,t1_Paradigm,2021.1.4,59.96827650352196,
X,left,Distractor,0,56,56,56,1152.025434888972,1154.0273289116012,left,1,2,0.5111753430537647,N13B03,2022-12-09_09h19.23.211,t1_Paradigm,2021.1.4,59.96827650352196,
W,left,Distractor,0,57,57,57,1155.5413212283602,1157.5431722633512,left,1,2,0.8749431777105201,N13B03,2022-12-09_09h19.23.211,t1_Paradigm,2021.1.4,59.96827650352196,
S,left,Distractor,0,58,58,58,1159.0410182296473,1161.0423383352027,left,1,2,0.7215757857629796,N13B03,2022-12-09_09h19.23.211,t1_Paradigm,2021.1.4,59.96827650352196,
L,left,Distractor,0,59,59,59,1162.5403652345558,1164.5424725913763,left,1,2,0.718019360472681,N13B03,2022-12-09_09h19.23.211,t1_Paradigm,2021.1.4,59.96827650352196,
K,left,Pretarget,0,60,60,60,1166.0398665458342,1168.0419350854645,left,1,2,0.7516571896121604,N13B03,2022-12-09_09h19.23.211,t1_Paradigm,2021.1.4,59.96827650352196,
V,left,Pretarget,0,61,61,61,1169.539328077517,1171.5408194920165,left,1,2,1.0104042923485395,N13B03,2022-12-09_09h19.23.211,t1_Paradigm,2021.1.4,59.96827650352196,
K,right,Target,0,62,62,62,1173.0387392430712,1175.0402001812618,right,1,2,0.8525562408322003,N13B03,2022-12-09_09h19.23.211,t1_Paradigm,2021.1.4,59.96827650352196,
V,right,Target,0,63,63,63,1176.5381776769063,1178.5398230769933,right,1,2,0.5847586356248939,N13B03,2022-12-09_09h19.23.211,t1_Paradigm,2021.1.4,59.96827650352196,
R,left,Distractor,0,0,0,0,1252.1608555823914,1254.1608594320278,None,0,3,,N13B03,2022-12-09_09h19.23.211,t1_Paradigm,2021.1.4,59.96827650352196,
P,left,Lure,0,1,1,1,1255.6583887654706,1257.6604348488618,None,0,3,,N13B03,2022-12-09_09h19.23.211,t1_Paradigm,2021.1.4,59.96827650352196,
V,left,Distractor,0,2,2,2,1259.1579317811847,1261.1596063743636,None,0,3,,N13B03,2022-12-09_09h19.23.211,t1_Paradigm,2021.1.4,59.96827650352196,
P,left,Pretarget,0,3,3,3,1262.6574667768145,1264.6570940033853,left,1,3,0.9408137175487354,N13B03,2022-12-09_09h19.23.211,t1_Paradigm,2021.1.4,59.96827650352196,
Z,left,Distractor,0,4,4,4,1266.1566453599808,1268.157969956781,left,1,3,0.7615366477693897,N13B03,2022-12-09_09h19.23.211,t1_Paradigm,2021.1.4,59.96827650352196,
L,left,Pretarget,0,5,5,5,1269.6561688067013,1271.6582729554793,left,1,3,0.5745118576887762,N13B03,2022-12-09_09h19.23.211,t1_Paradigm,2021.1.4,59.96827650352196,
P,right,Target,0,6,6,6,1273.1557759830612,1275.157815329585,right,1,3,0.612164539998048,N13B03,2022-12-09_09h19.23.211,t1_Paradigm,2021.1.4,59.96827650352196,
S,left,Distractor,0,7,7,7,1276.6542994859192,1278.654004346885,left,1,3,0.6858646049659001,N13B03,2022-12-09_09h19.23.211,t1_Paradigm,2021.1.4,59.96827650352196,
L,right,Target,0,8,8,8,1280.154479296165,1282.156123733832,right,1,3,0.7295345946331508,N13B03,2022-12-09_09h19.23.211,t1_Paradigm,2021.1.4,59.96827650352196,
D,left,Distractor,0,9,9,9,1283.653947564715,1285.6557305893948,left,1,3,0.7551205819472671,N13B03,2022-12-09_09h19.23.211,t1_Paradigm,2021.1.4,59.96827650352196,
G,left,Distractor,0,10,10,10,1287.1533882441727,1289.1553300664964,left,1,3,0.63402022664377,N13B03,2022-12-09_09h19.23.211,t1_Paradigm,2021.1.4,59.96827650352196,
M,left,Pretarget,0,11,11,11,1290.6526547274407,1292.6539215796365,left,1,3,0.7829634203953901,N13B03,2022-12-09_09h19.23.211,t1_Paradigm,2021.1.4,59.96827650352196,
Y,left,Distractor,0,12,12,12,1294.1522728111304,1296.1539477251063,left,1,3,0.6289197751175379,N13B03,2022-12-09_09h19.23.211,t1_Paradigm,2021.1.4,59.96827650352196,
V,left,Distractor,0,13,13,13,1297.6516191744158,1299.6536094380426,left,1,3,0.6218454209301854,N13B03,2022-12-09_09h19.23.211,t1_Paradigm,2021.1.4,59.96827650352196,
M,right,Target,0,14,14,14,1301.15093377819,1303.1528560315055,right,1,3,0.9740386728371959,N13B03,2022-12-09_09h19.23.211,t1_Paradigm,2021.1.4,59.96827650352196,
S,left,Pretarget,0,15,15,15,1304.6505294056406,1306.65266723877,left,1,3,0.6608303993125446,N13B03,2022-12-09_09h19.23.211,t1_Paradigm,2021.1.4,59.96827650352196,
Q,left,Distractor,0,16,16,16,1308.1499809924135,1310.1514076046442,left,1,3,0.6018783032777719,N13B03,2022-12-09_09h19.23.211,t1_Paradigm,2021.1.4,59.96827650352196,
R,left,Pretarget,0,17,17,17,1311.6494191054517,1313.6516063422896,left,1,3,0.7245871662744321,N13B03,2022-12-09_09h19.23.211,t1_Paradigm,2021.1.4,59.96827650352196,
S,right,Target,0,18,18,18,1315.1491969491617,1317.1503383672825,right,1,3,0.6858078227814985,N13B03,2022-12-09_09h19.23.211,t1_Paradigm,2021.1.4,59.96827650352196,
F,left,Distractor,0,19,19,19,1318.6481532156613,1320.6502365122287,left,1,3,0.556266812098329,N13B03,2022-12-09_09h19.23.211,t1_Paradigm,2021.1.4,59.96827650352196,
R,right,Target,0,20,20,20,1322.1477565423847,1324.1498433677916,right,1,3,0.6963465317239752,N13B03,2022-12-09_09h19.23.211,t1_Paradigm,2021.1.4,59.96827650352196,
P,left,Distractor,0,21,21,21,1325.646959185804,1327.6487168670428,left,1,3,0.4781877821951639,N13B03,2022-12-09_09h19.23.211,t1_Paradigm,2021.1.4,59.96827650352196,
L,left,Distractor,0,22,22,22,1329.1464489481732,1331.1481302782195,left,1,3,0.866767185027129,N13B03,2022-12-09_09h19.23.211,t1_Paradigm,2021.1.4,59.96827650352196,
R,right,Target,0,23,23,23,1332.6459756029217,1334.6481368546956,None,0,3,,N13B03,2022-12-09_09h19.23.211,t1_Paradigm,2021.1.4,59.96827650352196,
H,left,Pretarget,0,24,24,24,1336.145382598028,1338.1471280887345,left,1,3,0.4986085157142952,N13B03,2022-12-09_09h19.23.211,t1_Paradigm,2021.1.4,59.96827650352196,
G,left,Pretarget,0,25,25,25,1339.6448011420725,1341.6463085967262,left,1,3,0.4720934820797993,N13B03,2022-12-09_09h19.23.211,t1_Paradigm,2021.1.4,59.96827650352196,
T,left,Distractor,0,26,26,26,1343.1442148740462,1345.1459157731006,left,1,3,0.8563651383010438,N13B03,2022-12-09_09h19.23.211,t1_Paradigm,2021.1.4,59.96827650352196,
H,right,Target,0,27,27,27,1346.6435994129424,1348.6432805344666,right,1,3,0.6883434520132141,N13B03,2022-12-09_09h19.23.211,t1_Paradigm,2021.1.4,59.96827650352196,
G,right,Target,0,28,28,28,1350.1432431608846,1352.145099328729,right,1,3,0.675224842998432,N13B03,2022-12-09_09h19.23.211,t1_Paradigm,2021.1.4,59.96827650352196,
D,left,Distractor,0,29,29,29,1353.659008236631,1355.6608644044754,left,1,3,0.6315702519204933,N13B03,2022-12-09_09h19.23.211,t1_Paradigm,2021.1.4,59.96827650352196,
N,left,Pretarget,0,30,30,30,1357.1586872729386,1359.159996150367,left,1,3,0.5356933762232075,N13B03,2022-12-09_09h19.23.211,t1_Paradigm,2021.1.4,59.96827650352196,
V,left,Distractor,0,31,31,31,1360.658033636224,1362.6593810100603,left,1,3,0.7250876194011653,N13B03,2022-12-09_09h19.23.211,t1_Paradigm,2021.1.4,59.96827650352196,
R,left,Distractor,0,32,32,32,1364.1572385252803,1366.1588608275197,left,1,3,0.5834754224488279,N13B03,2022-12-09_09h19.23.211,t1_Paradigm,2021.1.4,59.96827650352196,
N,right,Target,0,33,33,33,1367.6569098623004,1369.6589200157323,right,1,3,0.4621367103245575,N13B03,2022-12-09_09h19.23.211,t1_Paradigm,2021.1.4,59.96827650352196,
Z,left,Distractor,0,34,34,34,1371.156243714271,1373.1579734856205,left,1,3,0.5329694354732055,N13B03,2022-12-09_09h19.23.211,t1_Paradigm,2021.1.4,59.96827650352196,
N,left,Lure,0,35,35,35,1374.655695301044,1376.6576406521926,left,1,3,0.7708370559994364,N13B03,2022-12-09_09h19.23.211,t1_Paradigm,2021.1.4,59.96827650352196,
Y,left,Pretarget,0,36,36,36,1378.1551664568105,1380.1569793162198,left,1,3,0.46663405167055316,N13B03,2022-12-09_09h19.23.211,t1_Paradigm,2021.1.4,59.96827650352196,
Y,left,Lure,0,37,37,37,1381.6544521882897,1383.6543809699506,left,1,3,0.8165444673359161,N13B03,2022-12-09_09h19.23.211,t1_Paradigm,2021.1.4,59.96827650352196,
B,left,Distractor,0,38,38,38,1385.1532756422093,1387.153495713268,left,1,3,0.6390286076202756,N13B03,2022-12-09_09h19.23.211,t1_Paradigm,2021.1.4,59.96827650352196,
Y,right,Target,0,39,39,39,1388.6533961038513,1390.6548300945578,right,1,3,0.47973020443168934,N13B03,2022-12-09_09h19.23.211,t1_Paradigm,2021.1.4,59.96827650352196,
J,left,Distractor,0,40,40,40,1392.1529824280005,1394.154960180298,left,1,3,0.6109336177905789,N13B03,2022-12-09_09h19.23.211,t1_Paradigm,2021.1.4,59.96827650352196,
X,left,Distractor,0,41,41,41,1395.6525196692528,1397.6539148427692,left,1,3,0.6331152405618923,N13B03,2022-12-09_09h19.23.211,t1_Paradigm,2021.1.4,59.96827650352196,
W,left,Pretarget,0,42,42,42,1399.1516671345162,1401.1534366854612,left,1,3,0.655228853051085,N13B03,2022-12-09_09h19.23.211,t1_Paradigm,2021.1.4,59.96827650352196,
S,left,Pretarget,0,43,43,43,1402.6512852181913,1404.652514857211,left,1,3,0.5632199026440503,N13B03,2022-12-09_09h19.23.211,t1_Paradigm,2021.1.4,59.96827650352196,
R,left,Distractor,0,44,44,44,1406.1505282828293,1408.1525416442892,left,1,3,0.6780565736553399,N13B03,2022-12-09_09h19.23.211,t1_Paradigm,2021.1.4,59.96827650352196,
W,right,Target,0,45,45,45,1409.6499805112107,1411.6515797156171,right,1,3,0.789904320408823,N13B03,2022-12-09_09h19.23.211,t1_Paradigm,2021.1.4,59.96827650352196,
S,right,Target,0,46,46,46,1413.1492546937661,1415.1510216782917,right,1,3,1.3170389856240945,N13B03,2022-12-09_09h19.23.211,t1_Paradigm,2021.1.4,59.96827650352196,
D,left,Distractor,0,47,47,47,1416.6484762645705,1418.6502127727872,left,1,3,0.8376411334029399,N13B03,2022-12-09_09h19.23.211,t1_Paradigm,2021.1.4,59.96827650352196,
T,left,Distractor,0,48,48,48,1420.14817551148,1422.1494295315497,left,1,3,0.46048008212528657,N13B03,2022-12-09_09h19.23.211,t1_Paradigm,2021.1.4,59.96827650352196,
S,right,Target,0,49,49,49,1423.6478933649923,1425.6487393232674,right,1,3,1.1425884013588075,N13B03,2022-12-09_09h19.23.211,t1_Paradigm,2021.1.4,59.96827650352196,
K,left,Distractor,0,50,50,50,1427.1469644790632,1429.1488652385597,left,1,3,0.8054465982713737,N13B03,2022-12-09_09h19.23.211,t1_Paradigm,2021.1.4,59.96827650352196,
S,left,Lure,0,51,51,51,1430.646620096726,1432.6481076615892,left,1,3,1.1127097451972077,N13B03,2022-12-09_09h19.23.211,t1_Paradigm,2021.1.4,59.96827650352196,
T,left,Pretarget,0,52,52,52,1434.1458766350988,1436.1479275305464,right,0,3,1.2566185729083372,N13B03,2022-12-09_09h19.23.211,t1_Paradigm,2021.1.4,59.96827650352196,
V,left,Distractor,0,53,53,53,1437.6454812450393,1439.6473646811646,left,1,3,0.6469848500710214,N13B03,2022-12-09_09h19.23.211,t1_Paradigm,2021.1.4,59.96827650352196,
B,left,Distractor,0,54,54,54,1441.144887919363,1443.1462651278853,left,1,3,0.5267676662333542,N13B03,2022-12-09_09h19.23.211,t1_Paradigm,2021.1.4,59.96827650352196,
T,right,Target,0,55,55,55,1444.643796706965,1446.6456904087827,right,1,3,0.8130409746081568,N13B03,2022-12-09_09h19.23.211,t1_Paradigm,2021.1.4,59.96827650352196,
Y,left,Pretarget,0,56,56,56,1448.1437285362626,1450.145274808121,left,1,3,0.5737072830379475,N13B03,2022-12-09_09h19.23.211,t1_Paradigm,2021.1.4,59.96827650352196,
T,left,Lure,0,57,57,57,1451.6431233408512,1453.645165895403,left,1,3,0.9576607024064288,N13B03,2022-12-09_09h19.23.211,t1_Paradigm,2021.1.4,59.96827650352196,
P,left,Pretarget,0,58,58,58,1455.159361601458,1457.159972090114,left,1,3,0.45907239727966953,N13B03,2022-12-09_09h19.23.211,t1_Paradigm,2021.1.4,59.96827650352196,
Y,right,Target,0,59,59,59,1458.6586014580535,1460.6603049235273,right,1,3,0.42275874789629597,N13B03,2022-12-09_09h19.23.211,t1_Paradigm,2021.1.4,59.96827650352196,
R,left,Distractor,0,60,60,60,1462.1578993800504,1464.1597545854893,left,1,3,0.7459853874170221,N13B03,2022-12-09_09h19.23.211,t1_Paradigm,2021.1.4,59.96827650352196,
P,right,Target,0,61,61,61,1465.6574250723934,1467.6593848596967,left,0,3,0.47796771115099546,N13B03,2022-12-09_09h19.23.211,t1_Paradigm,2021.1.4,59.96827650352196,
L,left,Distractor,0,62,62,62,1469.1569369701756,1471.1568015911907,None,0,3,,N13B03,2022-12-09_09h19.23.211,t1_Paradigm,2021.1.4,59.96827650352196,
V,left,Distractor,0,63,63,63,1472.6564074843482,1474.658310489467,left,1,3,1.414073640393326,N13B03,2022-12-09_09h19.23.211,t1_Paradigm,2021.1.4,59.96827650352196,
H,left,Lure,0,0,0,0,1481.9231303985289,1483.9230325535173,None,0,3,,N13B03,2022-12-09_09h19.23.211,t1_Paradigm,2021.1.4,59.96827650352196,
B,left,Distractor,0,1,1,1,1485.4209327355784,1487.4221572417446,None,0,3,,N13B03,2022-12-09_09h19.23.211,t1_Paradigm,2021.1.4,59.96827650352196,
T,left,Distractor,0,2,2,2,1488.9204388589133,1490.9196971617057,None,0,3,,N13B03,2022-12-09_09h19.23.211,t1_Paradigm,2021.1.4,59.96827650352196,
R,left,Distractor,0,3,3,3,1492.4196860939846,1494.4211473529722,left,1,3,0.4689807277318323,N13B03,2022-12-09_09h19.23.211,t1_Paradigm,2021.1.4,59.96827650352196,
H,left,Pretarget,0,4,4,4,1495.9191822724097,1497.9205726338841,left,1,3,0.8088455091638025,N13B03,2022-12-09_09h19.23.211,t1_Paradigm,2021.1.4,59.96827650352196,
K,left,Distractor,0,5,5,5,1499.41871470162,1501.4199953483621,left,1,3,0.7043714260507841,N13B03,2022-12-09_09h19.23.211,t1_Paradigm,2021.1.4,59.96827650352196,
G,left,Distractor,0,6,6,6,1502.9179978666652,1504.9193429948646,left,1,3,0.5713371883175569,N13B03,2022-12-09_09h19.23.211,t1_Paradigm,2021.1.4,59.96827650352196,
H,right,Target,0,7,7,7,1506.4174154482898,1508.4193877469224,left,0,3,0.7560653476248262,N13B03,2022-12-09_09h19.23.211,t1_Paradigm,2021.1.4,59.96827650352196,
Y,left,Pretarget,0,8,8,8,1509.916286381107,1511.9181733460573,left,1,3,0.4605647741991561,N13B03,2022-12-09_09h19.23.211,t1_Paradigm,2021.1.4,59.96827650352196,
S,left,Distractor,0,9,9,9,1513.4164363566379,1515.415449565713,left,1,3,0.582434415773605,N13B03,2022-12-09_09h19.23.211,t1_Paradigm,2021.1.4,59.96827650352196,
P,left,Distractor,0,10,10,10,1516.9157621885242,1518.9175307770784,left,1,3,0.5930687240761472,N13B03,2022-12-09_09h19.23.211,t1_Paradigm,2021.1.4,59.96827650352196,
Y,right,Target,0,11,11,11,1520.4152375147387,1522.4161967165855,left,0,3,0.6114340709173121,N13B03,2022-12-09_09h19.23.211,t1_Paradigm,2021.1.4,59.96827650352196,
H,left,Lure,0,12,12,12,1523.9147798888444,1525.926592828444,left,1,3,1.249942977214232,N13B03,2022-12-09_09h19.23.211,t1_Paradigm,2021.1.4,59.96827650352196,
Q,left,Distractor,0,13,13,13,1527.4140755652188,1529.4134698886046,left,1,3,0.868364464622573,N13B03,2022-12-09_09h19.23.211,t1_Paradigm,2021.1.4,59.96827650352196,
V,left,Pretarget,0,14,14,14,1530.913383111314,1532.9154359315726,left,1,3,0.4801337749668164,N13B03,2022-12-09_09h19.23.211,t1_Paradigm,2021.1.4,59.96827650352196,
G,left,Distractor,0,15,15,15,1534.4130810750212,1536.4145240482176,left,1,3,0.5999351977370679,N13B03,2022-12-09_09h19.23.211,t1_Paradigm,2021.1.4,59.96827650352196,
Z,left,Pretarget,0,16,16,16,1537.9123068162735,1539.9142229743302,left,1,3,0.6911315534089226,N13B03,2022-12-09_09h19.23.211,t1_Paradigm,2021.1.4,59.96827650352196,
V,right,Target,0,17,17,17,1541.41155052252,1543.4129630194075,right,1,3,0.5015031238290248,N13B03,2022-12-09_09h19.23.211,t1_Paradigm,2021.1.4,59.96827650352196,
N,left,Distractor,0,18,18,18,1544.9106168245344,1546.9132172560203,left,1,3,0.5635294778039679,N13B03,2022-12-09_09h19.23.211,t1_Paradigm,2021.1.4,59.96827650352196,
Z,right,Target,0,19,19,19,1548.4110154226219,1550.412243136816,right,1,3,0.752662266313564,N13B03,2022-12-09_09h19.23.211,t1_Paradigm,2021.1.4,59.96827650352196,
R,left,Distractor,0,20,20,20,1551.9101798904449,1553.911358521742,left,1,3,0.9910075629450148,N13B03,2022-12-09_09h19.23.211,t1_Paradigm,2021.1.4,59.96827650352196,
P,left,Distractor,0,21,21,21,1555.4096677280031,1557.411493098727,left,1,3,1.0898929319082526,N13B03,2022-12-09_09h19.23.211,t1_Paradigm,2021.1.4,59.96827650352196,
Z,right,Target,0,22,22,22,1558.9087917746074,1560.9109511015704,right,1,3,1.1317478165437933,N13B03,2022-12-09_09h19.23.211,t1_Paradigm,2021.1.4,59.96827650352196,
D,left,Pretarget,0,23,23,23,1562.408592716165,1564.4102243217058,left,1,3,0.8848168614204042,N13B03,2022-12-09_09h19.23.211,t1_Paradigm,2021.1.4,59.96827650352196,
K,left,Distractor,0,24,24,24,1565.9077202916233,1567.909428569139,left,1,3,0.5482579579256708,N13B03,2022-12-09_09h19.23.211,t1_Paradigm,2021.1.4,59.96827650352196,
W,left,Distractor,0,25,25,25,1569.407227056552,1571.4081856167904,left,1,3,0.48931741080014035,N13B03,2022-12-09_09h19.23.211,t1_Paradigm,2021.1.4,59.96827650352196,
D,right,Target,0,26,26,26,1572.9068955063558,1574.9081373358931,right,1,3,0.7472573724517133,N13B03,2022-12-09_09h19.23.211,t1_Paradigm,2021.1.4,59.96827650352196,
G,left,Pretarget,0,27,27,27,1576.4227587479108,1578.4239643266774,left,1,3,0.687240530285635,N13B03,2022-12-09_09h19.23.211,t1_Paradigm,2021.1.4,59.96827650352196,
V,left,Distractor,0,28,28,28,1579.9217416410684,1581.9210009062808,left,1,3,0.6259122442570515,N13B03,2022-12-09_09h19.23.211,t1_Paradigm,2021.1.4,59.96827650352196,
D,right,Target,0,29,29,29,1583.42164267326,1585.4335508914373,left,0,3,0.44780354006798007,N13B03,2022-12-09_09h19.23.211,t1_Paradigm,2021.1.4,59.96827650352196,
G,right,Target,0,30,30,30,1586.9208953619964,1588.9230883732962,right,1,3,0.7770628854777897,N13B03,2022-12-09_09h19.23.211,t1_Paradigm,2021.1.4,59.96827650352196,
B,left,Pretarget,0,31,31,31,1590.420544563589,1592.4194060327136,left,1,3,0.6510940194275463,N13B03,2022-12-09_09h19.23.211,t1_Paradigm,2021.1.4,59.96827650352196,
N,left,Distractor,0,32,32,32,1593.9199727317318,1595.9201767626218,left,1,3,0.4435711822443409,N13B03,2022-12-09_09h19.23.211,t1_Paradigm,2021.1.4,59.96827650352196,
F,left,Distractor,0,33,33,33,1597.4194794966606,1599.4203822371346,left,1,3,0.6239120357349748,N13B03,2022-12-09_09h19.23.211,t1_Paradigm,2021.1.4,59.96827650352196,
B,right,Target,0,34,34,34,1600.9183552415343,1602.920790138509,right,1,3,0.6449313881894341,N13B03,2022-12-09_09h19.23.211,t1_Paradigm,2021.1.4,59.96827650352196,
Q,left,Pretarget,0,35,35,35,1604.4181071001804,1606.4201252736966,left,1,3,0.6870214216323802,N13B03,2022-12-09_09h19.23.211,t1_Paradigm,2021.1.4,59.96827650352196,
S,left,Pretarget,0,36,36,36,1607.9176023162,1609.9187251277326,left,1,3,0.7710314627765911,N13B03,2022-12-09_09h19.23.211,t1_Paradigm,2021.1.4,59.96827650352196,
W,left,Distractor,0,37,37,37,1611.4169047294417,1613.4187586516637,left,1,3,0.6129713602858828,N13B03,2022-12-09_09h19.23.211,t1_Paradigm,2021.1.4,59.96827650352196,
Q,right,Target,0,38,38,38,1614.916649851235,1616.9179965834483,right,1,3,0.8591057608282426,N13B03,2022-12-09_09h19.23.211,t1_Paradigm,2021.1.4,59.96827650352196,
S,right,Target,0,39,39,39,1618.415768123392,1620.417739459619,right,1,3,1.07243930803088,N13B03,2022-12-09_09h19.23.211,t1_Paradigm,2021.1.4,59.96827650352196,
T,left,Distractor,0,40,40,40,1621.9149306663894,1623.9161763455777,left,1,3,0.8790818609704729,N13B03,2022-12-09_09h19.23.211,t1_Paradigm,2021.1.4,59.96827650352196,
G,left,Distractor,0,41,41,41,1625.4149308267952,1627.4168097716756,left,1,3,0.7203480715688784,N13B03,2022-12-09_09h19.23.211,t1_Paradigm,2021.1.4,59.96827650352196,
D,left,Distractor,0,42,42,42,1628.914235806471,1630.916395775028,left,1,3,0.7261052074463805,N13B03,2022-12-09_09h19.23.211,t1_Paradigm,2021.1.4,59.96827650352196,
S,left,Lure,0,43,43,43,1632.413760536394,1634.4150597897242,left,1,3,1.0012835339730373,N13B03,2022-12-09_09h19.23.211,t1_Paradigm,2021.1.4,59.96827650352196,
Z,left,Pretarget,0,44,44,44,1635.9131572657934,1637.9138097796967,left,1,3,0.457799449810409,N13B03,2022-12-09_09h19.23.211,t1_Paradigm,2021.1.4,59.96827650352196,
J,left,Distractor,0,45,45,45,1639.4123814030463,1641.4144050301984,left,1,3,0.6249912180210231,N13B03,2022-12-09_09h19.23.211,t1_Paradigm,2021.1.4,59.96827650352196,
M,left,Pretarget,0,46,46,46,1642.9119953162735,1644.9135784805258,left,1,3,0.500450889026979,N13B03,2022-12-09_09h19.23.211,t1_Paradigm,2021.1.4,59.96827650352196,
Z,right,Target,0,47,47,47,1646.4112547418772,1648.413584094582,right,1,3,0.6605885136377765,N13B03,2022-12-09_09h19.23.211,t1_Paradigm,2021.1.4,59.96827650352196,
P,left,Distractor,0,48,48,48,1649.9103714100202,1651.9122413723962,left,1,3,0.8625794188556029,N13B03,2022-12-09_09h19.23.211,t1_Paradigm,2021.1.4,59.96827650352196,
M,right,Target,0,49,49,49,1653.4094027444808,1655.4120538628777,left,0,3,0.8185886259161634,N13B03,2022-12-09_09h19.23.211,t1_Paradigm,2021.1.4,59.96827650352196,
K,left,Distractor,0,50,50,50,1656.9095267349476,1658.9104480820097,left,1,3,0.9029226783895865,N13B03,2022-12-09_09h19.23.211,t1_Paradigm,2021.1.4,59.96827650352196,
Y,left,Distractor,0,51,51,51,1660.4091412897978,1662.4104918716475,left,1,3,0.5324150873784674,N13B03,2022-12-09_09h19.23.211,t1_Paradigm,2021.1.4,59.96827650352196,
X,left,Distractor,0,52,52,52,1663.9085129965533,1665.9106543585222,left,1,3,0.5944693512574304,N13B03,2022-12-09_09h19.23.211,t1_Paradigm,2021.1.4,59.96827650352196,
F,left,Pretarget,0,53,53,53,1667.4078683423286,1669.409592018419,left,1,3,0.662103025970282,N13B03,2022-12-09_09h19.23.211,t1_Paradigm,2021.1.4,59.96827650352196,
M,left,Lure,0,54,54,54,1670.907402054756,1672.9090885176556,left,1,3,0.594139565480873,N13B03,2022-12-09_09h19.23.211,t1_Paradigm,2021.1.4,59.96827650352196,
V,left,Distractor,0,55,55,55,1674.406507815569,1676.4081981281197,left,1,3,0.5717901625757804,N13B03,2022-12-09_09h19.23.211,t1_Paradigm,2021.1.4,59.96827650352196,
F,right,Target,0,56,56,56,1677.9062571078102,1679.908222348764,left,0,3,0.6742948342725867,N13B03,2022-12-09_09h19.23.211,t1_Paradigm,2021.1.4,59.96827650352196,
S,left,Distractor,0,57,57,57,1681.422037582117,1683.4245424142136,left,1,3,0.5324048216716619,N13B03,2022-12-09_09h19.23.211,t1_Paradigm,2021.1.4,59.96827650352196,
D,left,Distractor,0,58,58,58,1684.921733300187,1686.9233479031536,left,1,3,0.5432226294651628,N13B03,2022-12-09_09h19.23.211,t1_Paradigm,2021.1.4,59.96827650352196,
F,right,Target,0,59,59,59,1688.4209285651305,1690.4229688740597,right,1,3,1.0538288674870273,N13B03,2022-12-09_09h19.23.211,t1_Paradigm,2021.1.4,59.96827650352196,
V,left,Pretarget,0,60,60,60,1691.9204699768306,1693.9225564814406,left,1,3,0.5415483570832293,N13B03,2022-12-09_09h19.23.211,t1_Paradigm,2021.1.4,59.96827650352196,
J,left,Distractor,0,61,61,61,1695.4199645512417,1697.421546432277,left,1,3,0.9551263563917018,N13B03,2022-12-09_09h19.23.211,t1_Paradigm,2021.1.4,59.96827650352196,
V,left,Lure,0,62,62,62,1698.9194905643817,1700.9213845870108,left,1,3,1.1967563579237321,N13B03,2022-12-09_09h19.23.211,t1_Paradigm,2021.1.4,59.96827650352196,
V,right,Target,0,63,63,63,1702.4187531980133,1704.4184702495113,right,1,3,0.8787822307058377,N13B03,2022-12-09_09h19.23.211,t1_Paradigm,2021.1.4,59.96827650352196,
R,left,Distractor,0,0,0,0,1800.5728715904697,1802.5706246842165,None,0,4,,N13B03,2022-12-09_09h19.23.211,t1_Paradigm,2021.1.4,59.96827650352196,
F,left,Distractor,0,1,1,1,1804.0688270629762,1806.0681270701898,None,0,4,,N13B03,2022-12-09_09h19.23.211,t1_Paradigm,2021.1.4,59.96827650352196,
P,left,Pretarget,0,2,2,2,1807.5674320498656,1809.570258968466,None,0,4,,N13B03,2022-12-09_09h19.23.211,t1_Paradigm,2021.1.4,59.96827650352196,
H,left,Distractor,0,3,3,3,1811.0676827576244,1813.070147168517,None,0,4,,N13B03,2022-12-09_09h19.23.211,t1_Paradigm,2021.1.4,59.96827650352196,
Z,left,Distractor,0,4,4,4,1814.566894704345,1816.5683732867183,left,1,4,0.4859095174324466,N13B03,2022-12-09_09h19.23.211,t1_Paradigm,2021.1.4,59.96827650352196,
T,left,Distractor,0,5,5,5,1818.0664316248003,1820.0685948013852,left,1,4,0.6905268392147264,N13B03,2022-12-09_09h19.23.211,t1_Paradigm,2021.1.4,59.96827650352196,
P,right,Target,0,6,6,6,1821.5656984288653,1823.567337412882,left,0,4,0.6887720452068606,N13B03,2022-12-09_09h19.23.211,t1_Paradigm,2021.1.4,59.96827650352196,
G,left,Distractor,0,7,7,7,1825.0655757216155,1827.0663071531162,left,1,4,0.8905448041768977,N13B03,2022-12-09_09h19.23.211,t1_Paradigm,2021.1.4,59.96827650352196,
L,left,Distractor,0,8,8,8,1828.564068427353,1830.5667532300868,left,1,4,0.5936423203675076,N13B03,2022-12-09_09h19.23.211,t1_Paradigm,2021.1.4,59.96827650352196,
P,left,Lure,0,9,9,9,1832.0642244981427,1834.0662997746404,right,0,4,1.104755748383468,N13B03,2022-12-09_09h19.23.211,t1_Paradigm,2021.1.4,59.96827650352196,
Q,left,Pretarget,0,10,10,10,1835.5636645360064,1837.565252191489,left,1,4,0.4627164018602343,N13B03,2022-12-09_09h19.23.211,t1_Paradigm,2021.1.4,59.96827650352196,
D,left,Distractor,0,11,11,11,1839.063288714955,1841.0654605532327,left,1,4,0.5042572200763971,N13B03,2022-12-09_09h19.23.211,t1_Paradigm,2021.1.4,59.96827650352196,
M,left,Pretarget,0,12,12,12,1842.5626501560037,1844.5650295540108,left,1,4,0.5136384707293473,N13B03,2022-12-09_09h19.23.211,t1_Paradigm,2021.1.4,59.96827650352196,
C,left,Distractor,0,13,13,13,1846.0618630651152,1848.0627346876572,left,1,4,0.5779024276707787,N13B03,2022-12-09_09h19.23.211,t1_Paradigm,2021.1.4,59.96827650352196,
Q,right,Target,0,14,14,14,1849.561396456731,1851.5631268696889,right,1,4,0.725245133813587,N13B03,2022-12-09_09h19.23.211,t1_Paradigm,2021.1.4,59.96827650352196,
R,left,Distractor,0,15,15,15,1853.060874990988,1855.0620658128028,left,1,4,0.7805413555470295,N13B03,2022-12-09_09h19.23.211,t1_Paradigm,2021.1.4,59.96827650352196,
M,right,Target,0,16,16,16,1856.5602136550006,1858.5621179433365,right,1,4,0.7692230946267955,N13B03,2022-12-09_09h19.23.211,t1_Paradigm,2021.1.4,59.96827650352196,
S,left,Distractor,0,17,17,17,1860.059579908091,1862.0586255183007,left,1,4,0.6191564477485372,N13B03,2022-12-09_09h19.23.211,t1_Paradigm,2021.1.4,59.96827650352196,
Z,left,Distractor,0,18,18,18,1863.559291024736,1865.5608700185257,left,1,4,0.683246529311873,N13B03,2022-12-09_09h19.23.211,t1_Paradigm,2021.1.4,59.96827650352196,
L,left,Pretarget,0,19,19,19,1867.058382670206,1869.0603722922242,left,1,4,0.7338724967412418,N13B03,2022-12-09_09h19.23.211,t1_Paradigm,2021.1.4,59.96827650352196,
M,right,Target,0,20,20,20,1870.5578105175373,1872.5599534835346,right,1,4,0.8861186811845982,N13B03,2022-12-09_09h19.23.211,t1_Paradigm,2021.1.4,59.96827650352196,
P,left,Distractor,0,21,21,21,1874.0574661352148,1876.0591388035682,left,1,4,0.6190515450725798,N13B03,2022-12-09_09h19.23.211,t1_Paradigm,2021.1.4,59.96827650352196,
F,left,Distractor,0,22,22,22,1877.5561612678139,1879.5583128954895,left,1,4,0.5353610239981208,N13B03,2022-12-09_09h19.23.211,t1_Paradigm,2021.1.4,59.96827650352196,
L,right,Target,0,23,23,23,1881.056266972504,1883.057813565174,right,1,4,1.1809853473096155,N13B03,2022-12-09_09h19.23.211,t1_Paradigm,2021.1.4,59.96827650352196,
L,left,Lure,0,24,24,24,1884.5556075613422,1886.5552004619676,left,1,4,0.870950780750718,N13B03,2022-12-09_09h19.23.211,t1_Paradigm,2021.1.4,59.96827650352196,
V,left,Pretarget,0,25,25,25,1888.0550209725188,1890.0560789817828,left,1,4,0.6347500541305635,N13B03,2022-12-09_09h19.23.211,t1_Paradigm,2021.1.4,59.96827650352196,
Z,left,Distractor,0,26,26,26,1891.5545543641347,1893.5553903775144,left,1,4,0.8816806884424295,N13B03,2022-12-09_09h19.23.211,t1_Paradigm,2021.1.4,59.96827650352196,
H,left,Distractor,0,27,27,27,1895.0540733195958,1897.0558451161778,left,1,4,0.8655295259377453,N13B03,2022-12-09_09h19.23.211,t1_Paradigm,2021.1.4,59.96827650352196,
X,left,Distractor,0,28,28,28,1898.5537202755804,1900.5557378074736,left,1,4,0.6020942038885551,N13B03,2022-12-09_09h19.23.211,t1_Paradigm,2021.1.4,59.96827650352196,
V,right,Target,0,29,29,29,1902.0693724285666,1904.0707781885867,right,1,4,0.45774234684358817,N13B03,2022-12-09_09h19.23.211,t1_Paradigm,2021.1.4,59.96827650352196,
C,left,Distractor,0,30,30,30,1905.568765949938,1907.570371249618,left,1,4,0.7489252287632553,N13B03,2022-12-09_09h19.23.211,t1_Paradigm,2021.1.4,59.96827650352196,
S,left,Pretarget,0,31,31,31,1909.0682528250763,1911.0697955681098,left,1,4,0.8935398237226764,N13B03,2022-12-09_09h19.23.211,t1_Paradigm,2021.1.4,59.96827650352196,
D,left,Distractor,0,32,32,32,1912.5677502867184,1914.5694434865,left,1,4,0.5035135980433552,N13B03,2022-12-09_09h19.23.211,t1_Paradigm,2021.1.4,59.96827650352196,
V,left,Distractor,0,33,33,33,1916.067163056301,1918.069190853901,left,1,4,0.6641616207052721,N13B03,2022-12-09_09h19.23.211,t1_Paradigm,2021.1.4,59.96827650352196,
R,left,Distractor,0,34,34,34,1919.5667750447174,1921.5685340091586,left,1,4,0.6415183619828895,N13B03,2022-12-09_09h19.23.211,t1_Paradigm,2021.1.4,59.96827650352196,
S,right,Target,0,35,35,35,1923.0660578889656,1925.0674931628891,left,0,4,1.1124678595224395,N13B03,2022-12-09_09h19.23.211,t1_Paradigm,2021.1.4,59.96827650352196,
Y,left,Distractor,0,36,36,36,1926.5654193300143,1928.5668138619221,left,1,4,0.588137335886131,N13B03,2022-12-09_09h19.23.211,t1_Paradigm,2021.1.4,59.96827650352196,
N,left,Pretarget,0,37,37,37,1930.0650274687941,1932.066527544972,left,1,4,0.5408172463794472,N13B03,2022-12-09_09h19.23.211,t1_Paradigm,2021.1.4,59.96827650352196,
Z,left,Pretarget,0,38,38,38,1933.5642320370243,1935.5657834417507,left,1,4,0.5510781396587845,N13B03,2022-12-09_09h19.23.211,t1_Paradigm,2021.1.4,59.96827650352196,
P,left,Pretarget,0,39,39,39,1937.064180548099,1939.065625446121,left,1,4,0.49159062291437294,N13B03,2022-12-09_09h19.23.211,t1_Paradigm,2021.1.4,59.96827650352196,
M,left,Distractor,0,40,40,40,1940.5631073006807,1942.5647055426816,left,1,4,0.6935808865382569,N13B03,2022-12-09_09h19.23.211,t1_Paradigm,2021.1.4,59.96827650352196,
N,right,Target,0,41,41,41,1944.0627189683,1946.0647031366534,left,0,4,0.6495471059461124,N13B03,2022-12-09_09h19.23.211,t1_Paradigm,2021.1.4,59.96827650352196,
Z,right,Target,0,42,42,42,1947.5622815530078,1949.5636664608173,left,0,4,0.9410921748058172,N13B03,2022-12-09_09h19.23.211,t1_Paradigm,2021.1.4,59.96827650352196,
P,right,Target,0,43,43,43,1951.061719345249,1953.0629294152604,None,0,4,,N13B03,2022-12-09_09h19.23.211,t1_Paradigm,2021.1.4,59.96827650352196,
X,left,Pretarget,0,44,44,44,1954.5606884438748,1956.5621352667076,left,1,4,0.7332395518315025,N13B03,2022-12-09_09h19.23.211,t1_Paradigm,2021.1.4,59.96827650352196,
Z,left,Lure,0,45,45,45,1958.0602587278554,1960.0619731006445,right,0,4,0.7224352177872788,N13B03,2022-12-09_09h19.23.211,t1_Paradigm,2021.1.4,59.96827650352196,
R,left,Pretarget,0,46,46,46,1961.5596875376068,1963.5613797749684,left,1,4,0.5938550129649229,N13B03,2022-12-09_09h19.23.211,t1_Paradigm,2021.1.4,59.96827650352196,
K,left,Distractor,0,47,47,47,1965.059487837556,1967.0602715599962,left,1,4,0.5350322006270289,N13B03,2022-12-09_09h19.23.211,t1_Paradigm,2021.1.4,59.96827650352196,
X,right,Target,0,48,48,48,1968.5585073022958,1970.5591001467692,left,0,4,0.5907281432591844,N13B03,2022-12-09_09h19.23.211,t1_Paradigm,2021.1.4,59.96827650352196,
B,left,Distractor,0,49,49,49,1972.0578052242927,1974.0602446125122,left,1,4,0.5865785526984837,N13B03,2022-12-09_09h19.23.211,t1_Paradigm,2021.1.4,59.96827650352196,
R,right,Target,0,50,50,50,1975.5577068980783,1977.5589127976564,left,0,4,0.9598970221413765,N13B03,2022-12-09_09h19.23.211,t1_Paradigm,2021.1.4,59.96827650352196,
Y,left,Pretarget,0,51,51,51,1979.0569066542666,1981.0587191928644,left,1,4,0.5454573451861506,N13B03,2022-12-09_09h19.23.211,t1_Paradigm,2021.1.4,59.96827650352196,
W,left,Pretarget,0,52,52,52,1982.5566168084915,1984.5576905371126,left,1,4,0.5314401661744341,N13B03,2022-12-09_09h19.23.211,t1_Paradigm,2021.1.4,59.96827650352196,
Z,left,Distractor,0,53,53,53,1986.0557196820882,1988.0570917577716,left,1,4,0.6837155437242473,N13B03,2022-12-09_09h19.23.211,t1_Paradigm,2021.1.4,59.96827650352196,
Q,left,Distractor,0,54,54,54,1989.5551651736023,1991.5568904537067,left,1,4,0.5995171910326462,N13B03,2022-12-09_09h19.23.211,t1_Paradigm,2021.1.4,59.96827650352196,
Y,right,Target,0,55,55,55,1993.0549025961081,1995.066877541365,left,0,4,0.6969599076110171,N13B03,2022-12-09_09h19.23.211,t1_Paradigm,2021.1.4,59.96827650352196,
W,right,Target,0,56,56,56,1996.5538854892657,1998.5556499073718,right,1,4,0.9413055089971749,N13B03,2022-12-09_09h19.23.211,t1_Paradigm,2021.1.4,59.96827650352196,
H,left,Pretarget,0,57,57,57,2000.0533778180688,2002.0533742892294,left,1,4,0.5009458885033382,N13B03,2022-12-09_09h19.23.211,t1_Paradigm,2021.1.4,59.96827650352196,
M,left,Distractor,0,58,58,58,2003.5529269290419,2005.553838972788,left,1,4,0.5992720973299583,N13B03,2022-12-09_09h19.23.211,t1_Paradigm,2021.1.4,59.96827650352196,
R,left,Pretarget,0,59,59,59,2007.068854972851,2009.0703688435897,left,1,4,0.8895965096598957,N13B03,2022-12-09_09h19.23.211,t1_Paradigm,2021.1.4,59.96827650352196,
J,left,Distractor,0,60,60,60,2010.5684878134925,2012.569849623469,left,1,4,0.47524248718400486,N13B03,2022-12-09_09h19.23.211,t1_Paradigm,2021.1.4,59.96827650352196,
H,right,Target,0,61,61,61,2014.067702968241,2016.069064136609,left,0,4,0.4935048561601434,N13B03,2022-12-09_09h19.23.211,t1_Paradigm,2021.1.4,59.96827650352196,
Z,left,Distractor,0,62,62,62,2017.5670535019744,2019.5682837826025,left,1,4,0.5528278008132474,N13B03,2022-12-09_09h19.23.211,t1_Paradigm,2021.1.4,59.96827650352196,
R,right,Target,0,63,63,63,2021.066475254047,2023.0681841731712,left,0,4,0.46424631276750006,N13B03,2022-12-09_09h19.23.211,t1_Paradigm,2021.1.4,59.96827650352196,
J,left,Pretarget,0,0,0,0,2038.1325751682307,2040.131891215613,None,0,4,,N13B03,2022-12-09_09h19.23.211,t1_Paradigm,2021.1.4,59.96827650352196,
G,left,Pretarget,0,1,1,1,2041.629594103637,2043.63095078076,None,0,4,,N13B03,2022-12-09_09h19.23.211,t1_Paradigm,2021.1.4,59.96827650352196,
Z,left,Distractor,0,2,2,2,2045.12932382687,2047.130604794409,None,0,4,,N13B03,2022-12-09_09h19.23.211,t1_Paradigm,2021.1.4,59.96827650352196,
F,left,Distractor,0,3,3,3,2048.628005806546,2050.6282047045825,None,0,4,,N13B03,2022-12-09_09h19.23.211,t1_Paradigm,2021.1.4,59.96827650352196,
J,right,Target,0,4,4,4,2052.128522781044,2054.1404444729706,right,1,4,0.5467710346711101,N13B03,2022-12-09_09h19.23.211,t1_Paradigm,2021.1.4,59.96827650352196,
G,right,Target,0,5,5,5,2055.62783417679,2057.629103916217,right,1,4,0.4820573114993749,N13B03,2022-12-09_09h19.23.211,t1_Paradigm,2021.1.4,59.96827650352196,
H,left,Distractor,0,6,6,6,2059.127052218755,2061.128660726463,left,1,4,0.5449697241856484,N13B03,2022-12-09_09h19.23.211,t1_Paradigm,2021.1.4,59.96827650352196,
P,left,Distractor,0,7,7,7,2062.626531073809,2064.6273285907955,left,1,4,0.5595608203002485,N13B03,2022-12-09_09h19.23.211,t1_Paradigm,2021.1.4,59.96827650352196,
G,left,Lure,0,8,8,8,2066.1258392615127,2068.1280245735397,right,0,4,0.613432675410877,N13B03,2022-12-09_09h19.23.211,t1_Paradigm,2021.1.4,59.96827650352196,
S,left,Distractor,0,9,9,9,2069.6253264574625,2071.6268977519794,left,1,4,0.5624018542439444,N13B03,2022-12-09_09h19.23.211,t1_Paradigm,2021.1.4,59.96827650352196,
R,left,Pretarget,0,10,10,10,2073.124745963898,2075.126550803223,left,1,4,0.682212580300984,N13B03,2022-12-09_09h19.23.211,t1_Paradigm,2021.1.4,59.96827650352196,
T,left,Pretarget,0,11,11,11,2076.6242819219333,2078.636391604581,left,1,4,0.661745971912751,N13B03,2022-12-09_09h19.23.211,t1_Paradigm,2021.1.4,59.96827650352196,
X,left,Distractor,0,12,12,12,2080.123476545268,2082.122660421708,left,1,4,0.5097689414251363,N13B03,2022-12-09_09h19.23.211,t1_Paradigm,2021.1.4,59.96827650352196,
F,left,Pretarget,0,13,13,13,2083.6233653869276,2085.6228238709737,right,0,4,0.7020853817957686,N13B03,2022-12-09_09h19.23.211,t1_Paradigm,2021.1.4,59.96827650352196,
R,right,Target,0,14,14,14,2087.1225898449775,2089.1248960998346,left,0,4,0.970267950950074,N13B03,2022-12-09_09h19.23.211,t1_Paradigm,2021.1.4,59.96827650352196,
T,right,Target,0,15,15,15,2090.6219824039435,2092.6241802273,right,1,4,0.8700692132988479,N13B03,2022-12-09_09h19.23.211,t1_Paradigm,2021.1.4,59.96827650352196,
C,left,Distractor,0,16,16,16,2094.1214035144076,2096.1228670190176,left,1,4,0.6446121889166534,N13B03,2022-12-09_09h19.23.211,t1_Paradigm,2021.1.4,59.96827650352196,
F,right,Target,0,17,17,17,2097.6208448354737,2099.6330982379877,right,1,4,1.1452058354043402,N13B03,2022-12-09_09h19.23.211,t1_Paradigm,2021.1.4,59.96827650352196,
M,left,Distractor,0,18,18,18,2101.120103940266,2103.132338094598,left,1,4,0.8009887157386402,N13B03,2022-12-09_09h19.23.211,t1_Paradigm,2021.1.4,59.96827650352196,
N,left,Distractor,0,19,19,19,2104.6196071763698,2106.621207663993,left,1,4,0.8538048072368838,N13B03,2022-12-09_09h19.23.211,t1_Paradigm,2021.1.4,59.96827650352196,
R,left,Lure,0,20,20,20,2108.1188832837506,2110.120311820807,right,0,4,0.9661485158867436,N13B03,2022-12-09_09h19.23.211,t1_Paradigm,2021.1.4,59.96827650352196,
F,right,Target,0,21,21,21,2111.6187333082053,2113.6209439636878,left,0,4,0.9426827175338985,N13B03,2022-12-09_09h19.23.211,t1_Paradigm,2021.1.4,59.96827650352196,
P,left,Distractor,0,22,22,22,2115.1179442925204,2117.117060800243,left,1,4,0.5688429427391384,N13B03,2022-12-09_09h19.23.211,t1_Paradigm,2021.1.4,59.96827650352196,
L,left,Pretarget,0,23,23,23,2118.6176582963817,2120.6294324187766,left,1,4,0.6270947252050973,N13B03,2022-12-09_09h19.23.211,t1_Paradigm,2021.1.4,59.96827650352196,
T,left,Distractor,0,24,24,24,2122.1168862832565,2124.1188040453417,left,1,4,0.520621716772439,N13B03,2022-12-09_09h19.23.211,t1_Paradigm,2021.1.4,59.96827650352196,
F,left,Distractor,0,25,25,25,2125.6162082655064,2127.6180827191274,left,1,4,0.9872140640218277,N13B03,2022-12-09_09h19.23.211,t1_Paradigm,2021.1.4,59.96827650352196,
V,left,Distractor,0,26,26,26,2129.1156813460984,2131.117612581904,left,1,4,0.6424275184981525,N13B03,2022-12-09_09h19.23.211,t1_Paradigm,2021.1.4,59.96827650352196,
L,right,Target,0,27,27,27,2132.6318114959868,2134.632718406894,left,0,4,0.5876429780182661,N13B03,2022-12-09_09h19.23.211,t1_Paradigm,2021.1.4,59.96827650352196,
S,left,Pretarget,0,28,28,28,2136.131360286163,2138.1326313088066,left,1,4,0.6705812153668376,N13B03,2022-12-09_09h19.23.211,t1_Paradigm,2021.1.4,59.96827650352196,
W,left,Distractor,0,29,29,29,2139.6306274110393,2141.6321573219466,left,1,4,0.48892538917425554,N13B03,2022-12-09_09h19.23.211,t1_Paradigm,2021.1.4,59.96827650352196,
Q,left,Distractor,0,30,30,30,2143.130224642504,2145.1319496018114,left,1,4,0.5027247427497059,N13B03,2022-12-09_09h19.23.211,t1_Paradigm,2021.1.4,59.96827650352196,
L,right,Target,0,31,31,31,2146.6294179826364,2148.630815401775,left,0,4,0.6884303896949859,N13B03,2022-12-09_09h19.23.211,t1_Paradigm,2021.1.4,59.96827650352196,
S,right,Target,0,32,32,32,2150.128905499383,2152.1305351800984,right,1,4,1.3789389431185555,N13B03,2022-12-09_09h19.23.211,t1_Paradigm,2021.1.4,59.96827650352196,
Z,left,Pretarget,0,33,33,33,2153.6283641438204,2155.629921322994,left,1,4,1.010053654346848,N13B03,2022-12-09_09h19.23.211,t1_Paradigm,2021.1.4,59.96827650352196,
F,left,Distractor,0,34,34,34,2157.1279315405845,2159.129091565279,left,1,4,0.7434058081416879,N13B03,2022-12-09_09h19.23.211,t1_Paradigm,2021.1.4,59.96827650352196,
V,left,Distractor,0,35,35,35,2160.6263302509615,2162.628914321467,left,1,4,0.6670462838956155,N13B03,2022-12-09_09h19.23.211,t1_Paradigm,2021.1.4,59.96827650352196,
M,left,Distractor,0,36,36,36,2164.1265601065097,2166.12786032226,left,1,4,0.49492344830650836,N13B03,2022-12-09_09h19.23.211,t1_Paradigm,2021.1.4,59.96827650352196,
Z,right,Target,0,37,37,37,2167.62611595435,2169.6381181679026,right,1,4,0.6370059428882087,N13B03,2022-12-09_09h19.23.211,t1_Paradigm,2021.1.4,59.96827650352196,
H,left,Pretarget,0,38,38,38,2171.125463600867,2173.128027139959,left,1,4,0.6356604938773671,N13B03,2022-12-09_09h19.23.211,t1_Paradigm,2021.1.4,59.96827650352196,
L,left,Distractor,0,39,39,39,2174.624778846235,2176.6264688379742,left,1,4,0.5368521177006187,N13B03,2022-12-09_09h19.23.211,t1_Paradigm,2021.1.4,59.96827650352196,
G,left,Distractor,0,40,40,40,2178.124353621475,2180.1258867404104,left,1,4,0.7466013297234895,N13B03,2022-12-09_09h19.23.211,t1_Paradigm,2021.1.4,59.96827650352196,
K,left,Distractor,0,41,41,41,2181.6238087370875,2183.6258435923664,left,1,4,0.5889784821192734,N13B03,2022-12-09_09h19.23.211,t1_Paradigm,2021.1.4,59.96827650352196,
H,right,Target,0,42,42,42,2185.123276684826,2187.12245222037,left,0,4,0.5490163369104266,N13B03,2022-12-09_09h19.23.211,t1_Paradigm,2021.1.4,59.96827650352196,
B,left,Distractor,0,43,43,43,2188.6228873900254,2190.6245087298594,left,1,4,0.4747972122277133,N13B03,2022-12-09_09h19.23.211,t1_Paradigm,2021.1.4,59.96827650352196,
Z,left,Distractor,0,44,44,44,2192.1221461740206,2194.1233809458936,left,1,4,0.5058917128480971,N13B03,2022-12-09_09h19.23.211,t1_Paradigm,2021.1.4,59.96827650352196,
T,left,Pretarget,0,45,45,45,2195.620729346294,2197.623701588789,left,1,4,0.6901935245841742,N13B03,2022-12-09_09h19.23.211,t1_Paradigm,2021.1.4,59.96827650352196,
H,right,Target,0,46,46,46,2199.121026570545,2201.1224060246896,right,1,4,1.0799509171047248,N13B03,2022-12-09_09h19.23.211,t1_Paradigm,2021.1.4,59.96827650352196,
F,left,Distractor,0,47,47,47,2202.6203597808926,2204.621650051733,left,1,4,1.0413072734081652,N13B03,2022-12-09_09h19.23.211,t1_Paradigm,2021.1.4,59.96827650352196,
R,left,Distractor,0,48,48,48,2206.1195252111356,2208.1212899500388,left,1,4,0.680518738925457,N13B03,2022-12-09_09h19.23.211,t1_Paradigm,2021.1.4,59.96827650352196,
T,right,Target,0,49,49,49,2209.6191465028533,2211.6199603808054,right,1,4,0.7607384891744005,N13B03,2022-12-09_09h19.23.211,t1_Paradigm,2021.1.4,59.96827650352196,
H,right,Target,0,50,50,50,2213.118546440295,2215.1199377641606,right,1,4,0.8391890092898393,N13B03,2022-12-09_09h19.23.211,t1_Paradigm,2021.1.4,59.96827650352196,
Y,left,Pretarget,0,51,51,51,2216.6181587495084,2218.6179364328273,left,1,4,0.7406122530810535,N13B03,2022-12-09_09h19.23.211,t1_Paradigm,2021.1.4,59.96827650352196,
H,left,Distractor,0,52,52,52,2220.117511528879,2222.119084748221,left,1,4,0.7489281160087558,N13B03,2022-12-09_09h19.23.211,t1_Paradigm,2021.1.4,59.96827650352196,
S,left,Distractor,0,53,53,53,2223.616681450352,2225.618996046105,left,1,4,0.5874591577303363,N13B03,2022-12-09_09h19.23.211,t1_Paradigm,2021.1.4,59.96827650352196,
Q,left,Distractor,0,54,54,54,2227.1164368378522,2229.1178698661533,left,1,4,0.5856562432309147,N13B03,2022-12-09_09h19.23.211,t1_Paradigm,2021.1.4,59.96827650352196,
Y,right,Target,0,55,55,55,2230.6157902588166,2232.617232590419,right,1,4,0.9336906012613326,N13B03,2022-12-09_09h19.23.211,t1_Paradigm,2021.1.4,59.96827650352196,
R,left,Distractor,0,56,56,56,2234.131103001928,2236.132954357716,left,1,4,0.7118153456249274,N13B03,2022-12-09_09h19.23.211,t1_Paradigm,2021.1.4,59.96827650352196,
H,left,Pretarget,0,57,57,57,2237.631117598474,2239.6334697282,right,0,4,0.8431486843037419,N13B03,2022-12-09_09h19.23.211,t1_Paradigm,2021.1.4,59.96827650352196,
J,left,Distractor,0,58,58,58,2241.1308107501245,2243.133057335581,left,1,4,0.7837339899124345,N13B03,2022-12-09_09h19.23.211,t1_Paradigm,2021.1.4,59.96827650352196,
V,left,Distractor,0,59,59,59,2244.6299399295967,2246.631724558305,left,1,4,0.562304330043844,N13B03,2022-12-09_09h19.23.211,t1_Paradigm,2021.1.4,59.96827650352196,
Y,left,Lure,0,60,60,60,2248.129791878877,2250.1314985523786,left,1,4,0.5762948823830811,N13B03,2022-12-09_09h19.23.211,t1_Paradigm,2021.1.4,59.96827650352196,
H,right,Target,0,61,61,61,2251.6288511232124,2253.6410612172913,right,1,4,0.6938307923119282,N13B03,2022-12-09_09h19.23.211,t1_Paradigm,2021.1.4,59.96827650352196,
L,left,Distractor,0,62,62,62,2255.1284165951656,2257.140522748974,left,1,4,0.5570649706933182,N13B03,2022-12-09_09h19.23.211,t1_Paradigm,2021.1.4,59.96827650352196,
P,left,Distractor,0,63,63,63,2258.6280311500013,2260.6299235686165,left,1,4,0.6307534867373761,N13B03,2022-12-09_09h19.23.211,t1_Paradigm,2021.1.4,59.96827650352196,
