Letter,CorrAnswer,Stimulus,nback_run.thisRepN,nback_run.thisTrialN,nback_run.thisN,nback_run.thisIndex,fixcross.started,nback_trial.started,trial_resp.keys,trial_resp.corr,currentlevel,trial_resp.rt,Participant,date,expName,psychopyVersion,frameRate,
H,left,Distractor,0,0,0,0,248.6309215228598,250.61925459741292,None,0,1,,N24N04,2022-11-17_16h06.26.040,t1_Paradigm,2021.1.4,59.97037253646007,
Q,left,Pretarget,0,1,1,1,252.12122592541732,254.12362616563382,left,1,1,0.43904762882448267,N24N04,2022-11-17_16h06.26.040,t1_Paradigm,2021.1.4,59.97037253646007,
Q,right,Target,0,2,2,2,255.61700481331263,257.61637860789915,left,0,1,0.5293848173419065,N24N04,2022-11-17_16h06.26.040,t1_Paradigm,2021.1.4,59.97037253646007,
T,left,Distractor,0,3,3,3,259.1159458460638,261.11769325430487,left,1,1,0.5491843931133644,N24N04,2022-11-17_16h06.26.040,t1_Paradigm,2021.1.4,59.97037253646007,
Q,left,Lure,0,4,4,4,262.61535075843994,264.61672892363254,left,1,1,0.5393819686205461,N24N04,2022-11-17_16h06.26.040,t1_Paradigm,2021.1.4,59.97037253646007,
L,left,Distractor,0,5,5,5,266.11479994148567,268.11706544488175,left,1,1,0.613865124593076,N24N04,2022-11-17_16h06.26.040,t1_Paradigm,2021.1.4,59.97037253646007,
V,left,Pretarget,0,6,6,6,269.6136100870401,271.61603278339317,left,1,1,0.714242772652824,N24N04,2022-11-17_16h06.26.040,t1_Paradigm,2021.1.4,59.97037253646007,
V,right,Target,0,7,7,7,273.1138481220896,275.1135029391876,right,1,1,0.4482735722067446,N24N04,2022-11-17_16h06.26.040,t1_Paradigm,2021.1.4,59.97037253646007,
K,left,Distractor,0,8,8,8,276.61308140542064,278.61488655801327,left,1,1,0.5052723801065895,N24N04,2022-11-17_16h06.26.040,t1_Paradigm,2021.1.4,59.97037253646007,
G,left,Pretarget,0,9,9,9,280.1125289844565,282.11436365082886,left,1,1,0.6096780174952983,N24N04,2022-11-17_16h06.26.040,t1_Paradigm,2021.1.4,59.97037253646007,
G,right,Target,0,10,10,10,283.6119640522163,285.61160347082046,right,1,1,0.616883870976153,N24N04,2022-11-17_16h06.26.040,t1_Paradigm,2021.1.4,59.97037253646007,
G,right,Target,0,11,11,11,287.11166891441894,289.1110593907074,right,1,1,0.48815855829047905,N24N04,2022-11-17_16h06.26.040,t1_Paradigm,2021.1.4,59.97037253646007,
P,left,Pretarget,0,12,12,12,290.6106978469056,292.61392222734094,left,1,1,0.42560795178224,N24N04,2022-11-17_16h06.26.040,t1_Paradigm,2021.1.4,59.97037253646007,
P,right,Target,0,13,13,13,294.1102275512417,296.10973255382737,right,1,1,0.4390469872205358,N24N04,2022-11-17_16h06.26.040,t1_Paradigm,2021.1.4,59.97037253646007,
G,left,Lure,0,14,14,14,297.6099182981584,299.61071517021105,left,1,1,0.6193890134313733,N24N04,2022-11-17_16h06.26.040,t1_Paradigm,2021.1.4,59.97037253646007,
Y,left,Distractor,0,15,15,15,301.10917628324,303.11308814226163,left,1,1,0.4097792625918828,N24N04,2022-11-17_16h06.26.040,t1_Paradigm,2021.1.4,59.97037253646007,
B,left,Distractor,0,16,16,16,304.60869732592323,306.61209012738414,left,1,1,0.36295821747035006,N24N04,2022-11-17_16h06.26.040,t1_Paradigm,2021.1.4,59.97037253646007,
T,left,Pretarget,0,17,17,17,308.10819847888547,310.1095862681366,left,1,1,0.6072697572299148,N24N04,2022-11-17_16h06.26.040,t1_Paradigm,2021.1.4,59.97037253646007,
T,right,Target,0,18,18,18,311.60742662938515,313.6067683437766,right,1,1,0.5788813507558643,N24N04,2022-11-17_16h06.26.040,t1_Paradigm,2021.1.4,59.97037253646007,
S,left,Distractor,0,19,19,19,315.10657618340633,317.10978965657523,left,1,1,0.4259823276620409,N24N04,2022-11-17_16h06.26.040,t1_Paradigm,2021.1.4,59.97037253646007,
T,left,Lure,0,20,20,20,318.60612545666163,320.6074927145876,left,1,1,1.0253045372946872,N24N04,2022-11-17_16h06.26.040,t1_Paradigm,2021.1.4,59.97037253646007,
J,left,Distractor,0,21,21,21,322.1053590607946,324.1057626296522,left,1,1,0.9426832773640399,N24N04,2022-11-17_16h06.26.040,t1_Paradigm,2021.1.4,59.97037253646007,
P,left,Distractor,0,22,22,22,325.60481177266183,327.6064382385664,left,1,1,1.073758464359571,N24N04,2022-11-17_16h06.26.040,t1_Paradigm,2021.1.4,59.97037253646007,
F,left,Distractor,0,23,23,23,329.104512785241,331.10819751647955,left,1,1,0.9179593916053364,N24N04,2022-11-17_16h06.26.040,t1_Paradigm,2021.1.4,59.97037253646007,
L,left,Distractor,0,24,24,24,332.6034785197428,334.61594007162876,left,1,1,0.8212427354396823,N24N04,2022-11-17_16h06.26.040,t1_Paradigm,2021.1.4,59.97037253646007,
W,left,Pretarget,0,25,25,25,336.1032754521061,338.1061216070382,left,1,1,0.7876457884478896,N24N04,2022-11-17_16h06.26.040,t1_Paradigm,2021.1.4,59.97037253646007,
W,right,Target,0,26,26,26,339.60276569780194,341.6022536978842,right,1,1,0.416959131114254,N24N04,2022-11-17_16h06.26.040,t1_Paradigm,2021.1.4,59.97037253646007,
V,left,Distractor,0,27,27,27,343.10208431445267,345.1031275624057,left,1,1,0.5073954474353286,N24N04,2022-11-17_16h06.26.040,t1_Paradigm,2021.1.4,59.97037253646007,
W,left,Lure,0,28,28,28,346.6179938457353,348.6190046926911,left,1,1,0.6515603165416906,N24N04,2022-11-17_16h06.26.040,t1_Paradigm,2021.1.4,59.97037253646007,
R,left,Pretarget,0,29,29,29,350.1174593896808,352.1191827377752,left,1,1,0.4975843612896824,N24N04,2022-11-17_16h06.26.040,t1_Paradigm,2021.1.4,59.97037253646007,
R,right,Target,0,30,30,30,353.61684505393964,355.616393364789,right,1,1,0.6321899737840795,N24N04,2022-11-17_16h06.26.040,t1_Paradigm,2021.1.4,59.97037253646007,
G,left,Distractor,0,31,31,31,357.1162717808486,359.11767336458365,left,1,1,0.5420754218225738,N24N04,2022-11-17_16h06.26.040,t1_Paradigm,2021.1.4,59.97037253646007,
R,left,Lure,0,32,32,32,360.61569658294593,362.61709399625556,left,1,1,0.5847651793860678,N24N04,2022-11-17_16h06.26.040,t1_Paradigm,2021.1.4,59.97037253646007,
S,left,Distractor,0,33,33,33,364.1153257358876,366.11626889363106,left,1,1,0.5827441270787403,N24N04,2022-11-17_16h06.26.040,t1_Paradigm,2021.1.4,59.97037253646007,
R,left,Lure,0,34,34,34,367.6147267986403,369.61655729458744,left,1,1,0.596102320424734,N24N04,2022-11-17_16h06.26.040,t1_Paradigm,2021.1.4,59.97037253646007,
P,left,Pretarget,0,35,35,35,371.11398157570216,373.11453688388383,left,1,1,0.7423498358134566,N24N04,2022-11-17_16h06.26.040,t1_Paradigm,2021.1.4,59.97037253646007,
P,right,Target,0,36,36,36,374.6133332349541,376.6130384179587,right,1,1,0.4671136293352447,N24N04,2022-11-17_16h06.26.040,t1_Paradigm,2021.1.4,59.97037253646007,
Y,left,Pretarget,0,37,37,37,378.1126589092478,380.1142006834366,left,1,1,0.5245615599699249,N24N04,2022-11-17_16h06.26.040,t1_Paradigm,2021.1.4,59.97037253646007,
Y,right,Target,0,38,38,38,381.6124981874691,383.61183508983095,right,1,1,0.47115316753433945,N24N04,2022-11-17_16h06.26.040,t1_Paradigm,2021.1.4,59.97037253646007,
J,left,Distractor,0,39,39,39,385.11163779662957,387.11374931508794,left,1,1,0.5684331519305488,N24N04,2022-11-17_16h06.26.040,t1_Paradigm,2021.1.4,59.97037253646007,
Y,left,Lure,0,40,40,40,388.61118289945944,390.6125588190382,left,1,1,0.7144140808959492,N24N04,2022-11-17_16h06.26.040,t1_Paradigm,2021.1.4,59.97037253646007,
T,left,Distractor,0,41,41,41,392.1106856564313,394.1123974556556,left,1,1,0.6747052150849413,N24N04,2022-11-17_16h06.26.040,t1_Paradigm,2021.1.4,59.97037253646007,
V,left,Distractor,0,42,42,42,395.60982269917645,397.61117167139105,left,1,1,0.5262159356445864,N24N04,2022-11-17_16h06.26.040,t1_Paradigm,2021.1.4,59.97037253646007,
N,left,Pretarget,0,43,43,43,399.1093966741821,401.1113747390277,left,1,1,0.49090398140901925,N24N04,2022-11-17_16h06.26.040,t1_Paradigm,2021.1.4,59.97037253646007,
N,right,Target,0,44,44,44,402.6086325239287,404.6082844538091,right,1,1,0.6708899174514045,N24N04,2022-11-17_16h06.26.040,t1_Paradigm,2021.1.4,59.97037253646007,
N,right,Target,0,45,45,45,406.108367541515,408.107732032845,right,1,1,0.4157862791721527,N24N04,2022-11-17_16h06.26.040,t1_Paradigm,2021.1.4,59.97037253646007,
X,left,Distractor,0,46,46,46,409.60752190756534,411.6108553606648,left,1,1,0.5401002441942637,N24N04,2022-11-17_16h06.26.040,t1_Paradigm,2021.1.4,59.97037253646007,
Z,left,Distractor,0,47,47,47,413.1068690755899,415.10859178208057,left,1,1,0.633260489903023,N24N04,2022-11-17_16h06.26.040,t1_Paradigm,2021.1.4,59.97037253646007,
H,left,Pretarget,0,48,48,48,416.6064478626249,418.6084397219545,left,1,1,0.6064706395636676,N24N04,2022-11-17_16h06.26.040,t1_Paradigm,2021.1.4,59.97037253646007,
H,right,Target,0,49,49,49,420.1055974166461,422.10531318611515,right,1,1,0.8924447290314674,N24N04,2022-11-17_16h06.26.040,t1_Paradigm,2021.1.4,59.97037253646007,
K,left,Distractor,0,50,50,50,423.6053260181934,425.60718057428676,left,1,1,0.6307816532080324,N24N04,2022-11-17_16h06.26.040,t1_Paradigm,2021.1.4,59.97037253646007,
V,left,Pretarget,0,51,51,51,427.10478161727815,429.1066772360218,left,1,1,0.5833196457831491,N24N04,2022-11-17_16h06.26.040,t1_Paradigm,2021.1.4,59.97037253646007,
V,right,Target,0,52,52,52,430.60400527655065,432.603815361794,right,1,1,0.750518736758977,N24N04,2022-11-17_16h06.26.040,t1_Paradigm,2021.1.4,59.97037253646007,
R,left,Distractor,0,53,53,53,434.10370404351625,436.1049051260302,left,1,1,0.6527723063222766,N24N04,2022-11-17_16h06.26.040,t1_Paradigm,2021.1.4,59.97037253646007,
V,left,Lure,0,54,54,54,437.6027663394059,439.6043847852616,left,1,1,0.7196190925924384,N24N04,2022-11-17_16h06.26.040,t1_Paradigm,2021.1.4,59.97037253646007,
Y,left,Distractor,0,55,55,55,441.10235025927227,443.1039780083845,left,1,1,1.039696675336927,N24N04,2022-11-17_16h06.26.040,t1_Paradigm,2021.1.4,59.97037253646007,
Q,left,Distractor,0,56,56,56,444.6182379760221,446.6199943667177,left,1,1,0.6658289458318905,N24N04,2022-11-17_16h06.26.040,t1_Paradigm,2021.1.4,59.97037253646007,
Z,left,Pretarget,0,57,57,57,448.11757295357233,450.1188712390783,left,1,1,0.692810635739761,N24N04,2022-11-17_16h06.26.040,t1_Paradigm,2021.1.4,59.97037253646007,
Z,right,Target,0,58,58,58,451.61705870804076,453.6165986780393,right,1,1,0.5498356210789552,N24N04,2022-11-17_16h06.26.040,t1_Paradigm,2021.1.4,59.97037253646007,
B,left,Distractor,0,59,59,59,455.11648735976155,457.11858315892414,left,1,1,0.5575740058025076,N24N04,2022-11-17_16h06.26.040,t1_Paradigm,2021.1.4,59.97037253646007,
S,left,Pretarget,0,60,60,60,458.61599460796083,460.6177603019132,left,1,1,0.5918632434104438,N24N04,2022-11-17_16h06.26.040,t1_Paradigm,2021.1.4,59.97037253646007,
S,right,Target,0,61,61,61,462.1152493850227,464.1149837610051,left,0,1,0.5144909450441446,N24N04,2022-11-17_16h06.26.040,t1_Paradigm,2021.1.4,59.97037253646007,
T,left,Distractor,0,62,62,62,465.61460457309613,467.61654157529165,left,1,1,0.49781373468658785,N24N04,2022-11-17_16h06.26.040,t1_Paradigm,2021.1.4,59.97037253646007,
D,left,Distractor,0,63,63,63,469.11435081875084,471.1171520614091,left,1,1,0.6460450893562211,N24N04,2022-11-17_16h06.26.040,t1_Paradigm,2021.1.4,59.97037253646007,
R,left,Distractor,0,0,0,0,490.3364952643217,492.32852076936,None,0,1,,N24N04,2022-11-17_16h06.26.040,t1_Paradigm,2021.1.4,59.97037253646007,
V,left,Distractor,0,1,1,1,493.8266655716627,495.82792985216156,left,1,1,0.4339645218703936,N24N04,2022-11-17_16h06.26.040,t1_Paradigm,2021.1.4,59.97037253646007,
N,left,Pretarget,0,2,2,2,497.3261407396667,499.3280556065274,left,1,1,0.7247881744701772,N24N04,2022-11-17_16h06.26.040,t1_Paradigm,2021.1.4,59.97037253646007,
N,right,Target,0,3,3,3,500.8254474866451,502.82497077494213,right,1,1,0.5009425161397303,N24N04,2022-11-17_16h06.26.040,t1_Paradigm,2021.1.4,59.97037253646007,
S,left,Distractor,0,4,4,4,504.32510454935664,506.32668481978,left,1,1,0.4557283680035198,N24N04,2022-11-17_16h06.26.040,t1_Paradigm,2021.1.4,59.97037253646007,
N,left,Lure,0,5,5,5,507.8244590958261,509.8254231056965,left,1,1,0.4912103472745457,N24N04,2022-11-17_16h06.26.040,t1_Paradigm,2021.1.4,59.97037253646007,
Z,left,Distractor,0,6,6,6,511.3238001686136,513.3249249002627,left,1,1,0.5500736561286885,N24N04,2022-11-17_16h06.26.040,t1_Paradigm,2021.1.4,59.97037253646007,
L,left,Pretarget,0,7,7,7,514.8233215320988,516.8242399880919,left,1,1,0.5681068963435791,N24N04,2022-11-17_16h06.26.040,t1_Paradigm,2021.1.4,59.97037253646007,
L,right,Target,0,8,8,8,518.3222378630996,520.3222644896618,left,0,1,0.58777205609681,N24N04,2022-11-17_16h06.26.040,t1_Paradigm,2021.1.4,59.97037253646007,
H,left,Distractor,0,9,9,9,521.82120006878,523.8239644192138,left,1,1,0.7100441166846849,N24N04,2022-11-17_16h06.26.040,t1_Paradigm,2021.1.4,59.97037253646007,
L,left,Lure,0,10,10,10,525.3213906251403,527.3232884894976,left,1,1,0.6585878041362321,N24N04,2022-11-17_16h06.26.040,t1_Paradigm,2021.1.4,59.97037253646007,
X,left,Pretarget,0,11,11,11,528.8207069961773,530.8225560986377,left,1,1,0.7545986960042228,N24N04,2022-11-17_16h06.26.040,t1_Paradigm,2021.1.4,59.97037253646007,
X,right,Target,0,12,12,12,532.3201257030375,534.3200304248574,right,1,1,0.635769161179951,N24N04,2022-11-17_16h06.26.040,t1_Paradigm,2021.1.4,59.97037253646007,
X,right,Target,0,13,13,13,535.8196326304349,537.8192611417726,right,1,1,0.5234554348342044,N24N04,2022-11-17_16h06.26.040,t1_Paradigm,2021.1.4,59.97037253646007,
R,left,Distractor,0,14,14,14,539.318913713257,541.3204959084919,left,1,1,0.5925998046957375,N24N04,2022-11-17_16h06.26.040,t1_Paradigm,2021.1.4,59.97037253646007,
T,left,Distractor,0,15,15,15,542.8185415829907,544.8192505553081,left,1,1,0.7426003821392442,N24N04,2022-11-17_16h06.26.040,t1_Paradigm,2021.1.4,59.97037253646007,
V,left,Pretarget,0,16,16,16,546.3178804101647,548.3190914375393,left,1,1,0.6864687019196936,N24N04,2022-11-17_16h06.26.040,t1_Paradigm,2021.1.4,59.97037253646007,
V,right,Target,0,17,17,17,549.8168422950428,551.81697318224,right,1,1,0.4657043463530499,N24N04,2022-11-17_16h06.26.040,t1_Paradigm,2021.1.4,59.97037253646007,
N,left,Distractor,0,18,18,18,553.3166126008441,555.3176815129534,left,1,1,0.45787934510212835,N24N04,2022-11-17_16h06.26.040,t1_Paradigm,2021.1.4,59.97037253646007,
B,left,Distractor,0,19,19,19,556.8159944154797,558.8181168412043,left,1,1,0.5156936315679559,N24N04,2022-11-17_16h06.26.040,t1_Paradigm,2021.1.4,59.97037253646007,
V,left,Lure,0,20,20,20,560.3155523503876,562.3174611220113,left,1,1,0.4808927148442308,N24N04,2022-11-17_16h06.26.040,t1_Paradigm,2021.1.4,59.97037253646007,
P,left,Distractor,0,21,21,21,563.8151150973249,565.8156582150323,left,1,1,0.5658446009672389,N24N04,2022-11-17_16h06.26.040,t1_Paradigm,2021.1.4,59.97037253646007,
K,left,Pretarget,0,22,22,22,567.3143454934384,569.3153056536853,left,1,1,0.682160652485436,N24N04,2022-11-17_16h06.26.040,t1_Paradigm,2021.1.4,59.97037253646007,
K,right,Target,0,23,23,23,570.813829643897,572.8134690625013,right,1,1,0.6812380260671489,N24N04,2022-11-17_16h06.26.040,t1_Paradigm,2021.1.4,59.97037253646007,
J,left,Pretarget,0,24,24,24,574.3134215838122,576.3144003505724,left,1,1,0.6205313891878177,N24N04,2022-11-17_16h06.26.040,t1_Paradigm,2021.1.4,59.97037253646007,
J,right,Target,0,25,25,25,577.8127488621155,579.8121441504331,right,1,1,0.4772670111651678,N24N04,2022-11-17_16h06.26.040,t1_Paradigm,2021.1.4,59.97037253646007,
H,left,Distractor,0,26,26,26,581.3123193082997,583.3138524208357,left,1,1,0.5871298105855658,N24N04,2022-11-17_16h06.26.040,t1_Paradigm,2021.1.4,59.97037253646007,
J,left,Lure,0,27,27,27,584.8281210501259,586.8288653106583,left,1,1,0.7984622679159656,N24N04,2022-11-17_16h06.26.040,t1_Paradigm,2021.1.4,59.97037253646007,
V,left,Distractor,0,28,28,28,588.3273293109046,590.329149541189,left,1,1,0.6240727219533255,N24N04,2022-11-17_16h06.26.040,t1_Paradigm,2021.1.4,59.97037253646007,
Z,left,Pretarget,0,29,29,29,591.8269167595922,593.8289127893474,left,1,1,0.6623697383668059,N24N04,2022-11-17_16h06.26.040,t1_Paradigm,2021.1.4,59.97037253646007,
Z,right,Target,0,30,30,30,595.3264121381194,597.3262998574357,right,1,1,0.6662161537897191,N24N04,2022-11-17_16h06.26.040,t1_Paradigm,2021.1.4,59.97037253646007,
T,left,Distractor,0,31,31,31,598.8256880881102,600.8279385138144,left,1,1,0.576469882470974,N24N04,2022-11-17_16h06.26.040,t1_Paradigm,2021.1.4,59.97037253646007,
Z,left,Lure,0,32,32,32,602.3250516170344,604.3269870152201,right,0,1,0.5950982103101978,N24N04,2022-11-17_16h06.26.040,t1_Paradigm,2021.1.4,59.97037253646007,
F,left,Distractor,0,33,33,33,605.8245431459379,607.8252492310378,left,1,1,0.5862601164897114,N24N04,2022-11-17_16h06.26.040,t1_Paradigm,2021.1.4,59.97037253646007,
Y,left,Pretarget,0,34,34,34,609.3241123089144,611.3257698926084,left,1,1,0.640104157978385,N24N04,2022-11-17_16h06.26.040,t1_Paradigm,2021.1.4,59.97037253646007,
Y,right,Target,0,35,35,35,612.8236073666394,614.8231303341345,right,1,1,0.5992535580144249,N24N04,2022-11-17_16h06.26.040,t1_Paradigm,2021.1.4,59.97037253646007,
Y,right,Target,0,36,36,36,616.3227857928364,618.322311326747,right,1,1,0.3843672566429177,N24N04,2022-11-17_16h06.26.040,t1_Paradigm,2021.1.4,59.97037253646007,
W,left,Distractor,0,37,37,37,619.8220848405681,621.821330314373,left,1,1,0.4361225566117355,N24N04,2022-11-17_16h06.26.040,t1_Paradigm,2021.1.4,59.97037253646007,
Q,left,Distractor,0,38,38,38,623.3217059734607,625.3234213015062,left,1,1,0.7372689744729541,N24N04,2022-11-17_16h06.26.040,t1_Paradigm,2021.1.4,59.97037253646007,
P,left,Pretarget,0,39,39,39,626.8208577730957,628.8222147653591,left,1,1,0.7074998363909799,N24N04,2022-11-17_16h06.26.040,t1_Paradigm,2021.1.4,59.97037253646007,
P,right,Target,0,40,40,40,630.320572900961,632.3202915576476,right,1,1,0.596515834143247,N24N04,2022-11-17_16h06.26.040,t1_Paradigm,2021.1.4,59.97037253646007,
J,left,Distractor,0,41,41,41,633.8199296930438,635.8210277981311,left,1,1,0.5239138608262692,N24N04,2022-11-17_16h06.26.040,t1_Paradigm,2021.1.4,59.97037253646007,
P,left,Lure,0,42,42,42,637.3193115076792,639.3210075876077,left,1,1,0.6514018403768205,N24N04,2022-11-17_16h06.26.040,t1_Paradigm,2021.1.4,59.97037253646007,
L,left,Distractor,0,43,43,43,640.8186679789605,642.8309322376449,left,1,1,0.4876786385680134,N24N04,2022-11-17_16h06.26.040,t1_Paradigm,2021.1.4,59.97037253646007,
Z,left,Distractor,0,44,44,44,644.3180725705347,646.3190038586058,left,1,1,0.6560451278523942,N24N04,2022-11-17_16h06.26.040,t1_Paradigm,2021.1.4,59.97037253646007,
F,left,Pretarget,0,45,45,45,647.816724239924,649.8187356681728,left,1,1,0.5598215442892069,N24N04,2022-11-17_16h06.26.040,t1_Paradigm,2021.1.4,59.97037253646007,
F,right,Target,0,46,46,46,651.3167107662421,653.316653663494,right,1,1,0.7062762977398052,N24N04,2022-11-17_16h06.26.040,t1_Paradigm,2021.1.4,59.97037253646007,
G,left,Pretarget,0,47,47,47,654.8162308465194,656.8171980644092,left,1,1,0.5112315971960015,N24N04,2022-11-17_16h06.26.040,t1_Paradigm,2021.1.4,59.97037253646007,
G,right,Target,0,48,48,48,658.3160101347753,660.3154205007845,right,1,1,0.51002794826627,N24N04,2022-11-17_16h06.26.040,t1_Paradigm,2021.1.4,59.97037253646007,
V,left,Distractor,0,49,49,49,661.8151308166207,663.8164329517504,left,1,1,0.5185292000351183,N24N04,2022-11-17_16h06.26.040,t1_Paradigm,2021.1.4,59.97037253646007,
G,left,Lure,0,50,50,50,665.3145039696033,667.3165603101256,left,1,1,0.9685440852463216,N24N04,2022-11-17_16h06.26.040,t1_Paradigm,2021.1.4,59.97037253646007,
Q,left,Pretarget,0,51,51,51,668.8140118594065,670.8151147765229,left,1,1,0.7549339340457664,N24N04,2022-11-17_16h06.26.040,t1_Paradigm,2021.1.4,59.97037253646007,
Q,right,Target,0,52,52,52,672.3133853331915,674.3131062354919,left,0,1,0.5051658738580045,N24N04,2022-11-17_16h06.26.040,t1_Paradigm,2021.1.4,59.97037253646007,
Y,left,Distractor,0,53,53,53,675.8128123809024,677.8139441701946,left,1,1,0.6566036440535754,N24N04,2022-11-17_16h06.26.040,t1_Paradigm,2021.1.4,59.97037253646007,
V,left,Distractor,0,54,54,54,679.3288765387265,681.3295944934985,left,1,1,0.5691652219888965,N24N04,2022-11-17_16h06.26.040,t1_Paradigm,2021.1.4,59.97037253646007,
B,left,Distractor,0,55,55,55,682.8282965287945,684.8297837666514,left,1,1,0.7418477807559611,N24N04,2022-11-17_16h06.26.040,t1_Paradigm,2021.1.4,59.97037253646007,
J,left,Pretarget,0,56,56,56,686.3276010301593,688.3289721377087,left,1,1,0.5566934044400114,N24N04,2022-11-17_16h06.26.040,t1_Paradigm,2021.1.4,59.97037253646007,
J,right,Target,0,57,57,57,689.826938574125,691.8261246995689,right,1,1,0.7043976815002679,N24N04,2022-11-17_16h06.26.040,t1_Paradigm,2021.1.4,59.97037253646007,
H,left,Distractor,0,58,58,58,693.3267717571093,695.3279141328658,left,1,1,0.5074897632098327,N24N04,2022-11-17_16h06.26.040,t1_Paradigm,2021.1.4,59.97037253646007,
J,left,Lure,0,59,59,59,696.825849772295,698.8271936116785,left,1,1,0.8482420694549546,N24N04,2022-11-17_16h06.26.040,t1_Paradigm,2021.1.4,59.97037253646007,
D,left,Pretarget,0,60,60,60,700.3254237473006,702.3270617620751,left,1,1,0.5643663455653041,N24N04,2022-11-17_16h06.26.040,t1_Paradigm,2021.1.4,59.97037253646007,
D,right,Target,0,61,61,61,703.8249967599004,705.8244266948286,right,1,1,0.6822418153801664,N24N04,2022-11-17_16h06.26.040,t1_Paradigm,2021.1.4,59.97037253646007,
R,left,Distractor,0,62,62,62,707.3241694116623,709.326013381291,left,1,1,0.6370257424318879,N24N04,2022-11-17_16h06.26.040,t1_Paradigm,2021.1.4,59.97037253646007,
F,left,Distractor,0,63,63,63,710.8236301435782,712.8250057423552,left,1,1,0.6353501938283443,N24N04,2022-11-17_16h06.26.040,t1_Paradigm,2021.1.4,59.97037253646007,
F,left,Distractor,0,0,0,0,818.2982649747146,820.2885761141133,None,0,2,,N24N04,2022-11-17_16h06.26.040,t1_Paradigm,2021.1.4,59.97037253646007,
N,left,Pretarget,0,1,1,1,821.7882193823407,823.7900659183856,None,0,2,,N24N04,2022-11-17_16h06.26.040,t1_Paradigm,2021.1.4,59.97037253646007,
V,left,Distractor,0,2,2,2,825.2876855678901,827.2895484648343,left,1,2,0.6328020639116403,N24N04,2022-11-17_16h06.26.040,t1_Paradigm,2021.1.4,59.97037253646007,
N,right,Target,0,3,3,3,828.7875270917252,830.7890031015131,right,1,2,0.6754177162233646,N24N04,2022-11-17_16h06.26.040,t1_Paradigm,2021.1.4,59.97037253646007,
N,left,Lure,0,4,4,4,832.2865621194487,834.2863057986879,left,1,2,1.3202543446209347,N24N04,2022-11-17_16h06.26.040,t1_Paradigm,2021.1.4,59.97037253646007,
X,left,Distractor,0,5,5,5,835.7858669416155,837.7866593224408,left,1,2,1.1134111898286392,N24N04,2022-11-17_16h06.26.040,t1_Paradigm,2021.1.4,59.97037253646007,
G,left,Pretarget,0,6,6,6,839.2853158038592,841.286773207134,left,1,2,0.9999945463669064,N24N04,2022-11-17_16h06.26.040,t1_Paradigm,2021.1.4,59.97037253646007,
H,left,Pretarget,0,7,7,7,842.7845850170088,844.7860934277946,left,1,2,0.732583982743563,N24N04,2022-11-17_16h06.26.040,t1_Paradigm,2021.1.4,59.97037253646007,
G,right,Target,0,8,8,8,846.2841160045527,848.2856038840137,right,1,2,0.9140176980022261,N24N04,2022-11-17_16h06.26.040,t1_Paradigm,2021.1.4,59.97037253646007,
H,right,Target,0,9,9,9,849.7835481850952,851.7848769467869,right,1,2,1.0628929021927433,N24N04,2022-11-17_16h06.26.040,t1_Paradigm,2021.1.4,59.97037253646007,
T,left,Pretarget,0,10,10,10,853.2831738092154,855.2843537188005,left,1,2,0.6361499530989931,N24N04,2022-11-17_16h06.26.040,t1_Paradigm,2021.1.4,59.97037253646007,
K,left,Distractor,0,11,11,11,856.7825116739832,858.7832973179675,left,1,2,0.9284938861560477,N24N04,2022-11-17_16h06.26.040,t1_Paradigm,2021.1.4,59.97037253646007,
T,right,Target,0,12,12,12,860.2818678244626,862.2827083255806,right,1,2,1.2038946640368522,N24N04,2022-11-17_16h06.26.040,t1_Paradigm,2021.1.4,59.97037253646007,
T,left,Lure,0,13,13,13,863.7812124260713,865.7809577093203,left,1,2,0.6973467753628029,N24N04,2022-11-17_16h06.26.040,t1_Paradigm,2021.1.4,59.97037253646007,
J,left,Distractor,0,14,14,14,867.2806125264183,869.282463232888,left,1,2,0.8481865707171892,N24N04,2022-11-17_16h06.26.040,t1_Paradigm,2021.1.4,59.97037253646007,
Q,left,Pretarget,0,15,15,15,870.7800591430482,872.7817468821258,left,1,2,0.8504180691056717,N24N04,2022-11-17_16h06.26.040,t1_Paradigm,2021.1.4,59.97037253646007,
M,left,Distractor,0,16,16,16,874.2794432032974,876.2820667216733,left,1,2,0.7537771222014271,N24N04,2022-11-17_16h06.26.040,t1_Paradigm,2021.1.4,59.97037253646007,
Q,right,Target,0,17,17,17,877.7788664013847,879.7798153335634,right,1,2,1.0675871971789093,N24N04,2022-11-17_16h06.26.040,t1_Paradigm,2021.1.4,59.97037253646007,
R,left,Distractor,0,18,18,18,881.2784012385523,883.279534631854,left,1,2,0.812360370949591,N24N04,2022-11-17_16h06.26.040,t1_Paradigm,2021.1.4,59.97037253646007,
W,left,Distractor,0,19,19,19,884.7777384617161,886.7787008675768,left,1,2,1.0022302151810436,N24N04,2022-11-17_16h06.26.040,t1_Paradigm,2021.1.4,59.97037253646007,
C,left,Pretarget,0,20,20,20,888.2771427324883,890.2791795040916,left,1,2,0.8032701267939046,N24N04,2022-11-17_16h06.26.040,t1_Paradigm,2021.1.4,59.97037253646007,
T,left,Distractor,0,21,21,21,891.776559835339,893.7782267222897,left,1,2,0.8015695556382525,N24N04,2022-11-17_16h06.26.040,t1_Paradigm,2021.1.4,59.97037253646007,
C,right,Target,0,22,22,22,895.2760792740123,897.2774644968476,right,1,2,0.9797131260611422,N24N04,2022-11-17_16h06.26.040,t1_Paradigm,2021.1.4,59.97037253646007,
F,left,Pretarget,0,23,23,23,898.775854391843,900.777152356547,left,1,2,0.7363963931593389,N24N04,2022-11-17_16h06.26.040,t1_Paradigm,2021.1.4,59.97037253646007,
C,right,Target,0,24,24,24,902.2748489985206,904.2769322864069,right,1,2,1.0115652312274506,N24N04,2022-11-17_16h06.26.040,t1_Paradigm,2021.1.4,59.97037253646007,
F,right,Target,0,25,25,25,905.7741018507709,907.7757158053992,left,0,2,1.112096543422922,N24N04,2022-11-17_16h06.26.040,t1_Paradigm,2021.1.4,59.97037253646007,
H,left,Distractor,0,26,26,26,909.2736931490817,911.2745820912951,left,1,2,0.8780888416099515,N24N04,2022-11-17_16h06.26.040,t1_Paradigm,2021.1.4,59.97037253646007,
H,left,Lure,0,27,27,27,912.7731362368904,914.7729113547211,right,0,2,1.117915890860786,N24N04,2022-11-17_16h06.26.040,t1_Paradigm,2021.1.4,59.97037253646007,
P,left,Distractor,0,28,28,28,916.2724583823624,918.2739337505468,left,1,2,0.6529516346140554,N24N04,2022-11-17_16h06.26.040,t1_Paradigm,2021.1.4,59.97037253646007,
G,left,Pretarget,0,29,29,29,919.7876294275484,921.7899157830711,left,1,2,0.7610615721605427,N24N04,2022-11-17_16h06.26.040,t1_Paradigm,2021.1.4,59.97037253646007,
K,left,Distractor,0,30,30,30,923.2879027508125,925.2894371465563,left,1,2,0.8978759061051278,N24N04,2022-11-17_16h06.26.040,t1_Paradigm,2021.1.4,59.97037253646007,
G,right,Target,0,31,31,31,926.7874173774567,928.7865242648181,right,1,2,1.020057179739979,N24N04,2022-11-17_16h06.26.040,t1_Paradigm,2021.1.4,59.97037253646007,
M,left,Pretarget,0,32,32,32,930.286793417657,932.2881985302138,left,1,2,0.7748967980114685,N24N04,2022-11-17_16h06.26.040,t1_Paradigm,2021.1.4,59.97037253646007,
B,left,Distractor,0,33,33,33,933.7860244553744,935.7883435326967,left,1,2,0.76776729539597,N24N04,2022-11-17_16h06.26.040,t1_Paradigm,2021.1.4,59.97037253646007,
M,right,Target,0,34,34,34,937.2856333977934,939.2870770065842,right,1,2,0.7133733993587157,N24N04,2022-11-17_16h06.26.040,t1_Paradigm,2021.1.4,59.97037253646007,
M,left,Lure,0,35,35,35,940.7848708515494,942.7845455583688,left,1,2,0.7991940171718852,N24N04,2022-11-17_16h06.26.040,t1_Paradigm,2021.1.4,59.97037253646007,
T,left,Distractor,0,36,36,36,944.2844730571273,946.2856407762383,left,1,2,1.1748190997786878,N24N04,2022-11-17_16h06.26.040,t1_Paradigm,2021.1.4,59.97037253646007,
F,left,Distractor,0,37,37,37,947.7837448366927,949.7831032327854,left,1,2,0.9339035694993072,N24N04,2022-11-17_16h06.26.040,t1_Paradigm,2021.1.4,59.97037253646007,
X,left,Distractor,0,38,38,38,951.2830637741454,953.284412104756,left,1,2,0.6892539044806654,N24N04,2022-11-17_16h06.26.040,t1_Paradigm,2021.1.4,59.97037253646007,
C,left,Distractor,0,39,39,39,954.7825620398899,956.783721738952,left,1,2,0.7770606071885595,N24N04,2022-11-17_16h06.26.040,t1_Paradigm,2021.1.4,59.97037253646007,
R,left,Distractor,0,40,40,40,958.2820169973706,960.2839716436738,left,1,2,1.0150083985950005,N24N04,2022-11-17_16h06.26.040,t1_Paradigm,2021.1.4,59.97037253646007,
B,left,Pretarget,0,41,41,41,961.7814004160159,963.7824789521837,left,1,2,0.7689847388096496,N24N04,2022-11-17_16h06.26.040,t1_Paradigm,2021.1.4,59.97037253646007,
H,left,Distractor,0,42,42,42,965.2807770978202,967.281954120188,left,1,2,0.5794065035538551,N24N04,2022-11-17_16h06.26.040,t1_Paradigm,2021.1.4,59.97037253646007,
B,right,Target,0,43,43,43,968.7803286166891,970.7819457793371,right,1,2,0.9402807915339508,N24N04,2022-11-17_16h06.26.040,t1_Paradigm,2021.1.4,59.97037253646007,
W,left,Pretarget,0,44,44,44,972.2796578198045,974.2809965263564,left,1,2,0.8689742165051939,N24N04,2022-11-17_16h06.26.040,t1_Paradigm,2021.1.4,59.97037253646007,
L,left,Pretarget,0,45,45,45,975.7791191933243,977.7806721955812,left,1,2,0.7318547999029761,N24N04,2022-11-17_16h06.26.040,t1_Paradigm,2021.1.4,59.97037253646007,
W,right,Target,0,46,46,46,979.2785850580717,981.2807437344172,right,1,2,0.8433886566999718,N24N04,2022-11-17_16h06.26.040,t1_Paradigm,2021.1.4,59.97037253646007,
L,right,Target,0,47,47,47,982.7778715945269,984.7793395842664,right,1,2,1.098974460314821,N24N04,2022-11-17_16h06.26.040,t1_Paradigm,2021.1.4,59.97037253646007,
W,right,Target,0,48,48,48,986.2772441059055,988.2784105418091,right,1,2,1.1955631165010345,N24N04,2022-11-17_16h06.26.040,t1_Paradigm,2021.1.4,59.97037253646007,
X,left,Distractor,0,49,49,49,989.7767815094885,991.7788882159175,left,1,2,0.6454888187686265,N24N04,2022-11-17_16h06.26.040,t1_Paradigm,2021.1.4,59.97037253646007,
R,left,Distractor,0,50,50,50,993.2761485672345,995.2776614692475,left,1,2,0.8074209832711858,N24N04,2022-11-17_16h06.26.040,t1_Paradigm,2021.1.4,59.97037253646007,
V,left,Pretarget,0,51,51,51,996.7755592540457,998.7767067626337,left,1,2,0.7445412339584436,N24N04,2022-11-17_16h06.26.040,t1_Paradigm,2021.1.4,59.97037253646007,
Z,left,Distractor,0,52,52,52,1000.2750575197902,1002.2761119958118,left,1,2,1.1059980982863635,N24N04,2022-11-17_16h06.26.040,t1_Paradigm,2021.1.4,59.97037253646007,
V,right,Target,0,53,53,53,1003.7745477654862,1005.7764141912521,right,1,2,0.9477291712914848,N24N04,2022-11-17_16h06.26.040,t1_Paradigm,2021.1.4,59.97037253646007,
V,left,Lure,0,54,54,54,1007.2744130286655,1009.2736090989702,right,0,2,0.8459348618048352,N24N04,2022-11-17_16h06.26.040,t1_Paradigm,2021.1.4,59.97037253646007,
N,left,Distractor,0,55,55,55,1010.7733614398617,1012.7748560561636,left,1,2,0.976772013750633,N24N04,2022-11-17_16h06.26.040,t1_Paradigm,2021.1.4,59.97037253646007,
B,left,Distractor,0,56,56,56,1014.2892773871836,1016.290621226567,left,1,2,1.1586638341991602,N24N04,2022-11-17_16h06.26.040,t1_Paradigm,2021.1.4,59.97037253646007,
V,left,Lure,0,57,57,57,1017.7886174975652,1019.790041216635,None,0,2,,N24N04,2022-11-17_16h06.26.040,t1_Paradigm,2021.1.4,59.97037253646007,
J,left,Distractor,0,58,58,58,1021.2880499989092,1023.2896774272199,right,0,2,1.325419256073019,N24N04,2022-11-17_16h06.26.040,t1_Paradigm,2021.1.4,59.97037253646007,
H,left,Distractor,0,59,59,59,1024.7875803448492,1026.7889694173082,left,1,2,0.7033011804228408,N24N04,2022-11-17_16h06.26.040,t1_Paradigm,2021.1.4,59.97037253646007,
X,left,Pretarget,0,60,60,60,1028.2869012071137,1030.2884747406956,left,1,2,0.8360875250382378,N24N04,2022-11-17_16h06.26.040,t1_Paradigm,2021.1.4,59.97037253646007,
P,left,Distractor,0,61,61,61,1031.7863231219935,1033.7879123748712,left,1,2,0.7935074817432906,N24N04,2022-11-17_16h06.26.040,t1_Paradigm,2021.1.4,59.97037253646007,
X,right,Target,0,62,62,62,1035.2857543401296,1037.286630450265,right,1,2,1.1149016357048822,N24N04,2022-11-17_16h06.26.040,t1_Paradigm,2021.1.4,59.97037253646007,
Q,left,Distractor,0,63,63,63,1038.784648535796,1040.786801116904,left,1,2,0.7197252780388226,N24N04,2022-11-17_16h06.26.040,t1_Paradigm,2021.1.4,59.97037253646007,
B,left,Pretarget,0,0,0,0,1064.415709286703,1066.4156261989974,None,0,2,,N24N04,2022-11-17_16h06.26.040,t1_Paradigm,2021.1.4,59.97037253646007,
F,left,Distractor,0,1,1,1,1067.913701387276,1069.9157160235445,None,0,2,,N24N04,2022-11-17_16h06.26.040,t1_Paradigm,2021.1.4,59.97037253646007,
B,right,Target,0,2,2,2,1071.4131685352313,1073.414301928533,right,1,2,0.5345757137524743,N24N04,2022-11-17_16h06.26.040,t1_Paradigm,2021.1.4,59.97037253646007,
V,left,Distractor,0,3,3,3,1074.9123995729483,1076.9138088559303,left,1,2,0.8179862748093001,N24N04,2022-11-17_16h06.26.040,t1_Paradigm,2021.1.4,59.97037253646007,
G,left,Pretarget,0,4,4,4,1078.4119382597391,1080.4130742194566,left,1,2,0.7797245466108507,N24N04,2022-11-17_16h06.26.040,t1_Paradigm,2021.1.4,59.97037253646007,
B,left,Lure,0,5,5,5,1081.9111824503366,1083.9124316531438,left,1,2,0.6349386049218992,N24N04,2022-11-17_16h06.26.040,t1_Paradigm,2021.1.4,59.97037253646007,
G,right,Target,0,6,6,6,1085.4108507411165,1087.4123812872372,right,1,2,0.8940901222513276,N24N04,2022-11-17_16h06.26.040,t1_Paradigm,2021.1.4,59.97037253646007,
Y,left,Pretarget,0,7,7,7,1088.9101125758216,1090.9111885455736,left,1,2,0.6967738230741816,N24N04,2022-11-17_16h06.26.040,t1_Paradigm,2021.1.4,59.97037253646007,
P,left,Distractor,0,8,8,8,1092.4096297688816,1094.411608154529,left,1,2,0.8572745692590615,N24N04,2022-11-17_16h06.26.040,t1_Paradigm,2021.1.4,59.97037253646007,
Y,right,Target,0,9,9,9,1095.9087796437047,1097.9104737988214,right,1,2,1.2594710360745012,N24N04,2022-11-17_16h06.26.040,t1_Paradigm,2021.1.4,59.97037253646007,
X,left,Distractor,0,10,10,10,1099.4083600347494,1101.4105729266248,left,1,2,0.7510936138596662,N24N04,2022-11-17_16h06.26.040,t1_Paradigm,2021.1.4,59.97037253646007,
Y,right,Target,0,11,11,11,1102.9078047265675,1104.909717027013,right,1,2,0.8471099593607505,N24N04,2022-11-17_16h06.26.040,t1_Paradigm,2021.1.4,59.97037253646007,
N,left,Distractor,0,12,12,12,1106.407231132675,1108.4083504106907,left,1,2,0.8089582662323664,N24N04,2022-11-17_16h06.26.040,t1_Paradigm,2021.1.4,59.97037253646007,
Y,right,Target,0,13,13,13,1109.906572205462,1111.9075262704719,right,1,2,1.0685595479003496,N24N04,2022-11-17_16h06.26.040,t1_Paradigm,2021.1.4,59.97037253646007,
Y,left,Lure,0,14,14,14,1113.4059421504253,1115.4056434838067,left,1,2,1.1499097904902555,N24N04,2022-11-17_16h06.26.040,t1_Paradigm,2021.1.4,59.97037253646007,
K,left,Distractor,0,15,15,15,1116.9054295089036,1118.9064746816684,left,1,2,1.150558131238995,N24N04,2022-11-17_16h06.26.040,t1_Paradigm,2021.1.4,59.97037253646007,
T,left,Pretarget,0,16,16,16,1120.404785338581,1122.4062728972394,left,1,2,1.234074428619806,N24N04,2022-11-17_16h06.26.040,t1_Paradigm,2021.1.4,59.97037253646007,
J,left,Distractor,0,17,17,17,1123.9043686168434,1125.9056983409405,left,1,2,0.676795881416183,N24N04,2022-11-17_16h06.26.040,t1_Paradigm,2021.1.4,59.97037253646007,
T,right,Target,0,18,18,18,1127.4037090480265,1129.4053326267135,right,1,2,0.968187995077642,N24N04,2022-11-17_16h06.26.040,t1_Paradigm,2021.1.4,59.97037253646007,
S,left,Pretarget,0,19,19,19,1130.9031758751798,1132.9045527571643,left,1,2,0.7909529357866631,N24N04,2022-11-17_16h06.26.040,t1_Paradigm,2021.1.4,59.97037253646007,
R,left,Distractor,0,20,20,20,1134.4025021910775,1136.4042922659783,left,1,2,0.792394619766128,N24N04,2022-11-17_16h06.26.040,t1_Paradigm,2021.1.4,59.97037253646007,
S,right,Target,0,21,21,21,1137.9020537099464,1139.9029686371177,right,1,2,0.5957410974251616,N24N04,2022-11-17_16h06.26.040,t1_Paradigm,2021.1.4,59.97037253646007,
Q,left,Distractor,0,22,22,22,1141.4013835546652,1143.4028650180867,left,1,2,0.8708849129407099,N24N04,2022-11-17_16h06.26.040,t1_Paradigm,2021.1.4,59.97037253646007,
D,left,Distractor,0,23,23,23,1144.9008834244196,1146.902117228733,left,1,2,1.1385078474572765,N24N04,2022-11-17_16h06.26.040,t1_Paradigm,2021.1.4,59.97037253646007,
F,left,Distractor,0,24,24,24,1148.400253048581,1150.401290201297,left,1,2,1.2017507445812043,N24N04,2022-11-17_16h06.26.040,t1_Paradigm,2021.1.4,59.97037253646007,
Z,left,Distractor,0,25,25,25,1151.899644166473,1153.9007047377318,left,1,2,0.8081411836565167,N24N04,2022-11-17_16h06.26.040,t1_Paradigm,2021.1.4,59.97037253646007,
P,left,Distractor,0,26,26,26,1155.3983445977592,1157.40047953476,left,1,2,0.8831860638497346,N24N04,2022-11-17_16h06.26.040,t1_Paradigm,2021.1.4,59.97037253646007,
H,left,Distractor,0,27,27,27,1158.9151433920574,1160.9165908504715,left,1,2,0.8563525844447213,N24N04,2022-11-17_16h06.26.040,t1_Paradigm,2021.1.4,59.97037253646007,
Z,left,Pretarget,0,28,28,28,1162.4138512017885,1164.415593798,left,1,2,0.9082676437865302,N24N04,2022-11-17_16h06.26.040,t1_Paradigm,2021.1.4,59.97037253646007,
J,left,Pretarget,0,29,29,29,1165.913845427353,1167.9153612165837,left,1,2,0.8813353573796121,N24N04,2022-11-17_16h06.26.040,t1_Paradigm,2021.1.4,59.97037253646007,
Z,right,Target,0,30,30,30,1169.4133170665355,1171.4153628205936,right,1,2,1.0376669613765444,N24N04,2022-11-17_16h06.26.040,t1_Paradigm,2021.1.4,59.97037253646007,
J,right,Target,0,31,31,31,1172.9127258285353,1174.9141100889647,right,1,2,0.9101517136600705,N24N04,2022-11-17_16h06.26.040,t1_Paradigm,2021.1.4,59.97037253646007,
V,left,Pretarget,0,32,32,32,1176.4120130065944,1178.413582690553,left,1,2,0.847013077171141,N24N04,2022-11-17_16h06.26.040,t1_Paradigm,2021.1.4,59.97037253646007,
Z,left,Lure,0,33,33,33,1179.9114686056791,1181.9127928761436,left,1,2,1.3592619373612251,N24N04,2022-11-17_16h06.26.040,t1_Paradigm,2021.1.4,59.97037253646007,
V,right,Target,0,34,34,34,1183.4109014278256,1185.412305257174,right,1,2,0.7328941982327706,N24N04,2022-11-17_16h06.26.040,t1_Paradigm,2021.1.4,59.97037253646007,
X,left,Distractor,0,35,35,35,1186.9103663301667,1188.9113675530639,left,1,2,1.1106160424074005,N24N04,2022-11-17_16h06.26.040,t1_Paradigm,2021.1.4,59.97037253646007,
S,left,Distractor,0,36,36,36,1190.409793057076,1192.4106710920228,left,1,2,0.761876088320605,N24N04,2022-11-17_16h06.26.040,t1_Paradigm,2021.1.4,59.97037253646007,
Q,left,Distractor,0,37,37,37,1193.9094154731765,1195.9110429014868,left,1,2,0.8199357882813274,N24N04,2022-11-17_16h06.26.040,t1_Paradigm,2021.1.4,59.97037253646007,
P,left,Distractor,0,38,38,38,1197.4086416988644,1199.4099749517836,left,1,2,0.8552121334996627,N24N04,2022-11-17_16h06.26.040,t1_Paradigm,2021.1.4,59.97037253646007,
S,left,Lure,0,39,39,39,1200.908090561108,1202.9094000746827,left,1,2,0.9836471204175723,N24N04,2022-11-17_16h06.26.040,t1_Paradigm,2021.1.4,59.97037253646007,
K,left,Pretarget,0,40,40,40,1204.407512155186,1206.409219142381,left,1,2,0.7449682213582491,N24N04,2022-11-17_16h06.26.040,t1_Paradigm,2021.1.4,59.97037253646007,
L,left,Distractor,0,41,41,41,1207.906779443524,1209.9082474332636,left,1,2,0.67810539499078,N24N04,2022-11-17_16h06.26.040,t1_Paradigm,2021.1.4,59.97037253646007,
K,right,Target,0,42,42,42,1211.4054301505075,1213.4076484960165,right,1,2,0.7578259636566145,N24N04,2022-11-17_16h06.26.040,t1_Paradigm,2021.1.4,59.97037253646007,
B,left,Distractor,0,43,43,43,1214.905613970027,1216.9065545613548,left,1,2,0.60947077943365,N24N04,2022-11-17_16h06.26.040,t1_Paradigm,2021.1.4,59.97037253646007,
N,left,Distractor,0,44,44,44,1218.4051106317615,1220.406421749346,left,1,2,0.7663900926090719,N24N04,2022-11-17_16h06.26.040,t1_Paradigm,2021.1.4,59.97037253646007,
S,left,Pretarget,0,45,45,45,1221.904549228343,1223.9059399048115,left,1,2,0.6462346833109223,N24N04,2022-11-17_16h06.26.040,t1_Paradigm,2021.1.4,59.97037253646007,
Z,left,Distractor,0,46,46,46,1225.403983333697,1227.4054125064,left,1,2,0.8358594348496808,N24N04,2022-11-17_16h06.26.040,t1_Paradigm,2021.1.4,59.97037253646007,
S,right,Target,0,47,47,47,1228.9033009879417,1230.9046518849682,right,1,2,0.7730239562065435,N24N04,2022-11-17_16h06.26.040,t1_Paradigm,2021.1.4,59.97037253646007,
C,left,Distractor,0,48,48,48,1232.4028181810017,1234.404093368767,left,1,2,1.064881874304774,N24N04,2022-11-17_16h06.26.040,t1_Paradigm,2021.1.4,59.97037253646007,
T,left,Pretarget,0,49,49,49,1235.9022542111675,1237.9035855392744,left,1,2,0.8301677665895113,N24N04,2022-11-17_16h06.26.040,t1_Paradigm,2021.1.4,59.97037253646007,
S,left,Lure,0,50,50,50,1239.401647253871,1241.4034953939254,left,1,2,0.8725386470109697,N24N04,2022-11-17_16h06.26.040,t1_Paradigm,2021.1.4,59.97037253646007,
T,right,Target,0,51,51,51,1242.9009806274116,1244.9022609480085,right,1,2,0.9893817761389982,N24N04,2022-11-17_16h06.26.040,t1_Paradigm,2021.1.4,59.97037253646007,
N,left,Pretarget,0,52,52,52,1246.4003194545853,1248.4018676448131,left,1,2,0.47699272549516536,N24N04,2022-11-17_16h06.26.040,t1_Paradigm,2021.1.4,59.97037253646007,
B,left,Distractor,0,53,53,53,1249.899528036166,1251.901041579783,left,1,2,0.6587985710198154,N24N04,2022-11-17_16h06.26.040,t1_Paradigm,2021.1.4,59.97037253646007,
N,right,Target,0,54,54,54,1253.3993102116397,1255.4005100109457,right,1,2,0.8732222759745127,N24N04,2022-11-17_16h06.26.040,t1_Paradigm,2021.1.4,59.97037253646007,
N,left,Lure,0,55,55,55,1256.9154949909985,1258.9148158532626,left,1,2,1.1098082630883255,N24N04,2022-11-17_16h06.26.040,t1_Paradigm,2021.1.4,59.97037253646007,
X,left,Distractor,0,56,56,56,1260.4146747004029,1262.4160936074436,left,1,2,0.7960594612836758,N24N04,2022-11-17_16h06.26.040,t1_Paradigm,2021.1.4,59.97037253646007,
W,left,Distractor,0,57,57,57,1263.9140497781978,1265.9156579583905,left,1,2,0.9041049176375964,N24N04,2022-11-17_16h06.26.040,t1_Paradigm,2021.1.4,59.97037253646007,
S,left,Distractor,0,58,58,58,1267.4135656880499,1269.4146631515327,left,1,2,0.6089523634764191,N24N04,2022-11-17_16h06.26.040,t1_Paradigm,2021.1.4,59.97037253646007,
L,left,Distractor,0,59,59,59,1270.9130559337455,1272.914295833296,left,1,2,1.042844704907111,N24N04,2022-11-17_16h06.26.040,t1_Paradigm,2021.1.4,59.97037253646007,
K,left,Pretarget,0,60,60,60,1274.412396044127,1276.4143952819018,None,0,2,,N24N04,2022-11-17_16h06.26.040,t1_Paradigm,2021.1.4,59.97037253646007,
V,left,Pretarget,0,61,61,61,1277.9118391319357,1279.9137533571925,left,1,2,0.6754404931625686,N24N04,2022-11-17_16h06.26.040,t1_Paradigm,2021.1.4,59.97037253646007,
K,right,Target,0,62,62,62,1281.4111474829238,1283.412436465173,right,1,2,1.360278237950297,N24N04,2022-11-17_16h06.26.040,t1_Paradigm,2021.1.4,59.97037253646007,
V,right,Target,0,63,63,63,1284.91064767348,1286.9117367961126,right,1,2,1.1664359031278764,N24N04,2022-11-17_16h06.26.040,t1_Paradigm,2021.1.4,59.97037253646007,
R,left,Distractor,0,0,0,0,1382.1232902859883,1384.1122563027961,None,0,3,,N24N04,2022-11-17_16h06.26.040,t1_Paradigm,2021.1.4,59.97037253646007,
P,left,Lure,0,1,1,1,1385.6102410249237,1387.6116531951234,None,0,3,,N24N04,2022-11-17_16h06.26.040,t1_Paradigm,2021.1.4,59.97037253646007,
V,left,Distractor,0,2,2,2,1389.1098534961639,1391.1115405936375,None,0,3,,N24N04,2022-11-17_16h06.26.040,t1_Paradigm,2021.1.4,59.97037253646007,
P,left,Pretarget,0,3,3,3,1392.6093520827103,1394.6102188895889,left,1,3,0.845588074893385,N24N04,2022-11-17_16h06.26.040,t1_Paradigm,2021.1.4,59.97037253646007,
Z,left,Distractor,0,4,4,4,1396.1085651555186,1398.1096847543363,left,1,3,1.0025632076090005,N24N04,2022-11-17_16h06.26.040,t1_Paradigm,2021.1.4,59.97037253646007,
L,left,Pretarget,0,5,5,5,1399.6078658072597,1401.6096507493294,left,1,3,0.9390723305746178,N24N04,2022-11-17_16h06.26.040,t1_Paradigm,2021.1.4,59.97037253646007,
P,right,Target,0,6,6,6,1403.107378829894,1405.1096542781506,right,1,3,1.1406751854556205,N24N04,2022-11-17_16h06.26.040,t1_Paradigm,2021.1.4,59.97037253646007,
S,left,Distractor,0,7,7,7,1406.6068421282257,1408.6080345490873,left,1,3,0.7192411878909297,N24N04,2022-11-17_16h06.26.040,t1_Paradigm,2021.1.4,59.97037253646007,
L,right,Target,0,8,8,8,1410.106206298754,1412.1078597120227,left,0,3,0.6679767149112195,N24N04,2022-11-17_16h06.26.040,t1_Paradigm,2021.1.4,59.97037253646007,
D,left,Distractor,0,9,9,9,1413.6056423289197,1415.607119621916,left,1,3,1.0748976320965085,N24N04,2022-11-17_16h06.26.040,t1_Paradigm,2021.1.4,59.97037253646007,
G,left,Distractor,0,10,10,10,1417.105410068305,1419.1070804840774,left,1,3,1.1379531808797765,N24N04,2022-11-17_16h06.26.040,t1_Paradigm,2021.1.4,59.97037253646007,
M,left,Pretarget,0,11,11,11,1420.6044807050457,1422.606053917826,left,1,3,0.9570587337047982,N24N04,2022-11-17_16h06.26.040,t1_Paradigm,2021.1.4,59.97037253646007,
Y,left,Distractor,0,12,12,12,1424.1039343793186,1426.10491988292,left,1,3,1.106680444041558,N24N04,2022-11-17_16h06.26.040,t1_Paradigm,2021.1.4,59.97037253646007,
V,left,Distractor,0,13,13,13,1427.6032167453486,1429.6047245145305,left,1,3,0.7817314836320293,N24N04,2022-11-17_16h06.26.040,t1_Paradigm,2021.1.4,59.97037253646007,
M,right,Target,0,14,14,14,1431.102779813088,1433.103976083573,right,1,3,1.0293318850194737,N24N04,2022-11-17_16h06.26.040,t1_Paradigm,2021.1.4,59.97037253646007,
S,left,Pretarget,0,15,15,15,1434.6021311515378,1436.6036331462847,left,1,3,0.9004939708479469,N24N04,2022-11-17_16h06.26.040,t1_Paradigm,2021.1.4,59.97037253646007,
Q,left,Distractor,0,16,16,16,1438.1015713521288,1440.103193006004,left,1,3,1.0905091383647232,N24N04,2022-11-17_16h06.26.040,t1_Paradigm,2021.1.4,59.97037253646007,
R,left,Pretarget,0,17,17,17,1441.6009977582362,1443.602917116324,left,1,3,1.0882532590271694,N24N04,2022-11-17_16h06.26.040,t1_Paradigm,2021.1.4,59.97037253646007,
S,right,Target,0,18,18,18,1445.1003805352775,1447.1011199837803,left,0,3,1.0506982575320762,N24N04,2022-11-17_16h06.26.040,t1_Paradigm,2021.1.4,59.97037253646007,
F,left,Distractor,0,19,19,19,1448.5998156030373,1450.6016412869549,left,1,3,0.8192194375187682,N24N04,2022-11-17_16h06.26.040,t1_Paradigm,2021.1.4,59.97037253646007,
R,right,Target,0,20,20,20,1452.099181377575,1454.1007792921055,right,1,3,1.3687547879694648,N24N04,2022-11-17_16h06.26.040,t1_Paradigm,2021.1.4,59.97037253646007,
P,left,Distractor,0,21,21,21,1455.5987277636127,1457.6004748510518,left,1,3,1.313583267996819,N24N04,2022-11-17_16h06.26.040,t1_Paradigm,2021.1.4,59.97037253646007,
L,left,Distractor,0,22,22,22,1459.0979536684986,1461.0991428813404,left,1,3,0.9040673838089788,N24N04,2022-11-17_16h06.26.040,t1_Paradigm,2021.1.4,59.97037253646007,
R,right,Target,0,23,23,23,1462.59739226508,1464.5989824803637,left,0,3,1.1955047305455082,N24N04,2022-11-17_16h06.26.040,t1_Paradigm,2021.1.4,59.97037253646007,
H,left,Pretarget,0,24,24,24,1466.0968908516265,1468.0982799240855,left,1,3,0.7896164748485717,N24N04,2022-11-17_16h06.26.040,t1_Paradigm,2021.1.4,59.97037253646007,
G,left,Pretarget,0,25,25,25,1469.596265608619,1471.5971093177568,right,0,3,0.8821476279263152,N24N04,2022-11-17_16h06.26.040,t1_Paradigm,2021.1.4,59.97037253646007,
T,left,Distractor,0,26,26,26,1473.0956570473131,1475.0968760947367,left,1,3,1.0837722973396922,N24N04,2022-11-17_16h06.26.040,t1_Paradigm,2021.1.4,59.97037253646007,
H,right,Target,0,27,27,27,1476.595182902026,1478.596591543404,right,1,3,1.065746114767535,N24N04,2022-11-17_16h06.26.040,t1_Paradigm,2021.1.4,59.97037253646007,
G,right,Target,0,28,28,28,1480.111102698971,1482.1129572550644,left,0,3,1.0267972287842895,N24N04,2022-11-17_16h06.26.040,t1_Paradigm,2021.1.4,59.97037253646007,
D,left,Distractor,0,29,29,29,1483.61054257876,1485.6122691348742,left,1,3,0.9881848640507087,N24N04,2022-11-17_16h06.26.040,t1_Paradigm,2021.1.4,59.97037253646007,
N,left,Pretarget,0,30,30,30,1487.109602949838,1489.1118690948379,None,0,3,,N24N04,2022-11-17_16h06.26.040,t1_Paradigm,2021.1.4,59.97037253646007,
V,left,Distractor,0,31,31,31,1490.6088285339224,1492.611325014725,left,1,3,1.0580112588650081,N24N04,2022-11-17_16h06.26.040,t1_Paradigm,2021.1.4,59.97037253646007,
R,left,Distractor,0,32,32,32,1494.1088695965723,1496.1106102679723,left,1,3,0.6560861905022648,N24N04,2022-11-17_16h06.26.040,t1_Paradigm,2021.1.4,59.97037253646007,
N,right,Target,0,33,33,33,1497.6082350503084,1499.6091810952694,right,1,3,0.9042460704968107,N24N04,2022-11-17_16h06.26.040,t1_Paradigm,2021.1.4,59.97037253646007,
Z,left,Distractor,0,34,34,34,1501.1076688348603,1503.108663641718,left,1,3,0.7063042075101293,N24N04,2022-11-17_16h06.26.040,t1_Paradigm,2021.1.4,59.97037253646007,
N,left,Lure,0,35,35,35,1504.6070455166646,1506.6081481129786,left,1,3,1.250977162750587,N24N04,2022-11-17_16h06.26.040,t1_Paradigm,2021.1.4,59.97037253646007,
Y,left,Pretarget,0,36,36,36,1508.106433105735,1510.1081477921766,left,1,3,0.7343217669258593,N24N04,2022-11-17_16h06.26.040,t1_Paradigm,2021.1.4,59.97037253646007,
Y,left,Lure,0,37,37,37,1511.605770008097,1513.6056513113745,left,1,3,1.163041176855586,N24N04,2022-11-17_16h06.26.040,t1_Paradigm,2021.1.4,59.97037253646007,
B,left,Distractor,0,38,38,38,1515.1051906397688,1517.1067086746134,left,1,3,0.7392614754066926,N24N04,2022-11-17_16h06.26.040,t1_Paradigm,2021.1.4,59.97037253646007,
Y,right,Target,0,39,39,39,1518.6047318929755,1520.6061424591653,left,0,3,1.423137455937649,N24N04,2022-11-17_16h06.26.040,t1_Paradigm,2021.1.4,59.97037253646007,
J,left,Distractor,0,40,40,40,1522.1040764945842,1524.1052079630745,left,1,3,0.9358793887313368,N24N04,2022-11-17_16h06.26.040,t1_Paradigm,2021.1.4,59.97037253646007,
X,left,Distractor,0,41,41,41,1525.6035847051894,1527.6056878827972,left,1,3,0.904473839883849,N24N04,2022-11-17_16h06.26.040,t1_Paradigm,2021.1.4,59.97037253646007,
W,left,Pretarget,0,42,42,42,1529.1029209659478,1531.1044226398922,left,1,3,0.8662830089169802,N24N04,2022-11-17_16h06.26.040,t1_Paradigm,2021.1.4,59.97037253646007,
S,left,Pretarget,0,43,43,43,1532.6023008557713,1534.604333456949,left,1,3,0.7904037228427114,N24N04,2022-11-17_16h06.26.040,t1_Paradigm,2021.1.4,59.97037253646007,
R,left,Distractor,0,44,44,44,1536.101860715491,1538.102938610055,left,1,3,0.8667478509478315,N24N04,2022-11-17_16h06.26.040,t1_Paradigm,2021.1.4,59.97037253646007,
W,right,Target,0,45,45,45,1539.6013955526582,1541.603375221514,right,1,3,0.7413935251897783,N24N04,2022-11-17_16h06.26.040,t1_Paradigm,2021.1.4,59.97037253646007,
S,right,Target,0,46,46,46,1543.1005877733392,1545.1024805048655,right,1,3,0.8334928788381148,N24N04,2022-11-17_16h06.26.040,t1_Paradigm,2021.1.4,59.97037253646007,
D,left,Distractor,0,47,47,47,1546.6000071218032,1548.6012890464099,left,1,3,0.5995647359090981,N24N04,2022-11-17_16h06.26.040,t1_Paradigm,2021.1.4,59.97037253646007,
T,left,Distractor,0,48,48,48,1550.0996269714883,1552.100699733221,left,1,3,0.6708709901358816,N24N04,2022-11-17_16h06.26.040,t1_Paradigm,2021.1.4,59.97037253646007,
S,right,Target,0,49,49,49,1553.5987643350354,1555.6005508811145,right,1,3,1.1421852002508786,N24N04,2022-11-17_16h06.26.040,t1_Paradigm,2021.1.4,59.97037253646007,
K,left,Distractor,0,50,50,50,1557.0974759943897,1559.099872064181,left,1,3,0.8183144552076556,N24N04,2022-11-17_16h06.26.040,t1_Paradigm,2021.1.4,59.97037253646007,
S,left,Lure,0,51,51,51,1560.597621317675,1562.6000173874659,left,1,3,0.7874173774571318,N24N04,2022-11-17_16h06.26.040,t1_Paradigm,2021.1.4,59.97037253646007,
T,left,Pretarget,0,52,52,52,1564.097040345337,1566.0988182297633,left,1,3,1.0350912424914895,N24N04,2022-11-17_16h06.26.040,t1_Paradigm,2021.1.4,59.97037253646007,
V,left,Distractor,0,53,53,53,1567.5964369168623,1569.598575061883,left,1,3,0.7351580976187506,N24N04,2022-11-17_16h06.26.040,t1_Paradigm,2021.1.4,59.97037253646007,
B,left,Distractor,0,54,54,54,1571.0959611675653,1573.0970121147652,left,1,3,0.7709374603005017,N24N04,2022-11-17_16h06.26.040,t1_Paradigm,2021.1.4,59.97037253646007,
T,right,Target,0,55,55,55,1574.59531988446,1576.5967808165565,right,1,3,1.2053142126815146,N24N04,2022-11-17_16h06.26.040,t1_Paradigm,2021.1.4,59.97037253646007,
Y,left,Pretarget,0,56,56,56,1578.0950196138315,1580.096017628709,left,1,3,0.5871278857739526,N24N04,2022-11-17_16h06.26.040,t1_Paradigm,2021.1.4,59.97037253646007,
T,left,Lure,0,57,57,57,1581.6108858368502,1583.6119492953267,left,1,3,1.107719842370443,N24N04,2022-11-17_16h06.26.040,t1_Paradigm,2021.1.4,59.97037253646007,
P,left,Pretarget,0,58,58,58,1585.1103462479646,1587.1114132352623,left,1,3,0.5796660323339893,N24N04,2022-11-17_16h06.26.040,t1_Paradigm,2021.1.4,59.97037253646007,
Y,right,Target,0,59,59,59,1588.6096594109822,1590.60877399759,right,1,3,0.8005105883889883,N24N04,2022-11-17_16h06.26.040,t1_Paradigm,2021.1.4,59.97037253646007,
R,left,Distractor,0,60,60,60,1592.1089844436715,1594.1102593106352,left,1,3,0.7966211855041365,N24N04,2022-11-17_16h06.26.040,t1_Paradigm,2021.1.4,59.97037253646007,
P,right,Target,0,61,61,61,1595.6089382481905,1597.6106137967936,right,1,3,0.7940515618561221,N24N04,2022-11-17_16h06.26.040,t1_Paradigm,2021.1.4,59.97037253646007,
L,left,Distractor,0,62,62,62,1599.1078648448538,1601.110065546255,left,1,3,0.7469597598865221,N24N04,2022-11-17_16h06.26.040,t1_Paradigm,2021.1.4,59.97037253646007,
V,left,Distractor,0,63,63,63,1602.6073175567212,1604.619661053488,left,1,3,0.7841965258430719,N24N04,2022-11-17_16h06.26.040,t1_Paradigm,2021.1.4,59.97037253646007,
H,left,Lure,0,0,0,0,1629.820807086387,1631.8210120788353,None,0,3,,N24N04,2022-11-17_16h06.26.040,t1_Paradigm,2021.1.4,59.97037253646007,
B,left,Distractor,0,1,1,1,1633.3188617433407,1635.3202042995163,None,0,3,,N24N04,2022-11-17_16h06.26.040,t1_Paradigm,2021.1.4,59.97037253646007,
T,left,Distractor,0,2,2,2,1636.8181620742798,1638.8194767206855,None,0,3,,N24N04,2022-11-17_16h06.26.040,t1_Paradigm,2021.1.4,59.97037253646007,
R,left,Distractor,0,3,3,3,1640.317592971614,1642.3176937034277,left,1,3,0.6090052957983971,N24N04,2022-11-17_16h06.26.040,t1_Paradigm,2021.1.4,59.97037253646007,
H,left,Pretarget,0,4,4,4,1643.8169712574281,1645.8186545052786,left,1,3,1.0422197827015225,N24N04,2022-11-17_16h06.26.040,t1_Paradigm,2021.1.4,59.97037253646007,
K,left,Distractor,0,5,5,5,1647.3165137938422,1649.3177370116914,left,1,3,0.8739671781104335,N24N04,2022-11-17_16h06.26.040,t1_Paradigm,2021.1.4,59.97037253646007,
G,left,Distractor,0,6,6,6,1650.8159581648588,1652.8173286308042,left,1,3,0.8721113388091908,N24N04,2022-11-17_16h06.26.040,t1_Paradigm,2021.1.4,59.97037253646007,
H,right,Target,0,7,7,7,1654.3152831975485,1656.316260360299,right,1,3,0.8257840078945264,N24N04,2022-11-17_16h06.26.040,t1_Paradigm,2021.1.4,59.97037253646007,
Y,left,Pretarget,0,8,8,8,1657.8145883405173,1659.8155398391114,left,1,3,0.6157203222905991,N24N04,2022-11-17_16h06.26.040,t1_Paradigm,2021.1.4,59.97037253646007,
S,left,Distractor,0,9,9,9,1661.3142200598745,1663.3161115081925,left,1,3,0.8006235106768145,N24N04,2022-11-17_16h06.26.040,t1_Paradigm,2021.1.4,59.97037253646007,
P,left,Distractor,0,10,10,10,1664.8135162203885,1666.8152966712305,left,1,3,0.6849551583027278,N24N04,2022-11-17_16h06.26.040,t1_Paradigm,2021.1.4,59.97037253646007,
Y,right,Target,0,11,11,11,1668.3129637994243,1670.3140554884721,right,1,3,0.8596343884296402,N24N04,2022-11-17_16h06.26.040,t1_Paradigm,2021.1.4,59.97037253646007,
H,left,Lure,0,12,12,12,1671.8124514787046,1673.8114451229762,left,1,3,0.6681855569827349,N24N04,2022-11-17_16h06.26.040,t1_Paradigm,2021.1.4,59.97037253646007,
Q,left,Distractor,0,13,13,13,1675.3118839800486,1677.312661924786,left,1,3,0.9547091801973693,N24N04,2022-11-17_16h06.26.040,t1_Paradigm,2021.1.4,59.97037253646007,
V,left,Pretarget,0,14,14,14,1678.8110486117616,1680.8130247517956,left,1,3,0.8016609841947684,N24N04,2022-11-17_16h06.26.040,t1_Paradigm,2021.1.4,59.97037253646007,
G,left,Distractor,0,15,15,15,1682.310569333643,1684.3117758697904,left,1,3,0.9103397036046772,N24N04,2022-11-17_16h06.26.040,t1_Paradigm,2021.1.4,59.97037253646007,
Z,left,Pretarget,0,16,16,16,1685.8100813938718,1687.8113328422924,left,1,3,0.6315211017108595,N24N04,2022-11-17_16h06.26.040,t1_Paradigm,2021.1.4,59.97037253646007,
V,right,Target,0,17,17,17,1689.3094182962336,1691.3106354188453,right,1,3,0.8213213319186252,N24N04,2022-11-17_16h06.26.040,t1_Paradigm,2021.1.4,59.97037253646007,
N,left,Distractor,0,18,18,18,1692.808864912864,1694.8100072886205,left,1,3,0.7544443902647799,N24N04,2022-11-17_16h06.26.040,t1_Paradigm,2021.1.4,59.97037253646007,
Z,right,Target,0,19,19,19,1696.308226837778,1698.3103797396884,left,0,3,0.7722562771318735,N24N04,2022-11-17_16h06.26.040,t1_Paradigm,2021.1.4,59.97037253646007,
R,left,Distractor,0,20,20,20,1699.8075954995334,1701.8090246722368,left,1,3,0.7430475800624663,N24N04,2022-11-17_16h06.26.040,t1_Paradigm,2021.1.4,59.97037253646007,
P,left,Distractor,0,21,21,21,1703.3069250234507,1705.3084956698153,left,1,3,0.5005970124357191,N24N04,2022-11-17_16h06.26.040,t1_Paradigm,2021.1.4,59.97037253646007,
Z,right,Target,0,22,22,22,1706.8066032590914,1708.8084042412584,None,0,3,,N24N04,2022-11-17_16h06.26.040,t1_Paradigm,2021.1.4,59.97037253646007,
D,left,Pretarget,0,23,23,23,1710.305825955958,1712.3072955497069,left,1,3,0.8648682723014645,N24N04,2022-11-17_16h06.26.040,t1_Paradigm,2021.1.4,59.97037253646007,
K,left,Distractor,0,24,24,24,1713.8052225274832,1715.80632063257,left,1,3,0.842976426189125,N24N04,2022-11-17_16h06.26.040,t1_Paradigm,2021.1.4,59.97037253646007,
W,left,Distractor,0,25,25,25,1717.3046806929838,1719.305990206558,left,1,3,0.527006391658233,N24N04,2022-11-17_16h06.26.040,t1_Paradigm,2021.1.4,59.97037253646007,
D,right,Target,0,26,26,26,1720.8041645226403,1722.8055516702875,right,1,3,0.8645243726077751,N24N04,2022-11-17_16h06.26.040,t1_Paradigm,2021.1.4,59.97037253646007,
G,left,Pretarget,0,27,27,27,1724.3202857832125,1726.321291818139,right,0,3,1.0503376761362233,N24N04,2022-11-17_16h06.26.040,t1_Paradigm,2021.1.4,59.97037253646007,
V,left,Distractor,0,28,28,28,1727.819686845965,1729.820735868353,left,1,3,1.0691969813819924,N24N04,2022-11-17_16h06.26.040,t1_Paradigm,2021.1.4,59.97037253646007,
D,right,Target,0,29,29,29,1731.3190173322878,1733.3208824748458,left,0,3,0.8469755433425235,N24N04,2022-11-17_16h06.26.040,t1_Paradigm,2021.1.4,59.97037253646007,
G,right,Target,0,30,30,30,1734.8183840692318,1736.8192059638368,right,1,3,0.8750643207913527,N24N04,2022-11-17_16h06.26.040,t1_Paradigm,2021.1.4,59.97037253646007,
B,left,Pretarget,0,31,31,31,1738.3179076783308,1740.3192499137044,left,1,3,0.8481522449078511,N24N04,2022-11-17_16h06.26.040,t1_Paradigm,2021.1.4,59.97037253646007,
N,left,Distractor,0,32,32,32,1741.81735910699,1743.8186820942465,left,1,3,0.9649219103885116,N24N04,2022-11-17_16h06.26.040,t1_Paradigm,2021.1.4,59.97037253646007,
F,left,Distractor,0,33,33,33,1745.3168724504267,1747.3186182546578,left,1,3,0.5990941194431798,N24N04,2022-11-17_16h06.26.040,t1_Paradigm,2021.1.4,59.97037253646007,
B,right,Target,0,34,34,34,1748.8159770921743,1750.8149591875754,right,1,3,0.79674084463295,N24N04,2022-11-17_16h06.26.040,t1_Paradigm,2021.1.4,59.97037253646007,
Q,left,Pretarget,0,35,35,35,1752.315571277703,1754.3166369817927,left,1,3,0.6825238002966216,N24N04,2022-11-17_16h06.26.040,t1_Paradigm,2021.1.4,59.97037253646007,
S,left,Pretarget,0,36,36,36,1755.8149431474776,1757.8163132926215,left,1,3,0.7420271090481947,N24N04,2022-11-17_16h06.26.040,t1_Paradigm,2021.1.4,59.97037253646007,
W,left,Distractor,0,37,37,37,1759.3143936137312,1761.315447768951,left,1,3,1.014475225748356,N24N04,2022-11-17_16h06.26.040,t1_Paradigm,2021.1.4,59.97037253646007,
Q,right,Target,0,38,38,38,1762.8138376639458,1764.8150422752815,right,1,3,0.7837660096215586,N24N04,2022-11-17_16h06.26.040,t1_Paradigm,2021.1.4,59.97037253646007,
S,right,Target,0,39,39,39,1766.31338020036,1768.3151417238869,right,1,3,0.6143225881792205,N24N04,2022-11-17_16h06.26.040,t1_Paradigm,2021.1.4,59.97037253646007,
T,left,Distractor,0,40,40,40,1769.812545473677,1771.8139502654317,left,1,3,0.6504044671028169,N24N04,2022-11-17_16h06.26.040,t1_Paradigm,2021.1.4,59.97037253646007,
G,left,Distractor,0,41,41,41,1773.312046947441,1775.3133811627658,left,1,3,0.6087322933362884,N24N04,2022-11-17_16h06.26.040,t1_Paradigm,2021.1.4,59.97037253646007,
D,left,Distractor,0,42,42,42,1776.8116485114147,1778.8125198095208,left,1,3,0.872585484096362,N24N04,2022-11-17_16h06.26.040,t1_Paradigm,2021.1.4,59.97037253646007,
S,left,Lure,0,43,43,43,1780.3106806519208,1782.3118518998535,left,1,3,1.2465776847598136,N24N04,2022-11-17_16h06.26.040,t1_Paradigm,2021.1.4,59.97037253646007,
Z,left,Pretarget,0,44,44,44,1783.8102373036213,1785.8115166618118,left,1,3,1.3996319759990001,N24N04,2022-11-17_16h06.26.040,t1_Paradigm,2021.1.4,59.97037253646007,
J,left,Distractor,0,45,45,45,1787.3096489528384,1789.3120568923018,left,1,3,0.780773889800912,N24N04,2022-11-17_16h06.26.040,t1_Paradigm,2021.1.4,59.97037253646007,
M,left,Pretarget,0,46,46,46,1790.8090891534293,1792.810281253489,left,1,3,1.0623266867446546,N24N04,2022-11-17_16h06.26.040,t1_Paradigm,2021.1.4,59.97037253646007,
Z,right,Target,0,47,47,47,1794.3087032286794,1796.3103235993467,right,1,3,0.786811061764638,N24N04,2022-11-17_16h06.26.040,t1_Paradigm,2021.1.4,59.97037253646007,
P,left,Distractor,0,48,48,48,1797.8079910483425,1799.8097945969253,left,1,3,0.528345419012112,N24N04,2022-11-17_16h06.26.040,t1_Paradigm,2021.1.4,59.97037253646007,
M,right,Target,0,49,49,49,1801.3073128730125,1803.3086284818241,right,1,3,0.9562467839600686,N24N04,2022-11-17_16h06.26.040,t1_Paradigm,2021.1.4,59.97037253646007,
K,left,Distractor,0,50,50,50,1804.8065997302697,1806.8077931135372,left,1,3,0.7181020201537649,N24N04,2022-11-17_16h06.26.040,t1_Paradigm,2021.1.4,59.97037253646007,
Y,left,Distractor,0,51,51,51,1808.3061223769628,1810.307365484533,left,1,3,0.6228498249060976,N24N04,2022-11-17_16h06.26.040,t1_Paradigm,2021.1.4,59.97037253646007,
X,left,Distractor,0,52,52,52,1811.8055959409571,1813.8063453343207,left,1,3,0.6994730507108216,N24N04,2022-11-17_16h06.26.040,t1_Paradigm,2021.1.4,59.97037253646007,
F,left,Pretarget,0,53,53,53,1815.3045103471463,1817.3059119308814,left,1,3,0.5997033223534345,N24N04,2022-11-17_16h06.26.040,t1_Paradigm,2021.1.4,59.97037253646007,
M,left,Lure,0,54,54,54,1818.8042367030798,1820.8055994697784,left,1,3,0.7164771582592948,N24N04,2022-11-17_16h06.26.040,t1_Paradigm,2021.1.4,59.97037253646007,
V,left,Distractor,0,55,55,55,1822.320500399719,1824.3217685298418,left,1,3,0.5473099472987997,N24N04,2022-11-17_16h06.26.040,t1_Paradigm,2021.1.4,59.97037253646007,
F,right,Target,0,56,56,56,1825.8206652919234,1827.8213139534737,right,1,3,0.6887672479169851,N24N04,2022-11-17_16h06.26.040,t1_Paradigm,2021.1.4,59.97037253646007,
S,left,Distractor,0,57,57,57,1829.3192203999247,1831.3208580938976,left,1,3,0.8831353771411159,N24N04,2022-11-17_16h06.26.040,t1_Paradigm,2021.1.4,59.97037253646007,
D,left,Distractor,0,58,58,58,1832.8186840190583,1834.8199406003105,left,1,3,0.5516593801849012,N24N04,2022-11-17_16h06.26.040,t1_Paradigm,2021.1.4,59.97037253646007,
F,right,Target,0,59,59,59,1836.31801097656,1838.3201455927588,right,1,3,0.4964926722418568,N24N04,2022-11-17_16h06.26.040,t1_Paradigm,2021.1.4,59.97037253646007,
V,left,Pretarget,0,60,60,60,1839.8175349064604,1841.8185922696994,left,1,3,1.03649058061319,N24N04,2022-11-17_16h06.26.040,t1_Paradigm,2021.1.4,59.97037253646007,
J,left,Distractor,0,61,61,61,1843.3169401396385,1845.3179901244325,left,1,3,1.1995016020850926,N24N04,2022-11-17_16h06.26.040,t1_Paradigm,2021.1.4,59.97037253646007,
V,left,Lure,0,62,62,62,1846.8161981247204,1848.8176192773744,None,0,3,,N24N04,2022-11-17_16h06.26.040,t1_Paradigm,2021.1.4,59.97037253646007,
V,right,Target,0,63,63,63,1850.315673613526,1852.3154949268378,None,0,3,,N24N04,2022-11-17_16h06.26.040,t1_Paradigm,2021.1.4,59.97037253646007,
R,left,Distractor,0,0,0,0,1949.1177850036638,1951.1168954198465,None,0,4,,N24N04,2022-11-17_16h06.26.040,t1_Paradigm,2021.1.4,59.97037253646007,
F,left,Distractor,0,1,1,1,1952.6152355905388,1954.617051008794,None,0,4,,N24N04,2022-11-17_16h06.26.040,t1_Paradigm,2021.1.4,59.97037253646007,
P,left,Pretarget,0,2,2,2,1956.1146870191983,1958.115681505254,None,0,4,,N24N04,2022-11-17_16h06.26.040,t1_Paradigm,2021.1.4,59.97037253646007,
H,left,Distractor,0,3,3,3,1959.614079099496,1961.6163478109115,None,0,4,,N24N04,2022-11-17_16h06.26.040,t1_Paradigm,2021.1.4,59.97037253646007,
Z,left,Distractor,0,4,4,4,1963.1134971647525,1965.1148570442333,left,1,4,0.7322019076168544,N24N04,2022-11-17_16h06.26.040,t1_Paradigm,2021.1.4,59.97037253646007,
T,left,Distractor,0,5,5,5,1966.6128545984393,1968.6137316709805,left,1,4,0.9401152577256653,N24N04,2022-11-17_16h06.26.040,t1_Paradigm,2021.1.4,59.97037253646007,
P,right,Target,0,6,6,6,1970.1123323328588,1972.113223199884,right,1,4,1.2774397950970524,N24N04,2022-11-17_16h06.26.040,t1_Paradigm,2021.1.4,59.97037253646007,
G,left,Distractor,0,7,7,7,1973.6117125434848,1975.6129065683558,left,1,4,0.6921988664139462,N24N04,2022-11-17_16h06.26.040,t1_Paradigm,2021.1.4,59.97037253646007,
L,left,Distractor,0,8,8,8,1977.1110879420812,1979.1126386987248,left,1,4,0.8252829152424965,N24N04,2022-11-17_16h06.26.040,t1_Paradigm,2021.1.4,59.97037253646007,
P,left,Lure,0,9,9,9,1980.6105326338998,1982.6112685535809,right,0,4,1.3191045904195562,N24N04,2022-11-17_16h06.26.040,t1_Paradigm,2021.1.4,59.97037253646007,
Q,left,Pretarget,0,10,10,10,1984.1098791603204,1986.1116948993772,left,1,4,1.031170080213542,N24N04,2022-11-17_16h06.26.040,t1_Paradigm,2021.1.4,59.97037253646007,
D,left,Distractor,0,11,11,11,1987.609395390974,1989.6109131050166,left,1,4,1.0467815864808472,N24N04,2022-11-17_16h06.26.040,t1_Paradigm,2021.1.4,59.97037253646007,
M,left,Pretarget,0,12,12,12,1991.108990859711,1993.1100716414921,left,1,4,0.7555328712928713,N24N04,2022-11-17_16h06.26.040,t1_Paradigm,2021.1.4,59.97037253646007,
C,left,Distractor,0,13,13,13,1994.6082475615844,1996.6098239823841,left,1,4,0.6769351094640115,N24N04,2022-11-17_16h06.26.040,t1_Paradigm,2021.1.4,59.97037253646007,
Q,right,Target,0,14,14,14,1998.1075328148318,2000.1086488848282,right,1,4,0.6800985375280106,N24N04,2022-11-17_16h06.26.040,t1_Paradigm,2021.1.4,59.97037253646007,
R,left,Distractor,0,15,15,15,2001.6069457472568,2003.6078972458513,left,1,4,0.7731461817506897,N24N04,2022-11-17_16h06.26.040,t1_Paradigm,2021.1.4,59.97037253646007,
M,right,Target,0,16,16,16,2005.1064757723948,2007.1079155315624,right,1,4,0.750702235476183,N24N04,2022-11-17_16h06.26.040,t1_Paradigm,2021.1.4,59.97037253646007,
S,left,Distractor,0,17,17,17,2008.6057263790312,2010.6069528048997,left,1,4,0.6846083713912776,N24N04,2022-11-17_16h06.26.040,t1_Paradigm,2021.1.4,59.97037253646007,
Z,left,Distractor,0,18,18,18,2012.1051938477885,2014.1063051057554,left,1,4,0.7694014605467601,N24N04,2022-11-17_16h06.26.040,t1_Paradigm,2021.1.4,59.97037253646007,
L,left,Pretarget,0,19,19,19,2015.6047026999977,2017.6055557123923,left,1,4,0.8379946926525008,N24N04,2022-11-17_16h06.26.040,t1_Paradigm,2021.1.4,59.97037253646007,
M,right,Target,0,20,20,20,2019.1040405647655,2021.1053324342324,right,1,4,0.7545399892469504,N24N04,2022-11-17_16h06.26.040,t1_Paradigm,2021.1.4,59.97037253646007,
P,left,Distractor,0,21,21,21,2022.6035401137178,2024.6043863892714,left,1,4,0.9374089724456098,N24N04,2022-11-17_16h06.26.040,t1_Paradigm,2021.1.4,59.97037253646007,
F,left,Distractor,0,22,22,22,2026.1029331564218,2028.1034836525741,left,1,4,1.2428618357316736,N24N04,2022-11-17_16h06.26.040,t1_Paradigm,2021.1.4,59.97037253646007,
L,right,Target,0,23,23,23,2029.6022909109106,2031.6039183392213,right,1,4,1.163412665517626,N24N04,2022-11-17_16h06.26.040,t1_Paradigm,2021.1.4,59.97037253646007,
L,left,Lure,0,24,24,24,2033.1017182794235,2035.1014411065357,left,1,4,0.9153551213466926,N24N04,2022-11-17_16h06.26.040,t1_Paradigm,2021.1.4,59.97037253646007,
V,left,Pretarget,0,25,25,25,2036.6011591216188,2038.6032796225318,left,1,4,0.8584897670593818,N24N04,2022-11-17_16h06.26.040,t1_Paradigm,2021.1.4,59.97037253646007,
Z,left,Distractor,0,26,26,26,2040.1005351618192,2042.101966259334,right,0,4,0.7972890951714362,N24N04,2022-11-17_16h06.26.040,t1_Paradigm,2021.1.4,59.97037253646007,
H,left,Distractor,0,27,27,27,2043.6003702696148,2045.6008874023642,left,1,4,0.7760289081052179,N24N04,2022-11-17_16h06.26.040,t1_Paradigm,2021.1.4,59.97037253646007,
X,left,Distractor,0,28,28,28,2047.0992176281957,2049.1006079838626,left,1,4,0.7584592267130574,N24N04,2022-11-17_16h06.26.040,t1_Paradigm,2021.1.4,59.97037253646007,
V,right,Target,0,29,29,29,2050.6155050641796,2052.617056783229,right,1,4,0.9360067471066031,N24N04,2022-11-17_16h06.26.040,t1_Paradigm,2021.1.4,59.97037253646007,
C,left,Distractor,0,30,30,30,2054.1148163023854,2056.116690427398,left,1,4,0.9753213473168216,N24N04,2022-11-17_16h06.26.040,t1_Paradigm,2021.1.4,59.97037253646007,
S,left,Pretarget,0,31,31,31,2057.6142619566094,2059.6150793599872,left,1,4,0.6525175895712891,N24N04,2022-11-17_16h06.26.040,t1_Paradigm,2021.1.4,59.97037253646007,
D,left,Distractor,0,32,32,32,2061.113741936643,2063.1152914100785,left,1,4,1.1363472463003745,N24N04,2022-11-17_16h06.26.040,t1_Paradigm,2021.1.4,59.97037253646007,
V,left,Distractor,0,33,33,33,2064.6131673803443,2066.6149478311863,right,0,4,0.7104903522022141,N24N04,2022-11-17_16h06.26.040,t1_Paradigm,2021.1.4,59.97037253646007,
R,left,Distractor,0,34,34,34,2068.1124792601536,2070.113721084516,left,1,4,0.9344091533780556,N24N04,2022-11-17_16h06.26.040,t1_Paradigm,2021.1.4,59.97037253646007,
S,right,Target,0,35,35,35,2071.6119704682555,2073.613079801411,right,1,4,0.5699383546966601,N24N04,2022-11-17_16h06.26.040,t1_Paradigm,2021.1.4,59.97037253646007,
Y,left,Distractor,0,36,36,36,2075.1113952703527,2077.112360242629,left,1,4,0.6256350274670694,N24N04,2022-11-17_16h06.26.040,t1_Paradigm,2021.1.4,59.97037253646007,
N,left,Pretarget,0,37,37,37,2078.6105897366474,2080.612752583418,left,1,4,0.7629206194815197,N24N04,2022-11-17_16h06.26.040,t1_Paradigm,2021.1.4,59.97037253646007,
Z,left,Pretarget,0,38,38,38,2082.110225305628,2084.1111755210145,left,1,4,1.1096504285274023,N24N04,2022-11-17_16h06.26.040,t1_Paradigm,2021.1.4,59.97037253646007,
P,left,Pretarget,0,39,39,39,2085.6096690350405,2087.6113821174727,left,1,4,0.6666623893070209,N24N04,2022-11-17_16h06.26.040,t1_Paradigm,2021.1.4,59.97037253646007,
M,left,Distractor,0,40,40,40,2089.109131691768,2091.1100565638003,left,1,4,0.8089239404234831,N24N04,2022-11-17_16h06.26.040,t1_Paradigm,2021.1.4,59.97037253646007,
N,right,Target,0,41,41,41,2092.608388393642,2094.609954869581,left,0,4,0.7992158317047142,N24N04,2022-11-17_16h06.26.040,t1_Paradigm,2021.1.4,59.97037253646007,
Z,right,Target,0,42,42,42,2096.1077564137936,2098.109154468707,right,1,4,0.864045094489029,N24N04,2022-11-17_16h06.26.040,t1_Paradigm,2021.1.4,59.97037253646007,
P,right,Target,0,43,43,43,2099.6073233311563,2101.6092080426333,right,1,4,1.090706752368078,N24N04,2022-11-17_16h06.26.040,t1_Paradigm,2021.1.4,59.97037253646007,
X,left,Pretarget,0,44,44,44,2103.106683972863,2105.1076659476425,left,1,4,0.7062897714222345,N24N04,2022-11-17_16h06.26.040,t1_Paradigm,2021.1.4,59.97037253646007,
Z,left,Lure,0,45,45,45,2106.6061212862364,2108.6069973963713,right,0,4,0.5992307810756756,N24N04,2022-11-17_16h06.26.040,t1_Paradigm,2021.1.4,59.97037253646007,
R,left,Pretarget,0,46,46,46,2110.105583622162,2112.1068523938884,left,1,4,0.842761168078141,N24N04,2022-11-17_16h06.26.040,t1_Paradigm,2021.1.4,59.97037253646007,
K,left,Distractor,0,47,47,47,2113.6048505896983,2115.6064732059795,left,1,4,0.9516930002296249,N24N04,2022-11-17_16h06.26.040,t1_Paradigm,2021.1.4,59.97037253646007,
X,right,Target,0,48,48,48,2117.104083873029,2119.1059262386484,None,0,4,,N24N04,2022-11-17_16h06.26.040,t1_Paradigm,2021.1.4,59.97037253646007,
B,left,Distractor,0,49,49,49,2120.603655281619,2122.6048579681433,left,1,4,0.7743841564897593,N24N04,2022-11-17_16h06.26.040,t1_Paradigm,2021.1.4,59.97037253646007,
R,right,Target,0,50,50,50,2124.102827291777,2126.1036462991647,left,0,4,1.1781997107650568,N24N04,2022-11-17_16h06.26.040,t1_Paradigm,2021.1.4,59.97037253646007,
Y,left,Pretarget,0,51,51,51,2127.6024163444745,2129.604808564642,left,1,4,0.8448977090893095,N24N04,2022-11-17_16h06.26.040,t1_Paradigm,2021.1.4,59.97037253646007,
W,left,Pretarget,0,52,52,52,2131.102352825688,2133.1030650060247,left,1,4,0.8121447920370883,N24N04,2022-11-17_16h06.26.040,t1_Paradigm,2021.1.4,59.97037253646007,
Z,left,Distractor,0,53,53,53,2134.601254078997,2136.603125316792,right,0,4,0.850916274539486,N24N04,2022-11-17_16h06.26.040,t1_Paradigm,2021.1.4,59.97037253646007,
Q,left,Distractor,0,54,54,54,2138.1008829111365,2140.1016971064946,left,1,4,0.8792613727500793,N24N04,2022-11-17_16h06.26.040,t1_Paradigm,2021.1.4,59.97037253646007,
Y,right,Target,0,55,55,55,2141.600099191964,2143.601812595198,right,1,4,1.4490906547821396,N24N04,2022-11-17_16h06.26.040,t1_Paradigm,2021.1.4,59.97037253646007,
W,right,Target,0,56,56,56,2145.0994906306582,2147.1009878133755,left,0,4,0.6519747926654418,N24N04,2022-11-17_16h06.26.040,t1_Paradigm,2021.1.4,59.97037253646007,
H,left,Pretarget,0,57,57,57,2148.615718076677,2150.6159750390416,left,1,4,1.092727804675178,N24N04,2022-11-17_16h06.26.040,t1_Paradigm,2021.1.4,59.97037253646007,
M,left,Distractor,0,58,58,58,2152.114975740956,2154.1155172546537,left,1,4,0.613752843909424,N24N04,2022-11-17_16h06.26.040,t1_Paradigm,2021.1.4,59.97037253646007,
R,left,Pretarget,0,59,59,59,2155.614481705948,2157.6158848936925,left,1,4,0.517398693951236,N24N04,2022-11-17_16h06.26.040,t1_Paradigm,2021.1.4,59.97037253646007,
J,left,Distractor,0,60,60,60,2159.113922227341,2161.1154640015297,left,1,4,0.8634557813002175,N24N04,2022-11-17_16h06.26.040,t1_Paradigm,2021.1.4,59.97037253646007,
H,right,Target,0,61,61,61,2162.613456743706,2164.614872763529,right,1,4,0.7681772802920932,N24N04,2022-11-17_16h06.26.040,t1_Paradigm,2021.1.4,59.97037253646007,
Z,left,Distractor,0,62,62,62,2166.1128337463124,2168.114026487976,left,1,4,0.7178662307178456,N24N04,2022-11-17_16h06.26.040,t1_Paradigm,2021.1.4,59.97037253646007,
R,right,Target,0,63,63,63,2169.61221427774,2171.614285695954,right,1,4,0.8751230275493072,N24N04,2022-11-17_16h06.26.040,t1_Paradigm,2021.1.4,59.97037253646007,
J,left,Pretarget,0,0,0,0,2195.9141158634,2197.909279453148,None,0,4,,N24N04,2022-11-17_16h06.26.040,t1_Paradigm,2021.1.4,59.97037253646007,
G,left,Pretarget,0,1,1,1,2199.407155102612,2201.40805142327,None,0,4,,N24N04,2022-11-17_16h06.26.040,t1_Paradigm,2021.1.4,59.97037253646007,
Z,left,Distractor,0,2,2,2,2202.906518631536,2204.907983092454,None,0,4,,N24N04,2022-11-17_16h06.26.040,t1_Paradigm,2021.1.4,59.97037253646007,
F,left,Distractor,0,3,3,3,2206.405990912322,2208.406876967318,None,0,4,,N24N04,2022-11-17_16h06.26.040,t1_Paradigm,2021.1.4,59.97037253646007,
J,right,Target,0,4,4,4,2209.905337438743,2211.9064182205243,right,1,4,0.7120892291386554,N24N04,2022-11-17_16h06.26.040,t1_Paradigm,2021.1.4,59.97037253646007,
G,right,Target,0,5,5,5,2213.40469166441,2215.4060310125665,right,1,4,0.9350157898720681,N24N04,2022-11-17_16h06.26.040,t1_Paradigm,2021.1.4,59.97037253646007,
H,left,Distractor,0,6,6,6,2216.9041652284045,2218.906226060154,left,1,4,0.5940328270221471,N24N04,2022-11-17_16h06.26.040,t1_Paradigm,2021.1.4,59.97037253646007,
P,left,Distractor,0,7,7,7,2220.4039185317024,2222.405130200681,left,1,4,0.9116806557703967,N24N04,2022-11-17_16h06.26.040,t1_Paradigm,2021.1.4,59.97037253646007,
G,left,Lure,0,8,8,8,2223.903018040619,2225.904222972756,left,1,4,0.5026164607334067,N24N04,2022-11-17_16h06.26.040,t1_Paradigm,2021.1.4,59.97037253646007,
S,left,Distractor,0,9,9,9,2227.402438030687,2229.403390812489,left,1,4,0.5966480045476601,N24N04,2022-11-17_16h06.26.040,t1_Paradigm,2021.1.4,59.97037253646007,
R,left,Pretarget,0,10,10,10,2230.901877910476,2232.9030109829755,left,1,4,0.7782366671499403,N24N04,2022-11-17_16h06.26.040,t1_Paradigm,2021.1.4,59.97037253646007,
T,left,Pretarget,0,11,11,11,2234.401206471987,2236.402601960485,left,1,4,0.5726905146561876,N24N04,2022-11-17_16h06.26.040,t1_Paradigm,2021.1.4,59.97037253646007,
X,left,Distractor,0,12,12,12,2237.9006370485195,2239.901756005733,left,1,4,0.8692302164640751,N24N04,2022-11-17_16h06.26.040,t1_Paradigm,2021.1.4,59.97037253646007,
F,left,Pretarget,0,13,13,13,2241.400211344327,2243.401261008319,left,1,4,0.6355593567022879,N24N04,2022-11-17_16h06.26.040,t1_Paradigm,2021.1.4,59.97037253646007,
R,right,Target,0,14,14,14,2244.899458742944,2246.9007794845866,None,0,4,,N24N04,2022-11-17_16h06.26.040,t1_Paradigm,2021.1.4,59.97037253646007,
T,right,Target,0,15,15,15,2248.3981777807435,2250.4007413091545,right,1,4,0.49781854671573456,N24N04,2022-11-17_16h06.26.040,t1_Paradigm,2021.1.4,59.97037253646007,
C,left,Distractor,0,16,16,16,2251.8983000062876,2253.8974611091794,left,1,4,0.8218987754348746,N24N04,2022-11-17_16h06.26.040,t1_Paradigm,2021.1.4,59.97037253646007,
F,right,Target,0,17,17,17,2255.3977225627714,2257.399438532421,right,1,4,0.8223838279886877,N24N04,2022-11-17_16h06.26.040,t1_Paradigm,2021.1.4,59.97037253646007,
M,left,Distractor,0,18,18,18,2258.8972339813963,2260.898459765661,left,1,4,0.8008400519956922,N24N04,2022-11-17_16h06.26.040,t1_Paradigm,2021.1.4,59.97037253646007,
N,left,Distractor,0,19,19,19,2262.3966093799927,2264.397504417443,left,1,4,0.7962612457126852,N24N04,2022-11-17_16h06.26.040,t1_Paradigm,2021.1.4,59.97037253646007,
R,left,Lure,0,20,20,20,2265.8959655304716,2267.8978614700172,left,1,4,0.6799868984480781,N24N04,2022-11-17_16h06.26.040,t1_Paradigm,2021.1.4,59.97037253646007,
F,right,Target,0,21,21,21,2269.3955311646264,2271.3973831543044,left,0,4,0.7113834648407646,N24N04,2022-11-17_16h06.26.040,t1_Paradigm,2021.1.4,59.97037253646007,
P,left,Distractor,0,22,22,22,2272.8949870845136,2274.8960431645446,left,1,4,0.7153386321260768,N24N04,2022-11-17_16h06.26.040,t1_Paradigm,2021.1.4,59.97037253646007,
L,left,Pretarget,0,23,23,23,2276.3934985634487,2278.3951789240814,left,1,4,0.5792412905479978,N24N04,2022-11-17_16h06.26.040,t1_Paradigm,2021.1.4,59.97037253646007,
T,left,Distractor,0,24,24,24,2279.8935630446417,2281.895472778671,left,1,4,0.6587950421981077,N24N04,2022-11-17_16h06.26.040,t1_Paradigm,2021.1.4,59.97037253646007,
F,left,Distractor,0,25,25,25,2283.393188027158,2285.392725430741,right,0,4,0.6963503644951743,N24N04,2022-11-17_16h06.26.040,t1_Paradigm,2021.1.4,59.97037253646007,
V,left,Distractor,0,26,26,26,2286.892475205217,2288.8935088291114,left,1,4,0.7424929134849663,N24N04,2022-11-17_16h06.26.040,t1_Paradigm,2021.1.4,59.97037253646007,
L,right,Target,0,27,27,27,2290.408639774053,2292.410981949116,right,1,4,0.6010753923087577,N24N04,2022-11-17_16h06.26.040,t1_Paradigm,2021.1.4,59.97037253646007,
S,left,Pretarget,0,28,28,28,2293.908162420746,2295.9092897188107,left,1,4,0.6045310709523619,N24N04,2022-11-17_16h06.26.040,t1_Paradigm,2021.1.4,59.97037253646007,
W,left,Distractor,0,29,29,29,2297.4073386013292,2299.409198290254,left,1,4,0.7170295792229808,N24N04,2022-11-17_16h06.26.040,t1_Paradigm,2021.1.4,59.97037253646007,
Q,left,Distractor,0,30,30,30,2300.906661709207,2302.9082262603347,left,1,4,0.6390859325774727,N24N04,2022-11-17_16h06.26.040,t1_Paradigm,2021.1.4,59.97037253646007,
L,right,Target,0,31,31,31,2304.406124365935,2306.408445368069,right,1,4,0.7267700889392472,N24N04,2022-11-17_16h06.26.040,t1_Paradigm,2021.1.4,59.97037253646007,
S,right,Target,0,32,32,32,2307.9055696993573,2309.907044425938,left,0,4,0.558739158498156,N24N04,2022-11-17_16h06.26.040,t1_Paradigm,2021.1.4,59.97037253646007,
Z,left,Pretarget,0,33,33,33,2311.4050894588327,2313.405833719365,left,1,4,0.537553397485226,N24N04,2022-11-17_16h06.26.040,t1_Paradigm,2021.1.4,59.97037253646007,
F,left,Distractor,0,34,34,34,2314.904591895003,2316.9057406867987,left,1,4,0.6461499915949389,N24N04,2022-11-17_16h06.26.040,t1_Paradigm,2021.1.4,59.97037253646007,
V,left,Distractor,0,35,35,35,2318.403752677092,2320.404929057856,left,1,4,0.6411050600736417,N24N04,2022-11-17_16h06.26.040,t1_Paradigm,2021.1.4,59.97037253646007,
M,left,Distractor,0,36,36,36,2321.903187103248,2323.9044892383777,left,1,4,0.774285670289828,N24N04,2022-11-17_16h06.26.040,t1_Paradigm,2021.1.4,59.97037253646007,
Z,right,Target,0,37,37,37,2325.4028547524244,2327.4041232033487,right,1,4,0.6540619301754305,N24N04,2022-11-17_16h06.26.040,t1_Paradigm,2021.1.4,59.97037253646007,
H,left,Pretarget,0,38,38,38,2328.9025073239086,2330.9034058901807,left,1,4,0.6204515095018905,N24N04,2022-11-17_16h06.26.040,t1_Paradigm,2021.1.4,59.97037253646007,
L,left,Distractor,0,39,39,39,2332.401593038341,2334.4025445369352,right,0,4,0.9788970058912128,N24N04,2022-11-17_16h06.26.040,t1_Paradigm,2021.1.4,59.97037253646007,
G,left,Distractor,0,40,40,40,2335.9010165572304,2337.9023818903447,left,1,4,0.6875215739314626,N24N04,2022-11-17_16h06.26.040,t1_Paradigm,2021.1.4,59.97037253646007,
K,left,Distractor,0,41,41,41,2339.400466061078,2341.402531704857,left,1,4,0.8814508460832258,N24N04,2022-11-17_16h06.26.040,t1_Paradigm,2021.1.4,59.97037253646007,
H,right,Target,0,42,42,42,2342.899612086278,2344.9012157752436,left,0,4,1.0447849151223636,N24N04,2022-11-17_16h06.26.040,t1_Paradigm,2021.1.4,59.97037253646007,
B,left,Distractor,0,43,43,43,2346.399164246751,2348.400494933254,left,1,4,0.6066939177235326,N24N04,2022-11-17_16h06.26.040,t1_Paradigm,2021.1.4,59.97037253646007,
Z,left,Distractor,0,44,44,44,2349.8986057305497,2351.899429870768,left,1,4,0.6384013412089189,N24N04,2022-11-17_16h06.26.040,t1_Paradigm,2021.1.4,59.97037253646007,
T,left,Pretarget,0,45,45,45,2353.3980552343974,2355.3988960563174,left,1,4,0.6249494736921406,N24N04,2022-11-17_16h06.26.040,t1_Paradigm,2021.1.4,59.97037253646007,
H,right,Target,0,46,46,46,2356.897527515184,2358.8984469335824,right,1,4,0.4644779204850238,N24N04,2022-11-17_16h06.26.040,t1_Paradigm,2021.1.4,59.97037253646007,
F,left,Distractor,0,47,47,47,2360.3967656105438,2362.398276587745,left,1,4,0.49559218115791737,N24N04,2022-11-17_16h06.26.040,t1_Paradigm,2021.1.4,59.97037253646007,
R,left,Distractor,0,48,48,48,2363.8963540216373,2365.8972326981884,left,1,4,0.6417309446846957,N24N04,2022-11-17_16h06.26.040,t1_Paradigm,2021.1.4,59.97037253646007,
T,right,Target,0,49,49,49,2367.3957092097107,2369.3970315553634,right,1,4,0.8358664924926416,N24N04,2022-11-17_16h06.26.040,t1_Paradigm,2021.1.4,59.97037253646007,
H,right,Target,0,50,50,50,2370.894946342665,2372.8964217108496,right,1,4,0.9537913658082289,N24N04,2022-11-17_16h06.26.040,t1_Paradigm,2021.1.4,59.97037253646007,
Y,left,Pretarget,0,51,51,51,2374.394408678591,2376.396614833626,left,1,4,0.506240881204576,N24N04,2022-11-17_16h06.26.040,t1_Paradigm,2021.1.4,59.97037253646007,
H,left,Distractor,0,52,52,52,2377.8939338917,2379.8956219515794,left,1,4,0.7547671170300418,N24N04,2022-11-17_16h06.26.040,t1_Paradigm,2021.1.4,59.97037253646007,
S,left,Distractor,0,53,53,53,2381.393450763958,2383.3945559266876,left,1,4,0.5780809498819508,N24N04,2022-11-17_16h06.26.040,t1_Paradigm,2021.1.4,59.97037253646007,
Q,left,Distractor,0,54,54,54,2384.8928040272194,2386.8946970795473,left,1,4,0.7271768658165456,N24N04,2022-11-17_16h06.26.040,t1_Paradigm,2021.1.4,59.97037253646007,
Y,right,Target,0,55,55,55,2388.408805628663,2390.409717989419,right,1,4,0.4611034047356952,N24N04,2022-11-17_16h06.26.040,t1_Paradigm,2021.1.4,59.97037253646007,
R,left,Distractor,0,56,56,56,2391.9083773580546,2393.909148565951,left,1,4,0.9206714513211409,N24N04,2022-11-17_16h06.26.040,t1_Paradigm,2021.1.4,59.97037253646007,
H,left,Pretarget,0,57,57,57,2395.4076520248377,2397.4089249669896,left,1,4,0.7843421699299142,N24N04,2022-11-17_16h06.26.040,t1_Paradigm,2021.1.4,59.97037253646007,
J,left,Distractor,0,58,58,58,2398.907090942221,2400.9084716738294,left,1,4,0.9338323514657532,N24N04,2022-11-17_16h06.26.040,t1_Paradigm,2021.1.4,59.97037253646007,
V,left,Distractor,0,59,59,59,2402.406441318265,2404.407325769251,left,1,4,0.5823482574678565,N24N04,2022-11-17_16h06.26.040,t1_Paradigm,2021.1.4,59.97037253646007,
Y,left,Lure,0,60,60,60,2405.9059110326357,2407.9071563858197,left,1,4,0.8786627563049478,N24N04,2022-11-17_16h06.26.040,t1_Paradigm,2021.1.4,59.97037253646007,
H,right,Target,0,61,61,61,2409.4053358347333,2411.4074181602136,left,0,4,0.81939299137548,N24N04,2022-11-17_16h06.26.040,t1_Paradigm,2021.1.4,59.97037253646007,
L,left,Distractor,0,62,62,62,2412.904653488978,2414.9055055389667,left,1,4,0.803009314805422,N24N04,2022-11-17_16h06.26.040,t1_Paradigm,2021.1.4,59.97037253646007,
P,left,Distractor,0,63,63,63,2416.4041523963265,2418.4060306917645,left,1,4,0.723330450393405,N24N04,2022-11-17_16h06.26.040,t1_Paradigm,2021.1.4,59.97037253646007,
