Letter,CorrAnswer,Stimulus,nback_run.thisRepN,nback_run.thisTrialN,nback_run.thisN,nback_run.thisIndex,fixcross.started,nback_trial.started,trial_resp.keys,trial_resp.corr,currentlevel,trial_resp.rt,Participant,date,expName,psychopyVersion,frameRate,
H,left,Distractor,0,0,0,0,267.0256455662311,268.963898528993,left,1,1,1.0433118203363847,N25N07,2023-01-24_10h46.47.289,t1_Paradigm,2021.1.4,60.00230986203826,
Q,left,Pretarget,0,1,1,1,270.46584451489616,272.4661194423388,left,1,1,0.469125679373974,N25N07,2023-01-24_10h46.47.289,t1_Paradigm,2021.1.4,60.00230986203826,
Q,right,Target,0,2,2,2,273.9626849344204,275.9628155008977,right,1,1,0.6683922614756739,N25N07,2023-01-24_10h46.47.289,t1_Paradigm,2021.1.4,60.00230986203826,
T,left,Distractor,0,3,3,3,277.4628251249669,279.4646097473742,left,1,1,0.49484920053509995,N25N07,2023-01-24_10h46.47.289,t1_Paradigm,2021.1.4,60.00230986203826,
Q,left,Lure,0,4,4,4,280.9626846136234,282.96512655966217,left,1,1,0.8180904187320266,N25N07,2023-01-24_10h46.47.289,t1_Paradigm,2021.1.4,60.00230986203826,
L,left,Distractor,0,5,5,5,284.4627166938444,286.4648121735372,left,1,1,0.6625886296096724,N25N07,2023-01-24_10h46.47.289,t1_Paradigm,2021.1.4,60.00230986203826,
V,left,Pretarget,0,6,6,6,287.9627189394523,289.9652519933006,left,1,1,0.5700510011229198,N25N07,2023-01-24_10h46.47.289,t1_Paradigm,2021.1.4,60.00230986203826,
V,right,Target,0,7,7,7,291.46254057345504,293.462790799138,right,1,1,0.6085559219063725,N25N07,2023-01-24_10h46.47.289,t1_Paradigm,2021.1.4,60.00230986203826,
K,left,Distractor,0,8,8,8,294.9628312202112,296.9652282539464,left,1,1,0.6100797321705613,N25N07,2023-01-24_10h46.47.289,t1_Paradigm,2021.1.4,60.00230986203826,
G,left,Pretarget,0,9,9,9,298.46279208234046,300.4646225794713,left,1,1,0.6787901010684436,N25N07,2023-01-24_10h46.47.289,t1_Paradigm,2021.1.4,60.00230986203826,
G,right,Target,0,10,10,10,301.96278085427184,303.9628533555515,right,1,1,0.6361628725426272,N25N07,2023-01-24_10h46.47.289,t1_Paradigm,2021.1.4,60.00230986203826,
G,right,Target,0,11,11,11,305.46274652844295,307.4628132552898,right,1,1,0.6405431052262429,N25N07,2023-01-24_10h46.47.289,t1_Paradigm,2021.1.4,60.00230986203826,
P,left,Pretarget,0,12,12,12,308.9627686637832,310.96518590806227,left,1,1,0.48202930463594384,N25N07,2023-01-24_10h46.47.289,t1_Paradigm,2021.1.4,60.00230986203826,
P,right,Target,0,13,13,13,312.4627664181753,314.4628100472619,right,1,1,0.5364068746566772,N25N07,2023-01-24_10h46.47.289,t1_Paradigm,2021.1.4,60.00230986203826,
G,left,Lure,0,14,14,14,315.9627378667792,317.96171579109796,left,1,1,0.6695185978605878,N25N07,2023-01-24_10h46.47.289,t1_Paradigm,2021.1.4,60.00230986203826,
Y,left,Distractor,0,15,15,15,319.4626121123292,321.4645481533662,left,1,1,0.5748514846345643,N25N07,2023-01-24_10h46.47.289,t1_Paradigm,2021.1.4,60.00230986203826,
B,left,Distractor,0,16,16,16,322.9627356211713,324.96476822365366,left,1,1,0.7385901899979217,N25N07,2023-01-24_10h46.47.289,t1_Paradigm,2021.1.4,60.00230986203826,
T,left,Pretarget,0,17,17,17,326.462743641212,328.465615462148,left,1,1,0.4536710353422677,N25N07,2023-01-24_10h46.47.289,t1_Paradigm,2021.1.4,60.00230986203826,
T,right,Target,0,18,18,18,329.96275871891703,331.9627821374743,left,0,1,0.3806612759071868,N25N07,2023-01-24_10h46.47.289,t1_Paradigm,2021.1.4,60.00230986203826,
S,left,Distractor,0,19,19,19,333.4627356211713,335.4657360837591,left,1,1,0.5254287039715564,N25N07,2023-01-24_10h46.47.289,t1_Paradigm,2021.1.4,60.00230986203826,
T,left,Lure,0,20,20,20,336.96285784678184,338.96448014330235,left,1,1,0.8188035619386937,N25N07,2023-01-24_10h46.47.289,t1_Paradigm,2021.1.4,60.00230986203826,
J,left,Distractor,0,21,21,21,340.46272214748024,342.46567705617053,left,1,1,0.6777500604657689,N25N07,2023-01-24_10h46.47.289,t1_Paradigm,2021.1.4,60.00230986203826,
P,left,Distractor,0,22,22,22,343.96276064372796,345.9652183090802,left,1,1,0.5221555595344398,N25N07,2023-01-24_10h46.47.289,t1_Paradigm,2021.1.4,60.00230986203826,
F,left,Distractor,0,23,23,23,347.4627875911101,349.46469283514307,left,1,1,0.41479045523738023,N25N07,2023-01-24_10h46.47.289,t1_Paradigm,2021.1.4,60.00230986203826,
L,left,Distractor,0,24,24,24,350.9627824582858,352.96491579264693,left,1,1,0.48234465315181296,N25N07,2023-01-24_10h46.47.289,t1_Paradigm,2021.1.4,60.00230986203826,
W,left,Pretarget,0,25,25,25,354.46272375147964,356.46511693559296,left,1,1,0.5021262767259032,N25N07,2023-01-24_10h46.47.289,t1_Paradigm,2021.1.4,60.00230986203826,
W,right,Target,0,26,26,26,357.9628129344783,359.96282993699424,right,1,1,0.6362331282143714,N25N07,2023-01-24_10h46.47.289,t1_Paradigm,2021.1.4,60.00230986203826,
V,left,Distractor,0,27,27,27,361.4628533555515,363.4650152413087,left,1,1,0.4784132226923248,N25N07,2023-01-24_10h46.47.289,t1_Paradigm,2021.1.4,60.00230986203826,
W,left,Lure,0,28,28,28,364.96277090940566,366.96502037414757,left,1,1,0.6903575853357324,N25N07,2023-01-24_10h46.47.289,t1_Paradigm,2021.1.4,60.00230986203826,
R,left,Pretarget,0,29,29,29,368.4627696261887,370.46640976829804,left,1,1,0.7408386923343642,N25N07,2023-01-24_10h46.47.289,t1_Paradigm,2021.1.4,60.00230986203826,
R,right,Target,0,30,30,30,371.96278919512406,373.96273465876584,right,1,1,0.5885343383415602,N25N07,2023-01-24_10h46.47.289,t1_Paradigm,2021.1.4,60.00230986203826,
G,left,Distractor,0,31,31,31,375.46277090940566,377.46477624369436,left,1,1,0.49470163154182956,N25N07,2023-01-24_10h46.47.289,t1_Paradigm,2021.1.4,60.00230986203826,
R,left,Lure,0,32,32,32,378.96287099967594,380.9650887050084,left,1,1,0.4186740861769067,N25N07,2023-01-24_10h46.47.289,t1_Paradigm,2021.1.4,60.00230986203826,
S,left,Distractor,0,33,33,33,382.46278855351557,384.46510859474074,left,1,1,0.5181766503374092,N25N07,2023-01-24_10h46.47.289,t1_Paradigm,2021.1.4,60.00230986203826,
R,left,Lure,0,34,34,34,385.96284084428044,387.96368198753044,left,1,1,0.587618768971879,N25N07,2023-01-24_10h46.47.289,t1_Paradigm,2021.1.4,60.00230986203826,
P,left,Pretarget,0,35,35,35,389.46274588683445,391.46483687531145,left,1,1,0.44664899687631987,N25N07,2023-01-24_10h46.47.289,t1_Paradigm,2021.1.4,60.00230986203826,
P,right,Target,0,36,36,36,392.96286458363465,394.96282961619727,left,0,1,0.8684271647507558,N25N07,2023-01-24_10h46.47.289,t1_Paradigm,2021.1.4,60.00230986203826,
Y,left,Pretarget,0,37,37,37,396.4628732452984,398.46485291542194,left,1,1,0.6305472307431046,N25N07,2023-01-24_10h46.47.289,t1_Paradigm,2021.1.4,60.00230986203826,
Y,right,Target,0,38,38,38,399.9628350698331,401.96281646330317,right,1,1,0.684428840628243,N25N07,2023-01-24_10h46.47.289,t1_Paradigm,2021.1.4,60.00230986203826,
J,left,Distractor,0,39,39,39,403.4628453355108,405.4651124443626,left,1,1,0.6702314202702837,N25N07,2023-01-24_10h46.47.289,t1_Paradigm,2021.1.4,60.00230986203826,
Y,left,Lure,0,40,40,40,406.962867791648,408.96209080882545,left,1,1,0.8051733197789872,N25N07,2023-01-24_10h46.47.289,t1_Paradigm,2021.1.4,60.00230986203826,
T,left,Distractor,0,41,41,41,410.46278438309673,412.46470502561715,left,1,1,0.7425511342589743,N25N07,2023-01-24_10h46.47.289,t1_Paradigm,2021.1.4,60.00230986203826,
V,left,Distractor,0,42,42,42,413.9627776462439,415.9645754215453,left,1,1,0.5707465002051322,N25N07,2023-01-24_10h46.47.289,t1_Paradigm,2021.1.4,60.00230986203826,
N,left,Pretarget,0,43,43,43,417.46283378663065,419.4654220184457,left,1,1,0.4940664432651829,N25N07,2023-01-24_10h46.47.289,t1_Paradigm,2021.1.4,60.00230986203826,
N,right,Target,0,44,44,44,420.9628511099436,422.9627635309589,right,1,1,0.5646486927580554,N25N07,2023-01-24_10h46.47.289,t1_Paradigm,2021.1.4,60.00230986203826,
N,right,Target,0,45,45,45,424.46250239798974,426.4627471700369,right,1,1,0.6488698460743763,N25N07,2023-01-24_10h46.47.289,t1_Paradigm,2021.1.4,60.00230986203826,
X,left,Distractor,0,46,46,46,427.9628292954003,429.9651599230856,left,1,1,0.41028863853716757,N25N07,2023-01-24_10h46.47.289,t1_Paradigm,2021.1.4,60.00230986203826,
Z,left,Distractor,0,47,47,47,431.4627667389723,433.4651281636761,left,1,1,0.5102428921381943,N25N07,2023-01-24_10h46.47.289,t1_Paradigm,2021.1.4,60.00230986203826,
H,left,Pretarget,0,48,48,48,434.9628119720728,436.96484297055576,left,1,1,0.4824627083580708,N25N07,2023-01-24_10h46.47.289,t1_Paradigm,2021.1.4,60.00230986203826,
H,right,Target,0,49,49,49,438.46275903972855,440.4628158217092,right,1,1,0.5524578899057815,N25N07,2023-01-24_10h46.47.289,t1_Paradigm,2021.1.4,60.00230986203826,
K,left,Distractor,0,50,50,50,441.96279336555745,443.9647451258934,left,1,1,0.4424509798263898,N25N07,2023-01-24_10h46.47.289,t1_Paradigm,2021.1.4,60.00230986203826,
V,left,Pretarget,0,51,51,51,445.46277026779717,447.4650104292814,left,1,1,0.4305168186983792,N25N07,2023-01-24_10h46.47.289,t1_Paradigm,2021.1.4,60.00230986203826,
V,right,Target,0,52,52,52,448.9628783781227,450.9627789294609,right,1,1,0.6285050041915383,N25N07,2023-01-24_10h46.47.289,t1_Paradigm,2021.1.4,60.00230986203826,
R,left,Distractor,0,53,53,53,452.4627699470002,454.4649882939266,left,1,1,0.4224188097869046,N25N07,2023-01-24_10h46.47.289,t1_Paradigm,2021.1.4,60.00230986203826,
V,left,Lure,0,54,54,54,455.9628308993997,457.9650774769252,left,1,1,0.4903720855800202,N25N07,2023-01-24_10h46.47.289,t1_Paradigm,2021.1.4,60.00230986203826,
Y,left,Distractor,0,55,55,55,459.46291494957404,461.4637785489904,left,1,1,0.6076531846338185,N25N07,2023-01-24_10h46.47.289,t1_Paradigm,2021.1.4,60.00230986203826,
Q,left,Distractor,0,56,56,56,462.9628379570495,464.9632973457483,left,1,1,0.6123141192074399,N25N07,2023-01-24_10h46.47.289,t1_Paradigm,2021.1.4,60.00230986203826,
Z,left,Pretarget,0,57,57,57,466.4625700872566,468.4651884744817,left,1,1,0.5341076855838764,N25N07,2023-01-24_10h46.47.289,t1_Paradigm,2021.1.4,60.00230986203826,
Z,right,Target,0,58,58,58,469.9629127039516,471.9628135760868,right,1,1,0.5885115613928065,N25N07,2023-01-24_10h46.47.289,t1_Paradigm,2021.1.4,60.00230986203826,
B,left,Distractor,0,59,59,59,473.4624786586355,475.4651753215876,left,1,1,0.5742169379664119,N25N07,2023-01-24_10h46.47.289,t1_Paradigm,2021.1.4,60.00230986203826,
S,left,Pretarget,0,60,60,60,476.96281742570864,478.96504507590726,left,1,1,0.4982602898962796,N25N07,2023-01-24_10h46.47.289,t1_Paradigm,2021.1.4,60.00230986203826,
S,right,Target,0,61,61,61,480.462899871869,482.46281742570864,right,1,1,0.6005037877039285,N25N07,2023-01-24_10h46.47.289,t1_Paradigm,2021.1.4,60.00230986203826,
T,left,Distractor,0,62,62,62,483.9627875911101,485.9616923725407,left,1,1,0.5097475736110937,N25N07,2023-01-24_10h46.47.289,t1_Paradigm,2021.1.4,60.00230986203826,
D,left,Distractor,0,63,63,63,487.46292393203476,489.46501652451116,left,1,1,0.47860794959706254,N25N07,2023-01-24_10h46.47.289,t1_Paradigm,2021.1.4,60.00230986203826,
R,left,Distractor,0,0,0,0,507.15723476237326,509.1476113391982,None,0,1,,N25N07,2023-01-24_10h46.47.289,t1_Paradigm,2021.1.4,60.00230986203826,
V,left,Distractor,0,1,1,1,510.646214566601,512.6483325024601,left,1,1,0.6710218767839251,N25N07,2023-01-24_10h46.47.289,t1_Paradigm,2021.1.4,60.00230986203826,
N,left,Pretarget,0,2,2,2,514.1461677294865,516.1482003319688,left,1,1,0.5632968324644025,N25N07,2023-01-24_10h46.47.289,t1_Paradigm,2021.1.4,60.00230986203826,
N,right,Target,0,3,3,3,517.6463210729125,519.6460554487276,right,1,1,0.5852570234856103,N25N07,2023-01-24_10h46.47.289,t1_Paradigm,2021.1.4,60.00230986203826,
S,left,Distractor,0,4,4,4,521.1461658046755,523.1483424473263,left,1,1,0.4589607421658002,N25N07,2023-01-24_10h46.47.289,t1_Paradigm,2021.1.4,60.00230986203826,
N,left,Lure,0,5,5,5,524.646152010173,526.6482420362445,left,1,1,0.5271693764807424,N25N07,2023-01-24_10h46.47.289,t1_Paradigm,2021.1.4,60.00230986203826,
Z,left,Distractor,0,6,6,6,528.1460849625291,530.1487383171916,left,1,1,0.6425234169437317,N25N07,2023-01-24_10h46.47.289,t1_Paradigm,2021.1.4,60.00230986203826,
L,left,Pretarget,0,7,7,7,531.6461147971277,533.6486189787829,left,1,1,0.48674926681269426,N25N07,2023-01-24_10h46.47.289,t1_Paradigm,2021.1.4,60.00230986203826,
L,right,Target,0,8,8,8,535.1461334036576,537.1462065465457,right,1,1,0.621132970569306,N25N07,2023-01-24_10h46.47.289,t1_Paradigm,2021.1.4,60.00230986203826,
H,left,Distractor,0,9,9,9,538.6461314788321,540.6482516603137,left,1,1,0.38301339733880013,N25N07,2023-01-24_10h46.47.289,t1_Paradigm,2021.1.4,60.00230986203826,
L,left,Lure,0,10,10,10,542.1461702959059,544.1479953393864,left,1,1,0.5955031236517243,N25N07,2023-01-24_10h46.47.289,t1_Paradigm,2021.1.4,60.00230986203826,
X,left,Pretarget,0,11,11,11,545.6462511380378,547.6482067480101,left,1,1,0.5511435634689406,N25N07,2023-01-24_10h46.47.289,t1_Paradigm,2021.1.4,60.00230986203826,
X,right,Target,0,12,12,12,549.1461702959059,551.1461561806063,right,1,1,0.5252641324477736,N25N07,2023-01-24_10h46.47.289,t1_Paradigm,2021.1.4,60.00230986203826,
X,right,Target,0,13,13,13,552.6461398196989,554.6462979751668,right,1,1,0.6571699603373418,N25N07,2023-01-24_10h46.47.289,t1_Paradigm,2021.1.4,60.00230986203826,
R,left,Distractor,0,14,14,14,556.146151368579,558.1485612343968,left,1,1,0.4665820390509907,N25N07,2023-01-24_10h46.47.289,t1_Paradigm,2021.1.4,60.00230986203826,
T,left,Distractor,0,15,15,15,559.6461924312462,561.6484823170613,left,1,1,0.4868981190084014,N25N07,2023-01-24_10h46.47.289,t1_Paradigm,2021.1.4,60.00230986203826,
V,left,Pretarget,0,16,16,16,563.1461853735964,565.1587678758951,left,1,1,0.3847303304937668,N25N07,2023-01-24_10h46.47.289,t1_Paradigm,2021.1.4,60.00230986203826,
V,right,Target,0,17,17,17,566.6461468773487,568.6462302859,right,1,1,0.5133421618083958,N25N07,2023-01-24_10h46.47.289,t1_Paradigm,2021.1.4,60.00230986203826,
N,left,Distractor,0,18,18,18,570.1461494437535,572.1479767328565,left,1,1,0.43534874080796726,N25N07,2023-01-24_10h46.47.289,t1_Paradigm,2021.1.4,60.00230986203826,
B,left,Distractor,0,19,19,19,573.646184090394,575.6482641715993,left,1,1,0.4071890480699949,N25N07,2023-01-24_10h46.47.289,t1_Paradigm,2021.1.4,60.00230986203826,
V,left,Lure,0,20,20,20,577.1461869776103,579.1470525018376,left,1,1,0.39643062686081976,N25N07,2023-01-24_10h46.47.289,t1_Paradigm,2021.1.4,60.00230986203826,
P,left,Distractor,0,21,21,21,580.6461593886343,582.6485015651997,left,1,1,0.5750417203234974,N25N07,2023-01-24_10h46.47.289,t1_Paradigm,2021.1.4,60.00230986203826,
K,left,Pretarget,0,22,22,22,584.1461083810864,586.1479902065475,left,1,1,0.5636166722106282,N25N07,2023-01-24_10h46.47.289,t1_Paradigm,2021.1.4,60.00230986203826,
K,right,Target,0,23,23,23,587.6463512283226,589.6462703861762,left,0,1,1.0329030734865228,N25N07,2023-01-24_10h46.47.289,t1_Paradigm,2021.1.4,60.00230986203826,
J,left,Pretarget,0,24,24,24,591.1461157595331,593.1479632591654,left,1,1,0.5394301142077893,N25N07,2023-01-24_10h46.47.289,t1_Paradigm,2021.1.4,60.00230986203826,
J,right,Target,0,25,25,25,594.6462418347801,596.6462463260104,right,1,1,0.6731702888355358,N25N07,2023-01-24_10h46.47.289,t1_Paradigm,2021.1.4,60.00230986203826,
H,left,Distractor,0,26,26,26,598.146119288358,600.148411419781,left,1,1,0.5630956895183772,N25N07,2023-01-24_10h46.47.289,t1_Paradigm,2021.1.4,60.00230986203826,
J,left,Lure,0,27,27,27,601.6461571430118,603.6480213243631,left,1,1,0.631574118451681,N25N07,2023-01-24_10h46.47.289,t1_Paradigm,2021.1.4,60.00230986203826,
V,left,Distractor,0,28,28,28,605.1461167219386,607.1485814449261,left,1,1,0.6988078350259457,N25N07,2023-01-24_10h46.47.289,t1_Paradigm,2021.1.4,60.00230986203826,
Z,left,Pretarget,0,29,29,29,608.6461411029013,610.6482202217012,left,1,1,0.6872185362008167,N25N07,2023-01-24_10h46.47.289,t1_Paradigm,2021.1.4,60.00230986203826,
Z,right,Target,0,30,30,30,612.146136290874,614.1462691029592,right,1,1,0.5492261289618909,N25N07,2023-01-24_10h46.47.289,t1_Paradigm,2021.1.4,60.00230986203826,
T,left,Distractor,0,31,31,31,615.646152010173,617.6480222867685,left,1,1,0.5513581801060354,N25N07,2023-01-24_10h46.47.289,t1_Paradigm,2021.1.4,60.00230986203826,
Z,left,Lure,0,32,32,32,619.1451292928978,621.1483697155054,left,1,1,0.538997993702651,N25N07,2023-01-24_10h46.47.289,t1_Paradigm,2021.1.4,60.00230986203826,
F,left,Distractor,0,33,33,33,622.6461982056935,624.6475962614932,left,1,1,0.5597522894095164,N25N07,2023-01-24_10h46.47.289,t1_Paradigm,2021.1.4,60.00230986203826,
Y,left,Pretarget,0,34,34,34,626.1462662157428,628.148397304496,left,1,1,0.5470485238911351,N25N07,2023-01-24_10h46.47.289,t1_Paradigm,2021.1.4,60.00230986203826,
Y,right,Target,0,35,35,35,629.6461600302282,631.6461853735964,right,1,1,0.6171903120266506,N25N07,2023-01-24_10h46.47.289,t1_Paradigm,2021.1.4,60.00230986203826,
Y,right,Target,0,36,36,36,633.1461471981456,635.1461568222148,right,1,1,0.42958168040786404,N25N07,2023-01-24_10h46.47.289,t1_Paradigm,2021.1.4,60.00230986203826,
W,left,Distractor,0,37,37,37,636.6460009123548,638.6482487730973,left,1,1,0.3831057883653557,N25N07,2023-01-24_10h46.47.289,t1_Paradigm,2021.1.4,60.00230986203826,
Q,left,Distractor,0,38,38,38,640.1461728623108,642.1481714597758,left,1,1,0.48318611722788773,N25N07,2023-01-24_10h46.47.289,t1_Paradigm,2021.1.4,60.00230986203826,
P,left,Pretarget,0,39,39,39,643.6461988472875,645.6482680212212,left,1,1,0.4552362290851306,N25N07,2023-01-24_10h46.47.289,t1_Paradigm,2021.1.4,60.00230986203826,
P,right,Target,0,40,40,40,647.1462668573513,649.146199168099,right,1,1,0.4451380187238101,N25N07,2023-01-24_10h46.47.289,t1_Paradigm,2021.1.4,60.00230986203826,
J,left,Distractor,0,41,41,41,650.6462290026975,652.6484980363748,left,1,1,0.5270041633630171,N25N07,2023-01-24_10h46.47.289,t1_Paradigm,2021.1.4,60.00230986203826,
P,left,Lure,0,42,42,42,654.1463136944658,656.1480973544676,left,1,1,0.8512719484861009,N25N07,2023-01-24_10h46.47.289,t1_Paradigm,2021.1.4,60.00230986203826,
L,left,Distractor,0,43,43,43,657.6462091129652,659.6483280112298,left,1,1,0.5830685111577623,N25N07,2023-01-24_10h46.47.289,t1_Paradigm,2021.1.4,60.00230986203826,
Z,left,Distractor,0,44,44,44,661.1461901856383,663.148615449958,left,1,1,0.5068459180765785,N25N07,2023-01-24_10h46.47.289,t1_Paradigm,2021.1.4,60.00230986203826,
F,left,Pretarget,0,45,45,45,664.646291238314,666.6484685225732,left,1,1,0.49511835354496725,N25N07,2023-01-24_10h46.47.289,t1_Paradigm,2021.1.4,60.00230986203826,
F,right,Target,0,46,46,46,668.1462023761123,670.1463335841981,right,1,1,0.42106919510115404,N25N07,2023-01-24_10h46.47.289,t1_Paradigm,2021.1.4,60.00230986203826,
G,left,Pretarget,0,47,47,47,671.6461468773487,673.6480954296567,left,1,1,0.4234306197904516,N25N07,2023-01-24_10h46.47.289,t1_Paradigm,2021.1.4,60.00230986203826,
G,right,Target,0,48,48,48,675.1461308372382,677.1461895440298,right,1,1,0.6052141258114716,N25N07,2023-01-24_10h46.47.289,t1_Paradigm,2021.1.4,60.00230986203826,
V,left,Distractor,0,49,49,49,678.6462947671389,680.6480505173531,left,1,1,0.5115706922952086,N25N07,2023-01-24_10h46.47.289,t1_Paradigm,2021.1.4,60.00230986203826,
G,left,Lure,0,50,50,50,682.1462861054752,684.1484252142836,left,1,1,0.3710975219437387,N25N07,2023-01-24_10h46.47.289,t1_Paradigm,2021.1.4,60.00230986203826,
Q,left,Pretarget,0,51,51,51,685.646229644306,687.6482343370008,left,1,1,0.48723143244569656,N25N07,2023-01-24_10h46.47.289,t1_Paradigm,2021.1.4,60.00230986203826,
Q,right,Target,0,52,52,52,689.1461799199606,691.1463146568713,right,1,1,0.6210925494960975,N25N07,2023-01-24_10h46.47.289,t1_Paradigm,2021.1.4,60.00230986203826,
Y,left,Distractor,0,53,53,53,692.6462662157428,694.648537495028,left,1,1,0.5588357576343697,N25N07,2023-01-24_10h46.47.289,t1_Paradigm,2021.1.4,60.00230986203826,
V,left,Distractor,0,54,54,54,696.1461921104492,698.1482391490281,left,1,1,0.48302379132655915,N25N07,2023-01-24_10h46.47.289,t1_Paradigm,2021.1.4,60.00230986203826,
B,left,Distractor,0,55,55,55,699.6462155290064,701.6486266780412,left,1,1,0.45491125650005415,N25N07,2023-01-24_10h46.47.289,t1_Paradigm,2021.1.4,60.00230986203826,
J,left,Pretarget,0,56,56,56,703.1450410723046,705.1485423070699,left,1,1,0.6028844605316408,N25N07,2023-01-24_10h46.47.289,t1_Paradigm,2021.1.4,60.00230986203826,
J,right,Target,0,57,57,57,706.646199488896,708.6461847320024,right,1,1,0.5611975031351903,N25N07,2023-01-24_10h46.47.289,t1_Paradigm,2021.1.4,60.00230986203826,
H,left,Distractor,0,58,58,58,710.1462514588493,712.1482022567798,left,1,1,0.4990193077974254,N25N07,2023-01-24_10h46.47.289,t1_Paradigm,2021.1.4,60.00230986203826,
J,left,Lure,0,59,59,59,713.6462139249925,715.6485195301066,left,1,1,0.42303635393909644,N25N07,2023-01-24_10h46.47.289,t1_Paradigm,2021.1.4,60.00230986203826,
D,left,Pretarget,0,60,60,60,717.1462947671389,719.1484271390946,left,1,1,0.570970099317492,N25N07,2023-01-24_10h46.47.289,t1_Paradigm,2021.1.4,60.00230986203826,
D,right,Target,0,61,61,61,720.6462957295444,722.6462225866562,right,1,1,0.6093248846882489,N25N07,2023-01-24_10h46.47.289,t1_Paradigm,2021.1.4,60.00230986203826,
R,left,Distractor,0,62,62,62,724.1451276888838,726.1485660464241,left,1,1,0.48266545530350413,N25N07,2023-01-24_10h46.47.289,t1_Paradigm,2021.1.4,60.00230986203826,
F,left,Distractor,0,63,63,63,727.6462225866562,729.6482680212212,left,1,1,0.4393029482307611,N25N07,2023-01-24_10h46.47.289,t1_Paradigm,2021.1.4,60.00230986203826,
F,left,Distractor,0,0,0,0,854.461621796072,856.4630095862085,None,0,2,,N25N07,2023-01-24_10h46.47.289,t1_Paradigm,2021.1.4,60.00230986203826,
N,left,Pretarget,0,1,1,1,857.9629082127212,859.9653597828292,None,0,2,,N25N07,2023-01-24_10h46.47.289,t1_Paradigm,2021.1.4,60.00230986203826,
V,left,Distractor,0,2,2,2,861.4629707691493,863.4649619881529,left,1,2,0.7345314010744914,N25N07,2023-01-24_10h46.47.289,t1_Paradigm,2021.1.4,60.00230986203826,
N,right,Target,0,3,3,3,864.9628953806387,866.9647175369028,right,1,2,0.9789091828424716,N25N07,2023-01-24_10h46.47.289,t1_Paradigm,2021.1.4,60.00230986203826,
N,left,Lure,0,4,4,4,868.4628940974362,870.4629412553477,left,1,2,1.1285592197527876,N25N07,2023-01-24_10h46.47.289,t1_Paradigm,2021.1.4,60.00230986203826,
X,left,Distractor,0,5,5,5,871.9628950598417,873.9653578580183,None,0,2,,N25N07,2023-01-24_10h46.47.289,t1_Paradigm,2021.1.4,60.00230986203826,
G,left,Pretarget,0,6,6,6,875.462867791648,877.465286960738,left,1,2,0.9102867137116846,N25N07,2023-01-24_10h46.47.289,t1_Paradigm,2021.1.4,60.00230986203826,
H,left,Pretarget,0,7,7,7,878.9629316312785,880.9619300869381,left,1,2,0.9497399256943027,N25N07,2023-01-24_10h46.47.289,t1_Paradigm,2021.1.4,60.00230986203826,
G,right,Target,0,8,8,8,882.4629579370667,884.46517660479,right,1,2,0.998343377650599,N25N07,2023-01-24_10h46.47.289,t1_Paradigm,2021.1.4,60.00230986203826,
H,right,Target,0,9,9,9,885.9629223280208,887.964883391629,left,0,2,0.7306702262867475,N25N07,2023-01-24_10h46.47.289,t1_Paradigm,2021.1.4,60.00230986203826,
T,left,Pretarget,0,10,10,10,889.4629216864123,891.4648112111317,left,1,2,0.6227998585964087,N25N07,2023-01-24_10h46.47.289,t1_Paradigm,2021.1.4,60.00230986203826,
K,left,Distractor,0,11,11,11,892.9630095862085,894.9655105598504,left,1,2,0.6260059553751489,N25N07,2023-01-24_10h46.47.289,t1_Paradigm,2021.1.4,60.00230986203826,
T,right,Target,0,12,12,12,896.4629383681313,898.4652449356508,left,0,2,0.6465748274204088,N25N07,2023-01-24_10h46.47.289,t1_Paradigm,2021.1.4,60.00230986203826,
T,left,Lure,0,13,13,13,899.9629110999522,901.9628780573257,left,1,2,1.2768978174426593,N25N07,2023-01-24_10h46.47.289,t1_Paradigm,2021.1.4,60.00230986203826,
J,left,Distractor,0,14,14,14,903.4630368543876,905.4648708803434,left,1,2,0.5426166420656955,N25N07,2023-01-24_10h46.47.289,t1_Paradigm,2021.1.4,60.00230986203826,
Q,left,Pretarget,0,15,15,15,906.9628963430441,908.9653392514883,left,1,2,0.930575525489985,N25N07,2023-01-24_10h46.47.289,t1_Paradigm,2021.1.4,60.00230986203826,
M,left,Distractor,0,16,16,16,910.4629547290388,912.4658047354169,left,1,2,0.6457965613808483,N25N07,2023-01-24_10h46.47.289,t1_Paradigm,2021.1.4,60.00230986203826,
Q,right,Target,0,17,17,17,913.9629791100015,915.9651134067681,left,0,2,0.5864064576162491,N25N07,2023-01-24_10h46.47.289,t1_Paradigm,2021.1.4,60.00230986203826,
R,left,Distractor,0,18,18,18,917.4629906588816,919.4653139081202,left,1,2,0.6703238112822874,N25N07,2023-01-24_10h46.47.289,t1_Paradigm,2021.1.4,60.00230986203826,
W,left,Distractor,0,19,19,19,920.9630070197891,922.9652683542081,left,1,2,0.6422488103125943,N25N07,2023-01-24_10h46.47.289,t1_Paradigm,2021.1.4,60.00230986203826,
C,left,Pretarget,0,20,20,20,924.4629104583437,926.4647986998461,left,1,2,0.518711748343776,N25N07,2023-01-24_10h46.47.289,t1_Paradigm,2021.1.4,60.00230986203826,
T,left,Distractor,0,21,21,21,927.962947029795,929.9649610257475,left,1,2,0.6505036914604716,N25N07,2023-01-24_10h46.47.289,t1_Paradigm,2021.1.4,60.00230986203826,
C,right,Target,0,22,22,22,931.4629993205454,933.4651044243074,right,1,2,0.7024203881301219,N25N07,2023-01-24_10h46.47.289,t1_Paradigm,2021.1.4,60.00230986203826,
F,left,Pretarget,0,23,23,23,934.9629274608596,936.9650447551103,left,1,2,0.674222199129872,N25N07,2023-01-24_10h46.47.289,t1_Paradigm,2021.1.4,60.00230986203826,
C,right,Target,0,24,24,24,938.463073425839,940.4650726648979,right,1,2,0.9024960332753835,N25N07,2023-01-24_10h46.47.289,t1_Paradigm,2021.1.4,60.00230986203826,
F,right,Target,0,25,25,25,941.9628453355108,943.9650534167595,left,0,2,0.8746042103302898,N25N07,2023-01-24_10h46.47.289,t1_Paradigm,2021.1.4,60.00230986203826,
H,left,Distractor,0,26,26,26,945.4627426788065,947.4652064394031,left,1,2,0.7343729248095769,N25N07,2023-01-24_10h46.47.289,t1_Paradigm,2021.1.4,60.00230986203826,
H,left,Lure,0,27,27,27,948.9629383681313,950.9629621074855,left,1,2,1.012647625131649,N25N07,2023-01-24_10h46.47.289,t1_Paradigm,2021.1.4,60.00230986203826,
P,left,Distractor,0,28,28,28,952.4629066087218,954.4652401236235,left,1,2,0.9982801796286367,N25N07,2023-01-24_10h46.47.289,t1_Paradigm,2021.1.4,60.00230986203826,
G,left,Pretarget,0,29,29,29,955.9626945584896,957.9652468604618,left,1,2,0.7142509301629616,N25N07,2023-01-24_10h46.47.289,t1_Paradigm,2021.1.4,60.00230986203826,
K,left,Distractor,0,30,30,30,959.4629617866885,961.4651878328732,left,1,2,0.9423447943117935,N25N07,2023-01-24_10h46.47.289,t1_Paradigm,2021.1.4,60.00230986203826,
G,right,Target,0,31,31,31,962.9629377265228,964.9637458271609,right,1,2,0.7397989725432126,N25N07,2023-01-24_10h46.47.289,t1_Paradigm,2021.1.4,60.00230986203826,
M,left,Pretarget,0,32,32,32,966.4627250346966,968.4652218379051,left,1,2,0.5343351343180984,N25N07,2023-01-24_10h46.47.289,t1_Paradigm,2021.1.4,60.00230986203826,
B,left,Distractor,0,33,33,33,969.9627468492399,971.965365236465,left,1,2,0.8421672624099301,N25N07,2023-01-24_10h46.47.289,t1_Paradigm,2021.1.4,60.00230986203826,
M,right,Target,0,34,34,34,973.4629848844488,975.4647306897969,right,1,2,0.7189022406673757,N25N07,2023-01-24_10h46.47.289,t1_Paradigm,2021.1.4,60.00230986203826,
M,left,Lure,0,35,35,35,976.9630275511299,978.9629409345507,right,0,2,0.7566231209784746,N25N07,2023-01-24_10h46.47.289,t1_Paradigm,2021.1.4,60.00230986203826,
T,left,Distractor,0,36,36,36,980.4629672403244,982.4650656072481,left,1,2,0.6468064465734642,N25N07,2023-01-24_10h46.47.289,t1_Paradigm,2021.1.4,60.00230986203826,
F,left,Distractor,0,37,37,37,983.9630432704289,985.9652122138359,left,1,2,0.6983118748757988,N25N07,2023-01-24_10h46.47.289,t1_Paradigm,2021.1.4,60.00230986203826,
X,left,Distractor,0,38,38,38,987.4631340574415,989.4650274317974,left,1,2,0.5264620077214204,N25N07,2023-01-24_10h46.47.289,t1_Paradigm,2021.1.4,60.00230986203826,
C,left,Distractor,0,39,39,39,990.9630025285587,992.9652741286554,left,1,2,0.834304722273373,N25N07,2023-01-24_10h46.47.289,t1_Paradigm,2021.1.4,60.00230986203826,
R,left,Distractor,0,40,40,40,994.4630050949781,996.4651461285976,left,1,2,0.5663919317012187,N25N07,2023-01-24_10h46.47.289,t1_Paradigm,2021.1.4,60.00230986203826,
B,left,Pretarget,0,41,41,41,997.9629855260428,999.9648898076703,left,1,2,0.6986111832957249,N25N07,2023-01-24_10h46.47.289,t1_Paradigm,2021.1.4,60.00230986203826,
H,left,Distractor,0,42,42,42,1001.4629675611213,1003.4649578177196,left,1,2,0.6387052296631737,N25N07,2023-01-24_10h46.47.289,t1_Paradigm,2021.1.4,60.00230986203826,
B,right,Target,0,43,43,43,1004.9631000524241,1006.9642937572498,right,1,2,0.7714127421204466,N25N07,2023-01-24_10h46.47.289,t1_Paradigm,2021.1.4,60.00230986203826,
W,left,Pretarget,0,44,44,44,1008.463056423323,1010.4652009857527,left,1,2,0.6145783408428542,N25N07,2023-01-24_10h46.47.289,t1_Paradigm,2021.1.4,60.00230986203826,
L,left,Pretarget,0,45,45,45,1011.9629396513337,1013.9650373766635,left,1,2,0.5545674849126954,N25N07,2023-01-24_10h46.47.289,t1_Paradigm,2021.1.4,60.00230986203826,
W,right,Target,0,46,46,46,1015.4629364433204,1017.4648468201776,right,1,2,0.654756244897726,N25N07,2023-01-24_10h46.47.289,t1_Paradigm,2021.1.4,60.00230986203826,
L,right,Target,0,47,47,47,1018.9629640322964,1020.9650723441009,right,1,2,1.0424799803440692,N25N07,2023-01-24_10h46.47.289,t1_Paradigm,2021.1.4,60.00230986203826,
W,right,Target,0,48,48,48,1022.4629592202691,1024.4650187701336,right,1,2,0.8705723687889986,N25N07,2023-01-24_10h46.47.289,t1_Paradigm,2021.1.4,60.00230986203826,
X,left,Distractor,0,49,49,49,1025.9630057365866,1027.9649812362768,left,1,2,1.0986168294184608,N25N07,2023-01-24_10h46.47.289,t1_Paradigm,2021.1.4,60.00230986203826,
R,left,Distractor,0,50,50,50,1029.4630009245448,1031.4651291260816,left,1,2,0.5107927470380673,N25N07,2023-01-24_10h46.47.289,t1_Paradigm,2021.1.4,60.00230986203826,
V,left,Pretarget,0,51,51,51,1032.9629633907025,1034.964677436641,left,1,2,0.5630757997860201,N25N07,2023-01-24_10h46.47.289,t1_Paradigm,2021.1.4,60.00230986203826,
Z,left,Distractor,0,52,52,52,1036.462841806686,1038.4652179882687,left,1,2,0.5503829415392829,N25N07,2023-01-24_10h46.47.289,t1_Paradigm,2021.1.4,60.00230986203826,
V,right,Target,0,53,53,53,1039.9629418969562,1041.9650258277834,right,1,2,0.826494152090163,N25N07,2023-01-24_10h46.47.289,t1_Paradigm,2021.1.4,60.00230986203826,
V,left,Lure,0,54,54,54,1043.463010548614,1045.4630400624155,right,0,2,0.6406335714273155,N25N07,2023-01-24_10h46.47.289,t1_Paradigm,2021.1.4,60.00230986203826,
N,left,Distractor,0,55,55,55,1046.963022418291,1048.963724654226,left,1,2,0.707854455919005,N25N07,2023-01-24_10h46.47.289,t1_Paradigm,2021.1.4,60.00230986203826,
B,left,Distractor,0,56,56,56,1050.4630346087797,1052.4649703290052,left,1,2,0.5506062198401196,N25N07,2023-01-24_10h46.47.289,t1_Paradigm,2021.1.4,60.00230986203826,
V,left,Lure,0,57,57,57,1053.9630015661533,1055.964446779879,right,0,2,0.7631652394193225,N25N07,2023-01-24_10h46.47.289,t1_Paradigm,2021.1.4,60.00230986203826,
J,left,Distractor,0,58,58,58,1057.4630092654115,1059.4652600133559,left,1,2,1.0704295476753032,N25N07,2023-01-24_10h46.47.289,t1_Paradigm,2021.1.4,60.00230986203826,
H,left,Distractor,0,59,59,59,1060.9630503280787,1062.9653418179078,left,1,2,0.5944393436948303,N25N07,2023-01-24_10h46.47.289,t1_Paradigm,2021.1.4,60.00230986203826,
X,left,Pretarget,0,60,60,60,1064.4626887840568,1066.4652330659737,left,1,2,0.5503495781158563,N25N07,2023-01-24_10h46.47.289,t1_Paradigm,2021.1.4,60.00230986203826,
P,left,Distractor,0,61,61,61,1067.9630423080234,1069.9646854566963,left,1,2,0.6508552906452678,N25N07,2023-01-24_10h46.47.289,t1_Paradigm,2021.1.4,60.00230986203826,
X,right,Target,0,62,62,62,1071.4628546387685,1073.4652041937807,right,1,2,0.5423535843001446,N25N07,2023-01-24_10h46.47.289,t1_Paradigm,2021.1.4,60.00230986203826,
Q,left,Distractor,0,63,63,63,1074.9630910699634,1076.964958459328,None,0,2,,N25N07,2023-01-24_10h46.47.289,t1_Paradigm,2021.1.4,60.00230986203826,
B,left,Pretarget,0,0,0,0,1108.0043465484632,1109.9986019441858,None,0,2,,N25N07,2023-01-24_10h46.47.289,t1_Paradigm,2021.1.4,60.00230986203826,
F,left,Distractor,0,1,1,1,1111.4963617827161,1113.4984283902158,None,0,2,,N25N07,2023-01-24_10h46.47.289,t1_Paradigm,2021.1.4,60.00230986203826,
B,right,Target,0,2,2,2,1114.9963694819598,1116.9984540543956,right,1,2,0.7211606878699968,N25N07,2023-01-24_10h46.47.289,t1_Paradigm,2021.1.4,60.00230986203826,
V,left,Distractor,0,3,3,3,1118.496346705011,1120.4983674378163,left,1,2,0.7093080104968976,N25N07,2023-01-24_10h46.47.289,t1_Paradigm,2021.1.4,60.00230986203826,
G,left,Pretarget,0,4,4,4,1121.9963402889698,1123.9986635382083,left,1,2,0.6486959713074611,N25N07,2023-01-24_10h46.47.289,t1_Paradigm,2021.1.4,60.00230986203826,
B,left,Lure,0,5,5,5,1125.4962966598687,1127.4954134915315,right,0,2,0.6882252133800648,N25N07,2023-01-24_10h46.47.289,t1_Paradigm,2021.1.4,60.00230986203826,
G,right,Target,0,6,6,6,1128.9963569706742,1130.9983196382818,right,1,2,0.9774033374997089,N25N07,2023-01-24_10h46.47.289,t1_Paradigm,2021.1.4,60.00230986203826,
Y,left,Pretarget,0,7,7,7,1132.496330023292,1134.498407538078,left,1,2,0.5974821521667764,N25N07,2023-01-24_10h46.47.289,t1_Paradigm,2021.1.4,60.00230986203826,
P,left,Distractor,0,8,8,8,1135.996331306509,1137.9986167010939,left,1,2,0.5530773588689044,N25N07,2023-01-24_10h46.47.289,t1_Paradigm,2021.1.4,60.00230986203826,
Y,right,Target,0,9,9,9,1139.496336760145,1141.497958735854,right,1,2,0.7018541723227827,N25N07,2023-01-24_10h46.47.289,t1_Paradigm,2021.1.4,60.00230986203826,
X,left,Distractor,0,10,10,10,1142.99644037924,1144.9981887510075,left,1,2,0.6734205145330634,N25N07,2023-01-24_10h46.47.289,t1_Paradigm,2021.1.4,60.00230986203826,
Y,right,Target,0,11,11,11,1146.4963739731902,1148.4982631771127,left,0,2,0.8693937416683184,N25N07,2023-01-24_10h46.47.289,t1_Paradigm,2021.1.4,60.00230986203826,
N,left,Distractor,0,12,12,12,1149.9964378128207,1151.9980912271567,left,1,2,0.8896860822569579,N25N07,2023-01-24_10h46.47.289,t1_Paradigm,2021.1.4,60.00230986203826,
Y,right,Target,0,13,13,13,1153.496258484418,1155.4985727511958,right,1,2,0.7650544433272444,N25N07,2023-01-24_10h46.47.289,t1_Paradigm,2021.1.4,60.00230986203826,
Y,left,Lure,0,14,14,14,1156.9953332909936,1158.996427226346,left,1,2,0.8998365833831485,N25N07,2023-01-24_10h46.47.289,t1_Paradigm,2021.1.4,60.00230986203826,
K,left,Distractor,0,15,15,15,1160.496335156131,1162.4984633576532,left,1,2,0.869217300467426,N25N07,2023-01-24_10h46.47.289,t1_Paradigm,2021.1.4,60.00230986203826,
T,left,Pretarget,0,16,16,16,1163.9963685195544,1165.9983420944336,left,1,2,0.5533246973354835,N25N07,2023-01-24_10h46.47.289,t1_Paradigm,2021.1.4,60.00230986203826,
J,left,Distractor,0,17,17,17,1167.496367236352,1169.4986988264427,left,1,2,0.7649261224723887,N25N07,2023-01-24_10h46.47.289,t1_Paradigm,2021.1.4,60.00230986203826,
T,right,Target,0,18,18,18,1170.9963669155404,1172.9976822043973,right,1,2,0.40196221848600544,N25N07,2023-01-24_10h46.47.289,t1_Paradigm,2021.1.4,60.00230986203826,
S,left,Pretarget,0,19,19,19,1174.496409903033,1176.4981852221827,left,1,2,0.6136711123544956,N25N07,2023-01-24_10h46.47.289,t1_Paradigm,2021.1.4,60.00230986203826,
R,left,Distractor,0,20,20,20,1177.9963515170384,1179.998596811347,left,1,2,1.0010740456345957,N25N07,2023-01-24_10h46.47.289,t1_Paradigm,2021.1.4,60.00230986203826,
S,right,Target,0,21,21,21,1181.4963858428673,1183.4986337035953,right,1,2,0.6051990481209941,N25N07,2023-01-24_10h46.47.289,t1_Paradigm,2021.1.4,60.00230986203826,
Q,left,Distractor,0,22,22,22,1184.9964022037748,1186.998691447996,left,1,2,0.464940173595096,N25N07,2023-01-24_10h46.47.289,t1_Paradigm,2021.1.4,60.00230986203826,
D,left,Distractor,0,23,23,23,1188.4965783241641,1190.4978888009937,left,1,2,0.6619746142823715,N25N07,2023-01-24_10h46.47.289,t1_Paradigm,2021.1.4,60.00230986203826,
F,left,Distractor,0,24,24,24,1191.9964333215903,1193.9980488812726,right,0,2,1.1936031407822156,N25N07,2023-01-24_10h46.47.289,t1_Paradigm,2021.1.4,60.00230986203826,
Z,left,Distractor,0,25,25,25,1195.4963537626609,1197.4986802199128,left,1,2,0.6370049782126443,N25N07,2023-01-24_10h46.47.289,t1_Paradigm,2021.1.4,60.00230986203826,
P,left,Distractor,0,26,26,26,1198.995463857471,1200.9985387461638,left,1,2,0.6249716892198194,N25N07,2023-01-24_10h46.47.289,t1_Paradigm,2021.1.4,60.00230986203826,
H,left,Distractor,0,27,27,27,1202.4964448704704,1204.4985358589474,left,1,2,0.7252239680237835,N25N07,2023-01-24_10h46.47.289,t1_Paradigm,2021.1.4,60.00230986203826,
Z,left,Pretarget,0,28,28,28,1205.9963463841996,1207.9986205507157,left,1,2,0.6488351994485129,N25N07,2023-01-24_10h46.47.289,t1_Paradigm,2021.1.4,60.00230986203826,
J,left,Pretarget,0,29,29,29,1209.4964041286003,1211.4976526905957,left,1,2,0.6860713476780802,N25N07,2023-01-24_10h46.47.289,t1_Paradigm,2021.1.4,60.00230986203826,
Z,right,Target,0,30,30,30,1212.9963742939872,1214.998704921687,right,1,2,0.5928956436982844,N25N07,2023-01-24_10h46.47.289,t1_Paradigm,2021.1.4,60.00230986203826,
J,right,Target,0,31,31,31,1216.496336760145,1218.5089173376182,right,1,2,0.5547429636935703,N25N07,2023-01-24_10h46.47.289,t1_Paradigm,2021.1.4,60.00230986203826,
V,left,Pretarget,0,32,32,32,1219.9965670960955,1221.997801863603,left,1,2,0.5379534618696198,N25N07,2023-01-24_10h46.47.289,t1_Paradigm,2021.1.4,60.00230986203826,
Z,left,Lure,0,33,33,33,1223.49635087543,1225.4983934227785,left,1,2,0.8614567754411837,N25N07,2023-01-24_10h46.47.289,t1_Paradigm,2021.1.4,60.00230986203826,
V,right,Target,0,34,34,34,1226.9963451009971,1228.9988512074633,right,1,2,0.8167946987960022,N25N07,2023-01-24_10h46.47.289,t1_Paradigm,2021.1.4,60.00230986203826,
X,left,Distractor,0,35,35,35,1230.4966408805922,1232.4978451718925,left,1,2,0.549854580371175,N25N07,2023-01-24_10h46.47.289,t1_Paradigm,2021.1.4,60.00230986203826,
S,left,Distractor,0,36,36,36,1233.996508710101,1235.9977492520557,left,1,2,0.649759430452832,N25N07,2023-01-24_10h46.47.289,t1_Paradigm,2021.1.4,60.00230986203826,
Q,left,Distractor,0,37,37,37,1237.496461231378,1239.4987421347323,left,1,2,0.5570674961345503,N25N07,2023-01-24_10h46.47.289,t1_Paradigm,2021.1.4,60.00230986203826,
P,left,Distractor,0,38,38,38,1240.9964910659764,1242.998812390404,left,1,2,0.5927346010139445,N25N07,2023-01-24_10h46.47.289,t1_Paradigm,2021.1.4,60.00230986203826,
S,left,Lure,0,39,39,39,1244.4963877676782,1246.4980950767786,left,1,2,1.0779821929172613,N25N07,2023-01-24_10h46.47.289,t1_Paradigm,2021.1.4,60.00230986203826,
K,left,Pretarget,0,40,40,40,1247.9963646699325,1249.998052410083,left,1,2,0.8096029559965245,N25N07,2023-01-24_10h46.47.289,t1_Paradigm,2021.1.4,60.00230986203826,
L,left,Distractor,0,41,41,41,1251.496377822812,1253.498283387642,left,1,2,0.8135693538933992,N25N07,2023-01-24_10h46.47.289,t1_Paradigm,2021.1.4,60.00230986203826,
K,right,Target,0,42,42,42,1254.9964654018113,1256.9981229865662,right,1,2,0.5778750449971994,N25N07,2023-01-24_10h46.47.289,t1_Paradigm,2021.1.4,60.00230986203826,
B,left,Distractor,0,43,43,43,1258.4963839180564,1260.498046956447,left,1,2,0.6458049022476189,N25N07,2023-01-24_10h46.47.289,t1_Paradigm,2021.1.4,60.00230986203826,
N,left,Distractor,0,44,44,44,1261.9962501435512,1263.9984912674408,left,1,2,0.6011402591975639,N25N07,2023-01-24_10h46.47.289,t1_Paradigm,2021.1.4,60.00230986203826,
S,left,Pretarget,0,45,45,45,1265.4961539029173,1267.4984216533776,None,0,2,,N25N07,2023-01-24_10h46.47.289,t1_Paradigm,2021.1.4,60.00230986203826,
Z,left,Distractor,0,46,46,46,1268.9964002789638,1270.9989115182689,None,0,2,,N25N07,2023-01-24_10h46.47.289,t1_Paradigm,2021.1.4,60.00230986203826,
S,right,Target,0,47,47,47,1272.496100008153,1274.4986109266465,right,1,2,0.7251485795131885,N25N07,2023-01-24_10h46.47.289,t1_Paradigm,2021.1.4,60.00230986203826,
C,left,Distractor,0,48,48,48,1275.9963852012734,1277.99850089151,left,1,2,0.6811133503069868,N25N07,2023-01-24_10h46.47.289,t1_Paradigm,2021.1.4,60.00230986203826,
T,left,Pretarget,0,49,49,49,1279.4964339631988,1281.498140630676,left,1,2,0.6215971712954342,N25N07,2023-01-24_10h46.47.289,t1_Paradigm,2021.1.4,60.00230986203826,
S,left,Lure,0,50,50,50,1282.9963993165584,1284.9986519893282,left,1,2,0.7050795172399376,N25N07,2023-01-24_10h46.47.289,t1_Paradigm,2021.1.4,60.00230986203826,
T,right,Target,0,51,51,51,1286.496207156073,1288.4983619841805,right,1,2,0.6454776840400882,N25N07,2023-01-24_10h46.47.289,t1_Paradigm,2021.1.4,60.00230986203826,
N,left,Pretarget,0,52,52,52,1289.9963614619046,1291.9971576928656,None,0,2,,N25N07,2023-01-24_10h46.47.289,t1_Paradigm,2021.1.4,60.00230986203826,
B,left,Distractor,0,53,53,53,1293.49636242431,1295.4985615231126,left,1,2,0.6531615373678505,N25N07,2023-01-24_10h46.47.289,t1_Paradigm,2021.1.4,60.00230986203826,
N,right,Target,0,54,54,54,1296.996146524456,1298.9984906258323,right,1,2,0.625089102803031,N25N07,2023-01-24_10h46.47.289,t1_Paradigm,2021.1.4,60.00230986203826,
N,left,Lure,0,55,55,55,1300.49641022383,1302.4964868955576,left,1,2,0.8873349232308101,N25N07,2023-01-24_10h46.47.289,t1_Paradigm,2021.1.4,60.00230986203826,
X,left,Distractor,0,56,56,56,1303.9965192965756,1305.997907086712,left,1,2,0.7298127221147297,N25N07,2023-01-24_10h46.47.289,t1_Paradigm,2021.1.4,60.00230986203826,
W,left,Distractor,0,57,57,57,1307.4964336423873,1309.497943337352,left,1,2,0.6697800516267307,N25N07,2023-01-24_10h46.47.289,t1_Paradigm,2021.1.4,60.00230986203826,
S,left,Distractor,0,58,58,58,1310.9963617827161,1312.9986372324202,left,1,2,0.8974068278184859,N25N07,2023-01-24_10h46.47.289,t1_Paradigm,2021.1.4,60.00230986203826,
L,left,Distractor,0,59,59,59,1314.4963592162967,1316.4987575332343,left,1,2,0.7890263846929884,N25N07,2023-01-24_10h46.47.289,t1_Paradigm,2021.1.4,60.00230986203826,
K,left,Pretarget,0,60,60,60,1317.9963906549092,1319.997723267079,left,1,2,0.6338466809538659,N25N07,2023-01-24_10h46.47.289,t1_Paradigm,2021.1.4,60.00230986203826,
V,left,Pretarget,0,61,61,61,1321.4964140734664,1323.4988377337722,left,1,2,0.5569135110999923,N25N07,2023-01-24_10h46.47.289,t1_Paradigm,2021.1.4,60.00230986203826,
K,right,Target,0,62,62,62,1324.9965677376895,1326.9955591357138,right,1,2,0.6599737712240312,N25N07,2023-01-24_10h46.47.289,t1_Paradigm,2021.1.4,60.00230986203826,
V,right,Target,0,63,63,63,1328.4964352464012,1330.4981858637912,left,0,2,1.0616941048792796,N25N07,2023-01-24_10h46.47.289,t1_Paradigm,2021.1.4,60.00230986203826,
R,left,Distractor,0,0,0,0,1443.8554311484768,1445.8485031050368,None,0,3,,N25N07,2023-01-24_10h46.47.289,t1_Paradigm,2021.1.4,60.00230986203826,
P,left,Lure,0,1,1,1,1447.3465192644944,1449.3486067241465,None,0,3,,N25N07,2023-01-24_10h46.47.289,t1_Paradigm,2021.1.4,60.00230986203826,
V,left,Distractor,0,2,2,2,1450.8466206379671,1452.848497009807,None,0,3,,N25N07,2023-01-24_10h46.47.289,t1_Paradigm,2021.1.4,60.00230986203826,
P,left,Pretarget,0,3,3,3,1454.3464445175923,1456.34862148104,left,1,3,1.2275199490832165,N25N07,2023-01-24_10h46.47.289,t1_Paradigm,2021.1.4,60.00230986203826,
Z,left,Distractor,0,4,4,4,1457.8464461215917,1459.848339175136,left,1,3,1.0714869115909096,N25N07,2023-01-24_10h46.47.289,t1_Paradigm,2021.1.4,60.00230986203826,
L,left,Pretarget,0,5,5,5,1461.3464884674759,1463.3487854109408,left,1,3,1.091161387215834,N25N07,2023-01-24_10h46.47.289,t1_Paradigm,2021.1.4,60.00230986203826,
P,right,Target,0,6,6,6,1464.8465327381855,1466.84856213264,right,1,3,0.8552473288436886,N25N07,2023-01-24_10h46.47.289,t1_Paradigm,2021.1.4,60.00230986203826,
S,left,Distractor,0,7,7,7,1468.346501299573,1470.3487863733462,None,0,3,,N25N07,2023-01-24_10h46.47.289,t1_Paradigm,2021.1.4,60.00230986203826,
L,right,Target,0,8,8,8,1471.8464451591863,1473.848702002375,right,1,3,0.8155291342845885,N25N07,2023-01-24_10h46.47.289,t1_Paradigm,2021.1.4,60.00230986203826,
D,left,Distractor,0,9,9,9,1475.346452216836,1477.3477456911496,left,1,3,0.9001753504562657,N25N07,2023-01-24_10h46.47.289,t1_Paradigm,2021.1.4,60.00230986203826,
G,left,Distractor,0,10,10,10,1478.8464313646982,1480.8486583732883,left,1,3,0.7431532799091656,N25N07,2023-01-24_10h46.47.289,t1_Paradigm,2021.1.4,60.00230986203826,
M,left,Pretarget,0,11,11,11,1482.3464595952828,1484.345468637417,left,1,3,0.9104448691796279,N25N07,2023-01-24_10h46.47.289,t1_Paradigm,2021.1.4,60.00230986203826,
Y,left,Distractor,0,12,12,12,1485.8463200463448,1487.848575927128,left,1,3,0.719244857376907,N25N07,2023-01-24_10h46.47.289,t1_Paradigm,2021.1.4,60.00230986203826,
V,left,Distractor,0,13,13,13,1489.3464782018127,1491.347702703657,right,0,3,0.996255276404554,N25N07,2023-01-24_10h46.47.289,t1_Paradigm,2021.1.4,60.00230986203826,
M,right,Target,0,14,14,14,1492.846466973744,1494.8487847693323,right,1,3,0.9830658164137276,N25N07,2023-01-24_10h46.47.289,t1_Paradigm,2021.1.4,60.00230986203826,
S,left,Pretarget,0,15,15,15,1496.3465728384472,1498.3472606382857,left,1,3,1.4366046812647255,N25N07,2023-01-24_10h46.47.289,t1_Paradigm,2021.1.4,60.00230986203826,
Q,left,Distractor,0,16,16,16,1499.8464836554485,1501.848793430996,None,0,3,,N25N07,2023-01-24_10h46.47.289,t1_Paradigm,2021.1.4,60.00230986203826,
R,left,Pretarget,0,17,17,17,1503.3464310439012,1505.3485688694927,left,1,3,1.0754177004419034,N25N07,2023-01-24_10h46.47.289,t1_Paradigm,2021.1.4,60.00230986203826,
S,right,Target,0,18,18,18,1506.8464137205738,1508.8486452203942,right,1,3,0.935267898676102,N25N07,2023-01-24_10h46.47.289,t1_Paradigm,2021.1.4,60.00230986203826,
F,left,Distractor,0,19,19,19,1510.3465603271616,1512.3475682875578,None,0,3,,N25N07,2023-01-24_10h46.47.289,t1_Paradigm,2021.1.4,60.00230986203826,
R,right,Target,0,20,20,20,1513.846486542665,1515.8486984735646,None,0,3,,N25N07,2023-01-24_10h46.47.289,t1_Paradigm,2021.1.4,60.00230986203826,
P,left,Distractor,0,21,21,21,1517.3462247681018,1519.3486317467032,right,0,3,1.1232688713498646,N25N07,2023-01-24_10h46.47.289,t1_Paradigm,2021.1.4,60.00230986203826,
L,left,Distractor,0,22,22,22,1520.846498412342,1522.8486112153769,left,1,3,0.6633434770919848,N25N07,2023-01-24_10h46.47.289,t1_Paradigm,2021.1.4,60.00230986203826,
R,right,Target,0,23,23,23,1524.3464284774818,1526.3487055311998,None,0,3,,N25N07,2023-01-24_10h46.47.289,t1_Paradigm,2021.1.4,60.00230986203826,
H,left,Pretarget,0,24,24,24,1527.8464849386655,1529.848827115231,left,1,3,1.263146312077879,N25N07,2023-01-24_10h46.47.289,t1_Paradigm,2021.1.4,60.00230986203826,
G,left,Pretarget,0,25,25,25,1531.3464740313793,1533.3484110348218,left,1,3,1.0115434241015464,N25N07,2023-01-24_10h46.47.289,t1_Paradigm,2021.1.4,60.00230986203826,
T,left,Distractor,0,26,26,26,1534.8463768283254,1536.8478230044711,left,1,3,0.9040384500549408,N25N07,2023-01-24_10h46.47.289,t1_Paradigm,2021.1.4,60.00230986203826,
H,right,Target,0,27,27,27,1538.3462712844193,1540.3486493908276,left,0,3,1.1793524672539206,N25N07,2023-01-24_10h46.47.289,t1_Paradigm,2021.1.4,60.00230986203826,
G,right,Target,0,28,28,28,1541.8464509336336,1543.848587476008,right,1,3,0.7990726251155138,N25N07,2023-01-24_10h46.47.289,t1_Paradigm,2021.1.4,60.00230986203826,
D,left,Distractor,0,29,29,29,1545.3464746729878,1547.3485390348796,left,1,3,1.1394000871368917,N25N07,2023-01-24_10h46.47.289,t1_Paradigm,2021.1.4,60.00230986203826,
N,left,Pretarget,0,30,30,30,1548.8462930989626,1550.8488040174707,left,1,3,1.1750803448958322,N25N07,2023-01-24_10h46.47.289,t1_Paradigm,2021.1.4,60.00230986203826,
V,left,Distractor,0,31,31,31,1552.346468898555,1554.3486615813163,left,1,3,0.9872083346999716,N25N07,2023-01-24_10h46.47.289,t1_Paradigm,2021.1.4,60.00230986203826,
R,left,Distractor,0,32,32,32,1555.8464323271037,1557.8488858220226,right,0,3,1.0550595954118762,N25N07,2023-01-24_10h46.47.289,t1_Paradigm,2021.1.4,60.00230986203826,
N,right,Target,0,33,33,33,1559.3463809987588,1561.348869461115,left,0,3,0.8669315851002466,N25N07,2023-01-24_10h46.47.289,t1_Paradigm,2021.1.4,60.00230986203826,
Z,left,Distractor,0,34,34,34,1562.8464820514346,1564.846872146867,left,1,3,0.58490927395178,N25N07,2023-01-24_10h46.47.289,t1_Paradigm,2021.1.4,60.00230986203826,
N,left,Lure,0,35,35,35,1566.3465709136362,1568.3484501726925,left,1,3,0.8593722030054778,N25N07,2023-01-24_10h46.47.289,t1_Paradigm,2021.1.4,60.00230986203826,
Y,left,Pretarget,0,36,36,36,1569.8464579912834,1571.848698152753,left,1,3,0.8791326536156703,N25N07,2023-01-24_10h46.47.289,t1_Paradigm,2021.1.4,60.00230986203826,
Y,left,Lure,0,37,37,37,1573.3464441967808,1575.346482372246,left,1,3,0.7893953071761644,N25N07,2023-01-24_10h46.47.289,t1_Paradigm,2021.1.4,60.00230986203826,
B,left,Distractor,0,38,38,38,1576.8465237557248,1578.8481146136328,left,1,3,0.8395007548388094,N25N07,2023-01-24_10h46.47.289,t1_Paradigm,2021.1.4,60.00230986203826,
Y,right,Target,0,39,39,39,1580.3465904825716,1582.3484986138064,left,0,3,0.6673425968183437,N25N07,2023-01-24_10h46.47.289,t1_Paradigm,2021.1.4,60.00230986203826,
J,left,Distractor,0,40,40,40,1583.8464958459372,1585.8488197367697,left,1,3,0.975116659712512,N25N07,2023-01-24_10h46.47.289,t1_Paradigm,2021.1.4,60.00230986203826,
X,left,Distractor,0,41,41,41,1587.3464759562048,1589.348294583644,left,1,3,0.6756292374047916,N25N07,2023-01-24_10h46.47.289,t1_Paradigm,2021.1.4,60.00230986203826,
W,left,Pretarget,0,42,42,42,1590.846471144163,1592.8478926185344,left,1,3,0.5999587448313832,N25N07,2023-01-24_10h46.47.289,t1_Paradigm,2021.1.4,60.00230986203826,
S,left,Pretarget,0,43,43,43,1594.3464785226097,1596.3487366490153,left,1,3,0.8430975886585657,N25N07,2023-01-24_10h46.47.289,t1_Paradigm,2021.1.4,60.00230986203826,
R,left,Distractor,0,44,44,44,1597.846450612822,1599.8488152455393,left,1,3,1.2474725601932732,N25N07,2023-01-24_10h46.47.289,t1_Paradigm,2021.1.4,60.00230986203826,
W,right,Target,0,45,45,45,1601.3464820514346,1603.3486660725466,left,0,3,1.2353019678557757,N25N07,2023-01-24_10h46.47.289,t1_Paradigm,2021.1.4,60.00230986203826,
S,right,Target,0,46,46,46,1604.846545249471,1606.8483930699003,right,1,3,0.7913210825354327,N25N07,2023-01-24_10h46.47.289,t1_Paradigm,2021.1.4,60.00230986203826,
D,left,Distractor,0,47,47,47,1608.346466011324,1610.348640408367,None,0,3,,N25N07,2023-01-24_10h46.47.289,t1_Paradigm,2021.1.4,60.00230986203826,
T,left,Distractor,0,48,48,48,1611.8465141316556,1613.8487007191725,left,1,3,0.7830254595028237,N25N07,2023-01-24_10h46.47.289,t1_Paradigm,2021.1.4,60.00230986203826,
S,right,Target,0,49,49,49,1615.346578292083,1617.3478733704105,left,0,3,0.7081316289841197,N25N07,2023-01-24_10h46.47.289,t1_Paradigm,2021.1.4,60.00230986203826,
K,left,Distractor,0,50,50,50,1618.8465446078626,1620.8488171703502,left,1,3,0.7909030773153063,N25N07,2023-01-24_10h46.47.289,t1_Paradigm,2021.1.4,60.00230986203826,
S,left,Lure,0,51,51,51,1622.3465670640144,1624.3488707443175,left,1,3,0.7309544570016442,N25N07,2023-01-24_10h46.47.289,t1_Paradigm,2021.1.4,60.00230986203826,
T,left,Pretarget,0,52,52,52,1625.8465510239039,1627.84871708008,right,0,3,1.0392581642518053,N25N07,2023-01-24_10h46.47.289,t1_Paradigm,2021.1.4,60.00230986203826,
V,left,Distractor,0,53,53,53,1629.346547495079,1631.3486262930674,left,1,3,0.8832572069804883,N25N07,2023-01-24_10h46.47.289,t1_Paradigm,2021.1.4,60.00230986203826,
B,left,Distractor,0,54,54,54,1632.8464807682321,1634.8480886286561,left,1,3,0.6478307678771671,N25N07,2023-01-24_10h46.47.289,t1_Paradigm,2021.1.4,60.00230986203826,
T,right,Target,0,55,55,55,1636.3459132692078,1638.346127565048,left,0,3,0.7818984815094154,N25N07,2023-01-24_10h46.47.289,t1_Paradigm,2021.1.4,60.00230986203826,
Y,left,Pretarget,0,56,56,56,1639.846377149137,1641.8483539320441,left,1,3,0.6716362129227491,N25N07,2023-01-24_10h46.47.289,t1_Paradigm,2021.1.4,60.00230986203826,
T,left,Lure,0,57,57,57,1643.3465282469551,1645.3482557665848,right,0,3,0.8836181094084168,N25N07,2023-01-24_10h46.47.289,t1_Paradigm,2021.1.4,60.00230986203826,
P,left,Pretarget,0,58,58,58,1646.846484617854,1648.8453961361229,left,1,3,0.8744550373376114,N25N07,2023-01-24_10h46.47.289,t1_Paradigm,2021.1.4,60.00230986203826,
Y,right,Target,0,59,59,59,1650.3465670640144,1652.3487193257024,right,1,3,0.93926348957757,N25N07,2023-01-24_10h46.47.289,t1_Paradigm,2021.1.4,60.00230986203826,
R,left,Distractor,0,60,60,60,1653.8463550137822,1655.848934583948,left,1,3,0.6230372521822574,N25N07,2023-01-24_10h46.47.289,t1_Paradigm,2021.1.4,60.00230986203826,
P,right,Target,0,61,61,61,1657.3464705025544,1659.348950303247,left,0,3,0.642912549970788,N25N07,2023-01-24_10h46.47.289,t1_Paradigm,2021.1.4,60.00230986203826,
L,left,Distractor,0,62,62,62,1660.846530492563,1662.84904558149,left,1,3,0.8386435714783147,N25N07,2023-01-24_10h46.47.289,t1_Paradigm,2021.1.4,60.00230986203826,
V,left,Distractor,0,63,63,63,1664.3465025827754,1666.348464608789,left,1,3,0.875521704510902,N25N07,2023-01-24_10h46.47.289,t1_Paradigm,2021.1.4,60.00230986203826,
H,left,Lure,0,0,0,0,1723.7588992123056,1725.748756089626,None,0,3,,N25N07,2023-01-24_10h46.47.289,t1_Paradigm,2021.1.4,60.00230986203826,
B,left,Distractor,0,1,1,1,1727.2465537827957,1729.248620069513,None,0,3,,N25N07,2023-01-24_10h46.47.289,t1_Paradigm,2021.1.4,60.00230986203826,
T,left,Distractor,0,2,2,2,1730.7465204193722,1732.748678134696,None,0,3,,N25N07,2023-01-24_10h46.47.289,t1_Paradigm,2021.1.4,60.00230986203826,
R,left,Distractor,0,3,3,3,1734.2465111161146,1736.2485498138412,left,1,3,0.6714546388975577,N25N07,2023-01-24_10h46.47.289,t1_Paradigm,2021.1.4,60.00230986203826,
H,left,Pretarget,0,4,4,4,1737.763391725748,1739.7489049418218,left,1,3,1.3474062824534485,N25N07,2023-01-24_10h46.47.289,t1_Paradigm,2021.1.4,60.00230986203826,
K,left,Distractor,0,5,5,5,1741.2464767902857,1743.248633864001,left,1,3,0.8234170177747728,N25N07,2023-01-24_10h46.47.289,t1_Paradigm,2021.1.4,60.00230986203826,
G,left,Distractor,0,6,6,6,1744.7465492915653,1746.7485931221308,left,1,3,1.083340230587055,N25N07,2023-01-24_10h46.47.289,t1_Paradigm,2021.1.4,60.00230986203826,
H,right,Target,0,7,7,7,1748.2464973216265,1750.2487692425202,right,1,3,1.0553890592273092,N25N07,2023-01-24_10h46.47.289,t1_Paradigm,2021.1.4,60.00230986203826,
Y,left,Pretarget,0,8,8,8,1751.7465502539853,1753.7482819440338,left,1,3,0.5798418830381706,N25N07,2023-01-24_10h46.47.289,t1_Paradigm,2021.1.4,60.00230986203826,
S,left,Distractor,0,9,9,9,1755.2466044695466,1757.248713422945,left,1,3,0.5192346558760619,N25N07,2023-01-24_10h46.47.289,t1_Paradigm,2021.1.4,60.00230986203826,
P,left,Distractor,0,10,10,10,1758.7465364594827,1760.7486980244284,left,1,3,0.5233787781762658,N25N07,2023-01-24_10h46.47.289,t1_Paradigm,2021.1.4,60.00230986203826,
Y,right,Target,0,11,11,11,1762.2464087802218,1764.2485944053333,left,0,3,0.8634418992005521,N25N07,2023-01-24_10h46.47.289,t1_Paradigm,2021.1.4,60.00230986203826,
H,left,Lure,0,12,12,12,1765.7465560284181,1767.7487669968978,right,0,3,0.9314891700487351,N25N07,2023-01-24_10h46.47.289,t1_Paradigm,2021.1.4,60.00230986203826,
Q,left,Distractor,0,13,13,13,1769.2464973216265,1771.2485523802607,left,1,3,0.5514351726160385,N25N07,2023-01-24_10h46.47.289,t1_Paradigm,2021.1.4,60.00230986203826,
V,left,Pretarget,0,14,14,14,1772.7465829758003,1774.7488234580815,left,1,3,0.7632290790352272,N25N07,2023-01-24_10h46.47.289,t1_Paradigm,2021.1.4,60.00230986203826,
G,left,Distractor,0,15,15,15,1776.2465954870859,1778.2489527413563,left,1,3,0.6551033528230619,N25N07,2023-01-24_10h46.47.289,t1_Paradigm,2021.1.4,60.00230986203826,
Z,left,Pretarget,0,16,16,16,1779.7465480083629,1781.7479528010153,left,1,3,0.5483169756189454,N25N07,2023-01-24_10h46.47.289,t1_Paradigm,2021.1.4,60.00230986203826,
V,right,Target,0,17,17,17,1783.2466625347297,1785.248887297712,right,1,3,0.8870436348661315,N25N07,2023-01-24_10h46.47.289,t1_Paradigm,2021.1.4,60.00230986203826,
N,left,Distractor,0,18,18,18,1786.7462435671187,1788.748899167389,left,1,3,0.8273346537462203,N25N07,2023-01-24_10h46.47.289,t1_Paradigm,2021.1.4,60.00230986203826,
Z,right,Target,0,19,19,19,1790.2465467251604,1792.248398716023,left,0,3,1.0076578683510888,N25N07,2023-01-24_10h46.47.289,t1_Paradigm,2021.1.4,60.00230986203826,
R,left,Distractor,0,20,20,20,1793.7466699131764,1795.7487926610775,left,1,3,1.0752034046163317,N25N07,2023-01-24_10h46.47.289,t1_Paradigm,2021.1.4,60.00230986203826,
P,left,Distractor,0,21,21,21,1797.2465739933396,1799.245593301137,left,1,3,0.73075363485259,N25N07,2023-01-24_10h46.47.289,t1_Paradigm,2021.1.4,60.00230986203826,
Z,right,Target,0,22,22,22,1800.7465557076212,1802.7489097538637,right,1,3,0.6990250180679141,N25N07,2023-01-24_10h46.47.289,t1_Paradigm,2021.1.4,60.00230986203826,
D,left,Pretarget,0,23,23,23,1804.2462852713943,1806.2487669968978,left,1,3,0.5434247427037917,N25N07,2023-01-24_10h46.47.289,t1_Paradigm,2021.1.4,60.00230986203826,
K,left,Distractor,0,24,24,24,1807.7462416423077,1809.7484705757088,right,0,3,0.8833037232834613,N25N07,2023-01-24_10h46.47.289,t1_Paradigm,2021.1.4,60.00230986203826,
W,left,Distractor,0,25,25,25,1811.2465496123768,1813.2487846410222,left,1,3,0.5831461452762596,N25N07,2023-01-24_10h46.47.289,t1_Paradigm,2021.1.4,60.00230986203826,
D,right,Target,0,26,26,26,1814.7462426047132,1816.7484747461276,left,0,3,1.0834390376548981,N25N07,2023-01-24_10h46.47.289,t1_Paradigm,2021.1.4,60.00230986203826,
G,left,Pretarget,0,27,27,27,1818.2466445698083,1820.2486393176368,left,1,3,0.9915651488263393,N25N07,2023-01-24_10h46.47.289,t1_Paradigm,2021.1.4,60.00230986203826,
V,left,Distractor,0,28,28,28,1821.7466747252183,1823.7489055834303,left,1,3,0.7391756539436756,N25N07,2023-01-24_10h46.47.289,t1_Paradigm,2021.1.4,60.00230986203826,
D,right,Target,0,29,29,29,1825.246639436984,1827.2455410103867,left,0,3,0.6344485058070859,N25N07,2023-01-24_10h46.47.289,t1_Paradigm,2021.1.4,60.00230986203826,
G,right,Target,0,30,30,30,1828.7465499331738,1830.7483287811483,right,1,3,1.0676882932311855,N25N07,2023-01-24_10h46.47.289,t1_Paradigm,2021.1.4,60.00230986203826,
B,left,Pretarget,0,31,31,31,1832.2462833465834,1834.248838214975,left,1,3,0.6391633351449855,N25N07,2023-01-24_10h46.47.289,t1_Paradigm,2021.1.4,60.00230986203826,
N,left,Distractor,0,32,32,32,1835.7465396675107,1837.7488080595795,left,1,3,0.5953100007463945,N25N07,2023-01-24_10h46.47.289,t1_Paradigm,2021.1.4,60.00230986203826,
F,left,Distractor,0,33,33,33,1839.2465528203902,1841.24862039031,left,1,3,0.535444788984023,N25N07,2023-01-24_10h46.47.289,t1_Paradigm,2021.1.4,60.00230986203826,
B,right,Target,0,34,34,34,1842.7465496123768,1844.7483958288067,right,1,3,0.8117054933536565,N25N07,2023-01-24_10h46.47.289,t1_Paradigm,2021.1.4,60.00230986203826,
Q,left,Pretarget,0,35,35,35,1846.2466044695466,1848.2486665858305,left,1,3,0.5274478327482939,N25N07,2023-01-24_10h46.47.289,t1_Paradigm,2021.1.4,60.00230986203826,
S,left,Pretarget,0,36,36,36,1849.7466602891218,1851.7486688314384,left,1,3,0.4993231074331561,N25N07,2023-01-24_10h46.47.289,t1_Paradigm,2021.1.4,60.00230986203826,
W,left,Distractor,0,37,37,37,1853.2465233066032,1855.249099668741,left,1,3,0.82301793989609,N25N07,2023-01-24_10h46.47.289,t1_Paradigm,2021.1.4,60.00230986203826,
Q,right,Target,0,38,38,38,1856.746593562275,1858.7486303351761,right,1,3,0.8752124512393493,N25N07,2023-01-24_10h46.47.289,t1_Paradigm,2021.1.4,60.00230986203826,
S,right,Target,0,39,39,39,1860.2465723893256,1862.2455564088887,left,0,3,0.7064836682839086,N25N07,2023-01-24_10h46.47.289,t1_Paradigm,2021.1.4,60.00230986203826,
T,left,Distractor,0,40,40,40,1863.7465467251604,1865.7487945858884,left,1,3,0.5633571432699682,N25N07,2023-01-24_10h46.47.289,t1_Paradigm,2021.1.4,60.00230986203826,
G,left,Distractor,0,41,41,41,1867.2466025447357,1869.2485934429278,left,1,3,1.1915990896814037,N25N07,2023-01-24_10h46.47.289,t1_Paradigm,2021.1.4,60.00230986203826,
D,left,Distractor,0,42,42,42,1870.7464305947797,1872.7455464640225,right,0,3,1.1665271177334944,N25N07,2023-01-24_10h46.47.289,t1_Paradigm,2021.1.4,60.00230986203826,
S,left,Lure,0,43,43,43,1874.2465406299161,1876.2481558687869,right,0,3,0.8959134937613271,N25N07,2023-01-24_10h46.47.289,t1_Paradigm,2021.1.4,60.00230986203826,
Z,left,Pretarget,0,44,44,44,1877.746593562275,1879.748388771157,left,1,3,1.0117371886008186,N25N07,2023-01-24_10h46.47.289,t1_Paradigm,2021.1.4,60.00230986203826,
J,left,Distractor,0,45,45,45,1881.2465467251604,1883.2485581546935,left,1,3,0.8555501660739537,N25N07,2023-01-24_10h46.47.289,t1_Paradigm,2021.1.4,60.00230986203826,
M,left,Pretarget,0,46,46,46,1884.7465332514694,1886.748928039582,left,1,3,0.6670622157253092,N25N07,2023-01-24_10h46.47.289,t1_Paradigm,2021.1.4,60.00230986203826,
Z,right,Target,0,47,47,47,1888.246621151251,1890.2486136534717,right,1,3,0.9275320754095446,N25N07,2023-01-24_10h46.47.289,t1_Paradigm,2021.1.4,60.00230986203826,
P,left,Distractor,0,48,48,48,1891.7465470459574,1893.7484423451097,left,1,3,0.6439840291859582,N25N07,2023-01-24_10h46.47.289,t1_Paradigm,2021.1.4,60.00230986203826,
M,right,Target,0,49,49,49,1895.2466019031272,1897.249011448148,right,1,3,0.935108460005722,N25N07,2023-01-24_10h46.47.289,t1_Paradigm,2021.1.4,60.00230986203826,
K,left,Distractor,0,50,50,50,1898.746561161257,1900.748556871491,left,1,3,0.79559128008259,N25N07,2023-01-24_10h46.47.289,t1_Paradigm,2021.1.4,60.00230986203826,
Y,left,Distractor,0,51,51,51,1902.2466262840899,1904.2489877087792,left,1,3,0.8150039811589522,N25N07,2023-01-24_10h46.47.289,t1_Paradigm,2021.1.4,60.00230986203826,
X,left,Distractor,0,52,52,52,1905.7466881989094,1907.7486521497194,left,1,3,0.6276625777245499,N25N07,2023-01-24_10h46.47.289,t1_Paradigm,2021.1.4,60.00230986203826,
F,left,Pretarget,0,53,53,53,1909.246527477022,1911.248586064481,left,1,3,0.8235543211194454,N25N07,2023-01-24_10h46.47.289,t1_Paradigm,2021.1.4,60.00230986203826,
M,left,Lure,0,54,54,54,1912.7466525898635,1914.7491753780487,left,1,3,0.9708856000215746,N25N07,2023-01-24_10h46.47.289,t1_Paradigm,2021.1.4,60.00230986203826,
V,left,Distractor,0,55,55,55,1916.2465515371878,1918.2482713575591,left,1,3,0.7197437047434505,N25N07,2023-01-24_10h46.47.289,t1_Paradigm,2021.1.4,60.00230986203826,
F,right,Target,0,56,56,56,1919.7465871462337,1921.7485126007814,right,1,3,0.8034688979096245,N25N07,2023-01-24_10h46.47.289,t1_Paradigm,2021.1.4,60.00230986203826,
S,left,Distractor,0,57,57,57,1923.2465332514694,1925.2486884003738,None,0,3,,N25N07,2023-01-24_10h46.47.289,t1_Paradigm,2021.1.4,60.00230986203826,
D,left,Distractor,0,58,58,58,1926.7466288505093,1928.748372089438,left,1,3,0.5397563699953025,N25N07,2023-01-24_10h46.47.289,t1_Paradigm,2021.1.4,60.00230986203826,
F,right,Target,0,59,59,59,1930.2464909055852,1932.245511496585,left,0,3,0.6905507082265103,N25N07,2023-01-24_10h46.47.289,t1_Paradigm,2021.1.4,60.00230986203826,
V,left,Pretarget,0,60,60,60,1933.7466801788541,1935.7483977536176,left,1,3,1.0436602114787092,N25N07,2023-01-24_10h46.47.289,t1_Paradigm,2021.1.4,60.00230986203826,
J,left,Distractor,0,61,61,61,1937.2464366900094,1939.2473705450975,left,1,3,1.0808475977974012,N25N07,2023-01-24_10h46.47.289,t1_Paradigm,2021.1.4,60.00230986203826,
V,left,Lure,0,62,62,62,1940.7465820133948,1942.7488795984536,right,0,3,0.7952714403363643,N25N07,2023-01-24_10h46.47.289,t1_Paradigm,2021.1.4,60.00230986203826,
V,right,Target,0,63,63,63,1944.2466333417397,1946.2469178932515,left,0,3,0.6252315389574505,N25N07,2023-01-24_10h46.47.289,t1_Paradigm,2021.1.4,60.00230986203826,
R,left,Distractor,0,0,0,0,2049.974168368528,2051.965666469696,None,0,4,,N25N07,2023-01-24_10h46.47.289,t1_Paradigm,2021.1.4,60.00230986203826,
F,left,Distractor,0,1,1,1,2053.463335200402,2055.465341497111,None,0,4,,N25N07,2023-01-24_10h46.47.289,t1_Paradigm,2021.1.4,60.00230986203826,
P,left,Pretarget,0,2,2,2,2056.9632845136657,2058.9649934267654,None,0,4,,N25N07,2023-01-24_10h46.47.289,t1_Paradigm,2021.1.4,60.00230986203826,
H,left,Distractor,0,3,3,3,2060.463356373337,2062.4654329257173,None,0,4,,N25N07,2023-01-24_10h46.47.289,t1_Paradigm,2021.1.4,60.00230986203826,
Z,left,Distractor,0,4,4,4,2063.963237997348,2065.9655304495827,left,1,4,0.5705373372038594,N25N07,2023-01-24_10h46.47.289,t1_Paradigm,2021.1.4,60.00230986203826,
T,left,Distractor,0,5,5,5,2067.4630686138116,2069.4657623895328,left,1,4,1.3582814756664447,N25N07,2023-01-24_10h46.47.289,t1_Paradigm,2021.1.4,60.00230986203826,
P,right,Target,0,6,6,6,2070.963236714131,2072.965044113502,right,1,4,0.8830239837989211,N25N07,2023-01-24_10h46.47.289,t1_Paradigm,2021.1.4,60.00230986203826,
G,left,Distractor,0,7,7,7,2074.4632745687995,2076.4657216476626,left,1,4,0.6308542383922031,N25N07,2023-01-24_10h46.47.289,t1_Paradigm,2021.1.4,60.00230986203826,
L,left,Distractor,0,8,8,8,2077.9632989497622,2079.965796715376,left,1,4,0.6023166407248937,N25N07,2023-01-24_10h46.47.289,t1_Paradigm,2021.1.4,60.00230986203826,
P,left,Lure,0,9,9,9,2081.463362147784,2083.4657418582065,left,1,4,1.1983522959490074,N25N07,2023-01-24_10h46.47.289,t1_Paradigm,2021.1.4,60.00230986203826,
Q,left,Pretarget,0,10,10,10,2084.963334879605,2086.965481046049,left,1,4,0.8186123638297431,N25N07,2023-01-24_10h46.47.289,t1_Paradigm,2021.1.4,60.00230986203826,
D,left,Distractor,0,11,11,11,2088.4634705789067,2090.465683793009,left,1,4,0.7905540445790393,N25N07,2023-01-24_10h46.47.289,t1_Paradigm,2021.1.4,60.00230986203826,
M,left,Pretarget,0,12,12,12,2091.9632825888402,2093.965764955952,left,1,4,0.8904749347566394,N25N07,2023-01-24_10h46.47.289,t1_Paradigm,2021.1.4,60.00230986203826,
C,left,Distractor,0,13,13,13,2095.4633169146837,2097.4657765048323,left,1,4,0.8464788434212096,N25N07,2023-01-24_10h46.47.289,t1_Paradigm,2021.1.4,60.00230986203826,
Q,right,Target,0,14,14,14,2098.9633294259693,2100.965311983309,right,1,4,1.1388916157011408,N25N07,2023-01-24_10h46.47.289,t1_Paradigm,2021.1.4,60.00230986203826,
R,left,Distractor,0,15,15,15,2102.4632697567577,2104.465892635213,left,1,4,0.790345843983232,N25N07,2023-01-24_10h46.47.289,t1_Paradigm,2021.1.4,60.00230986203826,
M,right,Target,0,16,16,16,2105.9632254860626,2107.9649761034525,right,1,4,0.8114568716846406,N25N07,2023-01-24_10h46.47.289,t1_Paradigm,2021.1.4,60.00230986203826,
S,left,Distractor,0,17,17,17,2109.4633852455445,2111.465286639941,left,1,4,0.6389124678389635,N25N07,2023-01-24_10h46.47.289,t1_Paradigm,2021.1.4,60.00230986203826,
Z,left,Distractor,0,18,18,18,2112.963113526115,2114.9651563942607,left,1,4,0.5149987841723487,N25N07,2023-01-24_10h46.47.289,t1_Paradigm,2021.1.4,60.00230986203826,
L,left,Pretarget,0,19,19,19,2116.4632883632876,2118.4657713719935,left,1,4,0.9184405422129203,N25N07,2023-01-24_10h46.47.289,t1_Paradigm,2021.1.4,60.00230986203826,
M,right,Target,0,20,20,20,2119.9633785086917,2121.9654062991467,right,1,4,1.226765101600904,N25N07,2023-01-24_10h46.47.289,t1_Paradigm,2021.1.4,60.00230986203826,
P,left,Distractor,0,21,21,21,2123.4632617367024,2125.4641680028,left,1,4,0.7359288152802037,N25N07,2023-01-24_10h46.47.289,t1_Paradigm,2021.1.4,60.00230986203826,
F,left,Distractor,0,22,22,22,2126.963284192854,2128.9656603744515,left,1,4,0.9626567038358189,N25N07,2023-01-24_10h46.47.289,t1_Paradigm,2021.1.4,60.00230986203826,
L,right,Target,0,23,23,23,2130.4633736966643,2132.465788695321,right,1,4,1.446447212336352,N25N07,2023-01-24_10h46.47.289,t1_Paradigm,2021.1.4,60.00230986203826,
L,left,Lure,0,24,24,24,2133.963245696592,2135.9633432204573,left,1,4,0.6686752089735819,N25N07,2023-01-24_10h46.47.289,t1_Paradigm,2021.1.4,60.00230986203826,
V,left,Pretarget,0,25,25,25,2137.4631677416764,2139.4658303995966,left,1,4,0.6703825180884451,N25N07,2023-01-24_10h46.47.289,t1_Paradigm,2021.1.4,60.00230986203826,
Z,left,Distractor,0,26,26,26,2140.9633034409926,2142.965718760446,left,1,4,0.8024003059254028,N25N07,2023-01-24_10h46.47.289,t1_Paradigm,2021.1.4,60.00230986203826,
H,left,Distractor,0,27,27,27,2144.463328784361,2146.4655923643877,left,1,4,0.5825334131513955,N25N07,2023-01-24_10h46.47.289,t1_Paradigm,2021.1.4,60.00230986203826,
X,left,Distractor,0,28,28,28,2147.963367922217,2149.9651551110583,left,1,4,0.8269776009547058,N25N07,2023-01-24_10h46.47.289,t1_Paradigm,2021.1.4,60.00230986203826,
V,right,Target,0,29,29,29,2151.4634911102476,2153.4656023092684,right,1,4,0.9267210875550518,N25N07,2023-01-24_10h46.47.289,t1_Paradigm,2021.1.4,60.00230986203826,
C,left,Distractor,0,30,30,30,2154.96332685955,2156.9653524043824,left,1,4,0.5789000078948447,N25N07,2023-01-24_10h46.47.289,t1_Paradigm,2021.1.4,60.00230986203826,
S,left,Pretarget,0,31,31,31,2158.463303120181,2160.465447361814,left,1,4,0.7272119790141005,N25N07,2023-01-24_10h46.47.289,t1_Paradigm,2021.1.4,60.00230986203826,
D,left,Distractor,0,32,32,32,2161.9630612353503,2163.9656908506586,left,1,4,0.5705132770381169,N25N07,2023-01-24_10h46.47.289,t1_Paradigm,2021.1.4,60.00230986203826,
V,left,Distractor,0,33,33,33,2165.4633720926504,2167.4657848456845,left,1,4,0.8143286926060682,N25N07,2023-01-24_10h46.47.289,t1_Paradigm,2021.1.4,60.00230986203826,
R,left,Distractor,0,34,34,34,2168.963102618829,2170.9652645045862,left,1,4,0.5309327066206606,N25N07,2023-01-24_10h46.47.289,t1_Paradigm,2021.1.4,60.00230986203826,
S,right,Target,0,35,35,35,2172.46315330558,2174.465414319202,right,1,4,0.9666401042486541,N25N07,2023-01-24_10h46.47.289,t1_Paradigm,2021.1.4,60.00230986203826,
Y,left,Distractor,0,36,36,36,2175.9632521126478,2177.965783241685,left,1,4,0.554453920936794,N25N07,2023-01-24_10h46.47.289,t1_Paradigm,2021.1.4,60.00230986203826,
N,left,Pretarget,0,37,37,37,2179.463381395908,2181.4641051255894,left,1,4,1.008177567840903,N25N07,2023-01-24_10h46.47.289,t1_Paradigm,2021.1.4,60.00230986203826,
Z,left,Pretarget,0,38,38,38,2182.963146568727,2184.965196494537,left,1,4,0.8989296756772092,N25N07,2023-01-24_10h46.47.289,t1_Paradigm,2021.1.4,60.00230986203826,
P,left,Pretarget,0,39,39,39,2186.4633198019,2188.4653264194058,left,1,4,0.727341583071393,N25N07,2023-01-24_10h46.47.289,t1_Paradigm,2021.1.4,60.00230986203826,
M,left,Distractor,0,40,40,40,2189.96310550606,2191.9654711011826,left,1,4,0.7948726832401007,N25N07,2023-01-24_10h46.47.289,t1_Paradigm,2021.1.4,60.00230986203826,
N,right,Target,0,41,41,41,2193.4633772254892,2195.4657168356352,left,0,4,0.7503815941745415,N25N07,2023-01-24_10h46.47.289,t1_Paradigm,2021.1.4,60.00230986203826,
Z,right,Target,0,42,42,42,2196.9633169146837,2198.9641092960082,right,1,4,0.7558660278882599,N25N07,2023-01-24_10h46.47.289,t1_Paradigm,2021.1.4,60.00230986203826,
P,right,Target,0,43,43,43,2200.463262699108,2202.4648914116697,left,0,4,1.1592898210219573,N25N07,2023-01-24_10h46.47.289,t1_Paradigm,2021.1.4,60.00230986203826,
X,left,Pretarget,0,44,44,44,2203.963364072595,2205.965580815522,left,1,4,0.634663443241152,N25N07,2023-01-24_10h46.47.289,t1_Paradigm,2021.1.4,60.00230986203826,
Z,left,Lure,0,45,45,45,2207.4633345587936,2209.465723893285,left,1,4,0.9746094714937499,N25N07,2023-01-24_10h46.47.289,t1_Paradigm,2021.1.4,60.00230986203826,
R,left,Pretarget,0,46,46,46,2210.963738448714,2212.9656870010367,left,1,4,0.610773948035785,N25N07,2023-01-24_10h46.47.289,t1_Paradigm,2021.1.4,60.00230986203826,
K,left,Distractor,0,47,47,47,2214.463373055056,2216.465401166308,left,1,4,0.5987611903838115,N25N07,2023-01-24_10h46.47.289,t1_Paradigm,2021.1.4,60.00230986203826,
X,right,Target,0,48,48,48,2217.9634397819027,2219.9657197228516,left,0,4,1.0663803828210803,N25N07,2023-01-24_10h46.47.289,t1_Paradigm,2021.1.4,60.00230986203826,
B,left,Distractor,0,49,49,49,2221.463275852002,2223.4645510405826,left,1,4,0.591702259669546,N25N07,2023-01-24_10h46.47.289,t1_Paradigm,2021.1.4,60.00230986203826,
R,right,Target,0,50,50,50,2224.963331992374,2226.965455381869,right,1,4,0.6904980966792209,N25N07,2023-01-24_10h46.47.289,t1_Paradigm,2021.1.4,60.00230986203826,
Y,left,Pretarget,0,51,51,51,2228.463403210466,2230.465605838079,left,1,4,0.7266207406210015,N25N07,2023-01-24_10h46.47.289,t1_Paradigm,2021.1.4,60.00230986203826,
W,left,Pretarget,0,52,52,52,2231.963383320719,2233.962278478095,left,1,4,0.6538419587450335,N25N07,2023-01-24_10h46.47.289,t1_Paradigm,2021.1.4,60.00230986203826,
Z,left,Distractor,0,53,53,53,2235.4631407942943,2237.465472384385,left,1,4,1.0067840032716049,N25N07,2023-01-24_10h46.47.289,t1_Paradigm,2021.1.4,60.00230986203826,
Q,left,Distractor,0,54,54,54,2238.962479300244,2240.9657014371332,left,1,4,0.49845918723440263,N25N07,2023-01-24_10h46.47.289,t1_Paradigm,2021.1.4,60.00230986203826,
Y,right,Target,0,55,55,55,2242.463386528747,2244.4656889258476,right,1,4,0.7106656452378957,N25N07,2023-01-24_10h46.47.289,t1_Paradigm,2021.1.4,60.00230986203826,
W,right,Target,0,56,56,56,2245.9631276414,2247.9657809960627,right,1,4,0.8584563128388254,N25N07,2023-01-24_10h46.47.289,t1_Paradigm,2021.1.4,60.00230986203826,
H,left,Pretarget,0,57,57,57,2249.463390378369,2251.465354970802,left,1,4,0.5588931812235387,N25N07,2023-01-24_10h46.47.289,t1_Paradigm,2021.1.4,60.00230986203826,
M,left,Distractor,0,58,58,58,2252.963409947304,2254.9651217476203,left,1,4,0.738848756547668,N25N07,2023-01-24_10h46.47.289,t1_Paradigm,2021.1.4,60.00230986203826,
R,left,Pretarget,0,59,59,59,2256.4633361628075,2258.465722289271,left,1,4,0.8065720172016881,N25N07,2023-01-24_10h46.47.289,t1_Paradigm,2021.1.4,60.00230986203826,
J,left,Distractor,0,60,60,60,2259.9633156314667,2261.9646347699454,left,1,4,0.6355533484456828,N25N07,2023-01-24_10h46.47.289,t1_Paradigm,2021.1.4,60.00230986203826,
H,right,Target,0,61,61,61,2263.4634522931883,2265.4651393917447,right,1,4,0.6870180348632857,N25N07,2023-01-24_10h46.47.289,t1_Paradigm,2021.1.4,60.00230986203826,
Z,left,Distractor,0,62,62,62,2266.9634843734093,2268.964165436395,left,1,4,0.7397624010918662,N25N07,2023-01-24_10h46.47.289,t1_Paradigm,2021.1.4,60.00230986203826,
R,right,Target,0,63,63,63,2270.463359260568,2272.4759167402954,left,0,4,0.6045458949083695,N25N07,2023-01-24_10h46.47.289,t1_Paradigm,2021.1.4,60.00230986203826,
J,left,Pretarget,0,0,0,0,2307.208542255743,2309.199028226096,None,0,4,,N25N07,2023-01-24_10h46.47.289,t1_Paradigm,2021.1.4,60.00230986203826,
G,left,Pretarget,0,1,1,1,2310.696763042055,2312.6991684166424,None,0,4,,N25N07,2023-01-24_10h46.47.289,t1_Paradigm,2021.1.4,60.00230986203826,
Z,left,Distractor,0,2,2,2,2314.1967473227414,2316.1987975693482,None,0,4,,N25N07,2023-01-24_10h46.47.289,t1_Paradigm,2021.1.4,60.00230986203826,
F,left,Distractor,0,3,3,3,2317.6967248665896,2319.698555042909,None,0,4,,N25N07,2023-01-24_10h46.47.289,t1_Paradigm,2021.1.4,60.00230986203826,
J,right,Target,0,4,4,4,2321.1966757838672,2323.1993422914093,left,0,4,0.6328303797054105,N25N07,2023-01-24_10h46.47.289,t1_Paradigm,2021.1.4,60.00230986203826,
G,right,Target,0,5,5,5,2324.6965349517122,2326.698110731915,right,1,4,0.894192390187527,N25N07,2023-01-24_10h46.47.289,t1_Paradigm,2021.1.4,60.00230986203826,
H,left,Distractor,0,6,6,6,2328.196768495691,2330.198470992749,left,1,4,0.49761772315832786,N25N07,2023-01-24_10h46.47.289,t1_Paradigm,2021.1.4,60.00230986203826,
P,left,Distractor,0,7,7,7,2331.696757588419,2333.6987834540487,left,1,4,0.5015462664014194,N25N07,2023-01-24_10h46.47.289,t1_Paradigm,2021.1.4,60.00230986203826,
G,left,Lure,0,8,8,8,2335.19672935782,2337.1987202560267,right,0,4,0.8416478837025352,N25N07,2023-01-24_10h46.47.289,t1_Paradigm,2021.1.4,60.00230986203826,
S,left,Distractor,0,9,9,9,2338.696788064626,2340.698483504035,left,1,4,0.6537665702344384,N25N07,2023-01-24_10h46.47.289,t1_Paradigm,2021.1.4,60.00230986203826,
R,left,Pretarget,0,10,10,10,2342.196713959318,2344.198745599395,left,1,4,0.5456244831148069,N25N07,2023-01-24_10h46.47.289,t1_Paradigm,2021.1.4,60.00230986203826,
T,left,Pretarget,0,11,11,11,2345.6967624004465,2347.69680731275,left,1,4,0.5193761296250159,N25N07,2023-01-24_10h46.47.289,t1_Paradigm,2021.1.4,60.00230986203826,
X,left,Distractor,0,12,12,12,2349.1967521347833,2351.1991530181404,left,1,4,0.5049255963531323,N25N07,2023-01-24_10h46.47.289,t1_Paradigm,2021.1.4,60.00230986203826,
F,left,Pretarget,0,13,13,13,2352.696817257616,2354.699060306317,left,1,4,0.8133175241964636,N25N07,2023-01-24_10h46.47.289,t1_Paradigm,2021.1.4,60.00230986203826,
R,right,Target,0,14,14,14,2356.196677708678,2358.1991879855777,right,1,4,0.6249524410814047,N25N07,2023-01-24_10h46.47.289,t1_Paradigm,2021.1.4,60.00230986203826,
T,right,Target,0,15,15,15,2359.696730641037,2361.6991751534806,left,0,4,0.8051646581297973,N25N07,2023-01-24_10h46.47.289,t1_Paradigm,2021.1.4,60.00230986203826,
C,left,Distractor,0,16,16,16,2363.1967409067,2365.1991395444493,left,1,4,0.5850260459264973,N25N07,2023-01-24_10h46.47.289,t1_Paradigm,2021.1.4,60.00230986203826,
F,right,Target,0,17,17,17,2366.6967322450364,2368.69906351433,right,1,4,0.8453278052766109,N25N07,2023-01-24_10h46.47.289,t1_Paradigm,2021.1.4,60.00230986203826,
M,left,Distractor,0,18,18,18,2370.1967688164877,2372.198784416454,left,1,4,0.5776607491425239,N25N07,2023-01-24_10h46.47.289,t1_Paradigm,2021.1.4,60.00230986203826,
N,left,Distractor,0,19,19,19,2373.6967845358013,2375.6981450577587,left,1,4,0.7259990260499762,N25N07,2023-01-24_10h46.47.289,t1_Paradigm,2021.1.4,60.00230986203826,
R,left,Lure,0,20,20,20,2377.196528535671,2379.1989791433734,left,1,4,0.8092218430392677,N25N07,2023-01-24_10h46.47.289,t1_Paradigm,2021.1.4,60.00230986203826,
F,right,Target,0,21,21,21,2380.69677715734,2382.6985980304016,right,1,4,0.7178269118448952,N25N07,2023-01-24_10h46.47.289,t1_Paradigm,2021.1.4,60.00230986203826,
P,left,Distractor,0,22,22,22,2384.196757909216,2386.1987010078883,left,1,4,0.46534278031322174,N25N07,2023-01-24_10h46.47.289,t1_Paradigm,2021.1.4,60.00230986203826,
L,left,Pretarget,0,23,23,23,2387.6965484254033,2389.6974652779754,left,1,4,0.6948491363727953,N25N07,2023-01-24_10h46.47.289,t1_Paradigm,2021.1.4,60.00230986203826,
T,left,Distractor,0,24,24,24,2391.1968288064963,2393.198959895235,left,1,4,0.7294665765803074,N25N07,2023-01-24_10h46.47.289,t1_Paradigm,2021.1.4,60.00230986203826,
F,left,Distractor,0,25,25,25,2394.6967524555803,2396.6990198852436,right,0,4,0.445388565203757,N25N07,2023-01-24_10h46.47.289,t1_Paradigm,2021.1.4,60.00230986203826,
V,left,Distractor,0,26,26,26,2398.196788064626,2400.197521418362,left,1,4,0.5630527020257432,N25N07,2023-01-24_10h46.47.289,t1_Paradigm,2021.1.4,60.00230986203826,
L,right,Target,0,27,27,27,2401.696734811456,2403.698789549293,left,0,4,0.9334014717169339,N25N07,2023-01-24_10h46.47.289,t1_Paradigm,2021.1.4,60.00230986203826,
S,left,Pretarget,0,28,28,28,2405.1968390721595,2407.198564987775,left,1,4,0.71382009286026,N25N07,2023-01-24_10h46.47.289,t1_Paradigm,2021.1.4,60.00230986203826,
W,left,Distractor,0,29,29,29,2408.6966908615577,2410.6985043561726,left,1,4,0.57385186511965,N25N07,2023-01-24_10h46.47.289,t1_Paradigm,2021.1.4,60.00230986203826,
Q,left,Distractor,0,30,30,30,2412.1967126761156,2414.1990885369014,left,1,4,0.5614698641584255,N25N07,2023-01-24_10h46.47.289,t1_Paradigm,2021.1.4,60.00230986203826,
L,right,Target,0,31,31,31,2415.6967380194837,2417.709353885206,right,1,4,0.3948574130627094,N25N07,2023-01-24_10h46.47.289,t1_Paradigm,2021.1.4,60.00230986203826,
S,right,Target,0,32,32,32,2419.196774590935,2421.1980196241057,left,0,4,0.602211417601211,N25N07,2023-01-24_10h46.47.289,t1_Paradigm,2021.1.4,60.00230986203826,
Z,left,Pretarget,0,33,33,33,2422.6967704205017,2424.6984334588924,left,1,4,0.6378563871257938,N25N07,2023-01-24_10h46.47.289,t1_Paradigm,2021.1.4,60.00230986203826,
F,left,Distractor,0,34,34,34,2426.1967245457927,2428.199101368984,left,1,4,0.9132653617707547,N25N07,2023-01-24_10h46.47.289,t1_Paradigm,2021.1.4,60.00230986203826,
V,left,Distractor,0,35,35,35,2429.696830089699,2431.698338822258,left,1,4,0.7422665827471064,N25N07,2023-01-24_10h46.47.289,t1_Paradigm,2021.1.4,60.00230986203826,
M,left,Distractor,0,36,36,36,2433.1967854982067,2435.198862692181,left,1,4,0.7134755513397977,N25N07,2023-01-24_10h46.47.289,t1_Paradigm,2021.1.4,60.00230986203826,
Z,right,Target,0,37,37,37,2436.6968332977267,2438.6989894090366,right,1,4,0.5573879774892703,N25N07,2023-01-24_10h46.47.289,t1_Paradigm,2021.1.4,60.00230986203826,
H,left,Pretarget,0,38,38,38,2440.196708184885,2442.199016998027,left,1,4,0.5933922454423737,N25N07,2023-01-24_10h46.47.289,t1_Paradigm,2021.1.4,60.00230986203826,
L,left,Distractor,0,39,39,39,2443.6967470019445,2445.6988787322916,left,1,4,0.6615437769796699,N25N07,2023-01-24_10h46.47.289,t1_Paradigm,2021.1.4,60.00230986203826,
G,left,Distractor,0,40,40,40,2447.1967591924185,2449.198612145701,left,1,4,0.6335967760678614,N25N07,2023-01-24_10h46.47.289,t1_Paradigm,2021.1.4,60.00230986203826,
K,left,Distractor,0,41,41,41,2450.696705297669,2452.6990166772157,left,1,4,0.6053607323992765,N25N07,2023-01-24_10h46.47.289,t1_Paradigm,2021.1.4,60.00230986203826,
H,right,Target,0,42,42,42,2454.196696956802,2456.1987905116985,left,0,4,0.5136927985586226,N25N07,2023-01-24_10h46.47.289,t1_Paradigm,2021.1.4,60.00230986203826,
B,left,Distractor,0,43,43,43,2457.6967187713453,2459.7093670380855,left,1,4,0.7790439839009196,N25N07,2023-01-24_10h46.47.289,t1_Paradigm,2021.1.4,60.00230986203826,
Z,left,Distractor,0,44,44,44,2461.196763042055,2463.1990763464273,right,0,4,0.8414672720828094,N25N07,2023-01-24_10h46.47.289,t1_Paradigm,2021.1.4,60.00230986203826,
T,left,Pretarget,0,45,45,45,2464.69675951323,2466.699084045671,left,1,4,0.5251181674684631,N25N07,2023-01-24_10h46.47.289,t1_Paradigm,2021.1.4,60.00230986203826,
H,right,Target,0,46,46,46,2468.1967540595942,2470.1989377598948,right,1,4,1.0416353082546266,N25N07,2023-01-24_10h46.47.289,t1_Paradigm,2021.1.4,60.00230986203826,
F,left,Distractor,0,47,47,47,2471.696766891677,2473.699010581986,left,1,4,0.789401723217452,N25N07,2023-01-24_10h46.47.289,t1_Paradigm,2021.1.4,60.00230986203826,
R,left,Distractor,0,48,48,48,2475.1967075432767,2477.198864616992,left,1,4,0.5853686626360286,N25N07,2023-01-24_10h46.47.289,t1_Paradigm,2021.1.4,60.00230986203826,
T,right,Target,0,49,49,49,2478.6967354530643,2480.6985730078304,left,0,4,1.165659347883775,N25N07,2023-01-24_10h46.47.289,t1_Paradigm,2021.1.4,60.00230986203826,
H,right,Target,0,50,50,50,2482.196676425461,2484.198369298465,right,1,4,0.7699264657276217,N25N07,2023-01-24_10h46.47.289,t1_Paradigm,2021.1.4,60.00230986203826,
Y,left,Pretarget,0,51,51,51,2485.6967694580962,2487.698758752289,left,1,4,0.8216006359580206,N25N07,2023-01-24_10h46.47.289,t1_Paradigm,2021.1.4,60.00230986203826,
H,left,Distractor,0,52,52,52,2489.1968557538785,2491.198243864812,left,1,4,0.778244224115042,N25N07,2023-01-24_10h46.47.289,t1_Paradigm,2021.1.4,60.00230986203826,
S,left,Distractor,0,53,53,53,2492.6967656084744,2494.6990141107963,left,1,4,1.0531004566291813,N25N07,2023-01-24_10h46.47.289,t1_Paradigm,2021.1.4,60.00230986203826,
Q,left,Distractor,0,54,54,54,2496.1967624004465,2498.198606371254,left,1,4,0.4976488409738522,N25N07,2023-01-24_10h46.47.289,t1_Paradigm,2021.1.4,60.00230986203826,
Y,right,Target,0,55,55,55,2499.6967396234977,2501.698399774672,right,1,4,0.7579361642128788,N25N07,2023-01-24_10h46.47.289,t1_Paradigm,2021.1.4,60.00230986203826,
R,left,Distractor,0,56,56,56,2503.196786460612,2505.1987173688103,left,1,4,0.6816009695903631,N25N07,2023-01-24_10h46.47.289,t1_Paradigm,2021.1.4,60.00230986203826,
H,left,Pretarget,0,57,57,57,2506.696696956802,2508.698346521516,left,1,4,0.8460788031225093,N25N07,2023-01-24_10h46.47.289,t1_Paradigm,2021.1.4,60.00230986203826,
J,left,Distractor,0,58,58,58,2510.196740585903,2512.198854672126,left,1,4,0.8174613256996963,N25N07,2023-01-24_10h46.47.289,t1_Paradigm,2021.1.4,60.00230986203826,
V,left,Distractor,0,59,59,59,2513.6967967262754,2515.698707423944,left,1,4,0.6618052307458129,N25N07,2023-01-24_10h46.47.289,t1_Paradigm,2021.1.4,60.00230986203826,
Y,left,Lure,0,60,60,60,2517.196744435525,2519.1988861107384,left,1,4,0.8093761488707969,N25N07,2023-01-24_10h46.47.289,t1_Paradigm,2021.1.4,60.00230986203826,
H,right,Target,0,61,61,61,2520.6968698691635,2522.699220065784,right,1,4,0.8612838630797341,N25N07,2023-01-24_10h46.47.289,t1_Paradigm,2021.1.4,60.00230986203826,
L,left,Distractor,0,62,62,62,2524.1967569468106,2526.198542852435,left,1,4,0.4018525041465182,N25N07,2023-01-24_10h46.47.289,t1_Paradigm,2021.1.4,60.00230986203826,
P,left,Distractor,0,63,63,63,2527.6968541498645,2529.698919474162,left,1,4,0.4533839174255263,N25N07,2023-01-24_10h46.47.289,t1_Paradigm,2021.1.4,60.00230986203826,
