Letter,CorrAnswer,Stimulus,nback_run.thisRepN,nback_run.thisTrialN,nback_run.thisN,nback_run.thisIndex,fixcross.started,nback_trial.started,trial_resp.keys,trial_resp.corr,currentlevel,trial_resp.rt,Participant,date,expName,psychopyVersion,frameRate
H,left,Distractor,0,0,0,0,249.5766777,251.5116533,None,0,1,,O27K03,2023-01-20_16h11.12.936,t1_Paradigm,04.01.2021,60.02343413
Q,left,Pretarget,0,1,1,1,253.0148958,255.0118546,None,0,1,,O27K03,2023-01-20_16h11.12.936,t1_Paradigm,04.01.2021,60.02343413
Q,right,Target,0,2,2,2,256.510047,258.5098825,right,1,1,1.246667747,O27K03,2023-01-20_16h11.12.936,t1_Paradigm,04.01.2021,60.02343413
T,left,Distractor,0,3,3,3,260.0102131,262.0118629,left,1,1,1.328501196,O27K03,2023-01-20_16h11.12.936,t1_Paradigm,04.01.2021,60.02343413
Q,left,Lure,0,4,4,4,263.5098979,265.5102225,None,0,1,,O27K03,2023-01-20_16h11.12.936,t1_Paradigm,04.01.2021,60.02343413
L,left,Distractor,0,5,5,5,267.009805,269.0116477,left,1,1,1.048546686,O27K03,2023-01-20_16h11.12.936,t1_Paradigm,04.01.2021,60.02343413
V,left,Pretarget,0,6,6,6,270.5100727,272.5117726,left,1,1,0.924391719,O27K03,2023-01-20_16h11.12.936,t1_Paradigm,04.01.2021,60.02343413
V,right,Target,0,7,7,7,274.009804,276.0100485,right,1,1,0.786122094,O27K03,2023-01-20_16h11.12.936,t1_Paradigm,04.01.2021,60.02343413
K,left,Distractor,0,8,8,8,277.5101311,279.5121961,left,1,1,0.547980951,O27K03,2023-01-20_16h11.12.936,t1_Paradigm,04.01.2021,60.02343413
G,left,Pretarget,0,9,9,9,281.0101383,283.0092019,left,1,1,0.715136253,O27K03,2023-01-20_16h11.12.936,t1_Paradigm,04.01.2021,60.02343413
G,right,Target,0,10,10,10,284.5098568,286.5101099,right,1,1,1.150139308,O27K03,2023-01-20_16h11.12.936,t1_Paradigm,04.01.2021,60.02343413
G,right,Target,0,11,11,11,288.0101248,290.0101787,right,1,1,0.769990873,O27K03,2023-01-20_16h11.12.936,t1_Paradigm,04.01.2021,60.02343413
P,left,Pretarget,0,12,12,12,291.5102023,293.5116331,left,1,1,0.78859163,O27K03,2023-01-20_16h11.12.936,t1_Paradigm,04.01.2021,60.02343413
P,right,Target,0,13,13,13,295.0100661,297.0101335,right,1,1,0.825967018,O27K03,2023-01-20_16h11.12.936,t1_Paradigm,04.01.2021,60.02343413
G,left,Lure,0,14,14,14,298.5101125,300.5117329,left,1,1,1.276474126,O27K03,2023-01-20_16h11.12.936,t1_Paradigm,04.01.2021,60.02343413
Y,left,Distractor,0,15,15,15,302.0101293,304.0115049,left,1,1,0.768696757,O27K03,2023-01-20_16h11.12.936,t1_Paradigm,04.01.2021,60.02343413
B,left,Distractor,0,16,16,16,305.509885,307.511645,left,1,1,0.900548732,O27K03,2023-01-20_16h11.12.936,t1_Paradigm,04.01.2021,60.02343413
T,left,Pretarget,0,17,17,17,309.0100979,311.0119435,left,1,1,0.712394677,O27K03,2023-01-20_16h11.12.936,t1_Paradigm,04.01.2021,60.02343413
T,right,Target,0,18,18,18,312.5103258,314.510218,right,1,1,0.701966037,O27K03,2023-01-20_16h11.12.936,t1_Paradigm,04.01.2021,60.02343413
S,left,Distractor,0,19,19,19,316.0101422,318.0125347,left,1,1,0.864162698,O27K03,2023-01-20_16h11.12.936,t1_Paradigm,04.01.2021,60.02343413
T,left,Lure,0,20,20,20,319.5101038,321.5114518,left,1,1,1.028892093,O27K03,2023-01-20_16h11.12.936,t1_Paradigm,04.01.2021,60.02343413
J,left,Distractor,0,21,21,21,323.0100793,325.0115078,left,1,1,0.696895115,O27K03,2023-01-20_16h11.12.936,t1_Paradigm,04.01.2021,60.02343413
P,left,Distractor,0,22,22,22,326.5101401,328.5101641,left,1,1,0.686046545,O27K03,2023-01-20_16h11.12.936,t1_Paradigm,04.01.2021,60.02343413
F,left,Distractor,0,23,23,23,330.0102054,332.0116608,left,1,1,0.912747238,O27K03,2023-01-20_16h11.12.936,t1_Paradigm,04.01.2021,60.02343413
L,left,Distractor,0,24,24,24,333.5102812,335.512259,left,1,1,0.755985609,O27K03,2023-01-20_16h11.12.936,t1_Paradigm,04.01.2021,60.02343413
W,left,Pretarget,0,25,25,25,337.0102538,339.0115142,left,1,1,0.696895115,O27K03,2023-01-20_16h11.12.936,t1_Paradigm,04.01.2021,60.02343413
W,right,Target,0,26,26,26,340.5103361,342.5102838,right,1,1,0.653955732,O27K03,2023-01-20_16h11.12.936,t1_Paradigm,04.01.2021,60.02343413
V,left,Distractor,0,27,27,27,344.0101017,346.0121898,left,1,1,0.656148095,O27K03,2023-01-20_16h11.12.936,t1_Paradigm,04.01.2021,60.02343413
W,left,Lure,0,28,28,28,347.5101734,349.5099925,left,1,1,0.854289046,O27K03,2023-01-20_16h11.12.936,t1_Paradigm,04.01.2021,60.02343413
R,left,Pretarget,0,29,29,29,351.0101313,353.0133839,left,1,1,0.695040237,O27K03,2023-01-20_16h11.12.936,t1_Paradigm,04.01.2021,60.02343413
R,right,Target,0,30,30,30,354.5101911,356.5101064,left,0,1,1.070218482,O27K03,2023-01-20_16h11.12.936,t1_Paradigm,04.01.2021,60.02343413
G,left,Distractor,0,31,31,31,358.0101008,360.0119274,left,1,1,0.672448379,O27K03,2023-01-20_16h11.12.936,t1_Paradigm,04.01.2021,60.02343413
R,left,Lure,0,32,32,32,361.5101471,363.5117819,left,1,1,0.54849648,O27K03,2023-01-20_16h11.12.936,t1_Paradigm,04.01.2021,60.02343413
S,left,Distractor,0,33,33,33,365.010222,367.0118751,left,1,1,0.552391019,O27K03,2023-01-20_16h11.12.936,t1_Paradigm,04.01.2021,60.02343413
R,left,Lure,0,34,34,34,368.5102986,370.5123562,left,1,1,0.971686955,O27K03,2023-01-20_16h11.12.936,t1_Paradigm,04.01.2021,60.02343413
P,left,Pretarget,0,35,35,35,372.0101345,374.0123531,left,1,1,0.703873848,O27K03,2023-01-20_16h11.12.936,t1_Paradigm,04.01.2021,60.02343413
P,right,Target,0,36,36,36,375.5099505,377.509887,right,1,1,0.758408307,O27K03,2023-01-20_16h11.12.936,t1_Paradigm,04.01.2021,60.02343413
Y,left,Pretarget,0,37,37,37,379.0100956,381.0231898,left,1,1,0.621045591,O27K03,2023-01-20_16h11.12.936,t1_Paradigm,04.01.2021,60.02343413
Y,right,Target,0,38,38,38,382.5102681,384.5101882,right,1,1,0.718063253,O27K03,2023-01-20_16h11.12.936,t1_Paradigm,04.01.2021,60.02343413
J,left,Distractor,0,39,39,39,386.0101252,388.0122806,left,1,1,0.672103196,O27K03,2023-01-20_16h11.12.936,t1_Paradigm,04.01.2021,60.02343413
Y,left,Lure,0,40,40,40,389.5100127,391.5103524,left,1,1,0.54985187,O27K03,2023-01-20_16h11.12.936,t1_Paradigm,04.01.2021,60.02343413
T,left,Distractor,0,41,41,41,393.0099269,395.0115319,left,1,1,0.712893203,O27K03,2023-01-20_16h11.12.936,t1_Paradigm,04.01.2021,60.02343413
V,left,Distractor,0,42,42,42,396.5099354,398.511353,left,1,1,0.813074617,O27K03,2023-01-20_16h11.12.936,t1_Paradigm,04.01.2021,60.02343413
N,left,Pretarget,0,43,43,43,400.0102766,402.0129383,left,1,1,0.575344742,O27K03,2023-01-20_16h11.12.936,t1_Paradigm,04.01.2021,60.02343413
N,right,Target,0,44,44,44,403.5102928,405.5102848,right,1,1,0.550178125,O27K03,2023-01-20_16h11.12.936,t1_Paradigm,04.01.2021,60.02343413
N,right,Target,0,45,45,45,407.0101524,409.0101621,right,1,1,0.666194018,O27K03,2023-01-20_16h11.12.936,t1_Paradigm,04.01.2021,60.02343413
X,left,Distractor,0,46,46,46,410.510184,412.5116347,left,1,1,0.700503178,O27K03,2023-01-20_16h11.12.936,t1_Paradigm,04.01.2021,60.02343413
Z,left,Distractor,0,47,47,47,414.0102426,416.0120894,left,1,1,1.216162339,O27K03,2023-01-20_16h11.12.936,t1_Paradigm,04.01.2021,60.02343413
H,left,Pretarget,0,48,48,48,417.5101629,419.5228875,left,1,1,0.729503382,O27K03,2023-01-20_16h11.12.936,t1_Paradigm,04.01.2021,60.02343413
H,right,Target,0,49,49,49,421.0102092,423.0100411,right,1,1,0.682411214,O27K03,2023-01-20_16h11.12.936,t1_Paradigm,04.01.2021,60.02343413
K,left,Distractor,0,50,50,50,424.510201,426.5119866,left,1,1,0.796572549,O27K03,2023-01-20_16h11.12.936,t1_Paradigm,04.01.2021,60.02343413
V,left,Pretarget,0,51,51,51,428.0102227,430.0121029,left,1,1,0.640289556,O27K03,2023-01-20_16h11.12.936,t1_Paradigm,04.01.2021,60.02343413
V,right,Target,0,52,52,52,431.5101596,433.5101792,right,1,1,0.774231237,O27K03,2023-01-20_16h11.12.936,t1_Paradigm,04.01.2021,60.02343413
R,left,Distractor,0,53,53,53,435.0103411,437.0116438,left,1,1,0.712810757,O27K03,2023-01-20_16h11.12.936,t1_Paradigm,04.01.2021,60.02343413
V,left,Lure,0,54,54,54,438.51016,440.522873,left,1,1,1.04140274,O27K03,2023-01-20_16h11.12.936,t1_Paradigm,04.01.2021,60.02343413
Y,left,Distractor,0,55,55,55,442.0102204,444.012083,left,1,1,0.76823801,O27K03,2023-01-20_16h11.12.936,t1_Paradigm,04.01.2021,60.02343413
Q,left,Distractor,0,56,56,56,445.5103579,447.5124563,left,1,1,0.771924348,O27K03,2023-01-20_16h11.12.936,t1_Paradigm,04.01.2021,60.02343413
Z,left,Pretarget,0,57,57,57,449.0099927,451.0118049,left,1,1,0.648515568,O27K03,2023-01-20_16h11.12.936,t1_Paradigm,04.01.2021,60.02343413
Z,right,Target,0,58,58,58,452.5101699,454.5102411,right,1,1,0.654059993,O27K03,2023-01-20_16h11.12.936,t1_Paradigm,04.01.2021,60.02343413
B,left,Distractor,0,59,59,59,456.0101768,458.0120904,left,1,1,0.656347313,O27K03,2023-01-20_16h11.12.936,t1_Paradigm,04.01.2021,60.02343413
S,left,Pretarget,0,60,60,60,459.5103399,461.5112902,left,1,1,0.709096829,O27K03,2023-01-20_16h11.12.936,t1_Paradigm,04.01.2021,60.02343413
S,right,Target,0,61,61,61,463.0102326,465.0101226,right,1,1,0.634157742,O27K03,2023-01-20_16h11.12.936,t1_Paradigm,04.01.2021,60.02343413
T,left,Distractor,0,62,62,62,466.5100172,468.5118791,left,1,1,0.74840441,O27K03,2023-01-20_16h11.12.936,t1_Paradigm,04.01.2021,60.02343413
D,left,Distractor,0,63,63,63,470.0102147,472.0126797,left,1,1,0.527802168,O27K03,2023-01-20_16h11.12.936,t1_Paradigm,04.01.2021,60.02343413
R,left,Distractor,0,0,0,0,484.353663,486.3453504,None,0,1,,O27K03,2023-01-20_16h11.12.936,t1_Paradigm,04.01.2021,60.02343413
V,left,Distractor,0,1,1,1,487.8435508,489.845774,left,1,1,0.710747357,O27K03,2023-01-20_16h11.12.936,t1_Paradigm,04.01.2021,60.02343413
N,left,Pretarget,0,2,2,2,491.3427015,493.3456619,left,1,1,0.858834814,O27K03,2023-01-20_16h11.12.936,t1_Paradigm,04.01.2021,60.02343413
N,right,Target,0,3,3,3,494.8434912,496.8436047,right,1,1,0.688730698,O27K03,2023-01-20_16h11.12.936,t1_Paradigm,04.01.2021,60.02343413
S,left,Distractor,0,4,4,4,498.3433592,500.3451191,left,1,1,0.899215799,O27K03,2023-01-20_16h11.12.936,t1_Paradigm,04.01.2021,60.02343413
N,left,Lure,0,5,5,5,501.8436535,503.8449062,left,1,1,1.047546424,O27K03,2023-01-20_16h11.12.936,t1_Paradigm,04.01.2021,60.02343413
Z,left,Distractor,0,6,6,6,505.343559,507.3451277,left,1,1,0.747372068,O27K03,2023-01-20_16h11.12.936,t1_Paradigm,04.01.2021,60.02343413
L,left,Pretarget,0,7,7,7,508.8433651,510.8442678,left,1,1,0.640167972,O27K03,2023-01-20_16h11.12.936,t1_Paradigm,04.01.2021,60.02343413
L,right,Target,0,8,8,8,512.3436546,514.3436164,right,1,1,0.628745166,O27K03,2023-01-20_16h11.12.936,t1_Paradigm,04.01.2021,60.02343413
H,left,Distractor,0,9,9,9,515.8436092,517.8460576,left,1,1,0.806442672,O27K03,2023-01-20_16h11.12.936,t1_Paradigm,04.01.2021,60.02343413
L,left,Lure,0,10,10,10,519.343645,521.3451399,left,1,1,0.683240809,O27K03,2023-01-20_16h11.12.936,t1_Paradigm,04.01.2021,60.02343413
X,left,Pretarget,0,11,11,11,522.8434405,524.8438412,left,1,1,0.704488184,O27K03,2023-01-20_16h11.12.936,t1_Paradigm,04.01.2021,60.02343413
X,right,Target,0,12,12,12,526.3435815,528.3436103,right,1,1,0.708859756,O27K03,2023-01-20_16h11.12.936,t1_Paradigm,04.01.2021,60.02343413
X,right,Target,0,13,13,13,529.843589,531.8436612,right,1,1,0.728888083,O27K03,2023-01-20_16h11.12.936,t1_Paradigm,04.01.2021,60.02343413
R,left,Distractor,0,14,14,14,533.3433781,535.3433251,left,1,1,0.73335718,O27K03,2023-01-20_16h11.12.936,t1_Paradigm,04.01.2021,60.02343413
T,left,Distractor,0,15,15,15,536.8435649,538.8457496,left,1,1,0.862826557,O27K03,2023-01-20_16h11.12.936,t1_Paradigm,04.01.2021,60.02343413
V,left,Pretarget,0,16,16,16,540.3437233,542.3435597,left,1,1,0.692928075,O27K03,2023-01-20_16h11.12.936,t1_Paradigm,04.01.2021,60.02343413
V,right,Target,0,17,17,17,543.8428585,545.8436554,right,1,1,0.584742003,O27K03,2023-01-20_16h11.12.936,t1_Paradigm,04.01.2021,60.02343413
N,left,Distractor,0,18,18,18,547.3434214,549.3453998,left,1,1,0.875122907,O27K03,2023-01-20_16h11.12.936,t1_Paradigm,04.01.2021,60.02343413
B,left,Distractor,0,19,19,19,550.8436346,552.8455526,left,1,1,0.654605357,O27K03,2023-01-20_16h11.12.936,t1_Paradigm,04.01.2021,60.02343413
V,left,Lure,0,20,20,20,554.3436424,556.3450527,left,1,1,0.659539617,O27K03,2023-01-20_16h11.12.936,t1_Paradigm,04.01.2021,60.02343413
P,left,Distractor,0,21,21,21,557.843759,559.8455257,left,1,1,0.790936374,O27K03,2023-01-20_16h11.12.936,t1_Paradigm,04.01.2021,60.02343413
K,left,Pretarget,0,22,22,22,561.3431712,563.3451287,left,1,1,0.571335355,O27K03,2023-01-20_16h11.12.936,t1_Paradigm,04.01.2021,60.02343413
K,right,Target,0,23,23,23,564.8437099,566.8436474,right,1,1,0.67252473,O27K03,2023-01-20_16h11.12.936,t1_Paradigm,04.01.2021,60.02343413
J,left,Pretarget,0,24,24,24,568.3435866,570.3454643,left,1,1,0.674966677,O27K03,2023-01-20_16h11.12.936,t1_Paradigm,04.01.2021,60.02343413
J,right,Target,0,25,25,25,571.8437257,573.8437318,right,1,1,0.456724577,O27K03,2023-01-20_16h11.12.936,t1_Paradigm,04.01.2021,60.02343413
H,left,Distractor,0,26,26,26,575.3437528,577.3455769,left,1,1,0.666838189,O27K03,2023-01-20_16h11.12.936,t1_Paradigm,04.01.2021,60.02343413
J,left,Lure,0,27,27,27,578.8437741,580.8437731,left,1,1,0.912801775,O27K03,2023-01-20_16h11.12.936,t1_Paradigm,04.01.2021,60.02343413
V,left,Distractor,0,28,28,28,582.3436386,584.3444393,left,1,1,1.075976241,O27K03,2023-01-20_16h11.12.936,t1_Paradigm,04.01.2021,60.02343413
Z,left,Pretarget,0,29,29,29,585.8439756,587.8432926,left,1,1,0.697371186,O27K03,2023-01-20_16h11.12.936,t1_Paradigm,04.01.2021,60.02343413
Z,right,Target,0,30,30,30,589.3433556,591.3435529,None,0,1,,O27K03,2023-01-20_16h11.12.936,t1_Paradigm,04.01.2021,60.02343413
T,left,Distractor,0,31,31,31,592.8436115,594.846302,left,1,1,0.653880986,O27K03,2023-01-20_16h11.12.936,t1_Paradigm,04.01.2021,60.02343413
Z,left,Lure,0,32,32,32,596.3433669,598.3438089,left,1,1,0.916625096,O27K03,2023-01-20_16h11.12.936,t1_Paradigm,04.01.2021,60.02343413
F,left,Distractor,0,33,33,33,599.8434251,601.8457733,left,1,1,0.742905538,O27K03,2023-01-20_16h11.12.936,t1_Paradigm,04.01.2021,60.02343413
Y,left,Pretarget,0,34,34,34,603.343569,605.3457681,left,1,1,0.7788309,O27K03,2023-01-20_16h11.12.936,t1_Paradigm,04.01.2021,60.02343413
Y,right,Target,0,35,35,35,606.8600824,608.8436413,right,1,1,1.136715338,O27K03,2023-01-20_16h11.12.936,t1_Paradigm,04.01.2021,60.02343413
Y,right,Target,0,36,36,36,610.3431782,612.3437091,right,1,1,0.533190042,O27K03,2023-01-20_16h11.12.936,t1_Paradigm,04.01.2021,60.02343413
W,left,Distractor,0,37,37,37,613.8437552,615.8444504,left,1,1,0.743883343,O27K03,2023-01-20_16h11.12.936,t1_Paradigm,04.01.2021,60.02343413
Q,left,Distractor,0,38,38,38,617.3437197,619.3451495,left,1,1,0.603306509,O27K03,2023-01-20_16h11.12.936,t1_Paradigm,04.01.2021,60.02343413
P,left,Pretarget,0,39,39,39,620.8437934,622.8447683,left,1,1,0.527695982,O27K03,2023-01-20_16h11.12.936,t1_Paradigm,04.01.2021,60.02343413
P,right,Target,0,40,40,40,624.3436366,626.3434756,right,1,1,0.645006633,O27K03,2023-01-20_16h11.12.936,t1_Paradigm,04.01.2021,60.02343413
J,left,Distractor,0,41,41,41,627.8439801,629.8446627,left,1,1,0.663919209,O27K03,2023-01-20_16h11.12.936,t1_Paradigm,04.01.2021,60.02343413
P,left,Lure,0,42,42,42,631.3436877,633.3450735,left,1,1,0.923497643,O27K03,2023-01-20_16h11.12.936,t1_Paradigm,04.01.2021,60.02343413
L,left,Distractor,0,43,43,43,634.8437539,636.845058,left,1,1,0.847473923,O27K03,2023-01-20_16h11.12.936,t1_Paradigm,04.01.2021,60.02343413
Z,left,Distractor,0,44,44,44,638.343251,640.3453744,left,1,1,0.611159748,O27K03,2023-01-20_16h11.12.936,t1_Paradigm,04.01.2021,60.02343413
F,left,Pretarget,0,45,45,45,641.8436878,643.8450394,left,1,1,0.599382135,O27K03,2023-01-20_16h11.12.936,t1_Paradigm,04.01.2021,60.02343413
F,right,Target,0,46,46,46,645.343577,647.3434554,right,1,1,0.684968008,O27K03,2023-01-20_16h11.12.936,t1_Paradigm,04.01.2021,60.02343413
G,left,Pretarget,0,47,47,47,648.8438107,650.8427071,left,1,1,0.609924018,O27K03,2023-01-20_16h11.12.936,t1_Paradigm,04.01.2021,60.02343413
G,right,Target,0,48,48,48,652.3434015,654.3438269,right,1,1,0.613000512,O27K03,2023-01-20_16h11.12.936,t1_Paradigm,04.01.2021,60.02343413
V,left,Distractor,0,49,49,49,655.8436067,657.8450689,left,1,1,0.599376681,O27K03,2023-01-20_16h11.12.936,t1_Paradigm,04.01.2021,60.02343413
G,left,Lure,0,50,50,50,659.3433832,661.3427625,None,0,1,,O27K03,2023-01-20_16h11.12.936,t1_Paradigm,04.01.2021,60.02343413
Q,left,Pretarget,0,51,51,51,662.8437728,664.845859,left,1,1,1.390771481,O27K03,2023-01-20_16h11.12.936,t1_Paradigm,04.01.2021,60.02343413
Q,right,Target,0,52,52,52,666.3436937,668.3437858,right,1,1,0.564873756,O27K03,2023-01-20_16h11.12.936,t1_Paradigm,04.01.2021,60.02343413
Y,left,Distractor,0,53,53,53,669.8439028,671.8428598,left,1,1,0.649683609,O27K03,2023-01-20_16h11.12.936,t1_Paradigm,04.01.2021,60.02343413
V,left,Distractor,0,54,54,54,673.3436508,675.3445493,left,1,1,0.651921525,O27K03,2023-01-20_16h11.12.936,t1_Paradigm,04.01.2021,60.02343413
B,left,Distractor,0,55,55,55,676.843478,678.8440394,left,1,1,0.672265842,O27K03,2023-01-20_16h11.12.936,t1_Paradigm,04.01.2021,60.02343413
J,left,Pretarget,0,56,56,56,680.3438465,682.3455977,left,1,1,0.675000682,O27K03,2023-01-20_16h11.12.936,t1_Paradigm,04.01.2021,60.02343413
J,right,Target,0,57,57,57,683.8435848,685.8437186,right,1,1,0.552722408,O27K03,2023-01-20_16h11.12.936,t1_Paradigm,04.01.2021,60.02343413
H,left,Distractor,0,58,58,58,687.3436954,689.3439186,left,1,1,0.668563464,O27K03,2023-01-20_16h11.12.936,t1_Paradigm,04.01.2021,60.02343413
J,left,Lure,0,59,59,59,690.8441106,692.8456723,left,1,1,0.798773894,O27K03,2023-01-20_16h11.12.936,t1_Paradigm,04.01.2021,60.02343413
D,left,Pretarget,0,60,60,60,694.3434326,696.345199,left,1,1,0.77143705,O27K03,2023-01-20_16h11.12.936,t1_Paradigm,04.01.2021,60.02343413
D,right,Target,0,61,61,61,697.8437286,699.8438174,right,1,1,0.488705034,O27K03,2023-01-20_16h11.12.936,t1_Paradigm,04.01.2021,60.02343413
R,left,Distractor,0,62,62,62,701.3437893,703.3444765,left,1,1,0.49215847,O27K03,2023-01-20_16h11.12.936,t1_Paradigm,04.01.2021,60.02343413
F,left,Distractor,0,63,63,63,704.8435114,706.8598524,left,1,1,0.640431992,O27K03,2023-01-20_16h11.12.936,t1_Paradigm,04.01.2021,60.02343413
F,left,Distractor,0,0,0,0,728.3174261,730.3104057,None,0,2,,O27K03,2023-01-20_16h11.12.936,t1_Paradigm,04.01.2021,60.02343413
N,left,Pretarget,0,1,1,1,731.810163,733.8119178,None,0,2,,O27K03,2023-01-20_16h11.12.936,t1_Paradigm,04.01.2021,60.02343413
V,left,Distractor,0,2,2,2,735.3103521,737.3123587,left,1,2,1.052161806,O27K03,2023-01-20_16h11.12.936,t1_Paradigm,04.01.2021,60.02343413
N,right,Target,0,3,3,3,738.8104575,740.8122941,right,1,2,1.312410396,O27K03,2023-01-20_16h11.12.936,t1_Paradigm,04.01.2021,60.02343413
N,left,Lure,0,4,4,4,742.3102398,744.3104808,right,0,2,1.398223397,O27K03,2023-01-20_16h11.12.936,t1_Paradigm,04.01.2021,60.02343413
X,left,Distractor,0,5,5,5,745.8104049,747.8106144,left,1,2,1.306027714,O27K03,2023-01-20_16h11.12.936,t1_Paradigm,04.01.2021,60.02343413
G,left,Pretarget,0,6,6,6,749.310448,751.3118224,left,1,2,0.988787319,O27K03,2023-01-20_16h11.12.936,t1_Paradigm,04.01.2021,60.02343413
H,left,Pretarget,0,7,7,7,752.8104222,754.8119383,left,1,2,1.200564612,O27K03,2023-01-20_16h11.12.936,t1_Paradigm,04.01.2021,60.02343413
G,right,Target,0,8,8,8,756.3100544,758.3117021,right,1,2,1.204904104,O27K03,2023-01-20_16h11.12.936,t1_Paradigm,04.01.2021,60.02343413
H,right,Target,0,9,9,9,759.8102528,761.811135,None,0,2,,O27K03,2023-01-20_16h11.12.936,t1_Paradigm,04.01.2021,60.02343413
T,left,Pretarget,0,10,10,10,763.3104875,765.3110098,left,1,2,1.117524626,O27K03,2023-01-20_16h11.12.936,t1_Paradigm,04.01.2021,60.02343413
K,left,Distractor,0,11,11,11,766.8102015,768.8118251,left,1,2,1.072687056,O27K03,2023-01-20_16h11.12.936,t1_Paradigm,04.01.2021,60.02343413
T,right,Target,0,12,12,12,770.3101292,772.3104593,right,1,2,0.678133637,O27K03,2023-01-20_16h11.12.936,t1_Paradigm,04.01.2021,60.02343413
T,left,Lure,0,13,13,13,773.8105435,775.8104213,right,0,2,1.386059858,O27K03,2023-01-20_16h11.12.936,t1_Paradigm,04.01.2021,60.02343413
J,left,Distractor,0,14,14,14,777.3102668,779.3120521,left,1,2,1.228683893,O27K03,2023-01-20_16h11.12.936,t1_Paradigm,04.01.2021,60.02343413
Q,left,Pretarget,0,15,15,15,780.8094678,782.811682,left,1,2,0.865280694,O27K03,2023-01-20_16h11.12.936,t1_Paradigm,04.01.2021,60.02343413
M,left,Distractor,0,16,16,16,784.3104561,786.3120957,left,1,2,1.044752236,O27K03,2023-01-20_16h11.12.936,t1_Paradigm,04.01.2021,60.02343413
Q,right,Target,0,17,17,17,787.8105358,789.8110244,right,1,2,1.209735065,O27K03,2023-01-20_16h11.12.936,t1_Paradigm,04.01.2021,60.02343413
R,left,Distractor,0,18,18,18,791.310484,793.3116299,left,1,2,0.684970574,O27K03,2023-01-20_16h11.12.936,t1_Paradigm,04.01.2021,60.02343413
W,left,Distractor,0,19,19,19,794.8104017,796.8118193,left,1,2,1.072875046,O27K03,2023-01-20_16h11.12.936,t1_Paradigm,04.01.2021,60.02343413
C,left,Pretarget,0,20,20,20,798.3104019,800.3118323,left,1,2,0.788885485,O27K03,2023-01-20_16h11.12.936,t1_Paradigm,04.01.2021,60.02343413
T,left,Distractor,0,21,21,21,801.8101646,803.8118549,None,0,2,,O27K03,2023-01-20_16h11.12.936,t1_Paradigm,04.01.2021,60.02343413
C,right,Target,0,22,22,22,805.3105671,807.3116992,None,0,2,,O27K03,2023-01-20_16h11.12.936,t1_Paradigm,04.01.2021,60.02343413
F,left,Pretarget,0,23,23,23,808.810222,810.8119807,left,1,2,1.088666858,O27K03,2023-01-20_16h11.12.936,t1_Paradigm,04.01.2021,60.02343413
C,right,Target,0,24,24,24,812.3101346,814.31224,right,1,2,0.660679106,O27K03,2023-01-20_16h11.12.936,t1_Paradigm,04.01.2021,60.02343413
F,right,Target,0,25,25,25,815.8104235,817.8118883,right,1,2,1.368938963,O27K03,2023-01-20_16h11.12.936,t1_Paradigm,04.01.2021,60.02343413
H,left,Distractor,0,26,26,26,819.3105324,821.3131444,None,0,2,,O27K03,2023-01-20_16h11.12.936,t1_Paradigm,04.01.2021,60.02343413
H,left,Lure,0,27,27,27,822.8095538,824.8103029,right,0,2,1.346639677,O27K03,2023-01-20_16h11.12.936,t1_Paradigm,04.01.2021,60.02343413
P,left,Distractor,0,28,28,28,826.3096329,828.3117884,left,1,2,1.284781301,O27K03,2023-01-20_16h11.12.936,t1_Paradigm,04.01.2021,60.02343413
G,left,Pretarget,0,29,29,29,829.810343,831.8110244,left,1,2,0.873700791,O27K03,2023-01-20_16h11.12.936,t1_Paradigm,04.01.2021,60.02343413
K,left,Distractor,0,30,30,30,833.3104137,835.3118034,left,1,2,0.860864209,O27K03,2023-01-20_16h11.12.936,t1_Paradigm,04.01.2021,60.02343413
G,right,Target,0,31,31,31,836.810164,838.8095079,left,0,2,1.091238088,O27K03,2023-01-20_16h11.12.936,t1_Paradigm,04.01.2021,60.02343413
M,left,Pretarget,0,32,32,32,840.3104567,842.3116786,left,1,2,0.804997137,O27K03,2023-01-20_16h11.12.936,t1_Paradigm,04.01.2021,60.02343413
B,left,Distractor,0,33,33,33,843.810394,845.8100652,left,1,2,0.66665886,O27K03,2023-01-20_16h11.12.936,t1_Paradigm,04.01.2021,60.02343413
M,right,Target,0,34,34,34,847.3102492,849.3123318,right,1,2,0.636300701,O27K03,2023-01-20_16h11.12.936,t1_Paradigm,04.01.2021,60.02343413
M,left,Lure,0,35,35,35,850.8105307,852.8104184,left,1,2,1.154255843,O27K03,2023-01-20_16h11.12.936,t1_Paradigm,04.01.2021,60.02343413
T,left,Distractor,0,36,36,36,854.3104266,856.3111445,left,1,2,1.285442475,O27K03,2023-01-20_16h11.12.936,t1_Paradigm,04.01.2021,60.02343413
F,left,Distractor,0,37,37,37,857.8107382,859.8125604,left,1,2,0.824198115,O27K03,2023-01-20_16h11.12.936,t1_Paradigm,04.01.2021,60.02343413
X,left,Distractor,0,38,38,38,861.3104227,863.3118734,None,0,2,,O27K03,2023-01-20_16h11.12.936,t1_Paradigm,04.01.2021,60.02343413
C,left,Distractor,0,39,39,39,864.8101556,866.8119473,left,1,2,0.672793562,O27K03,2023-01-20_16h11.12.936,t1_Paradigm,04.01.2021,60.02343413
R,left,Distractor,0,40,40,40,868.3102001,870.3118856,left,1,2,0.692964325,O27K03,2023-01-20_16h11.12.936,t1_Paradigm,04.01.2021,60.02343413
B,left,Pretarget,0,41,41,41,871.8105117,873.8126008,None,0,2,,O27K03,2023-01-20_16h11.12.936,t1_Paradigm,04.01.2021,60.02343413
H,left,Distractor,0,42,42,42,875.3101843,877.3107945,left,1,2,0.925988672,O27K03,2023-01-20_16h11.12.936,t1_Paradigm,04.01.2021,60.02343413
B,right,Target,0,43,43,43,878.810522,880.8122668,right,1,2,0.656442912,O27K03,2023-01-20_16h11.12.936,t1_Paradigm,04.01.2021,60.02343413
W,left,Pretarget,0,44,44,44,882.3104894,884.312634,left,1,2,0.64427777,O27K03,2023-01-20_16h11.12.936,t1_Paradigm,04.01.2021,60.02343413
L,left,Pretarget,0,45,45,45,885.8096501,887.8113006,left,1,2,0.76147646,O27K03,2023-01-20_16h11.12.936,t1_Paradigm,04.01.2021,60.02343413
W,right,Target,0,46,46,46,889.3105777,891.3122795,right,1,2,0.780462821,O27K03,2023-01-20_16h11.12.936,t1_Paradigm,04.01.2021,60.02343413
L,right,Target,0,47,47,47,892.8105053,894.8128517,right,1,2,1.023958475,O27K03,2023-01-20_16h11.12.936,t1_Paradigm,04.01.2021,60.02343413
W,right,Target,0,48,48,48,896.3094805,898.3097747,None,0,2,,O27K03,2023-01-20_16h11.12.936,t1_Paradigm,04.01.2021,60.02343413
X,left,Distractor,0,49,49,49,899.8105252,901.8116031,left,1,2,0.697209502,O27K03,2023-01-20_16h11.12.936,t1_Paradigm,04.01.2021,60.02343413
R,left,Distractor,0,50,50,50,903.3102739,905.3119407,left,1,2,0.812898176,O27K03,2023-01-20_16h11.12.936,t1_Paradigm,04.01.2021,60.02343413
V,left,Pretarget,0,51,51,51,906.8095528,908.8122271,left,1,2,0.928661918,O27K03,2023-01-20_16h11.12.936,t1_Paradigm,04.01.2021,60.02343413
Z,left,Distractor,0,52,52,52,910.3106139,912.3123459,left,1,2,0.724450746,O27K03,2023-01-20_16h11.12.936,t1_Paradigm,04.01.2021,60.02343413
V,right,Target,0,53,53,53,913.8102849,915.8106025,right,1,2,1.25818551,O27K03,2023-01-20_16h11.12.936,t1_Paradigm,04.01.2021,60.02343413
V,left,Lure,0,54,54,54,917.310578,919.3102876,left,1,2,1.406436897,O27K03,2023-01-20_16h11.12.936,t1_Paradigm,04.01.2021,60.02343413
N,left,Distractor,0,55,55,55,920.8105031,922.8117657,left,1,2,0.784810013,O27K03,2023-01-20_16h11.12.936,t1_Paradigm,04.01.2021,60.02343413
B,left,Distractor,0,56,56,56,924.3104606,926.3127043,left,1,2,0.868115624,O27K03,2023-01-20_16h11.12.936,t1_Paradigm,04.01.2021,60.02343413
V,left,Lure,0,57,57,57,927.810394,929.8122765,left,1,2,1.272546544,O27K03,2023-01-20_16h11.12.936,t1_Paradigm,04.01.2021,60.02343413
J,left,Distractor,0,58,58,58,931.3103303,933.3117422,left,1,2,0.620982393,O27K03,2023-01-20_16h11.12.936,t1_Paradigm,04.01.2021,60.02343413
H,left,Distractor,0,59,59,59,934.810504,936.8104203,left,1,2,0.882418272,O27K03,2023-01-20_16h11.12.936,t1_Paradigm,04.01.2021,60.02343413
X,left,Pretarget,0,60,60,60,938.3103387,940.3124383,left,1,2,1.268220205,O27K03,2023-01-20_16h11.12.936,t1_Paradigm,04.01.2021,60.02343413
P,left,Distractor,0,61,61,61,941.8104764,943.8120821,left,1,2,0.696824218,O27K03,2023-01-20_16h11.12.936,t1_Paradigm,04.01.2021,60.02343413
X,right,Target,0,62,62,62,945.3105311,947.3123527,right,1,2,0.812501664,O27K03,2023-01-20_16h11.12.936,t1_Paradigm,04.01.2021,60.02343413
Q,left,Distractor,0,63,63,63,948.8104909,950.8095679,left,1,2,0.70696189,O27K03,2023-01-20_16h11.12.936,t1_Paradigm,04.01.2021,60.02343413
B,left,Pretarget,0,0,0,0,963.4721953,965.4625937,None,0,2,,O27K03,2023-01-20_16h11.12.936,t1_Paradigm,04.01.2021,60.02343413
F,left,Distractor,0,1,1,1,966.960491,968.9614328,None,0,2,,O27K03,2023-01-20_16h11.12.936,t1_Paradigm,04.01.2021,60.02343413
B,right,Target,0,2,2,2,970.4606284,972.4621631,right,1,2,0.574691268,O27K03,2023-01-20_16h11.12.936,t1_Paradigm,04.01.2021,60.02343413
V,left,Distractor,0,3,3,3,973.9604987,975.9617857,left,1,2,0.754949738,O27K03,2023-01-20_16h11.12.936,t1_Paradigm,04.01.2021,60.02343413
G,left,Pretarget,0,4,4,4,977.4604844,979.4612832,left,1,2,0.743728717,O27K03,2023-01-20_16h11.12.936,t1_Paradigm,04.01.2021,60.02343413
B,left,Lure,0,5,5,5,980.9605647,982.9610379,right,0,2,1.019652026,O27K03,2023-01-20_16h11.12.936,t1_Paradigm,04.01.2021,60.02343413
G,right,Target,0,6,6,6,984.4605537,986.4612296,left,0,2,1.407724918,O27K03,2023-01-20_16h11.12.936,t1_Paradigm,04.01.2021,60.02343413
Y,left,Pretarget,0,7,7,7,987.9606738,989.9613148,left,1,2,0.691578459,O27K03,2023-01-20_16h11.12.936,t1_Paradigm,04.01.2021,60.02343413
P,left,Distractor,0,8,8,8,991.4603391,993.4598421,left,1,2,0.665078589,O27K03,2023-01-20_16h11.12.936,t1_Paradigm,04.01.2021,60.02343413
Y,right,Target,0,9,9,9,994.9603918,996.962409,right,1,2,0.714568112,O27K03,2023-01-20_16h11.12.936,t1_Paradigm,04.01.2021,60.02343413
X,left,Distractor,0,10,10,10,998.460588,1000.461554,left,1,2,0.991291823,O27K03,2023-01-20_16h11.12.936,t1_Paradigm,04.01.2021,60.02343413
Y,right,Target,0,11,11,11,1001.960377,1003.959939,right,1,2,0.64466177,O27K03,2023-01-20_16h11.12.936,t1_Paradigm,04.01.2021,60.02343413
N,left,Distractor,0,12,12,12,1005.460451,1007.462428,left,1,2,0.902390779,O27K03,2023-01-20_16h11.12.936,t1_Paradigm,04.01.2021,60.02343413
Y,right,Target,0,13,13,13,1008.960512,1010.973418,right,1,2,0.559133321,O27K03,2023-01-20_16h11.12.936,t1_Paradigm,04.01.2021,60.02343413
Y,left,Lure,0,14,14,14,1012.46057,1014.460584,left,1,2,1.296314463,O27K03,2023-01-20_16h11.12.936,t1_Paradigm,04.01.2021,60.02343413
K,left,Distractor,0,15,15,15,1015.960367,1017.962656,left,1,2,1.090221787,O27K03,2023-01-20_16h11.12.936,t1_Paradigm,04.01.2021,60.02343413
T,left,Pretarget,0,16,16,16,1019.4606,1021.462307,left,1,2,0.630598441,O27K03,2023-01-20_16h11.12.936,t1_Paradigm,04.01.2021,60.02343413
J,left,Distractor,0,17,17,17,1022.960353,1024.962406,right,0,2,0.60234314,O27K03,2023-01-20_16h11.12.936,t1_Paradigm,04.01.2021,60.02343413
T,right,Target,0,18,18,18,1026.460492,1028.46063,right,1,2,1.456198461,O27K03,2023-01-20_16h11.12.936,t1_Paradigm,04.01.2021,60.02343413
S,left,Pretarget,0,19,19,19,1029.960695,1031.962806,left,1,2,0.801902999,O27K03,2023-01-20_16h11.12.936,t1_Paradigm,04.01.2021,60.02343413
R,left,Distractor,0,20,20,20,1033.460361,1035.462463,left,1,2,0.694580206,O27K03,2023-01-20_16h11.12.936,t1_Paradigm,04.01.2021,60.02343413
S,right,Target,0,21,21,21,1036.960731,1038.962447,right,1,2,0.97032932,O27K03,2023-01-20_16h11.12.936,t1_Paradigm,04.01.2021,60.02343413
Q,left,Distractor,0,22,22,22,1040.460464,1042.462572,left,1,2,1.118193177,O27K03,2023-01-20_16h11.12.936,t1_Paradigm,04.01.2021,60.02343413
D,left,Distractor,0,23,23,23,1043.960551,1045.96242,left,1,2,0.690454689,O27K03,2023-01-20_16h11.12.936,t1_Paradigm,04.01.2021,60.02343413
F,left,Distractor,0,24,24,24,1047.460487,1049.462405,left,1,2,0.918495373,O27K03,2023-01-20_16h11.12.936,t1_Paradigm,04.01.2021,60.02343413
Z,left,Distractor,0,25,25,25,1050.960529,1052.961043,left,1,2,1.051696964,O27K03,2023-01-20_16h11.12.936,t1_Paradigm,04.01.2021,60.02343413
P,left,Distractor,0,26,26,26,1054.4606,1056.461777,left,1,2,0.831150862,O27K03,2023-01-20_16h11.12.936,t1_Paradigm,04.01.2021,60.02343413
H,left,Distractor,0,27,27,27,1057.960615,1059.961875,left,1,2,0.803021957,O27K03,2023-01-20_16h11.12.936,t1_Paradigm,04.01.2021,60.02343413
Z,left,Pretarget,0,28,28,28,1061.460655,1063.462692,left,1,2,1.126111861,O27K03,2023-01-20_16h11.12.936,t1_Paradigm,04.01.2021,60.02343413
J,left,Pretarget,0,29,29,29,1064.960511,1066.973499,None,0,2,,O27K03,2023-01-20_16h11.12.936,t1_Paradigm,04.01.2021,60.02343413
Z,right,Target,0,30,30,30,1068.460588,1070.461475,right,1,2,1.119335234,O27K03,2023-01-20_16h11.12.936,t1_Paradigm,04.01.2021,60.02343413
J,right,Target,0,31,31,31,1071.96038,1073.963105,right,1,2,0.897801382,O27K03,2023-01-20_16h11.12.936,t1_Paradigm,04.01.2021,60.02343413
V,left,Pretarget,0,32,32,32,1075.460489,1077.461326,left,1,2,0.647749171,O27K03,2023-01-20_16h11.12.936,t1_Paradigm,04.01.2021,60.02343413
Z,left,Lure,0,33,33,33,1078.960418,1080.962358,left,1,2,0.666461888,O27K03,2023-01-20_16h11.12.936,t1_Paradigm,04.01.2021,60.02343413
V,right,Target,0,34,34,34,1082.460387,1084.46142,left,0,2,0.559646925,O27K03,2023-01-20_16h11.12.936,t1_Paradigm,04.01.2021,60.02343413
X,left,Distractor,0,35,35,35,1085.960749,1087.962633,left,1,2,1.106332476,O27K03,2023-01-20_16h11.12.936,t1_Paradigm,04.01.2021,60.02343413
S,left,Distractor,0,36,36,36,1089.459836,1091.462504,left,1,2,0.694466963,O27K03,2023-01-20_16h11.12.936,t1_Paradigm,04.01.2021,60.02343413
Q,left,Distractor,0,37,37,37,1092.960558,1094.961358,left,1,2,1.099586646,O27K03,2023-01-20_16h11.12.936,t1_Paradigm,04.01.2021,60.02343413
P,left,Distractor,0,38,38,38,1096.460676,1098.460474,left,1,2,0.624415619,O27K03,2023-01-20_16h11.12.936,t1_Paradigm,04.01.2021,60.02343413
S,left,Lure,0,39,39,39,1099.960272,1101.960734,right,0,2,1.012582827,O27K03,2023-01-20_16h11.12.936,t1_Paradigm,04.01.2021,60.02343413
K,left,Pretarget,0,40,40,40,1103.460413,1105.461294,left,1,2,0.663702347,O27K03,2023-01-20_16h11.12.936,t1_Paradigm,04.01.2021,60.02343413
L,left,Distractor,0,41,41,41,1106.960554,1108.960456,left,1,2,0.572143456,O27K03,2023-01-20_16h11.12.936,t1_Paradigm,04.01.2021,60.02343413
K,right,Target,0,42,42,42,1110.459695,1112.461859,right,1,2,0.623039056,O27K03,2023-01-20_16h11.12.936,t1_Paradigm,04.01.2021,60.02343413
B,left,Distractor,0,43,43,43,1113.96033,1115.96076,left,1,2,0.788109785,O27K03,2023-01-20_16h11.12.936,t1_Paradigm,04.01.2021,60.02343413
N,left,Distractor,0,44,44,44,1117.460789,1119.459875,left,1,2,0.665135691,O27K03,2023-01-20_16h11.12.936,t1_Paradigm,04.01.2021,60.02343413
S,left,Pretarget,0,45,45,45,1120.960665,1122.962553,left,1,2,0.698201422,O27K03,2023-01-20_16h11.12.936,t1_Paradigm,04.01.2021,60.02343413
Z,left,Distractor,0,46,46,46,1124.460592,1126.461327,left,1,2,0.943622531,O27K03,2023-01-20_16h11.12.936,t1_Paradigm,04.01.2021,60.02343413
S,right,Target,0,47,47,47,1127.960468,1129.962333,left,0,2,1.234560669,O27K03,2023-01-20_16h11.12.936,t1_Paradigm,04.01.2021,60.02343413
C,left,Distractor,0,48,48,48,1131.460435,1133.461371,left,1,2,0.887512612,O27K03,2023-01-20_16h11.12.936,t1_Paradigm,04.01.2021,60.02343413
T,left,Pretarget,0,49,49,49,1134.960622,1136.962556,left,1,2,0.554088384,O27K03,2023-01-20_16h11.12.936,t1_Paradigm,04.01.2021,60.02343413
S,left,Lure,0,50,50,50,1138.460678,1140.45983,right,0,2,0.769064396,O27K03,2023-01-20_16h11.12.936,t1_Paradigm,04.01.2021,60.02343413
T,right,Target,0,51,51,51,1141.960569,1143.962985,right,1,2,0.994217218,O27K03,2023-01-20_16h11.12.936,t1_Paradigm,04.01.2021,60.02343413
N,left,Pretarget,0,52,52,52,1145.460699,1147.462274,left,1,2,0.630713288,O27K03,2023-01-20_16h11.12.936,t1_Paradigm,04.01.2021,60.02343413
B,left,Distractor,0,53,53,53,1148.960669,1150.962367,left,1,2,0.602418849,O27K03,2023-01-20_16h11.12.936,t1_Paradigm,04.01.2021,60.02343413
N,right,Target,0,54,54,54,1152.460766,1154.462323,right,1,2,1.294783916,O27K03,2023-01-20_16h11.12.936,t1_Paradigm,04.01.2021,60.02343413
N,left,Lure,0,55,55,55,1155.960656,1157.960727,right,0,2,1.3483364,O27K03,2023-01-20_16h11.12.936,t1_Paradigm,04.01.2021,60.02343413
X,left,Distractor,0,56,56,56,1159.460648,1161.462877,left,1,2,0.9020873,O27K03,2023-01-20_16h11.12.936,t1_Paradigm,04.01.2021,60.02343413
W,left,Distractor,0,57,57,57,1162.960769,1164.962695,left,1,2,0.73029416,O27K03,2023-01-20_16h11.12.936,t1_Paradigm,04.01.2021,60.02343413
S,left,Distractor,0,58,58,58,1166.460623,1168.460442,left,1,2,0.928478098,O27K03,2023-01-20_16h11.12.936,t1_Paradigm,04.01.2021,60.02343413
L,left,Distractor,0,59,59,59,1169.960703,1171.960817,left,1,2,0.516231151,O27K03,2023-01-20_16h11.12.936,t1_Paradigm,04.01.2021,60.02343413
K,left,Pretarget,0,60,60,60,1173.460527,1175.462452,left,1,2,0.518452065,O27K03,2023-01-20_16h11.12.936,t1_Paradigm,04.01.2021,60.02343413
V,left,Pretarget,0,61,61,61,1176.960581,1178.962645,left,1,2,0.778429577,O27K03,2023-01-20_16h11.12.936,t1_Paradigm,04.01.2021,60.02343413
K,right,Target,0,62,62,62,1180.460728,1182.462823,right,1,2,0.478256183,O27K03,2023-01-20_16h11.12.936,t1_Paradigm,04.01.2021,60.02343413
V,right,Target,0,63,63,63,1183.960463,1185.96161,right,1,2,0.467188826,O27K03,2023-01-20_16h11.12.936,t1_Paradigm,04.01.2021,60.02343413
R,left,Distractor,0,0,0,0,1349.068984,1351.062782,None,0,3,,O27K03,2023-01-20_16h11.12.936,t1_Paradigm,04.01.2021,60.02343413
P,left,Lure,0,1,1,1,1352.560801,1354.56326,None,0,3,,O27K03,2023-01-20_16h11.12.936,t1_Paradigm,04.01.2021,60.02343413
V,left,Distractor,0,2,2,2,1356.060871,1358.06158,None,0,3,,O27K03,2023-01-20_16h11.12.936,t1_Paradigm,04.01.2021,60.02343413
P,left,Pretarget,0,3,3,3,1359.560507,1361.560849,left,1,3,0.916283442,O27K03,2023-01-20_16h11.12.936,t1_Paradigm,04.01.2021,60.02343413
Z,left,Distractor,0,4,4,4,1363.06087,1365.061744,left,1,3,0.67942647,O27K03,2023-01-20_16h11.12.936,t1_Paradigm,04.01.2021,60.02343413
L,left,Pretarget,0,5,5,5,1366.560571,1368.562985,left,1,3,0.666053507,O27K03,2023-01-20_16h11.12.936,t1_Paradigm,04.01.2021,60.02343413
P,right,Target,0,6,6,6,1370.060568,1372.060413,right,1,3,1.360566024,O27K03,2023-01-20_16h11.12.936,t1_Paradigm,04.01.2021,60.02343413
S,left,Distractor,0,7,7,7,1373.560434,1375.562953,None,0,3,,O27K03,2023-01-20_16h11.12.936,t1_Paradigm,04.01.2021,60.02343413
L,right,Target,0,8,8,8,1377.060826,1379.060458,None,0,3,,O27K03,2023-01-20_16h11.12.936,t1_Paradigm,04.01.2021,60.02343413
D,left,Distractor,0,9,9,9,1380.560782,1382.562876,left,1,3,0.746366353,O27K03,2023-01-20_16h11.12.936,t1_Paradigm,04.01.2021,60.02343413
G,left,Distractor,0,10,10,10,1384.060602,1386.060914,None,0,3,,O27K03,2023-01-20_16h11.12.936,t1_Paradigm,04.01.2021,60.02343413
M,left,Pretarget,0,11,11,11,1387.560927,1389.561637,left,1,3,0.915530198,O27K03,2023-01-20_16h11.12.936,t1_Paradigm,04.01.2021,60.02343413
Y,left,Distractor,0,12,12,12,1391.060914,1393.061422,left,1,3,0.807768868,O27K03,2023-01-20_16h11.12.936,t1_Paradigm,04.01.2021,60.02343413
V,left,Distractor,0,13,13,13,1394.560745,1396.561615,left,1,3,0.843417699,O27K03,2023-01-20_16h11.12.936,t1_Paradigm,04.01.2021,60.02343413
M,right,Target,0,14,14,14,1398.060357,1400.062711,None,0,3,,O27K03,2023-01-20_16h11.12.936,t1_Paradigm,04.01.2021,60.02343413
S,left,Pretarget,0,15,15,15,1401.560903,1403.560443,right,0,3,1.140759692,O27K03,2023-01-20_16h11.12.936,t1_Paradigm,04.01.2021,60.02343413
Q,left,Distractor,0,16,16,16,1405.060844,1407.061478,left,1,3,0.967594159,O27K03,2023-01-20_16h11.12.936,t1_Paradigm,04.01.2021,60.02343413
R,left,Pretarget,0,17,17,17,1408.560872,1410.562739,left,1,3,1.130691954,O27K03,2023-01-20_16h11.12.936,t1_Paradigm,04.01.2021,60.02343413
S,right,Target,0,18,18,18,1412.060575,1414.062912,None,0,3,,O27K03,2023-01-20_16h11.12.936,t1_Paradigm,04.01.2021,60.02343413
F,left,Distractor,0,19,19,19,1415.560937,1417.560114,left,1,3,1.284867597,O27K03,2023-01-20_16h11.12.936,t1_Paradigm,04.01.2021,60.02343413
R,right,Target,0,20,20,20,1419.060323,1421.060912,right,1,3,0.984125742,O27K03,2023-01-20_16h11.12.936,t1_Paradigm,04.01.2021,60.02343413
P,left,Distractor,0,21,21,21,1422.560591,1424.56266,left,1,3,1.290540343,O27K03,2023-01-20_16h11.12.936,t1_Paradigm,04.01.2021,60.02343413
L,left,Distractor,0,22,22,22,1426.060626,1428.061498,left,1,3,0.767544114,O27K03,2023-01-20_16h11.12.936,t1_Paradigm,04.01.2021,60.02343413
R,right,Target,0,23,23,23,1429.560715,1431.561726,left,0,3,0.755402711,O27K03,2023-01-20_16h11.12.936,t1_Paradigm,04.01.2021,60.02343413
H,left,Pretarget,0,24,24,24,1433.060554,1435.062809,left,1,3,1.142357608,O27K03,2023-01-20_16h11.12.936,t1_Paradigm,04.01.2021,60.02343413
G,left,Pretarget,0,25,25,25,1436.560922,1438.562368,left,1,3,1.002767882,O27K03,2023-01-20_16h11.12.936,t1_Paradigm,04.01.2021,60.02343413
T,left,Distractor,0,26,26,26,1440.060831,1442.06278,left,1,3,1.070378242,O27K03,2023-01-20_16h11.12.936,t1_Paradigm,04.01.2021,60.02343413
H,right,Target,0,27,27,27,1443.560859,1445.561415,left,0,3,1.123826465,O27K03,2023-01-20_16h11.12.936,t1_Paradigm,04.01.2021,60.02343413
G,right,Target,0,28,28,28,1447.06084,1449.06284,right,1,3,0.902293897,O27K03,2023-01-20_16h11.12.936,t1_Paradigm,04.01.2021,60.02343413
D,left,Distractor,0,29,29,29,1450.560974,1452.562612,left,1,3,0.858714192,O27K03,2023-01-20_16h11.12.936,t1_Paradigm,04.01.2021,60.02343413
N,left,Pretarget,0,30,30,30,1454.060547,1456.061582,left,1,3,0.751504964,O27K03,2023-01-20_16h11.12.936,t1_Paradigm,04.01.2021,60.02343413
V,left,Distractor,0,31,31,31,1457.560824,1459.561538,left,1,3,1.171574353,O27K03,2023-01-20_16h11.12.936,t1_Paradigm,04.01.2021,60.02343413
R,left,Distractor,0,32,32,32,1461.060849,1463.062831,left,1,3,0.93429296,O27K03,2023-01-20_16h11.12.936,t1_Paradigm,04.01.2021,60.02343413
N,right,Target,0,33,33,33,1464.560968,1466.562699,right,1,3,0.794574592,O27K03,2023-01-20_16h11.12.936,t1_Paradigm,04.01.2021,60.02343413
Z,left,Distractor,0,34,34,34,1468.060357,1470.059892,left,1,3,0.593369017,O27K03,2023-01-20_16h11.12.936,t1_Paradigm,04.01.2021,60.02343413
N,left,Lure,0,35,35,35,1471.560938,1473.562807,None,0,3,,O27K03,2023-01-20_16h11.12.936,t1_Paradigm,04.01.2021,60.02343413
Y,left,Pretarget,0,36,36,36,1475.061015,1477.0609,left,1,3,0.840337997,O27K03,2023-01-20_16h11.12.936,t1_Paradigm,04.01.2021,60.02343413
Y,left,Lure,0,37,37,37,1478.560655,1480.560692,left,1,3,1.180546551,O27K03,2023-01-20_16h11.12.936,t1_Paradigm,04.01.2021,60.02343413
B,left,Distractor,0,38,38,38,1482.060648,1484.061611,left,1,3,0.767523583,O27K03,2023-01-20_16h11.12.936,t1_Paradigm,04.01.2021,60.02343413
Y,right,Target,0,39,39,39,1485.560998,1487.562388,right,1,3,0.866745156,O27K03,2023-01-20_16h11.12.936,t1_Paradigm,04.01.2021,60.02343413
J,left,Distractor,0,40,40,40,1489.060904,1491.060019,left,1,3,0.729042389,O27K03,2023-01-20_16h11.12.936,t1_Paradigm,04.01.2021,60.02343413
X,left,Distractor,0,41,41,41,1492.560559,1494.562937,left,1,3,0.698167096,O27K03,2023-01-20_16h11.12.936,t1_Paradigm,04.01.2021,60.02343413
W,left,Pretarget,0,42,42,42,1496.060887,1498.060464,left,1,3,0.640767551,O27K03,2023-01-20_16h11.12.936,t1_Paradigm,04.01.2021,60.02343413
S,left,Pretarget,0,43,43,43,1499.560906,1501.561438,left,1,3,1.075794667,O27K03,2023-01-20_16h11.12.936,t1_Paradigm,04.01.2021,60.02343413
R,left,Distractor,0,44,44,44,1503.060851,1505.062069,left,1,3,0.935037221,O27K03,2023-01-20_16h11.12.936,t1_Paradigm,04.01.2021,60.02343413
W,right,Target,0,45,45,45,1506.560859,1508.561378,None,0,3,,O27K03,2023-01-20_16h11.12.936,t1_Paradigm,04.01.2021,60.02343413
S,right,Target,0,46,46,46,1510.060911,1512.06346,right,1,3,1.021764188,O27K03,2023-01-20_16h11.12.936,t1_Paradigm,04.01.2021,60.02343413
D,left,Distractor,0,47,47,47,1513.56061,1515.562685,left,1,3,0.658618593,O27K03,2023-01-20_16h11.12.936,t1_Paradigm,04.01.2021,60.02343413
T,left,Distractor,0,48,48,48,1517.060564,1519.061601,left,1,3,0.663721274,O27K03,2023-01-20_16h11.12.936,t1_Paradigm,04.01.2021,60.02343413
S,right,Target,0,49,49,49,1520.560906,1522.562671,right,1,3,1.114660824,O27K03,2023-01-20_16h11.12.936,t1_Paradigm,04.01.2021,60.02343413
K,left,Distractor,0,50,50,50,1524.060619,1526.062803,left,1,3,1.182366462,O27K03,2023-01-20_16h11.12.936,t1_Paradigm,04.01.2021,60.02343413
S,left,Lure,0,51,51,51,1527.560904,1529.562798,right,0,3,1.37855469,O27K03,2023-01-20_16h11.12.936,t1_Paradigm,04.01.2021,60.02343413
T,left,Pretarget,0,52,52,52,1531.060919,1533.062008,right,0,3,1.047370304,O27K03,2023-01-20_16h11.12.936,t1_Paradigm,04.01.2021,60.02343413
V,left,Distractor,0,53,53,53,1534.560853,1536.563277,left,1,3,0.8580373,O27K03,2023-01-20_16h11.12.936,t1_Paradigm,04.01.2021,60.02343413
B,left,Distractor,0,54,54,54,1538.06087,1540.062878,left,1,3,0.446510874,O27K03,2023-01-20_16h11.12.936,t1_Paradigm,04.01.2021,60.02343413
T,right,Target,0,55,55,55,1541.560909,1543.560934,right,1,3,1.092301548,O27K03,2023-01-20_16h11.12.936,t1_Paradigm,04.01.2021,60.02343413
Y,left,Pretarget,0,56,56,56,1545.060692,1547.062813,left,1,3,0.790523501,O27K03,2023-01-20_16h11.12.936,t1_Paradigm,04.01.2021,60.02343413
T,left,Lure,0,57,57,57,1548.560987,1550.561632,None,0,3,,O27K03,2023-01-20_16h11.12.936,t1_Paradigm,04.01.2021,60.02343413
P,left,Pretarget,0,58,58,58,1552.061068,1554.060082,left,1,3,1.361291678,O27K03,2023-01-20_16h11.12.936,t1_Paradigm,04.01.2021,60.02343413
Y,right,Target,0,59,59,59,1555.560882,1557.562832,right,1,3,1.202382598,O27K03,2023-01-20_16h11.12.936,t1_Paradigm,04.01.2021,60.02343413
R,left,Distractor,0,60,60,60,1559.060943,1561.063475,left,1,3,0.90181943,O27K03,2023-01-20_16h11.12.936,t1_Paradigm,04.01.2021,60.02343413
P,right,Target,0,61,61,61,1562.560879,1564.562475,right,1,3,0.731059273,O27K03,2023-01-20_16h11.12.936,t1_Paradigm,04.01.2021,60.02343413
L,left,Distractor,0,62,62,62,1566.060971,1568.063362,left,1,3,0.669855334,O27K03,2023-01-20_16h11.12.936,t1_Paradigm,04.01.2021,60.02343413
V,left,Distractor,0,63,63,63,1569.561015,1571.563045,right,0,3,1.202236633,O27K03,2023-01-20_16h11.12.936,t1_Paradigm,04.01.2021,60.02343413
H,left,Lure,0,0,0,0,1579.525631,1581.529272,None,0,3,,O27K03,2023-01-20_16h11.12.936,t1_Paradigm,04.01.2021,60.02343413
B,left,Distractor,0,1,1,1,1583.027258,1585.030003,None,0,3,,O27K03,2023-01-20_16h11.12.936,t1_Paradigm,04.01.2021,60.02343413
T,left,Distractor,0,2,2,2,1586.527791,1588.529881,None,0,3,,O27K03,2023-01-20_16h11.12.936,t1_Paradigm,04.01.2021,60.02343413
R,left,Distractor,0,3,3,3,1590.027356,1592.029039,left,1,3,0.67218083,O27K03,2023-01-20_16h11.12.936,t1_Paradigm,04.01.2021,60.02343413
H,left,Pretarget,0,4,4,4,1593.527676,1595.529613,left,1,3,0.963733625,O27K03,2023-01-20_16h11.12.936,t1_Paradigm,04.01.2021,60.02343413
K,left,Distractor,0,5,5,5,1597.027615,1599.029597,left,1,3,0.743658461,O27K03,2023-01-20_16h11.12.936,t1_Paradigm,04.01.2021,60.02343413
G,left,Distractor,0,6,6,6,1600.52736,1602.52927,left,1,3,0.812201393,O27K03,2023-01-20_16h11.12.936,t1_Paradigm,04.01.2021,60.02343413
H,right,Target,0,7,7,7,1604.027633,1606.029405,right,1,3,0.943876286,O27K03,2023-01-20_16h11.12.936,t1_Paradigm,04.01.2021,60.02343413
Y,left,Pretarget,0,8,8,8,1607.52755,1609.529401,left,1,3,0.819811785,O27K03,2023-01-20_16h11.12.936,t1_Paradigm,04.01.2021,60.02343413
S,left,Distractor,0,9,9,9,1611.027641,1613.029698,None,0,3,,O27K03,2023-01-20_16h11.12.936,t1_Paradigm,04.01.2021,60.02343413
P,left,Distractor,0,10,10,10,1614.527684,1616.527598,None,0,3,,O27K03,2023-01-20_16h11.12.936,t1_Paradigm,04.01.2021,60.02343413
Y,right,Target,0,11,11,11,1618.027432,1620.026721,right,1,3,0.947259146,O27K03,2023-01-20_16h11.12.936,t1_Paradigm,04.01.2021,60.02343413
H,left,Lure,0,12,12,12,1621.52752,1623.528783,right,0,3,0.964358227,O27K03,2023-01-20_16h11.12.936,t1_Paradigm,04.01.2021,60.02343413
Q,left,Distractor,0,13,13,13,1625.02734,1627.028754,left,1,3,0.712626617,O27K03,2023-01-20_16h11.12.936,t1_Paradigm,04.01.2021,60.02343413
V,left,Pretarget,0,14,14,14,1628.527426,1630.528534,left,1,3,0.604696866,O27K03,2023-01-20_16h11.12.936,t1_Paradigm,04.01.2021,60.02343413
G,left,Distractor,0,15,15,15,1632.027671,1634.029141,left,1,3,1.05623407,O27K03,2023-01-20_16h11.12.936,t1_Paradigm,04.01.2021,60.02343413
Z,left,Pretarget,0,16,16,16,1635.527737,1637.528307,left,1,3,1.108956639,O27K03,2023-01-20_16h11.12.936,t1_Paradigm,04.01.2021,60.02343413
V,right,Target,0,17,17,17,1639.027641,1641.029041,right,1,3,1.016211422,O27K03,2023-01-20_16h11.12.936,t1_Paradigm,04.01.2021,60.02343413
N,left,Distractor,0,18,18,18,1642.527429,1644.529448,left,1,3,0.731754452,O27K03,2023-01-20_16h11.12.936,t1_Paradigm,04.01.2021,60.02343413
Z,right,Target,0,19,19,19,1646.027438,1648.027666,right,1,3,0.801557816,O27K03,2023-01-20_16h11.12.936,t1_Paradigm,04.01.2021,60.02343413
R,left,Distractor,0,20,20,20,1649.527553,1651.529565,left,1,3,0.723816841,O27K03,2023-01-20_16h11.12.936,t1_Paradigm,04.01.2021,60.02343413
P,left,Distractor,0,21,21,21,1653.027601,1655.029282,left,1,3,0.648301913,O27K03,2023-01-20_16h11.12.936,t1_Paradigm,04.01.2021,60.02343413
Z,right,Target,0,22,22,22,1656.52769,1658.529771,right,1,3,0.875484772,O27K03,2023-01-20_16h11.12.936,t1_Paradigm,04.01.2021,60.02343413
D,left,Pretarget,0,23,23,23,1660.027728,1662.029152,left,1,3,0.640248814,O27K03,2023-01-20_16h11.12.936,t1_Paradigm,04.01.2021,60.02343413
K,left,Distractor,0,24,24,24,1663.527609,1665.529144,left,1,3,0.900137143,O27K03,2023-01-20_16h11.12.936,t1_Paradigm,04.01.2021,60.02343413
W,left,Distractor,0,25,25,25,1667.02748,1669.029626,left,1,3,0.567630089,O27K03,2023-01-20_16h11.12.936,t1_Paradigm,04.01.2021,60.02343413
D,right,Target,0,26,26,26,1670.527765,1672.527701,right,1,3,1.181702401,O27K03,2023-01-20_16h11.12.936,t1_Paradigm,04.01.2021,60.02343413
G,left,Pretarget,0,27,27,27,1674.027294,1676.029002,left,1,3,1.0403951,O27K03,2023-01-20_16h11.12.936,t1_Paradigm,04.01.2021,60.02343413
V,left,Distractor,0,28,28,28,1677.527649,1679.528269,left,1,3,0.9493681,O27K03,2023-01-20_16h11.12.936,t1_Paradigm,04.01.2021,60.02343413
D,right,Target,0,29,29,29,1681.027353,1683.029571,right,1,3,0.855864185,O27K03,2023-01-20_16h11.12.936,t1_Paradigm,04.01.2021,60.02343413
G,right,Target,0,30,30,30,1684.527835,1686.529438,right,1,3,0.748136861,O27K03,2023-01-20_16h11.12.936,t1_Paradigm,04.01.2021,60.02343413
B,left,Pretarget,0,31,31,31,1688.0277,1690.028399,left,1,3,0.673009783,O27K03,2023-01-20_16h11.12.936,t1_Paradigm,04.01.2021,60.02343413
N,left,Distractor,0,32,32,32,1691.527772,1693.529599,left,1,3,0.787771339,O27K03,2023-01-20_16h11.12.936,t1_Paradigm,04.01.2021,60.02343413
F,left,Distractor,0,33,33,33,1695.027706,1697.029817,left,1,3,0.775473705,O27K03,2023-01-20_16h11.12.936,t1_Paradigm,04.01.2021,60.02343413
B,right,Target,0,34,34,34,1698.527449,1700.52878,right,1,3,1.180734862,O27K03,2023-01-20_16h11.12.936,t1_Paradigm,04.01.2021,60.02343413
Q,left,Pretarget,0,35,35,35,1702.02771,1704.028285,None,0,3,,O27K03,2023-01-20_16h11.12.936,t1_Paradigm,04.01.2021,60.02343413
S,left,Pretarget,0,36,36,36,1705.527709,1707.527249,left,1,3,1.430184606,O27K03,2023-01-20_16h11.12.936,t1_Paradigm,04.01.2021,60.02343413
W,left,Distractor,0,37,37,37,1709.027605,1711.029751,right,0,3,0.855671383,O27K03,2023-01-20_16h11.12.936,t1_Paradigm,04.01.2021,60.02343413
Q,right,Target,0,38,38,38,1712.527703,1714.527564,right,1,3,1.037517504,O27K03,2023-01-20_16h11.12.936,t1_Paradigm,04.01.2021,60.02343413
S,right,Target,0,39,39,39,1716.02746,1718.02835,right,1,3,0.832886723,O27K03,2023-01-20_16h11.12.936,t1_Paradigm,04.01.2021,60.02343413
T,left,Distractor,0,40,40,40,1719.527636,1721.54053,left,1,3,1.160843517,O27K03,2023-01-20_16h11.12.936,t1_Paradigm,04.01.2021,60.02343413
G,left,Distractor,0,41,41,41,1723.02728,1725.028229,left,1,3,0.697278795,O27K03,2023-01-20_16h11.12.936,t1_Paradigm,04.01.2021,60.02343413
D,left,Distractor,0,42,42,42,1726.52765,1728.529767,left,1,3,1.099506125,O27K03,2023-01-20_16h11.12.936,t1_Paradigm,04.01.2021,60.02343413
S,left,Lure,0,43,43,43,1730.027685,1732.029552,right,0,3,1.263998127,O27K03,2023-01-20_16h11.12.936,t1_Paradigm,04.01.2021,60.02343413
Z,left,Pretarget,0,44,44,44,1733.527572,1735.529292,left,1,3,0.772153401,O27K03,2023-01-20_16h11.12.936,t1_Paradigm,04.01.2021,60.02343413
J,left,Distractor,0,45,45,45,1737.02771,1739.027983,left,1,3,0.729577167,O27K03,2023-01-20_16h11.12.936,t1_Paradigm,04.01.2021,60.02343413
M,left,Pretarget,0,46,46,46,1740.526675,1742.528088,left,1,3,0.877167059,O27K03,2023-01-20_16h11.12.936,t1_Paradigm,04.01.2021,60.02343413
Z,right,Target,0,47,47,47,1744.027853,1746.028437,right,1,3,0.513016712,O27K03,2023-01-20_16h11.12.936,t1_Paradigm,04.01.2021,60.02343413
P,left,Distractor,0,48,48,48,1747.527699,1749.528669,left,1,3,1.060637723,O27K03,2023-01-20_16h11.12.936,t1_Paradigm,04.01.2021,60.02343413
M,right,Target,0,49,49,49,1751.027726,1753.029204,right,1,3,0.840143912,O27K03,2023-01-20_16h11.12.936,t1_Paradigm,04.01.2021,60.02343413
K,left,Distractor,0,50,50,50,1754.527751,1756.529695,left,1,3,0.635630545,O27K03,2023-01-20_16h11.12.936,t1_Paradigm,04.01.2021,60.02343413
Y,left,Distractor,0,51,51,51,1758.027759,1760.02951,left,1,3,0.719851084,O27K03,2023-01-20_16h11.12.936,t1_Paradigm,04.01.2021,60.02343413
X,left,Distractor,0,52,52,52,1761.527625,1763.527803,left,1,3,0.757624588,O27K03,2023-01-20_16h11.12.936,t1_Paradigm,04.01.2021,60.02343413
F,left,Pretarget,0,53,53,53,1765.027807,1767.029705,left,1,3,0.711887488,O27K03,2023-01-20_16h11.12.936,t1_Paradigm,04.01.2021,60.02343413
M,left,Lure,0,54,54,54,1768.527727,1770.529134,left,1,3,1.180393849,O27K03,2023-01-20_16h11.12.936,t1_Paradigm,04.01.2021,60.02343413
V,left,Distractor,0,55,55,55,1772.027503,1774.029364,left,1,3,1.024134596,O27K03,2023-01-20_16h11.12.936,t1_Paradigm,04.01.2021,60.02343413
F,right,Target,0,56,56,56,1775.527449,1777.527772,right,1,3,0.757696126,O27K03,2023-01-20_16h11.12.936,t1_Paradigm,04.01.2021,60.02343413
S,left,Distractor,0,57,57,57,1779.02775,1781.029552,left,1,3,0.791859643,O27K03,2023-01-20_16h11.12.936,t1_Paradigm,04.01.2021,60.02343413
D,left,Distractor,0,58,58,58,1782.527484,1784.528033,left,1,3,0.749505082,O27K03,2023-01-20_16h11.12.936,t1_Paradigm,04.01.2021,60.02343413
F,right,Target,0,59,59,59,1786.027487,1788.029335,right,1,3,0.864503069,O27K03,2023-01-20_16h11.12.936,t1_Paradigm,04.01.2021,60.02343413
V,left,Pretarget,0,60,60,60,1789.52753,1791.527739,right,0,3,1.157770553,O27K03,2023-01-20_16h11.12.936,t1_Paradigm,04.01.2021,60.02343413
J,left,Distractor,0,61,61,61,1793.027659,1795.029391,left,1,3,0.744261249,O27K03,2023-01-20_16h11.12.936,t1_Paradigm,04.01.2021,60.02343413
V,left,Lure,0,62,62,62,1796.527524,1798.529469,right,0,3,0.69976822,O27K03,2023-01-20_16h11.12.936,t1_Paradigm,04.01.2021,60.02343413
V,right,Target,0,63,63,63,1800.027289,1802.027444,right,1,3,1.250194968,O27K03,2023-01-20_16h11.12.936,t1_Paradigm,04.01.2021,60.02343413
R,left,Distractor,0,0,0,0,1897.517903,1899.512501,left,1,4,0.725094597,O27K03,2023-01-20_16h11.12.936,t1_Paradigm,04.01.2021,60.02343413
F,left,Distractor,0,1,1,1,1901.011162,1903.012233,left,1,4,0.552996694,O27K03,2023-01-20_16h11.12.936,t1_Paradigm,04.01.2021,60.02343413
P,left,Pretarget,0,2,2,2,1904.511036,1906.513042,left,1,4,0.732458612,O27K03,2023-01-20_16h11.12.936,t1_Paradigm,04.01.2021,60.02343413
H,left,Distractor,0,3,3,3,1908.011184,1910.01178,left,1,4,0.625674126,O27K03,2023-01-20_16h11.12.936,t1_Paradigm,04.01.2021,60.02343413
Z,left,Distractor,0,4,4,4,1911.511329,1913.512333,left,1,4,0.773255999,O27K03,2023-01-20_16h11.12.936,t1_Paradigm,04.01.2021,60.02343413
T,left,Distractor,0,5,5,5,1915.011527,1917.013121,None,0,4,,O27K03,2023-01-20_16h11.12.936,t1_Paradigm,04.01.2021,60.02343413
P,right,Target,0,6,6,6,1918.510734,1920.511951,right,1,4,0.701542578,O27K03,2023-01-20_16h11.12.936,t1_Paradigm,04.01.2021,60.02343413
G,left,Distractor,0,7,7,7,1922.011182,1924.012415,left,1,4,0.673115648,O27K03,2023-01-20_16h11.12.936,t1_Paradigm,04.01.2021,60.02343413
L,left,Distractor,0,8,8,8,1925.511626,1927.511545,left,1,4,0.630158621,O27K03,2023-01-20_16h11.12.936,t1_Paradigm,04.01.2021,60.02343413
P,left,Lure,0,9,9,9,1929.011323,1931.013207,right,0,4,0.952333275,O27K03,2023-01-20_16h11.12.936,t1_Paradigm,04.01.2021,60.02343413
Q,left,Pretarget,0,10,10,10,1932.511522,1934.510975,left,1,4,0.766781567,O27K03,2023-01-20_16h11.12.936,t1_Paradigm,04.01.2021,60.02343413
D,left,Distractor,0,11,11,11,1936.011227,1938.011797,left,1,4,0.897897622,O27K03,2023-01-20_16h11.12.936,t1_Paradigm,04.01.2021,60.02343413
M,left,Pretarget,0,12,12,12,1939.511394,1941.512983,left,1,4,1.17265674,O27K03,2023-01-20_16h11.12.936,t1_Paradigm,04.01.2021,60.02343413
C,left,Distractor,0,13,13,13,1943.010932,1945.012852,left,1,4,1.160889071,O27K03,2023-01-20_16h11.12.936,t1_Paradigm,04.01.2021,60.02343413
Q,right,Target,0,14,14,14,1946.511231,1948.511453,right,1,4,0.830243954,O27K03,2023-01-20_16h11.12.936,t1_Paradigm,04.01.2021,60.02343413
R,left,Distractor,0,15,15,15,1950.010916,1952.012428,left,1,4,0.929291332,O27K03,2023-01-20_16h11.12.936,t1_Paradigm,04.01.2021,60.02343413
M,right,Target,0,16,16,16,1953.511264,1955.512948,right,1,4,1.044769239,O27K03,2023-01-20_16h11.12.936,t1_Paradigm,04.01.2021,60.02343413
S,left,Distractor,0,17,17,17,1957.011024,1959.013105,left,1,4,0.728656143,O27K03,2023-01-20_16h11.12.936,t1_Paradigm,04.01.2021,60.02343413
Z,left,Distractor,0,18,18,18,1960.511274,1962.513239,left,1,4,0.63631257,O27K03,2023-01-20_16h11.12.936,t1_Paradigm,04.01.2021,60.02343413
L,left,Pretarget,0,19,19,19,1964.011161,1966.012924,left,1,4,0.800601504,O27K03,2023-01-20_16h11.12.936,t1_Paradigm,04.01.2021,60.02343413
M,right,Target,0,20,20,20,1967.511286,1969.512921,right,1,4,0.708838263,O27K03,2023-01-20_16h11.12.936,t1_Paradigm,04.01.2021,60.02343413
P,left,Distractor,0,21,21,21,1971.010844,1973.01255,left,1,4,1.113138938,O27K03,2023-01-20_16h11.12.936,t1_Paradigm,04.01.2021,60.02343413
F,left,Distractor,0,22,22,22,1974.511322,1976.51265,left,1,4,0.668895815,O27K03,2023-01-20_16h11.12.936,t1_Paradigm,04.01.2021,60.02343413
L,right,Target,0,23,23,23,1978.011206,1980.013619,right,1,4,1.088002477,O27K03,2023-01-20_16h11.12.936,t1_Paradigm,04.01.2021,60.02343413
L,left,Lure,0,24,24,24,1981.511417,1983.510412,left,1,4,1.175226366,O27K03,2023-01-20_16h11.12.936,t1_Paradigm,04.01.2021,60.02343413
V,left,Pretarget,0,25,25,25,1985.011115,1987.012992,None,0,4,,O27K03,2023-01-20_16h11.12.936,t1_Paradigm,04.01.2021,60.02343413
Z,left,Distractor,0,26,26,26,1988.511395,1990.510243,None,0,4,,O27K03,2023-01-20_16h11.12.936,t1_Paradigm,04.01.2021,60.02343413
H,left,Distractor,0,27,27,27,1992.011291,1994.012063,left,1,4,1.345581671,O27K03,2023-01-20_16h11.12.936,t1_Paradigm,04.01.2021,60.02343413
X,left,Distractor,0,28,28,28,1995.511237,1997.512773,left,1,4,0.932880788,O27K03,2023-01-20_16h11.12.936,t1_Paradigm,04.01.2021,60.02343413
V,right,Target,0,29,29,29,1999.011289,2001.011682,right,1,4,0.986009172,O27K03,2023-01-20_16h11.12.936,t1_Paradigm,04.01.2021,60.02343413
C,left,Distractor,0,30,30,30,2002.51099,2004.51193,left,1,4,0.957728207,O27K03,2023-01-20_16h11.12.936,t1_Paradigm,04.01.2021,60.02343413
S,left,Pretarget,0,31,31,31,2006.010954,2008.027436,left,1,4,0.946148528,O27K03,2023-01-20_16h11.12.936,t1_Paradigm,04.01.2021,60.02343413
D,left,Distractor,0,32,32,32,2009.51118,2011.512616,left,1,4,0.757087565,O27K03,2023-01-20_16h11.12.936,t1_Paradigm,04.01.2021,60.02343413
V,left,Distractor,0,33,33,33,2013.011222,2015.01137,right,0,4,0.810419016,O27K03,2023-01-20_16h11.12.936,t1_Paradigm,04.01.2021,60.02343413
R,left,Distractor,0,34,34,34,2016.511186,2018.523739,left,1,4,1.025830036,O27K03,2023-01-20_16h11.12.936,t1_Paradigm,04.01.2021,60.02343413
S,right,Target,0,35,35,35,2020.011284,2022.01281,right,1,4,0.752819932,O27K03,2023-01-20_16h11.12.936,t1_Paradigm,04.01.2021,60.02343413
Y,left,Distractor,0,36,36,36,2023.511228,2025.512831,left,1,4,0.900672241,O27K03,2023-01-20_16h11.12.936,t1_Paradigm,04.01.2021,60.02343413
N,left,Pretarget,0,37,37,37,2027.010996,2029.012475,left,1,4,0.953120845,O27K03,2023-01-20_16h11.12.936,t1_Paradigm,04.01.2021,60.02343413
Z,left,Pretarget,0,38,38,38,2030.511306,2032.512524,None,0,4,,O27K03,2023-01-20_16h11.12.936,t1_Paradigm,04.01.2021,60.02343413
P,left,Pretarget,0,39,39,39,2034.011042,2036.013192,left,1,4,1.040522459,O27K03,2023-01-20_16h11.12.936,t1_Paradigm,04.01.2021,60.02343413
M,left,Distractor,0,40,40,40,2037.511324,2039.51115,None,0,4,,O27K03,2023-01-20_16h11.12.936,t1_Paradigm,04.01.2021,60.02343413
N,right,Target,0,41,41,41,2041.011217,2043.011594,right,1,4,0.954043151,O27K03,2023-01-20_16h11.12.936,t1_Paradigm,04.01.2021,60.02343413
Z,right,Target,0,42,42,42,2044.511207,2046.512967,right,1,4,0.988651299,O27K03,2023-01-20_16h11.12.936,t1_Paradigm,04.01.2021,60.02343413
P,right,Target,0,43,43,43,2048.011338,2050.01288,left,0,4,1.361149884,O27K03,2023-01-20_16h11.12.936,t1_Paradigm,04.01.2021,60.02343413
X,left,Pretarget,0,44,44,44,2051.511239,2053.512689,left,1,4,0.964986037,O27K03,2023-01-20_16h11.12.936,t1_Paradigm,04.01.2021,60.02343413
Z,left,Lure,0,45,45,45,2055.011115,2057.012762,left,1,4,1.240989867,O27K03,2023-01-20_16h11.12.936,t1_Paradigm,04.01.2021,60.02343413
R,left,Pretarget,0,46,46,46,2058.51135,2060.512597,left,1,4,1.245119234,O27K03,2023-01-20_16h11.12.936,t1_Paradigm,04.01.2021,60.02343413
K,left,Distractor,0,47,47,47,2062.011223,2064.012087,left,1,4,1.153539492,O27K03,2023-01-20_16h11.12.936,t1_Paradigm,04.01.2021,60.02343413
X,right,Target,0,48,48,48,2065.511327,2067.512767,right,1,4,1.108995777,O27K03,2023-01-20_16h11.12.936,t1_Paradigm,04.01.2021,60.02343413
B,left,Distractor,0,49,49,49,2069.011108,2071.013207,left,1,4,0.744560878,O27K03,2023-01-20_16h11.12.936,t1_Paradigm,04.01.2021,60.02343413
R,right,Target,0,50,50,50,2072.510947,2074.5119,left,0,4,0.973834084,O27K03,2023-01-20_16h11.12.936,t1_Paradigm,04.01.2021,60.02343413
Y,left,Pretarget,0,51,51,51,2076.011056,2078.012081,left,1,4,1.329744305,O27K03,2023-01-20_16h11.12.936,t1_Paradigm,04.01.2021,60.02343413
W,left,Pretarget,0,52,52,52,2079.511359,2081.512599,left,1,4,0.900979891,O27K03,2023-01-20_16h11.12.936,t1_Paradigm,04.01.2021,60.02343413
Z,left,Distractor,0,53,53,53,2083.011027,2085.01146,left,1,4,0.954188154,O27K03,2023-01-20_16h11.12.936,t1_Paradigm,04.01.2021,60.02343413
Q,left,Distractor,0,54,54,54,2086.511278,2088.513087,left,1,4,0.861078184,O27K03,2023-01-20_16h11.12.936,t1_Paradigm,04.01.2021,60.02343413
Y,right,Target,0,55,55,55,2090.011271,2092.01295,right,1,4,0.608595255,O27K03,2023-01-20_16h11.12.936,t1_Paradigm,04.01.2021,60.02343413
W,right,Target,0,56,56,56,2093.51118,2095.512767,right,1,4,0.613014627,O27K03,2023-01-20_16h11.12.936,t1_Paradigm,04.01.2021,60.02343413
H,left,Pretarget,0,57,57,57,2097.011134,2099.012805,left,1,4,0.792804084,O27K03,2023-01-20_16h11.12.936,t1_Paradigm,04.01.2021,60.02343413
M,left,Distractor,0,58,58,58,2100.511103,2102.511376,left,1,4,0.76643863,O27K03,2023-01-20_16h11.12.936,t1_Paradigm,04.01.2021,60.02343413
R,left,Pretarget,0,59,59,59,2104.011254,2106.012318,left,1,4,1.329496645,O27K03,2023-01-20_16h11.12.936,t1_Paradigm,04.01.2021,60.02343413
J,left,Distractor,0,60,60,60,2107.511095,2109.512588,left,1,4,0.741183792,O27K03,2023-01-20_16h11.12.936,t1_Paradigm,04.01.2021,60.02343413
H,right,Target,0,61,61,61,2111.011349,2113.013062,left,0,4,0.488670387,O27K03,2023-01-20_16h11.12.936,t1_Paradigm,04.01.2021,60.02343413
Z,left,Distractor,0,62,62,62,2114.511172,2116.524139,left,1,4,0.705478501,O27K03,2023-01-20_16h11.12.936,t1_Paradigm,04.01.2021,60.02343413
R,right,Target,0,63,63,63,2118.011053,2120.013114,None,0,4,,O27K03,2023-01-20_16h11.12.936,t1_Paradigm,04.01.2021,60.02343413
J,left,Pretarget,0,0,0,0,2132.054787,2134.046669,left,1,4,1.375199098,O27K03,2023-01-20_16h11.12.936,t1_Paradigm,04.01.2021,60.02343413
G,left,Pretarget,0,1,1,1,2135.544704,2137.545433,left,1,4,0.708296107,O27K03,2023-01-20_16h11.12.936,t1_Paradigm,04.01.2021,60.02343413
Z,left,Distractor,0,2,2,2,2139.044606,2141.046119,left,1,4,1.031665108,O27K03,2023-01-20_16h11.12.936,t1_Paradigm,04.01.2021,60.02343413
F,left,Distractor,0,3,3,3,2142.544345,2144.546562,left,1,4,0.587126205,O27K03,2023-01-20_16h11.12.936,t1_Paradigm,04.01.2021,60.02343413
J,right,Target,0,4,4,4,2146.044638,2148.046464,None,0,4,,O27K03,2023-01-20_16h11.12.936,t1_Paradigm,04.01.2021,60.02343413
G,right,Target,0,5,5,5,2149.544468,2151.546583,right,1,4,0.83503674,O27K03,2023-01-20_16h11.12.936,t1_Paradigm,04.01.2021,60.02343413
H,left,Distractor,0,6,6,6,2153.044576,2155.046971,left,1,4,0.550495078,O27K03,2023-01-20_16h11.12.936,t1_Paradigm,04.01.2021,60.02343413
P,left,Distractor,0,7,7,7,2156.544683,2158.543783,left,1,4,0.653887402,O27K03,2023-01-20_16h11.12.936,t1_Paradigm,04.01.2021,60.02343413
G,left,Lure,0,8,8,8,2160.044217,2162.046563,right,0,4,1.119160076,O27K03,2023-01-20_16h11.12.936,t1_Paradigm,04.01.2021,60.02343413
S,left,Distractor,0,9,9,9,2163.544549,2165.546384,left,1,4,0.643307022,O27K03,2023-01-20_16h11.12.936,t1_Paradigm,04.01.2021,60.02343413
R,left,Pretarget,0,10,10,10,2167.044641,2169.045227,left,1,4,0.840529195,O27K03,2023-01-20_16h11.12.936,t1_Paradigm,04.01.2021,60.02343413
T,left,Pretarget,0,11,11,11,2170.544339,2172.546861,left,1,4,0.666794239,O27K03,2023-01-20_16h11.12.936,t1_Paradigm,04.01.2021,60.02343413
X,left,Distractor,0,12,12,12,2174.044454,2176.046507,left,1,4,0.799155648,O27K03,2023-01-20_16h11.12.936,t1_Paradigm,04.01.2021,60.02343413
F,left,Pretarget,0,13,13,13,2177.544408,2179.546068,left,1,4,0.86757828,O27K03,2023-01-20_16h11.12.936,t1_Paradigm,04.01.2021,60.02343413
R,right,Target,0,14,14,14,2181.044447,2183.045051,None,0,4,,O27K03,2023-01-20_16h11.12.936,t1_Paradigm,04.01.2021,60.02343413
T,right,Target,0,15,15,15,2184.544782,2186.546784,right,1,4,1.114815771,O27K03,2023-01-20_16h11.12.936,t1_Paradigm,04.01.2021,60.02343413
C,left,Distractor,0,16,16,16,2188.044664,2190.047151,left,1,4,0.718542531,O27K03,2023-01-20_16h11.12.936,t1_Paradigm,04.01.2021,60.02343413
F,right,Target,0,17,17,17,2191.544643,2193.545907,right,1,4,0.851788713,O27K03,2023-01-20_16h11.12.936,t1_Paradigm,04.01.2021,60.02343413
M,left,Distractor,0,18,18,18,2195.044808,2197.046597,left,1,4,0.83921134,O27K03,2023-01-20_16h11.12.936,t1_Paradigm,04.01.2021,60.02343413
N,left,Distractor,0,19,19,19,2198.544423,2200.543881,left,1,4,0.58981132,O27K03,2023-01-20_16h11.12.936,t1_Paradigm,04.01.2021,60.02343413
R,left,Lure,0,20,20,20,2202.044465,2204.046427,left,1,4,0.943288255,O27K03,2023-01-20_16h11.12.936,t1_Paradigm,04.01.2021,60.02343413
F,right,Target,0,21,21,21,2205.544744,2207.546215,right,1,4,0.867521498,O27K03,2023-01-20_16h11.12.936,t1_Paradigm,04.01.2021,60.02343413
P,left,Distractor,0,22,22,22,2209.044772,2211.046677,left,1,4,0.662949424,O27K03,2023-01-20_16h11.12.936,t1_Paradigm,04.01.2021,60.02343413
L,left,Pretarget,0,23,23,23,2212.544718,2214.546447,left,1,4,1.083070463,O27K03,2023-01-20_16h11.12.936,t1_Paradigm,04.01.2021,60.02343413
T,left,Distractor,0,24,24,24,2216.044445,2218.047345,left,1,4,1.24658915,O27K03,2023-01-20_16h11.12.936,t1_Paradigm,04.01.2021,60.02343413
F,left,Distractor,0,25,25,25,2219.544654,2221.546045,right,0,4,0.963818317,O27K03,2023-01-20_16h11.12.936,t1_Paradigm,04.01.2021,60.02343413
V,left,Distractor,0,26,26,26,2223.044382,2225.057517,left,1,4,0.668385097,O27K03,2023-01-20_16h11.12.936,t1_Paradigm,04.01.2021,60.02343413
L,right,Target,0,27,27,27,2226.544482,2228.545915,right,1,4,1.196022694,O27K03,2023-01-20_16h11.12.936,t1_Paradigm,04.01.2021,60.02343413
S,left,Pretarget,0,28,28,28,2230.044676,2232.046595,left,1,4,0.703126378,O27K03,2023-01-20_16h11.12.936,t1_Paradigm,04.01.2021,60.02343413
W,left,Distractor,0,29,29,29,2233.54477,2235.545748,left,1,4,0.916004664,O27K03,2023-01-20_16h11.12.936,t1_Paradigm,04.01.2021,60.02343413
Q,left,Distractor,0,30,30,30,2237.044414,2239.046853,left,1,4,0.790994439,O27K03,2023-01-20_16h11.12.936,t1_Paradigm,04.01.2021,60.02343413
L,right,Target,0,31,31,31,2240.544482,2242.545596,right,1,4,1.019900968,O27K03,2023-01-20_16h11.12.936,t1_Paradigm,04.01.2021,60.02343413
S,right,Target,0,32,32,32,2244.044696,2246.046578,None,0,4,,O27K03,2023-01-20_16h11.12.936,t1_Paradigm,04.01.2021,60.02343413
Z,left,Pretarget,0,33,33,33,2247.544474,2249.546031,left,1,4,0.675856582,O27K03,2023-01-20_16h11.12.936,t1_Paradigm,04.01.2021,60.02343413
F,left,Distractor,0,34,34,34,2251.044373,2253.043941,left,1,4,0.66571089,O27K03,2023-01-20_16h11.12.936,t1_Paradigm,04.01.2021,60.02343413
V,left,Distractor,0,35,35,35,2254.544558,2256.547266,left,1,4,1.114399691,O27K03,2023-01-20_16h11.12.936,t1_Paradigm,04.01.2021,60.02343413
M,left,Distractor,0,36,36,36,2258.044528,2260.046761,left,1,4,1.039091039,O27K03,2023-01-20_16h11.12.936,t1_Paradigm,04.01.2021,60.02343413
Z,right,Target,0,37,37,37,2261.544624,2263.545523,right,1,4,0.772243867,O27K03,2023-01-20_16h11.12.936,t1_Paradigm,04.01.2021,60.02343413
H,left,Pretarget,0,38,38,38,2265.044483,2267.04584,left,1,4,1.096138343,O27K03,2023-01-20_16h11.12.936,t1_Paradigm,04.01.2021,60.02343413
L,left,Distractor,0,39,39,39,2268.544809,2270.545399,left,1,4,0.87650749,O27K03,2023-01-20_16h11.12.936,t1_Paradigm,04.01.2021,60.02343413
G,left,Distractor,0,40,40,40,2272.04479,2274.045183,left,1,4,0.688700863,O27K03,2023-01-20_16h11.12.936,t1_Paradigm,04.01.2021,60.02343413
K,left,Distractor,0,41,41,41,2275.544848,2277.544422,left,1,4,0.693536636,O27K03,2023-01-20_16h11.12.936,t1_Paradigm,04.01.2021,60.02343413
H,right,Target,0,42,42,42,2279.044818,2281.046761,right,1,4,0.807136567,O27K03,2023-01-20_16h11.12.936,t1_Paradigm,04.01.2021,60.02343413
B,left,Distractor,0,43,43,43,2282.544815,2284.545379,left,1,4,0.780565799,O27K03,2023-01-20_16h11.12.936,t1_Paradigm,04.01.2021,60.02343413
Z,left,Distractor,0,44,44,44,2286.044745,2288.046402,left,1,4,1.167359653,O27K03,2023-01-20_16h11.12.936,t1_Paradigm,04.01.2021,60.02343413
T,left,Pretarget,0,45,45,45,2289.544834,2291.561038,left,1,4,1.380939534,O27K03,2023-01-20_16h11.12.936,t1_Paradigm,04.01.2021,60.02343413
H,right,Target,0,46,46,46,2293.044762,2295.046672,right,1,4,0.887186035,O27K03,2023-01-20_16h11.12.936,t1_Paradigm,04.01.2021,60.02343413
F,left,Distractor,0,47,47,47,2296.54468,2298.546372,right,0,4,1.019275083,O27K03,2023-01-20_16h11.12.936,t1_Paradigm,04.01.2021,60.02343413
R,left,Distractor,0,48,48,48,2300.044848,2302.04672,left,1,4,0.686987458,O27K03,2023-01-20_16h11.12.936,t1_Paradigm,04.01.2021,60.02343413
T,right,Target,0,49,49,49,2303.544604,2305.54666,right,1,4,0.963180883,O27K03,2023-01-20_16h11.12.936,t1_Paradigm,04.01.2021,60.02343413
H,right,Target,0,50,50,50,2307.044398,2309.047231,right,1,4,1.366552515,O27K03,2023-01-20_16h11.12.936,t1_Paradigm,04.01.2021,60.02343413
Y,left,Pretarget,0,51,51,51,2310.544842,2312.546767,left,1,4,0.699027809,O27K03,2023-01-20_16h11.12.936,t1_Paradigm,04.01.2021,60.02343413
H,left,Distractor,0,52,52,52,2314.044854,2316.045472,left,1,4,1.232438242,O27K03,2023-01-20_16h11.12.936,t1_Paradigm,04.01.2021,60.02343413
S,left,Distractor,0,53,53,53,2317.544546,2319.544902,left,1,4,0.708978453,O27K03,2023-01-20_16h11.12.936,t1_Paradigm,04.01.2021,60.02343413
Q,left,Distractor,0,54,54,54,2321.044818,2323.045003,right,0,4,1.016787903,O27K03,2023-01-20_16h11.12.936,t1_Paradigm,04.01.2021,60.02343413
Y,right,Target,0,55,55,55,2324.544423,2326.546659,left,0,4,0.715068243,O27K03,2023-01-20_16h11.12.936,t1_Paradigm,04.01.2021,60.02343413
R,left,Distractor,0,56,56,56,2328.044712,2330.046601,left,1,4,0.655275834,O27K03,2023-01-20_16h11.12.936,t1_Paradigm,04.01.2021,60.02343413
H,left,Pretarget,0,57,57,57,2331.5444,2333.546653,left,1,4,0.691320214,O27K03,2023-01-20_16h11.12.936,t1_Paradigm,04.01.2021,60.02343413
J,left,Distractor,0,58,58,58,2335.04472,2337.045349,left,1,4,0.856671003,O27K03,2023-01-20_16h11.12.936,t1_Paradigm,04.01.2021,60.02343413
V,left,Distractor,0,59,59,59,2338.544768,2340.547163,left,1,4,0.778852394,O27K03,2023-01-20_16h11.12.936,t1_Paradigm,04.01.2021,60.02343413
Y,left,Lure,0,60,60,60,2342.044733,2344.045447,right,0,4,1.040504494,O27K03,2023-01-20_16h11.12.936,t1_Paradigm,04.01.2021,60.02343413
H,right,Target,0,61,61,61,2345.544788,2347.546835,right,1,4,0.914888273,O27K03,2023-01-20_16h11.12.936,t1_Paradigm,04.01.2021,60.02343413
L,left,Distractor,0,62,62,62,2349.044786,2351.046545,left,1,4,0.75926902,O27K03,2023-01-20_16h11.12.936,t1_Paradigm,04.01.2021,60.02343413
P,left,Distractor,0,63,63,63,2352.544707,2354.546697,left,1,4,0.747543376,O27K03,2023-01-20_16h11.12.936,t1_Paradigm,04.01.2021,60.02343413
