Letter,CorrAnswer,Stimulus,finaln_nback_run.thisRepN,finaln_nback_run.thisTrialN,finaln_nback_run.thisN,finaln_nback_run.thisIndex,finaln_fixcross.started,finaln_nback_trial.started,finaln_trial_resp.keys,finaln_trial_resp.corr,finaln_trial_resp.rt,finaln_level,finaln_money,Participant,date,expName,psychopyVersion,frameRate
T,left,Distractor,0,0,0,0,2696.387132,2698.378427,left,1,1.299877614,0,1.47,O27K03,2023-01-20_16h11.12.936,t1_Paradigm,04.01.2021,60.02343413
F,left,Distractor,0,1,1,1,2699.878336,2701.891173,left,1,1.035110204,0,1.47,O27K03,2023-01-20_16h11.12.936,t1_Paradigm,04.01.2021,60.02343413
G,left,Distractor,0,2,2,2,2703.378232,2705.380252,left,1,0.473951338,0,1.47,O27K03,2023-01-20_16h11.12.936,t1_Paradigm,04.01.2021,60.02343413
V,left,Distractor,0,3,3,3,2706.878357,2708.879687,left,1,0.478535923,0,1.47,O27K03,2023-01-20_16h11.12.936,t1_Paradigm,04.01.2021,60.02343413
H,left,Distractor,0,4,4,4,2710.377979,2712.381267,left,1,0.752879922,0,1.47,O27K03,2023-01-20_16h11.12.936,t1_Paradigm,04.01.2021,60.02343413
C,left,Pretarget,0,5,5,5,2713.878424,2715.879736,left,1,0.630545508,0,1.47,O27K03,2023-01-20_16h11.12.936,t1_Paradigm,04.01.2021,60.02343413
C,right,Target,0,6,6,6,2717.378437,2719.378068,right,1,0.524171328,0,1.47,O27K03,2023-01-20_16h11.12.936,t1_Paradigm,04.01.2021,60.02343413
C,right,Target,0,7,7,7,2720.878444,2722.878456,right,1,0.527682508,0,1.47,O27K03,2023-01-20_16h11.12.936,t1_Paradigm,04.01.2021,60.02343413
W,left,Distractor,0,8,8,8,2724.377959,2726.380652,left,1,0.849477654,0,1.47,O27K03,2023-01-20_16h11.12.936,t1_Paradigm,04.01.2021,60.02343413
R,left,Pretarget,0,9,9,9,2727.878368,2729.880098,left,1,0.67817085,0,1.47,O27K03,2023-01-20_16h11.12.936,t1_Paradigm,04.01.2021,60.02343413
R,right,Target,0,10,10,10,2731.378405,2733.378307,right,1,0.875906627,0,1.47,O27K03,2023-01-20_16h11.12.936,t1_Paradigm,04.01.2021,60.02343413
Z,left,Distractor,0,11,11,11,2734.878128,2736.88069,left,1,0.637493444,0,1.47,O27K03,2023-01-20_16h11.12.936,t1_Paradigm,04.01.2021,60.02343413
R,left,Lure,0,12,12,12,2738.378315,2740.378108,left,1,0.980183723,0,1.47,O27K03,2023-01-20_16h11.12.936,t1_Paradigm,04.01.2021,60.02343413
H,left,Pretarget,0,13,13,13,2741.878209,2743.88004,left,1,0.59808866,0,1.47,O27K03,2023-01-20_16h11.12.936,t1_Paradigm,04.01.2021,60.02343413
H,right,Target,0,14,14,14,2745.378321,2747.378386,right,1,0.491898299,0,1.47,O27K03,2023-01-20_16h11.12.936,t1_Paradigm,04.01.2021,60.02343413
K,left,Distractor,0,15,15,15,2748.878344,2750.878821,left,1,0.655317538,0,1.47,O27K03,2023-01-20_16h11.12.936,t1_Paradigm,04.01.2021,60.02343413
J,left,Distractor,0,16,16,16,2752.378349,2754.379707,left,1,0.59506574,0,1.47,O27K03,2023-01-20_16h11.12.936,t1_Paradigm,04.01.2021,60.02343413
H,left,Lure,0,17,17,17,2755.877492,2757.878435,left,1,1.016045567,0,1.47,O27K03,2023-01-20_16h11.12.936,t1_Paradigm,04.01.2021,60.02343413
S,left,Distractor,0,18,18,18,2759.378071,2761.379884,left,1,0.52240082,0,1.47,O27K03,2023-01-20_16h11.12.936,t1_Paradigm,04.01.2021,60.02343413
T,left,Pretarget,0,19,19,19,2762.878169,2764.878945,left,1,0.51117627,0,1.47,O27K03,2023-01-20_16h11.12.936,t1_Paradigm,04.01.2021,60.02343413
T,right,Target,0,20,20,20,2766.377488,2768.378332,right,1,0.675937424,0,1.47,O27K03,2023-01-20_16h11.12.936,t1_Paradigm,04.01.2021,60.02343413
X,left,Pretarget,0,21,21,21,2769.878377,2771.87896,left,1,0.487195017,0,1.47,O27K03,2023-01-20_16h11.12.936,t1_Paradigm,04.01.2021,60.02343413
X,right,Target,0,22,22,22,2773.378473,2775.378379,left,0,1.147936359,0,1.47,O27K03,2023-01-20_16h11.12.936,t1_Paradigm,04.01.2021,60.02343413
W,left,Distractor,0,23,23,23,2776.877907,2778.879497,left,1,1.198613813,0,1.47,O27K03,2023-01-20_16h11.12.936,t1_Paradigm,04.01.2021,60.02343413
K,left,Distractor,0,24,24,24,2780.3784,2782.378837,left,1,0.659466795,0,1.47,O27K03,2023-01-20_16h11.12.936,t1_Paradigm,04.01.2021,60.02343413
F,left,Pretarget,0,25,25,25,2783.878178,2785.880336,left,1,0.757640628,0,1.47,O27K03,2023-01-20_16h11.12.936,t1_Paradigm,04.01.2021,60.02343413
F,right,Target,0,26,26,26,2787.378404,2789.378356,right,1,0.859919767,0,1.47,O27K03,2023-01-20_16h11.12.936,t1_Paradigm,04.01.2021,60.02343413
Z,left,Distractor,0,27,27,27,2790.878389,2792.880388,left,1,0.701676673,0,1.47,O27K03,2023-01-20_16h11.12.936,t1_Paradigm,04.01.2021,60.02343413
F,left,Lure,0,28,28,28,2794.378335,2796.379599,left,1,0.77064531,0,1.47,O27K03,2023-01-20_16h11.12.936,t1_Paradigm,04.01.2021,60.02343413
P,left,Distractor,0,29,29,29,2797.878463,2799.880378,left,1,0.565725165,0,1.47,O27K03,2023-01-20_16h11.12.936,t1_Paradigm,04.01.2021,60.02343413
F,left,Lure,0,30,30,30,2801.378338,2803.380248,left,1,0.762136351,0,1.47,O27K03,2023-01-20_16h11.12.936,t1_Paradigm,04.01.2021,60.02343413
R,left,Distractor,0,31,31,31,2804.878499,2806.878991,left,1,0.575300151,0,1.47,O27K03,2023-01-20_16h11.12.936,t1_Paradigm,04.01.2021,60.02343413
V,left,Distractor,0,32,32,32,2808.378188,2810.378994,left,1,0.707341399,0,1.47,O27K03,2023-01-20_16h11.12.936,t1_Paradigm,04.01.2021,60.02343413
M,left,Pretarget,0,33,33,33,2811.878162,2813.880454,left,1,0.597851266,0,1.47,O27K03,2023-01-20_16h11.12.936,t1_Paradigm,04.01.2021,60.02343413
M,right,Target,0,34,34,34,2815.377559,2817.378265,right,1,0.716312955,0,1.47,O27K03,2023-01-20_16h11.12.936,t1_Paradigm,04.01.2021,60.02343413
M,right,Target,0,35,35,35,2818.878161,2820.878232,right,1,0.640060183,0,1.47,O27K03,2023-01-20_16h11.12.936,t1_Paradigm,04.01.2021,60.02343413
D,left,Distractor,0,36,36,36,2822.378175,2824.379472,left,1,0.706897088,0,1.47,O27K03,2023-01-20_16h11.12.936,t1_Paradigm,04.01.2021,60.02343413
M,left,Lure,0,37,37,37,2825.878508,2827.879505,left,1,1.110705332,0,1.47,O27K03,2023-01-20_16h11.12.936,t1_Paradigm,04.01.2021,60.02343413
F,left,Distractor,0,38,38,38,2829.378298,2831.379909,left,1,0.746518734,0,1.47,O27K03,2023-01-20_16h11.12.936,t1_Paradigm,04.01.2021,60.02343413
T,left,Pretarget,0,39,39,39,2832.878519,2834.878343,left,1,0.639916463,0,1.47,O27K03,2023-01-20_16h11.12.936,t1_Paradigm,04.01.2021,60.02343413
T,right,Target,0,40,40,40,2836.378397,2838.378523,right,1,0.963815109,0,1.47,O27K03,2023-01-20_16h11.12.936,t1_Paradigm,04.01.2021,60.02343413
Z,left,Distractor,0,41,41,41,2839.878337,2841.880248,left,1,0.565946198,0,1.47,O27K03,2023-01-20_16h11.12.936,t1_Paradigm,04.01.2021,60.02343413
S,left,Distractor,0,42,42,42,2843.378007,2845.378975,left,1,0.523379588,0,1.47,O27K03,2023-01-20_16h11.12.936,t1_Paradigm,04.01.2021,60.02343413
D,left,Distractor,0,43,43,43,2846.878305,2848.880319,left,1,0.430015222,0,1.47,O27K03,2023-01-20_16h11.12.936,t1_Paradigm,04.01.2021,60.02343413
Y,left,Pretarget,0,44,44,44,2850.37831,2852.379225,left,1,0.483056027,0,1.47,O27K03,2023-01-20_16h11.12.936,t1_Paradigm,04.01.2021,60.02343413
Y,right,Target,0,45,45,45,2853.87839,2855.878433,right,1,0.79155071,0,1.47,O27K03,2023-01-20_16h11.12.936,t1_Paradigm,04.01.2021,60.02343413
Z,left,Pretarget,0,46,46,46,2857.37844,2859.380064,left,1,0.522319015,0,1.47,O27K03,2023-01-20_16h11.12.936,t1_Paradigm,04.01.2021,60.02343413
Z,right,Target,0,47,47,47,2860.878194,2862.878451,left,0,0.863910547,0,1.47,O27K03,2023-01-20_16h11.12.936,t1_Paradigm,04.01.2021,60.02343413
H,left,Pretarget,0,48,48,48,2864.378484,2866.378363,left,1,0.56402363,0,1.47,O27K03,2023-01-20_16h11.12.936,t1_Paradigm,04.01.2021,60.02343413
H,right,Target,0,49,49,49,2867.878504,2869.878545,right,1,0.663852161,0,1.47,O27K03,2023-01-20_16h11.12.936,t1_Paradigm,04.01.2021,60.02343413
Z,left,Lure,0,50,50,50,2871.378079,2873.379086,left,1,0.939258979,0,1.47,O27K03,2023-01-20_16h11.12.936,t1_Paradigm,04.01.2021,60.02343413
R,left,Distractor,0,51,51,51,2874.878121,2876.878661,left,1,0.943879494,0,1.47,O27K03,2023-01-20_16h11.12.936,t1_Paradigm,04.01.2021,60.02343413
H,left,Lure,0,52,52,52,2878.378126,2880.380386,left,1,0.914073114,0,1.47,O27K03,2023-01-20_16h11.12.936,t1_Paradigm,04.01.2021,60.02343413
L,left,Distractor,0,53,53,53,2881.878029,2883.8913,left,1,0.667175352,0,1.47,O27K03,2023-01-20_16h11.12.936,t1_Paradigm,04.01.2021,60.02343413
N,left,Pretarget,0,54,54,54,2885.378523,2887.379048,left,1,0.651175018,0,1.47,O27K03,2023-01-20_16h11.12.936,t1_Paradigm,04.01.2021,60.02343413
N,right,Target,0,55,55,55,2888.87815,2890.878399,right,1,0.495940087,0,1.47,O27K03,2023-01-20_16h11.12.936,t1_Paradigm,04.01.2021,60.02343413
W,left,Distractor,0,56,56,56,2892.378562,2894.379973,left,1,0.642648415,0,1.47,O27K03,2023-01-20_16h11.12.936,t1_Paradigm,04.01.2021,60.02343413
R,left,Pretarget,0,57,57,57,2895.878441,2897.879958,left,1,0.694378742,0,1.47,O27K03,2023-01-20_16h11.12.936,t1_Paradigm,04.01.2021,60.02343413
R,right,Target,0,58,58,58,2899.378389,2901.37812,right,1,0.572000699,0,1.47,O27K03,2023-01-20_16h11.12.936,t1_Paradigm,04.01.2021,60.02343413
Q,left,Distractor,0,59,59,59,2902.878076,2904.878621,left,1,0.67143721,0,1.47,O27K03,2023-01-20_16h11.12.936,t1_Paradigm,04.01.2021,60.02343413
R,left,Lure,0,60,60,60,2906.378546,2908.391295,left,1,0.551148552,0,1.47,O27K03,2023-01-20_16h11.12.936,t1_Paradigm,04.01.2021,60.02343413
Z,left,Distractor,0,61,61,61,2909.878294,2911.880262,left,1,0.66210796,0,1.47,O27K03,2023-01-20_16h11.12.936,t1_Paradigm,04.01.2021,60.02343413
K,left,Pretarget,0,62,62,62,2913.37856,2915.380169,left,1,0.634014343,0,1.47,O27K03,2023-01-20_16h11.12.936,t1_Paradigm,04.01.2021,60.02343413
K,right,Target,0,63,63,63,2916.878382,2918.878175,left,0,1.312069383,0,1.47,O27K03,2023-01-20_16h11.12.936,t1_Paradigm,04.01.2021,60.02343413
