Letter,CorrAnswer,Stimulus,nback_run.thisRepN,nback_run.thisTrialN,nback_run.thisN,nback_run.thisIndex,fixcross.started,nback_trial.started,trial_resp.keys,trial_resp.corr,currentlevel,trial_resp.rt,Participant,date,expName,psychopyVersion,frameRate,
H,left,Distractor,0,0,0,0,283.39272414753214,285.3776188667398,None,0,1,,P09M12,2022-11-14_09h04.43.466,t1_Paradigm,2021.1.4,60.03042744352769,
Q,left,Pretarget,0,1,1,1,286.8781206010026,288.8800848713727,left,1,1,0.520005209808005,P09M12,2022-11-14_09h04.43.466,t1_Paradigm,2021.1.4,60.03042744352769,
Q,right,Target,0,2,2,2,290.3752115688985,292.3750088220404,None,0,1,,P09M12,2022-11-14_09h04.43.466,t1_Paradigm,2021.1.4,60.03042744352769,
T,left,Distractor,0,3,3,3,293.8747313283675,295.87791175892926,left,1,1,1.2994002928317059,P09M12,2022-11-14_09h04.43.466,t1_Paradigm,2021.1.4,60.03042744352769,
Q,left,Lure,0,4,4,4,297.3740053535439,299.3750502055045,left,1,1,1.2306197123834863,P09M12,2022-11-14_09h04.43.466,t1_Paradigm,2021.1.4,60.03042744352769,
L,left,Distractor,0,5,5,5,300.87350843130844,302.87672415009,left,1,1,1.1243226266815327,P09M12,2022-11-14_09h04.43.466,t1_Paradigm,2021.1.4,60.03042744352769,
V,left,Pretarget,0,6,6,6,304.37288767955033,306.3752211929532,left,1,1,0.6833841911284253,P09M12,2022-11-14_09h04.43.466,t1_Paradigm,2021.1.4,60.03042744352769,
V,right,Target,0,7,7,7,307.87227462700685,309.871584581997,left,0,1,0.4075346113240812,P09M12,2022-11-14_09h04.43.466,t1_Paradigm,2021.1.4,60.03042744352769,
K,left,Distractor,0,8,8,8,311.3715727123199,313.37344972457504,left,1,1,1.3163556384970434,P09M12,2022-11-14_09h04.43.466,t1_Paradigm,2021.1.4,60.03042744352769,
G,left,Pretarget,0,9,9,9,314.8711502161459,316.87275037629297,left,1,1,0.7765460408700164,P09M12,2022-11-14_09h04.43.466,t1_Paradigm,2021.1.4,60.03042744352769,
G,right,Target,0,10,10,10,318.3704723616247,320.37000046196044,right,1,1,0.5896294994163327,P09M12,2022-11-14_09h04.43.466,t1_Paradigm,2021.1.4,60.03042744352769,
G,right,Target,0,11,11,11,321.86993918879307,323.869517334213,right,1,1,0.7590806200751103,P09M12,2022-11-14_09h04.43.466,t1_Paradigm,2021.1.4,60.03042744352769,
P,left,Pretarget,0,12,12,12,325.36866977546015,327.3728347472206,left,1,1,0.655811904813163,P09M12,2022-11-14_09h04.43.466,t1_Paradigm,2021.1.4,60.03042744352769,
P,right,Target,0,13,13,13,328.86866400102735,330.86822386074346,left,0,1,0.4786249658209272,P09M12,2022-11-14_09h04.43.466,t1_Paradigm,2021.1.4,60.03042744352769,
G,left,Lure,0,14,14,14,332.3680294547521,334.36995490809204,left,1,1,1.3636582073231693,P09M12,2022-11-14_09h04.43.466,t1_Paradigm,2021.1.4,60.03042744352769,
Y,left,Distractor,0,15,15,15,335.86761369541637,337.86890909369686,left,1,1,0.9788630008988548,P09M12,2022-11-14_09h04.43.466,t1_Paradigm,2021.1.4,60.03042744352769,
B,left,Distractor,0,16,16,16,339.3666018860531,341.36871212130063,left,1,1,0.8380049583211076,P09M12,2022-11-14_09h04.43.466,t1_Paradigm,2021.1.4,60.03042744352769,
T,left,Pretarget,0,17,17,17,342.866357114166,344.86759316409007,left,1,1,0.9104211872909218,P09M12,2022-11-14_09h04.43.466,t1_Paradigm,2021.1.4,60.03042744352769,
T,right,Target,0,18,18,18,346.3651008537272,348.3656991493481,right,1,1,0.39254385684034787,P09M12,2022-11-14_09h04.43.466,t1_Paradigm,2021.1.4,60.03042744352769,
S,left,Distractor,0,19,19,19,349.86426356062293,351.86774105380755,left,1,1,0.9266027586418204,P09M12,2022-11-14_09h04.43.466,t1_Paradigm,2021.1.4,60.03042744352769,
T,left,Lure,0,20,20,20,353.3646677710931,355.3656539162912,left,1,1,1.2040396665106528,P09M12,2022-11-14_09h04.43.466,t1_Paradigm,2021.1.4,60.03042744352769,
J,left,Distractor,0,21,21,21,356.8641342774208,358.8657995603862,left,1,1,1.226705286942888,P09M12,2022-11-14_09h04.43.466,t1_Paradigm,2021.1.4,60.03042744352769,
P,left,Distractor,0,22,22,22,360.36366847300087,362.3638741070463,left,1,1,1.2348992104525678,P09M12,2022-11-14_09h04.43.466,t1_Paradigm,2021.1.4,60.03042744352769,
F,left,Distractor,0,23,23,23,363.8624558416195,365.8646636006597,left,1,1,0.5717046902282164,P09M12,2022-11-14_09h04.43.466,t1_Paradigm,2021.1.4,60.03042744352769,
L,left,Distractor,0,24,24,24,367.36207216247567,369.3634958815528,left,1,1,0.7830390723829623,P09M12,2022-11-14_09h04.43.466,t1_Paradigm,2021.1.4,60.03042744352769,
W,left,Pretarget,0,25,25,25,370.86160539562115,372.864335099468,left,1,1,0.7929040532617364,P09M12,2022-11-14_09h04.43.466,t1_Paradigm,2021.1.4,60.03042744352769,
W,right,Target,0,26,26,26,374.36128234807984,376.3607417967869,right,1,1,0.4193250455427915,P09M12,2022-11-14_09h04.43.466,t1_Paradigm,2021.1.4,60.03042744352769,
V,left,Distractor,0,27,27,27,377.8603472103714,379.8624000220734,left,1,1,0.6361666347947903,P09M12,2022-11-14_09h04.43.466,t1_Paradigm,2021.1.4,60.03042744352769,
W,left,Lure,0,28,28,28,381.3765698443749,383.3758127517649,left,1,1,0.9880299167125486,P09M12,2022-11-14_09h04.43.466,t1_Paradigm,2021.1.4,60.03042744352769,
R,left,Pretarget,0,29,29,29,384.87577810513903,386.8777962702152,left,1,1,1.0167654308897909,P09M12,2022-11-14_09h04.43.466,t1_Paradigm,2021.1.4,60.03042744352769,
R,right,Target,0,30,30,30,388.3756558795867,390.3752378746576,right,1,1,0.6668667401536368,P09M12,2022-11-14_09h04.43.466,t1_Paradigm,2021.1.4,60.03042744352769,
G,left,Distractor,0,31,31,31,391.8746742256044,393.87378271698253,left,1,1,0.6585974282061215,P09M12,2022-11-14_09h04.43.466,t1_Paradigm,2021.1.4,60.03042744352769,
R,left,Lure,0,32,32,32,395.3741240502568,397.3733554087812,left,1,1,0.9466621839965228,P09M12,2022-11-14_09h04.43.466,t1_Paradigm,2021.1.4,60.03042744352769,
S,left,Distractor,0,33,33,33,398.8736871180008,400.8748282105662,left,1,1,0.6168354298861232,P09M12,2022-11-14_09h04.43.466,t1_Paradigm,2021.1.4,60.03042744352769,
R,left,Lure,0,34,34,34,402.373217463959,404.37469988976954,left,1,1,0.8474933177058119,P09M12,2022-11-14_09h04.43.466,t1_Paradigm,2021.1.4,60.03042744352769,
P,left,Pretarget,0,35,35,35,405.87246390015935,407.8738892232359,left,1,1,0.9935307078121696,P09M12,2022-11-14_09h04.43.466,t1_Paradigm,2021.1.4,60.03042744352769,
P,right,Target,0,36,36,36,409.371993925306,411.3713888928178,None,0,1,,P09M12,2022-11-14_09h04.43.466,t1_Paradigm,2021.1.4,60.03042744352769,
Y,left,Pretarget,0,37,37,37,412.8713629078411,414.8728360304376,left,1,1,1.3367365073645487,P09M12,2022-11-14_09h04.43.466,t1_Paradigm,2021.1.4,60.03042744352769,
Y,right,Target,0,38,38,38,416.37061543931486,418.37094714853447,right,1,1,1.1822902564890683,P09M12,2022-11-14_09h04.43.466,t1_Paradigm,2021.1.4,60.03042744352769,
J,left,Distractor,0,39,39,39,419.8699221862771,421.8712820657529,left,1,1,0.992355289432453,P09M12,2022-11-14_09h04.43.466,t1_Paradigm,2021.1.4,60.03042744352769,
Y,left,Lure,0,40,40,40,423.3695227878343,425.37170392033295,left,1,1,1.0434099579288159,P09M12,2022-11-14_09h04.43.466,t1_Paradigm,2021.1.4,60.03042744352769,
T,left,Distractor,0,41,41,41,426.86885936939507,428.8707116798905,left,1,1,0.5778977719601244,P09M12,2022-11-14_09h04.43.466,t1_Paradigm,2021.1.4,60.03042744352769,
V,left,Distractor,0,42,42,42,430.36825048728497,432.37008290804806,left,1,1,0.6582519244693685,P09M12,2022-11-14_09h04.43.466,t1_Paradigm,2021.1.4,60.03042744352769,
N,left,Pretarget,0,43,43,43,433.8679059460119,435.87055544933537,left,1,1,0.5333188117074315,P09M12,2022-11-14_09h04.43.466,t1_Paradigm,2021.1.4,60.03042744352769,
N,right,Target,0,44,44,44,437.36702951506595,439.3666512895725,right,1,1,0.6902451825444587,P09M12,2022-11-14_09h04.43.466,t1_Paradigm,2021.1.4,60.03042744352769,
N,right,Target,0,45,45,45,440.8666734248982,442.86645848758053,right,1,1,0.5744270156428684,P09M12,2022-11-14_09h04.43.466,t1_Paradigm,2021.1.4,60.03042744352769,
X,left,Distractor,0,46,46,46,444.3660812244925,446.3687948882289,left,1,1,0.5296084163128398,P09M12,2022-11-14_09h04.43.466,t1_Paradigm,2021.1.4,60.03042744352769,
Z,left,Distractor,0,47,47,47,447.8653279815044,449.86473481869325,left,1,1,1.0372008361446206,P09M12,2022-11-14_09h04.43.466,t1_Paradigm,2021.1.4,60.03042744352769,
H,left,Pretarget,0,48,48,48,451.36493435749435,453.36671833717264,left,1,1,0.7680993254180066,P09M12,2022-11-14_09h04.43.466,t1_Paradigm,2021.1.4,60.03042744352769,
H,right,Target,0,49,49,49,454.8639004128054,456.86401012708666,right,1,1,0.7326863185735419,P09M12,2022-11-14_09h04.43.466,t1_Paradigm,2021.1.4,60.03042744352769,
K,left,Distractor,0,50,50,50,458.36371659330325,460.3631891948753,left,1,1,0.6006439136981498,P09M12,2022-11-14_09h04.43.466,t1_Paradigm,2021.1.4,60.03042744352769,
V,left,Pretarget,0,51,51,51,461.86292132525705,463.8650623574795,left,1,1,0.8700703967770096,P09M12,2022-11-14_09h04.43.466,t1_Paradigm,2021.1.4,60.03042744352769,
V,right,Target,0,52,52,52,465.3626656460983,467.3620137765247,right,1,1,1.4013748930301517,P09M12,2022-11-14_09h04.43.466,t1_Paradigm,2021.1.4,60.03042744352769,
R,left,Distractor,0,53,53,53,468.8620458567166,470.8640617761994,left,1,1,0.6390843285480514,P09M12,2022-11-14_09h04.43.466,t1_Paradigm,2021.1.4,60.03042744352769,
V,left,Lure,0,54,54,54,472.3613862878992,474.36335119986325,left,1,1,0.9071567066421267,P09M12,2022-11-14_09h04.43.466,t1_Paradigm,2021.1.4,60.03042744352769,
Y,left,Distractor,0,55,55,55,475.86067346596974,477.862047460716,left,1,1,0.6052695570688229,P09M12,2022-11-14_09h04.43.466,t1_Paradigm,2021.1.4,60.03042744352769,
Q,left,Distractor,0,56,56,56,479.3603497767763,481.36154925529263,left,1,1,0.43693258153507486,P09M12,2022-11-14_09h04.43.466,t1_Paradigm,2021.1.4,60.03042744352769,
Z,left,Pretarget,0,57,57,57,482.87606875170604,484.8782646410691,left,1,1,0.7323334364045877,P09M12,2022-11-14_09h04.43.466,t1_Paradigm,2021.1.4,60.03042744352769,
Z,right,Target,0,58,58,58,486.3748134536727,488.3754531327577,right,1,1,0.5462978171126451,P09M12,2022-11-14_09h04.43.466,t1_Paradigm,2021.1.4,60.03042744352769,
B,left,Distractor,0,59,59,59,489.8748192281055,491.87441694244626,left,1,1,0.6515599957492668,P09M12,2022-11-14_09h04.43.466,t1_Paradigm,2021.1.4,60.03042744352769,
S,left,Pretarget,0,60,60,60,493.37431973946514,495.3764351075515,left,1,1,0.6193668780906592,P09M12,2022-11-14_09h04.43.466,t1_Paradigm,2021.1.4,60.03042744352769,
S,right,Target,0,61,61,61,496.8739213034278,498.87341186992126,right,1,1,0.6695040530175902,P09M12,2022-11-14_09h04.43.466,t1_Paradigm,2021.1.4,60.03042744352769,
T,left,Distractor,0,62,62,62,500.37338363935123,502.3746585063345,left,1,1,0.5484590598789509,P09M12,2022-11-14_09h04.43.466,t1_Paradigm,2021.1.4,60.03042744352769,
D,left,Distractor,0,63,63,63,503.872605373821,505.8765974333219,left,1,1,0.4881668991292827,P09M12,2022-11-14_09h04.43.466,t1_Paradigm,2021.1.4,60.03042744352769,
R,left,Distractor,0,0,0,0,554.3477470720536,556.3489385304856,None,0,1,,P09M12,2022-11-14_09h04.43.466,t1_Paradigm,2021.1.4,60.03042744352769,
V,left,Distractor,0,1,1,1,557.8470987312903,559.848199402797,left,1,1,1.0754170104628429,P09M12,2022-11-14_09h04.43.466,t1_Paradigm,2021.1.4,60.03042744352769,
N,left,Pretarget,0,2,2,2,561.346294160001,563.3477149918326,None,0,1,,P09M12,2022-11-14_09h04.43.466,t1_Paradigm,2021.1.4,60.03042744352769,
N,right,Target,0,3,3,3,564.8456641049706,566.8453519646428,right,1,1,0.997918636945542,P09M12,2022-11-14_09h04.43.466,t1_Paradigm,2021.1.4,60.03042744352769,
S,left,Distractor,0,4,4,4,568.3452043957659,570.346102641226,left,1,1,0.6125463077623863,P09M12,2022-11-14_09h04.43.466,t1_Paradigm,2021.1.4,60.03042744352769,
N,left,Lure,0,5,5,5,571.8444055988803,573.8443234736042,left,1,1,0.6372547950304579,P09M12,2022-11-14_09h04.43.466,t1_Paradigm,2021.1.4,60.03042744352769,
Z,left,Distractor,0,6,6,6,575.3443735186884,577.3459117640741,left,1,1,0.45471784184337594,P09M12,2022-11-14_09h04.43.466,t1_Paradigm,2021.1.4,60.03042744352769,
L,left,Pretarget,0,7,7,7,578.8433286667278,580.8440264109813,left,1,1,0.6956879084464163,P09M12,2022-11-14_09h04.43.466,t1_Paradigm,2021.1.4,60.03042744352769,
L,right,Target,0,8,8,8,582.3425196042226,584.3424323460786,right,1,1,0.4631892590550706,P09M12,2022-11-14_09h04.43.466,t1_Paradigm,2021.1.4,60.03042744352769,
H,left,Distractor,0,9,9,9,585.8423187821754,587.8443051878712,left,1,1,0.7206450172525365,P09M12,2022-11-14_09h04.43.466,t1_Paradigm,2021.1.4,60.03042744352769,
L,left,Lure,0,10,10,10,589.3416226419504,591.343698230572,left,1,1,1.237708793953061,P09M12,2022-11-14_09h04.43.466,t1_Paradigm,2021.1.4,60.03042744352769,
X,left,Pretarget,0,11,11,11,592.8412527572946,594.8432436542062,left,1,1,0.8939784831891302,P09M12,2022-11-14_09h04.43.466,t1_Paradigm,2021.1.4,60.03042744352769,
X,right,Target,0,12,12,12,596.3400436547236,598.3400824717537,right,1,1,0.42683116960688494,P09M12,2022-11-14_09h04.43.466,t1_Paradigm,2021.1.4,60.03042744352769,
X,right,Target,0,13,13,13,599.8398370582727,601.839568226249,right,1,1,0.7112038157647476,P09M12,2022-11-14_09h04.43.466,t1_Paradigm,2021.1.4,60.03042744352769,
R,left,Distractor,0,14,14,14,603.3391736398335,605.3410249878943,left,1,1,0.6146927936351858,P09M12,2022-11-14_09h04.43.466,t1_Paradigm,2021.1.4,60.03042744352769,
T,left,Distractor,0,15,15,15,606.8386699807597,608.8380874044087,left,1,1,0.8891664538823534,P09M12,2022-11-14_09h04.43.466,t1_Paradigm,2021.1.4,60.03042744352769,
V,left,Pretarget,0,16,16,16,610.3382834143995,612.3399756447179,left,1,1,0.7144002864079084,P09M12,2022-11-14_09h04.43.466,t1_Paradigm,2021.1.4,60.03042744352769,
V,right,Target,0,17,17,17,613.8376183919609,615.8371881965431,right,1,1,0.6136277311306912,P09M12,2022-11-14_09h04.43.466,t1_Paradigm,2021.1.4,60.03042744352769,
N,left,Distractor,0,18,18,18,617.337118582509,619.3390504518757,left,1,1,0.5978494078444783,P09M12,2022-11-14_09h04.43.466,t1_Paradigm,2021.1.4,60.03042744352769,
B,left,Distractor,0,19,19,19,620.8365382517804,622.8356913346215,left,1,1,0.4691138295165729,P09M12,2022-11-14_09h04.43.466,t1_Paradigm,2021.1.4,60.03042744352769,
V,left,Lure,0,20,20,20,624.3357240564364,626.3480094880506,left,1,1,0.870836151036201,P09M12,2022-11-14_09h04.43.466,t1_Paradigm,2021.1.4,60.03042744352769,
P,left,Distractor,0,21,21,21,627.8351244775695,629.8372533193324,left,1,1,0.5379572871315759,P09M12,2022-11-14_09h04.43.466,t1_Paradigm,2021.1.4,60.03042744352769,
K,left,Pretarget,0,22,22,22,631.3343943323416,633.3366582317103,left,1,1,0.4066158345376607,P09M12,2022-11-14_09h04.43.466,t1_Paradigm,2021.1.4,60.03042744352769,
K,right,Target,0,23,23,23,634.8341075353965,636.8334826131759,right,1,1,1.10132722184062,P09M12,2022-11-14_09h04.43.466,t1_Paradigm,2021.1.4,60.03042744352769,
J,left,Pretarget,0,24,24,24,638.3333273450262,640.33461632728,left,1,1,0.6423250699008349,P09M12,2022-11-14_09h04.43.466,t1_Paradigm,2021.1.4,60.03042744352769,
J,right,Target,0,25,25,25,641.8327328989981,643.8326318463951,right,1,1,0.8918284684768878,P09M12,2022-11-14_09h04.43.466,t1_Paradigm,2021.1.4,60.03042744352769,
H,left,Distractor,0,26,26,26,645.3321708540025,647.3342634451401,left,1,1,0.6031195423565805,P09M12,2022-11-14_09h04.43.466,t1_Paradigm,2021.1.4,60.03042744352769,
J,left,Lure,0,27,27,27,648.8474615582963,650.8503891969449,left,1,1,1.0105572714819573,P09M12,2022-11-14_09h04.43.466,t1_Paradigm,2021.1.4,60.03042744352769,
V,left,Distractor,0,28,28,28,652.3479081146361,654.3494492472091,left,1,1,1.0376756230252795,P09M12,2022-11-14_09h04.43.466,t1_Paradigm,2021.1.4,60.03042744352769,
Z,left,Pretarget,0,29,29,29,655.847120866616,657.8461517239339,left,1,1,0.4846679122420028,P09M12,2022-11-14_09h04.43.466,t1_Paradigm,2021.1.4,60.03042744352769,
Z,right,Target,0,30,30,30,659.346481187531,661.346334901842,left,0,1,0.7562700741982553,P09M12,2022-11-14_09h04.43.466,t1_Paradigm,2021.1.4,60.03042744352769,
T,left,Distractor,0,31,31,31,662.8459140096675,664.8480518338911,left,1,1,0.8957303826173302,P09M12,2022-11-14_09h04.43.466,t1_Paradigm,2021.1.4,60.03042744352769,
Z,left,Lure,0,32,32,32,666.3454215786769,668.3447934484575,left,1,1,0.9259290745540056,P09M12,2022-11-14_09h04.43.466,t1_Paradigm,2021.1.4,60.03042744352769,
F,left,Distractor,0,33,33,33,669.8449888168543,671.8464975484239,left,1,1,0.5806717464583926,P09M12,2022-11-14_09h04.43.466,t1_Paradigm,2021.1.4,60.03042744352769,
Y,left,Pretarget,0,34,34,34,673.344340476091,675.3460808266827,left,1,1,0.4896676106727682,P09M12,2022-11-14_09h04.43.466,t1_Paradigm,2021.1.4,60.03042744352769,
Y,right,Target,0,35,35,35,676.8437967167993,678.843190401094,right,1,1,0.49952938355272636,P09M12,2022-11-14_09h04.43.466,t1_Paradigm,2021.1.4,60.03042744352769,
Y,right,Target,0,36,36,36,680.3427887570579,682.3428599750914,right,1,1,0.8404109729453921,P09M12,2022-11-14_09h04.43.466,t1_Paradigm,2021.1.4,60.03042744352769,
W,left,Distractor,0,37,37,37,683.8425523260084,685.8432895288861,left,1,1,0.8876885192876216,P09M12,2022-11-14_09h04.43.466,t1_Paradigm,2021.1.4,60.03042744352769,
Q,left,Distractor,0,38,38,38,687.3413345617882,689.3431775690115,left,1,1,1.229163913114462,P09M12,2022-11-14_09h04.43.466,t1_Paradigm,2021.1.4,60.03042744352769,
P,left,Pretarget,0,39,39,39,690.841371133225,692.8433485564601,left,1,1,0.71758232099819,P09M12,2022-11-14_09h04.43.466,t1_Paradigm,2021.1.4,60.03042744352769,
P,right,Target,0,40,40,40,694.3409162360476,696.340484115819,right,1,1,0.388427326164674,P09M12,2022-11-14_09h04.43.466,t1_Paradigm,2021.1.4,60.03042744352769,
J,left,Distractor,0,41,41,41,697.8402537800139,699.8401238552178,left,1,1,0.6727088645275217,P09M12,2022-11-14_09h04.43.466,t1_Paradigm,2021.1.4,60.03042744352769,
P,left,Lure,0,42,42,42,701.3395396748674,703.3407048275694,left,1,1,0.8950307135819457,P09M12,2022-11-14_09h04.43.466,t1_Paradigm,2021.1.4,60.03042744352769,
L,left,Distractor,0,43,43,43,704.839041469415,706.8408989127493,left,1,1,0.7914027001243085,P09M12,2022-11-14_09h04.43.466,t1_Paradigm,2021.1.4,60.03042744352769,
Z,left,Distractor,0,44,44,44,708.338269940723,710.3375449283049,left,1,1,0.5652851223712787,P09M12,2022-11-14_09h04.43.466,t1_Paradigm,2021.1.4,60.03042744352769,
F,left,Pretarget,0,45,45,45,711.8377239358088,713.8389593441389,left,1,1,0.5583830683317501,P09M12,2022-11-14_09h04.43.466,t1_Paradigm,2021.1.4,60.03042744352769,
F,right,Target,0,46,46,46,715.3369219309243,717.3370143218781,right,1,1,0.7666204283887055,P09M12,2022-11-14_09h04.43.466,t1_Paradigm,2021.1.4,60.03042744352769,
G,left,Pretarget,0,47,47,47,718.8361042067409,720.8355161767686,left,1,1,0.49771877730381675,P09M12,2022-11-14_09h04.43.466,t1_Paradigm,2021.1.4,60.03042744352769,
G,right,Target,0,48,48,48,722.3360304223024,724.3355659010704,right,1,1,0.4922738057503011,P09M12,2022-11-14_09h04.43.466,t1_Paradigm,2021.1.4,60.03042744352769,
V,left,Distractor,0,49,49,49,725.8355078359018,727.8363399961672,left,1,1,0.6491777204209939,P09M12,2022-11-14_09h04.43.466,t1_Paradigm,2021.1.4,60.03042744352769,
G,left,Lure,0,50,50,50,729.3348819513049,731.3340831544483,left,1,1,0.8050319711328484,P09M12,2022-11-14_09h04.43.466,t1_Paradigm,2021.1.4,60.03042744352769,
Q,left,Pretarget,0,51,51,51,732.8343083574146,734.836129870906,left,1,1,0.6308801394188777,P09M12,2022-11-14_09h04.43.466,t1_Paradigm,2021.1.4,60.03042744352769,
Q,right,Target,0,52,52,52,736.3335904026462,738.333231425233,right,1,1,0.4404601198330056,P09M12,2022-11-14_09h04.43.466,t1_Paradigm,2021.1.4,60.03042744352769,
Y,left,Distractor,0,53,53,53,739.8329725380754,741.8341883774847,left,1,1,0.5115588151966222,P09M12,2022-11-14_09h04.43.466,t1_Paradigm,2021.1.4,60.03042744352769,
V,left,Distractor,0,54,54,54,743.3489487961633,745.3509255778044,left,1,1,0.8153188065625727,P09M12,2022-11-14_09h04.43.466,t1_Paradigm,2021.1.4,60.03042744352769,
B,left,Distractor,0,55,55,55,746.8483097586723,748.8493844452023,left,1,1,0.4891254553804174,P09M12,2022-11-14_09h04.43.466,t1_Paradigm,2021.1.4,60.03042744352769,
J,left,Pretarget,0,56,56,56,750.3477512424579,752.3492349515145,left,1,1,0.5981333175732289,P09M12,2022-11-14_09h04.43.466,t1_Paradigm,2021.1.4,60.03042744352769,
J,right,Target,0,57,57,57,753.8471863102168,755.8468918140279,right,1,1,0.7331620678596664,P09M12,2022-11-14_09h04.43.466,t1_Paradigm,2021.1.4,60.03042744352769,
H,left,Distractor,0,58,58,58,757.3464991524525,759.3469251774368,left,1,1,0.5607541155768558,P09M12,2022-11-14_09h04.43.466,t1_Paradigm,2021.1.4,60.03042744352769,
J,left,Lure,0,59,59,59,760.8464208767691,762.8459624507814,left,1,1,0.6012659486441407,P09M12,2022-11-14_09h04.43.466,t1_Paradigm,2021.1.4,60.03042744352769,
D,left,Pretarget,0,60,60,60,764.345622400695,766.3470105107699,left,1,1,0.5910731081967242,P09M12,2022-11-14_09h04.43.466,t1_Paradigm,2021.1.4,60.03042744352769,
D,right,Target,0,61,61,61,767.8449653983116,769.8446372179023,right,1,1,0.8654482822457794,P09M12,2022-11-14_09h04.43.466,t1_Paradigm,2021.1.4,60.03042744352769,
R,left,Distractor,0,62,62,62,771.3443090374931,773.3461879745591,left,1,1,0.6382040480093565,P09M12,2022-11-14_09h04.43.466,t1_Paradigm,2021.1.4,60.03042744352769,
F,left,Distractor,0,63,63,63,774.8437896591495,776.845098851918,left,1,1,0.6988484493049327,P09M12,2022-11-14_09h04.43.466,t1_Paradigm,2021.1.4,60.03042744352769,
F,left,Distractor,0,0,0,0,1039.6779331243306,1041.6656720736646,None,0,2,,P09M12,2022-11-14_09h04.43.466,t1_Paradigm,2021.1.4,60.03042744352769,
N,left,Pretarget,0,1,1,1,1043.1654099784791,1045.1674300683953,None,0,2,,P09M12,2022-11-14_09h04.43.466,t1_Paradigm,2021.1.4,60.03042744352769,
V,left,Distractor,0,2,2,2,1046.664758429717,1048.6648748808366,None,0,2,,P09M12,2022-11-14_09h04.43.466,t1_Paradigm,2021.1.4,60.03042744352769,
N,right,Target,0,3,3,3,1050.1642528458324,1052.1656069508754,left,0,2,0.49931861663935706,P09M12,2022-11-14_09h04.43.466,t1_Paradigm,2021.1.4,60.03042744352769,
N,left,Lure,0,4,4,4,1053.6636304900458,1055.6632557933626,None,0,2,,P09M12,2022-11-14_09h04.43.466,t1_Paradigm,2021.1.4,60.03042744352769,
X,left,Distractor,0,5,5,5,1057.1630613873713,1059.164253166644,None,0,2,,P09M12,2022-11-14_09h04.43.466,t1_Paradigm,2021.1.4,60.03042744352769,
G,left,Pretarget,0,6,6,6,1060.6625991117617,1062.6634630314365,left,1,2,0.9876786385430023,P09M12,2022-11-14_09h04.43.466,t1_Paradigm,2021.1.4,60.03042744352769,
H,left,Pretarget,0,7,7,7,1064.1622070917801,1066.161729417654,None,0,2,,P09M12,2022-11-14_09h04.43.466,t1_Paradigm,2021.1.4,60.03042744352769,
G,right,Target,0,8,8,8,1067.6610618288105,1069.6628509412985,None,0,2,,P09M12,2022-11-14_09h04.43.466,t1_Paradigm,2021.1.4,60.03042744352769,
H,right,Target,0,9,9,9,1071.1606941897771,1073.1621541594504,None,0,2,,P09M12,2022-11-14_09h04.43.466,t1_Paradigm,2021.1.4,60.03042744352769,
T,left,Pretarget,0,10,10,10,1074.6601061597758,1076.6617021494894,None,0,2,,P09M12,2022-11-14_09h04.43.466,t1_Paradigm,2021.1.4,60.03042744352769,
K,left,Distractor,0,11,11,11,1078.1587626411929,1080.1607987711905,None,0,2,,P09M12,2022-11-14_09h04.43.466,t1_Paradigm,2021.1.4,60.03042744352769,
T,right,Target,0,12,12,12,1081.6589278542087,1083.660519031895,right,1,2,1.1807574647536967,P09M12,2022-11-14_09h04.43.466,t1_Paradigm,2021.1.4,60.03042744352769,
T,left,Lure,0,13,13,13,1085.1579497290659,1087.1581823104643,right,0,2,0.7820307918300387,P09M12,2022-11-14_09h04.43.466,t1_Paradigm,2021.1.4,60.03042744352769,
J,left,Distractor,0,14,14,14,1088.6580610473175,1090.6600663803401,left,1,2,0.9252146485669073,P09M12,2022-11-14_09h04.43.466,t1_Paradigm,2021.1.4,60.03042744352769,
Q,left,Pretarget,0,15,15,15,1092.1571608770464,1094.1593201950018,left,1,2,1.2473594791081268,P09M12,2022-11-14_09h04.43.466,t1_Paradigm,2021.1.4,60.03042744352769,
M,left,Distractor,0,16,16,16,1095.6565876039676,1097.6601048765879,left,1,2,1.0248506025527604,P09M12,2022-11-14_09h04.43.466,t1_Paradigm,2021.1.4,60.03042744352769,
Q,right,Target,0,17,17,17,1099.1560605263512,1101.1575820900034,right,1,2,1.0056451519485563,P09M12,2022-11-14_09h04.43.466,t1_Paradigm,2021.1.4,60.03042744352769,
R,left,Distractor,0,18,18,18,1102.6554622307012,1104.6567563457938,left,1,2,1.1033258179959375,P09M12,2022-11-14_09h04.43.466,t1_Paradigm,2021.1.4,60.03042744352769,
W,left,Distractor,0,19,19,19,1106.1548761255399,1108.1560467318632,left,1,2,0.8297943531069905,P09M12,2022-11-14_09h04.43.466,t1_Paradigm,2021.1.4,60.03042744352769,
C,left,Pretarget,0,20,20,20,1109.654335574247,1111.656183072686,left,1,2,0.6079087947146036,P09M12,2022-11-14_09h04.43.466,t1_Paradigm,2021.1.4,60.03042744352769,
T,left,Distractor,0,21,21,21,1113.153724767326,1115.155436566536,left,1,2,0.9705981801671442,P09M12,2022-11-14_09h04.43.466,t1_Paradigm,2021.1.4,60.03042744352769,
C,right,Target,0,22,22,22,1116.6531187724322,1118.6522166773502,right,1,2,0.97273600436165,P09M12,2022-11-14_09h04.43.466,t1_Paradigm,2021.1.4,60.03042744352769,
F,left,Pretarget,0,23,23,23,1120.1525079655112,1122.15440839628,left,1,2,1.0309326867572963,P09M12,2022-11-14_09h04.43.466,t1_Paradigm,2021.1.4,60.03042744352769,
C,right,Target,0,24,24,24,1123.6521374392614,1125.6528858702222,left,0,2,1.3531310912512708,P09M12,2022-11-14_09h04.43.466,t1_Paradigm,2021.1.4,60.03042744352769,
F,right,Target,0,25,25,25,1127.151361740136,1129.1522497199476,right,1,2,1.23055330637726,P09M12,2022-11-14_09h04.43.466,t1_Paradigm,2021.1.4,60.03042744352769,
H,left,Distractor,0,26,26,26,1130.6507464419992,1132.6500871939643,left,1,2,0.9787398129410576,P09M12,2022-11-14_09h04.43.466,t1_Paradigm,2021.1.4,60.03042744352769,
H,left,Lure,0,27,27,27,1134.1502196851652,1136.1499556651688,right,0,2,1.1815652440709528,P09M12,2022-11-14_09h04.43.466,t1_Paradigm,2021.1.4,60.03042744352769,
P,left,Distractor,0,28,28,28,1137.649583855702,1139.651099324139,left,1,2,0.92641348548932,P09M12,2022-11-14_09h04.43.466,t1_Paradigm,2021.1.4,60.03042744352769,
G,left,Pretarget,0,29,29,29,1141.165302189038,1143.167234379187,left,1,2,0.7537790469941683,P09M12,2022-11-14_09h04.43.466,t1_Paradigm,2021.1.4,60.03042744352769,
K,left,Distractor,0,30,30,30,1144.6650465098792,1146.6659919132362,left,1,2,1.2068062625767197,P09M12,2022-11-14_09h04.43.466,t1_Paradigm,2021.1.4,60.03042744352769,
G,right,Target,0,31,31,31,1148.1643343295436,1150.1653496677172,None,0,2,,P09M12,2022-11-14_09h04.43.466,t1_Paradigm,2021.1.4,60.03042744352769,
M,left,Pretarget,0,32,32,32,1151.6638678835006,1153.6642871716467,left,1,2,1.0150850702484604,P09M12,2022-11-14_09h04.43.466,t1_Paradigm,2021.1.4,60.03042744352769,
B,left,Distractor,0,33,33,33,1155.163200294628,1157.1650449058507,left,1,2,0.6784438410541043,P09M12,2022-11-14_09h04.43.466,t1_Paradigm,2021.1.4,60.03042744352769,
M,right,Target,0,34,34,34,1158.6627691368049,1160.664336575137,right,1,2,1.0408332766382955,P09M12,2022-11-14_09h04.43.466,t1_Paradigm,2021.1.4,60.03042744352769,
M,left,Lure,0,35,35,35,1162.162123683258,1164.1619822095963,right,0,2,0.6834348778647836,P09M12,2022-11-14_09h04.43.466,t1_Paradigm,2021.1.4,60.03042744352769,
T,left,Distractor,0,36,36,36,1165.661613287375,1167.6630876931304,left,1,2,1.1705341480846982,P09M12,2022-11-14_09h04.43.466,t1_Paradigm,2021.1.4,60.03042744352769,
F,left,Distractor,0,37,37,37,1169.1609232423652,1171.1630386104516,left,1,2,1.4265616960183252,P09M12,2022-11-14_09h04.43.466,t1_Paradigm,2021.1.4,60.03042744352769,
X,left,Distractor,0,38,38,38,1172.660461287538,1174.661612645752,left,1,2,1.178151590458583,P09M12,2022-11-14_09h04.43.466,t1_Paradigm,2021.1.4,60.03042744352769,
C,left,Distractor,0,39,39,39,1176.1599332475162,1178.1719431102683,left,1,2,0.7302973064070102,P09M12,2022-11-14_09h04.43.466,t1_Paradigm,2021.1.4,60.03042744352769,
R,left,Distractor,0,40,40,40,1179.6591931574221,1181.6607464804838,left,1,2,0.6668304895283654,P09M12,2022-11-14_09h04.43.466,t1_Paradigm,2021.1.4,60.03042744352769,
B,left,Pretarget,0,41,41,41,1183.158660305373,1185.1609187511203,left,1,2,0.6944691818207502,P09M12,2022-11-14_09h04.43.466,t1_Paradigm,2021.1.4,60.03042744352769,
H,left,Distractor,0,42,42,42,1186.6580629721284,1188.65710152869,left,1,2,0.7052102728630416,P09M12,2022-11-14_09h04.43.466,t1_Paradigm,2021.1.4,60.03042744352769,
B,right,Target,0,43,43,43,1190.1575583506783,1192.1595511724008,right,1,2,1.2564657633774914,P09M12,2022-11-14_09h04.43.466,t1_Paradigm,2021.1.4,60.03042744352769,
W,left,Pretarget,0,44,44,44,1193.6567037342757,1195.6587796437088,left,1,2,0.648381169186905,P09M12,2022-11-14_09h04.43.466,t1_Paradigm,2021.1.4,60.03042744352769,
L,left,Pretarget,0,45,45,45,1197.1564057092473,1199.1573735687416,left,1,2,0.7388123526761774,P09M12,2022-11-14_09h04.43.466,t1_Paradigm,2021.1.4,60.03042744352769,
W,right,Target,0,46,46,46,1200.655658240692,1202.6550968372903,left,0,2,1.1395828548120335,P09M12,2022-11-14_09h04.43.466,t1_Paradigm,2021.1.4,60.03042744352769,
L,right,Target,0,47,47,47,1204.1551157645881,1206.1558959549584,right,1,2,1.1132523928536102,P09M12,2022-11-14_09h04.43.466,t1_Paradigm,2021.1.4,60.03042744352769,
W,right,Target,0,48,48,48,1207.654403263441,1209.655862270738,left,0,2,1.1690972761425655,P09M12,2022-11-14_09h04.43.466,t1_Paradigm,2021.1.4,60.03042744352769,
X,left,Distractor,0,49,49,49,1211.153733428975,1213.1550512833928,left,1,2,0.8427954938961193,P09M12,2022-11-14_09h04.43.466,t1_Paradigm,2021.1.4,60.03042744352769,
R,left,Distractor,0,50,50,50,1214.6532435643894,1216.6543686168443,left,1,2,0.8829733721795492,P09M12,2022-11-14_09h04.43.466,t1_Paradigm,2021.1.4,60.03042744352769,
V,left,Pretarget,0,51,51,51,1218.1527354140999,1220.154155925149,left,1,2,1.0085118382121436,P09M12,2022-11-14_09h04.43.466,t1_Paradigm,2021.1.4,60.03042744352769,
Z,left,Distractor,0,52,52,52,1221.6519549029472,1223.6540709126275,left,1,2,0.661026540590683,P09M12,2022-11-14_09h04.43.466,t1_Paradigm,2021.1.4,60.03042744352769,
V,right,Target,0,53,53,53,1225.151681258867,1227.1536545116978,right,1,2,0.8885254915803671,P09M12,2022-11-14_09h04.43.466,t1_Paradigm,2021.1.4,60.03042744352769,
V,left,Lure,0,54,54,54,1228.6508968980925,1230.6505452991696,right,0,2,0.6540991431975272,P09M12,2022-11-14_09h04.43.466,t1_Paradigm,2021.1.4,60.03042744352769,
N,left,Distractor,0,55,55,55,1232.1503505723667,1234.1511763166054,left,1,2,0.7993617965839803,P09M12,2022-11-14_09h04.43.466,t1_Paradigm,2021.1.4,60.03042744352769,
B,left,Distractor,0,56,56,56,1235.666490439471,1237.6679026096535,left,1,2,0.626826165127568,P09M12,2022-11-14_09h04.43.466,t1_Paradigm,2021.1.4,60.03042744352769,
V,left,Lure,0,57,57,57,1239.165834399464,1241.1677399630717,right,0,2,1.2209574783337303,P09M12,2022-11-14_09h04.43.466,t1_Paradigm,2021.1.4,60.03042744352769,
J,left,Distractor,0,58,58,58,1242.6652033820283,1244.6665000635257,left,1,2,0.7604860534775071,P09M12,2022-11-14_09h04.43.466,t1_Paradigm,2021.1.4,60.03042744352769,
H,left,Distractor,0,59,59,59,1246.1646593018959,1248.1659338480677,left,1,2,0.5556052442116197,P09M12,2022-11-14_09h04.43.466,t1_Paradigm,2021.1.4,60.03042744352769,
X,left,Pretarget,0,60,60,60,1249.6643243846775,1251.6660316926718,left,1,2,0.6973422841401771,P09M12,2022-11-14_09h04.43.466,t1_Paradigm,2021.1.4,60.03042744352769,
P,left,Distractor,0,61,61,61,1253.1635477231466,1255.1628124450508,left,1,2,1.2666740023414604,P09M12,2022-11-14_09h04.43.466,t1_Paradigm,2021.1.4,60.03042744352769,
X,right,Target,0,62,62,62,1256.6623023699503,1258.6639050965314,left,0,2,1.0156416616518982,P09M12,2022-11-14_09h04.43.466,t1_Paradigm,2021.1.4,60.03042744352769,
Q,left,Distractor,0,63,63,63,1260.1624553924776,1262.1642589410767,right,0,2,1.152560256246943,P09M12,2022-11-14_09h04.43.466,t1_Paradigm,2021.1.4,60.03042744352769,
B,left,Pretarget,0,0,0,0,1278.7594193869736,1280.759991056053,None,0,2,,P09M12,2022-11-14_09h04.43.466,t1_Paradigm,2021.1.4,60.03042744352769,
F,left,Distractor,0,1,1,1,1282.2585657329764,1284.2598373919027,None,0,2,,P09M12,2022-11-14_09h04.43.466,t1_Paradigm,2021.1.4,60.03042744352769,
B,right,Target,0,2,2,2,1285.7580508458195,1287.7592204897373,right,1,2,0.941398144728737,P09M12,2022-11-14_09h04.43.466,t1_Paradigm,2021.1.4,60.03042744352769,
V,left,Distractor,0,3,3,3,1289.2574483797653,1291.2596561388054,left,1,2,0.6788769236882217,P09M12,2022-11-14_09h04.43.466,t1_Paradigm,2021.1.4,60.03042744352769,
G,left,Pretarget,0,4,4,4,1292.756884730712,1294.758025502466,left,1,2,1.0060281894984655,P09M12,2022-11-14_09h04.43.466,t1_Paradigm,2021.1.4,60.03042744352769,
B,left,Lure,0,5,5,5,1296.2564205302915,1298.2576540138107,None,0,2,,P09M12,2022-11-14_09h04.43.466,t1_Paradigm,2021.1.4,60.03042744352769,
G,right,Target,0,6,6,6,1299.7556865354418,1301.7570246003743,right,1,2,1.0498619268473703,P09M12,2022-11-14_09h04.43.466,t1_Paradigm,2021.1.4,60.03042744352769,
Y,left,Pretarget,0,7,7,7,1303.2556842898193,1305.2569232269598,left,1,2,0.6084377971419599,P09M12,2022-11-14_09h04.43.466,t1_Paradigm,2021.1.4,60.03042744352769,
P,left,Distractor,0,8,8,8,1306.7545502549037,1308.755649964005,left,1,2,0.8287036264955532,P09M12,2022-11-14_09h04.43.466,t1_Paradigm,2021.1.4,60.03042744352769,
Y,right,Target,0,9,9,9,1310.253975057014,1312.255648039194,right,1,2,1.1908216636511497,P09M12,2022-11-14_09h04.43.466,t1_Paradigm,2021.1.4,60.03042744352769,
X,left,Distractor,0,10,10,10,1313.7532128315652,1315.7550452523283,left,1,2,0.7743969885632396,P09M12,2022-11-14_09h04.43.466,t1_Paradigm,2021.1.4,60.03042744352769,
Y,right,Target,0,11,11,11,1317.2529571524065,1319.2520531325135,right,1,2,1.428865054040216,P09M12,2022-11-14_09h04.43.466,t1_Paradigm,2021.1.4,60.03042744352769,
N,left,Distractor,0,12,12,12,1320.752167658793,1322.7528952376451,left,1,2,0.5952640649338719,P09M12,2022-11-14_09h04.43.466,t1_Paradigm,2021.1.4,60.03042744352769,
Y,right,Target,0,13,13,13,1324.2515603807115,1326.2535028365382,right,1,2,0.8995780812692828,P09M12,2022-11-14_09h04.43.466,t1_Paradigm,2021.1.4,60.03042744352769,
Y,left,Lure,0,14,14,14,1327.7511330725101,1329.7507994384796,right,0,2,0.6035243944206741,P09M12,2022-11-14_09h04.43.466,t1_Paradigm,2021.1.4,60.03042744352769,
K,left,Distractor,0,15,15,15,1331.250610806921,1333.2522635785863,left,1,2,0.9601673046418,P09M12,2022-11-14_09h04.43.466,t1_Paradigm,2021.1.4,60.03042744352769,
T,left,Pretarget,0,16,16,16,1334.7498293333629,1336.75130951358,left,1,2,0.601106510090176,P09M12,2022-11-14_09h04.43.466,t1_Paradigm,2021.1.4,60.03042744352769,
J,left,Distractor,0,17,17,17,1338.2492621554993,1340.251948551071,left,1,2,0.5913066520006396,P09M12,2022-11-14_09h04.43.466,t1_Paradigm,2021.1.4,60.03042744352769,
T,right,Target,0,18,18,18,1341.7486696343112,1343.7491149074049,right,1,2,1.0175706437730696,P09M12,2022-11-14_09h04.43.466,t1_Paradigm,2021.1.4,60.03042744352769,
S,left,Pretarget,0,19,19,19,1345.2481974138354,1347.2483931030147,left,1,2,0.5448182785185054,P09M12,2022-11-14_09h04.43.466,t1_Paradigm,2021.1.4,60.03042744352769,
R,left,Distractor,0,20,20,20,1348.7474727221997,1350.7483651932562,left,1,2,1.0449283136113081,P09M12,2022-11-14_09h04.43.466,t1_Paradigm,2021.1.4,60.03042744352769,
S,right,Target,0,21,21,21,1352.2469725919655,1354.2470098049962,right,1,2,1.3471779693791177,P09M12,2022-11-14_09h04.43.466,t1_Paradigm,2021.1.4,60.03042744352769,
Q,left,Distractor,0,22,22,22,1355.7463191183924,1357.7474701557949,left,1,2,0.6070955617469735,P09M12,2022-11-14_09h04.43.466,t1_Paradigm,2021.1.4,60.03042744352769,
D,left,Distractor,0,23,23,23,1359.2458738452697,1361.2455870483245,left,1,2,0.7589388256310485,P09M12,2022-11-14_09h04.43.466,t1_Paradigm,2021.1.4,60.03042744352769,
F,left,Distractor,0,24,24,24,1362.745093975711,1364.7463800707483,left,1,2,1.1897392778482754,P09M12,2022-11-14_09h04.43.466,t1_Paradigm,2021.1.4,60.03042744352769,
Z,left,Distractor,0,25,25,25,1366.244670196349,1368.2459322312206,left,1,2,0.7772845269355457,P09M12,2022-11-14_09h04.43.466,t1_Paradigm,2021.1.4,60.03042744352769,
P,left,Distractor,0,26,26,26,1369.7439387679042,1371.7456848929287,left,1,2,0.5847209087223746,P09M12,2022-11-14_09h04.43.466,t1_Paradigm,2021.1.4,60.03042744352769,
H,left,Distractor,0,27,27,27,1373.2431325925863,1375.244830276526,left,1,2,0.5925718949292786,P09M12,2022-11-14_09h04.43.466,t1_Paradigm,2021.1.4,60.03042744352769,
Z,left,Pretarget,0,28,28,28,1376.7594527503534,1378.760961481952,right,0,2,0.9344864666345529,P09M12,2022-11-14_09h04.43.466,t1_Paradigm,2021.1.4,60.03042744352769,
J,left,Pretarget,0,29,29,29,1380.2590398782631,1382.2597219032177,left,1,2,0.7391042824310716,P09M12,2022-11-14_09h04.43.466,t1_Paradigm,2021.1.4,60.03042744352769,
Z,right,Target,0,30,30,30,1383.7583296227385,1385.7589048206282,right,1,2,0.8202777631522622,P09M12,2022-11-14_09h04.43.466,t1_Paradigm,2021.1.4,60.03042744352769,
J,right,Target,0,31,31,31,1387.2580973621225,1389.2592618732015,right,1,2,0.8766811626264825,P09M12,2022-11-14_09h04.43.466,t1_Paradigm,2021.1.4,60.03042744352769,
V,left,Pretarget,0,32,32,32,1390.7573300038348,1392.7585304447566,left,1,2,0.6640638934914023,P09M12,2022-11-14_09h04.43.466,t1_Paradigm,2021.1.4,60.03042744352769,
Z,left,Lure,0,33,33,33,1394.2566925703431,1396.2579478684056,None,0,2,,P09M12,2022-11-14_09h04.43.466,t1_Paradigm,2021.1.4,60.03042744352769,
V,right,Target,0,34,34,34,1397.7560714977735,1399.7579170714016,right,1,2,0.9975311081507243,P09M12,2022-11-14_09h04.43.466,t1_Paradigm,2021.1.4,60.03042744352769,
X,left,Distractor,0,35,35,35,1401.2555328712915,1403.2559810316307,left,1,2,0.7289358229318168,P09M12,2022-11-14_09h04.43.466,t1_Paradigm,2021.1.4,60.03042744352769,
S,left,Distractor,0,36,36,36,1404.754836410255,1406.7538409617846,left,1,2,0.6486294698843267,P09M12,2022-11-14_09h04.43.466,t1_Paradigm,2021.1.4,60.03042744352769,
Q,left,Distractor,0,37,37,37,1408.2541328915686,1410.2533520596044,left,1,2,0.623545644339174,P09M12,2022-11-14_09h04.43.466,t1_Paradigm,2021.1.4,60.03042744352769,
P,left,Distractor,0,38,38,38,1411.7536083803861,1413.754921101965,left,1,2,1.0654769619286526,P09M12,2022-11-14_09h04.43.466,t1_Paradigm,2021.1.4,60.03042744352769,
S,left,Lure,0,39,39,39,1415.2530113679531,1417.254148290056,right,0,2,1.3304908141726628,P09M12,2022-11-14_09h04.43.466,t1_Paradigm,2021.1.4,60.03042744352769,
K,left,Pretarget,0,40,40,40,1418.7524778742809,1420.7537492124247,left,1,2,0.677468603127636,P09M12,2022-11-14_09h04.43.466,t1_Paradigm,2021.1.4,60.03042744352769,
L,left,Distractor,0,41,41,41,1422.2521176137088,1424.2528147163393,left,1,2,0.579526483459631,P09M12,2022-11-14_09h04.43.466,t1_Paradigm,2021.1.4,60.03042744352769,
K,right,Target,0,42,42,42,1425.751160661457,1427.7526254431868,left,0,2,1.2435695248423144,P09M12,2022-11-14_09h04.43.466,t1_Paradigm,2021.1.4,60.03042744352769,
B,left,Distractor,0,43,43,43,1429.2505055838847,1431.251804190193,left,1,2,0.5662218640500214,P09M12,2022-11-14_09h04.43.466,t1_Paradigm,2021.1.4,60.03042744352769,
N,left,Distractor,0,44,44,44,1432.7500468370854,1434.752184661309,left,1,2,0.8665146279381588,P09M12,2022-11-14_09h04.43.466,t1_Paradigm,2021.1.4,60.03042744352769,
S,left,Pretarget,0,45,45,45,1436.249311879801,1438.2508212529938,left,1,2,0.7039158369589131,P09M12,2022-11-14_09h04.43.466,t1_Paradigm,2021.1.4,60.03042744352769,
Z,left,Distractor,0,46,46,46,1439.7490805815905,1441.7498126516584,left,1,2,0.5732246499101166,P09M12,2022-11-14_09h04.43.466,t1_Paradigm,2021.1.4,60.03042744352769,
S,right,Target,0,47,47,47,1443.2475689628045,1445.2475439402333,right,1,2,0.8684323820052668,P09M12,2022-11-14_09h04.43.466,t1_Paradigm,2021.1.4,60.03042744352769,
C,left,Distractor,0,48,48,48,1446.7479686820298,1448.7493269575061,left,1,2,0.54791145096533,P09M12,2022-11-14_09h04.43.466,t1_Paradigm,2021.1.4,60.03042744352769,
T,left,Pretarget,0,49,49,49,1450.247187529283,1452.249069674348,left,1,2,0.7915393617586233,P09M12,2022-11-14_09h04.43.466,t1_Paradigm,2021.1.4,60.03042744352769,
S,left,Lure,0,50,50,50,1453.746766316297,1455.7477527823066,right,0,2,0.8328528789279517,P09M12,2022-11-14_09h04.43.466,t1_Paradigm,2021.1.4,60.03042744352769,
T,right,Target,0,51,51,51,1457.2460791585327,1459.2470928927069,right,1,2,1.2894387505657505,P09M12,2022-11-14_09h04.43.466,t1_Paradigm,2021.1.4,60.03042744352769,
N,left,Pretarget,0,52,52,52,1460.7454150984704,1462.7463662762602,left,1,2,0.742705925978953,P09M12,2022-11-14_09h04.43.466,t1_Paradigm,2021.1.4,60.03042744352769,
B,left,Distractor,0,53,53,53,1464.2450070384075,1466.2468664065236,left,1,2,0.9414257337048184,P09M12,2022-11-14_09h04.43.466,t1_Paradigm,2021.1.4,60.03042744352769,
N,right,Target,0,54,54,54,1467.744190597412,1469.7453737150354,right,1,2,0.8277312757563777,P09M12,2022-11-14_09h04.43.466,t1_Paradigm,2021.1.4,60.03042744352769,
N,left,Lure,0,55,55,55,1471.260248339211,1473.2598800585547,right,0,2,0.6410591853782535,P09M12,2022-11-14_09h04.43.466,t1_Paradigm,2021.1.4,60.03042744352769,
X,left,Distractor,0,56,56,56,1474.759668970888,1476.761284208711,left,1,2,0.6142135155096184,P09M12,2022-11-14_09h04.43.466,t1_Paradigm,2021.1.4,60.03042744352769,
W,left,Distractor,0,57,57,57,1478.2590841489146,1480.258324810682,None,0,2,,P09M12,2022-11-14_09h04.43.466,t1_Paradigm,2021.1.4,60.03042744352769,
S,left,Distractor,0,58,58,58,1481.7582770111912,1483.757572850911,None,0,2,,P09M12,2022-11-14_09h04.43.466,t1_Paradigm,2021.1.4,60.03042744352769,
L,left,Distractor,0,59,59,59,1485.2582815024361,1487.2577098333568,None,0,2,,P09M12,2022-11-14_09h04.43.466,t1_Paradigm,2021.1.4,60.03042744352769,
K,left,Pretarget,0,60,60,60,1488.75792573308,1490.75681383349,left,1,2,1.0229344524559565,P09M12,2022-11-14_09h04.43.466,t1_Paradigm,2021.1.4,60.03042744352769,
V,left,Pretarget,0,61,61,61,1492.2569934825879,1494.25806688593,left,1,2,0.6860436393180862,P09M12,2022-11-14_09h04.43.466,t1_Paradigm,2021.1.4,60.03042744352769,
K,right,Target,0,62,62,62,1495.7564699338109,1497.7582779735967,right,1,2,0.7261374674853869,P09M12,2022-11-14_09h04.43.466,t1_Paradigm,2021.1.4,60.03042744352769,
V,right,Target,0,63,63,63,1499.2557904752612,1501.2569912369654,left,0,2,0.9058346817619167,P09M12,2022-11-14_09h04.43.466,t1_Paradigm,2021.1.4,60.03042744352769,
R,left,Distractor,0,0,0,0,1621.0778355363873,1623.0677642798692,left,1,3,1.3747595589375123,P09M12,2022-11-14_09h04.43.466,t1_Paradigm,2021.1.4,60.03042744352769,
P,left,Lure,0,1,1,1,1624.5678666156891,1626.569736891077,left,1,3,1.045602318510646,P09M12,2022-11-14_09h04.43.466,t1_Paradigm,2021.1.4,60.03042744352769,
V,left,Distractor,0,2,2,2,1628.067479407735,1630.0661426259903,left,1,3,0.5220147132640705,P09M12,2022-11-14_09h04.43.466,t1_Paradigm,2021.1.4,60.03042744352769,
P,left,Pretarget,0,3,3,3,1631.566746696073,1633.5685072571796,left,1,3,0.9801946497755125,P09M12,2022-11-14_09h04.43.466,t1_Paradigm,2021.1.4,60.03042744352769,
Z,left,Distractor,0,4,4,4,1635.0661461548007,1637.068220139423,left,1,3,1.032275563746225,P09M12,2022-11-14_09h04.43.466,t1_Paradigm,2021.1.4,60.03042744352769,
L,left,Pretarget,0,5,5,5,1638.5655655032606,1640.5664823552652,left,1,3,0.6054588301922195,P09M12,2022-11-14_09h04.43.466,t1_Paradigm,2021.1.4,60.03042744352769,
P,right,Target,0,6,6,6,1642.0649829269096,1644.067039909045,right,1,3,1.2772181209584232,P09M12,2022-11-14_09h04.43.466,t1_Paradigm,2021.1.4,60.03042744352769,
S,left,Distractor,0,7,7,7,1645.5643496638513,1647.5637863356387,left,1,3,0.8060511589283124,P09M12,2022-11-14_09h04.43.466,t1_Paradigm,2021.1.4,60.03042744352769,
L,right,Target,0,8,8,8,1649.0637757491786,1651.0655956586415,right,1,3,1.0771830251906067,P09M12,2022-11-14_09h04.43.466,t1_Paradigm,2021.1.4,60.03042744352769,
D,left,Distractor,0,9,9,9,1652.5630866665742,1654.5645437490602,left,1,3,0.702695185522316,P09M12,2022-11-14_09h04.43.466,t1_Paradigm,2021.1.4,60.03042744352769,
G,left,Distractor,0,10,10,10,1656.0624793884635,1658.063589684025,left,1,3,0.8901574110786896,P09M12,2022-11-14_09h04.43.466,t1_Paradigm,2021.1.4,60.03042744352769,
M,left,Pretarget,0,11,11,11,1659.5620248120977,1661.5616283009003,left,1,3,1.1278960396302864,P09M12,2022-11-14_09h04.43.466,t1_Paradigm,2021.1.4,60.03042744352769,
Y,left,Distractor,0,12,12,12,1663.0614014939056,1665.0623533133185,left,1,3,0.9227290750422981,P09M12,2022-11-14_09h04.43.466,t1_Paradigm,2021.1.4,60.03042744352769,
V,left,Distractor,0,13,13,13,1666.5607172233576,1668.5604493537103,left,1,3,0.8827725501323584,P09M12,2022-11-14_09h04.43.466,t1_Paradigm,2021.1.4,60.03042744352769,
M,right,Target,0,14,14,14,1670.0602215843392,1672.0624104160524,None,0,3,,P09M12,2022-11-14_09h04.43.466,t1_Paradigm,2021.1.4,60.03042744352769,
S,left,Pretarget,0,15,15,15,1673.559684882668,1675.5618307269178,left,1,3,1.0592521208163816,P09M12,2022-11-14_09h04.43.466,t1_Paradigm,2021.1.4,60.03042744352769,
Q,left,Distractor,0,16,16,16,1677.0593268676894,1679.061431328504,left,1,3,0.5080104247608688,P09M12,2022-11-14_09h04.43.466,t1_Paradigm,2021.1.4,60.03042744352769,
R,left,Pretarget,0,17,17,17,1680.5584786673135,1682.5599068776064,left,1,3,1.00632621452678,P09M12,2022-11-14_09h04.43.466,t1_Paradigm,2021.1.4,60.03042744352769,
S,right,Target,0,18,18,18,1684.0581158403074,1686.0590435995546,right,1,3,0.8186442396254279,P09M12,2022-11-14_09h04.43.466,t1_Paradigm,2021.1.4,60.03042744352769,
F,left,Distractor,0,19,19,19,1687.557497654925,1689.5596621057193,left,1,3,0.9153127754689194,P09M12,2022-11-14_09h04.43.466,t1_Paradigm,2021.1.4,60.03042744352769,
R,right,Target,0,20,20,20,1691.056729334261,1693.058273033268,right,1,3,0.8796322197886184,P09M12,2022-11-14_09h04.43.466,t1_Paradigm,2021.1.4,60.03042744352769,
P,left,Distractor,0,21,21,21,1694.5561586275871,1696.5585482813476,left,1,3,1.0946721853106283,P09M12,2022-11-14_09h04.43.466,t1_Paradigm,2021.1.4,60.03042744352769,
L,left,Distractor,0,22,22,22,1698.055620642699,1700.054994758102,left,1,3,1.000008982460713,P09M12,2022-11-14_09h04.43.466,t1_Paradigm,2021.1.4,60.03042744352769,
R,right,Target,0,23,23,23,1701.5551500262518,1703.5566520209832,right,1,3,0.8957990342460107,P09M12,2022-11-14_09h04.43.466,t1_Paradigm,2021.1.4,60.03042744352769,
H,left,Pretarget,0,24,24,24,1705.0548475100077,1707.0565374947037,left,1,3,0.48720160603988916,P09M12,2022-11-14_09h04.43.466,t1_Paradigm,2021.1.4,60.03042744352769,
G,left,Pretarget,0,25,25,25,1708.5536079312442,1710.5550999811385,left,1,3,0.8385990835377015,P09M12,2022-11-14_09h04.43.466,t1_Paradigm,2021.1.4,60.03042744352769,
T,left,Distractor,0,26,26,26,1712.0532014751807,1714.0552116202307,left,1,3,0.748156992776785,P09M12,2022-11-14_09h04.43.466,t1_Paradigm,2021.1.4,60.03042744352769,
H,right,Target,0,27,27,27,1715.5692592169507,1717.5685457534273,right,1,3,1.1216837098181713,P09M12,2022-11-14_09h04.43.466,t1_Paradigm,2021.1.4,60.03042744352769,
G,right,Target,0,28,28,28,1719.0688203598838,1721.0697259838053,right,1,3,0.9772025299607776,P09M12,2022-11-14_09h04.43.466,t1_Paradigm,2021.1.4,60.03042744352769,
D,left,Distractor,0,29,29,29,1722.5679063951247,1724.5675746859051,left,1,3,1.2476190079178195,P09M12,2022-11-14_09h04.43.466,t1_Paradigm,2021.1.4,60.03042744352769,
N,left,Pretarget,0,30,30,30,1726.0677466357592,1728.0696412920952,left,1,3,1.121953504247358,P09M12,2022-11-14_09h04.43.466,t1_Paradigm,2021.1.4,60.03042744352769,
V,left,Distractor,0,31,31,31,1729.5669436684693,1731.5690891919367,left,1,3,0.6122854957939126,P09M12,2022-11-14_09h04.43.466,t1_Paradigm,2021.1.4,60.03042744352769,
R,left,Distractor,0,32,32,32,1733.0663335031422,1735.0684520792565,left,1,3,1.280759774526814,P09M12,2022-11-14_09h04.43.466,t1_Paradigm,2021.1.4,60.03042744352769,
N,right,Target,0,33,33,33,1736.5657720997406,1738.5675820643373,right,1,3,1.4240510998934042,P09M12,2022-11-14_09h04.43.466,t1_Paradigm,2021.1.4,60.03042744352769,
Z,left,Distractor,0,34,34,34,1740.0653576235927,1742.0673218939628,left,1,3,0.8769609019218478,P09M12,2022-11-14_09h04.43.466,t1_Paradigm,2021.1.4,60.03042744352769,
N,left,Lure,0,35,35,35,1743.5646489720966,1745.5663521096576,right,0,3,1.0895688678428996,P09M12,2022-11-14_09h04.43.466,t1_Paradigm,2021.1.4,60.03042744352769,
Y,left,Pretarget,0,36,36,36,1747.0642547064926,1749.0652536837733,left,1,3,0.5962591925926972,P09M12,2022-11-14_09h04.43.466,t1_Paradigm,2021.1.4,60.03042744352769,
Y,left,Lure,0,37,37,37,1750.5634360199037,1752.5627122907026,None,0,3,,P09M12,2022-11-14_09h04.43.466,t1_Paradigm,2021.1.4,60.03042744352769,
B,left,Distractor,0,38,38,38,1754.062835157849,1756.064779217675,left,1,3,1.2193371076718904,P09M12,2022-11-14_09h04.43.466,t1_Paradigm,2021.1.4,60.03042744352769,
Y,right,Target,0,39,39,39,1757.5626471678843,1759.5637658043124,right,1,3,0.8446808469598182,P09M12,2022-11-14_09h04.43.466,t1_Paradigm,2021.1.4,60.03042744352769,
J,left,Distractor,0,40,40,40,1761.0618474086223,1763.0632698444824,left,1,3,0.579053621419007,P09M12,2022-11-14_09h04.43.466,t1_Paradigm,2021.1.4,60.03042744352769,
X,left,Distractor,0,41,41,41,1764.5611932934553,1766.561988882284,left,1,3,0.9586730091250502,P09M12,2022-11-14_09h04.43.466,t1_Paradigm,2021.1.4,60.03042744352769,
W,left,Pretarget,0,42,42,42,1768.0604134238965,1770.062568250607,left,1,3,1.0752880480722524,P09M12,2022-11-14_09h04.43.466,t1_Paradigm,2021.1.4,60.03042744352769,
S,left,Pretarget,0,43,43,43,1771.5599428074202,1773.5607419250882,left,1,3,0.9378420551074669,P09M12,2022-11-14_09h04.43.466,t1_Paradigm,2021.1.4,60.03042744352769,
R,left,Distractor,0,44,44,44,1775.0592161910026,1777.0589258652471,left,1,3,1.053070587979164,P09M12,2022-11-14_09h04.43.466,t1_Paradigm,2021.1.4,60.03042744352769,
W,right,Target,0,45,45,45,1778.5587115695234,1780.5585765119176,right,1,3,0.828612518729642,P09M12,2022-11-14_09h04.43.466,t1_Paradigm,2021.1.4,60.03042744352769,
S,right,Target,0,46,46,46,1782.0581524117151,1784.0602799702901,right,1,3,0.8262164489424322,P09M12,2022-11-14_09h04.43.466,t1_Paradigm,2021.1.4,60.03042744352769,
D,left,Distractor,0,47,47,47,1785.5578726724198,1787.5590978150722,left,1,3,0.8795411120518111,P09M12,2022-11-14_09h04.43.466,t1_Paradigm,2021.1.4,60.03042744352769,
T,left,Distractor,0,48,48,48,1789.0569109081698,1791.0587057950906,left,1,3,0.8058509785041679,P09M12,2022-11-14_09h04.43.466,t1_Paradigm,2021.1.4,60.03042744352769,
S,right,Target,0,49,49,49,1792.5558304471779,1794.5588395695086,left,0,3,1.2296845746750478,P09M12,2022-11-14_09h04.43.466,t1_Paradigm,2021.1.4,60.03042744352769,
K,left,Distractor,0,50,50,50,1796.0557114296535,1798.0551946177147,left,1,3,0.6365098929090891,P09M12,2022-11-14_09h04.43.466,t1_Paradigm,2021.1.4,60.03042744352769,
S,left,Lure,0,51,51,51,1799.5553008031566,1801.5564605022373,right,0,3,0.5612786267593037,P09M12,2022-11-14_09h04.43.466,t1_Paradigm,2021.1.4,60.03042744352769,
T,left,Pretarget,0,52,52,52,1803.0546091541473,1805.0569112289813,left,1,3,0.5273836547567043,P09M12,2022-11-14_09h04.43.466,t1_Paradigm,2021.1.4,60.03042744352769,
V,left,Distractor,0,53,53,53,1806.5540188785526,1808.555624492321,left,1,3,0.7196919146226719,P09M12,2022-11-14_09h04.43.466,t1_Paradigm,2021.1.4,60.03042744352769,
B,left,Distractor,0,54,54,54,1810.0534456054738,1812.0549604322878,left,1,3,0.6500897603691556,P09M12,2022-11-14_09h04.43.466,t1_Paradigm,2021.1.4,60.03042744352769,
T,right,Target,0,55,55,55,1813.5528947885032,1815.5522547886067,right,1,3,0.9133132169081364,P09M12,2022-11-14_09h04.43.466,t1_Paradigm,2021.1.4,60.03042744352769,
Y,left,Pretarget,0,56,56,56,1817.0516208839545,1819.053965304629,left,1,3,0.5601218149240594,P09M12,2022-11-14_09h04.43.466,t1_Paradigm,2021.1.4,60.03042744352769,
T,left,Lure,0,57,57,57,1820.5685720591864,1822.5700823947845,right,0,3,1.2733505325741135,P09M12,2022-11-14_09h04.43.466,t1_Paradigm,2021.1.4,60.03042744352769,
P,left,Pretarget,0,58,58,58,1824.067507638305,1826.06859740254,left,1,3,1.1683068201236892,P09M12,2022-11-14_09h04.43.466,t1_Paradigm,2021.1.4,60.03042744352769,
Y,right,Target,0,59,59,59,1827.5672391270637,1829.569268520223,right,1,3,1.0451153411413543,P09M12,2022-11-14_09h04.43.466,t1_Paradigm,2021.1.4,60.03042744352769,
R,left,Distractor,0,60,60,60,1831.0667977035628,1833.0789339622715,left,1,3,0.6715363333933055,P09M12,2022-11-14_09h04.43.466,t1_Paradigm,2021.1.4,60.03042744352769,
P,right,Target,0,61,61,61,1834.5663148966269,1836.5676731721032,right,1,3,1.0900359554798342,P09M12,2022-11-14_09h04.43.466,t1_Paradigm,2021.1.4,60.03042744352769,
L,left,Distractor,0,62,62,62,1838.0650194983464,1840.0667232775304,left,1,3,0.9230578970746137,P09M12,2022-11-14_09h04.43.466,t1_Paradigm,2021.1.4,60.03042744352769,
V,left,Distractor,0,63,63,63,1841.5648459444928,1843.5654381448985,left,1,3,0.641957110085059,P09M12,2022-11-14_09h04.43.466,t1_Paradigm,2021.1.4,60.03042744352769,
H,left,Lure,0,0,0,0,1849.311388661823,1851.2981488444202,None,0,3,,P09M12,2022-11-14_09h04.43.466,t1_Paradigm,2021.1.4,60.03042744352769,
B,left,Distractor,0,1,1,1,1852.795868263318,1854.7972836415283,left,1,3,0.3903085088240914,P09M12,2022-11-14_09h04.43.466,t1_Paradigm,2021.1.4,60.03042744352769,
T,left,Distractor,0,2,2,2,1856.2956677621114,1858.2951900879852,left,1,3,0.7101118059072178,P09M12,2022-11-14_09h04.43.466,t1_Paradigm,2021.1.4,60.03042744352769,
R,left,Distractor,0,3,3,3,1859.7952815165336,1861.7970119222882,left,1,3,0.8545031611865852,P09M12,2022-11-14_09h04.43.466,t1_Paradigm,2021.1.4,60.03042744352769,
H,left,Pretarget,0,4,4,4,1863.2939097673807,1865.2962994211412,right,0,3,0.7078017110179644,P09M12,2022-11-14_09h04.43.466,t1_Paradigm,2021.1.4,60.03042744352769,
K,left,Distractor,0,5,5,5,1866.7940659979358,1868.7951766143087,left,1,3,0.9980896243650932,P09M12,2022-11-14_09h04.43.466,t1_Paradigm,2021.1.4,60.03042744352769,
G,left,Distractor,0,6,6,6,1870.2935652261076,1872.2950248749985,left,1,3,0.7645259124692529,P09M12,2022-11-14_09h04.43.466,t1_Paradigm,2021.1.4,60.03042744352769,
H,right,Target,0,7,7,7,1873.792779582116,1875.7947804238938,right,1,3,0.8251510656555183,P09M12,2022-11-14_09h04.43.466,t1_Paradigm,2021.1.4,60.03042744352769,
Y,left,Pretarget,0,8,8,8,1877.2923760132398,1879.294309486635,left,1,3,1.0863560362486169,P09M12,2022-11-14_09h04.43.466,t1_Paradigm,2021.1.4,60.03042744352769,
S,left,Distractor,0,9,9,9,1880.791443121183,1882.803892482596,None,0,3,,P09M12,2022-11-14_09h04.43.466,t1_Paradigm,2021.1.4,60.03042744352769,
P,left,Distractor,0,10,10,10,1884.2913597126608,1886.2914351011277,left,1,3,0.7533780445519369,P09M12,2022-11-14_09h04.43.466,t1_Paradigm,2021.1.4,60.03042744352769,
Y,right,Target,0,11,11,11,1887.790626359405,1889.7915268504876,left,0,3,0.8912699522625189,P09M12,2022-11-14_09h04.43.466,t1_Paradigm,2021.1.4,60.03042744352769,
H,left,Lure,0,12,12,12,1891.2897412668099,1893.2916805146087,right,0,3,0.6744261173880659,P09M12,2022-11-14_09h04.43.466,t1_Paradigm,2021.1.4,60.03042744352769,
Q,left,Distractor,0,13,13,13,1894.7894846252457,1896.791148624994,left,1,3,0.5841280667227693,P09M12,2022-11-14_09h04.43.466,t1_Paradigm,2021.1.4,60.03042744352769,
V,left,Pretarget,0,14,14,14,1898.288921297004,1900.2906760837068,left,1,3,0.4293209135939833,P09M12,2022-11-14_09h04.43.466,t1_Paradigm,2021.1.4,60.03042744352769,
G,left,Distractor,0,15,15,15,1901.7881119136873,1903.7888350012945,left,1,3,0.9973986169788986,P09M12,2022-11-14_09h04.43.466,t1_Paradigm,2021.1.4,60.03042744352769,
Z,left,Pretarget,0,16,16,16,1905.2875623799337,1907.2893960839137,left,1,3,0.7104900314006954,P09M12,2022-11-14_09h04.43.466,t1_Paradigm,2021.1.4,60.03042744352769,
V,right,Target,0,17,17,17,1908.7871732471685,1910.7879717232427,right,1,3,0.6906837187998462,P09M12,2022-11-14_09h04.43.466,t1_Paradigm,2021.1.4,60.03042744352769,
N,left,Distractor,0,18,18,18,1912.2863080443058,1914.287506881199,left,1,3,0.6579003255465068,P09M12,2022-11-14_09h04.43.466,t1_Paradigm,2021.1.4,60.03042744352769,
Z,right,Target,0,19,19,19,1915.7858656583994,1917.7855358739907,right,1,3,0.7411506781063508,P09M12,2022-11-14_09h04.43.466,t1_Paradigm,2021.1.4,60.03042744352769,
R,left,Distractor,0,20,20,20,1919.2849847362377,1921.2858101596648,left,1,3,0.5771085991582368,P09M12,2022-11-14_09h04.43.466,t1_Paradigm,2021.1.4,60.03042744352769,
P,left,Distractor,0,21,21,21,1922.78475921246,1924.7859878839517,left,1,3,0.7885799637297168,P09M12,2022-11-14_09h04.43.466,t1_Paradigm,2021.1.4,60.03042744352769,
Z,right,Target,0,22,22,22,1926.2835975885973,1928.2838372276456,left,0,3,1.0999699087697081,P09M12,2022-11-14_09h04.43.466,t1_Paradigm,2021.1.4,60.03042744352769,
D,left,Pretarget,0,23,23,23,1929.7834002953896,1931.785106320196,left,1,3,0.8046399511222262,P09M12,2022-11-14_09h04.43.466,t1_Paradigm,2021.1.4,60.03042744352769,
K,left,Distractor,0,24,24,24,1933.2828010373341,1935.2834468116926,left,1,3,0.5770518172066659,P09M12,2022-11-14_09h04.43.466,t1_Paradigm,2021.1.4,60.03042744352769,
W,left,Distractor,0,25,25,25,1936.782358009863,1938.7843049569055,left,1,3,0.9671030428726226,P09M12,2022-11-14_09h04.43.466,t1_Paradigm,2021.1.4,60.03042744352769,
D,right,Target,0,26,26,26,1940.282194080064,1942.2830936087412,right,1,3,0.78828129710746,P09M12,2022-11-14_09h04.43.466,t1_Paradigm,2021.1.4,60.03042744352769,
G,left,Pretarget,0,27,27,27,1943.7975733256899,1945.7984969145327,left,1,3,0.9480348955548834,P09M12,2022-11-14_09h04.43.466,t1_Paradigm,2021.1.4,60.03042744352769,
V,left,Distractor,0,28,28,28,1947.2965172456752,1949.2966263183334,left,1,3,0.6147239114216063,P09M12,2022-11-14_09h04.43.466,t1_Paradigm,2021.1.4,60.03042744352769,
D,right,Target,0,29,29,29,1950.7967254461546,1952.7979566840513,right,1,3,0.6737351099727675,P09M12,2022-11-14_09h04.43.466,t1_Paradigm,2021.1.4,60.03042744352769,
G,right,Target,0,30,30,30,1954.2959099675645,1956.2953976468416,left,0,3,0.7612373716547154,P09M12,2022-11-14_09h04.43.466,t1_Paradigm,2021.1.4,60.03042744352769,
B,left,Pretarget,0,31,31,31,1957.795343431324,1959.7949831707228,left,1,3,0.5571200710255653,P09M12,2022-11-14_09h04.43.466,t1_Paradigm,2021.1.4,60.03042744352769,
N,left,Distractor,0,32,32,32,1961.2946424790425,1963.3071406023519,left,1,3,0.952636478759814,P09M12,2022-11-14_09h04.43.466,t1_Paradigm,2021.1.4,60.03042744352769,
F,left,Distractor,0,33,33,33,1964.7941176470486,1966.7962734361936,left,1,3,0.5018077190034091,P09M12,2022-11-14_09h04.43.466,t1_Paradigm,2021.1.4,60.03042744352769,
B,right,Target,0,34,34,34,1968.2937442335824,1970.2953168047534,right,1,3,1.3307609294133727,P09M12,2022-11-14_09h04.43.466,t1_Paradigm,2021.1.4,60.03042744352769,
Q,left,Pretarget,0,35,35,35,1971.79296725124,1973.7945083838422,left,1,3,0.583800207125023,P09M12,2022-11-14_09h04.43.466,t1_Paradigm,2021.1.4,60.03042744352769,
S,left,Pretarget,0,36,36,36,1975.2923978277831,1977.3046919210465,left,1,3,0.605584584583994,P09M12,2022-11-14_09h04.43.466,t1_Paradigm,2021.1.4,60.03042744352769,
W,left,Distractor,0,37,37,37,1978.7918300083256,1980.7933586296276,left,1,3,0.9179500883619767,P09M12,2022-11-14_09h04.43.466,t1_Paradigm,2021.1.4,60.03042744352769,
Q,right,Target,0,38,38,38,1982.2914444043708,1984.292037567182,right,1,3,0.8739729525404982,P09M12,2022-11-14_09h04.43.466,t1_Paradigm,2021.1.4,60.03042744352769,
S,right,Target,0,39,39,39,1985.7906449659204,1987.7920872914838,right,1,3,0.905944075260777,P09M12,2022-11-14_09h04.43.466,t1_Paradigm,2021.1.4,60.03042744352769,
T,left,Distractor,0,40,40,40,1989.2903405248653,1991.2903719634633,left,1,3,1.2169355842343066,P09M12,2022-11-14_09h04.43.466,t1_Paradigm,2021.1.4,60.03042744352769,
G,left,Distractor,0,41,41,41,1992.789735492377,1994.7915246048651,left,1,3,0.7912653968960512,P09M12,2022-11-14_09h04.43.466,t1_Paradigm,2021.1.4,60.03042744352769,
D,left,Distractor,0,42,42,42,1996.28909709648,1998.290215732908,left,1,3,0.7960001128958538,P09M12,2022-11-14_09h04.43.466,t1_Paradigm,2021.1.4,60.03042744352769,
S,left,Lure,0,43,43,43,1999.788471211883,2001.789983472292,left,1,3,0.7712682071141899,P09M12,2022-11-14_09h04.43.466,t1_Paradigm,2021.1.4,60.03042744352769,
Z,left,Pretarget,0,44,44,44,2003.2877458786534,2005.2892725751444,left,1,3,0.8288556866173167,P09M12,2022-11-14_09h04.43.466,t1_Paradigm,2021.1.4,60.03042744352769,
J,left,Distractor,0,45,45,45,2006.7869980893156,2008.7888115827518,left,1,3,0.5762202985642944,P09M12,2022-11-14_09h04.43.466,t1_Paradigm,2021.1.4,60.03042744352769,
M,left,Pretarget,0,46,46,46,2010.2858618087776,2012.2883217181661,left,1,3,0.6493618607346434,P09M12,2022-11-14_09h04.43.466,t1_Paradigm,2021.1.4,60.03042744352769,
Z,right,Target,0,47,47,47,2013.785658099543,2015.787464214547,right,1,3,0.8133725011139177,P09M12,2022-11-14_09h04.43.466,t1_Paradigm,2021.1.4,60.03042744352769,
P,left,Distractor,0,48,48,48,2017.2855079642322,2019.2867578086443,left,1,3,0.6461224026279524,P09M12,2022-11-14_09h04.43.466,t1_Paradigm,2021.1.4,60.03042744352769,
M,right,Target,0,49,49,49,2020.7850389517844,2022.7857273927657,left,0,3,0.5890372990106698,P09M12,2022-11-14_09h04.43.466,t1_Paradigm,2021.1.4,60.03042744352769,
K,left,Distractor,0,50,50,50,2024.2842032626795,2026.2860732172849,left,1,3,0.9644269129785243,P09M12,2022-11-14_09h04.43.466,t1_Paradigm,2021.1.4,60.03042744352769,
Y,left,Distractor,0,51,51,51,2027.7838648166216,2029.7850036635646,left,1,3,0.7606182238378096,P09M12,2022-11-14_09h04.43.466,t1_Paradigm,2021.1.4,60.03042744352769,
X,left,Distractor,0,52,52,52,2031.2830464508443,2033.2850845056528,left,1,3,0.7436221363605,P09M12,2022-11-14_09h04.43.466,t1_Paradigm,2021.1.4,60.03042744352769,
F,left,Pretarget,0,53,53,53,2034.7824333983008,2036.7843755333452,left,1,3,1.1964308857859578,P09M12,2022-11-14_09h04.43.466,t1_Paradigm,2021.1.4,60.03042744352769,
M,left,Lure,0,54,54,54,2038.2819566866092,2040.2824731777364,right,0,3,0.8221313568355981,P09M12,2022-11-14_09h04.43.466,t1_Paradigm,2021.1.4,60.03042744352769,
V,left,Distractor,0,55,55,55,2041.7979159421811,2043.7972422580933,left,1,3,0.8640797411208041,P09M12,2022-11-14_09h04.43.466,t1_Paradigm,2021.1.4,60.03042744352769,
F,right,Target,0,56,56,56,2045.2973413858854,2047.298036563734,right,1,3,1.0094662240589969,P09M12,2022-11-14_09h04.43.466,t1_Paradigm,2021.1.4,60.03042744352769,
S,left,Distractor,0,57,57,57,2048.796030268306,2050.79860406238,left,1,3,0.421174147981219,P09M12,2022-11-14_09h04.43.466,t1_Paradigm,2021.1.4,60.03042744352769,
D,left,Distractor,0,58,58,58,2052.296183290833,2054.2974241527845,left,1,3,0.9600813296856359,P09M12,2022-11-14_09h04.43.466,t1_Paradigm,2021.1.4,60.03042744352769,
F,right,Target,0,59,59,59,2055.795578258345,2057.79738629816,None,0,3,,P09M12,2022-11-14_09h04.43.466,t1_Paradigm,2021.1.4,60.03042744352769,
V,left,Pretarget,0,60,60,60,2059.2942539879004,2061.2963828296633,left,1,3,0.7525356186379213,P09M12,2022-11-14_09h04.43.466,t1_Paradigm,2021.1.4,60.03042744352769,
J,left,Distractor,0,61,61,61,2062.794365947775,2064.795223451394,left,1,3,1.0961462702834979,P09M12,2022-11-14_09h04.43.466,t1_Paradigm,2021.1.4,60.03042744352769,
V,left,Lure,0,62,62,62,2066.2938170556154,2068.295840032748,right,0,3,0.8256316269689705,P09M12,2022-11-14_09h04.43.466,t1_Paradigm,2021.1.4,60.03042744352769,
V,right,Target,0,63,63,63,2069.793093005632,2071.79317384772,right,1,3,0.570563918503467,P09M12,2022-11-14_09h04.43.466,t1_Paradigm,2021.1.4,60.03042744352769,
R,left,Distractor,0,0,0,0,2168.360200603871,2170.359322889737,None,0,4,,P09M12,2022-11-14_09h04.43.466,t1_Paradigm,2021.1.4,60.03042744352769,
F,left,Distractor,0,1,1,1,2171.8594335663947,2173.8603616464534,left,1,4,0.31896632476127706,P09M12,2022-11-14_09h04.43.466,t1_Paradigm,2021.1.4,60.03042744352769,
P,left,Pretarget,0,2,2,2,2175.358794849715,2177.3583425189718,left,1,4,0.5609478799742647,P09M12,2022-11-14_09h04.43.466,t1_Paradigm,2021.1.4,60.03042744352769,
H,left,Distractor,0,3,3,3,2178.858022037806,2180.857345466502,left,1,4,0.6066390605701599,P09M12,2022-11-14_09h04.43.466,t1_Paradigm,2021.1.4,60.03042744352769,
Z,left,Distractor,0,4,4,4,2182.357772453892,2184.3586761530023,left,1,4,0.47012018525856547,P09M12,2022-11-14_09h04.43.466,t1_Paradigm,2021.1.4,60.03042744352769,
T,left,Distractor,0,5,5,5,2185.8571792910807,2187.85800150648,left,1,4,0.49059793635387905,P09M12,2022-11-14_09h04.43.466,t1_Paradigm,2021.1.4,60.03042744352769,
P,right,Target,0,6,6,6,2189.356470960367,2191.3580274914566,right,1,4,0.8369982817966957,P09M12,2022-11-14_09h04.43.466,t1_Paradigm,2021.1.4,60.03042744352769,
G,left,Distractor,0,7,7,7,2192.856087922846,2194.8572046344343,left,1,4,0.6985953365801834,P09M12,2022-11-14_09h04.43.466,t1_Paradigm,2021.1.4,60.03042744352769,
L,left,Distractor,0,8,8,8,2196.3546638829575,2198.356848223455,left,1,4,0.5725041287369095,P09M12,2022-11-14_09h04.43.466,t1_Paradigm,2021.1.4,60.03042744352769,
P,left,Lure,0,9,9,9,2199.854691792745,2201.867003850901,left,1,4,1.1575031727261376,P09M12,2022-11-14_09h04.43.466,t1_Paradigm,2021.1.4,60.03042744352769,
Q,left,Pretarget,0,10,10,10,2203.354182038427,2205.356001947919,left,1,4,1.0699903246131726,P09M12,2022-11-14_09h04.43.466,t1_Paradigm,2021.1.4,60.03042744352769,
D,left,Distractor,0,11,11,11,2206.8537242540333,2208.85497313604,left,1,4,0.8134395487140864,P09M12,2022-11-14_09h04.43.466,t1_Paradigm,2021.1.4,60.03042744352769,
M,left,Pretarget,0,12,12,12,2210.3531176175456,2212.3544912915095,left,1,4,0.6993659028667025,P09M12,2022-11-14_09h04.43.466,t1_Paradigm,2021.1.4,60.03042744352769,
C,left,Distractor,0,13,13,13,2213.8525469108718,2215.853281226533,left,1,4,0.7737852192367427,P09M12,2022-11-14_09h04.43.466,t1_Paradigm,2021.1.4,60.03042744352769,
Q,right,Target,0,14,14,14,2217.3520974673447,2219.3525879735244,right,1,4,0.8637977561738808,P09M12,2022-11-14_09h04.43.466,t1_Paradigm,2021.1.4,60.03042744352769,
R,left,Distractor,0,15,15,15,2220.85124413413,2222.852726880781,left,1,4,1.189573102426948,P09M12,2022-11-14_09h04.43.466,t1_Paradigm,2021.1.4,60.03042744352769,
M,right,Target,0,16,16,16,2224.3506179287215,2226.351405497524,right,1,4,0.8723769628268201,P09M12,2022-11-14_09h04.43.466,t1_Paradigm,2021.1.4,60.03042744352769,
S,left,Distractor,0,17,17,17,2227.8500719238073,2229.8518257480755,left,1,4,0.7859747310576495,P09M12,2022-11-14_09h04.43.466,t1_Paradigm,2021.1.4,60.03042744352769,
Z,left,Distractor,0,18,18,18,2231.349576605571,2233.3514096679573,left,1,4,1.0637882604496554,P09M12,2022-11-14_09h04.43.466,t1_Paradigm,2021.1.4,60.03042744352769,
L,left,Pretarget,0,19,19,19,2234.849068776093,2236.848204535636,left,1,4,1.0006489823572338,P09M12,2022-11-14_09h04.43.466,t1_Paradigm,2021.1.4,60.03042744352769,
M,right,Target,0,20,20,20,2238.3475350219524,2240.3478375381965,right,1,4,1.1557426116196439,P09M12,2022-11-14_09h04.43.466,t1_Paradigm,2021.1.4,60.03042744352769,
P,left,Distractor,0,21,21,21,2241.8475664605503,2243.859902899654,left,1,4,0.5554249535198323,P09M12,2022-11-14_09h04.43.466,t1_Paradigm,2021.1.4,60.03042744352769,
F,left,Distractor,0,22,22,22,2245.3465078141016,2247.348953287379,left,1,4,0.8353714950790163,P09M12,2022-11-14_09h04.43.466,t1_Paradigm,2021.1.4,60.03042744352769,
L,right,Target,0,23,23,23,2248.8463214281655,2250.8472745307663,right,1,4,1.2611716072424315,P09M12,2022-11-14_09h04.43.466,t1_Paradigm,2021.1.4,60.03042744352769,
L,left,Lure,0,24,24,24,2252.3461116236867,2254.34559866137,right,0,4,1.4171830508857965,P09M12,2022-11-14_09h04.43.466,t1_Paradigm,2021.1.4,60.03042744352769,
V,left,Pretarget,0,25,25,25,2255.845378270431,2257.8468831523787,left,1,4,0.5875372290611267,P09M12,2022-11-14_09h04.43.466,t1_Paradigm,2021.1.4,60.03042744352769,
Z,left,Distractor,0,26,26,26,2259.344707152719,2261.345894761558,left,1,4,0.5640458644193131,P09M12,2022-11-14_09h04.43.466,t1_Paradigm,2021.1.4,60.03042744352769,
H,left,Distractor,0,27,27,27,2262.8441454285057,2264.856478018017,left,1,4,0.75720521187759,P09M12,2022-11-14_09h04.43.466,t1_Paradigm,2021.1.4,60.03042744352769,
X,left,Distractor,0,28,28,28,2266.343734802009,2268.345191884495,left,1,4,0.7187323959951755,P09M12,2022-11-14_09h04.43.466,t1_Paradigm,2021.1.4,60.03042744352769,
V,right,Target,0,29,29,29,2269.8595612455974,2271.861334317975,right,1,4,0.893869410501793,P09M12,2022-11-14_09h04.43.466,t1_Paradigm,2021.1.4,60.03042744352769,
C,left,Distractor,0,30,30,30,2273.3592134962673,2275.3589177168615,left,1,4,0.7330578072287608,P09M12,2022-11-14_09h04.43.466,t1_Paradigm,2021.1.4,60.03042744352769,
S,left,Pretarget,0,31,31,31,2276.8585051655537,2278.859674488689,right,0,4,0.8371939709759317,P09M12,2022-11-14_09h04.43.466,t1_Paradigm,2021.1.4,60.03042744352769,
D,left,Distractor,0,32,32,32,2280.358084273379,2282.3596308596025,left,1,4,0.5394926453009248,P09M12,2022-11-14_09h04.43.466,t1_Paradigm,2021.1.4,60.03042744352769,
V,left,Distractor,0,33,33,33,2283.8573044038494,2285.8587457670073,right,0,4,0.8822060138627421,P09M12,2022-11-14_09h04.43.466,t1_Paradigm,2021.1.4,60.03042744352769,
R,left,Distractor,0,34,34,34,2287.356137647148,2289.356313446595,left,1,4,0.5252022014756221,P09M12,2022-11-14_09h04.43.466,t1_Paradigm,2021.1.4,60.03042744352769,
S,right,Target,0,35,35,35,2290.856101717305,2292.8580387195107,right,1,4,0.8328134203038644,P09M12,2022-11-14_09h04.43.466,t1_Paradigm,2021.1.4,60.03042744352769,
Y,left,Distractor,0,36,36,36,2294.3556439329404,2296.3563452060043,left,1,4,0.5650146863190457,P09M12,2022-11-14_09h04.43.466,t1_Paradigm,2021.1.4,60.03042744352769,
N,left,Pretarget,0,37,37,37,2297.8546927551506,2299.8561755017727,left,1,4,0.6503034144698177,P09M12,2022-11-14_09h04.43.466,t1_Paradigm,2021.1.4,60.03042744352769,
Z,left,Pretarget,0,38,38,38,2301.354196474509,2303.3553699680488,left,1,4,1.1318855327263009,P09M12,2022-11-14_09h04.43.466,t1_Paradigm,2021.1.4,60.03042744352769,
P,left,Pretarget,0,39,39,39,2304.853767241497,2306.8548496272997,left,1,4,1.123875107965432,P09M12,2022-11-14_09h04.43.466,t1_Paradigm,2021.1.4,60.03042744352769,
M,left,Distractor,0,40,40,40,2308.353337046079,2310.355089907971,left,1,4,1.294625476555666,P09M12,2022-11-14_09h04.43.466,t1_Paradigm,2021.1.4,60.03042744352769,
N,right,Target,0,41,41,41,2311.8524875625153,2313.853877597372,right,1,4,1.1981131712382194,P09M12,2022-11-14_09h04.43.466,t1_Paradigm,2021.1.4,60.03042744352769,
Z,right,Target,0,42,42,42,2315.3520499886363,2317.3531301288167,left,0,4,0.7983743681688793,P09M12,2022-11-14_09h04.43.466,t1_Paradigm,2021.1.4,60.03042744352769,
P,right,Target,0,43,43,43,2318.851736885932,2320.8538435923692,right,1,4,1.000962405843893,P09M12,2022-11-14_09h04.43.466,t1_Paradigm,2021.1.4,60.03042744352769,
X,left,Pretarget,0,44,44,44,2322.3508546805533,2324.3523297279608,left,1,4,0.978052013553679,P09M12,2022-11-14_09h04.43.466,t1_Paradigm,2021.1.4,60.03042744352769,
Z,left,Lure,0,45,45,45,2325.850259272149,2327.8517561340414,right,0,4,1.3371368682419416,P09M12,2022-11-14_09h04.43.466,t1_Paradigm,2021.1.4,60.03042744352769,
R,left,Pretarget,0,46,46,46,2329.3496542396606,2331.3512104499387,left,1,4,0.5014432879979722,P09M12,2022-11-14_09h04.43.466,t1_Paradigm,2021.1.4,60.03042744352769,
K,left,Distractor,0,47,47,47,2332.8490767961484,2334.84871172352,left,1,4,0.8338101519620977,P09M12,2022-11-14_09h04.43.466,t1_Paradigm,2021.1.4,60.03042744352769,
X,right,Target,0,48,48,48,2336.348554209748,2338.349992364907,left,0,4,0.6000315027486067,P09M12,2022-11-14_09h04.43.466,t1_Paradigm,2021.1.4,60.03042744352769,
B,left,Distractor,0,49,49,49,2339.847889187309,2341.8496385203616,left,1,4,0.7105683070840314,P09M12,2022-11-14_09h04.43.466,t1_Paradigm,2021.1.4,60.03042744352769,
R,right,Target,0,50,50,50,2343.3471789317846,2345.349005578115,left,0,4,0.9110438638890628,P09M12,2022-11-14_09h04.43.466,t1_Paradigm,2021.1.4,60.03042744352769,
Y,left,Pretarget,0,51,51,51,2346.846958861628,2348.8486799641105,left,1,4,0.5601728224428371,P09M12,2022-11-14_09h04.43.466,t1_Paradigm,2021.1.4,60.03042744352769,
W,left,Pretarget,0,52,52,52,2350.345754891896,2352.346981638577,left,1,4,0.6594809167727362,P09M12,2022-11-14_09h04.43.466,t1_Paradigm,2021.1.4,60.03042744352769,
Z,left,Distractor,0,53,53,53,2353.8455681851774,2355.8470188516076,left,1,4,0.6587799644912593,P09M12,2022-11-14_09h04.43.466,t1_Paradigm,2021.1.4,60.03042744352769,
Q,left,Distractor,0,54,54,54,2357.3449147116044,2359.3461103404697,left,1,4,0.708759946457576,P09M12,2022-11-14_09h04.43.466,t1_Paradigm,2021.1.4,60.03042744352769,
Y,right,Target,0,55,55,55,2360.8442766365188,2362.8461206061475,None,0,4,,P09M12,2022-11-14_09h04.43.466,t1_Paradigm,2021.1.4,60.03042744352769,
W,right,Target,0,56,56,56,2364.343771052634,2366.345319242857,right,1,4,0.9289888835919555,P09M12,2022-11-14_09h04.43.466,t1_Paradigm,2021.1.4,60.03042744352769,
H,left,Pretarget,0,57,57,57,2367.859882368328,2369.8612153004506,left,1,4,1.0839266030816361,P09M12,2022-11-14_09h04.43.466,t1_Paradigm,2021.1.4,60.03042744352769,
M,left,Distractor,0,58,58,58,2371.3592661077855,2373.358688343462,left,1,4,1.0292869727418292,P09M12,2022-11-14_09h04.43.466,t1_Paradigm,2021.1.4,60.03042744352769,
R,left,Pretarget,0,59,59,59,2374.8588612557214,2376.860728002299,left,1,4,0.9943705673213117,P09M12,2022-11-14_09h04.43.466,t1_Paradigm,2021.1.4,60.03042744352769,
J,left,Distractor,0,60,60,60,2378.358305305941,2380.359047962469,left,1,4,0.563593533646781,P09M12,2022-11-14_09h04.43.466,t1_Paradigm,2021.1.4,60.03042744352769,
H,right,Target,0,61,61,61,2381.857671401289,2383.858478538983,right,1,4,0.7596362491021864,P09M12,2022-11-14_09h04.43.466,t1_Paradigm,2021.1.4,60.03042744352769,
Z,left,Distractor,0,62,62,62,2385.3568924941355,2387.3578613160353,left,1,4,0.9966610932606272,P09M12,2022-11-14_09h04.43.466,t1_Paradigm,2021.1.4,60.03042744352769,
R,right,Target,0,63,63,63,2388.8564908500994,2390.8580374362937,left,0,4,0.894380127225304,P09M12,2022-11-14_09h04.43.466,t1_Paradigm,2021.1.4,60.03042744352769,
J,left,Pretarget,0,0,0,0,2397.6527732687246,2399.6561891679303,left,1,4,1.13162760794512,P09M12,2022-11-14_09h04.43.466,t1_Paradigm,2021.1.4,60.03042744352769,
G,left,Pretarget,0,1,1,1,2401.1543227421644,2403.155087534018,left,1,4,0.899949890706921,P09M12,2022-11-14_09h04.43.466,t1_Paradigm,2021.1.4,60.03042744352769,
Z,left,Distractor,0,2,2,2,2404.6536942911334,2406.6550432633667,left,1,4,0.6390063737053424,P09M12,2022-11-14_09h04.43.466,t1_Paradigm,2021.1.4,60.03042744352769,
F,left,Distractor,0,3,3,3,2408.1531312837033,2410.1534305919195,left,1,4,0.5710168908699416,P09M12,2022-11-14_09h04.43.466,t1_Paradigm,2021.1.4,60.03042744352769,
J,right,Target,0,4,4,4,2411.6524964166456,2413.651951374137,right,1,4,0.9680404261744116,P09M12,2022-11-14_09h04.43.466,t1_Paradigm,2021.1.4,60.03042744352769,
G,right,Target,0,5,5,5,2415.1519741510565,2417.1533664315357,right,1,4,1.0191473854065407,P09M12,2022-11-14_09h04.43.466,t1_Paradigm,2021.1.4,60.03042744352769,
H,left,Distractor,0,6,6,6,2418.6513424920267,2420.652911213576,left,1,4,1.0359124954848085,P09M12,2022-11-14_09h04.43.466,t1_Paradigm,2021.1.4,60.03042744352769,
P,left,Distractor,0,7,7,7,2422.1505327878986,2424.1528441659466,left,1,4,0.9620151238923427,P09M12,2022-11-14_09h04.43.466,t1_Paradigm,2021.1.4,60.03042744352769,
G,left,Lure,0,8,8,8,2425.6502184019773,2427.6514971185534,right,0,4,0.9302939059271012,P09M12,2022-11-14_09h04.43.466,t1_Paradigm,2021.1.4,60.03042744352769,
S,left,Distractor,0,9,9,9,2429.149566853215,2431.1512536298833,left,1,4,0.8729675592039712,P09M12,2022-11-14_09h04.43.466,t1_Paradigm,2021.1.4,60.03042744352769,
R,left,Pretarget,0,10,10,10,2432.6489570086997,2434.6502212891937,left,1,4,1.2082681570609566,P09M12,2022-11-14_09h04.43.466,t1_Paradigm,2021.1.4,60.03042744352769,
T,left,Pretarget,0,11,11,11,2436.1484315350826,2438.1496865123336,left,1,4,0.9231971250846982,P09M12,2022-11-14_09h04.43.466,t1_Paradigm,2021.1.4,60.03042744352769,
X,left,Distractor,0,12,12,12,2439.6477905727807,2441.6489653495373,left,1,4,0.47895635425811633,P09M12,2022-11-14_09h04.43.466,t1_Paradigm,2021.1.4,60.03042744352769,
F,left,Pretarget,0,13,13,13,2443.1472118460515,2445.1493313845713,right,0,4,0.988180052023381,P09M12,2022-11-14_09h04.43.466,t1_Paradigm,2021.1.4,60.03042744352769,
R,right,Target,0,14,14,14,2446.646675465192,2448.647490302159,right,1,4,0.8917331903066952,P09M12,2022-11-14_09h04.43.466,t1_Paradigm,2021.1.4,60.03042744352769,
T,right,Target,0,15,15,15,2450.145927675854,2452.146875004022,right,1,4,1.1777400015853345,P09M12,2022-11-14_09h04.43.466,t1_Paradigm,2021.1.4,60.03042744352769,
C,left,Distractor,0,16,16,16,2453.6453781421005,2455.646312638186,left,1,4,0.6152663875254802,P09M12,2022-11-14_09h04.43.466,t1_Paradigm,2021.1.4,60.03042744352769,
F,right,Target,0,17,17,17,2457.1448902023258,2459.146233400097,right,1,4,0.9859783882275224,P09M12,2022-11-14_09h04.43.466,t1_Paradigm,2021.1.4,60.03042744352769,
M,left,Distractor,0,18,18,18,2460.644486954261,2462.643578763935,left,1,4,1.0459410853509326,P09M12,2022-11-14_09h04.43.466,t1_Paradigm,2021.1.4,60.03042744352769,
N,left,Distractor,0,19,19,19,2464.1436637764564,2466.145131766185,left,1,4,0.9786371563095599,P09M12,2022-11-14_09h04.43.466,t1_Paradigm,2021.1.4,60.03042744352769,
R,left,Lure,0,20,20,20,2467.6431415108673,2469.645161279972,left,1,4,0.8067264470446389,P09M12,2022-11-14_09h04.43.466,t1_Paradigm,2021.1.4,60.03042744352769,
F,right,Target,0,21,21,21,2471.1425518768956,2473.1437195960025,right,1,4,0.7183634737448301,P09M12,2022-11-14_09h04.43.466,t1_Paradigm,2021.1.4,60.03042744352769,
P,left,Distractor,0,22,22,22,2474.641994002275,2476.643330142426,None,0,4,,P09M12,2022-11-14_09h04.43.466,t1_Paradigm,2021.1.4,60.03042744352769,
L,left,Pretarget,0,23,23,23,2478.1413950650312,2480.143093390594,left,1,4,0.7839382802485488,P09M12,2022-11-14_09h04.43.466,t1_Paradigm,2021.1.4,60.03042744352769,
T,left,Distractor,0,24,24,24,2481.64077367165,2483.6418676063186,left,1,4,0.7153675042791292,P09M12,2022-11-14_09h04.43.466,t1_Paradigm,2021.1.4,60.03042744352769,
F,left,Distractor,0,25,25,25,2485.1401952657325,2487.1418769095617,right,0,4,0.7073557963303756,P09M12,2022-11-14_09h04.43.466,t1_Paradigm,2021.1.4,60.03042744352769,
V,left,Distractor,0,26,26,26,2488.6395754763507,2490.641109551303,left,1,4,0.5938852581311949,P09M12,2022-11-14_09h04.43.466,t1_Paradigm,2021.1.4,60.03042744352769,
L,right,Target,0,27,27,27,2492.1554728171614,2494.1560002155893,right,1,4,1.0230040664901026,P09M12,2022-11-14_09h04.43.466,t1_Paradigm,2021.1.4,60.03042744352769,
S,left,Pretarget,0,28,28,28,2495.655115122994,2497.6564156541135,left,1,4,0.6101309898658656,P09M12,2022-11-14_09h04.43.466,t1_Paradigm,2021.1.4,60.03042744352769,
W,left,Distractor,0,29,29,29,2499.15452131856,2501.1561663909815,left,1,4,0.7815611377882306,P09M12,2022-11-14_09h04.43.466,t1_Paradigm,2021.1.4,60.03042744352769,
Q,left,Distractor,0,30,30,30,2502.653888697125,2504.653475504194,left,1,4,0.6662540084216744,P09M12,2022-11-14_09h04.43.466,t1_Paradigm,2021.1.4,60.03042744352769,
L,right,Target,0,31,31,31,2506.1533369177487,2508.1545184313436,right,1,4,1.2321056670334656,P09M12,2022-11-14_09h04.43.466,t1_Paradigm,2021.1.4,60.03042744352769,
S,right,Target,0,32,32,32,2509.6527639654814,2511.654188646935,right,1,4,0.8645057660760358,P09M12,2022-11-14_09h04.43.466,t1_Paradigm,2021.1.4,60.03042744352769,
Z,left,Pretarget,0,33,33,33,2513.1521461009106,2515.1542925867834,left,1,4,0.660613668471342,P09M12,2022-11-14_09h04.43.466,t1_Paradigm,2021.1.4,60.03042744352769,
F,left,Distractor,0,34,34,34,2516.651515083475,2518.6512510634493,left,1,4,0.940725743828807,P09M12,2022-11-14_09h04.43.466,t1_Paradigm,2021.1.4,60.03042744352769,
V,left,Distractor,0,35,35,35,2520.1511140810326,2522.1525034742954,left,1,4,0.7230632223654538,P09M12,2022-11-14_09h04.43.466,t1_Paradigm,2021.1.4,60.03042744352769,
M,left,Distractor,0,36,36,36,2523.6503531388007,2525.651272557181,left,1,4,0.9118243750417605,P09M12,2022-11-14_09h04.43.466,t1_Paradigm,2021.1.4,60.03042744352769,
Z,right,Target,0,37,37,37,2527.149798472208,2529.1505735297396,right,1,4,0.7853963251400273,P09M12,2022-11-14_09h04.43.466,t1_Paradigm,2021.1.4,60.03042744352769,
H,left,Pretarget,0,38,38,38,2530.6491754748276,2532.6498741814867,left,1,4,0.6145420167013071,P09M12,2022-11-14_09h04.43.466,t1_Paradigm,2021.1.4,60.03042744352769,
L,left,Distractor,0,39,39,39,2534.148863976123,2536.149835043645,left,1,4,1.201432188245235,P09M12,2022-11-14_09h04.43.466,t1_Paradigm,2021.1.4,60.03042744352769,
G,left,Distractor,0,40,40,40,2537.648252527608,2539.6478528083535,left,1,4,1.3175968212308362,P09M12,2022-11-14_09h04.43.466,t1_Paradigm,2021.1.4,60.03042744352769,
K,left,Distractor,0,41,41,41,2541.1473562069295,2543.1486211290467,left,1,4,0.6108082027931232,P09M12,2022-11-14_09h04.43.466,t1_Paradigm,2021.1.4,60.03042744352769,
H,right,Target,0,42,42,42,2544.6469250491064,2546.6487770387903,left,0,4,0.9284172144834884,P09M12,2022-11-14_09h04.43.466,t1_Paradigm,2021.1.4,60.03042744352769,
B,left,Distractor,0,43,43,43,2548.146281199588,2550.147886492574,left,1,4,0.712787935801316,P09M12,2022-11-14_09h04.43.466,t1_Paradigm,2021.1.4,60.03042744352769,
Z,left,Distractor,0,44,44,44,2551.6457390442956,2553.647225961351,left,1,4,1.2270831916539464,P09M12,2022-11-14_09h04.43.466,t1_Paradigm,2021.1.4,60.03042744352769,
T,left,Pretarget,0,45,45,45,2555.145306924067,2557.1443631247093,left,1,4,0.7277594421757385,P09M12,2022-11-14_09h04.43.466,t1_Paradigm,2021.1.4,60.03042744352769,
H,right,Target,0,46,46,46,2558.6444853502617,2560.6460938512464,right,1,4,0.8155119293369353,P09M12,2022-11-14_09h04.43.466,t1_Paradigm,2021.1.4,60.03042744352769,
F,left,Distractor,0,47,47,47,2562.1439419117523,2564.145372046856,right,0,4,1.2648325991176534,P09M12,2022-11-14_09h04.43.466,t1_Paradigm,2021.1.4,60.03042744352769,
R,left,Distractor,0,48,48,48,2565.643334954453,2567.6449614203593,left,1,4,0.5474443632992916,P09M12,2022-11-14_09h04.43.466,t1_Paradigm,2021.1.4,60.03042744352769,
T,right,Target,0,49,49,49,2569.142138042371,2571.1440660621156,left,0,4,0.7148397850978654,P09M12,2022-11-14_09h04.43.466,t1_Paradigm,2021.1.4,60.03042744352769,
H,right,Target,0,50,50,50,2572.6415756765346,2574.643120337947,right,1,4,0.8213453920616303,P09M12,2022-11-14_09h04.43.466,t1_Paradigm,2021.1.4,60.03042744352769,
Y,left,Pretarget,0,51,51,51,2576.141379666544,2578.142363245337,left,1,4,0.7446827076200861,P09M12,2022-11-14_09h04.43.466,t1_Paradigm,2021.1.4,60.03042744352769,
H,left,Distractor,0,52,52,52,2579.641028709215,2581.6400515464484,right,0,4,0.9217618571710773,P09M12,2022-11-14_09h04.43.466,t1_Paradigm,2021.1.4,60.03042744352769,
S,left,Distractor,0,53,53,53,2583.1402462732513,2585.140040639206,left,1,4,0.5017117992392741,P09M12,2022-11-14_09h04.43.466,t1_Paradigm,2021.1.4,60.03042744352769,
Q,left,Distractor,0,54,54,54,2586.639810624183,2588.6409793056955,left,1,4,0.6718295463651884,P09M12,2022-11-14_09h04.43.466,t1_Paradigm,2021.1.4,60.03042744352769,
Y,right,Target,0,55,55,55,2590.1391680578818,2592.1413222429983,left,0,4,0.7118861615017522,P09M12,2022-11-14_09h04.43.466,t1_Paradigm,2021.1.4,60.03042744352769,
R,left,Distractor,0,56,56,56,2593.655465438729,2595.6545197145606,left,1,4,0.7062669944716617,P09M12,2022-11-14_09h04.43.466,t1_Paradigm,2021.1.4,60.03042744352769,
H,left,Pretarget,0,57,57,57,2597.154852706997,2599.1558699699817,left,1,4,0.843316155456705,P09M12,2022-11-14_09h04.43.466,t1_Paradigm,2021.1.4,60.03042744352769,
J,left,Distractor,0,58,58,58,2600.6542938700004,2602.653091183456,left,1,4,0.5277198552212212,P09M12,2022-11-14_09h04.43.466,t1_Paradigm,2021.1.4,60.03042744352769,
V,left,Distractor,0,59,59,59,2604.15351367963,2606.154767373664,left,1,4,0.6278475985454861,P09M12,2022-11-14_09h04.43.466,t1_Paradigm,2021.1.4,60.03042744352769,
Y,left,Lure,0,60,60,60,2607.6523533389845,2609.653824536741,right,0,4,0.787310229614377,P09M12,2022-11-14_09h04.43.466,t1_Paradigm,2021.1.4,60.03042744352769,
H,right,Target,0,61,61,61,2611.15234179009,2613.153887413908,right,1,4,0.8894850102078635,P09M12,2022-11-14_09h04.43.466,t1_Paradigm,2021.1.4,60.03042744352769,
L,left,Distractor,0,62,62,62,2614.6518365270167,2616.6529371985234,left,1,4,0.979969767620787,P09M12,2022-11-14_09h04.43.466,t1_Paradigm,2021.1.4,60.03042744352769,
P,left,Distractor,0,63,63,63,2618.151324206294,2620.1533985117276,left,1,4,0.6447589943127241,P09M12,2022-11-14_09h04.43.466,t1_Paradigm,2021.1.4,60.03042744352769,
