Letter,CorrAnswer,Stimulus,nback_run.thisRepN,nback_run.thisTrialN,nback_run.thisN,nback_run.thisIndex,fixcross.started,nback_trial.started,trial_resp.keys,trial_resp.corr,currentlevel,trial_resp.rt,Participant,date,expName,psychopyVersion,frameRate,
H,left,Distractor,0,0,0,0,199.8365655199741,201.77086431748467,left,1,1,0.6051085144863464,P18M06,2022-11-17_12h07.09.974,t1_Paradigm,2021.1.4,59.99957654225549,
Q,left,Pretarget,0,1,1,1,203.27319141483167,205.27239325956907,left,1,1,0.7675244482816197,P18M06,2022-11-17_12h07.09.974,t1_Paradigm,2021.1.4,59.99957654225549,
Q,right,Target,0,2,2,2,206.77019801182905,208.7703808689257,right,1,1,0.5816832350683399,P18M06,2022-11-17_12h07.09.974,t1_Paradigm,2021.1.4,59.99957654225549,
T,left,Distractor,0,3,3,3,210.27003985643387,212.2718097208417,left,1,1,0.44004275649785995,P18M06,2022-11-17_12h07.09.974,t1_Paradigm,2021.1.4,59.99957654225549,
Q,left,Lure,0,4,4,4,213.7700401772745,215.77272881841054,left,1,1,0.36328158585820347,P18M06,2022-11-17_12h07.09.974,t1_Paradigm,2021.1.4,59.99957654225549,
L,left,Distractor,0,5,5,5,217.27031382132554,219.27226654283004,left,1,1,0.41562812379561365,P18M06,2022-11-17_12h07.09.974,t1_Paradigm,2021.1.4,59.99957654225549,
V,left,Pretarget,0,6,6,6,220.7702926484053,222.77314072812442,left,1,1,0.5469596316106617,P18M06,2022-11-17_12h07.09.974,t1_Paradigm,2021.1.4,59.99957654225549,
V,right,Target,0,7,7,7,224.27030708448729,226.27033627743367,right,1,1,0.44169296172913164,P18M06,2022-11-17_12h07.09.974,t1_Paradigm,2021.1.4,59.99957654225549,
K,left,Distractor,0,8,8,8,227.77029617718654,229.77270283346297,left,1,1,0.49139256280614063,P18M06,2022-11-17_12h07.09.974,t1_Paradigm,2021.1.4,59.99957654225549,
G,left,Pretarget,0,9,9,9,231.27030323486542,233.2717920767027,left,1,1,0.4161304996814579,P18M06,2022-11-17_12h07.09.974,t1_Paradigm,2021.1.4,59.99957654225549,
G,right,Target,0,10,10,10,234.7703571295715,236.77037124487106,right,1,1,0.38956232351483777,P18M06,2022-11-17_12h07.09.974,t1_Paradigm,2021.1.4,59.99957654225549,
G,right,Target,0,11,11,11,238.27010818728013,240.27021212712862,right,1,1,0.36160924524301663,P18M06,2022-11-17_12h07.09.974,t1_Paradigm,2021.1.4,59.99957654225549,
P,left,Pretarget,0,12,12,12,241.77027981629362,243.77378810645314,left,1,1,0.42630505439592525,P18M06,2022-11-17_12h07.09.974,t1_Paradigm,2021.1.4,59.99957654225549,
P,right,Target,0,13,13,13,245.27033788146218,247.27033595665125,right,1,1,0.4336530231521465,P18M06,2022-11-17_12h07.09.974,t1_Paradigm,2021.1.4,59.99957654225549,
G,left,Lure,0,14,14,14,248.77036579122068,250.77199963555904,left,1,1,0.4199294364079833,P18M06,2022-11-17_12h07.09.974,t1_Paradigm,2021.1.4,59.99957654225549,
Y,left,Distractor,0,15,15,15,252.2703805481433,254.27228001650656,left,1,1,0.6798281014780514,P18M06,2022-11-17_12h07.09.974,t1_Paradigm,2021.1.4,59.99957654225549,
B,left,Distractor,0,16,16,16,255.77025800180854,257.77173112437595,left,1,1,0.4124002145254053,P18M06,2022-11-17_12h07.09.974,t1_Paradigm,2021.1.4,59.99957654225549,
T,left,Pretarget,0,17,17,17,259.2703061220818,261.272409620462,left,1,1,0.3834818432223983,P18M06,2022-11-17_12h07.09.974,t1_Paradigm,2021.1.4,59.99957654225549,
T,right,Target,0,18,18,18,262.7702442072914,264.77034750551684,right,1,1,0.4056104412302375,P18M06,2022-11-17_12h07.09.974,t1_Paradigm,2021.1.4,59.99957654225549,
S,left,Distractor,0,19,19,19,266.27020410704426,268.27335085341474,left,1,1,0.4066546515095979,P18M06,2022-11-17_12h07.09.974,t1_Paradigm,2021.1.4,59.99957654225549,
T,left,Lure,0,20,20,20,269.7702519065351,271.771946382476,left,1,1,0.4121150216087699,P18M06,2022-11-17_12h07.09.974,t1_Paradigm,2021.1.4,59.99957654225549,
J,left,Distractor,0,21,21,21,273.27026698424015,275.27223125461023,left,1,1,0.4479315973003395,P18M06,2022-11-17_12h07.09.974,t1_Paradigm,2021.1.4,59.99957654225549,
P,left,Distractor,0,22,22,22,276.7703497511684,278.77255430218065,left,1,1,0.41935167205519974,P18M06,2022-11-17_12h07.09.974,t1_Paradigm,2021.1.4,59.99957654225549,
F,left,Distractor,0,23,23,23,280.2704790343414,282.2728103021509,left,1,1,0.4551797966705635,P18M06,2022-11-17_12h07.09.974,t1_Paradigm,2021.1.4,59.99957654225549,
L,left,Distractor,0,24,24,24,283.7702650594292,285.77165958553087,left,1,1,0.46024846751242876,P18M06,2022-11-17_12h07.09.974,t1_Paradigm,2021.1.4,59.99957654225549,
W,left,Pretarget,0,25,25,25,287.27030676370487,289.2706333400565,left,1,1,0.4496430757571943,P18M06,2022-11-17_12h07.09.974,t1_Paradigm,2021.1.4,59.99957654225549,
W,right,Target,0,26,26,26,290.77021822234383,292.77026826742804,right,1,1,0.5337945609935559,P18M06,2022-11-17_12h07.09.974,t1_Paradigm,2021.1.4,59.99957654225549,
V,left,Distractor,0,27,27,27,294.2693796460517,296.2721016505966,left,1,1,0.47180824511451647,P18M06,2022-11-17_12h07.09.974,t1_Paradigm,2021.1.4,59.99957654225549,
W,left,Lure,0,28,28,28,297.7702400368871,299.77123805176234,left,1,1,0.4288438810617663,P18M06,2022-11-17_12h07.09.974,t1_Paradigm,2021.1.4,59.99957654225549,
R,left,Pretarget,0,29,29,29,301.27028334513307,303.2728837657487,left,1,1,0.43110361008439213,P18M06,2022-11-17_12h07.09.974,t1_Paradigm,2021.1.4,59.99957654225549,
R,right,Target,0,30,30,30,304.7701675356366,306.7702647386468,right,1,1,0.4856068995431997,P18M06,2022-11-17_12h07.09.974,t1_Paradigm,2021.1.4,59.99957654225549,
G,left,Distractor,0,31,31,31,308.2701871045283,310.27270122943446,left,1,1,0.39131903497036546,P18M06,2022-11-17_12h07.09.974,t1_Paradigm,2021.1.4,59.99957654225549,
R,left,Lure,0,32,32,32,311.770400117035,313.7717612797278,left,1,1,0.4442398084211163,P18M06,2022-11-17_12h07.09.974,t1_Paradigm,2021.1.4,59.99957654225549,
S,left,Distractor,0,33,33,33,315.2701989742345,317.27221521449974,left,1,1,0.38365507626440376,P18M06,2022-11-17_12h07.09.974,t1_Paradigm,2021.1.4,59.99957654225549,
R,left,Lure,0,34,34,34,318.7702397160465,320.77182223211275,left,1,1,0.4040603261673823,P18M06,2022-11-17_12h07.09.974,t1_Paradigm,2021.1.4,59.99957654225549,
P,left,Pretarget,0,35,35,35,322.26979283895344,324.2723056806717,left,1,1,0.503711036988534,P18M06,2022-11-17_12h07.09.974,t1_Paradigm,2021.1.4,59.99957654225549,
P,right,Target,0,36,36,36,325.7702605681843,327.77023009199183,right,1,1,0.5896644667955115,P18M06,2022-11-17_12h07.09.974,t1_Paradigm,2021.1.4,59.99957654225549,
Y,left,Pretarget,0,37,37,37,329.27023907448165,331.2697530594887,left,1,1,0.51425547641702,P18M06,2022-11-17_12h07.09.974,t1_Paradigm,2021.1.4,59.99957654225549,
Y,right,Target,0,38,38,38,332.7700077762711,334.77018646296347,right,1,1,0.4377544761518948,P18M06,2022-11-17_12h07.09.974,t1_Paradigm,2021.1.4,59.99957654225549,
J,left,Distractor,0,39,39,39,336.26939279888757,338.27227103401674,left,1,1,0.7277902391506359,P18M06,2022-11-17_12h07.09.974,t1_Paradigm,2021.1.4,59.99957654225549,
Y,left,Lure,0,40,40,40,339.7704219315783,341.77110748534324,left,1,1,0.44479639985365793,P18M06,2022-11-17_12h07.09.974,t1_Paradigm,2021.1.4,59.99957654225549,
T,left,Distractor,0,41,41,41,343.27029328997014,345.27169744012645,left,1,1,0.4161911312257871,P18M06,2022-11-17_12h07.09.974,t1_Paradigm,2021.1.4,59.99957654225549,
V,left,Distractor,0,42,42,42,346.77023297920823,348.771273981547,left,1,1,0.4365524312015623,P18M06,2022-11-17_12h07.09.974,t1_Paradigm,2021.1.4,59.99957654225549,
N,left,Pretarget,0,43,43,43,350.27024773613084,352.2718199865194,left,1,1,0.44015760358888656,P18M06,2022-11-17_12h07.09.974,t1_Paradigm,2021.1.4,59.99957654225549,
N,right,Target,0,44,44,44,353.7702467737254,355.77010241284734,right,1,1,0.653784436522983,P18M06,2022-11-17_12h07.09.974,t1_Paradigm,2021.1.4,59.99957654225549,
N,right,Target,0,45,45,45,357.2702336208313,359.27021693915594,right,1,1,0.561670646769926,P18M06,2022-11-17_12h07.09.974,t1_Paradigm,2021.1.4,59.99957654225549,
X,left,Distractor,0,46,46,46,360.77022880880395,362.7718318561674,left,1,1,0.5479958218638785,P18M06,2022-11-17_12h07.09.974,t1_Paradigm,2021.1.4,59.99957654225549,
Z,left,Distractor,0,47,47,47,364.27029200678226,366.27172663313104,left,1,1,0.5521514904103242,P18M06,2022-11-17_12h07.09.974,t1_Paradigm,2021.1.4,59.99957654225549,
H,left,Pretarget,0,48,48,48,367.77019672858296,369.77229637739947,left,1,1,0.47570887609617785,P18M06,2022-11-17_12h07.09.974,t1_Paradigm,2021.1.4,59.99957654225549,
H,right,Target,0,49,49,49,371.27016015717527,373.2703808689257,right,1,1,0.4014053692226298,P18M06,2022-11-17_12h07.09.974,t1_Paradigm,2021.1.4,59.99957654225549,
K,left,Distractor,0,50,50,50,374.77021148550557,376.77215650776634,left,1,1,0.37182454188587144,P18M06,2022-11-17_12h07.09.974,t1_Paradigm,2021.1.4,59.99957654225549,
V,left,Pretarget,0,51,51,51,378.27027307945536,380.2717599965399,left,1,1,0.48817042796872556,P18M06,2022-11-17_12h07.09.974,t1_Paradigm,2021.1.4,59.99957654225549,
V,right,Target,0,52,52,52,381.76997473364463,383.77022720477544,right,1,1,0.4456352969282307,P18M06,2022-11-17_12h07.09.974,t1_Paradigm,2021.1.4,59.99957654225549,
R,left,Distractor,0,53,53,53,385.2702599266195,387.2723027934553,left,1,1,0.4957310883910395,P18M06,2022-11-17_12h07.09.974,t1_Paradigm,2021.1.4,59.99957654225549,
V,left,Lure,0,54,54,54,388.770153420337,390.7719781418564,left,1,1,0.6120933354250155,P18M06,2022-11-17_12h07.09.974,t1_Paradigm,2021.1.4,59.99957654225549,
Y,left,Distractor,0,55,55,55,392.27022143034264,394.2722456906922,left,1,1,0.5036706159589812,P18M06,2022-11-17_12h07.09.974,t1_Paradigm,2021.1.4,59.99957654225549,
Q,left,Distractor,0,56,56,56,395.77013513463316,397.77214335487224,left,1,1,0.45970599143765867,P18M06,2022-11-17_12h07.09.974,t1_Paradigm,2021.1.4,59.99957654225549,
Z,left,Pretarget,0,57,57,57,399.2702496609418,401.2692875758512,left,1,1,0.40260709333233535,P18M06,2022-11-17_12h07.09.974,t1_Paradigm,2021.1.4,59.99957654225549,
Z,right,Target,0,58,58,58,402.77022303437116,404.7704071747139,right,1,1,0.6456646182341501,P18M06,2022-11-17_12h07.09.974,t1_Paradigm,2021.1.4,59.99957654225549,
B,left,Distractor,0,59,59,59,406.27038600173546,408.2720243373187,left,1,1,0.5198598864953965,P18M06,2022-11-17_12h07.09.974,t1_Paradigm,2021.1.4,59.99957654225549,
S,left,Pretarget,0,60,60,60,409.7702984228381,411.7722678260179,left,1,1,0.42776759050320834,P18M06,2022-11-17_12h07.09.974,t1_Paradigm,2021.1.4,59.99957654225549,
S,right,Target,0,61,61,61,413.2702188639669,415.270302914083,right,1,1,0.43365911836735904,P18M06,2022-11-17_12h07.09.974,t1_Paradigm,2021.1.4,59.99957654225549,
T,left,Distractor,0,62,62,62,416.7702342624543,418.77231241750997,left,1,1,0.4355589075712487,P18M06,2022-11-17_12h07.09.974,t1_Paradigm,2021.1.4,59.99957654225549,
D,left,Distractor,0,63,63,63,420.27029810199747,422.27153318957426,left,1,1,0.44043445569695905,P18M06,2022-11-17_12h07.09.974,t1_Paradigm,2021.1.4,59.99957654225549,
R,left,Distractor,0,0,0,0,434.54574475460686,436.5381911518052,left,1,1,0.46186081814812496,P18M06,2022-11-17_12h07.09.974,t1_Paradigm,2021.1.4,59.99957654225549,
V,left,Distractor,0,1,1,1,438.03697242517956,440.03854948759545,left,1,1,0.4333466573152691,P18M06,2022-11-17_12h07.09.974,t1_Paradigm,2021.1.4,59.99957654225549,
N,left,Pretarget,0,2,2,2,441.53696215950185,443.5384038434713,left,1,1,0.4214850050630048,P18M06,2022-11-17_12h07.09.974,t1_Paradigm,2021.1.4,59.99957654225549,
N,right,Target,0,3,3,3,445.0365945204394,447.0369688963401,right,1,1,0.522800678096246,P18M06,2022-11-17_12h07.09.974,t1_Paradigm,2021.1.4,59.99957654225549,
S,left,Distractor,0,4,4,4,448.536902490363,450.53868294117274,left,1,1,0.4613837856450118,P18M06,2022-11-17_12h07.09.974,t1_Paradigm,2021.1.4,59.99957654225549,
N,left,Lure,0,5,5,5,452.0369425906101,454.03617715713335,left,1,1,0.40370327356504276,P18M06,2022-11-17_12h07.09.974,t1_Paradigm,2021.1.4,59.99957654225549,
Z,left,Distractor,0,6,6,6,455.5367103299941,457.5384503597743,left,1,1,0.4055119550321251,P18M06,2022-11-17_12h07.09.974,t1_Paradigm,2021.1.4,59.99957654225549,
L,left,Pretarget,0,7,7,7,459.03677449037787,461.0390451265848,left,1,1,0.40889545320533216,P18M06,2022-11-17_12h07.09.974,t1_Paradigm,2021.1.4,59.99957654225549,
L,right,Target,0,8,8,8,462.5369246256887,464.53678892645985,right,1,1,0.5431651860126294,P18M06,2022-11-17_12h07.09.974,t1_Paradigm,2021.1.4,59.99957654225549,
H,left,Distractor,0,9,9,9,466.0366359039326,468.038927071495,left,1,1,0.4169376373756677,P18M06,2022-11-17_12h07.09.974,t1_Paradigm,2021.1.4,59.99957654225549,
L,left,Lure,0,10,10,10,469.53692719206447,471.5389931566897,left,1,1,0.4368825364508666,P18M06,2022-11-17_12h07.09.974,t1_Paradigm,2021.1.4,59.99957654225549,
X,left,Pretarget,0,11,11,11,473.03697114193346,475.03844811412273,left,1,1,0.37743825529469177,P18M06,2022-11-17_12h07.09.974,t1_Paradigm,2021.1.4,59.99957654225549,
X,right,Target,0,12,12,12,476.53693842014764,478.537058079266,right,1,1,0.415006730472669,P18M06,2022-11-17_12h07.09.974,t1_Paradigm,2021.1.4,59.99957654225549,
X,right,Target,0,13,13,13,480.03706064569997,482.0369214176317,right,1,1,0.5473064184770919,P18M06,2022-11-17_12h07.09.974,t1_Paradigm,2021.1.4,59.99957654225549,
R,left,Distractor,0,14,14,14,483.5359824303305,485.5384227707982,left,1,1,0.4214635113021359,P18M06,2022-11-17_12h07.09.974,t1_Paradigm,2021.1.4,59.99957654225549,
T,left,Distractor,0,15,15,15,487.0370372271864,489.0391015877249,left,1,1,0.5527741669793613,P18M06,2022-11-17_12h07.09.974,t1_Paradigm,2021.1.4,59.99957654225549,
V,left,Pretarget,0,16,16,16,490.53670551796677,492.5387891266146,left,1,1,0.42931353516178206,P18M06,2022-11-17_12h07.09.974,t1_Paradigm,2021.1.4,59.99957654225549,
V,right,Target,0,17,17,17,494.0369441945804,496.03665707685286,right,1,1,0.6272473781136796,P18M06,2022-11-17_12h07.09.974,t1_Paradigm,2021.1.4,59.99957654225549,
N,left,Distractor,0,18,18,18,497.5369586306624,499.5389261090895,left,1,1,0.43697236094158143,P18M06,2022-11-17_12h07.09.974,t1_Paradigm,2021.1.4,59.99957654225549,
B,left,Distractor,0,19,19,19,501.03641647537006,503.03900021431036,left,1,1,0.4569397161831148,P18M06,2022-11-17_12h07.09.974,t1_Paradigm,2021.1.4,59.99957654225549,
V,left,Lure,0,20,20,20,504.5369073023903,506.53852446499513,left,1,1,0.717336586676538,P18M06,2022-11-17_12h07.09.974,t1_Paradigm,2021.1.4,59.99957654225549,
P,left,Distractor,0,21,21,21,508.036867843708,510.03877404890954,left,1,1,0.449076539487578,P18M06,2022-11-17_12h07.09.974,t1_Paradigm,2021.1.4,59.99957654225549,
K,left,Pretarget,0,22,22,22,511.5369214176317,513.5385302394279,left,1,1,0.43735539849149063,P18M06,2022-11-17_12h07.09.974,t1_Paradigm,2021.1.4,59.99957654225549,
K,right,Target,0,23,23,23,515.0370099589927,517.0365977284964,right,1,1,0.4433858336415142,P18M06,2022-11-17_12h07.09.974,t1_Paradigm,2021.1.4,59.99957654225549,
J,left,Pretarget,0,24,24,24,518.5368649564916,520.5375216380926,left,1,1,0.4145277731004171,P18M06,2022-11-17_12h07.09.974,t1_Paradigm,2021.1.4,59.99957654225549,
J,right,Target,0,25,25,25,522.0366339791217,524.0368412171374,right,1,1,0.467066150624305,P18M06,2022-11-17_12h07.09.974,t1_Paradigm,2021.1.4,59.99957654225549,
H,left,Distractor,0,26,26,26,525.5368126658141,527.5388237732113,left,1,1,0.4852152003441006,P18M06,2022-11-17_12h07.09.974,t1_Paradigm,2021.1.4,59.99957654225549,
J,left,Lure,0,27,27,27,529.0365204152185,531.0360526859877,left,1,1,0.4439674476161599,P18M06,2022-11-17_12h07.09.974,t1_Paradigm,2021.1.4,59.99957654225549,
V,left,Distractor,0,28,28,28,532.5370603249175,534.5495462577092,left,1,1,0.5145095515763387,P18M06,2022-11-17_12h07.09.974,t1_Paradigm,2021.1.4,59.99957654225549,
Z,left,Pretarget,0,29,29,29,536.0369028111454,538.0384003146319,left,1,1,0.44937392295105383,P18M06,2022-11-17_12h07.09.974,t1_Paradigm,2021.1.4,59.99957654225549,
Z,right,Target,0,30,30,30,539.5369993725326,541.5368928663083,right,1,1,0.5669924303656444,P18M06,2022-11-17_12h07.09.974,t1_Paradigm,2021.1.4,59.99957654225549,
T,left,Distractor,0,31,31,31,543.0368508412503,545.038485006371,left,1,1,0.4414465858717449,P18M06,2022-11-17_12h07.09.974,t1_Paradigm,2021.1.4,59.99957654225549,
Z,left,Lure,0,32,32,32,546.5369522146648,548.5384801943437,left,1,1,0.3816920891404152,P18M06,2022-11-17_12h07.09.974,t1_Paradigm,2021.1.4,59.99957654225549,
F,left,Distractor,0,33,33,33,550.0369955229107,552.0360161145218,left,1,1,0.41987361683277413,P18M06,2022-11-17_12h07.09.974,t1_Paradigm,2021.1.4,59.99957654225549,
Y,left,Pretarget,0,34,34,34,553.5368838838185,555.5360180393327,left,1,1,0.5841399363707751,P18M06,2022-11-17_12h07.09.974,t1_Paradigm,2021.1.4,59.99957654225549,
Y,right,Target,0,35,35,35,557.0369239840657,559.0367751319427,right,1,1,0.5869780712528154,P18M06,2022-11-17_12h07.09.974,t1_Paradigm,2021.1.4,59.99957654225549,
Y,right,Target,0,36,36,36,560.5368713725475,562.5369801244233,right,1,1,0.5749752661795355,P18M06,2022-11-17_12h07.09.974,t1_Paradigm,2021.1.4,59.99957654225549,
W,left,Distractor,0,37,37,37,564.03651881119,566.0379171869135,left,1,1,0.4661207472672686,P18M06,2022-11-17_12h07.09.974,t1_Paradigm,2021.1.4,59.99957654225549,
Q,left,Distractor,0,38,38,38,567.5359541997896,569.538969096553,left,1,1,0.4688629623851739,P18M06,2022-11-17_12h07.09.974,t1_Paradigm,2021.1.4,59.99957654225549,
P,left,Pretarget,0,39,39,39,571.0366811369895,573.0376464300789,left,1,1,0.42635734513169155,P18M06,2022-11-17_12h07.09.974,t1_Paradigm,2021.1.4,59.99957654225549,
P,right,Target,0,40,40,40,574.5361069014762,576.5370231118868,right,1,1,0.43096181558212265,P18M06,2022-11-17_12h07.09.974,t1_Paradigm,2021.1.4,59.99957654225549,
J,left,Distractor,0,41,41,41,578.036899923929,580.0386794123333,left,1,1,0.3691878706449643,P18M06,2022-11-17_12h07.09.974,t1_Paradigm,2021.1.4,59.99957654225549,
P,left,Lure,0,42,42,42,581.5368309515179,583.5384651166387,left,1,1,0.5174022227874957,P18M06,2022-11-17_12h07.09.974,t1_Paradigm,2021.1.4,59.99957654225549,
L,left,Distractor,0,43,43,43,585.0367863600259,587.0385863797856,left,1,1,0.6492187830735929,P18M06,2022-11-17_12h07.09.974,t1_Paradigm,2021.1.4,59.99957654225549,
Z,left,Distractor,0,44,44,44,588.5366015781183,590.5360841245274,left,1,1,0.5118764091166668,P18M06,2022-11-17_12h07.09.974,t1_Paradigm,2021.1.4,59.99957654225549,
F,left,Pretarget,0,45,45,45,592.0368194026523,594.0384477933403,left,1,1,0.48148234881227836,P18M06,2022-11-17_12h07.09.974,t1_Paradigm,2021.1.4,59.99957654225549,
F,right,Target,0,46,46,46,595.5369672923116,597.536911793577,right,1,1,0.5189058215473779,P18M06,2022-11-17_12h07.09.974,t1_Paradigm,2021.1.4,59.99957654225549,
G,left,Pretarget,0,47,47,47,599.0369101896067,601.0372653173399,left,1,1,0.47468968824250624,P18M06,2022-11-17_12h07.09.974,t1_Paradigm,2021.1.4,59.99957654225549,
G,right,Target,0,48,48,48,602.5361614378053,604.5369056983618,right,1,1,0.4790955823264085,P18M06,2022-11-17_12h07.09.974,t1_Paradigm,2021.1.4,59.99957654225549,
V,left,Distractor,0,49,49,49,606.0368842046009,608.0390919636702,left,1,1,0.3847595974220894,P18M06,2022-11-17_12h07.09.974,t1_Paradigm,2021.1.4,59.99957654225549,
G,left,Lure,0,50,50,50,609.5369082647958,611.5386665802798,left,1,1,0.4052610878716223,P18M06,2022-11-17_12h07.09.974,t1_Paradigm,2021.1.4,59.99957654225549,
Q,left,Pretarget,0,51,51,51,613.0368158738129,615.0495459369267,left,1,1,0.47836030420148745,P18M06,2022-11-17_12h07.09.974,t1_Paradigm,2021.1.4,59.99957654225549,
Q,right,Target,0,52,52,52,616.5369919940713,618.536838329921,right,1,1,0.3832046703319065,P18M06,2022-11-17_12h07.09.974,t1_Paradigm,2021.1.4,59.99957654225549,
Y,left,Distractor,0,53,53,53,620.0368473124108,622.0388702895143,left,1,1,0.4810367549653165,P18M06,2022-11-17_12h07.09.974,t1_Paradigm,2021.1.4,59.99957654225549,
V,left,Distractor,0,54,54,54,623.5366160142003,625.5391371967271,left,1,1,0.48515136080095544,P18M06,2022-11-17_12h07.09.974,t1_Paradigm,2021.1.4,59.99957654225549,
B,left,Distractor,0,55,55,55,627.0368954326841,629.0383470615488,left,1,1,0.3934202878153883,P18M06,2022-11-17_12h07.09.974,t1_Paradigm,2021.1.4,59.99957654225549,
J,left,Pretarget,0,56,56,56,630.5370211870759,632.5381654876401,left,1,1,0.36573572078486905,P18M06,2022-11-17_12h07.09.974,t1_Paradigm,2021.1.4,59.99957654225549,
J,right,Target,0,57,57,57,634.0369647259358,636.0368944702786,right,1,1,0.4509352659806609,P18M06,2022-11-17_12h07.09.974,t1_Paradigm,2021.1.4,59.99957654225549,
H,left,Distractor,0,58,58,58,637.5368867710349,639.552891259722,left,1,1,0.40697384951636195,P18M06,2022-11-17_12h07.09.974,t1_Paradigm,2021.1.4,59.99957654225549,
J,left,Lure,0,59,59,59,641.03688227979,643.0370478136465,left,1,1,0.47489692631643265,P18M06,2022-11-17_12h07.09.974,t1_Paradigm,2021.1.4,59.99957654225549,
D,left,Pretarget,0,60,60,60,644.536794380052,646.5370763649698,left,1,1,0.4947600209270604,P18M06,2022-11-17_12h07.09.974,t1_Paradigm,2021.1.4,59.99957654225549,
D,right,Target,0,61,61,61,648.0359195531346,650.0367927760817,right,1,1,0.5631873983656988,P18M06,2022-11-17_12h07.09.974,t1_Paradigm,2021.1.4,59.99957654225549,
R,left,Distractor,0,62,62,62,651.5360311922268,653.5384275828255,left,1,1,0.453408649074845,P18M06,2022-11-17_12h07.09.974,t1_Paradigm,2021.1.4,59.99957654225549,
F,left,Distractor,0,63,63,63,655.0368078537867,657.0388523245929,left,1,1,0.44111840543337166,P18M06,2022-11-17_12h07.09.974,t1_Paradigm,2021.1.4,59.99957654225549,
F,left,Distractor,0,0,0,0,738.7333673811518,740.736604593636,left,1,2,0.7753382215159945,P18M06,2022-11-17_12h07.09.974,t1_Paradigm,2021.1.4,59.99957654225549,
N,left,Pretarget,0,1,1,1,742.2368644432281,744.2392342072562,left,1,2,0.5686355779180303,P18M06,2022-11-17_12h07.09.974,t1_Paradigm,2021.1.4,59.99957654225549,
V,left,Distractor,0,2,2,2,745.7368654056336,747.7385213852976,left,1,2,0.4134774675476365,P18M06,2022-11-17_12h07.09.974,t1_Paradigm,2021.1.4,59.99957654225549,
N,right,Target,0,3,3,3,749.2366395610734,751.2382624981692,right,1,2,0.46574316336773336,P18M06,2022-11-17_12h07.09.974,t1_Paradigm,2021.1.4,59.99957654225549,
N,left,Lure,0,4,4,4,752.7359584984952,754.7367649946245,left,1,2,0.45507938566152006,P18M06,2022-11-17_12h07.09.974,t1_Paradigm,2021.1.4,59.99957654225549,
X,left,Distractor,0,5,5,5,756.2366466186941,758.2383718916099,left,1,2,0.4576073050266132,P18M06,2022-11-17_12h07.09.974,t1_Paradigm,2021.1.4,59.99957654225549,
G,left,Pretarget,0,6,6,6,759.7368474407122,761.735860012297,left,1,2,0.41615776787512004,P18M06,2022-11-17_12h07.09.974,t1_Paradigm,2021.1.4,59.99957654225549,
H,left,Pretarget,0,7,7,7,763.2366462979116,765.2385916409548,left,1,2,0.4012051887693815,P18M06,2022-11-17_12h07.09.974,t1_Paradigm,2021.1.4,59.99957654225549,
G,right,Target,0,8,8,8,766.7367512001656,768.7383330745506,left,0,2,0.6296363902511075,P18M06,2022-11-17_12h07.09.974,t1_Paradigm,2021.1.4,59.99957654225549,
H,right,Target,0,9,9,9,770.2368612352293,772.2373414757312,right,1,2,0.8746203308692202,P18M06,2022-11-17_12h07.09.974,t1_Paradigm,2021.1.4,59.99957654225549,
T,left,Pretarget,0,10,10,10,773.7368541775504,775.7384091046406,left,1,2,0.4455871766549535,P18M06,2022-11-17_12h07.09.974,t1_Paradigm,2021.1.4,59.99957654225549,
K,left,Distractor,0,11,11,11,777.2368612352293,779.2375961924554,left,1,2,0.6903067764942534,P18M06,2022-11-17_12h07.09.974,t1_Paradigm,2021.1.4,59.99957654225549,
T,right,Target,0,12,12,12,780.7363652753993,782.7382900870871,right,1,2,0.8533457076991908,P18M06,2022-11-17_12h07.09.974,t1_Paradigm,2021.1.4,59.99957654225549,
T,left,Lure,0,13,13,13,784.236836212629,786.2369212251506,left,1,2,0.8749866867437959,P18M06,2022-11-17_12h07.09.974,t1_Paradigm,2021.1.4,59.99957654225549,
J,left,Distractor,0,14,14,14,787.7363129846635,789.7525000096648,left,1,2,0.5754452410037629,P18M06,2022-11-17_12h07.09.974,t1_Paradigm,2021.1.4,59.99957654225549,
Q,left,Pretarget,0,15,15,15,791.2368111900869,793.2392133551184,left,1,2,0.8325856509036385,P18M06,2022-11-17_12h07.09.974,t1_Paradigm,2021.1.4,59.99957654225549,
M,left,Distractor,0,16,16,16,794.7366944181849,796.738236192381,left,1,2,0.5016001601470634,P18M06,2022-11-17_12h07.09.974,t1_Paradigm,2021.1.4,59.99957654225549,
Q,right,Target,0,17,17,17,798.2367964332225,800.2385290845414,right,1,2,0.6652989810099825,P18M06,2022-11-17_12h07.09.974,t1_Paradigm,2021.1.4,59.99957654225549,
R,left,Distractor,0,18,18,18,801.7359880122822,803.7386891647475,left,1,2,0.3973619813914411,P18M06,2022-11-17_12h07.09.974,t1_Paradigm,2021.1.4,59.99957654225549,
W,left,Distractor,0,19,19,19,805.2367229695665,807.2376520120306,left,1,2,0.4180617274250835,P18M06,2022-11-17_12h07.09.974,t1_Paradigm,2021.1.4,59.99957654225549,
C,left,Pretarget,0,20,20,20,808.7367807138944,810.7386455356609,left,1,2,0.8052616653149016,P18M06,2022-11-17_12h07.09.974,t1_Paradigm,2021.1.4,59.99957654225549,
T,left,Distractor,0,21,21,21,812.2367890547612,814.2382916911156,left,1,2,0.48962526477407664,P18M06,2022-11-17_12h07.09.974,t1_Paradigm,2021.1.4,59.99957654225549,
C,right,Target,0,22,22,22,815.7367807138944,817.737244272721,right,1,2,0.7345033407909796,P18M06,2022-11-17_12h07.09.974,t1_Paradigm,2021.1.4,59.99957654225549,
F,left,Pretarget,0,23,23,23,819.2367560121929,821.2381973753218,left,1,2,0.6418133907718584,P18M06,2022-11-17_12h07.09.974,t1_Paradigm,2021.1.4,59.99957654225549,
C,right,Target,0,24,24,24,822.7366533555323,824.7384039718308,right,1,2,1.381597452564165,P18M06,2022-11-17_12h07.09.974,t1_Paradigm,2021.1.4,59.99957654225549,
F,right,Target,0,25,25,25,826.236821776547,828.2496192081016,right,1,2,0.8783201398327947,P18M06,2022-11-17_12h07.09.974,t1_Paradigm,2021.1.4,59.99957654225549,
H,left,Distractor,0,26,26,26,829.7366135761258,831.7370428091381,left,1,2,0.47883316630031914,P18M06,2022-11-17_12h07.09.974,t1_Paradigm,2021.1.4,59.99957654225549,
H,left,Lure,0,27,27,27,833.2368490447407,835.2369202627451,left,1,2,1.0430035018944182,P18M06,2022-11-17_12h07.09.974,t1_Paradigm,2021.1.4,59.99957654225549,
P,left,Distractor,0,28,28,28,836.7367582577863,838.735905886977,left,1,2,0.4239587089396082,P18M06,2022-11-17_12h07.09.974,t1_Paradigm,2021.1.4,59.99957654225549,
G,left,Pretarget,0,29,29,29,840.2369610046153,842.2382868790883,left,1,2,0.7935325042926706,P18M06,2022-11-17_12h07.09.974,t1_Paradigm,2021.1.4,59.99957654225549,
K,left,Distractor,0,30,30,30,843.7368317214423,845.7381903177011,left,1,2,0.9094696886604652,P18M06,2022-11-17_12h07.09.974,t1_Paradigm,2021.1.4,59.99957654225549,
G,right,Target,0,31,31,31,847.2369026186643,849.2358074007789,right,1,2,0.5482425185618922,P18M06,2022-11-17_12h07.09.974,t1_Paradigm,2021.1.4,59.99957654225549,
M,left,Pretarget,0,32,32,32,850.7367749394616,852.7391937862267,left,1,2,0.7086470241774805,P18M06,2022-11-17_12h07.09.974,t1_Paradigm,2021.1.4,59.99957654225549,
B,left,Distractor,0,33,33,33,854.2367669194355,856.2384783978341,left,1,2,0.6655094270827249,P18M06,2022-11-17_12h07.09.974,t1_Paradigm,2021.1.4,59.99957654225549,
M,right,Target,0,34,34,34,857.7367858467624,859.73845850816,right,1,2,0.5894084668252617,P18M06,2022-11-17_12h07.09.974,t1_Paradigm,2021.1.4,59.99957654225549,
M,left,Lure,0,35,35,35,861.2366559219663,863.2368493655231,left,1,2,0.7549461245071143,P18M06,2022-11-17_12h07.09.974,t1_Paradigm,2021.1.4,59.99957654225549,
T,left,Distractor,0,36,36,36,864.7368172853603,866.7385666184127,left,1,2,0.6294127912260592,P18M06,2022-11-17_12h07.09.974,t1_Paradigm,2021.1.4,59.99957654225549,
F,left,Distractor,0,37,37,37,868.2366472603171,870.2359851250658,left,1,2,0.6518339606118388,P18M06,2022-11-17_12h07.09.974,t1_Paradigm,2021.1.4,59.99957654225549,
X,left,Distractor,0,38,38,38,871.7367749394616,873.7387404930778,left,1,2,0.7490709575358778,P18M06,2022-11-17_12h07.09.974,t1_Paradigm,2021.1.4,59.99957654225549,
C,left,Distractor,0,39,39,39,875.236521826766,877.2389650543919,left,1,2,0.6409529999946244,P18M06,2022-11-17_12h07.09.974,t1_Paradigm,2021.1.4,59.99957654225549,
R,left,Distractor,0,40,40,40,878.7363177966909,880.7380199718755,left,1,2,0.6781483824597672,P18M06,2022-11-17_12h07.09.974,t1_Paradigm,2021.1.4,59.99957654225549,
B,left,Pretarget,0,41,41,41,882.2367524833535,884.2384222575347,left,1,2,0.5693820840679109,P18M06,2022-11-17_12h07.09.974,t1_Paradigm,2021.1.4,59.99957654225549,
H,left,Distractor,0,42,42,42,885.7367495961371,887.7389525431208,left,1,2,0.572978274023626,P18M06,2022-11-17_12h07.09.974,t1_Paradigm,2021.1.4,59.99957654225549,
B,right,Target,0,43,43,43,889.2365988192032,891.2494982657372,left,0,2,0.6624403147725388,P18M06,2022-11-17_12h07.09.974,t1_Paradigm,2021.1.4,59.99957654225549,
W,left,Pretarget,0,44,44,44,892.7366238417453,894.7377155307913,left,1,2,0.5180348442518152,P18M06,2022-11-17_12h07.09.974,t1_Paradigm,2021.1.4,59.99957654225549,
L,left,Pretarget,0,45,45,45,896.236781034735,898.2387260569376,left,1,2,0.5051754979067482,P18M06,2022-11-17_12h07.09.974,t1_Paradigm,2021.1.4,59.99957654225549,
W,right,Target,0,46,46,46,899.7366427690722,901.7380539768492,left,0,2,0.7016843386227265,P18M06,2022-11-17_12h07.09.974,t1_Paradigm,2021.1.4,59.99957654225549,
L,right,Target,0,47,47,47,903.2357920022914,905.2373398717027,right,1,2,0.770448237308301,P18M06,2022-11-17_12h07.09.974,t1_Paradigm,2021.1.4,59.99957654225549,
W,right,Target,0,48,48,48,906.7368673304445,908.7368522527395,right,1,2,0.5990110317361541,P18M06,2022-11-17_12h07.09.974,t1_Paradigm,2021.1.4,59.99957654225549,
X,left,Distractor,0,49,49,49,910.2359145486262,912.2384649241576,left,1,2,0.7294888854958117,P18M06,2022-11-17_12h07.09.974,t1_Paradigm,2021.1.4,59.99957654225549,
R,left,Distractor,0,50,50,50,913.7367935460061,915.737359119812,left,1,2,0.7664962780545466,P18M06,2022-11-17_12h07.09.974,t1_Paradigm,2021.1.4,59.99957654225549,
V,left,Pretarget,0,51,51,51,917.2367989996565,919.237305866729,left,1,2,0.43442679749568924,P18M06,2022-11-17_12h07.09.974,t1_Paradigm,2021.1.4,59.99957654225549,
Z,left,Distractor,0,52,52,52,920.7363909395644,922.7383167136577,left,1,2,0.6136742474627681,P18M06,2022-11-17_12h07.09.974,t1_Paradigm,2021.1.4,59.99957654225549,
V,right,Target,0,53,53,53,924.2368108693045,926.2494700351963,right,1,2,0.5582999805919826,P18M06,2022-11-17_12h07.09.974,t1_Paradigm,2021.1.4,59.99957654225549,
V,left,Lure,0,54,54,54,927.7367159119458,929.7367178367567,left,1,2,0.9108661396312527,P18M06,2022-11-17_12h07.09.974,t1_Paradigm,2021.1.4,59.99957654225549,
N,left,Distractor,0,55,55,55,931.2368926738272,933.2383866484743,left,1,2,0.6895137540413998,P18M06,2022-11-17_12h07.09.974,t1_Paradigm,2021.1.4,59.99957654225549,
B,left,Distractor,0,56,56,56,934.7362924533663,936.7381685031578,left,1,2,0.4860714207752608,P18M06,2022-11-17_12h07.09.974,t1_Paradigm,2021.1.4,59.99957654225549,
V,left,Lure,0,57,57,57,938.2367040422396,940.2383439818514,left,1,2,0.6334006803226657,P18M06,2022-11-17_12h07.09.974,t1_Paradigm,2021.1.4,59.99957654225549,
J,left,Distractor,0,58,58,58,941.736563851824,943.7381537462934,left,1,2,0.5737632763921283,P18M06,2022-11-17_12h07.09.974,t1_Paradigm,2021.1.4,59.99957654225549,
H,left,Distractor,0,59,59,59,945.2368548191735,947.2387712900527,left,1,2,0.7210521149099804,P18M06,2022-11-17_12h07.09.974,t1_Paradigm,2021.1.4,59.99957654225549,
X,left,Pretarget,0,60,60,60,948.736753445759,950.7379182776203,left,1,2,0.5982587511534803,P18M06,2022-11-17_12h07.09.974,t1_Paradigm,2021.1.4,59.99957654225549,
P,left,Distractor,0,61,61,61,952.2367900171666,954.2384107086691,left,1,2,0.7136842564214021,P18M06,2022-11-17_12h07.09.974,t1_Paradigm,2021.1.4,59.99957654225549,
X,right,Target,0,62,62,62,955.7364178869175,957.7382823878434,right,1,2,0.7014360378379934,P18M06,2022-11-17_12h07.09.974,t1_Paradigm,2021.1.4,59.99957654225549,
Q,left,Distractor,0,63,63,63,959.2368015660322,961.2495852030697,left,1,2,0.566281212377362,P18M06,2022-11-17_12h07.09.974,t1_Paradigm,2021.1.4,59.99957654225549,
B,left,Pretarget,0,0,0,0,970.195792489918,972.188568029902,left,1,2,0.6672087150509469,P18M06,2022-11-17_12h07.09.974,t1_Paradigm,2021.1.4,59.99957654225549,
F,left,Distractor,0,1,1,1,973.686893122911,975.6884570324328,left,1,2,0.38330347737064585,P18M06,2022-11-17_12h07.09.974,t1_Paradigm,2021.1.4,59.99957654225549,
B,right,Target,0,2,2,2,977.1866384061868,979.1884551076218,right,1,2,0.41927660442888737,P18M06,2022-11-17_12h07.09.974,t1_Paradigm,2021.1.4,59.99957654225549,
V,left,Distractor,0,3,3,3,980.6865379951778,982.6879504861427,left,1,2,0.42394459364004433,P18M06,2022-11-17_12h07.09.974,t1_Paradigm,2021.1.4,59.99957654225549,
G,left,Pretarget,0,4,4,4,984.1867834086297,986.1889578042901,left,1,2,0.49094376084394753,P18M06,2022-11-17_12h07.09.974,t1_Paradigm,2021.1.4,59.99957654225549,
B,left,Lure,0,5,5,5,987.6862707671244,989.6885532730375,left,1,2,0.43148408114211634,P18M06,2022-11-17_12h07.09.974,t1_Paradigm,2021.1.4,59.99957654225549,
G,right,Target,0,6,6,6,991.1859352082829,993.1885324208997,right,1,2,0.5955130071961321,P18M06,2022-11-17_12h07.09.974,t1_Paradigm,2021.1.4,59.99957654225549,
Y,left,Pretarget,0,7,7,7,994.6867895039031,996.6877573633683,left,1,2,0.47210659098345786,P18M06,2022-11-17_12h07.09.974,t1_Paradigm,2021.1.4,59.99957654225549,
P,left,Distractor,0,8,8,8,998.1866971129202,1000.1877134134993,left,1,2,0.5561836501583457,P18M06,2022-11-17_12h07.09.974,t1_Paradigm,2021.1.4,59.99957654225549,
Y,right,Target,0,9,9,9,1001.6864786468213,1003.6887303557014,right,1,2,0.43114723911276087,P18M06,2022-11-17_12h07.09.974,t1_Paradigm,2021.1.4,59.99957654225549,
X,left,Distractor,0,10,10,10,1005.1866810728097,1007.1878439799184,left,1,2,0.4518825941486284,P18M06,2022-11-17_12h07.09.974,t1_Paradigm,2021.1.4,59.99957654225549,
Y,right,Target,0,11,11,11,1008.6867692933884,1010.6873724010657,right,1,2,0.5843584025278687,P18M06,2022-11-17_12h07.09.974,t1_Paradigm,2021.1.4,59.99957654225549,
N,left,Distractor,0,12,12,12,1012.1867769926321,1014.1883662454784,left,1,2,0.45929055294254795,P18M06,2022-11-17_12h07.09.974,t1_Paradigm,2021.1.4,59.99957654225549,
Y,right,Target,0,13,13,13,1015.686722456303,1017.6885507066036,right,1,2,0.41519022919237614,P18M06,2022-11-17_12h07.09.974,t1_Paradigm,2021.1.4,59.99957654225549,
Y,left,Lure,0,14,14,14,1019.1867365715443,1021.1864802507916,left,1,2,0.5814676560694352,P18M06,2022-11-17_12h07.09.974,t1_Paradigm,2021.1.4,59.99957654225549,
K,left,Distractor,0,15,15,15,1022.6865049525513,1024.6886713281274,left,1,2,0.5030995885026641,P18M06,2022-11-17_12h07.09.974,t1_Paradigm,2021.1.4,59.99957654225549,
T,left,Pretarget,0,16,16,16,1026.18676255655,1028.1884881502483,left,1,2,0.6672581185121089,P18M06,2022-11-17_12h07.09.974,t1_Paradigm,2021.1.4,59.99957654225549,
J,left,Distractor,0,17,17,17,1029.686311188154,1031.6884352178895,left,1,2,0.47948760230792686,P18M06,2022-11-17_12h07.09.974,t1_Paradigm,2021.1.4,59.99957654225549,
T,right,Target,0,18,18,18,1033.186578095425,1035.1883283908828,left,0,2,0.6434536511660554,P18M06,2022-11-17_12h07.09.974,t1_Paradigm,2021.1.4,59.99957654225549,
S,left,Pretarget,0,19,19,19,1036.6867372131674,1038.6857715992955,left,1,2,0.7781943213194609,P18M06,2022-11-17_12h07.09.974,t1_Paradigm,2021.1.4,59.99957654225549,
R,left,Distractor,0,20,20,20,1040.1867708973587,1042.188162536244,left,1,2,0.49166075320681557,P18M06,2022-11-17_12h07.09.974,t1_Paradigm,2021.1.4,59.99957654225549,
S,right,Target,0,21,21,21,1043.6866820352152,1045.6888201802503,right,1,2,0.6230551381595433,P18M06,2022-11-17_12h07.09.974,t1_Paradigm,2021.1.4,59.99957654225549,
Q,left,Distractor,0,22,22,22,1047.186569112935,1049.1882728921482,left,1,2,0.48330931598320603,P18M06,2022-11-17_12h07.09.974,t1_Paradigm,2021.1.4,59.99957654225549,
D,left,Distractor,0,23,23,23,1050.6864257144625,1052.6886193582322,left,1,2,0.47124620008980855,P18M06,2022-11-17_12h07.09.974,t1_Paradigm,2021.1.4,59.99957654225549,
F,left,Distractor,0,24,24,24,1054.1867022457882,1056.188509643951,left,1,2,0.6357755772187375,P18M06,2022-11-17_12h07.09.974,t1_Paradigm,2021.1.4,59.99957654225549,
Z,left,Distractor,0,25,25,25,1057.6858023962704,1059.6877323408262,left,1,2,0.5600666370010003,P18M06,2022-11-17_12h07.09.974,t1_Paradigm,2021.1.4,59.99957654225549,
P,left,Distractor,0,26,26,26,1061.1866663159453,1063.1872909173253,left,1,2,0.6765786984469742,P18M06,2022-11-17_12h07.09.974,t1_Paradigm,2021.1.4,59.99957654225549,
H,left,Distractor,0,27,27,27,1064.6866002307506,1066.686707378598,left,1,2,0.4891302674077451,P18M06,2022-11-17_12h07.09.974,t1_Paradigm,2021.1.4,59.99957654225549,
Z,left,Pretarget,0,28,28,28,1068.1867237394908,1070.1878606615937,left,1,2,0.5400341589702293,P18M06,2022-11-17_12h07.09.974,t1_Paradigm,2021.1.4,59.99957654225549,
J,left,Pretarget,0,29,29,29,1071.686636481376,1073.6884968118975,left,1,2,0.543353175977245,P18M06,2022-11-17_12h07.09.974,t1_Paradigm,2021.1.4,59.99957654225549,
Z,right,Target,0,30,30,30,1075.186602476344,1077.188745112624,right,1,2,0.48301257414277643,P18M06,2022-11-17_12h07.09.974,t1_Paradigm,2021.1.4,59.99957654225549,
J,right,Target,0,31,31,31,1078.6866377645638,1080.6878645112156,right,1,2,0.8399486973066814,P18M06,2022-11-17_12h07.09.974,t1_Paradigm,2021.1.4,59.99957654225549,
V,left,Pretarget,0,32,32,32,1082.1864176944364,1084.1876130024903,left,1,2,0.5402824596967548,P18M06,2022-11-17_12h07.09.974,t1_Paradigm,2021.1.4,59.99957654225549,
Z,left,Lure,0,33,33,33,1085.6866528422688,1087.6867830878473,left,1,2,0.8971306831808761,P18M06,2022-11-17_12h07.09.974,t1_Paradigm,2021.1.4,59.99957654225549,
V,right,Target,0,34,34,34,1089.1866509174579,1091.187972300686,right,1,2,0.7559293825179338,P18M06,2022-11-17_12h07.09.974,t1_Paradigm,2021.1.4,59.99957654225549,
X,left,Distractor,0,35,35,35,1092.6864363009227,1094.688028761826,left,1,2,0.5996317834942602,P18M06,2022-11-17_12h07.09.974,t1_Paradigm,2021.1.4,59.99957654225549,
S,left,Distractor,0,36,36,36,1096.1867827670649,1098.1878773433273,left,1,2,0.5239379209815525,P18M06,2022-11-17_12h07.09.974,t1_Paradigm,2021.1.4,59.99957654225549,
Q,left,Distractor,0,37,37,37,1099.6868700251798,1101.6883688119124,left,1,2,0.4955655545927584,P18M06,2022-11-17_12h07.09.974,t1_Paradigm,2021.1.4,59.99957654225549,
P,left,Distractor,0,38,38,38,1103.186646426213,1105.187431107799,left,1,2,0.5965517639997415,P18M06,2022-11-17_12h07.09.974,t1_Paradigm,2021.1.4,59.99957654225549,
S,left,Lure,0,39,39,39,1106.7033486591536,1108.6884082705365,left,1,2,0.5193462825845927,P18M06,2022-11-17_12h07.09.974,t1_Paradigm,2021.1.4,59.99957654225549,
K,left,Pretarget,0,40,40,40,1110.1866592583247,1112.188150666596,left,1,2,0.4276886732550338,P18M06,2022-11-17_12h07.09.974,t1_Paradigm,2021.1.4,59.99957654225549,
L,left,Distractor,0,41,41,41,1113.686607609212,1115.6875719398377,left,1,2,0.6082408247166313,P18M06,2022-11-17_12h07.09.974,t1_Paradigm,2021.1.4,59.99957654225549,
K,right,Target,0,42,42,42,1117.1867227770854,1119.1866441806196,right,1,2,0.40493932348908857,P18M06,2022-11-17_12h07.09.974,t1_Paradigm,2021.1.4,59.99957654225549,
B,left,Distractor,0,43,43,43,1120.6867041705991,1122.6881304560811,left,1,2,0.5036260245251469,P18M06,2022-11-17_12h07.09.974,t1_Paradigm,2021.1.4,59.99957654225549,
N,left,Distractor,0,44,44,44,1124.1864616443054,1126.1888086313847,left,1,2,0.6353867652942427,P18M06,2022-11-17_12h07.09.974,t1_Paradigm,2021.1.4,59.99957654225549,
S,left,Pretarget,0,45,45,45,1127.6867567821173,1129.699501922878,left,1,2,0.45252034842269495,P18M06,2022-11-17_12h07.09.974,t1_Paradigm,2021.1.4,59.99957654225549,
Z,left,Distractor,0,46,46,46,1131.1866493134294,1133.1888044609805,left,1,2,0.5471200325409882,P18M06,2022-11-17_12h07.09.974,t1_Paradigm,2021.1.4,59.99957654225549,
S,right,Target,0,47,47,47,1134.6866932632984,1136.6886767817778,right,1,2,0.5030784155242145,P18M06,2022-11-17_12h07.09.974,t1_Paradigm,2021.1.4,59.99957654225549,
C,left,Distractor,0,48,48,48,1138.1865893234499,1140.1878962706542,left,1,2,0.5559680712176487,P18M06,2022-11-17_12h07.09.974,t1_Paradigm,2021.1.4,59.99957654225549,
T,left,Pretarget,0,49,49,49,1141.6867022457882,1143.6880428771256,left,1,2,0.49599029641831294,P18M06,2022-11-17_12h07.09.974,t1_Paradigm,2021.1.4,59.99957654225549,
S,left,Lure,0,50,50,50,1145.1866348773474,1147.188449974812,left,1,2,0.41917394782649353,P18M06,2022-11-17_12h07.09.974,t1_Paradigm,2021.1.4,59.99957654225549,
T,right,Target,0,51,51,51,1148.6865787369898,1150.6882741753361,right,1,2,0.4076135286013596,P18M06,2022-11-17_12h07.09.974,t1_Paradigm,2021.1.4,59.99957654225549,
N,left,Pretarget,0,52,52,52,1152.1867352883564,1154.188043197908,left,1,2,0.5717046902282164,P18M06,2022-11-17_12h07.09.974,t1_Paradigm,2021.1.4,59.99957654225549,
B,left,Distractor,0,53,53,53,1155.686642576591,1157.6885048319236,left,1,2,0.431392973405309,P18M06,2022-11-17_12h07.09.974,t1_Paradigm,2021.1.4,59.99957654225549,
N,right,Target,0,54,54,54,1159.186647067836,1161.1889090423938,right,1,2,0.5310552330920473,P18M06,2022-11-17_12h07.09.974,t1_Paradigm,2021.1.4,59.99957654225549,
N,left,Lure,0,55,55,55,1162.6866682407563,1164.6866772231879,left,1,2,1.0972649067407474,P18M06,2022-11-17_12h07.09.974,t1_Paradigm,2021.1.4,59.99957654225549,
X,left,Distractor,0,56,56,56,1166.1866990377312,1168.1886876890785,left,1,2,0.5232016805093735,P18M06,2022-11-17_12h07.09.974,t1_Paradigm,2021.1.4,59.99957654225549,
W,left,Distractor,0,57,57,57,1169.6866387269692,1171.688670365722,left,1,2,0.6071401532390155,P18M06,2022-11-17_12h07.09.974,t1_Paradigm,2021.1.4,59.99957654225549,
S,left,Distractor,0,58,58,58,1173.186657012673,1175.186733042763,left,1,2,0.6610066508874297,P18M06,2022-11-17_12h07.09.974,t1_Paradigm,2021.1.4,59.99957654225549,
L,left,Distractor,0,59,59,59,1176.6867189274635,1178.6874856441282,left,1,2,0.4883802324766293,P18M06,2022-11-17_12h07.09.974,t1_Paradigm,2021.1.4,59.99957654225549,
K,left,Pretarget,0,60,60,60,1180.186620120483,1182.1879706966574,left,1,2,0.7639276168192737,P18M06,2022-11-17_12h07.09.974,t1_Paradigm,2021.1.4,59.99957654225549,
V,left,Pretarget,0,61,61,61,1183.6866653535399,1185.6882738545537,left,1,2,0.49561720370547846,P18M06,2022-11-17_12h07.09.974,t1_Paradigm,2021.1.4,59.99957654225549,
K,right,Target,0,62,62,62,1187.1866736944066,1189.1882658344693,right,1,2,0.6434700120589696,P18M06,2022-11-17_12h07.09.974,t1_Paradigm,2021.1.4,59.99957654225549,
V,right,Target,0,63,63,63,1190.686724381114,1192.6888137641945,right,1,2,0.8070655346964486,P18M06,2022-11-17_12h07.09.974,t1_Paradigm,2021.1.4,59.99957654225549,
R,left,Distractor,0,0,0,0,1249.4003932390478,1251.405746140459,left,1,3,0.34615108236903325,P18M06,2022-11-17_12h07.09.974,t1_Paradigm,2021.1.4,59.99957654225549,
P,left,Lure,0,1,1,1,1252.9033661107533,1254.9042034038575,left,1,3,0.5434032211196609,P18M06,2022-11-17_12h07.09.974,t1_Paradigm,2021.1.4,59.99957654225549,
V,left,Distractor,0,2,2,2,1256.4031431534095,1258.4057718046242,left,1,3,0.4659853688790463,P18M06,2022-11-17_12h07.09.974,t1_Paradigm,2021.1.4,59.99957654225549,
P,left,Pretarget,0,3,3,3,1259.9032987423707,1261.9055405064137,left,1,3,0.8382978505105712,P18M06,2022-11-17_12h07.09.974,t1_Paradigm,2021.1.4,59.99957654225549,
Z,left,Distractor,0,4,4,4,1263.4032624917454,1265.402671253716,left,1,3,0.5092054120614193,P18M06,2022-11-17_12h07.09.974,t1_Paradigm,2021.1.4,59.99957654225549,
L,left,Pretarget,0,5,5,5,1266.9033648275654,1268.9054125064285,left,1,3,0.5104071361711249,P18M06,2022-11-17_12h07.09.974,t1_Paradigm,2021.1.4,59.99957654225549,
P,right,Target,0,6,6,6,1270.4033523162943,1272.4051828122465,right,1,3,0.754605753638316,P18M06,2022-11-17_12h07.09.974,t1_Paradigm,2021.1.4,59.99957654225549,
S,left,Distractor,0,7,7,7,1273.9033641859423,1275.9050676443148,left,1,3,0.6309773423708975,P18M06,2022-11-17_12h07.09.974,t1_Paradigm,2021.1.4,59.99957654225549,
L,right,Target,0,8,8,8,1277.4033041959628,1279.4041931381798,left,0,3,0.4916764725348912,P18M06,2022-11-17_12h07.09.974,t1_Paradigm,2021.1.4,59.99957654225549,
D,left,Distractor,0,9,9,9,1280.9032717949594,1282.9050310729071,left,1,3,0.5908235242823139,P18M06,2022-11-17_12h07.09.974,t1_Paradigm,2021.1.4,59.99957654225549,
G,left,Distractor,0,10,10,10,1284.403270832554,1286.4043570680078,left,1,3,0.5155521579436027,P18M06,2022-11-17_12h07.09.974,t1_Paradigm,2021.1.4,59.99957654225549,
M,left,Pretarget,0,11,11,11,1287.903348787455,1289.904856556619,left,1,3,0.47090903721982613,P18M06,2022-11-17_12h07.09.974,t1_Paradigm,2021.1.4,59.99957654225549,
Y,left,Distractor,0,12,12,12,1291.4030764265917,1293.4052630126826,left,1,3,0.5225988936144859,P18M06,2022-11-17_12h07.09.974,t1_Paradigm,2021.1.4,59.99957654225549,
V,left,Distractor,0,13,13,13,1294.9033500706428,1296.9048472533468,left,1,3,0.46303912374423817,P18M06,2022-11-17_12h07.09.974,t1_Paradigm,2021.1.4,59.99957654225549,
M,right,Target,0,14,14,14,1298.4033228025073,1300.4055340903578,right,1,3,0.5144133109715767,P18M06,2022-11-17_12h07.09.974,t1_Paradigm,2021.1.4,59.99957654225549,
S,left,Pretarget,0,15,15,15,1301.9032660205266,1303.9039836545126,left,1,3,0.45579381159041077,P18M06,2022-11-17_12h07.09.974,t1_Paradigm,2021.1.4,59.99957654225549,
Q,left,Distractor,0,16,16,16,1305.403300346341,1307.405220025219,left,1,3,0.44247956812614575,P18M06,2022-11-17_12h07.09.974,t1_Paradigm,2021.1.4,59.99957654225549,
R,left,Pretarget,0,17,17,17,1308.9030215694802,1310.9050108623924,left,1,3,0.5588796697556973,P18M06,2022-11-17_12h07.09.974,t1_Paradigm,2021.1.4,59.99957654225549,
S,right,Target,0,18,18,18,1312.403371243563,1314.4045569276204,right,1,3,0.7073134504607879,P18M06,2022-11-17_12h07.09.974,t1_Paradigm,2021.1.4,59.99957654225549,
F,left,Distractor,0,19,19,19,1315.9033542411053,1317.903930080589,left,1,3,0.5518130443524569,P18M06,2022-11-17_12h07.09.974,t1_Paradigm,2021.1.4,59.99957654225549,
R,right,Target,0,20,20,20,1319.403344937833,1321.4054038447794,right,1,3,0.6823223366518505,P18M06,2022-11-17_12h07.09.974,t1_Paradigm,2021.1.4,59.99957654225549,
P,left,Distractor,0,21,21,21,1322.903247093258,1324.9052338197362,left,1,3,0.5264818804571405,P18M06,2022-11-17_12h07.09.974,t1_Paradigm,2021.1.4,59.99957654225549,
L,left,Distractor,0,22,22,22,1326.4033321057213,1328.4045755341067,left,1,3,0.5953304709400982,P18M06,2022-11-17_12h07.09.974,t1_Paradigm,2021.1.4,59.99957654225549,
R,right,Target,0,23,23,23,1329.9033051583683,1331.9053076041746,left,0,3,0.550398628518451,P18M06,2022-11-17_12h07.09.974,t1_Paradigm,2021.1.4,59.99957654225549,
H,left,Pretarget,0,24,24,24,1333.4032987423707,1335.4023469229578,left,1,3,0.525518833019305,P18M06,2022-11-17_12h07.09.974,t1_Paradigm,2021.1.4,59.99957654225549,
G,left,Pretarget,0,25,25,25,1336.903069368971,1338.9035727072041,left,1,3,0.7199764659744687,P18M06,2022-11-17_12h07.09.974,t1_Paradigm,2021.1.4,59.99957654225549,
T,left,Distractor,0,26,26,26,1340.4032875142875,1342.4051645264844,left,1,3,0.49855318322079256,P18M06,2022-11-17_12h07.09.974,t1_Paradigm,2021.1.4,59.99957654225549,
H,right,Target,0,27,27,27,1343.9034520856803,1345.9052155340323,right,1,3,0.7107088183402084,P18M06,2022-11-17_12h07.09.974,t1_Paradigm,2021.1.4,59.99957654225549,
G,right,Target,0,28,28,28,1347.4033019503695,1349.4051093485905,right,1,3,0.7307717725052498,P18M06,2022-11-17_12h07.09.974,t1_Paradigm,2021.1.4,59.99957654225549,
D,left,Distractor,0,29,29,29,1350.903243243636,1352.9054099399946,left,1,3,0.5103631863021292,P18M06,2022-11-17_12h07.09.974,t1_Paradigm,2021.1.4,59.99957654225549,
N,left,Pretarget,0,30,30,30,1354.4023709830944,1356.4054477946484,left,1,3,0.46640176977962255,P18M06,2022-11-17_12h07.09.974,t1_Paradigm,2021.1.4,59.99957654225549,
V,left,Distractor,0,31,31,31,1357.902383815148,1359.9051375791314,left,1,3,0.5826026534195989,P18M06,2022-11-17_12h07.09.974,t1_Paradigm,2021.1.4,59.99957654225549,
R,left,Distractor,0,32,32,32,1361.4033247273182,1363.4046230128151,left,1,3,0.7632706144358963,P18M06,2022-11-17_12h07.09.974,t1_Paradigm,2021.1.4,59.99957654225549,
N,right,Target,0,33,33,33,1364.903240035579,1366.9044449677458,right,1,3,0.5913230128935538,P18M06,2022-11-17_12h07.09.974,t1_Paradigm,2021.1.4,59.99957654225549,
Z,left,Distractor,0,34,34,34,1368.403256396472,1370.4053749726154,left,1,3,0.5305682557518594,P18M06,2022-11-17_12h07.09.974,t1_Paradigm,2021.1.4,59.99957654225549,
N,left,Lure,0,35,35,35,1371.9033808676177,1373.9050102207693,left,1,3,0.7907495473627932,P18M06,2022-11-17_12h07.09.974,t1_Paradigm,2021.1.4,59.99957654225549,
Y,left,Pretarget,0,36,36,36,1375.4031537398696,1377.4050852884538,left,1,3,0.6666431411867961,P18M06,2022-11-17_12h07.09.974,t1_Paradigm,2021.1.4,59.99957654225549,
Y,left,Lure,0,37,37,37,1378.9033824716462,1380.903068085725,left,1,3,0.8488320242613554,P18M06,2022-11-17_12h07.09.974,t1_Paradigm,2021.1.4,59.99957654225549,
B,left,Distractor,0,38,38,38,1382.4033288977225,1384.4054025615333,left,1,3,0.7543385256431065,P18M06,2022-11-17_12h07.09.974,t1_Paradigm,2021.1.4,59.99957654225549,
Y,right,Target,0,39,39,39,1385.9032387523912,1387.9052318949252,right,1,3,0.45458470907760784,P18M06,2022-11-17_12h07.09.974,t1_Paradigm,2021.1.4,59.99957654225549,
J,left,Distractor,0,40,40,40,1389.4032230330631,1391.4050997245358,left,1,3,0.47474839503411204,P18M06,2022-11-17_12h07.09.974,t1_Paradigm,2021.1.4,59.99957654225549,
X,left,Distractor,0,41,41,41,1392.9032108426327,1394.9051565064583,left,1,3,0.49471446697134525,P18M06,2022-11-17_12h07.09.974,t1_Paradigm,2021.1.4,59.99957654225549,
W,left,Pretarget,0,42,42,42,1396.403476145817,1398.405183133029,left,1,3,0.6746840421692468,P18M06,2022-11-17_12h07.09.974,t1_Paradigm,2021.1.4,59.99957654225549,
S,left,Pretarget,0,43,43,43,1399.9033202360733,1401.9050516042043,left,1,3,0.8549089756561443,P18M06,2022-11-17_12h07.09.974,t1_Paradigm,2021.1.4,59.99957654225549,
R,left,Distractor,0,44,44,44,1403.4029692787444,1405.40234563977,left,1,3,0.509507286711596,P18M06,2022-11-17_12h07.09.974,t1_Paradigm,2021.1.4,59.99957654225549,
W,right,Target,0,45,45,45,1406.9032259202795,1408.9038463512552,right,1,3,0.6399723083595745,P18M06,2022-11-17_12h07.09.974,t1_Paradigm,2021.1.4,59.99957654225549,
S,right,Target,0,46,46,46,1410.4031838952214,1412.4053935791017,right,1,3,0.7543484704801813,P18M06,2022-11-17_12h07.09.974,t1_Paradigm,2021.1.4,59.99957654225549,
D,left,Distractor,0,47,47,47,1413.903316707234,1415.9050968373194,left,1,3,0.774632457178086,P18M06,2022-11-17_12h07.09.974,t1_Paradigm,2021.1.4,59.99957654225549,
T,left,Distractor,0,48,48,48,1417.4023632838507,1419.4047214990132,left,1,3,0.6190938756335527,P18M06,2022-11-17_12h07.09.974,t1_Paradigm,2021.1.4,59.99957654225549,
S,right,Target,0,49,49,49,1420.9032089178218,1422.9051985315164,right,1,3,0.6226236595539376,P18M06,2022-11-17_12h07.09.974,t1_Paradigm,2021.1.4,59.99957654225549,
K,left,Distractor,0,50,50,50,1424.4034414992202,1426.4052264412749,left,1,3,0.38650476007023826,P18M06,2022-11-17_12h07.09.974,t1_Paradigm,2021.1.4,59.99957654225549,
S,left,Lure,0,51,51,51,1427.9032121258206,1429.90244797559,left,1,3,1.2254092470393516,P18M06,2022-11-17_12h07.09.974,t1_Paradigm,2021.1.4,59.99957654225549,
T,left,Pretarget,0,52,52,52,1431.4032653789618,1433.4023138803313,None,0,3,,P18M06,2022-11-17_12h07.09.974,t1_Paradigm,2021.1.4,59.99957654225549,
V,left,Distractor,0,53,53,53,1434.90339017089,1436.9054676843807,left,1,3,0.7662386740557849,P18M06,2022-11-17_12h07.09.974,t1_Paradigm,2021.1.4,59.99957654225549,
B,left,Distractor,0,54,54,54,1438.402963825094,1440.405078230775,left,1,3,0.5148505640099756,P18M06,2022-11-17_12h07.09.974,t1_Paradigm,2021.1.4,59.99957654225549,
T,right,Target,0,55,55,55,1441.9033041959628,1443.90488863684,right,1,3,0.7588720988132991,P18M06,2022-11-17_12h07.09.974,t1_Paradigm,2021.1.4,59.99957654225549,
Y,left,Pretarget,0,56,56,56,1445.4032352235517,1447.4048831831897,left,1,3,0.49096685857512057,P18M06,2022-11-17_12h07.09.974,t1_Paradigm,2021.1.4,59.99957654225549,
T,left,Lure,0,57,57,57,1448.903240035579,1450.9042832835694,left,1,3,0.767428849299904,P18M06,2022-11-17_12h07.09.974,t1_Paradigm,2021.1.4,59.99957654225549,
P,left,Pretarget,0,58,58,58,1452.403087654675,1454.4041151833371,left,1,3,0.4515803987160325,P18M06,2022-11-17_12h07.09.974,t1_Paradigm,2021.1.4,59.99957654225549,
Y,right,Target,0,59,59,59,1455.9031335293548,1457.905019203201,right,1,3,0.6788137257099152,P18M06,2022-11-17_12h07.09.974,t1_Paradigm,2021.1.4,59.99957654225549,
R,left,Distractor,0,60,60,60,1459.403155985463,1461.4052857896313,left,1,3,0.6824419957702048,P18M06,2022-11-17_12h07.09.974,t1_Paradigm,2021.1.4,59.99957654225549,
P,right,Target,0,61,61,61,1462.903357449104,1464.9044911632081,left,0,3,0.5272508427733555,P18M06,2022-11-17_12h07.09.974,t1_Paradigm,2021.1.4,59.99957654225549,
L,left,Distractor,0,62,62,62,1466.4034200054593,1468.405002842308,left,1,3,0.5310077544418164,P18M06,2022-11-17_12h07.09.974,t1_Paradigm,2021.1.4,59.99957654225549,
V,left,Distractor,0,63,63,63,1469.9032923263148,1471.9022837249795,left,1,3,0.6337554872734472,P18M06,2022-11-17_12h07.09.974,t1_Paradigm,2021.1.4,59.99957654225549,
H,left,Lure,0,0,0,0,1477.6341160687152,1479.6372942536836,left,1,3,0.9146471114363521,P18M06,2022-11-17_12h07.09.974,t1_Paradigm,2021.1.4,59.99957654225549,
B,left,Distractor,0,1,1,1,1481.135623517097,1483.1373298626859,left,1,3,0.4381612529978156,P18M06,2022-11-17_12h07.09.974,t1_Paradigm,2021.1.4,59.99957654225549,
T,left,Distractor,0,2,2,2,1484.6366289104335,1486.6385078474996,left,1,3,0.5372338787419721,P18M06,2022-11-17_12h07.09.974,t1_Paradigm,2021.1.4,59.99957654225549,
R,left,Distractor,0,3,3,3,1488.136280198698,1490.1372204692452,left,1,3,0.510274003376253,P18M06,2022-11-17_12h07.09.974,t1_Paradigm,2021.1.4,59.99957654225549,
H,left,Pretarget,0,4,4,4,1491.6365631460212,1493.6381738926284,left,1,3,0.5136376118753105,P18M06,2022-11-17_12h07.09.974,t1_Paradigm,2021.1.4,59.99957654225549,
K,left,Distractor,0,5,5,5,1495.136523045774,1497.1380144540453,left,1,3,1.0298640954424627,P18M06,2022-11-17_12h07.09.974,t1_Paradigm,2021.1.4,59.99957654225549,
G,left,Distractor,0,6,6,6,1498.636283406755,1500.635757933138,left,1,3,0.7161512234597467,P18M06,2022-11-17_12h07.09.974,t1_Paradigm,2021.1.4,59.99957654225549,
H,right,Target,0,7,7,7,1502.1366151159746,1504.1374909052975,left,0,3,0.6542406168882735,P18M06,2022-11-17_12h07.09.974,t1_Paradigm,2021.1.4,59.99957654225549,
Y,left,Pretarget,0,8,8,8,1505.6364996272605,1507.6381745342514,left,1,3,0.8979076654650271,P18M06,2022-11-17_12h07.09.974,t1_Paradigm,2021.1.4,59.99957654225549,
S,left,Distractor,0,9,9,9,1509.1365625044564,1511.139001561678,left,1,3,0.532684265403077,P18M06,2022-11-17_12h07.09.974,t1_Paradigm,2021.1.4,59.99957654225549,
P,left,Distractor,0,10,10,10,1512.6367148853606,1514.638388829946,left,1,3,0.5693201693356968,P18M06,2022-11-17_12h07.09.974,t1_Paradigm,2021.1.4,59.99957654225549,
Y,right,Target,0,11,11,11,1516.1365705244825,1518.1379923187196,right,1,3,0.989806517958641,P18M06,2022-11-17_12h07.09.974,t1_Paradigm,2021.1.4,59.99957654225549,
H,left,Lure,0,12,12,12,1519.63651374256,1521.6381328299758,left,1,3,0.5777020828099921,P18M06,2022-11-17_12h07.09.974,t1_Paradigm,2021.1.4,59.99957654225549,
Q,left,Distractor,0,13,13,13,1523.1363934418187,1525.1382848900976,left,1,3,1.093367804598529,P18M06,2022-11-17_12h07.09.974,t1_Paradigm,2021.1.4,59.99957654225549,
V,left,Pretarget,0,14,14,14,1526.6356174218818,1528.6384638976306,left,1,3,0.6171738759148866,P18M06,2022-11-17_12h07.09.974,t1_Paradigm,2021.1.4,59.99957654225549,
G,left,Distractor,0,15,15,15,1530.136627948028,1532.1371271158569,left,1,3,0.5906708225957118,P18M06,2022-11-17_12h07.09.974,t1_Paradigm,2021.1.4,59.99957654225549,
Z,left,Pretarget,0,16,16,16,1533.6365464643459,1535.6357758980594,left,1,3,0.8039377156528644,P18M06,2022-11-17_12h07.09.974,t1_Paradigm,2021.1.4,59.99957654225549,
V,right,Target,0,17,17,17,1537.1365993966465,1539.1380134916399,left,0,3,0.7418012644629925,P18M06,2022-11-17_12h07.09.974,t1_Paradigm,2021.1.4,59.99957654225549,
N,left,Distractor,0,18,18,18,1540.6366921084118,1542.6380211908836,left,1,3,0.6176246026880108,P18M06,2022-11-17_12h07.09.974,t1_Paradigm,2021.1.4,59.99957654225549,
Z,right,Target,0,19,19,19,1544.1366850507911,1546.13866824843,right,1,3,0.7972615062026307,P18M06,2022-11-17_12h07.09.974,t1_Paradigm,2021.1.4,59.99957654225549,
R,left,Distractor,0,20,20,20,1547.6365317074233,1549.6386037672637,left,1,3,0.46509129379410297,P18M06,2022-11-17_12h07.09.974,t1_Paradigm,2021.1.4,59.99957654225549,
P,left,Distractor,0,21,21,21,1551.1365679580485,1553.1379900731263,left,1,3,0.5016896639135666,P18M06,2022-11-17_12h07.09.974,t1_Paradigm,2021.1.4,59.99957654225549,
Z,right,Target,0,22,22,22,1554.636508609692,1556.6380754064303,right,1,3,0.45772536017466336,P18M06,2022-11-17_12h07.09.974,t1_Paradigm,2021.1.4,59.99957654225549,
D,left,Pretarget,0,23,23,23,1558.1364191059838,1560.1384388750303,left,1,3,0.413647492590826,P18M06,2022-11-17_12h07.09.974,t1_Paradigm,2021.1.4,59.99957654225549,
K,left,Distractor,0,24,24,24,1561.6365920181852,1563.637069371529,left,1,3,0.6587462802999653,P18M06,2022-11-17_12h07.09.974,t1_Paradigm,2021.1.4,59.99957654225549,
W,left,Distractor,0,25,25,25,1565.1363815721124,1567.1385906143696,left,1,3,0.7572263848269358,P18M06,2022-11-17_12h07.09.974,t1_Paradigm,2021.1.4,59.99957654225549,
D,right,Target,0,26,26,26,1568.6364261636045,1570.6381568901124,right,1,3,0.729709918028675,P18M06,2022-11-17_12h07.09.974,t1_Paradigm,2021.1.4,59.99957654225549,
G,left,Pretarget,0,27,27,27,1572.1365480683162,1574.1382974013686,left,1,3,0.5734360584174283,P18M06,2022-11-17_12h07.09.974,t1_Paradigm,2021.1.4,59.99957654225549,
V,left,Distractor,0,28,28,28,1575.636515667371,1577.6378457122482,left,1,3,0.849786089209374,P18M06,2022-11-17_12h07.09.974,t1_Paradigm,2021.1.4,59.99957654225549,
D,right,Target,0,29,29,29,1579.1365291410475,1581.1381870455225,right,1,3,0.5813951548771001,P18M06,2022-11-17_12h07.09.974,t1_Paradigm,2021.1.4,59.99957654225549,
G,right,Target,0,30,30,30,1582.6365868853754,1584.6382787948824,left,0,3,1.177598207083065,P18M06,2022-11-17_12h07.09.974,t1_Paradigm,2021.1.4,59.99957654225549,
B,left,Pretarget,0,31,31,31,1586.136656820192,1588.1383352560224,left,1,3,1.1333535225130618,P18M06,2022-11-17_12h07.09.974,t1_Paradigm,2021.1.4,59.99957654225549,
N,left,Distractor,0,32,32,32,1589.6364964192035,1591.637182293809,left,1,3,0.9626195147866383,P18M06,2022-11-17_12h07.09.974,t1_Paradigm,2021.1.4,59.99957654225549,
F,left,Distractor,0,33,33,33,1593.1364678678801,1595.1383400680497,left,1,3,0.677606868732255,P18M06,2022-11-17_12h07.09.974,t1_Paradigm,2021.1.4,59.99957654225549,
B,right,Target,0,34,34,34,1596.6356302539352,1598.6382367698243,None,0,3,,P18M06,2022-11-17_12h07.09.974,t1_Paradigm,2021.1.4,59.99957654225549,
Q,left,Pretarget,0,35,35,35,1600.13658592297,1602.1384764089016,left,1,3,1.02142315445235,P18M06,2022-11-17_12h07.09.974,t1_Paradigm,2021.1.4,59.99957654225549,
S,left,Pretarget,0,36,36,36,1603.6362724994542,1605.638245110691,left,1,3,0.36938484298298135,P18M06,2022-11-17_12h07.09.974,t1_Paradigm,2021.1.4,59.99957654225549,
W,left,Distractor,0,37,37,37,1607.1355988153373,1609.136966394086,left,1,3,0.5346652175066993,P18M06,2022-11-17_12h07.09.974,t1_Paradigm,2021.1.4,59.99957654225549,
Q,right,Target,0,38,38,38,1610.636485511961,1612.6387513361406,right,1,3,0.8089046922978014,P18M06,2022-11-17_12h07.09.974,t1_Paradigm,2021.1.4,59.99957654225549,
S,right,Target,0,39,39,39,1614.1362811611034,1616.137795025541,right,1,3,0.669889977783896,P18M06,2022-11-17_12h07.09.974,t1_Paradigm,2021.1.4,59.99957654225549,
T,left,Distractor,0,40,40,40,1617.6365352362627,1619.649415113905,left,1,3,0.5344275032402948,P18M06,2022-11-17_12h07.09.974,t1_Paradigm,2021.1.4,59.99957654225549,
G,left,Distractor,0,41,41,41,1621.1365102137206,1623.1380186245078,left,1,3,0.4534301428357139,P18M06,2022-11-17_12h07.09.974,t1_Paradigm,2021.1.4,59.99957654225549,
D,left,Distractor,0,42,42,42,1624.6365297826123,1626.6367062237114,left,1,3,0.6669485446764156,P18M06,2022-11-17_12h07.09.974,t1_Paradigm,2021.1.4,59.99957654225549,
S,left,Lure,0,43,43,43,1628.1364922487992,1630.1379650505842,left,1,3,0.3982108233612962,P18M06,2022-11-17_12h07.09.974,t1_Paradigm,2021.1.4,59.99957654225549,
Z,left,Pretarget,0,44,44,44,1631.6365631460212,1633.6372859128169,left,1,3,0.5788175111520104,P18M06,2022-11-17_12h07.09.974,t1_Paradigm,2021.1.4,59.99957654225549,
J,left,Distractor,0,45,45,45,1635.136571486888,1637.1377292611287,left,1,3,0.6781009037513286,P18M06,2022-11-17_12h07.09.974,t1_Paradigm,2021.1.4,59.99957654225549,
M,left,Pretarget,0,46,46,46,1638.636451506929,1640.6379384240136,left,1,3,0.6497365574468859,P18M06,2022-11-17_12h07.09.974,t1_Paradigm,2021.1.4,59.99957654225549,
Z,right,Target,0,47,47,47,1642.136425842822,1644.138552759774,right,1,3,0.685143148235511,P18M06,2022-11-17_12h07.09.974,t1_Paradigm,2021.1.4,59.99957654225549,
P,left,Distractor,0,48,48,48,1645.6365009104484,1647.638393321191,left,1,3,0.46526613092282787,P18M06,2022-11-17_12h07.09.974,t1_Paradigm,2021.1.4,59.99957654225549,
M,right,Target,0,49,49,49,1649.136371306493,1651.1385168299312,right,1,3,0.6133441422134638,P18M06,2022-11-17_12h07.09.974,t1_Paradigm,2021.1.4,59.99957654225549,
K,left,Distractor,0,50,50,50,1652.6363847801695,1654.638393321191,left,1,3,0.8256040380219929,P18M06,2022-11-17_12h07.09.974,t1_Paradigm,2021.1.4,59.99957654225549,
Y,left,Distractor,0,51,51,51,1656.1364681886625,1658.1387170103262,left,1,3,0.5088669660035521,P18M06,2022-11-17_12h07.09.974,t1_Paradigm,2021.1.4,59.99957654225549,
X,left,Distractor,0,52,52,52,1659.636498023232,1661.63795189769,left,1,3,0.4980241807643324,P18M06,2022-11-17_12h07.09.974,t1_Paradigm,2021.1.4,59.99957654225549,
F,left,Pretarget,0,53,53,53,1663.136553842749,1665.1380314565613,left,1,3,0.5496498767170124,P18M06,2022-11-17_12h07.09.974,t1_Paradigm,2021.1.4,59.99957654225549,
M,left,Lure,0,54,54,54,1666.6365214418038,1668.6379320079577,left,1,3,0.8578645240631886,P18M06,2022-11-17_12h07.09.974,t1_Paradigm,2021.1.4,59.99957654225549,
V,left,Distractor,0,55,55,55,1670.1364473365247,1672.13828906056,left,1,3,0.4936628782306798,P18M06,2022-11-17_12h07.09.974,t1_Paradigm,2021.1.4,59.99957654225549,
F,right,Target,0,56,56,56,1673.636449582118,1675.6368412813172,right,1,3,0.8028511594166048,P18M06,2022-11-17_12h07.09.974,t1_Paradigm,2021.1.4,59.99957654225549,
S,left,Distractor,0,57,57,57,1677.1365134217194,1679.137854053115,left,1,3,0.5017679395386949,P18M06,2022-11-17_12h07.09.974,t1_Paradigm,2021.1.4,59.99957654225549,
D,left,Distractor,0,58,58,58,1680.6366609906545,1682.6383320480236,left,1,3,0.6653057178482413,P18M06,2022-11-17_12h07.09.974,t1_Paradigm,2021.1.4,59.99957654225549,
F,right,Target,0,59,59,59,1684.1363389054895,1686.1380776520818,left,0,3,0.7656532105174847,P18M06,2022-11-17_12h07.09.974,t1_Paradigm,2021.1.4,59.99957654225549,
V,left,Pretarget,0,60,60,60,1687.636479095905,1689.6380131708574,left,1,3,0.9778075624490157,P18M06,2022-11-17_12h07.09.974,t1_Paradigm,2021.1.4,59.99957654225549,
J,left,Distractor,0,61,61,61,1691.1365204793983,1693.1380256821285,left,1,3,0.5336117038386874,P18M06,2022-11-17_12h07.09.974,t1_Paradigm,2021.1.4,59.99957654225549,
V,left,Lure,0,62,62,62,1694.636469792691,1696.638913020317,left,1,3,0.4408646510564722,P18M06,2022-11-17_12h07.09.974,t1_Paradigm,2021.1.4,59.99957654225549,
V,right,Target,0,63,63,63,1698.1364771710942,1700.1365650708321,right,1,3,0.5270933290012181,P18M06,2022-11-17_12h07.09.974,t1_Paradigm,2021.1.4,59.99957654225549,
R,left,Distractor,0,0,0,0,1783.2672479170724,1785.2718456506263,left,1,4,0.35161658516153693,P18M06,2022-11-17_12h07.09.974,t1_Paradigm,2021.1.4,59.99957654225549,
F,left,Distractor,0,1,1,1,1786.7688519268413,1788.771697760967,left,1,4,0.420001937658526,P18M06,2022-11-17_12h07.09.974,t1_Paradigm,2021.1.4,59.99957654225549,
P,left,Pretarget,0,2,2,2,1790.2693414706155,1792.2716810792335,left,1,4,0.36024423292838037,P18M06,2022-11-17_12h07.09.974,t1_Paradigm,2021.1.4,59.99957654225549,
H,left,Distractor,0,3,3,3,1793.7697921973304,1795.7716624727473,left,1,4,0.3319802976329811,P18M06,2022-11-17_12h07.09.974,t1_Paradigm,2021.1.4,59.99957654225549,
Z,left,Distractor,0,4,4,4,1797.2697739116265,1799.2716005579568,left,1,4,0.4318728931248188,P18M06,2022-11-17_12h07.09.974,t1_Paradigm,2021.1.4,59.99957654225549,
T,left,Distractor,0,5,5,5,1800.769626663532,1802.7713410291472,left,1,4,0.6284728415193968,P18M06,2022-11-17_12h07.09.974,t1_Paradigm,2021.1.4,59.99957654225549,
P,right,Target,0,6,6,6,1804.2688390947296,1806.2694707537885,right,1,4,0.5062723197625019,P18M06,2022-11-17_12h07.09.974,t1_Paradigm,2021.1.4,59.99957654225549,
G,left,Distractor,0,7,7,7,1807.7697861021152,1809.7713352547144,left,1,4,0.4925788884283975,P18M06,2022-11-17_12h07.09.974,t1_Paradigm,2021.1.4,59.99957654225549,
L,left,Distractor,0,8,8,8,1811.2693796460517,1813.2718401970342,left,1,4,0.9119828511611558,P18M06,2022-11-17_12h07.09.974,t1_Paradigm,2021.1.4,59.99957654225549,
P,left,Lure,0,9,9,9,1814.769935595803,1816.7719560065307,left,1,4,0.8515158533700742,P18M06,2022-11-17_12h07.09.974,t1_Paradigm,2021.1.4,59.99957654225549,
Q,left,Pretarget,0,10,10,10,1818.2698294103611,1820.271621089254,left,1,4,0.6160205929190852,P18M06,2022-11-17_12h07.09.974,t1_Paradigm,2021.1.4,59.99957654225549,
D,left,Distractor,0,11,11,11,1821.7698265231447,1823.7717965679476,left,1,4,0.4442468660417944,P18M06,2022-11-17_12h07.09.974,t1_Paradigm,2021.1.4,59.99957654225549,
M,left,Pretarget,0,12,12,12,1825.2696196059114,1827.2713134402293,left,1,4,0.4163107904023491,P18M06,2022-11-17_12h07.09.974,t1_Paradigm,2021.1.4,59.99957654225549,
C,left,Distractor,0,13,13,13,1828.769691465539,1830.7710545530426,left,1,4,0.38863328099250793,P18M06,2022-11-17_12h07.09.974,t1_Paradigm,2021.1.4,59.99957654225549,
Q,right,Target,0,14,14,14,1832.2696163978544,1834.271027284849,right,1,4,0.5846230641473085,P18M06,2022-11-17_12h07.09.974,t1_Paradigm,2021.1.4,59.99957654225549,
R,left,Distractor,0,15,15,15,1835.7699141021003,1837.771666963934,left,1,4,0.5079372819163837,P18M06,2022-11-17_12h07.09.974,t1_Paradigm,2021.1.4,59.99957654225549,
M,right,Target,0,16,16,16,1839.2695464630378,1841.2716781920171,right,1,4,0.41595566261094064,P18M06,2022-11-17_12h07.09.974,t1_Paradigm,2021.1.4,59.99957654225549,
S,left,Distractor,0,17,17,17,1842.769735415408,1844.7706259615952,left,1,4,0.45297941606258973,P18M06,2022-11-17_12h07.09.974,t1_Paradigm,2021.1.4,59.99957654225549,
Z,left,Distractor,0,18,18,18,1846.2695631447714,1848.2702987436205,left,1,4,0.4734039140166715,P18M06,2022-11-17_12h07.09.974,t1_Paradigm,2021.1.4,59.99957654225549,
L,left,Pretarget,0,19,19,19,1849.7698586033657,1851.7716980817495,left,1,4,0.5080595074687153,P18M06,2022-11-17_12h07.09.974,t1_Paradigm,2021.1.4,59.99957654225549,
M,right,Target,0,20,20,20,1853.269744077057,1855.2718254401116,left,0,4,0.4959877299843356,P18M06,2022-11-17_12h07.09.974,t1_Paradigm,2021.1.4,59.99957654225549,
P,left,Distractor,0,21,21,21,1856.7693106736406,1858.7688952350873,left,1,4,0.5187338716932572,P18M06,2022-11-17_12h07.09.974,t1_Paradigm,2021.1.4,59.99957654225549,
F,left,Distractor,0,22,22,22,1860.2697825732757,1862.2715418512234,left,1,4,0.5525948386639357,P18M06,2022-11-17_12h07.09.974,t1_Paradigm,2021.1.4,59.99957654225549,
L,right,Target,0,23,23,23,1863.7697540218942,1865.7711995554855,left,0,4,0.4763277030433528,P18M06,2022-11-17_12h07.09.974,t1_Paradigm,2021.1.4,59.99957654225549,
L,left,Lure,0,24,24,24,1867.2697710244101,1869.2698460920947,left,1,4,0.8819124801084399,P18M06,2022-11-17_12h07.09.974,t1_Paradigm,2021.1.4,59.99957654225549,
V,left,Pretarget,0,25,25,25,1870.7688262626762,1872.7716586231254,left,1,4,0.5319573282031342,P18M06,2022-11-17_12h07.09.974,t1_Paradigm,2021.1.4,59.99957654225549,
Z,left,Distractor,0,26,26,26,1874.2697963677929,1876.2710365881212,left,1,4,0.7928267400129698,P18M06,2022-11-17_12h07.09.974,t1_Paradigm,2021.1.4,59.99957654225549,
H,left,Distractor,0,27,27,27,1877.7697921973304,1879.7709522172227,left,1,4,0.604682810313534,P18M06,2022-11-17_12h07.09.974,t1_Paradigm,2021.1.4,59.99957654225549,
X,left,Distractor,0,28,28,28,1881.2697476058966,1883.271205650759,left,1,4,1.056571820518002,P18M06,2022-11-17_12h07.09.974,t1_Paradigm,2021.1.4,59.99957654225549,
V,right,Target,0,29,29,29,1884.7697601171676,1886.7688516060007,left,0,4,1.2548999290447682,P18M06,2022-11-17_12h07.09.974,t1_Paradigm,2021.1.4,59.99957654225549,
C,left,Distractor,0,30,30,30,1888.269735415408,1890.2713089489844,left,1,4,0.808455569553189,P18M06,2022-11-17_12h07.09.974,t1_Paradigm,2021.1.4,59.99957654225549,
S,left,Pretarget,0,31,31,31,1891.7697273953236,1893.7717215003213,left,1,4,0.972053337842226,P18M06,2022-11-17_12h07.09.974,t1_Paradigm,2021.1.4,59.99957654225549,
D,left,Distractor,0,32,32,32,1895.2698124078452,1897.2707408087444,left,1,4,1.2010266945580952,P18M06,2022-11-17_12h07.09.974,t1_Paradigm,2021.1.4,59.99957654225549,
V,left,Distractor,0,33,33,33,1898.7697424730286,1900.7721022922196,right,0,4,0.8033602721407078,P18M06,2022-11-17_12h07.09.974,t1_Paradigm,2021.1.4,59.99957654225549,
R,left,Distractor,0,34,34,34,1902.2698294103611,1904.2712964377133,left,1,4,0.5044302749447525,P18M06,2022-11-17_12h07.09.974,t1_Paradigm,2021.1.4,59.99957654225549,
S,right,Target,0,35,35,35,1905.7696815206436,1907.7712880968465,right,1,4,0.46040533966152,P18M06,2022-11-17_12h07.09.974,t1_Paradigm,2021.1.4,59.99957654225549,
Y,left,Distractor,0,36,36,36,1909.2696558565367,1911.2719749338576,left,1,4,0.43164993572281674,P18M06,2022-11-17_12h07.09.974,t1_Paradigm,2021.1.4,59.99957654225549,
N,left,Pretarget,0,37,37,37,1912.7695147036575,1914.7689189744415,left,1,4,0.6787415452999994,P18M06,2022-11-17_12h07.09.974,t1_Paradigm,2021.1.4,59.99957654225549,
Z,left,Pretarget,0,38,38,38,1916.2698165783077,1918.2712053299765,left,1,4,0.5204674854758196,P18M06,2022-11-17_12h07.09.974,t1_Paradigm,2021.1.4,59.99957654225549,
P,left,Pretarget,0,39,39,39,1919.7697187336744,1921.7705707837013,left,1,4,0.6850222059292719,P18M06,2022-11-17_12h07.09.974,t1_Paradigm,2021.1.4,59.99957654225549,
M,left,Distractor,0,40,40,40,1923.2697142424877,1925.2711639464833,left,1,4,0.4163694971357472,P18M06,2022-11-17_12h07.09.974,t1_Paradigm,2021.1.4,59.99957654225549,
N,right,Target,0,41,41,41,1926.7697091096197,1928.7710106031736,right,1,4,0.4686297393636778,P18M06,2022-11-17_12h07.09.974,t1_Paradigm,2021.1.4,59.99957654225549,
Z,right,Target,0,42,42,42,1930.2694617713569,1932.271935796016,left,0,4,0.6157065277802758,P18M06,2022-11-17_12h07.09.974,t1_Paradigm,2021.1.4,59.99957654225549,
P,right,Target,0,43,43,43,1933.7697097512428,1935.7715264526778,right,1,4,0.9720417889184318,P18M06,2022-11-17_12h07.09.974,t1_Paradigm,2021.1.4,59.99957654225549,
X,left,Pretarget,0,44,44,44,1937.2698117662803,1939.271754863672,left,1,4,0.6879809623351321,P18M06,2022-11-17_12h07.09.974,t1_Paradigm,2021.1.4,59.99957654225549,
Z,left,Lure,0,45,45,45,1940.7697575507336,1942.772029790969,left,1,4,0.8835142442258075,P18M06,2022-11-17_12h07.09.974,t1_Paradigm,2021.1.4,59.99957654225549,
R,left,Pretarget,0,46,46,46,1944.2695801472291,1946.2713689389639,left,1,4,0.5202239967766218,P18M06,2022-11-17_12h07.09.974,t1_Paradigm,2021.1.4,59.99957654225549,
K,left,Distractor,0,47,47,47,1947.769450222433,1949.7709429139504,left,1,4,0.47661000880179927,P18M06,2022-11-17_12h07.09.974,t1_Paradigm,2021.1.4,59.99957654225549,
X,right,Target,0,48,48,48,1951.2697591547621,1953.2714430441847,right,1,4,0.6402841279050335,P18M06,2022-11-17_12h07.09.974,t1_Paradigm,2021.1.4,59.99957654225549,
B,left,Distractor,0,49,49,49,1954.7689465634176,1956.771758071729,left,1,4,0.451823566632811,P18M06,2022-11-17_12h07.09.974,t1_Paradigm,2021.1.4,59.99957654225549,
R,right,Target,0,50,50,50,1958.2697896309546,1960.271918151877,right,1,4,0.8238187751267105,P18M06,2022-11-17_12h07.09.974,t1_Paradigm,2021.1.4,59.99957654225549,
Y,left,Pretarget,0,51,51,51,1961.7696372499922,1963.771144056751,left,1,4,0.5406103192945011,P18M06,2022-11-17_12h07.09.974,t1_Paradigm,2021.1.4,59.99957654225549,
W,left,Pretarget,0,52,52,52,1965.2696638765628,1967.2716897408827,left,1,4,0.7519100548233837,P18M06,2022-11-17_12h07.09.974,t1_Paradigm,2021.1.4,59.99957654225549,
Z,left,Distractor,0,53,53,53,1968.7695798264467,1970.7715835554409,left,1,4,0.8999784420593642,P18M06,2022-11-17_12h07.09.974,t1_Paradigm,2021.1.4,59.99957654225549,
Q,left,Distractor,0,54,54,54,1972.2697655707598,1974.2713596356916,left,1,4,0.6806098958477378,P18M06,2022-11-17_12h07.09.974,t1_Paradigm,2021.1.4,59.99957654225549,
Y,right,Target,0,55,55,55,1975.769746001868,1977.7715704025468,right,1,4,1.100056846102234,P18M06,2022-11-17_12h07.09.974,t1_Paradigm,2021.1.4,59.99957654225549,
W,right,Target,0,56,56,56,1979.2696837662952,1981.2702220719657,left,0,4,1.2014216017560102,P18M06,2022-11-17_12h07.09.974,t1_Paradigm,2021.1.4,59.99957654225549,
H,left,Pretarget,0,57,57,57,1982.7688936310587,1984.7710853500175,left,1,4,0.8363592443056405,P18M06,2022-11-17_12h07.09.974,t1_Paradigm,2021.1.4,59.99957654225549,
M,left,Distractor,0,58,58,58,1986.2695355557953,1988.2702868739725,left,1,4,0.5533849739003927,P18M06,2022-11-17_12h07.09.974,t1_Paradigm,2021.1.4,59.99957654225549,
R,left,Pretarget,0,59,59,59,1989.769718412892,1991.7705130393151,left,1,4,0.5572153492248617,P18M06,2022-11-17_12h07.09.974,t1_Paradigm,2021.1.4,59.99957654225549,
J,left,Distractor,0,60,60,60,1993.2697569091106,1995.2706981420633,left,1,4,0.49707332375692204,P18M06,2022-11-17_12h07.09.974,t1_Paradigm,2021.1.4,59.99957654225549,
H,right,Target,0,61,61,61,1996.7699118564487,1998.7712358061108,right,1,4,0.7405299263191409,P18M06,2022-11-17_12h07.09.974,t1_Paradigm,2021.1.4,59.99957654225549,
Z,left,Distractor,0,62,62,62,2000.2697241873248,2002.2707783425576,left,1,4,0.5528614251525141,P18M06,2022-11-17_12h07.09.974,t1_Paradigm,2021.1.4,59.99957654225549,
R,right,Target,0,63,63,63,2003.7698040670366,2005.7701989742345,right,1,4,0.6533988325390965,P18M06,2022-11-17_12h07.09.974,t1_Paradigm,2021.1.4,59.99957654225549,
J,left,Pretarget,0,0,0,0,2013.6279589168262,2015.638286494126,left,1,4,0.6573533582268283,P18M06,2022-11-17_12h07.09.974,t1_Paradigm,2021.1.4,59.99957654225549,
G,left,Pretarget,0,1,1,1,2017.1362378528574,2019.1382781532593,left,1,4,0.3255879978532903,P18M06,2022-11-17_12h07.09.974,t1_Paradigm,2021.1.4,59.99957654225549,
Z,left,Distractor,0,2,2,2,2020.6361297426047,2022.6371158877737,left,1,4,0.37861848558532074,P18M06,2022-11-17_12h07.09.974,t1_Paradigm,2021.1.4,59.99957654225549,
F,left,Distractor,0,3,3,3,2024.1364425244974,2026.1374475969933,left,1,4,0.3340671143378131,P18M06,2022-11-17_12h07.09.974,t1_Paradigm,2021.1.4,59.99957654225549,
J,right,Target,0,4,4,4,2027.636393120978,2029.6385238875519,right,1,4,0.46503419103100896,P18M06,2022-11-17_12h07.09.974,t1_Paradigm,2021.1.4,59.99957654225549,
G,right,Target,0,5,5,5,2031.135404409375,2033.1380747648655,right,1,4,0.5976723252097145,P18M06,2022-11-17_12h07.09.974,t1_Paradigm,2021.1.4,59.99957654225549,
H,left,Distractor,0,6,6,6,2034.636378684896,2036.6370411409298,left,1,4,0.5385696981102228,P18M06,2022-11-17_12h07.09.974,t1_Paradigm,2021.1.4,59.99957654225549,
P,left,Distractor,0,7,7,7,2038.1364633766352,2040.1382852109382,left,1,4,0.6853426870657131,P18M06,2022-11-17_12h07.09.974,t1_Paradigm,2021.1.4,59.99957654225549,
G,left,Lure,0,8,8,8,2041.6362214919645,2043.6380969001912,left,1,4,0.897872377303429,P18M06,2022-11-17_12h07.09.974,t1_Paradigm,2021.1.4,59.99957654225549,
S,left,Distractor,0,9,9,9,2045.136174013256,2047.1385562885553,left,1,4,0.5329790824325755,P18M06,2022-11-17_12h07.09.974,t1_Paradigm,2021.1.4,59.99957654225549,
R,left,Pretarget,0,10,10,10,2048.63644284528,2050.63805423351,left,1,4,0.5696037582820281,P18M06,2022-11-17_12h07.09.974,t1_Paradigm,2021.1.4,59.99957654225549,
T,left,Pretarget,0,11,11,11,2052.135923466936,2054.1378944741446,left,1,4,0.44598849990870804,P18M06,2022-11-17_12h07.09.974,t1_Paradigm,2021.1.4,59.99957654225549,
X,left,Distractor,0,12,12,12,2055.636401461845,2057.638347446511,left,1,4,0.44927447428926826,P18M06,2022-11-17_12h07.09.974,t1_Paradigm,2021.1.4,59.99957654225549,
F,left,Pretarget,0,13,13,13,2059.135836850386,2061.1382540931227,left,1,4,0.453203656594269,P18M06,2022-11-17_12h07.09.974,t1_Paradigm,2021.1.4,59.99957654225549,
R,right,Target,0,14,14,14,2062.6363584743813,2064.6384828248993,right,1,4,0.5691254425328225,P18M06,2022-11-17_12h07.09.974,t1_Paradigm,2021.1.4,59.99957654225549,
T,right,Target,0,15,15,15,2066.136327356624,2068.138003867585,right,1,4,0.6217093739542179,P18M06,2022-11-17_12h07.09.974,t1_Paradigm,2021.1.4,59.99957654225549,
C,left,Distractor,0,16,16,16,2069.635450925678,2071.6381148650544,left,1,4,0.41790421365294605,P18M06,2022-11-17_12h07.09.974,t1_Paradigm,2021.1.4,59.99957654225549,
F,right,Target,0,17,17,17,2073.136262554617,2075.1383853011066,right,1,4,0.5170114859938622,P18M06,2022-11-17_12h07.09.974,t1_Paradigm,2021.1.4,59.99957654225549,
M,left,Distractor,0,18,18,18,2076.636516308936,2078.638431496627,left,1,4,0.4573144128662534,P18M06,2022-11-17_12h07.09.974,t1_Paradigm,2021.1.4,59.99957654225549,
N,left,Distractor,0,19,19,19,2080.136134554632,2082.138164910197,left,1,4,0.42953809653408825,P18M06,2022-11-17_12h07.09.974,t1_Paradigm,2021.1.4,59.99957654225549,
R,left,Lure,0,20,20,20,2083.6363620032207,2085.6379146846593,left,1,4,0.5140524088055827,P18M06,2022-11-17_12h07.09.974,t1_Paradigm,2021.1.4,59.99957654225549,
F,right,Target,0,21,21,21,2087.1363902337616,2089.1383859427297,left,0,4,0.48497909016441554,P18M06,2022-11-17_12h07.09.974,t1_Paradigm,2021.1.4,59.99957654225549,
P,left,Distractor,0,22,22,22,2090.636406273872,2092.637923667091,left,1,4,0.553725665609818,P18M06,2022-11-17_12h07.09.974,t1_Paradigm,2021.1.4,59.99957654225549,
L,left,Pretarget,0,23,23,23,2094.1360796974623,2096.138302855019,left,1,4,0.8454918342758901,P18M06,2022-11-17_12h07.09.974,t1_Paradigm,2021.1.4,59.99957654225549,
T,left,Distractor,0,24,24,24,2097.6363389054895,2099.6378906245227,left,1,4,0.6578618293278851,P18M06,2022-11-17_12h07.09.974,t1_Paradigm,2021.1.4,59.99957654225549,
F,left,Distractor,0,25,25,25,2101.1360941336025,2103.1378588651423,left,1,4,0.7418853145791218,P18M06,2022-11-17_12h07.09.974,t1_Paradigm,2021.1.4,59.99957654225549,
V,left,Distractor,0,26,26,26,2104.6363219029736,2106.638081180863,left,1,4,0.425504011916928,P18M06,2022-11-17_12h07.09.974,t1_Paradigm,2021.1.4,59.99957654225549,
L,right,Target,0,27,27,27,2108.136646233732,2110.1387256719754,right,1,4,0.6849634991958737,P18M06,2022-11-17_12h07.09.974,t1_Paradigm,2021.1.4,59.99957654225549,
S,left,Pretarget,0,28,28,28,2111.63639183779,2113.637923025526,left,1,4,0.4980296344147064,P18M06,2022-11-17_12h07.09.974,t1_Paradigm,2021.1.4,59.99957654225549,
W,left,Distractor,0,29,29,29,2115.136264479428,2117.138568479044,left,1,4,0.516833120083902,P18M06,2022-11-17_12h07.09.974,t1_Paradigm,2021.1.4,59.99957654225549,
Q,left,Distractor,0,30,30,30,2118.636122684926,2120.6366282688105,left,1,4,0.5230733596836217,P18M06,2022-11-17_12h07.09.974,t1_Paradigm,2021.1.4,59.99957654225549,
L,right,Target,0,31,31,31,2122.136336018273,2124.137947406445,right,1,4,0.4939634696347639,P18M06,2022-11-17_12h07.09.974,t1_Paradigm,2021.1.4,59.99957654225549,
S,right,Target,0,32,32,32,2125.6363344142446,2127.6382579427445,right,1,4,0.4653139303554781,P18M06,2022-11-17_12h07.09.974,t1_Paradigm,2021.1.4,59.99957654225549,
Z,left,Pretarget,0,33,33,33,2129.136118193739,2131.1383609201876,left,1,4,0.5169957666657865,P18M06,2022-11-17_12h07.09.974,t1_Paradigm,2021.1.4,59.99957654225549,
F,left,Distractor,0,34,34,34,2132.6363761185203,2134.6366641986533,left,1,4,0.8430229424848221,P18M06,2022-11-17_12h07.09.974,t1_Paradigm,2021.1.4,59.99957654225549,
V,left,Distractor,0,35,35,35,2136.1363571911934,2138.1386586243752,left,1,4,0.49272292852401733,P18M06,2022-11-17_12h07.09.974,t1_Paradigm,2021.1.4,59.99957654225549,
M,left,Distractor,0,36,36,36,2139.6363186949166,2141.637898644549,left,1,4,0.4496498125954531,P18M06,2022-11-17_12h07.09.974,t1_Paradigm,2021.1.4,59.99957654225549,
Z,right,Target,0,37,37,37,2143.136255176156,2145.1381450204644,left,0,4,0.6456094403401949,P18M06,2022-11-17_12h07.09.974,t1_Paradigm,2021.1.4,59.99957654225549,
H,left,Pretarget,0,38,38,38,2146.6360890007345,2148.6377584541333,left,1,4,0.7459883716073819,P18M06,2022-11-17_12h07.09.974,t1_Paradigm,2021.1.4,59.99957654225549,
L,left,Distractor,0,39,39,39,2150.1363584743813,2152.138039797428,left,1,4,0.6055938878562301,P18M06,2022-11-17_12h07.09.974,t1_Paradigm,2021.1.4,59.99957654225549,
G,left,Distractor,0,40,40,40,2153.636320298945,2155.6383885091636,left,1,4,0.593172115390189,P18M06,2022-11-17_12h07.09.974,t1_Paradigm,2021.1.4,59.99957654225549,
K,left,Distractor,0,41,41,41,2157.1361252513598,2159.135300790367,left,1,4,0.5200642373529263,P18M06,2022-11-17_12h07.09.974,t1_Paradigm,2021.1.4,59.99957654225549,
H,right,Target,0,42,42,42,2160.6363219029736,2162.6383195367525,left,0,4,0.5053195380023681,P18M06,2022-11-17_12h07.09.974,t1_Paradigm,2021.1.4,59.99957654225549,
B,left,Distractor,0,43,43,43,2164.1363886297913,2166.1375422335695,left,1,4,0.5099070059368387,P18M06,2022-11-17_12h07.09.974,t1_Paradigm,2021.1.4,59.99957654225549,
Z,left,Distractor,0,44,44,44,2167.63618716615,2169.6364543941454,left,1,4,0.41912165709072724,P18M06,2022-11-17_12h07.09.974,t1_Paradigm,2021.1.4,59.99957654225549,
T,left,Pretarget,0,45,45,45,2171.136117552116,2173.1381293011946,left,1,4,0.43731786467833444,P18M06,2022-11-17_12h07.09.974,t1_Paradigm,2021.1.4,59.99957654225549,
H,right,Target,0,46,46,46,2174.6360713566537,2176.63707290031,left,0,4,0.34660245064878836,P18M06,2022-11-17_12h07.09.974,t1_Paradigm,2021.1.4,59.99957654225549,
F,left,Distractor,0,47,47,47,2178.1363594367867,2180.1382229753654,left,1,4,0.49364010128192604,P18M06,2022-11-17_12h07.09.974,t1_Paradigm,2021.1.4,59.99957654225549,
R,left,Distractor,0,48,48,48,2181.6363565495703,2183.6370777123375,left,1,4,0.642562142573297,P18M06,2022-11-17_12h07.09.974,t1_Paradigm,2021.1.4,59.99957654225549,
T,right,Target,0,49,49,49,2185.136101191223,2187.1381135818665,left,0,4,0.42131658404832706,P18M06,2022-11-17_12h07.09.974,t1_Paradigm,2021.1.4,59.99957654225549,
H,right,Target,0,50,50,50,2188.636324148567,2190.638548910152,left,0,4,0.3612117716111243,P18M06,2022-11-17_12h07.09.974,t1_Paradigm,2021.1.4,59.99957654225549,
Y,left,Pretarget,0,51,51,51,2192.1362484393176,2194.1381244891672,left,1,4,0.5092429458745755,P18M06,2022-11-17_12h07.09.974,t1_Paradigm,2021.1.4,59.99957654225549,
H,left,Distractor,0,52,52,52,2195.6364813415566,2197.6378886997118,left,1,4,0.4979167120764032,P18M06,2022-11-17_12h07.09.974,t1_Paradigm,2021.1.4,59.99957654225549,
S,left,Distractor,0,53,53,53,2199.136284689943,2201.1385630253935,left,1,4,0.7089886782341637,P18M06,2022-11-17_12h07.09.974,t1_Paradigm,2021.1.4,59.99957654225549,
Q,left,Distractor,0,54,54,54,2202.6360533917323,2204.6379201383097,left,1,4,0.6336579634808004,P18M06,2022-11-17_12h07.09.974,t1_Paradigm,2021.1.4,59.99957654225549,
Y,right,Target,0,55,55,55,2206.136357832758,2208.138047496672,left,0,4,0.4937883117236197,P18M06,2022-11-17_12h07.09.974,t1_Paradigm,2021.1.4,59.99957654225549,
R,left,Distractor,0,56,56,56,2209.6363501335145,2211.6366112663527,left,1,4,0.5153644887614064,P18M06,2022-11-17_12h07.09.974,t1_Paradigm,2021.1.4,59.99957654225549,
H,left,Pretarget,0,57,57,57,2213.136435787659,2215.138604088046,left,1,4,0.5167776213493198,P18M06,2022-11-17_12h07.09.974,t1_Paradigm,2021.1.4,59.99957654225549,
J,left,Distractor,0,58,58,58,2216.636113060871,2218.6373734917725,left,1,4,0.6182126326602884,P18M06,2022-11-17_12h07.09.974,t1_Paradigm,2021.1.4,59.99957654225549,
V,left,Distractor,0,59,59,59,2220.136283406755,2222.138214955281,left,1,4,0.4132464900612831,P18M06,2022-11-17_12h07.09.974,t1_Paradigm,2021.1.4,59.99957654225549,
Y,left,Lure,0,60,60,60,2223.636225662369,2225.6377972711343,right,0,4,0.4337636998970993,P18M06,2022-11-17_12h07.09.974,t1_Paradigm,2021.1.4,59.99957654225549,
H,right,Target,0,61,61,61,2227.1362862939714,2229.138313441479,right,1,4,0.5972129367874004,P18M06,2022-11-17_12h07.09.974,t1_Paradigm,2021.1.4,59.99957654225549,
L,left,Distractor,0,62,62,62,2230.6355529406574,2232.638142774871,left,1,4,0.5694346956443042,P18M06,2022-11-17_12h07.09.974,t1_Paradigm,2021.1.4,59.99957654225549,
P,left,Distractor,0,63,63,63,2234.1363004092127,2236.1379082686035,left,1,4,0.6377690405934118,P18M06,2022-11-17_12h07.09.974,t1_Paradigm,2021.1.4,59.99957654225549,
