Letter,CorrAnswer,Stimulus,nback_run.thisRepN,nback_run.thisTrialN,nback_run.thisN,nback_run.thisIndex,fixcross.started,nback_trial.started,trial_resp.keys,trial_resp.corr,currentlevel,trial_resp.rt,Participant,date,expName,psychopyVersion,frameRate,
H,left,Distractor,0,0,0,0,36.466905428866994,38.4672108323266,None,0,1,,P28D09,2022-11-11_12h00.52.033,t1_Paradigm,2021.1.4,60.11517040274438,
Q,left,Pretarget,0,1,1,1,39.96518528879187,41.96929508261928,left,1,1,0.670407431312924,P28D09,2022-11-11_12h00.52.033,t1_Paradigm,2021.1.4,60.11517040274438,
Q,right,Target,0,2,2,2,43.46461009088944,45.464260737561744,left,0,1,0.20303138597955694,P28D09,2022-11-11_12h00.52.033,t1_Paradigm,2021.1.4,60.11517040274438,
T,left,Distractor,0,3,3,3,46.96398965991102,48.963287103632865,left,1,1,0.9192461282418662,P28D09,2022-11-11_12h00.52.033,t1_Paradigm,2021.1.4,60.11517040274438,
Q,left,Lure,0,4,4,4,50.46329801089905,52.46516315345707,left,1,1,1.106512985421432,P28D09,2022-11-11_12h00.52.033,t1_Paradigm,2021.1.4,60.11517040274438,
L,left,Distractor,0,5,5,5,53.96281231674129,55.96457897309938,left,1,1,0.6754597412800649,P28D09,2022-11-11_12h00.52.033,t1_Paradigm,2021.1.4,60.11517040274438,
V,left,Pretarget,0,6,6,6,57.46190059758919,59.46406825638951,right,0,1,1.3144648317647807,P28D09,2022-11-11_12h00.52.033,t1_Paradigm,2021.1.4,60.11517040274438,
V,right,Target,0,7,7,7,60.96079447245393,62.96147553500123,right,1,1,0.9999015138000686,P28D09,2022-11-11_12h00.52.033,t1_Paradigm,2021.1.4,60.11517040274438,
K,left,Distractor,0,8,8,8,64.4610456603832,66.46300672272537,left,1,1,0.6532073137714178,P28D09,2022-11-11_12h00.52.033,t1_Paradigm,2021.1.4,60.11517040274438,
G,left,Pretarget,0,9,9,9,67.96020515926466,69.96277189569537,left,1,1,0.6144518713663274,P28D09,2022-11-11_12h00.52.033,t1_Paradigm,2021.1.4,60.11517040274438,
G,right,Target,0,10,10,10,71.46013426203353,73.45941951528039,right,1,1,1.10489774758571,P28D09,2022-11-11_12h00.52.033,t1_Paradigm,2021.1.4,60.11517040274438,
G,right,Target,0,11,11,11,74.95929311931104,76.95894569079519,right,1,1,0.6500332992427502,P28D09,2022-11-11_12h00.52.033,t1_Paradigm,2021.1.4,60.11517040274438,
P,left,Pretarget,0,12,12,12,78.45875128481111,80.46032257277966,left,1,1,0.7890900388429145,P28D09,2022-11-11_12h00.52.033,t1_Paradigm,2021.1.4,60.11517040274438,
P,right,Target,0,13,13,13,81.95820560068842,83.9578613801923,left,0,1,0.5564264972153978,P28D09,2022-11-11_12h00.52.033,t1_Paradigm,2021.1.4,60.11517040274438,
G,left,Lure,0,14,14,14,85.45745749053276,87.45900824717592,left,1,1,1.1446781522317906,P28D09,2022-11-11_12h00.52.033,t1_Paradigm,2021.1.4,60.11517040274438,
Y,left,Distractor,0,15,15,15,88.95723966600599,90.96060102887532,left,1,1,1.1447772800356688,P28D09,2022-11-11_12h00.52.033,t1_Paradigm,2021.1.4,60.11517040274438,
B,left,Distractor,0,16,16,16,92.45599335041697,94.4581860317694,left,1,1,0.9976212535148079,P28D09,2022-11-11_12h00.52.033,t1_Paradigm,2021.1.4,60.11517040274438,
T,left,Pretarget,0,17,17,17,95.95595292937105,97.95686304451283,None,0,1,,P28D09,2022-11-11_12h00.52.033,t1_Paradigm,2021.1.4,60.11517040274438,
T,right,Target,0,18,18,18,99.45533923523362,101.45505372149455,right,1,1,0.6290634379447511,P28D09,2022-11-11_12h00.52.033,t1_Paradigm,2021.1.4,60.11517040274438,
S,left,Distractor,0,19,19,19,102.95363609766173,104.95622111980356,left,1,1,0.9810810255912656,P28D09,2022-11-11_12h00.52.033,t1_Paradigm,2021.1.4,60.11517040274438,
T,left,Lure,0,20,20,20,106.45413558630389,108.45631351076645,left,1,1,1.3741965515064294,P28D09,2022-11-11_12h00.52.033,t1_Paradigm,2021.1.4,60.11517040274438,
J,left,Distractor,0,21,21,21,109.95331337089647,111.95535463372744,left,1,1,1.0914458800689317,P28D09,2022-11-11_12h00.52.033,t1_Paradigm,2021.1.4,60.11517040274438,
P,left,Distractor,0,22,22,22,113.45284532084679,115.45430849855711,left,1,1,0.6005050064359239,P28D09,2022-11-11_12h00.52.033,t1_Paradigm,2021.1.4,60.11517040274438,
F,left,Distractor,0,23,23,23,116.95232177205799,118.9544672955235,left,1,1,0.6432537915579815,P28D09,2022-11-11_12h00.52.033,t1_Paradigm,2021.1.4,60.11517040274438,
L,left,Distractor,0,24,24,24,120.4518813109762,122.45344682450923,left,1,1,0.7360111100133508,P28D09,2022-11-11_12h00.52.033,t1_Paradigm,2021.1.4,60.11517040274438,
W,left,Pretarget,0,25,25,25,123.95030007814694,125.95253029332798,left,1,1,0.7589651313937793,P28D09,2022-11-11_12h00.52.033,t1_Paradigm,2021.1.4,60.11517040274438,
W,right,Target,0,26,26,26,127.45057372221345,129.4504184540683,right,1,1,0.9345576846826589,P28D09,2022-11-11_12h00.52.033,t1_Paradigm,2021.1.4,60.11517040274438,
V,left,Distractor,0,27,27,27,130.94995938647207,132.95205711044673,left,1,1,1.2083031244828817,P28D09,2022-11-11_12h00.52.033,t1_Paradigm,2021.1.4,60.11517040274438,
W,left,Lure,0,28,28,28,134.46607070218397,136.46765867185422,left,1,1,0.872312802435772,P28D09,2022-11-11_12h00.52.033,t1_Paradigm,2021.1.4,60.11517040274438,
R,left,Pretarget,0,29,29,29,137.9653873940224,139.96718837619028,left,1,1,0.8659256355404068,P28D09,2022-11-11_12h00.52.033,t1_Paradigm,2021.1.4,60.11517040274438,
R,right,Target,0,30,30,30,141.4648843765599,143.46459372998925,right,1,1,0.6050927951728227,P28D09,2022-11-11_12h00.52.033,t1_Paradigm,2021.1.4,60.11517040274438,
G,left,Distractor,0,31,31,31,144.96423892302937,146.96314498836728,left,1,1,0.5839586832744317,P28D09,2022-11-11_12h00.52.033,t1_Paradigm,2021.1.4,60.11517040274438,
R,left,Lure,0,32,32,32,148.4638831536622,150.4653861108145,left,1,1,0.7917308805244829,P28D09,2022-11-11_12h00.52.033,t1_Paradigm,2021.1.4,60.11517040274438,
S,left,Distractor,0,33,33,33,151.9630003066868,153.96416642178792,left,1,1,0.5582255545696171,P28D09,2022-11-11_12h00.52.033,t1_Paradigm,2021.1.4,60.11517040274438,
R,left,Lure,0,34,34,34,155.46224545968926,157.46413915362155,left,1,1,1.0097142039558094,P28D09,2022-11-11_12h00.52.033,t1_Paradigm,2021.1.4,60.11517040274438,
P,left,Pretarget,0,35,35,35,158.96181205624998,160.96368169003563,left,1,1,0.9100673427456059,P28D09,2022-11-11_12h00.52.033,t1_Paradigm,2021.1.4,60.11517040274438,
P,right,Target,0,36,36,36,162.460520507585,164.4609805375867,right,1,1,0.7024128798138918,P28D09,2022-11-11_12h00.52.033,t1_Paradigm,2021.1.4,60.11517040274438,
Y,left,Pretarget,0,37,37,37,165.96082430703518,167.96267244708997,left,1,1,1.0782496917090612,P28D09,2022-11-11_12h00.52.033,t1_Paradigm,2021.1.4,60.11517040274438,
Y,right,Target,0,38,38,38,169.4601904023748,171.45968995132716,right,1,1,0.7768645971946171,P28D09,2022-11-11_12h00.52.033,t1_Paradigm,2021.1.4,60.11517040274438,
J,left,Distractor,0,39,39,39,172.95948078845413,174.96064016671426,left,1,1,0.8516781791795438,P28D09,2022-11-11_12h00.52.033,t1_Paradigm,2021.1.4,60.11517040274438,
Y,left,Lure,0,40,40,40,176.4588600366742,178.46080345490827,left,1,1,0.7721192946974043,P28D09,2022-11-11_12h00.52.033,t1_Paradigm,2021.1.4,60.11517040274438,
T,left,Distractor,0,41,41,41,179.95808818717342,181.95989013174676,left,1,1,1.0197245081144501,P28D09,2022-11-11_12h00.52.033,t1_Paradigm,2021.1.4,60.11517040274438,
V,left,Distractor,0,42,42,42,183.45776225238842,185.45946731477216,left,1,1,0.7200233030534946,P28D09,2022-11-11_12h00.52.033,t1_Paradigm,2021.1.4,60.11517040274438,
N,left,Pretarget,0,43,43,43,186.95735002187848,188.96007972570078,left,1,1,1.044007291186972,P28D09,2022-11-11_12h00.52.033,t1_Paradigm,2021.1.4,60.11517040274438,
N,right,Target,0,44,44,44,190.45657881398165,192.4564248290444,right,1,1,0.576162554199982,P28D09,2022-11-11_12h00.52.033,t1_Paradigm,2021.1.4,60.11517040274438,
N,right,Target,0,45,45,45,193.95512814754784,195.95568762615494,right,1,1,0.9662952635508191,P28D09,2022-11-11_12h00.52.033,t1_Paradigm,2021.1.4,60.11517040274438,
X,left,Distractor,0,46,46,46,197.4553418016494,199.45718609208052,left,1,1,0.6200854744720345,P28D09,2022-11-11_12h00.52.033,t1_Paradigm,2021.1.4,60.11517040274438,
Z,left,Distractor,0,47,47,47,200.95495523529553,202.956599986911,left,1,1,0.9410680395285453,P28D09,2022-11-11_12h00.52.033,t1_Paradigm,2021.1.4,60.11517040274438,
H,left,Pretarget,0,48,48,48,204.45414456875824,206.45646813730764,left,1,1,0.5514425180645048,P28D09,2022-11-11_12h00.52.033,t1_Paradigm,2021.1.4,60.11517040274438,
H,right,Target,0,49,49,49,207.95369897484488,209.95342533077837,right,1,1,0.6709476618025292,P28D09,2022-11-11_12h00.52.033,t1_Paradigm,2021.1.4,60.11517040274438,
K,left,Distractor,0,50,50,50,211.45294444864976,213.45397518532718,left,1,1,0.627761944419035,P28D09,2022-11-11_12h00.52.033,t1_Paradigm,2021.1.4,60.11517040274438,
V,left,Pretarget,0,51,51,51,214.95263487476495,216.95443874415014,left,1,1,0.8413826820842587,P28D09,2022-11-11_12h00.52.033,t1_Paradigm,2021.1.4,60.11517040274438,
V,right,Target,0,52,52,52,218.45164006790674,220.45152971203515,right,1,1,0.4957545069473781,P28D09,2022-11-11_12h00.52.033,t1_Paradigm,2021.1.4,60.11517040274438,
R,left,Distractor,0,53,53,53,221.95148030853397,223.95357835331015,left,1,1,0.5531235203015967,P28D09,2022-11-11_12h00.52.033,t1_Paradigm,2021.1.4,60.11517040274438,
V,left,Lure,0,54,54,54,225.4509487396972,227.4525347845556,left,1,1,0.4583191645806437,P28D09,2022-11-11_12h00.52.033,t1_Paradigm,2021.1.4,60.11517040274438,
Y,left,Distractor,0,55,55,55,228.94998537143056,230.9521395565489,left,1,1,0.8159786961841746,P28D09,2022-11-11_12h00.52.033,t1_Paradigm,2021.1.4,60.11517040274438,
Q,left,Distractor,0,56,56,56,232.46621153424167,234.46784730340278,left,1,1,0.6838272186341783,P28D09,2022-11-11_12h00.52.033,t1_Paradigm,2021.1.4,60.11517040274438,
Z,left,Pretarget,0,57,57,57,235.96582753430266,237.96743956411956,left,1,1,0.47424024473275495,P28D09,2022-11-11_12h00.52.033,t1_Paradigm,2021.1.4,60.11517040274438,
Z,right,Target,0,58,58,58,239.46508295296917,241.464968747473,right,1,1,1.132155327172768,P28D09,2022-11-11_12h00.52.033,t1_Paradigm,2021.1.4,60.11517040274438,
B,left,Distractor,0,59,59,59,242.96456325380404,244.96628692270042,left,1,1,1.3737208022103005,P28D09,2022-11-11_12h00.52.033,t1_Paradigm,2021.1.4,60.11517040274438,
S,left,Pretarget,0,60,60,60,246.4640557451139,248.4658679553495,left,1,1,0.9273499063901909,P28D09,2022-11-11_12h00.52.033,t1_Paradigm,2021.1.4,60.11517040274438,
S,right,Target,0,61,61,61,249.9629242766232,251.96291529416885,right,1,1,0.5691523899104141,P28D09,2022-11-11_12h00.52.033,t1_Paradigm,2021.1.4,60.11517040274438,
T,left,Distractor,0,62,62,62,253.4628662114701,255.46444455708115,left,1,1,0.741375239478657,P28D09,2022-11-11_12h00.52.033,t1_Paradigm,2021.1.4,60.11517040274438,
D,left,Distractor,0,63,63,63,256.96191086325234,258.96544898799766,left,1,1,0.612433706275624,P28D09,2022-11-11_12h00.52.033,t1_Paradigm,2021.1.4,60.11517040274438,
R,left,Distractor,0,0,0,0,279.1808674998101,281.19332841009236,left,1,1,1.4196230705365451,P28D09,2022-11-11_12h00.52.033,t1_Paradigm,2021.1.4,60.11517040274438,
V,left,Distractor,0,1,1,1,282.6910895332585,284.6930483499873,None,0,1,,P28D09,2022-11-11_12h00.52.033,t1_Paradigm,2021.1.4,60.11517040274438,
N,left,Pretarget,0,2,2,2,286.1905772125383,288.1922973526134,left,1,1,0.637265702293007,P28D09,2022-11-11_12h00.52.033,t1_Paradigm,2021.1.4,60.11517040274438,
N,right,Target,0,3,3,3,289.68987626027047,291.68975563873573,left,0,1,0.8668498659690158,P28D09,2022-11-11_12h00.52.033,t1_Paradigm,2021.1.4,60.11517040274438,
S,left,Distractor,0,4,4,4,293.18923208994784,295.1907639192759,left,1,1,0.549539200073923,P28D09,2022-11-11_12h00.52.033,t1_Paradigm,2021.1.4,60.11517040274438,
N,left,Lure,0,5,5,5,296.6889260448834,298.6905566812138,left,1,1,0.9070595036291706,P28D09,2022-11-11_12h00.52.033,t1_Paradigm,2021.1.4,60.11517040274438,
Z,left,Distractor,0,6,6,6,300.18730278699877,302.1882427367227,left,1,1,1.2056927589865154,P28D09,2022-11-11_12h00.52.033,t1_Paradigm,2021.1.4,60.11517040274438,
L,left,Pretarget,0,7,7,7,303.6876537443359,305.68921444583975,left,1,1,0.5783372706428054,P28D09,2022-11-11_12h00.52.033,t1_Paradigm,2021.1.4,60.11517040274438,
L,right,Target,0,8,8,8,307.1868902356864,309.1866108171853,right,1,1,0.6490121866245318,P28D09,2022-11-11_12h00.52.033,t1_Paradigm,2021.1.4,60.11517040274438,
H,left,Distractor,0,9,9,9,310.68635642123536,312.68533659182503,left,1,1,0.5832487485522506,P28D09,2022-11-11_12h00.52.033,t1_Paradigm,2021.1.4,60.11517040274438,
L,left,Lure,0,10,10,10,314.18563622085003,316.18744201504614,left,1,1,0.43630092249804875,P28D09,2022-11-11_12h00.52.033,t1_Paradigm,2021.1.4,60.11517040274438,
X,left,Pretarget,0,11,11,11,317.68537508806,319.68684500261134,left,1,1,0.7170231631835122,P28D09,2022-11-11_12h00.52.033,t1_Paradigm,2021.1.4,60.11517040274438,
X,right,Target,0,12,12,12,321.1848403112035,323.1843539754418,right,1,1,0.5056028061189863,P28D09,2022-11-11_12h00.52.033,t1_Paradigm,2021.1.4,60.11517040274438,
X,right,Target,0,13,13,13,324.6841621358735,326.68357121867484,right,1,1,0.45155922581488994,P28D09,2022-11-11_12h00.52.033,t1_Paradigm,2021.1.4,60.11517040274438,
R,left,Distractor,0,14,14,14,328.18351732394694,330.18505781492786,left,1,1,0.46076078824899014,P28D09,2022-11-11_12h00.52.033,t1_Paradigm,2021.1.4,60.11517040274438,
T,left,Distractor,0,15,15,15,331.6828330533799,333.6844203814462,left,1,1,0.6512735195947243,P28D09,2022-11-11_12h00.52.033,t1_Paradigm,2021.1.4,60.11517040274438,
V,left,Pretarget,0,16,16,16,335.18218567503754,337.1840925218494,left,1,1,0.4909684626009039,P28D09,2022-11-11_12h00.52.033,t1_Paradigm,2021.1.4,60.11517040274438,
V,right,Target,0,17,17,17,338.6815883418003,340.681390406995,right,1,1,1.3734535741832588,P28D09,2022-11-11_12h00.52.033,t1_Paradigm,2021.1.4,60.11517040274438,
N,left,Distractor,0,18,18,18,342.18088738953156,344.1829844719023,left,1,1,1.162100906329215,P28D09,2022-11-11_12h00.52.033,t1_Paradigm,2021.1.4,60.11517040274438,
B,left,Distractor,0,19,19,19,345.6806435800472,347.6929036683059,left,1,1,0.787194420099695,P28D09,2022-11-11_12h00.52.033,t1_Paradigm,2021.1.4,60.11517040274438,
V,left,Lure,0,20,20,20,349.1802258959033,351.1814831187594,left,1,1,0.6698072108574706,P28D09,2022-11-11_12h00.52.033,t1_Paradigm,2021.1.4,60.11517040274438,
P,left,Distractor,0,21,21,21,352.6793597306287,354.68063042716676,left,1,1,0.6733209546555372,P28D09,2022-11-11_12h00.52.033,t1_Paradigm,2021.1.4,60.11517040274438,
K,left,Pretarget,0,22,22,22,356.17872807158255,358.18042158509525,left,1,1,0.8513705301065784,P28D09,2022-11-11_12h00.52.033,t1_Paradigm,2021.1.4,60.11517040274438,
K,right,Target,0,23,23,23,359.67829723455816,361.6777534752473,left,0,1,0.6930220442272912,P28D09,2022-11-11_12h00.52.033,t1_Paradigm,2021.1.4,60.11517040274438,
J,left,Pretarget,0,24,24,24,363.17742657805684,365.17679652302013,left,1,1,0.9206149901774552,P28D09,2022-11-11_12h00.52.033,t1_Paradigm,2021.1.4,60.11517040274438,
J,right,Target,0,25,25,25,366.6770666382645,368.67638268849987,right,1,1,0.5191162676101158,P28D09,2022-11-11_12h00.52.033,t1_Paradigm,2021.1.4,60.11517040274438,
H,left,Distractor,0,26,26,26,370.1762864479133,372.1784140064692,left,1,1,1.131701713210532,P28D09,2022-11-11_12h00.52.033,t1_Paradigm,2021.1.4,60.11517040274438,
J,left,Lure,0,27,27,27,373.69239038518026,375.6923631170139,left,1,1,0.8918608694757495,P28D09,2022-11-11_12h00.52.033,t1_Paradigm,2021.1.4,60.11517040274438,
V,left,Distractor,0,28,28,28,377.1917972223682,379.19354655542065,left,1,1,0.6889853932461847,P28D09,2022-11-11_12h00.52.033,t1_Paradigm,2021.1.4,60.11517040274438,
Z,left,Pretarget,0,29,29,29,380.69060287669527,382.69088614482007,left,1,1,0.8206348157382308,P28D09,2022-11-11_12h00.52.033,t1_Paradigm,2021.1.4,60.11517040274438,
Z,right,Target,0,30,30,30,384.18989518758553,386.1901389970699,left,0,1,0.6603679341769748,P28D09,2022-11-11_12h00.52.033,t1_Paradigm,2021.1.4,60.11517040274438,
T,left,Distractor,0,31,31,31,387.6901585659889,389.6920484102975,left,1,1,0.6567335688450839,P28D09,2022-11-11_12h00.52.033,t1_Paradigm,2021.1.4,60.11517040274438,
Z,left,Lure,0,32,32,32,391.18945183928554,393.1915389767955,left,1,1,1.0434465293719768,P28D09,2022-11-11_12h00.52.033,t1_Paradigm,2021.1.4,60.11517040274438,
F,left,Distractor,0,33,33,33,394.6886652328958,396.6907690521066,left,1,1,0.6220997899390568,P28D09,2022-11-11_12h00.52.033,t1_Paradigm,2021.1.4,60.11517040274438,
Y,left,Pretarget,0,34,34,34,398.1883405813187,400.19047840553685,left,1,1,0.5836086883437019,P28D09,2022-11-11_12h00.52.033,t1_Paradigm,2021.1.4,60.11517040274438,
Y,right,Target,0,35,35,35,401.6878667568335,403.6874715288259,right,1,1,0.7685648090518953,P28D09,2022-11-11_12h00.52.033,t1_Paradigm,2021.1.4,60.11517040274438,
Y,right,Target,0,36,36,36,405.18712698752825,407.1869040301708,right,1,1,0.7471121408143517,P28D09,2022-11-11_12h00.52.033,t1_Paradigm,2021.1.4,60.11517040274438,
W,left,Distractor,0,37,37,37,408.6865017445207,410.6876251929625,left,1,1,0.6587690572396241,P28D09,2022-11-11_12h00.52.033,t1_Paradigm,2021.1.4,60.11517040274438,
Q,left,Distractor,0,38,38,38,412.1856949276071,414.1882741753143,left,1,1,0.5540137457219316,P28D09,2022-11-11_12h00.52.033,t1_Paradigm,2021.1.4,60.11517040274438,
P,left,Pretarget,0,39,39,39,415.68536867202056,417.6873249223336,left,1,1,0.5534051844160786,P28D09,2022-11-11_12h00.52.033,t1_Paradigm,2021.1.4,60.11517040274438,
P,right,Target,0,40,40,40,419.185512712098,421.184522075665,right,1,1,0.5545260664421221,P28D09,2022-11-11_12h00.52.033,t1_Paradigm,2021.1.4,60.11517040274438,
J,left,Distractor,0,41,41,41,422.68412684765826,424.6857850729566,left,1,1,0.6210125921179497,P28D09,2022-11-11_12h00.52.033,t1_Paradigm,2021.1.4,60.11517040274438,
P,left,Lure,0,42,42,42,426.18361260212714,428.1854973136042,left,1,1,0.8030179764582499,P28D09,2022-11-11_12h00.52.033,t1_Paradigm,2021.1.4,60.11517040274438,
L,left,Distractor,0,43,43,43,429.683066597202,431.6852393888339,left,1,1,0.5242654597668661,P28D09,2022-11-11_12h00.52.033,t1_Paradigm,2021.1.4,60.11517040274438,
Z,left,Distractor,0,44,44,44,433.18243429655195,435.1945891617697,left,1,1,0.688422065015402,P28D09,2022-11-11_12h00.52.033,t1_Paradigm,2021.1.4,60.11517040274438,
F,left,Pretarget,0,45,45,45,436.68188315879524,438.6840761609501,left,1,1,0.5955851876751694,P28D09,2022-11-11_12h00.52.033,t1_Paradigm,2021.1.4,60.11517040274438,
F,right,Target,0,46,46,46,440.18160694831295,442.18110938448353,right,1,1,0.6989588051801547,P28D09,2022-11-11_12h00.52.033,t1_Paradigm,2021.1.4,60.11517040274438,
G,left,Pretarget,0,47,47,47,443.68108724914873,445.68236660733965,left,1,1,0.7487588172416508,P28D09,2022-11-11_12h00.52.033,t1_Paradigm,2021.1.4,60.11517040274438,
G,right,Target,0,48,48,48,447.1801270889018,449.1797982668995,right,1,1,0.5702209812170622,P28D09,2022-11-11_12h00.52.033,t1_Paradigm,2021.1.4,60.11517040274438,
V,left,Distractor,0,49,49,49,450.67936069303414,452.68092460255775,left,1,1,0.7716169188379354,P28D09,2022-11-11_12h00.52.033,t1_Paradigm,2021.1.4,60.11517040274438,
G,left,Lure,0,50,50,50,454.17808422206144,456.1812370636608,left,1,1,1.1574194434215315,P28D09,2022-11-11_12h00.52.033,t1_Paradigm,2021.1.4,60.11517040274438,
Q,left,Pretarget,0,51,51,51,457.6783472796633,459.6800478508194,left,1,1,0.5894286773846034,P28D09,2022-11-11_12h00.52.033,t1_Paradigm,2021.1.4,60.11517040274438,
Q,right,Target,0,52,52,52,461.17792157547046,463.1774689239146,left,0,1,0.773938883377923,P28D09,2022-11-11_12h00.52.033,t1_Paradigm,2021.1.4,60.11517040274438,
Y,left,Distractor,0,53,53,53,464.67716576606836,466.6790315502303,left,1,1,0.7217970170549961,P28D09,2022-11-11_12h00.52.033,t1_Paradigm,2021.1.4,60.11517040274438,
V,left,Distractor,0,54,54,54,468.17686613704336,470.178494206958,left,1,1,0.7324970454137656,P28D09,2022-11-11_12h00.52.033,t1_Paradigm,2021.1.4,60.11517040274438,
B,left,Distractor,0,55,55,55,471.6926521595742,473.6944143247056,left,1,1,0.8006536660604979,P28D09,2022-11-11_12h00.52.033,t1_Paradigm,2021.1.4,60.11517040274438,
J,left,Pretarget,0,56,56,56,475.1921019842239,477.1933912872755,left,1,1,0.5959194633105653,P28D09,2022-11-11_12h00.52.033,t1_Paradigm,2021.1.4,60.11517040274438,
J,right,Target,0,57,57,57,478.69159607954316,480.69111680142487,right,1,1,0.9351729828294992,P28D09,2022-11-11_12h00.52.033,t1_Paradigm,2021.1.4,60.11517040274438,
H,left,Distractor,0,58,58,58,482.19087587915783,484.19294825977704,None,0,1,,P28D09,2022-11-11_12h00.52.033,t1_Paradigm,2021.1.4,60.11517040274438,
J,left,Lure,0,59,59,59,485.6906278992474,487.69233937766967,left,1,1,1.1589278542078318,P28D09,2022-11-11_12h00.52.033,t1_Paradigm,2021.1.4,60.11517040274438,
D,left,Pretarget,0,60,60,60,489.1904331724618,491.19157811463356,left,1,1,1.1053212061642625,P28D09,2022-11-11_12h00.52.033,t1_Paradigm,2021.1.4,60.11517040274438,
D,right,Target,0,61,61,61,492.6890951075129,494.68910601478,right,1,1,0.5550075901737728,P28D09,2022-11-11_12h00.52.033,t1_Paradigm,2021.1.4,60.11517040274438,
R,left,Distractor,0,62,62,62,496.18846826049594,498.1902329920422,left,1,1,0.519271535756161,P28D09,2022-11-11_12h00.52.033,t1_Paradigm,2021.1.4,60.11517040274438,
F,left,Distractor,0,63,63,63,499.68802234578015,501.6898477088962,left,1,1,1.0364681244755047,P28D09,2022-11-11_12h00.52.033,t1_Paradigm,2021.1.4,60.11517040274438,
F,left,Distractor,0,0,0,0,999.9066334786348,1001.9040404364441,left,1,2,0.5843041869793524,P28D09,2022-11-11_12h00.52.033,t1_Paradigm,2021.1.4,60.11517040274438,
N,left,Pretarget,0,1,1,1,1003.4035820104527,1005.4153942591847,left,1,2,0.5517075004781873,P28D09,2022-11-11_12h00.52.033,t1_Paradigm,2021.1.4,60.11517040274438,
V,left,Distractor,0,2,2,2,1006.9031386621527,1008.9145268107022,left,1,2,0.7881873021451611,P28D09,2022-11-11_12h00.52.033,t1_Paradigm,2021.1.4,60.11517040274438,
N,right,Target,0,3,3,3,1010.4023013690539,1012.4039990529927,right,1,2,1.389195967647538,P28D09,2022-11-11_12h00.52.033,t1_Paradigm,2021.1.4,60.11517040274438,
N,left,Lure,0,4,4,4,1013.9010803968185,1015.9014528478865,left,1,2,1.3822871767761171,P28D09,2022-11-11_12h00.52.033,t1_Paradigm,2021.1.4,60.11517040274438,
X,left,Distractor,0,5,5,5,1017.4004272440416,1019.4031303213023,left,1,2,0.991068232008729,P28D09,2022-11-11_12h00.52.033,t1_Paradigm,2021.1.4,60.11517040274438,
G,left,Pretarget,0,6,6,6,1020.9005863618104,1022.9013652689537,left,1,2,1.0282819002259203,P28D09,2022-11-11_12h00.52.033,t1_Paradigm,2021.1.4,60.11517040274438,
H,left,Pretarget,0,7,7,7,1024.4000486977366,1026.4019885871494,left,1,2,0.6668372263720812,P28D09,2022-11-11_12h00.52.033,t1_Paradigm,2021.1.4,60.11517040274438,
G,right,Target,0,8,8,8,1027.899507184039,1029.9012578002994,right,1,2,0.989002909032024,P28D09,2022-11-11_12h00.52.033,t1_Paradigm,2021.1.4,60.11517040274438,
H,right,Target,0,9,9,9,1031.3988091189876,1033.3999502115366,None,0,2,,P28D09,2022-11-11_12h00.52.033,t1_Paradigm,2021.1.4,60.11517040274438,
T,left,Pretarget,0,10,10,10,1034.8982015200872,1036.8997397654548,left,1,2,0.6614798337477623,P28D09,2022-11-11_12h00.52.033,t1_Paradigm,2021.1.4,60.11517040274438,
K,left,Distractor,0,11,11,11,1038.3976564775685,1040.399188627699,left,1,2,0.7420838909938539,P28D09,2022-11-11_12h00.52.033,t1_Paradigm,2021.1.4,60.11517040274438,
T,right,Target,0,12,12,12,1041.8972657407894,1043.8988931690992,right,1,2,0.6719536967293607,P28D09,2022-11-11_12h00.52.033,t1_Paradigm,2021.1.4,60.11517040274438,
T,left,Lure,0,13,13,13,1045.3965516356402,1047.3962186432127,left,1,2,0.7959920928733482,P28D09,2022-11-11_12h00.52.033,t1_Paradigm,2021.1.4,60.11517040274438,
J,left,Distractor,0,14,14,14,1048.8960194251995,1050.8964207484432,left,1,2,0.5904193138176197,P28D09,2022-11-11_12h00.52.033,t1_Paradigm,2021.1.4,60.11517040274438,
Q,left,Pretarget,0,15,15,15,1052.3952520669263,1054.3968503022597,left,1,2,0.5723334620815876,P28D09,2022-11-11_12h00.52.033,t1_Paradigm,2021.1.4,60.11517040274438,
M,left,Distractor,0,16,16,16,1055.8947124780407,1057.8965182722377,left,1,2,0.8408726069774275,P28D09,2022-11-11_12h00.52.033,t1_Paradigm,2021.1.4,60.11517040274438,
Q,right,Target,0,17,17,17,1059.3940955758844,1061.3954134303094,right,1,2,0.9059700601956138,P28D09,2022-11-11_12h00.52.033,t1_Paradigm,2021.1.4,60.11517040274438,
R,left,Distractor,0,18,18,18,1062.8934982426463,1064.8952331396113,left,1,2,0.7126798255349058,P28D09,2022-11-11_12h00.52.033,t1_Paradigm,2021.1.4,60.11517040274438,
W,left,Distractor,0,19,19,19,1066.3929195159226,1068.3948347035848,left,1,2,0.9688677744170491,P28D09,2022-11-11_12h00.52.033,t1_Paradigm,2021.1.4,60.11517040274438,
C,left,Pretarget,0,20,20,20,1069.8923314859412,1071.8941886084503,left,1,2,0.9356192183468011,P28D09,2022-11-11_12h00.52.033,t1_Paradigm,2021.1.4,60.11517040274438,
T,left,Distractor,0,21,21,21,1073.391863115089,1075.3938479167764,left,1,2,0.9715435835123571,P28D09,2022-11-11_12h00.52.033,t1_Paradigm,2021.1.4,60.11517040274438,
C,right,Target,0,22,22,22,1076.8912215111823,1078.892998754005,right,1,2,0.6408326992150251,P28D09,2022-11-11_12h00.52.033,t1_Paradigm,2021.1.4,60.11517040274438,
F,left,Pretarget,0,23,23,23,1080.390730684193,1082.3922599471061,None,0,2,,P28D09,2022-11-11_12h00.52.033,t1_Paradigm,2021.1.4,60.11517040274438,
C,right,Target,0,24,24,24,1083.8900082381942,1085.8909443382945,right,1,2,0.6889196288448147,P28D09,2022-11-11_12h00.52.033,t1_Paradigm,2021.1.4,60.11517040274438,
F,right,Target,0,25,25,25,1087.389432398687,1089.391049240533,right,1,2,0.5852159061305429,P28D09,2022-11-11_12h00.52.033,t1_Paradigm,2021.1.4,60.11517040274438,
H,left,Distractor,0,26,26,26,1090.8887943236014,1092.8906684486146,left,1,2,0.6049583791545956,P28D09,2022-11-11_12h00.52.033,t1_Paradigm,2021.1.4,60.11517040274438,
H,left,Lure,0,27,27,27,1094.4049948222564,1096.4045357546602,left,1,2,0.7081850693639353,P28D09,2022-11-11_12h00.52.033,t1_Paradigm,2021.1.4,60.11517040274438,
P,left,Distractor,0,28,28,28,1097.904134110615,1099.9062478746864,None,0,2,,P28D09,2022-11-11_12h00.52.033,t1_Paradigm,2021.1.4,60.11517040274438,
G,left,Pretarget,0,29,29,29,1101.4037093688285,1103.4055533384571,left,1,2,0.6929472973715747,P28D09,2022-11-11_12h00.52.033,t1_Paradigm,2021.1.4,60.11517040274438,
K,left,Distractor,0,30,30,30,1104.9034177598523,1106.905405448757,left,1,2,1.1079331756700412,P28D09,2022-11-11_12h00.52.033,t1_Paradigm,2021.1.4,60.11517040274438,
G,right,Target,0,31,31,31,1108.4025345920745,1110.4034116646153,right,1,2,0.9415142750449377,P28D09,2022-11-11_12h00.52.033,t1_Paradigm,2021.1.4,60.11517040274438,
M,left,Pretarget,0,32,32,32,1111.9021149831187,1113.903664456555,left,1,2,1.107575160689521,P28D09,2022-11-11_12h00.52.033,t1_Paradigm,2021.1.4,60.11517040274438,
B,left,Distractor,0,33,33,33,1115.4013325471542,1117.4031376997473,left,1,2,1.0947244760345711,P28D09,2022-11-11_12h00.52.033,t1_Paradigm,2021.1.4,60.11517040274438,
M,right,Target,0,34,34,34,1118.90093763995,1120.9028188226048,right,1,2,1.2078084478698656,P28D09,2022-11-11_12h00.52.033,t1_Paradigm,2021.1.4,60.11517040274438,
M,left,Lure,0,35,35,35,1122.4001654696476,1124.399833760427,None,0,2,,P28D09,2022-11-11_12h00.52.033,t1_Paradigm,2021.1.4,60.11517040274438,
T,left,Distractor,0,36,36,36,1125.8997631839975,1127.9016344217926,left,1,2,1.0271985520275848,P28D09,2022-11-11_12h00.52.033,t1_Paradigm,2021.1.4,60.11517040274438,
F,left,Distractor,0,37,37,37,1129.3989310237303,1131.4003345322772,left,1,2,0.5700307456590963,P28D09,2022-11-11_12h00.52.033,t1_Paradigm,2021.1.4,60.11517040274438,
X,left,Distractor,0,38,38,38,1132.8985816704026,1134.9000291288166,left,1,2,0.5362576783945769,P28D09,2022-11-11_12h00.52.033,t1_Paradigm,2021.1.4,60.11517040274438,
C,left,Distractor,0,39,39,39,1136.3978508835526,1138.3993945825532,left,1,2,0.6007699888486968,P28D09,2022-11-11_12h00.52.033,t1_Paradigm,2021.1.4,60.11517040274438,
R,left,Distractor,0,40,40,40,1139.8972625327697,1141.898731805717,left,1,2,0.8164185156629173,P28D09,2022-11-11_12h00.52.033,t1_Paradigm,2021.1.4,60.11517040274438,
B,left,Pretarget,0,41,41,41,1143.3966607083048,1145.3973138610818,left,1,2,0.8127777342915579,P28D09,2022-11-11_12h00.52.033,t1_Paradigm,2021.1.4,60.11517040274438,
H,left,Distractor,0,42,42,42,1146.896112136964,1148.8972564375326,left,1,2,1.1139427586658712,P28D09,2022-11-11_12h00.52.033,t1_Paradigm,2021.1.4,60.11517040274438,
B,right,Target,0,43,43,43,1150.3954147135173,1152.3976070740673,right,1,2,1.0180970798037379,P28D09,2022-11-11_12h00.52.033,t1_Paradigm,2021.1.4,60.11517040274438,
W,left,Pretarget,0,44,44,44,1153.8949197161028,1155.8967287183186,left,1,2,0.6583664507879803,P28D09,2022-11-11_12h00.52.033,t1_Paradigm,2021.1.4,60.11517040274438,
L,left,Pretarget,0,45,45,45,1157.3934568591949,1159.3935004882605,left,1,2,0.7052288793620392,P28D09,2022-11-11_12h00.52.033,t1_Paradigm,2021.1.4,60.11517040274438,
W,right,Target,0,46,46,46,1160.8937109343415,1162.8957236457982,right,1,2,0.5143895716264524,P28D09,2022-11-11_12h00.52.033,t1_Paradigm,2021.1.4,60.11517040274438,
L,right,Target,0,47,47,47,1164.392404949589,1166.3948680669882,right,1,2,1.1305577334442205,P28D09,2022-11-11_12h00.52.033,t1_Paradigm,2021.1.4,60.11517040274438,
W,right,Target,0,48,48,48,1167.8924591651194,1169.8945209592748,right,1,2,0.5294679050484774,P28D09,2022-11-11_12h00.52.033,t1_Paradigm,2021.1.4,60.11517040274438,
X,left,Distractor,0,49,49,49,1171.3918271852708,1173.3942155558143,left,1,2,0.5854690188725726,P28D09,2022-11-11_12h00.52.033,t1_Paradigm,2021.1.4,60.11517040274438,
R,left,Distractor,0,50,50,50,1174.8914005186725,1176.89316877904,left,1,2,0.5649482803091814,P28D09,2022-11-11_12h00.52.033,t1_Paradigm,2021.1.4,60.11517040274438,
V,left,Pretarget,0,51,51,51,1178.3908140927015,1180.3924829044636,left,1,2,0.6380381933968238,P28D09,2022-11-11_12h00.52.033,t1_Paradigm,2021.1.4,60.11517040274438,
Z,left,Distractor,0,52,52,52,1181.8902177218697,1183.892274703996,left,1,2,0.6330346453278253,P28D09,2022-11-11_12h00.52.033,t1_Paradigm,2021.1.4,60.11517040274438,
V,right,Target,0,53,53,53,1185.3896521480256,1187.3916225136245,right,1,2,0.5798758368118797,P28D09,2022-11-11_12h00.52.033,t1_Paradigm,2021.1.4,60.11517040274438,
V,left,Lure,0,54,54,54,1188.8890349250669,1190.8887032158464,left,1,2,0.879405733629028,P28D09,2022-11-11_12h00.52.033,t1_Paradigm,2021.1.4,60.11517040274438,
N,left,Distractor,0,55,55,55,1192.3884292509783,1194.3903072256144,left,1,2,0.6643227806598588,P28D09,2022-11-11_12h00.52.033,t1_Paradigm,2021.1.4,60.11517040274438,
B,left,Distractor,0,56,56,56,1195.9048677846822,1197.9065109322883,None,0,2,,P28D09,2022-11-11_12h00.52.033,t1_Paradigm,2021.1.4,60.11517040274438,
V,left,Lure,0,57,57,57,1199.4040385116323,1201.4058613083325,left,1,2,0.7850180996465497,P28D09,2022-11-11_12h00.52.033,t1_Paradigm,2021.1.4,60.11517040274438,
J,left,Distractor,0,58,58,58,1202.9033728475788,1204.905860345927,left,1,2,0.7227953527344653,P28D09,2022-11-11_12h00.52.033,t1_Paradigm,2021.1.4,60.11517040274438,
H,left,Distractor,0,59,59,59,1206.402652326391,1208.4045739300927,left,1,2,1.114719740997316,P28D09,2022-11-11_12h00.52.033,t1_Paradigm,2021.1.4,60.11517040274438,
X,left,Pretarget,0,60,60,60,1209.902462090833,1211.9042091782721,left,1,2,0.7671035561543249,P28D09,2022-11-11_12h00.52.033,t1_Paradigm,2021.1.4,60.11517040274438,
P,left,Distractor,0,61,61,61,1213.4015189330894,1215.4030703313365,left,1,2,0.6080711205104308,P28D09,2022-11-11_12h00.52.033,t1_Paradigm,2021.1.4,60.11517040274438,
X,right,Target,0,62,62,62,1216.9010781512052,1218.9029926972644,right,1,2,0.4808224592161423,P28D09,2022-11-11_12h00.52.033,t1_Paradigm,2021.1.4,60.11517040274438,
Q,left,Distractor,0,63,63,63,1220.4003030936856,1222.4025240056098,left,1,2,0.5489008041859051,P28D09,2022-11-11_12h00.52.033,t1_Paradigm,2021.1.4,60.11517040274438,
B,left,Pretarget,0,0,0,0,1239.4423053726623,1241.4487682488189,left,1,2,0.9088547113615277,P28D09,2022-11-11_12h00.52.033,t1_Paradigm,2021.1.4,60.11517040274438,
F,left,Distractor,0,1,1,1,1242.94678312633,1244.9459981239497,left,1,2,0.5673080994802149,P28D09,2022-11-11_12h00.52.033,t1_Paradigm,2021.1.4,60.11517040274438,
B,right,Target,0,2,2,2,1246.446012560038,1248.4479357677492,left,0,2,0.6787299963934856,P28D09,2022-11-11_12h00.52.033,t1_Paradigm,2021.1.4,60.11517040274438,
V,left,Distractor,0,3,3,3,1249.9453879586345,1251.947065111247,left,1,2,0.7758980209091533,P28D09,2022-11-11_12h00.52.033,t1_Paradigm,2021.1.4,60.11517040274438,
G,left,Pretarget,0,4,4,4,1253.4447992870491,1255.4469541137714,left,1,2,0.746366276272056,P28D09,2022-11-11_12h00.52.033,t1_Paradigm,2021.1.4,60.11517040274438,
B,left,Lure,0,5,5,5,1256.9442423748578,1258.9458220036777,left,1,2,0.5050298538299103,P28D09,2022-11-11_12h00.52.033,t1_Paradigm,2021.1.4,60.11517040274438,
G,right,Target,0,6,6,6,1260.4435600291026,1262.44564010897,right,1,2,0.4475415021488516,P28D09,2022-11-11_12h00.52.033,t1_Paradigm,2021.1.4,60.11517040274438,
Y,left,Pretarget,0,7,7,7,1263.9430358387108,1265.9420715080387,left,1,2,0.5551853144561392,P28D09,2022-11-11_12h00.52.033,t1_Paradigm,2021.1.4,60.11517040274438,
P,left,Distractor,0,8,8,8,1267.4424410718884,1269.443550084242,left,1,2,0.8830298332986786,P28D09,2022-11-11_12h00.52.033,t1_Paradigm,2021.1.4,60.11517040274438,
Y,right,Target,0,9,9,9,1270.9419451120684,1272.9435048511668,right,1,2,0.7678481374878174,P28D09,2022-11-11_12h00.52.033,t1_Paradigm,2021.1.4,60.11517040274438,
X,left,Distractor,0,10,10,10,1274.4413657437408,1276.4423364904524,left,1,2,0.8370749534515198,P28D09,2022-11-11_12h00.52.033,t1_Paradigm,2021.1.4,60.11517040274438,
Y,right,Target,0,11,11,11,1277.9406628666602,1279.9426037184794,left,0,2,0.46446316359561024,P28D09,2022-11-11_12h00.52.033,t1_Paradigm,2021.1.4,60.11517040274438,
N,left,Distractor,0,12,12,12,1281.440247748932,1283.4416826960705,left,1,2,0.6722369648541644,P28D09,2022-11-11_12h00.52.033,t1_Paradigm,2021.1.4,60.11517040274438,
Y,right,Target,0,13,13,13,1284.9395394182193,1286.9412502550376,right,1,2,0.5204415004809562,P28D09,2022-11-11_12h00.52.033,t1_Paradigm,2021.1.4,60.11517040274438,
Y,left,Lure,0,14,14,14,1288.4389334233283,1290.4386745361526,right,0,2,0.7914411963602106,P28D09,2022-11-11_12h00.52.033,t1_Paradigm,2021.1.4,60.11517040274438,
K,left,Distractor,0,15,15,15,1291.9383957592545,1293.9395407014272,left,1,2,1.3320527988680624,P28D09,2022-11-11_12h00.52.033,t1_Paradigm,2021.1.4,60.11517040274438,
T,left,Pretarget,0,16,16,16,1295.43779072677,1297.437340641629,left,1,2,0.8717574942547799,P28D09,2022-11-11_12h00.52.033,t1_Paradigm,2021.1.4,60.11517040274438,
J,left,Distractor,0,17,17,17,1298.937190185513,1300.939622185123,left,1,2,0.5377378586090344,P28D09,2022-11-11_12h00.52.033,t1_Paradigm,2021.1.4,60.11517040274438,
T,right,Target,0,18,18,18,1302.4358652734445,1304.4385404409359,left,0,2,0.8602782379502969,P28D09,2022-11-11_12h00.52.033,t1_Paradigm,2021.1.4,60.11517040274438,
S,left,Pretarget,0,19,19,19,1305.936053904994,1307.9377256039734,left,1,2,0.545495491449401,P28D09,2022-11-11_12h00.52.033,t1_Paradigm,2021.1.4,60.11517040274438,
R,left,Distractor,0,20,20,20,1309.435454646944,1311.4375414636525,left,1,2,0.5730235070841445,P28D09,2022-11-11_12h00.52.033,t1_Paradigm,2021.1.4,60.11517040274438,
S,right,Target,0,21,21,21,1312.9342590180631,1314.937115438658,right,1,2,0.5601086620372371,P28D09,2022-11-11_12h00.52.033,t1_Paradigm,2021.1.4,60.11517040274438,
Q,left,Distractor,0,22,22,22,1316.4342856446256,1318.4358088123008,left,1,2,0.7236778789092568,P28D09,2022-11-11_12h00.52.033,t1_Paradigm,2021.1.4,60.11517040274438,
D,left,Distractor,0,23,23,23,1319.9336636096377,1321.9351810028775,left,1,2,0.7922621285597415,P28D09,2022-11-11_12h00.52.033,t1_Paradigm,2021.1.4,60.11517040274438,
F,left,Distractor,0,24,24,24,1323.43298094308,1325.434984992884,left,1,2,0.5305323259299257,P28D09,2022-11-11_12h00.52.033,t1_Paradigm,2021.1.4,60.11517040274438,
Z,left,Distractor,0,25,25,25,1326.9324541862725,1328.9346824766417,left,1,2,0.6110247440965395,P28D09,2022-11-11_12h00.52.033,t1_Paradigm,2021.1.4,60.11517040274438,
P,left,Distractor,0,26,26,26,1330.4486274167612,1332.4504806896466,left,1,2,0.6309783048054669,P28D09,2022-11-11_12h00.52.033,t1_Paradigm,2021.1.4,60.11517040274438,
H,left,Distractor,0,27,27,27,1333.9479219732657,1335.9497675469038,left,1,2,0.6343467253173003,P28D09,2022-11-11_12h00.52.033,t1_Paradigm,2021.1.4,60.11517040274438,
Z,left,Pretarget,0,28,28,28,1337.4477474570022,1339.4488699430385,left,1,2,0.5606341356378834,P28D09,2022-11-11_12h00.52.033,t1_Paradigm,2021.1.4,60.11517040274438,
J,left,Pretarget,0,29,29,29,1340.947515196388,1342.9481102840118,left,1,2,0.6419064233532481,P28D09,2022-11-11_12h00.52.033,t1_Paradigm,2021.1.4,60.11517040274438,
Z,right,Target,0,30,30,30,1344.4462393670192,1346.4477189056288,right,1,2,0.6454159967261148,P28D09,2022-11-11_12h00.52.033,t1_Paradigm,2021.1.4,60.11517040274438,
J,right,Target,0,31,31,31,1347.945881672841,1349.9472566300137,right,1,2,0.5262672639564698,P28D09,2022-11-11_12h00.52.033,t1_Paradigm,2021.1.4,60.11517040274438,
V,left,Pretarget,0,32,32,32,1351.445224349638,1353.4471119483323,left,1,2,0.5783767292823541,P28D09,2022-11-11_12h00.52.033,t1_Paradigm,2021.1.4,60.11517040274438,
Z,left,Lure,0,33,33,33,1354.94489296122,1356.9462268557427,left,1,2,0.7946180981061843,P28D09,2022-11-11_12h00.52.033,t1_Paradigm,2021.1.4,60.11517040274438,
V,right,Target,0,34,34,34,1358.4440794074653,1360.4459179234618,right,1,2,0.6914860444730948,P28D09,2022-11-11_12h00.52.033,t1_Paradigm,2021.1.4,60.11517040274438,
X,left,Distractor,0,35,35,35,1361.9434660341303,1363.9450199987932,left,1,2,0.5116072562841509,P28D09,2022-11-11_12h00.52.033,t1_Paradigm,2021.1.4,60.11517040274438,
S,left,Distractor,0,36,36,36,1365.4426739741075,1367.4439632771582,left,1,2,0.8505460690857944,P28D09,2022-11-11_12h00.52.033,t1_Paradigm,2021.1.4,60.11517040274438,
Q,left,Distractor,0,37,37,37,1368.9421815431087,1370.943690595498,left,1,2,0.9276694251357185,P28D09,2022-11-11_12h00.52.033,t1_Paradigm,2021.1.4,60.11517040274438,
P,left,Distractor,0,38,38,38,1372.4415072174024,1374.443463788517,left,1,2,0.5386964148456173,P28D09,2022-11-11_12h00.52.033,t1_Paradigm,2021.1.4,60.11517040274438,
S,left,Lure,0,39,39,39,1375.941018315225,1377.9429110467509,left,1,2,0.8484733676641554,P28D09,2022-11-11_12h00.52.033,t1_Paradigm,2021.1.4,60.11517040274438,
K,left,Pretarget,0,40,40,40,1379.4402916988001,1381.4425969816384,left,1,2,0.7578804999893691,P28D09,2022-11-11_12h00.52.033,t1_Paradigm,2021.1.4,60.11517040274438,
L,left,Distractor,0,41,41,41,1382.9397867565249,1384.9517946944488,left,1,2,0.48206877480606636,P28D09,2022-11-11_12h00.52.033,t1_Paradigm,2021.1.4,60.11517040274438,
K,right,Target,0,42,42,42,1386.4391637591316,1388.4409519092205,right,1,2,0.5162585638081509,P28D09,2022-11-11_12h00.52.033,t1_Paradigm,2021.1.4,60.11517040274438,
B,left,Distractor,0,43,43,43,1389.9386985962983,1391.9397489018947,left,1,2,0.47194811477584153,P28D09,2022-11-11_12h00.52.033,t1_Paradigm,2021.1.4,60.11517040274438,
N,left,Distractor,0,44,44,44,1393.4381217943865,1395.4396010121936,None,0,2,,P28D09,2022-11-11_12h00.52.033,t1_Paradigm,2021.1.4,60.11517040274438,
S,left,Pretarget,0,45,45,45,1396.9373361504022,1398.9393193480792,left,1,2,1.0128500430519125,P28D09,2022-11-11_12h00.52.033,t1_Paradigm,2021.1.4,60.11517040274438,
Z,left,Distractor,0,46,46,46,1400.4366775439912,1402.439139698985,left,1,2,0.6486750237718297,P28D09,2022-11-11_12h00.52.033,t1_Paradigm,2021.1.4,60.11517040274438,
S,right,Target,0,47,47,47,1403.9363262658517,1405.93769224057,right,1,2,0.4737596834074793,P28D09,2022-11-11_12h00.52.033,t1_Paradigm,2021.1.4,60.11517040274438,
C,left,Distractor,0,48,48,48,1407.4356063862688,1409.437626796972,left,1,2,0.6561949423648912,P28D09,2022-11-11_12h00.52.033,t1_Paradigm,2021.1.4,60.11517040274438,
T,left,Pretarget,0,49,49,49,1410.935218536706,1412.9370230476952,left,1,2,1.0063124200405582,P28D09,2022-11-11_12h00.52.033,t1_Paradigm,2021.1.4,60.11517040274438,
S,left,Lure,0,50,50,50,1414.4345374741588,1416.4366377645492,right,0,2,0.7243323148941272,P28D09,2022-11-11_12h00.52.033,t1_Paradigm,2021.1.4,60.11517040274438,
T,right,Target,0,51,51,51,1417.9340264366474,1419.9357645416312,right,1,2,0.5486865084812962,P28D09,2022-11-11_12h00.52.033,t1_Paradigm,2021.1.4,60.11517040274438,
N,left,Pretarget,0,52,52,52,1421.4333456949016,1423.434802777375,left,1,2,0.6181276201496075,P28D09,2022-11-11_12h00.52.033,t1_Paradigm,2021.1.4,60.11517040274438,
B,left,Distractor,0,53,53,53,1424.932754136099,1426.9343039303367,left,1,2,1.0378915227438483,P28D09,2022-11-11_12h00.52.033,t1_Paradigm,2021.1.4,60.11517040274438,
N,right,Target,0,54,54,54,1428.4315174445683,1430.4339138351615,left,0,2,1.225065026555967,P28D09,2022-11-11_12h00.52.033,t1_Paradigm,2021.1.4,60.11517040274438,
N,left,Lure,0,55,55,55,1431.9480576724918,1433.9478658329235,left,1,2,1.095932295388593,P28D09,2022-11-11_12h00.52.033,t1_Paradigm,2021.1.4,60.11517040274438,
X,left,Distractor,0,56,56,56,1435.4476717477419,1437.4492067850897,left,1,2,0.7629530204785624,P28D09,2022-11-11_12h00.52.033,t1_Paradigm,2021.1.4,60.11517040274438,
W,left,Distractor,0,57,57,57,1438.9470128205294,1440.9491342838483,left,1,2,0.8475010169422603,P28D09,2022-11-11_12h00.52.033,t1_Paradigm,2021.1.4,60.11517040274438,
S,left,Distractor,0,58,58,58,1442.446596098791,1444.4476358179227,None,0,2,,P28D09,2022-11-11_12h00.52.033,t1_Paradigm,2021.1.4,60.11517040274438,
L,left,Distractor,0,59,59,59,1445.9458900136915,1447.9478154670169,left,1,2,0.6833931735909573,P28D09,2022-11-11_12h00.52.033,t1_Paradigm,2021.1.4,60.11517040274438,
K,left,Pretarget,0,60,60,60,1449.4454376829372,1451.44684054988,left,1,2,0.4424712272730176,P28D09,2022-11-11_12h00.52.033,t1_Paradigm,2021.1.4,60.11517040274438,
V,left,Pretarget,0,61,61,61,1452.944885582775,1454.9463959183722,left,1,2,0.47068607988967415,P28D09,2022-11-11_12h00.52.033,t1_Paradigm,2021.1.4,60.11517040274438,
K,right,Target,0,62,62,62,1456.4441496630934,1458.4457989059365,right,1,2,1.1031910811925627,P28D09,2022-11-11_12h00.52.033,t1_Paradigm,2021.1.4,60.11517040274438,
V,right,Target,0,63,63,63,1459.9425077986953,1461.9439109864397,right,1,2,1.3365087380043406,P28D09,2022-11-11_12h00.52.033,t1_Paradigm,2021.1.4,60.11517040274438,
R,left,Distractor,0,0,0,0,1514.4136798935442,1516.4194738976284,left,1,3,0.7728632344278594,P28D09,2022-11-11_12h00.52.033,t1_Paradigm,2021.1.4,60.11517040274438,
P,left,Lure,0,1,1,1,1517.9170582589168,1519.9190886144816,left,1,3,0.5147280176879576,P28D09,2022-11-11_12h00.52.033,t1_Paradigm,2021.1.4,60.11517040274438,
V,left,Distractor,0,2,2,2,1521.4165606950874,1523.418085466773,left,1,3,0.45791752053446544,P28D09,2022-11-11_12h00.52.033,t1_Paradigm,2021.1.4,60.11517040274438,
P,left,Pretarget,0,3,3,3,1524.915984213977,1526.915972665106,left,1,3,1.149462913368552,P28D09,2022-11-11_12h00.52.033,t1_Paradigm,2021.1.4,60.11517040274438,
Z,left,Distractor,0,4,4,4,1528.4152325749992,1530.4174368052236,left,1,3,0.7477572735424474,P28D09,2022-11-11_12h00.52.033,t1_Paradigm,2021.1.4,60.11517040274438,
L,left,Pretarget,0,5,5,5,1531.9152354622174,1533.9165128955965,left,1,3,0.6344933318105177,P28D09,2022-11-11_12h00.52.033,t1_Paradigm,2021.1.4,60.11517040274438,
P,right,Target,0,6,6,6,1535.4142194824299,1537.4160474119626,right,1,3,0.7927122137007245,P28D09,2022-11-11_12h00.52.033,t1_Paradigm,2021.1.4,60.11517040274438,
S,left,Distractor,0,7,7,7,1538.9136157331532,1540.913278891102,left,1,3,0.7164976895837754,P28D09,2022-11-11_12h00.52.033,t1_Paradigm,2021.1.4,60.11517040274438,
L,right,Target,0,8,8,8,1542.4129744500488,1544.4152373870302,right,1,3,0.6607458388771192,P28D09,2022-11-11_12h00.52.033,t1_Paradigm,2021.1.4,60.11517040274438,
D,left,Distractor,0,9,9,9,1545.9116812973743,1547.9147767154236,left,1,3,0.6927714979010489,P28D09,2022-11-11_12h00.52.033,t1_Paradigm,2021.1.4,60.11517040274438,
G,left,Distractor,0,10,10,10,1549.4119106707703,1551.4136715526938,left,1,3,1.4237797014484386,P28D09,2022-11-11_12h00.52.033,t1_Paradigm,2021.1.4,60.11517040274438,
M,left,Pretarget,0,11,11,11,1552.9114066909015,1554.9131297181948,left,1,3,0.7167155141105468,P28D09,2022-11-11_12h00.52.033,t1_Paradigm,2021.1.4,60.11517040274438,
Y,left,Distractor,0,12,12,12,1556.4106980393872,1558.4122901794826,left,1,3,1.047614388353395,P28D09,2022-11-11_12h00.52.033,t1_Paradigm,2021.1.4,60.11517040274438,
V,left,Distractor,0,13,13,13,1559.9099300395092,1561.9117284552622,left,1,3,0.5527581268761423,P28D09,2022-11-11_12h00.52.033,t1_Paradigm,2021.1.4,60.11517040274438,
M,right,Target,0,14,14,14,1563.409598651092,1565.4113810267454,right,1,3,0.6663659683035803,P28D09,2022-11-11_12h00.52.033,t1_Paradigm,2021.1.4,60.11517040274438,
S,left,Pretarget,0,15,15,15,1566.9090369268715,1568.9109530769392,left,1,3,0.9971686019580375,P28D09,2022-11-11_12h00.52.033,t1_Paradigm,2021.1.4,60.11517040274438,
Q,left,Distractor,0,16,16,16,1570.408492525955,1572.4104420394278,left,1,3,0.5592364015265048,P28D09,2022-11-11_12h00.52.033,t1_Paradigm,2021.1.4,60.11517040274438,
R,left,Pretarget,0,17,17,17,1573.9080812578513,1575.9096230320401,left,1,3,0.800145836567026,P28D09,2022-11-11_12h00.52.033,t1_Paradigm,2021.1.4,60.11517040274438,
S,right,Target,0,18,18,18,1577.4072025813011,1579.4083869821125,right,1,3,1.0415114519873896,P28D09,2022-11-11_12h00.52.033,t1_Paradigm,2021.1.4,60.11517040274438,
F,left,Distractor,0,19,19,19,1580.9068593232105,1582.9084950923707,left,1,3,0.4729512624835479,P28D09,2022-11-11_12h00.52.033,t1_Paradigm,2021.1.4,60.11517040274438,
R,right,Target,0,20,20,20,1584.4059524160866,1586.40757695718,right,1,3,0.5747057925273111,P28D09,2022-11-11_12h00.52.033,t1_Paradigm,2021.1.4,60.11517040274438,
P,left,Distractor,0,21,21,21,1587.9059225815063,1589.9072693081062,left,1,3,0.872195388921682,P28D09,2022-11-11_12h00.52.033,t1_Paradigm,2021.1.4,60.11517040274438,
L,left,Distractor,0,22,22,22,1591.4047927170259,1593.4067255487962,left,1,3,0.7325766042977193,P28D09,2022-11-11_12h00.52.033,t1_Paradigm,2021.1.4,60.11517040274438,
R,right,Target,0,23,23,23,1594.9044253987895,1596.9063081854538,right,1,3,0.5890414694276842,P28D09,2022-11-11_12h00.52.033,t1_Paradigm,2021.1.4,60.11517040274438,
H,left,Pretarget,0,24,24,24,1598.4036724766038,1600.4055584712887,left,1,3,0.8986740613654547,P28D09,2022-11-11_12h00.52.033,t1_Paradigm,2021.1.4,60.11517040274438,
G,left,Pretarget,0,25,25,25,1601.9033327473344,1603.9049579300308,left,1,3,0.5920326268405915,P28D09,2022-11-11_12h00.52.033,t1_Paradigm,2021.1.4,60.11517040274438,
T,left,Distractor,0,26,26,26,1605.402464657248,1607.4018301109836,left,1,3,0.5125783237981523,P28D09,2022-11-11_12h00.52.033,t1_Paradigm,2021.1.4,60.11517040274438,
H,right,Target,0,27,27,27,1608.9019728678531,1610.904263714604,right,1,3,1.0811301724497753,P28D09,2022-11-11_12h00.52.033,t1_Paradigm,2021.1.4,60.11517040274438,
G,right,Target,0,28,28,28,1612.4013396047967,1614.4032073137705,right,1,3,0.5051353976723476,P28D09,2022-11-11_12h00.52.033,t1_Paradigm,2021.1.4,60.11517040274438,
D,left,Distractor,0,29,29,29,1615.916762158714,1617.917482359101,left,1,3,0.7963167444504506,P28D09,2022-11-11_12h00.52.033,t1_Paradigm,2021.1.4,60.11517040274438,
N,left,Pretarget,0,30,30,30,1619.416700243938,1621.4181592512223,left,1,3,0.8312434155395749,P28D09,2022-11-11_12h00.52.033,t1_Paradigm,2021.1.4,60.11517040274438,
V,left,Distractor,0,31,31,31,1622.9162033217117,1624.9183167649817,left,1,3,0.5808571699872118,P28D09,2022-11-11_12h00.52.033,t1_Paradigm,2021.1.4,60.11517040274438,
R,left,Distractor,0,32,32,32,1626.4155905899797,1628.4278728135732,left,1,3,0.5416821186281595,P28D09,2022-11-11_12h00.52.033,t1_Paradigm,2021.1.4,60.11517040274438,
N,right,Target,0,33,33,33,1629.9150734572313,1631.916653727655,left,0,3,0.5726199382261257,P28D09,2022-11-11_12h00.52.033,t1_Paradigm,2021.1.4,60.11517040274438,
Z,left,Distractor,0,34,34,34,1633.4145309811274,1635.4163508906104,left,1,3,1.1969967804325279,P28D09,2022-11-11_12h00.52.033,t1_Paradigm,2021.1.4,60.11517040274438,
N,left,Lure,0,35,35,35,1636.913792495031,1638.9158956726378,left,1,3,0.6648626903479453,P28D09,2022-11-11_12h00.52.033,t1_Paradigm,2021.1.4,60.11517040274438,
Y,left,Pretarget,0,36,36,36,1640.4131958033968,1642.415208194051,left,1,3,0.5703983846979099,P28D09,2022-11-11_12h00.52.033,t1_Paradigm,2021.1.4,60.11517040274438,
Y,left,Lure,0,37,37,37,1643.9126077734154,1645.912338299774,left,1,3,0.9025711634985782,P28D09,2022-11-11_12h00.52.033,t1_Paradigm,2021.1.4,60.11517040274438,
B,left,Distractor,0,38,38,38,1647.4119947208828,1649.4134749010964,left,1,3,0.5572057251592923,P28D09,2022-11-11_12h00.52.033,t1_Paradigm,2021.1.4,60.11517040274438,
Y,right,Target,0,39,39,39,1650.9118128261753,1652.9131419086689,right,1,3,0.6830540859264147,P28D09,2022-11-11_12h00.52.033,t1_Paradigm,2021.1.4,60.11517040274438,
J,left,Distractor,0,40,40,40,1654.4114535279869,1656.4124063097888,left,1,3,0.8053797204411239,P28D09,2022-11-11_12h00.52.033,t1_Paradigm,2021.1.4,60.11517040274438,
X,left,Distractor,0,41,41,41,1657.910676224853,1659.9112225505805,left,1,3,0.6256693532759527,P28D09,2022-11-11_12h00.52.033,t1_Paradigm,2021.1.4,60.11517040274438,
W,left,Pretarget,0,42,42,42,1661.4097571272569,1663.4119886256458,left,1,3,0.5339276938066178,P28D09,2022-11-11_12h00.52.033,t1_Paradigm,2021.1.4,60.11517040274438,
S,left,Pretarget,0,43,43,43,1664.9090757439071,1666.9113646658452,left,1,3,0.668507321342986,P28D09,2022-11-11_12h00.52.033,t1_Paradigm,2021.1.4,60.11517040274438,
R,left,Distractor,0,44,44,44,1668.4087600747853,1670.4106977185847,left,1,3,0.5091280987871869,P28D09,2022-11-11_12h00.52.033,t1_Paradigm,2021.1.4,60.11517040274438,
W,right,Target,0,45,45,45,1671.908398210181,1673.9092897188102,right,1,3,0.6033485949501483,P28D09,2022-11-11_12h00.52.033,t1_Paradigm,2021.1.4,60.11517040274438,
S,right,Target,0,46,46,46,1675.407362982277,1677.4092739995149,right,1,3,0.4759514023535303,P28D09,2022-11-11_12h00.52.033,t1_Paradigm,2021.1.4,60.11517040274438,
D,left,Distractor,0,47,47,47,1678.9068971778406,1680.9086400948536,left,1,3,0.5365800843574107,P28D09,2022-11-11_12h00.52.033,t1_Paradigm,2021.1.4,60.11517040274438,
T,left,Distractor,0,48,48,48,1682.40614650127,1684.4075907516644,left,1,3,0.7448771136023424,P28D09,2022-11-11_12h00.52.033,t1_Paradigm,2021.1.4,60.11517040274438,
S,right,Target,0,49,49,49,1685.9057291379277,1687.9071749923323,right,1,3,0.4707358041923726,P28D09,2022-11-11_12h00.52.033,t1_Paradigm,2021.1.4,60.11517040274438,
K,left,Distractor,0,50,50,50,1689.4050252984425,1691.4069828319616,left,1,3,0.6738769044422952,P28D09,2022-11-11_12h00.52.033,t1_Paradigm,2021.1.4,60.11517040274438,
S,left,Lure,0,51,51,51,1692.9048607270388,1694.9163172064045,left,1,3,0.7900293469629105,P28D09,2022-11-11_12h00.52.033,t1_Paradigm,2021.1.4,60.11517040274438,
T,left,Pretarget,0,52,52,52,1696.4038354439954,1698.405377859789,left,1,3,0.628824119688943,P28D09,2022-11-11_12h00.52.033,t1_Paradigm,2021.1.4,60.11517040274438,
V,left,Distractor,0,53,53,53,1699.9034918651041,1701.9055254286877,left,1,3,0.6809679108228011,P28D09,2022-11-11_12h00.52.033,t1_Paradigm,2021.1.4,60.11517040274438,
B,left,Distractor,0,54,54,54,1703.402736697305,1705.4048023410842,left,1,3,1.2442493041799025,P28D09,2022-11-11_12h00.52.033,t1_Paradigm,2021.1.4,60.11517040274438,
T,right,Target,0,55,55,55,1706.902307464291,1708.904595744626,right,1,3,0.7005239979116595,P28D09,2022-11-11_12h00.52.033,t1_Paradigm,2021.1.4,60.11517040274438,
Y,left,Pretarget,0,56,56,56,1710.401544918047,1712.4034835242537,left,1,3,0.5245012492032401,P28D09,2022-11-11_12h00.52.033,t1_Paradigm,2021.1.4,60.11517040274438,
T,left,Lure,0,57,57,57,1713.9176045846443,1715.9192005743635,left,1,3,0.8838369710119878,P28D09,2022-11-11_12h00.52.033,t1_Paradigm,2021.1.4,60.11517040274438,
P,left,Pretarget,0,58,58,58,1717.4171111912392,1719.4192101984218,left,1,3,0.6215030983057659,P28D09,2022-11-11_12h00.52.033,t1_Paradigm,2021.1.4,60.11517040274438,
Y,right,Target,0,59,59,59,1720.9164513016212,1722.9177989906284,right,1,3,0.528055414046321,P28D09,2022-11-11_12h00.52.033,t1_Paradigm,2021.1.4,60.11517040274438,
R,left,Distractor,0,60,60,60,1724.4159893468086,1726.4176296071973,left,1,3,0.8089897048230341,P28D09,2022-11-11_12h00.52.033,t1_Paradigm,2021.1.4,60.11517040274438,
P,right,Target,0,61,61,61,1727.9153804647003,1729.9172093566385,left,0,3,0.7961358121501689,P28D09,2022-11-11_12h00.52.033,t1_Paradigm,2021.1.4,60.11517040274438,
L,left,Distractor,0,62,62,62,1731.4147427104172,1733.4160012164803,left,1,3,0.5998361343608849,P28D09,2022-11-11_12h00.52.033,t1_Paradigm,2021.1.4,60.11517040274438,
V,left,Distractor,0,63,63,63,1734.914112334579,1736.9163261888598,right,0,3,1.0924118147504487,P28D09,2022-11-11_12h00.52.033,t1_Paradigm,2021.1.4,60.11517040274438,
H,left,Lure,0,0,0,0,1760.7618218727903,1762.7618366296801,left,1,3,0.4603684474604961,P28D09,2022-11-11_12h00.52.033,t1_Paradigm,2021.1.4,60.11517040274438,
B,left,Distractor,0,1,1,1,1764.2591345148257,1766.260945121051,left,1,3,0.4072394735248963,P28D09,2022-11-11_12h00.52.033,t1_Paradigm,2021.1.4,60.11517040274438,
T,left,Distractor,0,2,2,2,1767.7586350261836,1769.7603198780444,left,1,3,0.40246209083306894,P28D09,2022-11-11_12h00.52.033,t1_Paradigm,2021.1.4,60.11517040274438,
R,left,Distractor,0,3,3,3,1771.2579446603786,1773.2601649307007,left,1,3,0.5200093802486663,P28D09,2022-11-11_12h00.52.033,t1_Paradigm,2021.1.4,60.11517040274438,
H,left,Pretarget,0,4,4,4,1774.7573617632306,1776.7585128006385,left,1,3,0.9942345472918532,P28D09,2022-11-11_12h00.52.033,t1_Paradigm,2021.1.4,60.11517040274438,
K,left,Distractor,0,5,5,5,1778.2567711668335,1780.2565398686247,left,1,3,0.6030014872376341,P28D09,2022-11-11_12h00.52.033,t1_Paradigm,2021.1.4,60.11517040274438,
G,left,Distractor,0,6,6,6,1781.7560804802279,1783.7577005300927,left,1,3,1.0377006455819355,P28D09,2022-11-11_12h00.52.033,t1_Paradigm,2021.1.4,60.11517040274438,
H,right,Target,0,7,7,7,1785.2553188963893,1787.257946264389,right,1,3,0.8526854973133595,P28D09,2022-11-11_12h00.52.033,t1_Paradigm,2021.1.4,60.11517040274438,
Y,left,Pretarget,0,8,8,8,1788.7550227961865,1790.756913923703,left,1,3,0.6118719820551632,P28D09,2022-11-11_12h00.52.033,t1_Paradigm,2021.1.4,60.11517040274438,
S,left,Distractor,0,9,9,9,1792.25460286643,1794.2563233273058,left,1,3,1.064760611165184,P28D09,2022-11-11_12h00.52.033,t1_Paradigm,2021.1.4,60.11517040274438,
P,left,Distractor,0,10,10,10,1795.753801182348,1797.7556089013551,left,1,3,0.5540823973406077,P28D09,2022-11-11_12h00.52.033,t1_Paradigm,2021.1.4,60.11517040274438,
Y,right,Target,0,11,11,11,1799.2525096336822,1801.2546461746924,right,1,3,0.6884608820528229,P28D09,2022-11-11_12h00.52.033,t1_Paradigm,2021.1.4,60.11517040274438,
H,left,Lure,0,12,12,12,1802.7527778241156,1804.7545502549083,left,1,3,1.1939652019700588,P28D09,2022-11-11_12h00.52.033,t1_Paradigm,2021.1.4,60.11517040274438,
Q,left,Distractor,0,13,13,13,1806.2521484106828,1808.2537928414959,left,1,3,0.8502194926968514,P28D09,2022-11-11_12h00.52.033,t1_Paradigm,2021.1.4,60.11517040274438,
V,left,Pretarget,0,14,14,14,1809.751547869425,1811.753046014549,left,1,3,0.6130098665835249,P28D09,2022-11-11_12h00.52.033,t1_Paradigm,2021.1.4,60.11517040274438,
G,left,Distractor,0,15,15,15,1813.2509187767946,1815.2526716386683,left,1,3,0.7141484568783198,P28D09,2022-11-11_12h00.52.033,t1_Paradigm,2021.1.4,60.11517040274438,
Z,left,Pretarget,0,16,16,16,1816.7499461052712,1818.7497215439043,left,1,3,0.6546958348371845,P28D09,2022-11-11_12h00.52.033,t1_Paradigm,2021.1.4,60.11517040274438,
V,right,Target,0,17,17,17,1820.2498014235907,1822.2514031877445,right,1,3,0.4191113914203015,P28D09,2022-11-11_12h00.52.033,t1_Paradigm,2021.1.4,60.11517040274438,
N,left,Distractor,0,18,18,18,1823.7491453835946,1825.7506143357414,left,1,3,0.5822821722649678,P28D09,2022-11-11_12h00.52.033,t1_Paradigm,2021.1.4,60.11517040274438,
Z,right,Target,0,19,19,19,1827.24791959933,1829.2503236891707,right,1,3,0.42252472420659615,P28D09,2022-11-11_12h00.52.033,t1_Paradigm,2021.1.4,60.11517040274438,
R,left,Distractor,0,20,20,20,1830.7480142359063,1832.7498877193166,left,1,3,0.4912504475178139,P28D09,2022-11-11_12h00.52.033,t1_Paradigm,2021.1.4,60.11517040274438,
P,left,Distractor,0,21,21,21,1834.2474903663178,1836.2493930427036,left,1,3,0.8010963727574563,P28D09,2022-11-11_12h00.52.033,t1_Paradigm,2021.1.4,60.11517040274438,
Z,right,Target,0,22,22,22,1837.7468933538812,1839.7487065265223,right,1,3,0.7187647969913087,P28D09,2022-11-11_12h00.52.033,t1_Paradigm,2021.1.4,60.11517040274438,
D,left,Pretarget,0,23,23,23,1841.2462684316752,1843.2479946669873,left,1,3,0.5752453814147884,P28D09,2022-11-11_12h00.52.033,t1_Paradigm,2021.1.4,60.11517040274438,
K,left,Distractor,0,24,24,24,1844.7456916297642,1846.7476491632833,left,1,3,1.2732295902587794,P28D09,2022-11-11_12h00.52.033,t1_Paradigm,2021.1.4,60.11517040274438,
W,left,Distractor,0,25,25,25,1848.2450782564274,1850.2471333137428,left,1,3,0.9091825709583645,P28D09,2022-11-11_12h00.52.033,t1_Paradigm,2021.1.4,60.11517040274438,
D,right,Target,0,26,26,26,1851.7612630357862,1853.7624269052749,left,0,3,0.7131927878581337,P28D09,2022-11-11_12h00.52.033,t1_Paradigm,2021.1.4,60.11517040274438,
G,left,Pretarget,0,27,27,27,1855.2597478881607,1857.262763747326,left,1,3,1.4098251372724917,P28D09,2022-11-11_12h00.52.033,t1_Paradigm,2021.1.4,60.11517040274438,
V,left,Distractor,0,28,28,28,1858.7599913768436,1860.7615767800971,left,1,3,1.2915592514782475,P28D09,2022-11-11_12h00.52.033,t1_Paradigm,2021.1.4,60.11517040274438,
D,right,Target,0,29,29,29,1862.2593857027541,1864.2613987350132,right,1,3,0.8135383557219029,P28D09,2022-11-11_12h00.52.033,t1_Paradigm,2021.1.4,60.11517040274438,
G,right,Target,0,30,30,30,1865.758806013625,1867.7602839482252,right,1,3,0.568539337376933,P28D09,2022-11-11_12h00.52.033,t1_Paradigm,2021.1.4,60.11517040274438,
B,left,Pretarget,0,31,31,31,1869.2582369109596,1871.2601687803226,left,1,3,0.607897245852655,P28D09,2022-11-11_12h00.52.033,t1_Paradigm,2021.1.4,60.11517040274438,
N,left,Distractor,0,32,32,32,1872.757592099032,1874.758870815619,left,1,3,0.69386414935434,P28D09,2022-11-11_12h00.52.033,t1_Paradigm,2021.1.4,60.11517040274438,
F,left,Distractor,0,33,33,33,1876.2570804199158,1878.259013893291,None,0,3,,P28D09,2022-11-11_12h00.52.033,t1_Paradigm,2021.1.4,60.11517040274438,
B,right,Target,0,34,34,34,1879.756426625535,1881.758447036239,left,0,3,1.029816937572832,P28D09,2022-11-11_12h00.52.033,t1_Paradigm,2021.1.4,60.11517040274438,
Q,left,Pretarget,0,35,35,35,1883.2558103649817,1885.2577643696814,left,1,3,0.6777332647234289,P28D09,2022-11-11_12h00.52.033,t1_Paradigm,2021.1.4,60.11517040274438,
S,left,Pretarget,0,36,36,36,1886.7552906658175,1888.754279498061,left,1,3,0.5659770921738527,P28D09,2022-11-11_12h00.52.033,t1_Paradigm,2021.1.4,60.11517040274438,
W,left,Distractor,0,37,37,37,1890.2548575831797,1892.256263337341,left,1,3,0.46067096370279614,P28D09,2022-11-11_12h00.52.033,t1_Paradigm,2021.1.4,60.11517040274438,
Q,right,Target,0,38,38,38,1893.7541232675094,1895.7563060040002,right,1,3,0.4144664999348606,P28D09,2022-11-11_12h00.52.033,t1_Paradigm,2021.1.4,60.11517040274438,
S,right,Target,0,39,39,39,1897.2535448615863,1899.2555254928475,right,1,3,0.6672314919724158,P28D09,2022-11-11_12h00.52.033,t1_Paradigm,2021.1.4,60.11517040274438,
T,left,Distractor,0,40,40,40,1900.7530027062849,1902.7546025456277,left,1,3,0.49609584022618947,P28D09,2022-11-11_12h00.52.033,t1_Paradigm,2021.1.4,60.11517040274438,
G,left,Distractor,0,41,41,41,1904.2523835585152,1906.2542778940506,left,1,3,1.0956249671180558,P28D09,2022-11-11_12h00.52.033,t1_Paradigm,2021.1.4,60.11517040274438,
D,left,Distractor,0,42,42,42,1907.7517769220203,1909.7529077489062,left,1,3,0.6344416826959787,P28D09,2022-11-11_12h00.52.033,t1_Paradigm,2021.1.4,60.11517040274438,
S,left,Lure,0,43,43,43,1911.2511391677372,1913.2535666761187,left,1,3,0.6286486410172074,P28D09,2022-11-11_12h00.52.033,t1_Paradigm,2021.1.4,60.11517040274438,
Z,left,Pretarget,0,44,44,44,1914.750547288132,1916.7524502853203,left,1,3,0.5309227419074887,P28D09,2022-11-11_12h00.52.033,t1_Paradigm,2021.1.4,60.11517040274438,
J,left,Distractor,0,45,45,45,1918.2497693433952,1920.2517259145106,left,1,3,0.8243198677791952,P28D09,2022-11-11_12h00.52.033,t1_Paradigm,2021.1.4,60.11517040274438,
M,left,Pretarget,0,46,46,46,1921.7493571128844,1923.7510570424374,left,1,3,0.5991152923725167,P28D09,2022-11-11_12h00.52.033,t1_Paradigm,2021.1.4,60.11517040274438,
Z,right,Target,0,47,47,47,1925.248753042807,1927.2503827167302,right,1,3,0.6768176959485572,P28D09,2022-11-11_12h00.52.033,t1_Paradigm,2021.1.4,60.11517040274438,
P,left,Distractor,0,48,48,48,1928.7482769727076,1930.7507513181745,left,1,3,0.4755173573103093,P28D09,2022-11-11_12h00.52.033,t1_Paradigm,2021.1.4,60.11517040274438,
M,right,Target,0,49,49,49,1932.2476206119109,1934.2494052331776,right,1,3,0.6103289246602799,P28D09,2022-11-11_12h00.52.033,t1_Paradigm,2021.1.4,60.11517040274438,
K,left,Distractor,0,50,50,50,1935.7470159002269,1937.7488159199884,left,1,3,1.030576596598621,P28D09,2022-11-11_12h00.52.033,t1_Paradigm,2021.1.4,60.11517040274438,
Y,left,Distractor,0,51,51,51,1939.2464143965653,1941.2486494237755,left,1,3,0.8047503070065432,P28D09,2022-11-11_12h00.52.033,t1_Paradigm,2021.1.4,60.11517040274438,
X,left,Distractor,0,52,52,52,1942.7458212337524,1944.7477919201528,left,1,3,0.4862077616107854,P28D09,2022-11-11_12h00.52.033,t1_Paradigm,2021.1.4,60.11517040274438,
F,left,Pretarget,0,53,53,53,1946.2452752288273,1948.2475311081644,left,1,3,0.5307395639920287,P28D09,2022-11-11_12h00.52.033,t1_Paradigm,2021.1.4,60.11517040274438,
M,left,Lure,0,54,54,54,1949.744665063513,1951.7466325418927,left,1,3,0.7712473549891001,P28D09,2022-11-11_12h00.52.033,t1_Paradigm,2021.1.4,60.11517040274438,
V,left,Distractor,0,55,55,55,1953.2608110258343,1955.262242764954,left,1,3,0.4812090255691146,P28D09,2022-11-11_12h00.52.033,t1_Paradigm,2021.1.4,60.11517040274438,
F,right,Target,0,56,56,56,1956.7601261136633,1958.7623374015302,right,1,3,1.112857164855086,P28D09,2022-11-11_12h00.52.033,t1_Paradigm,2021.1.4,60.11517040274438,
S,left,Distractor,0,57,57,57,1960.2596564596033,1962.2611411310454,left,1,3,0.6269698843952938,P28D09,2022-11-11_12h00.52.033,t1_Paradigm,2021.1.4,60.11517040274438,
D,left,Distractor,0,58,58,58,1963.7589936827671,1965.760142153761,left,1,3,0.44381025462644175,P28D09,2022-11-11_12h00.52.033,t1_Paradigm,2021.1.4,60.11517040274438,
F,right,Target,0,59,59,59,1967.2583864046692,1969.260117131208,left,0,3,1.0345529368132702,P28D09,2022-11-11_12h00.52.033,t1_Paradigm,2021.1.4,60.11517040274438,
V,left,Pretarget,0,60,60,60,1970.7579151465989,1972.7595457829293,left,1,3,0.6054783991203294,P28D09,2022-11-11_12h00.52.033,t1_Paradigm,2021.1.4,60.11517040274438,
J,left,Distractor,0,61,61,61,1974.2572395376856,1976.2586363093915,left,1,3,1.1157360415854782,P28D09,2022-11-11_12h00.52.033,t1_Paradigm,2021.1.4,60.11517040274438,
V,left,Lure,0,62,62,62,1977.7567070064424,1979.7582057931695,left,1,3,0.5027932226093981,P28D09,2022-11-11_12h00.52.033,t1_Paradigm,2021.1.4,60.11517040274438,
V,right,Target,0,63,63,63,1981.2560997283445,1983.2557651319066,right,1,3,0.9411979643191444,P28D09,2022-11-11_12h00.52.033,t1_Paradigm,2021.1.4,60.11517040274438,
R,left,Distractor,0,0,0,0,2030.5640307867225,2032.5659222350396,left,1,4,0.4546838368441968,P28D09,2022-11-11_12h00.52.033,t1_Paradigm,2021.1.4,60.11517040274438,
F,left,Distractor,0,1,1,1,2034.0638386263518,2036.066012380389,left,1,4,0.43288374008989194,P28D09,2022-11-11_12h00.52.033,t1_Paradigm,2021.1.4,60.11517040274438,
P,left,Pretarget,0,2,2,2,2037.5632592580232,2039.565369814075,left,1,4,0.4202075716948457,P28D09,2022-11-11_12h00.52.033,t1_Paradigm,2021.1.4,60.11517040274438,
H,left,Distractor,0,3,3,3,2041.0626022556216,2043.0638055837508,left,1,4,0.7886178183671291,P28D09,2022-11-11_12h00.52.033,t1_Paradigm,2021.1.4,60.11517040274438,
Z,left,Distractor,0,4,4,4,2044.5621816842604,2046.5640327115334,left,1,4,0.4769359435485967,P28D09,2022-11-11_12h00.52.033,t1_Paradigm,2021.1.4,60.11517040274438,
T,left,Distractor,0,5,5,5,2048.061493243268,2050.061410797166,left,1,4,0.8621876511788287,P28D09,2022-11-11_12h00.52.033,t1_Paradigm,2021.1.4,60.11517040274438,
P,right,Target,0,6,6,6,2051.560955899996,2053.5625624761806,right,1,4,1.2848900996668817,P28D09,2022-11-11_12h00.52.033,t1_Paradigm,2021.1.4,60.11517040274438,
G,left,Distractor,0,7,7,7,2055.0602417948476,2057.0614063059393,left,1,4,0.6440946134789556,P28D09,2022-11-11_12h00.52.033,t1_Paradigm,2021.1.4,60.11517040274438,
L,left,Distractor,0,8,8,8,2058.5598253939124,2060.5615933334784,left,1,4,0.45924596142504015,P28D09,2022-11-11_12h00.52.033,t1_Paradigm,2021.1.4,60.11517040274438,
P,left,Lure,0,9,9,9,2062.059124762446,2064.0613283510656,left,1,4,0.5483156614227482,P28D09,2022-11-11_12h00.52.033,t1_Paradigm,2021.1.4,60.11517040274438,
Q,left,Pretarget,0,10,10,10,2065.5585656046414,2067.5605295542,left,1,4,0.49932246627395216,P28D09,2022-11-11_12h00.52.033,t1_Paradigm,2021.1.4,60.11517040274438,
D,left,Distractor,0,11,11,11,2069.0580340358038,2071.0600252535287,right,0,4,1.385070133723275,P28D09,2022-11-11_12h00.52.033,t1_Paradigm,2021.1.4,60.11517040274438,
M,left,Pretarget,0,12,12,12,2072.5573536148595,2074.5588684416844,left,1,4,0.6463886682486191,P28D09,2022-11-11_12h00.52.033,t1_Paradigm,2021.1.4,60.11517040274438,
C,left,Distractor,0,13,13,13,2076.056850597398,2078.058715739956,left,1,4,0.6330882192542049,P28D09,2022-11-11_12h00.52.033,t1_Paradigm,2021.1.4,60.11517040274438,
Q,right,Target,0,14,14,14,2079.556081955917,2081.557471990781,right,1,4,0.8742866968568705,P28D09,2022-11-11_12h00.52.033,t1_Paradigm,2021.1.4,60.11517040274438,
R,left,Distractor,0,15,15,15,2083.0556754998406,2085.057267639936,left,1,4,0.9915215251694462,P28D09,2022-11-11_12h00.52.033,t1_Paradigm,2021.1.4,60.11517040274438,
M,right,Target,0,16,16,16,2086.55501528942,2088.5544599812392,left,0,4,0.6466113048045372,P28D09,2022-11-11_12h00.52.033,t1_Paradigm,2021.1.4,60.11517040274438,
S,left,Distractor,0,17,17,17,2090.054510988749,2092.0565740661123,left,1,4,0.5982606759680493,P28D09,2022-11-11_12h00.52.033,t1_Paradigm,2021.1.4,60.11517040274438,
Z,left,Distractor,0,18,18,18,2093.553908522682,2095.55578040208,left,1,4,0.5373224200793629,P28D09,2022-11-11_12h00.52.033,t1_Paradigm,2021.1.4,60.11517040274438,
L,left,Pretarget,0,19,19,19,2097.053307981424,2099.0527523524406,left,1,4,0.56372185444161,P28D09,2022-11-11_12h00.52.033,t1_Paradigm,2021.1.4,60.11517040274438,
M,right,Target,0,20,20,20,2100.5528562922727,2102.554319469983,right,1,4,0.7038401277040975,P28D09,2022-11-11_12h00.52.033,t1_Paradigm,2021.1.4,60.11517040274438,
P,left,Distractor,0,21,21,21,2104.0521643224592,2106.054189865995,left,1,4,0.3808313775098213,P28D09,2022-11-11_12h00.52.033,t1_Paradigm,2021.1.4,60.11517040274438,
F,left,Distractor,0,22,22,22,2107.551472994249,2109.553418016493,left,1,4,0.7861976884287287,P28D09,2022-11-11_12h00.52.033,t1_Paradigm,2021.1.4,60.11517040274438,
L,right,Target,0,23,23,23,2111.051093164736,2113.0530404325955,right,1,4,1.0680440191608795,P28D09,2022-11-11_12h00.52.033,t1_Paradigm,2021.1.4,60.11517040274438,
L,left,Lure,0,24,24,24,2114.5504011949224,2116.5498843829764,left,1,4,1.2775671534727735,P28D09,2022-11-11_12h00.52.033,t1_Paradigm,2021.1.4,60.11517040274438,
V,left,Pretarget,0,25,25,25,2118.0498163729617,2120.051184272491,left,1,4,0.6221809528342419,P28D09,2022-11-11_12h00.52.033,t1_Paradigm,2021.1.4,60.11517040274438,
Z,left,Distractor,0,26,26,26,2121.54917412745,2123.5510100770307,left,1,4,0.7400544978372636,P28D09,2022-11-11_12h00.52.033,t1_Paradigm,2021.1.4,60.11517040274438,
H,left,Distractor,0,27,27,27,2125.04782740085,2127.0503950996854,left,1,4,0.9971050831700268,P28D09,2022-11-11_12h00.52.033,t1_Paradigm,2021.1.4,60.11517040274438,
X,left,Distractor,0,28,28,28,2128.5646473680763,2130.566738355209,left,1,4,0.5138182233476982,P28D09,2022-11-11_12h00.52.033,t1_Paradigm,2021.1.4,60.11517040274438,
V,right,Target,0,29,29,29,2132.064200490954,2134.0659572024533,left,0,4,0.8078399506212008,P28D09,2022-11-11_12h00.52.033,t1_Paradigm,2021.1.4,60.11517040274438,
C,left,Distractor,0,30,30,30,2135.5635592078497,2137.565316560952,left,1,4,0.8725007923821977,P28D09,2022-11-11_12h00.52.033,t1_Paradigm,2021.1.4,60.11517040274438,
S,left,Pretarget,0,31,31,31,2139.06292369918,2141.0651394782735,left,1,4,0.9816719427890348,P28D09,2022-11-11_12h00.52.033,t1_Paradigm,2021.1.4,60.11517040274438,
D,left,Distractor,0,32,32,32,2142.561696310905,2144.5642431576152,left,1,4,0.8834471966401907,P28D09,2022-11-11_12h00.52.033,t1_Paradigm,2021.1.4,60.11517040274438,
V,left,Distractor,0,33,33,33,2146.0618384261716,2148.0640272578994,right,0,4,0.5235507130146289,P28D09,2022-11-11_12h00.52.033,t1_Paradigm,2021.1.4,60.11517040274438,
R,left,Distractor,0,34,34,34,2149.5610049826964,2151.5620726115967,left,1,4,1.2186666315938055,P28D09,2022-11-11_12h00.52.033,t1_Paradigm,2021.1.4,60.11517040274438,
S,right,Target,0,35,35,35,2153.0604326720104,2155.0616972733105,left,0,4,0.46255567517800955,P28D09,2022-11-11_12h00.52.033,t1_Paradigm,2021.1.4,60.11517040274438,
Y,left,Distractor,0,36,36,36,2156.560010496639,2158.5613113485606,left,1,4,1.0456504387930181,P28D09,2022-11-11_12h00.52.033,t1_Paradigm,2021.1.4,60.11517040274438,
N,left,Pretarget,0,37,37,37,2160.0593518902288,2162.0607855541593,left,1,4,0.6817121713538654,P28D09,2022-11-11_12h00.52.033,t1_Paradigm,2021.1.4,60.11517040274438,
Z,left,Pretarget,0,38,38,38,2163.5587516697733,2165.560550406327,right,0,4,1.1221033187612193,P28D09,2022-11-11_12h00.52.033,t1_Paradigm,2021.1.4,60.11517040274438,
P,left,Pretarget,0,39,39,39,2167.058250897925,2169.0604198399315,right,0,4,1.149683304311111,P28D09,2022-11-11_12h00.52.033,t1_Paradigm,2021.1.4,60.11517040274438,
M,left,Distractor,0,40,40,40,2170.5576647927546,2172.559700281151,left,1,4,0.8185569814831979,P28D09,2022-11-11_12h00.52.033,t1_Paradigm,2021.1.4,60.11517040274438,
N,right,Target,0,41,41,41,2174.0569939958705,2176.058595118421,left,0,4,0.5575553992894129,P28D09,2022-11-11_12h00.52.033,t1_Paradigm,2021.1.4,60.11517040274438,
Z,right,Target,0,42,42,42,2177.556517925771,2179.558448511928,left,0,4,1.1284163804048148,P28D09,2022-11-11_12h00.52.033,t1_Paradigm,2021.1.4,60.11517040274438,
P,right,Target,0,43,43,43,2181.05600047222,2183.0570722715465,left,0,4,0.6183284421731514,P28D09,2022-11-11_12h00.52.033,t1_Paradigm,2021.1.4,60.11517040274438,
X,left,Pretarget,0,44,44,44,2184.5554211038916,2186.556982767802,left,1,4,0.7198324258915818,P28D09,2022-11-11_12h00.52.033,t1_Paradigm,2021.1.4,60.11517040274438,
Z,left,Lure,0,45,45,45,2188.0547057155354,2190.0564434997186,left,1,4,0.45402426802684204,P28D09,2022-11-11_12h00.52.033,t1_Paradigm,2021.1.4,60.11517040274438,
R,left,Pretarget,0,46,46,46,2191.554039409878,2193.555798687791,left,1,4,0.923743130026196,P28D09,2022-11-11_12h00.52.033,t1_Paradigm,2021.1.4,60.11517040274438,
K,left,Distractor,0,47,47,47,2195.053318567888,2197.0551580462898,left,1,4,0.6821975447110162,P28D09,2022-11-11_12h00.52.033,t1_Paradigm,2021.1.4,60.11517040274438,
X,right,Target,0,48,48,48,2198.5527725629627,2200.5542838609663,left,0,4,0.6944143247055763,P28D09,2022-11-11_12h00.52.033,t1_Paradigm,2021.1.4,60.11517040274438,
B,left,Distractor,0,49,49,49,2202.0524257760526,2204.054114156733,left,1,4,1.1633735276791413,P28D09,2022-11-11_12h00.52.033,t1_Paradigm,2021.1.4,60.11517040274438,
R,right,Target,0,50,50,50,2205.5517151997237,2207.552999690747,right,1,4,1.3511960138439463,P28D09,2022-11-11_12h00.52.033,t1_Paradigm,2021.1.4,60.11517040274438,
Y,left,Pretarget,0,51,51,51,2209.05128757072,2211.052943550404,left,1,4,0.6767942774058611,P28D09,2022-11-11_12h00.52.033,t1_Paradigm,2021.1.4,60.11517040274438,
W,left,Pretarget,0,52,52,52,2212.55063570115,2214.552526507866,left,1,4,0.8233812012622366,P28D09,2022-11-11_12h00.52.033,t1_Paradigm,2021.1.4,60.11517040274438,
Z,left,Distractor,0,53,53,53,2216.0501265884513,2218.051329595776,left,1,4,0.8970283473445306,P28D09,2022-11-11_12h00.52.033,t1_Paradigm,2021.1.4,60.11517040274438,
Q,left,Distractor,0,54,54,54,2219.549550748944,2221.55115122989,left,1,4,0.7327713310842228,P28D09,2022-11-11_12h00.52.033,t1_Paradigm,2021.1.4,60.11517040274438,
Y,right,Target,0,55,55,55,2223.0487006237663,2225.0507001823435,right,1,4,0.7934083539385028,P28D09,2022-11-11_12h00.52.033,t1_Paradigm,2021.1.4,60.11517040274438,
W,right,Target,0,56,56,56,2226.5648372828337,2228.564799107401,left,0,4,1.035226941716246,P28D09,2022-11-11_12h00.52.033,t1_Paradigm,2021.1.4,60.11517040274438,
H,left,Pretarget,0,57,57,57,2230.064291598709,2232.06619652071,None,0,4,,P28D09,2022-11-11_12h00.52.033,t1_Paradigm,2021.1.4,60.11517040274438,
M,left,Distractor,0,58,58,58,2233.563065493644,2235.5658000094945,left,1,4,1.1015434423588886,P28D09,2022-11-11_12h00.52.033,t1_Paradigm,2021.1.4,60.11517040274438,
R,left,Pretarget,0,59,59,59,2237.0631014234614,2239.0654862651854,left,1,4,1.4480178930480179,P28D09,2022-11-11_12h00.52.033,t1_Paradigm,2021.1.4,60.11517040274438,
J,left,Distractor,0,60,60,60,2240.5626000100083,2242.5642723505925,left,1,4,0.7786873938948702,P28D09,2022-11-11_12h00.52.033,t1_Paradigm,2021.1.4,60.11517040274438,
H,right,Target,0,61,61,61,2244.061839388577,2246.0634677792923,left,0,4,1.0562699458605493,P28D09,2022-11-11_12h00.52.033,t1_Paradigm,2021.1.4,60.11517040274438,
Z,left,Distractor,0,62,62,62,2247.561405985137,2249.562883919737,left,1,4,0.8150945659999707,P28D09,2022-11-11_12h00.52.033,t1_Paradigm,2021.1.4,60.11517040274438,
R,right,Target,0,63,63,63,2251.0608654338457,2253.0632384058963,right,1,4,1.3367118056394247,P28D09,2022-11-11_12h00.52.033,t1_Paradigm,2021.1.4,60.11517040274438,
J,left,Pretarget,0,0,0,0,2259.459071124359,2261.461010372169,left,1,4,1.097546891622187,P28D09,2022-11-11_12h00.52.033,t1_Paradigm,2021.1.4,60.11517040274438,
G,left,Pretarget,0,1,1,1,2262.9590733699724,2264.9599116254767,left,1,4,0.4440001693837985,P28D09,2022-11-11_12h00.52.033,t1_Paradigm,2021.1.4,60.11517040274438,
Z,left,Distractor,0,2,2,2,2266.458231585647,2268.4599992044105,left,1,4,0.48755192179669393,P28D09,2022-11-11_12h00.52.033,t1_Paradigm,2021.1.4,60.11517040274438,
F,left,Distractor,0,3,3,3,2269.9576085882536,2271.959938893643,left,1,4,0.5279521158172429,P28D09,2022-11-11_12h00.52.033,t1_Paradigm,2021.1.4,60.11517040274438,
J,right,Target,0,4,4,4,2273.45684764602,2275.4584362572923,right,1,4,0.7041156965824484,P28D09,2022-11-11_12h00.52.033,t1_Paradigm,2021.1.4,60.11517040274438,
G,right,Target,0,5,5,5,2276.956471024526,2278.9579864929538,right,1,4,0.8424422909374698,P28D09,2022-11-11_12h00.52.033,t1_Paradigm,2021.1.4,60.11517040274438,
H,left,Distractor,0,6,6,6,2280.455947475738,2282.457257951718,left,1,4,0.7484835691648186,P28D09,2022-11-11_12h00.52.033,t1_Paradigm,2021.1.4,60.11517040274438,
P,left,Distractor,0,7,7,7,2283.9552856613072,2285.956917901646,left,1,4,0.5480920624613645,P28D09,2022-11-11_12h00.52.033,t1_Paradigm,2021.1.4,60.11517040274438,
G,left,Lure,0,8,8,8,2287.4547698117667,2289.4565794555865,left,1,4,1.135402805348349,P28D09,2022-11-11_12h00.52.033,t1_Paradigm,2021.1.4,60.11517040274438,
S,left,Distractor,0,9,9,9,2290.9539248194205,2292.95616626267,left,1,4,0.7146267725911457,P28D09,2022-11-11_12h00.52.033,t1_Paradigm,2021.1.4,60.11517040274438,
R,left,Pretarget,0,10,10,10,2294.4532504937133,2296.452801050177,left,1,4,1.0356718940274732,P28D09,2022-11-11_12h00.52.033,t1_Paradigm,2021.1.4,60.11517040274438,
T,left,Pretarget,0,11,11,11,2297.952953431105,2299.9518100929427,left,1,4,1.097116054597791,P28D09,2022-11-11_12h00.52.033,t1_Paradigm,2021.1.4,60.11517040274438,
X,left,Distractor,0,12,12,12,2301.4523330001275,2303.4542642278875,left,1,4,0.5911109628286795,P28D09,2022-11-11_12h00.52.033,t1_Paradigm,2021.1.4,60.11517040274438,
F,left,Pretarget,0,13,13,13,2304.9518027144977,2306.953472488666,left,1,4,0.5218251193073229,P28D09,2022-11-11_12h00.52.033,t1_Paradigm,2021.1.4,60.11517040274438,
R,right,Target,0,14,14,14,2308.451227195793,2310.4527628747446,right,1,4,0.848066269983974,P28D09,2022-11-11_12h00.52.033,t1_Paradigm,2021.1.4,60.11517040274438,
T,right,Target,0,15,15,15,2311.9506526394935,2313.952487947471,right,1,4,0.6558722155987198,P28D09,2022-11-11_12h00.52.033,t1_Paradigm,2021.1.4,60.11517040274438,
C,left,Distractor,0,16,16,16,2315.450040228564,2317.452115817204,left,1,4,0.5693641191992356,P28D09,2022-11-11_12h00.52.033,t1_Paradigm,2021.1.4,60.11517040274438,
F,right,Target,0,17,17,17,2318.9494361584866,2320.951169130639,right,1,4,0.5654227463983261,P28D09,2022-11-11_12h00.52.033,t1_Paradigm,2021.1.4,60.11517040274438,
M,left,Distractor,0,18,18,18,2322.448882454314,2324.4505021833784,left,1,4,0.8715130431664875,P28D09,2022-11-11_12h00.52.033,t1_Paradigm,2021.1.4,60.11517040274438,
N,left,Distractor,0,19,19,19,2325.9482607401287,2327.9500097523787,left,1,4,0.5320025612836616,P28D09,2022-11-11_12h00.52.033,t1_Paradigm,2021.1.4,60.11517040274438,
R,left,Lure,0,20,20,20,2329.4476261938644,2331.4494015118753,left,1,4,0.7811023910016957,P28D09,2022-11-11_12h00.52.033,t1_Paradigm,2021.1.4,60.11517040274438,
F,right,Target,0,21,21,21,2332.9472463643515,2334.948067938155,right,1,4,0.879309813844884,P28D09,2022-11-11_12h00.52.033,t1_Paradigm,2021.1.4,60.11517040274438,
P,left,Distractor,0,22,22,22,2336.446645502293,2338.4479521286494,left,1,4,0.49872609544217994,P28D09,2022-11-11_12h00.52.033,t1_Paradigm,2021.1.4,60.11517040274438,
L,left,Pretarget,0,23,23,23,2339.9458746151986,2341.947971376766,right,0,4,0.5633955988541857,P28D09,2022-11-11_12h00.52.033,t1_Paradigm,2021.1.4,60.11517040274438,
T,left,Distractor,0,24,24,24,2343.445268941109,2345.4474022741006,left,1,4,0.7877516530934372,P28D09,2022-11-11_12h00.52.033,t1_Paradigm,2021.1.4,60.11517040274438,
F,left,Distractor,0,25,25,25,2346.94467289108,2348.9440957683646,right,0,4,0.3983231040292594,P28D09,2022-11-11_12h00.52.033,t1_Paradigm,2021.1.4,60.11517040274438,
V,left,Distractor,0,26,26,26,2350.444076520248,2352.446267597591,left,1,4,0.6399925188979978,P28D09,2022-11-11_12h00.52.033,t1_Paradigm,2021.1.4,60.11517040274438,
L,right,Target,0,27,27,27,2353.960164096615,2355.9621087980568,right,1,4,0.6398459124065994,P28D09,2022-11-11_12h00.52.033,t1_Paradigm,2021.1.4,60.11517040274438,
S,left,Pretarget,0,28,28,28,2357.459656908727,2359.461346572615,left,1,4,0.6518301109845197,P28D09,2022-11-11_12h00.52.033,t1_Paradigm,2021.1.4,60.11517040274438,
W,left,Distractor,0,29,29,29,2360.959057009074,2362.9604521767696,left,1,4,1.1008373572585697,P28D09,2022-11-11_12h00.52.033,t1_Paradigm,2021.1.4,60.11517040274438,
Q,left,Distractor,0,30,30,30,2364.4584599966374,2366.459636698203,left,1,4,0.5248528481442918,P28D09,2022-11-11_12h00.52.033,t1_Paradigm,2021.1.4,60.11517040274438,
L,right,Target,0,31,31,31,2367.9578360368387,2369.959600768384,right,1,4,0.8345752646291658,P28D09,2022-11-11_12h00.52.033,t1_Paradigm,2021.1.4,60.11517040274438,
S,right,Target,0,32,32,32,2371.457070282574,2373.459549440072,right,1,4,0.4870405634810595,P28D09,2022-11-11_12h00.52.033,t1_Paradigm,2021.1.4,60.11517040274438,
Z,left,Pretarget,0,33,33,33,2374.9566946234872,2376.9589626932984,left,1,4,0.5479005436955049,P28D09,2022-11-11_12h00.52.033,t1_Paradigm,2021.1.4,60.11517040274438,
F,left,Distractor,0,34,34,34,2378.4562118165477,2380.4579749440845,left,1,4,0.6339912767543865,P28D09,2022-11-11_12h00.52.033,t1_Paradigm,2021.1.4,60.11517040274438,
V,left,Distractor,0,35,35,35,2381.95553588683,2383.9570497512495,None,0,4,,P28D09,2022-11-11_12h00.52.033,t1_Paradigm,2021.1.4,60.11517040274438,
M,left,Distractor,0,36,36,36,2385.4549404784057,2387.4563183227956,left,1,4,1.1358560985099757,P28D09,2022-11-11_12h00.52.033,t1_Paradigm,2021.1.4,60.11517040274438,
Z,right,Target,0,37,37,37,2388.9543020825176,2390.9558708040704,None,0,4,,P28D09,2022-11-11_12h00.52.033,t1_Paradigm,2021.1.4,60.11517040274438,
H,left,Pretarget,0,38,38,38,2392.45369640843,2394.4555179219215,left,1,4,0.6001229313096701,P28D09,2022-11-11_12h00.52.033,t1_Paradigm,2021.1.4,60.11517040274438,
L,left,Distractor,0,39,39,39,2395.9531346842095,2397.955097992165,None,0,4,,P28D09,2022-11-11_12h00.52.033,t1_Paradigm,2021.1.4,60.11517040274438,
G,left,Distractor,0,40,40,40,2399.4525440878124,2401.4545057917576,left,1,4,0.5097911964239756,P28D09,2022-11-11_12h00.52.033,t1_Paradigm,2021.1.4,60.11517040274438,
K,left,Distractor,0,41,41,41,2402.951207626874,2404.9536749146982,right,0,4,1.2570922895902186,P28D09,2022-11-11_12h00.52.033,t1_Paradigm,2021.1.4,60.11517040274438,
H,right,Target,0,42,42,42,2406.45144662433,2408.4532723082475,right,1,4,0.5499594506327412,P28D09,2022-11-11_12h00.52.033,t1_Paradigm,2021.1.4,60.11517040274438,
B,left,Distractor,0,43,43,43,2409.950835817409,2411.952369892352,left,1,4,0.8320319467420632,P28D09,2022-11-11_12h00.52.033,t1_Paradigm,2021.1.4,60.11517040274438,
Z,left,Distractor,0,44,44,44,2413.4503125894234,2415.451941942546,left,1,4,0.7949462785036303,P28D09,2022-11-11_12h00.52.033,t1_Paradigm,2021.1.4,60.11517040274438,
T,left,Pretarget,0,45,45,45,2416.9496283188555,2418.951331135625,left,1,4,1.1131715507690387,P28D09,2022-11-11_12h00.52.033,t1_Paradigm,2021.1.4,60.11517040274438,
H,right,Target,0,46,46,46,2420.449125942997,2422.4510918173683,right,1,4,0.6469083674128342,P28D09,2022-11-11_12h00.52.033,t1_Paradigm,2021.1.4,60.11517040274438,
F,left,Distractor,0,47,47,47,2423.948492359138,2425.9504158876525,left,1,4,0.5321273532426858,P28D09,2022-11-11_12h00.52.033,t1_Paradigm,2021.1.4,60.11517040274438,
R,left,Distractor,0,48,48,48,2427.447333622483,2429.4498515970163,left,1,4,0.6745287740104686,P28D09,2022-11-11_12h00.52.033,t1_Paradigm,2021.1.4,60.11517040274438,
T,right,Target,0,49,49,49,2430.9472309658568,2432.9492253916023,right,1,4,0.613209405400994,P28D09,2022-11-11_12h00.52.033,t1_Paradigm,2021.1.4,60.11517040274438,
H,right,Target,0,50,50,50,2434.4466458230936,2436.4481702739768,right,1,4,0.768573149904114,P28D09,2022-11-11_12h00.52.033,t1_Paradigm,2021.1.4,60.11517040274438,
Y,left,Pretarget,0,51,51,51,2437.9462287805536,2439.9474122189613,left,1,4,0.4868006036213046,P28D09,2022-11-11_12h00.52.033,t1_Paradigm,2021.1.4,60.11517040274438,
H,left,Distractor,0,52,52,52,2441.445728971111,2443.4477490610125,left,1,4,0.7389980970019678,P28D09,2022-11-11_12h00.52.033,t1_Paradigm,2021.1.4,60.11517040274438,
S,left,Distractor,0,53,53,53,2444.9448833371616,2446.9469797779284,left,1,4,0.6571316840690997,P28D09,2022-11-11_12h00.52.033,t1_Paradigm,2021.1.4,60.11517040274438,
Q,left,Distractor,0,54,54,54,2448.4443851317274,2450.44611297105,left,1,4,0.6125042827061407,P28D09,2022-11-11_12h00.52.033,t1_Paradigm,2021.1.4,60.11517040274438,
Y,right,Target,0,55,55,55,2451.9605298108427,2453.962254121342,right,1,4,0.7420739461340418,P28D09,2022-11-11_12h00.52.033,t1_Paradigm,2021.1.4,60.11517040274438,
R,left,Distractor,0,56,56,56,2455.459766622994,2457.461484838258,left,1,4,0.7255872921359696,P28D09,2022-11-11_12h00.52.033,t1_Paradigm,2021.1.4,60.11517040274438,
H,left,Pretarget,0,57,57,57,2458.9593037057757,2460.9608595952495,left,1,4,1.3625437413465988,P28D09,2022-11-11_12h00.52.033,t1_Paradigm,2021.1.4,60.11517040274438,
J,left,Distractor,0,58,58,58,2462.458622322426,2464.459883394905,left,1,4,1.3173257435882988,P28D09,2022-11-11_12h00.52.033,t1_Paradigm,2021.1.4,60.11517040274438,
V,left,Distractor,0,59,59,59,2465.95802851801,2467.9600316054084,left,1,4,0.8914239372152224,P28D09,2022-11-11_12h00.52.033,t1_Paradigm,2021.1.4,60.11517040274438,
Y,left,Lure,0,60,60,60,2469.457466472987,2471.4591076957813,left,1,4,0.9036602861287975,P28D09,2022-11-11_12h00.52.033,t1_Paradigm,2021.1.4,60.11517040274438,
H,right,Target,0,61,61,61,2472.9568649693238,2474.958446202153,left,0,4,0.7685513353699207,P28D09,2022-11-11_12h00.52.033,t1_Paradigm,2021.1.4,60.11517040274438,
L,left,Distractor,0,62,62,62,2476.4565842676157,2478.458081771135,left,1,4,1.4092014982725232,P28D09,2022-11-11_12h00.52.033,t1_Paradigm,2021.1.4,60.11517040274438,
P,left,Distractor,0,63,63,63,2479.9554531199274,2481.9578556057577,left,1,4,0.5103352765381715,P28D09,2022-11-11_12h00.52.033,t1_Paradigm,2021.1.4,60.11517040274438,
