Letter,CorrAnswer,Stimulus,finaln_nback_run.thisRepN,finaln_nback_run.thisTrialN,finaln_nback_run.thisN,finaln_nback_run.thisIndex,finaln_fixcross.started,finaln_nback_trial.started,finaln_trial_resp.keys,finaln_trial_resp.corr,finaln_trial_resp.rt,finaln_level,finaln_money,Participant,date,expName,psychopyVersion,frameRate,
F,left,Distractor,0,0,0,0,2733.616658988806,2735.6151970943038,left,1,1.0578498954819224,3,3.0,P28D09,2022-11-11_12h00.52.033,t1_Paradigm,2021.1.4,60.11517040274438,
P,left,Pretarget,0,1,1,1,2737.112539250119,2739.114449625752,left,1,0.35551978257353767,3,3.0,P28D09,2022-11-11_12h00.52.033,t1_Paradigm,2021.1.4,60.11517040274438,
B,left,Distractor,0,2,2,2,2740.6119983780254,2742.613946929091,left,1,0.4001837553587393,3,3.0,P28D09,2022-11-11_12h00.52.033,t1_Paradigm,2021.1.4,60.11517040274438,
K,left,Pretarget,0,3,3,3,2744.1115187791047,2746.112317896771,left,1,0.4588295604880841,3,3.0,P28D09,2022-11-11_12h00.52.033,t1_Paradigm,2021.1.4,60.11517040274438,
H,left,Distractor,0,4,4,4,2747.6109349195494,2749.6125767839467,left,1,0.6862268172462791,3,3.0,P28D09,2022-11-11_12h00.52.033,t1_Paradigm,2021.1.4,60.11517040274438,
P,right,Target,0,5,5,5,2751.1103308494703,2753.1119011750334,right,1,0.7560204902638361,3,3.0,P28D09,2022-11-11_12h00.52.033,t1_Paradigm,2021.1.4,60.11517040274438,
L,left,Distractor,0,6,6,6,2754.6097181177383,2756.6114571851294,left,1,0.5106750058075704,3,3.0,P28D09,2022-11-11_12h00.52.033,t1_Paradigm,2021.1.4,60.11517040274438,
K,right,Target,0,7,7,7,2758.109396032577,2760.1112419270185,right,1,0.6858152283402887,3,3.0,P28D09,2022-11-11_12h00.52.033,t1_Paradigm,2021.1.4,60.11517040274438,
Z,left,Pretarget,0,8,8,8,2761.6084070001552,2763.6101502379706,left,1,0.6617502697954478,3,3.0,P28D09,2022-11-11_12h00.52.033,t1_Paradigm,2021.1.4,60.11517040274438,
S,left,Pretarget,0,9,9,9,2765.10817121072,2767.109662619002,left,1,0.4650928978298907,3,3.0,P28D09,2022-11-11_12h00.52.033,t1_Paradigm,2021.1.4,60.11517040274438,
N,left,Distractor,0,10,10,10,2768.607410268486,2770.609134899788,left,1,1.1752406335453998,3,3.0,P28D09,2022-11-11_12h00.52.033,t1_Paradigm,2021.1.4,60.11517040274438,
M,left,Distractor,0,11,11,11,2772.106619812471,2774.1085811956154,left,1,0.5750211408485484,3,3.0,P28D09,2022-11-11_12h00.52.033,t1_Paradigm,2021.1.4,60.11517040274438,
Z,right,Target,0,12,12,12,2775.606205015546,2777.60753570205,right,1,0.5750477674118883,3,3.0,P28D09,2022-11-11_12h00.52.033,t1_Paradigm,2021.1.4,60.11517040274438,
S,right,Target,0,13,13,13,2779.105676013124,2781.106738829997,right,1,0.49811593012600497,3,3.0,P28D09,2022-11-11_12h00.52.033,t1_Paradigm,2021.1.4,60.11517040274438,
Q,left,Distractor,0,14,14,14,2782.6050960031926,2784.6058421885364,left,1,0.42874571568972897,3,3.0,P28D09,2022-11-11_12h00.52.033,t1_Paradigm,2021.1.4,60.11517040274438,
V,left,Lure,0,15,15,15,2786.10438959729,2788.106147591997,left,1,0.6115114006588556,3,3.0,P28D09,2022-11-11_12h00.52.033,t1_Paradigm,2021.1.4,60.11517040274438,
Z,right,Target,0,16,16,16,2789.6040498680222,2791.6056343088703,right,1,0.982686318566266,3,3.0,P28D09,2022-11-11_12h00.52.033,t1_Paradigm,2021.1.4,60.11517040274438,
X,left,Distractor,0,17,17,17,2793.1032016676572,2795.1045958729474,left,1,0.38234877075046825,3,3.0,P28D09,2022-11-11_12h00.52.033,t1_Paradigm,2021.1.4,60.11517040274438,
V,left,Pretarget,0,18,18,18,2796.602627111358,2798.604289827884,left,1,0.5654160095582483,3,3.0,P28D09,2022-11-11_12h00.52.033,t1_Paradigm,2021.1.4,60.11517040274438,
E,left,Distractor,0,19,19,19,2800.102140775597,2802.1139270393696,left,1,1.4412544254628301,3,3.0,P28D09,2022-11-11_12h00.52.033,t1_Paradigm,2021.1.4,60.11517040274438,
R,left,Distractor,0,20,20,20,2803.60139106143,2805.6032234821896,left,1,1.336877981053476,3,3.0,P28D09,2022-11-11_12h00.52.033,t1_Paradigm,2021.1.4,60.11517040274438,
G,left,Distractor,0,21,21,21,2807.100670219442,2809.10028429469,left,1,0.4366050427506707,3,3.0,P28D09,2022-11-11_12h00.52.033,t1_Paradigm,2021.1.4,60.11517040274438,
V,right,Target,0,22,22,22,2810.600368665605,2812.602152003664,right,1,0.44249785383362905,3,3.0,P28D09,2022-11-11_12h00.52.033,t1_Paradigm,2021.1.4,60.11517040274438,
T,left,Pretarget,0,23,23,23,2814.0995108411817,2816.099326059256,left,1,0.8649503976030246,3,3.0,P28D09,2022-11-11_12h00.52.033,t1_Paradigm,2021.1.4,60.11517040274438,
B,left,Distractor,0,24,24,24,2817.599189718426,2819.600802710648,left,1,0.6380032259839936,3,3.0,P28D09,2022-11-11_12h00.52.033,t1_Paradigm,2021.1.4,60.11517040274438,
S,left,Pretarget,0,25,25,25,2821.09851892154,2823.1001168360717,left,1,0.9929279209336528,3,3.0,P28D09,2022-11-11_12h00.52.033,t1_Paradigm,2021.1.4,60.11517040274438,
G,left,Lure,0,26,26,26,2824.5981833626965,2826.5987778087174,None,0,,3,3.0,P28D09,2022-11-11_12h00.52.033,t1_Paradigm,2021.1.4,60.11517040274438,
T,right,Target,0,27,27,27,2828.0978494078636,2830.09923302669,right,1,0.5512064078266121,3,3.0,P28D09,2022-11-11_12h00.52.033,t1_Paradigm,2021.1.4,60.11517040274438,
H,left,Distractor,0,28,28,28,2831.6132989091448,2833.615052733424,left,1,0.4776189309068286,3,3.0,P28D09,2022-11-11_12h00.52.033,t1_Paradigm,2021.1.4,60.11517040274438,
S,right,Target,0,29,29,29,2835.1126717413254,2837.114582437761,right,1,0.4570622625269607,3,3.0,P28D09,2022-11-11_12h00.52.033,t1_Paradigm,2021.1.4,60.11517040274438,
D,left,Distractor,0,30,30,30,2838.6122540571823,2840.6144614954237,left,1,1.2404317609325517,3,3.0,P28D09,2022-11-11_12h00.52.033,t1_Paradigm,2021.1.4,60.11517040274438,
Z,left,Distractor,0,31,31,31,2842.111588393128,2844.113399640958,left,1,0.6976826550089754,3,3.0,P28D09,2022-11-11_12h00.52.033,t1_Paradigm,2021.1.4,60.11517040274438,
J,left,Pretarget,0,32,32,32,2845.611287480896,2847.6129784279938,left,1,0.5543258860234346,3,3.0,P28D09,2022-11-11_12h00.52.033,t1_Paradigm,2021.1.4,60.11517040274438,
C,left,Pretarget,0,33,33,33,2849.1103176965908,2851.1121725734856,left,1,0.8932768892991589,3,3.0,P28D09,2022-11-11_12h00.52.033,t1_Paradigm,2021.1.4,60.11517040274438,
H,left,Distractor,0,34,34,34,2852.6098884635767,2854.6121568541903,left,1,0.7949231807633623,3,3.0,P28D09,2022-11-11_12h00.52.033,t1_Paradigm,2021.1.4,60.11517040274438,
B,left,Pretarget,0,35,35,35,2856.1092385188194,2858.111162047332,None,0,,3,3.0,P28D09,2022-11-11_12h00.52.033,t1_Paradigm,2021.1.4,60.11517040274438,
J,right,Target,0,36,36,36,2859.608725877296,2861.6107905586696,right,1,0.4561527889873105,3,3.0,P28D09,2022-11-11_12h00.52.033,t1_Paradigm,2021.1.4,60.11517040274438,
C,right,Target,0,37,37,37,2863.1081487545825,2865.109726779391,left,0,0.5628332330306876,3,3.0,P28D09,2022-11-11_12h00.52.033,t1_Paradigm,2021.1.4,60.11517040274438,
H,left,Distractor,0,38,38,38,2866.6073964740017,2868.6089430602196,left,1,0.9422649516163801,3,3.0,P28D09,2022-11-11_12h00.52.033,t1_Paradigm,2021.1.4,60.11517040274438,
B,right,Target,0,39,39,39,2870.1068376369976,2872.108548473817,right,1,0.7826833030285343,3,3.0,P28D09,2022-11-11_12h00.52.033,t1_Paradigm,2021.1.4,60.11517040274438,
F,left,Pretarget,0,40,40,40,2873.6063846646402,2875.607798759652,left,1,0.8481423000466748,3,3.0,P28D09,2022-11-11_12h00.52.033,t1_Paradigm,2021.1.4,60.11517040274438,
M,left,Distractor,0,41,41,41,2877.105560524421,2879.107994448842,left,1,0.8510288760262483,3,3.0,P28D09,2022-11-11_12h00.52.033,t1_Paradigm,2021.1.4,60.11517040274438,
W,left,Pretarget,0,42,42,42,2880.6053369254596,2882.606683972862,left,1,0.5745476371648692,3,3.0,P28D09,2022-11-11_12h00.52.033,t1_Paradigm,2021.1.4,60.11517040274438,
Z,left,Distractor,0,43,43,43,2884.1046183290828,2886.1063827398275,left,1,0.6232530729630525,3,3.0,P28D09,2022-11-11_12h00.52.033,t1_Paradigm,2021.1.4,60.11517040274438,
F,right,Target,0,44,44,44,2887.604037677548,2889.606205657149,right,1,0.8350603171838884,3,3.0,P28D09,2022-11-11_12h00.52.033,t1_Paradigm,2021.1.4,60.11517040274438,
B,left,Lure,0,45,45,45,2891.1034467603486,2893.1052471009125,left,1,0.6107889546601655,3,3.0,P28D09,2022-11-11_12h00.52.033,t1_Paradigm,2021.1.4,60.11517040274438,
W,right,Target,0,46,46,46,2894.602858730369,2896.6043389105826,left,0,0.7005685893836926,3,3.0,P28D09,2022-11-11_12h00.52.033,t1_Paradigm,2021.1.4,60.11517040274438,
X,left,Distractor,0,47,47,47,2898.1014298784676,2900.1039083943606,left,1,1.3941125783876487,3,3.0,P28D09,2022-11-11_12h00.52.033,t1_Paradigm,2021.1.4,60.11517040274438,
T,left,Distractor,0,48,48,48,2901.6016172268073,2903.6034798029496,left,1,1.0792650298935769,3,3.0,P28D09,2022-11-11_12h00.52.033,t1_Paradigm,2021.1.4,60.11517040274438,
L,left,Pretarget,0,49,49,49,2905.101092715614,2907.102741316853,left,1,0.6423828142542334,3,3.0,P28D09,2022-11-11_12h00.52.033,t1_Paradigm,2021.1.4,60.11517040274438,
J,left,Distractor,0,50,50,50,2908.600308034035,2910.6022376577866,left,1,1.348614199721851,3,3.0,P28D09,2022-11-11_12h00.52.033,t1_Paradigm,2021.1.4,60.11517040274438,
Z,left,Distractor,0,51,51,51,2912.0998897082873,2914.1011806153483,left,1,0.6792942870306433,3,3.0,P28D09,2022-11-11_12h00.52.033,t1_Paradigm,2021.1.4,60.11517040274438,
P,left,Pretarget,0,52,52,52,2915.5992872422185,2917.6003070716297,left,1,1.0344088967376592,3,3.0,P28D09,2022-11-11_12h00.52.033,t1_Paradigm,2021.1.4,60.11517040274438,
L,right,Target,0,53,53,53,2919.0988297786344,2921.1108005035303,right,1,1.325463526742169,3,3.0,P28D09,2022-11-11_12h00.52.033,t1_Paradigm,2021.1.4,60.11517040274438,
V,left,Distractor,0,54,54,54,2922.5980957837646,2924.599306490337,left,1,0.6216201910174277,3,3.0,P28D09,2022-11-11_12h00.52.033,t1_Paradigm,2021.1.4,60.11517040274438,
F,left,Distractor,0,55,55,55,2926.0975975783304,2928.0993036031186,left,1,1.217224626811003,3,3.0,P28D09,2022-11-11_12h00.52.033,t1_Paradigm,2021.1.4,60.11517040274438,
P,right,Target,0,56,56,56,2929.613456422904,2931.6151752797714,right,1,0.7230584103363071,3,3.0,P28D09,2022-11-11_12h00.52.033,t1_Paradigm,2021.1.4,60.11517040274438,
T,left,Pretarget,0,57,57,57,2933.1132017061527,2935.1141185581355,left,1,1.2172640854514611,3,3.0,P28D09,2022-11-11_12h00.52.033,t1_Paradigm,2021.1.4,60.11517040274438,
D,left,Distractor,0,58,58,58,2936.612492092231,2938.613714668477,left,1,0.89850211151861,3,3.0,P28D09,2022-11-11_12h00.52.033,t1_Paradigm,2021.1.4,60.11517040274438,
V,left,Distractor,0,59,59,59,2940.111837656247,2942.114108292474,left,1,0.49315825673693325,3,3.0,P28D09,2022-11-11_12h00.52.033,t1_Paradigm,2021.1.4,60.11517040274438,
Z,left,Distractor,0,60,60,60,2943.6113163530727,2945.613490748713,left,1,0.5052345254771353,3,3.0,P28D09,2022-11-11_12h00.52.033,t1_Paradigm,2021.1.4,60.11517040274438,
T,right,Target,0,61,61,61,2947.1106516514237,2949.111829315395,right,1,0.5920759351047309,3,3.0,P28D09,2022-11-11_12h00.52.033,t1_Paradigm,2021.1.4,60.11517040274438,
B,left,Distractor,0,62,62,62,2950.6101467091494,2952.6117738166568,left,1,0.5914904715391458,3,3.0,P28D09,2022-11-11_12h00.52.033,t1_Paradigm,2021.1.4,60.11517040274438,
J,left,Distractor,0,63,63,63,2954.1095974962054,2956.111295500944,left,1,0.8155019844816707,3,3.0,P28D09,2022-11-11_12h00.52.033,t1_Paradigm,2021.1.4,60.11517040274438,
