Currentstep,EDround.thisRepN,EDround.thisTrialN,EDround.thisN,EDround.thisIndex,question.started,EDclick.clicked_name,EDleftbutton.wasclicked,EDrightbutton.wasclicked,EDleftbutton.value,EDrightbutton.value,EDleftbutton.nback,EDrightbutton.nback,Participant,date,expName,psychopyVersion,frameRate,
,,,,,,,,,,,,,P28D09,2022-11-11_12h00.52.033,t1_Paradigm,2021.1.4,60.11517040274438,
0,0,0,0,0,2620.7979374359193,EDrightbutton,0,1,1.00,2.00,3,4,P28D09,2022-11-11_12h00.52.033,t1_Paradigm,2021.1.4,60.11517040274438,
1,0,1,1,1,2624.8272997971244,EDrightbutton,0,1,1.50,2.00,3,4,P28D09,2022-11-11_12h00.52.033,t1_Paradigm,2021.1.4,60.11517040274438,
2,0,2,2,2,2628.7761970083293,EDleftbutton,1,0,1.75,2.00,3,4,P28D09,2022-11-11_12h00.52.033,t1_Paradigm,2021.1.4,60.11517040274438,
3,0,3,3,3,2630.6638223296113,EDleftbutton,1,0,1.62,2.00,3,4,P28D09,2022-11-11_12h00.52.033,t1_Paradigm,2021.1.4,60.11517040274438,
4,0,4,4,4,2633.587856747813,EDrightbutton,0,1,1.56,2.00,3,4,P28D09,2022-11-11_12h00.52.033,t1_Paradigm,2021.1.4,60.11517040274438,
5,0,5,5,5,2638.0094540335713,EDrightbutton,0,1,1.59,2.00,3,4,P28D09,2022-11-11_12h00.52.033,t1_Paradigm,2021.1.4,60.11517040274438,
0,0,0,0,0,2641.2397737961264,EDrightbutton,0,1,1.00,2.00,2,3,P28D09,2022-11-11_12h00.52.033,t1_Paradigm,2021.1.4,60.11517040274438,
1,0,1,1,1,2645.1130740269755,EDrightbutton,0,1,1.50,2.00,2,3,P28D09,2022-11-11_12h00.52.033,t1_Paradigm,2021.1.4,60.11517040274438,
2,0,2,2,2,2647.6440397563447,EDrightbutton,0,1,1.75,2.00,2,3,P28D09,2022-11-11_12h00.52.033,t1_Paradigm,2021.1.4,60.11517040274438,
3,0,3,3,3,2650.4568473252175,EDrightbutton,0,1,1.88,2.00,2,3,P28D09,2022-11-11_12h00.52.033,t1_Paradigm,2021.1.4,60.11517040274438,
4,0,4,4,4,2654.1414544134013,EDleftbutton,1,0,1.94,2.00,2,3,P28D09,2022-11-11_12h00.52.033,t1_Paradigm,2021.1.4,60.11517040274438,
5,0,5,5,5,2655.386676709907,EDleftbutton,1,0,1.91,2.00,2,3,P28D09,2022-11-11_12h00.52.033,t1_Paradigm,2021.1.4,60.11517040274438,
0,0,0,0,0,2657.637269231115,EDrightbutton,0,1,1.00,2.00,1,3,P28D09,2022-11-11_12h00.52.033,t1_Paradigm,2021.1.4,60.11517040274438,
1,0,1,1,1,2660.366671820885,EDrightbutton,0,1,1.50,2.00,1,3,P28D09,2022-11-11_12h00.52.033,t1_Paradigm,2021.1.4,60.11517040274438,
2,0,2,2,2,2662.5187550446108,EDleftbutton,1,0,1.75,2.00,1,3,P28D09,2022-11-11_12h00.52.033,t1_Paradigm,2021.1.4,60.11517040274438,
3,0,3,3,3,2665.8347597257516,EDrightbutton,0,1,1.62,2.00,1,3,P28D09,2022-11-11_12h00.52.033,t1_Paradigm,2021.1.4,60.11517040274438,
4,0,4,4,4,2668.044241476612,EDrightbutton,0,1,1.68,2.00,1,3,P28D09,2022-11-11_12h00.52.033,t1_Paradigm,2021.1.4,60.11517040274438,
5,0,5,5,5,2670.0277172887863,EDrightbutton,0,1,1.71,2.00,1,3,P28D09,2022-11-11_12h00.52.033,t1_Paradigm,2021.1.4,60.11517040274438,
0,0,0,0,0,2672.6694447046493,EDrightbutton,0,1,1.00,2.00,1,4,P28D09,2022-11-11_12h00.52.033,t1_Paradigm,2021.1.4,60.11517040274438,
1,0,1,1,1,2675.4668666118314,EDrightbutton,0,1,1.50,2.00,1,4,P28D09,2022-11-11_12h00.52.033,t1_Paradigm,2021.1.4,60.11517040274438,
2,0,2,2,2,2677.1973522289964,EDleftbutton,1,0,1.75,2.00,1,4,P28D09,2022-11-11_12h00.52.033,t1_Paradigm,2021.1.4,60.11517040274438,
3,0,3,3,3,2680.126335338132,EDleftbutton,1,0,1.62,2.00,1,4,P28D09,2022-11-11_12h00.52.033,t1_Paradigm,2021.1.4,60.11517040274438,
4,0,4,4,4,2681.763443205863,EDrightbutton,0,1,1.56,2.00,1,4,P28D09,2022-11-11_12h00.52.033,t1_Paradigm,2021.1.4,60.11517040274438,
5,0,5,5,5,2684.8955850593547,EDleftbutton,1,0,1.59,2.00,1,4,P28D09,2022-11-11_12h00.52.033,t1_Paradigm,2021.1.4,60.11517040274438,
0,0,0,0,0,2688.7482586869965,EDrightbutton,0,1,1.00,2.00,1,2,P28D09,2022-11-11_12h00.52.033,t1_Paradigm,2021.1.4,60.11517040274438,
1,0,1,1,1,2691.4309297353893,EDrightbutton,0,1,1.50,2.00,1,2,P28D09,2022-11-11_12h00.52.033,t1_Paradigm,2021.1.4,60.11517040274438,
2,0,2,2,2,2692.828675395901,EDrightbutton,0,1,1.75,2.00,1,2,P28D09,2022-11-11_12h00.52.033,t1_Paradigm,2021.1.4,60.11517040274438,
3,0,3,3,3,2693.727337908397,EDrightbutton,0,1,1.88,2.00,1,2,P28D09,2022-11-11_12h00.52.033,t1_Paradigm,2021.1.4,60.11517040274438,
4,0,4,4,4,2694.6614554527996,EDrightbutton,0,1,1.94,2.00,1,2,P28D09,2022-11-11_12h00.52.033,t1_Paradigm,2021.1.4,60.11517040274438,
5,0,5,5,5,2696.4137950614468,EDrightbutton,0,1,1.97,2.00,1,2,P28D09,2022-11-11_12h00.52.033,t1_Paradigm,2021.1.4,60.11517040274438,
0,0,0,0,0,2697.746790055652,EDleftbutton,1,0,1.00,2.00,2,4,P28D09,2022-11-11_12h00.52.033,t1_Paradigm,2021.1.4,60.11517040274438,
1,0,1,1,1,2703.846699974464,EDrightbutton,0,1,0.50,2.00,2,4,P28D09,2022-11-11_12h00.52.033,t1_Paradigm,2021.1.4,60.11517040274438,
2,0,2,2,2,2706.5030489017654,EDrightbutton,0,1,0.75,2.00,2,4,P28D09,2022-11-11_12h00.52.033,t1_Paradigm,2021.1.4,60.11517040274438,
3,0,3,3,3,2709.495318216289,EDleftbutton,1,0,0.88,2.00,2,4,P28D09,2022-11-11_12h00.52.033,t1_Paradigm,2021.1.4,60.11517040274438,
4,0,4,4,4,2712.3626152801817,EDleftbutton,1,0,0.82,2.00,2,4,P28D09,2022-11-11_12h00.52.033,t1_Paradigm,2021.1.4,60.11517040274438,
5,0,5,5,5,2713.6443188540443,EDrightbutton,0,1,0.79,2.00,2,4,P28D09,2022-11-11_12h00.52.033,t1_Paradigm,2021.1.4,60.11517040274438,
