Letter,CorrAnswer,Stimulus,nback_run.thisRepN,nback_run.thisTrialN,nback_run.thisN,nback_run.thisIndex,fixcross.started,nback_trial.started,trial_resp.keys,trial_resp.corr,currentlevel,trial_resp.rt,Participant,date,expName,psychopyVersion,frameRate,
H,left,Distractor,0,0,0,0,238.4944189976668,240.4437341162702,None,0,1,,P30C05,2022-11-03_10h38.24.302,t1_Paradigm,2021.1.4,59.91193440739027,
Q,left,Pretarget,0,1,1,1,241.94145449320786,243.94383966032183,left,1,1,0.8777267416589893,P30C05,2022-11-03_10h38.24.302,t1_Paradigm,2021.1.4,59.91193440739027,
Q,right,Target,0,2,2,2,245.44210764719173,247.4417563683819,right,1,1,0.6915534607833251,P30C05,2022-11-03_10h38.24.302,t1_Paradigm,2021.1.4,59.91193440739027,
T,left,Distractor,0,3,3,3,248.94199408311397,250.94390863284934,None,0,1,,P30C05,2022-11-03_10h38.24.302,t1_Paradigm,2021.1.4,59.91193440739027,
Q,left,Lure,0,4,4,4,252.44183721067384,254.44411009683972,None,0,1,,P30C05,2022-11-03_10h38.24.302,t1_Paradigm,2021.1.4,59.91193440739027,
L,left,Distractor,0,5,5,5,255.94215288036503,257.94367348455125,left,1,1,1.053617016877979,P30C05,2022-11-03_10h38.24.302,t1_Paradigm,2021.1.4,59.91193440739027,
V,left,Pretarget,0,6,6,6,259.44224783795653,261.4437209633761,left,1,1,0.6576850501005538,P30C05,2022-11-03_10h38.24.302,t1_Paradigm,2021.1.4,59.91193440739027,
V,right,Target,0,7,7,7,262.94183015299495,264.94212368736044,right,1,1,1.015293300151825,P30C05,2022-11-03_10h38.24.302,t1_Paradigm,2021.1.4,59.91193440739027,
K,left,Distractor,0,8,8,8,266.4421875270782,268.4435862262617,left,1,1,0.9058293676935136,P30C05,2022-11-03_10h38.24.302,t1_Paradigm,2021.1.4,59.91193440739027,
G,left,Pretarget,0,9,9,9,269.94184908032184,271.9442515707924,left,1,1,0.7650024926406331,P30C05,2022-11-03_10h38.24.302,t1_Paradigm,2021.1.4,59.91193440739027,
G,right,Target,0,10,10,10,273.4421204793034,275.4420794165926,right,1,1,0.8510683687636629,P30C05,2022-11-03_10h38.24.302,t1_Paradigm,2021.1.4,59.91193440739027,
G,right,Target,0,11,11,11,276.9416463331436,278.9418763485737,right,1,1,0.5514451834606007,P30C05,2022-11-03_10h38.24.302,t1_Paradigm,2021.1.4,59.91193440739027,
P,left,Pretarget,0,12,12,12,280.4418407394551,282.44401096890215,left,1,1,0.5855442511383444,P30C05,2022-11-03_10h38.24.302,t1_Paradigm,2021.1.4,59.91193440739027,
P,right,Target,0,13,13,13,283.94168803747743,285.9422767101787,right,1,1,0.4472186737693846,P30C05,2022-11-03_10h38.24.302,t1_Paradigm,2021.1.4,59.91193440739027,
G,left,Lure,0,14,14,14,287.4423161689192,289.4439256353653,left,1,1,0.6735060705686919,P30C05,2022-11-03_10h38.24.302,t1_Paradigm,2021.1.4,59.91193440739027,
Y,left,Distractor,0,15,15,15,290.9420765293762,292.94375111878617,left,1,1,0.6777595918392763,P30C05,2022-11-03_10h38.24.302,t1_Paradigm,2021.1.4,59.91193440739027,
B,left,Distractor,0,16,16,16,294.4417226841324,296.443961886107,left,1,1,0.6332780697266571,P30C05,2022-11-03_10h38.24.302,t1_Paradigm,2021.1.4,59.91193440739027,
T,left,Pretarget,0,17,17,17,297.942195867945,299.9427316082292,left,1,1,0.5587543492438272,P30C05,2022-11-03_10h38.24.302,t1_Paradigm,2021.1.4,59.91193440739027,
T,right,Target,0,18,18,18,301.4421336322557,303.4423482491402,None,0,1,,P30C05,2022-11-03_10h38.24.302,t1_Paradigm,2021.1.4,59.91193440739027,
S,left,Distractor,0,19,19,19,304.94169862393755,306.9462062208913,right,0,1,0.6433621777687222,P30C05,2022-11-03_10h38.24.302,t1_Paradigm,2021.1.4,59.91193440739027,
T,left,Lure,0,20,20,20,308.4422301938175,310.44298055098625,left,1,1,1.0183864785940386,P30C05,2022-11-03_10h38.24.302,t1_Paradigm,2021.1.4,59.91193440739027,
J,left,Distractor,0,21,21,21,311.9422622740385,313.9437094144523,left,1,1,0.6057692492613569,P30C05,2022-11-03_10h38.24.302,t1_Paradigm,2021.1.4,59.91193440739027,
P,left,Distractor,0,22,22,22,315.4421740533435,317.44163414259674,left,1,1,0.7237912319251336,P30C05,2022-11-03_10h38.24.302,t1_Paradigm,2021.1.4,59.91193440739027,
F,left,Distractor,0,23,23,23,318.94221479527187,320.94392788101686,left,1,1,0.7094516778015532,P30C05,2022-11-03_10h38.24.302,t1_Paradigm,2021.1.4,59.91193440739027,
L,left,Distractor,0,24,24,24,322.442251366796,324.44453548110323,left,1,1,0.6648713485337794,P30C05,2022-11-03_10h38.24.302,t1_Paradigm,2021.1.4,59.91193440739027,
W,left,Pretarget,0,25,25,25,325.9421759781544,327.94378416147083,left,1,1,0.5259994443622418,P30C05,2022-11-03_10h38.24.302,t1_Paradigm,2021.1.4,59.91193440739027,
W,right,Target,0,26,26,26,329.4421952263219,331.4423026951845,right,1,1,0.7071749419555999,P30C05,2022-11-03_10h38.24.302,t1_Paradigm,2021.1.4,59.91193440739027,
V,left,Distractor,0,27,27,27,332.941825020127,334.9444735661964,left,1,1,0.43693759298184887,P30C05,2022-11-03_10h38.24.302,t1_Paradigm,2021.1.4,59.91193440739027,
W,left,Lure,0,28,28,28,336.44220132159535,338.4418423434836,left,1,1,0.7156598492292687,P30C05,2022-11-03_10h38.24.302,t1_Paradigm,2021.1.4,59.91193440739027,
R,left,Pretarget,0,29,29,29,339.9422593868221,341.9438454347546,left,1,1,0.8297622660174966,P30C05,2022-11-03_10h38.24.302,t1_Paradigm,2021.1.4,59.91193440739027,
R,right,Target,0,30,30,30,343.4417704837397,345.4422446298995,right,1,1,0.40319846582133323,P30C05,2022-11-03_10h38.24.302,t1_Paradigm,2021.1.4,59.91193440739027,
G,left,Distractor,0,31,31,31,346.94188436865807,348.9424172217259,left,1,1,0.6311989482492208,P30C05,2022-11-03_10h38.24.302,t1_Paradigm,2021.1.4,59.91193440739027,
R,left,Lure,0,32,32,32,350.44244416913716,352.4448203537613,left,1,1,0.8084205542108975,P30C05,2022-11-03_10h38.24.302,t1_Paradigm,2021.1.4,59.91193440739027,
S,left,Distractor,0,33,33,33,353.94186095002806,355.94384864275344,left,1,1,0.7655529898474924,P30C05,2022-11-03_10h38.24.302,t1_Paradigm,2021.1.4,59.91193440739027,
R,left,Lure,0,34,34,34,357.4424284498091,359.4424008607748,left,1,1,1.1870141043909825,P30C05,2022-11-03_10h38.24.302,t1_Paradigm,2021.1.4,59.91193440739027,
P,left,Pretarget,0,35,35,35,360.94192799780285,362.94287789420923,left,1,1,1.0627656646538526,P30C05,2022-11-03_10h38.24.302,t1_Paradigm,2021.1.4,59.91193440739027,
P,right,Target,0,36,36,36,364.44230077037355,366.44203899544664,right,1,1,0.6673110520932823,P30C05,2022-11-03_10h38.24.302,t1_Paradigm,2021.1.4,59.91193440739027,
Y,left,Pretarget,0,37,37,37,367.94204765715403,369.942520520126,left,1,1,0.6709771839086898,P30C05,2022-11-03_10h38.24.302,t1_Paradigm,2021.1.4,59.91193440739027,
Y,right,Target,0,38,38,38,371.4422401386546,373.44227318133926,right,1,1,0.7392260060296394,P30C05,2022-11-03_10h38.24.302,t1_Paradigm,2021.1.4,59.91193440739027,
J,left,Distractor,0,39,39,39,374.9423235473223,376.94432792183943,left,1,1,1.3491201347787865,P30C05,2022-11-03_10h38.24.302,t1_Paradigm,2021.1.4,59.91193440739027,
Y,left,Lure,0,40,40,40,378.44168258382706,380.4437767830095,left,1,1,0.6657192297279835,P30C05,2022-11-03_10h38.24.302,t1_Paradigm,2021.1.4,59.91193440739027,
T,left,Distractor,0,41,41,41,381.942117592087,383.94359713356243,left,1,1,0.8620872955070809,P30C05,2022-11-03_10h38.24.302,t1_Paradigm,2021.1.4,59.91193440739027,
V,left,Distractor,0,42,42,42,385.44187538616825,387.444032462663,left,1,1,0.5934417688986287,P30C05,2022-11-03_10h38.24.302,t1_Paradigm,2021.1.4,59.91193440739027,
N,left,Pretarget,0,43,43,43,388.94236653490225,390.9439083120669,left,1,1,0.6464460528804921,P30C05,2022-11-03_10h38.24.302,t1_Paradigm,2021.1.4,59.91193440739027,
N,right,Target,0,44,44,44,392.44197451416403,394.44240182318026,right,1,1,0.5551026535686105,P30C05,2022-11-03_10h38.24.302,t1_Paradigm,2021.1.4,59.91193440739027,
N,right,Target,0,45,45,45,395.9419145240681,397.9423630060628,right,1,1,0.6871555783436634,P30C05,2022-11-03_10h38.24.302,t1_Paradigm,2021.1.4,59.91193440739027,
X,left,Distractor,0,46,46,46,399.4421522388002,401.4441575756646,left,1,1,0.561519025824964,P30C05,2022-11-03_10h38.24.302,t1_Paradigm,2021.1.4,59.91193440739027,
Z,left,Distractor,0,47,47,47,402.94231809373014,404.9443147688871,left,1,1,0.9331928645842709,P30C05,2022-11-03_10h38.24.302,t1_Paradigm,2021.1.4,59.91193440739027,
H,left,Pretarget,0,48,48,48,406.4421599380439,408.45503278280376,left,1,1,0.7346622686600313,P30C05,2022-11-03_10h38.24.302,t1_Paradigm,2021.1.4,59.91193440739027,
H,right,Target,0,49,49,49,409.9423354170285,411.9424246001872,right,1,1,0.687145633448381,P30C05,2022-11-03_10h38.24.302,t1_Paradigm,2021.1.4,59.91193440739027,
K,left,Distractor,0,50,50,50,413.4424156176974,415.44392306898953,left,1,1,1.426006566209253,P30C05,2022-11-03_10h38.24.302,t1_Paradigm,2021.1.4,59.91193440739027,
V,left,Pretarget,0,51,51,51,416.94233894586796,418.9435948879109,left,1,1,1.0781234460882843,P30C05,2022-11-03_10h38.24.302,t1_Paradigm,2021.1.4,59.91193440739027,
V,right,Target,0,52,52,52,420.4423633268452,422.44242075050715,right,1,1,0.6191162402974442,P30C05,2022-11-03_10h38.24.302,t1_Paradigm,2021.1.4,59.91193440739027,
R,left,Distractor,0,53,53,53,423.94220003834926,425.94418676866917,left,1,1,0.5093956656637602,P30C05,2022-11-03_10h38.24.302,t1_Paradigm,2021.1.4,59.91193440739027,
V,left,Lure,0,54,54,54,427.44188693503384,429.44346432131715,left,1,1,1.0264671745244414,P30C05,2022-11-03_10h38.24.302,t1_Paradigm,2021.1.4,59.91193440739027,
Y,left,Distractor,0,55,55,55,430.94235466519604,432.94230686558876,left,1,1,0.9192998676444404,P30C05,2022-11-03_10h38.24.302,t1_Paradigm,2021.1.4,59.91193440739027,
Q,left,Distractor,0,56,56,56,434.442409522424,436.44377165014157,left,1,1,0.8096995940431952,P30C05,2022-11-03_10h38.24.302,t1_Paradigm,2021.1.4,59.91193440739027,
Z,left,Pretarget,0,57,57,57,437.9425554876216,439.94229082547827,left,1,1,0.7673016847111285,P30C05,2022-11-03_10h38.24.302,t1_Paradigm,2021.1.4,59.91193440739027,
Z,right,Target,0,58,58,58,441.44197162694763,443.44244384829653,right,1,1,0.4994350666529499,P30C05,2022-11-03_10h38.24.302,t1_Paradigm,2021.1.4,59.91193440739027,
B,left,Distractor,0,59,59,59,444.9419273561798,446.94152186170686,left,1,1,0.744273513671942,P30C05,2022-11-03_10h38.24.302,t1_Paradigm,2021.1.4,59.91193440739027,
S,left,Pretarget,0,60,60,60,448.4420970607316,450.44434139551595,left,1,1,0.585380962700583,P30C05,2022-11-03_10h38.24.302,t1_Paradigm,2021.1.4,59.91193440739027,
S,right,Target,0,61,61,61,451.94231552729616,453.94247881579213,right,1,1,0.6231737511698157,P30C05,2022-11-03_10h38.24.302,t1_Paradigm,2021.1.4,59.91193440739027,
T,left,Distractor,0,62,62,62,455.44204669474857,457.44488226866815,left,1,1,0.5608998768730089,P30C05,2022-11-03_10h38.24.302,t1_Paradigm,2021.1.4,59.91193440739027,
D,left,Distractor,0,63,63,63,458.942432941054,460.9430498443544,left,1,1,0.9025690511916764,P30C05,2022-11-03_10h38.24.302,t1_Paradigm,2021.1.4,59.91193440739027,
R,left,Distractor,0,0,0,0,473.34336333262036,475.3434884456219,None,0,1,,P30C05,2022-11-03_10h38.24.302,t1_Paradigm,2021.1.4,59.91193440739027,
V,left,Distractor,0,1,1,1,476.8424346091924,478.8431201642961,None,0,1,,P30C05,2022-11-03_10h38.24.302,t1_Paradigm,2021.1.4,59.91193440739027,
N,left,Pretarget,0,2,2,2,480.34251256420976,482.3425587597885,left,1,1,0.7030564785236493,P30C05,2022-11-03_10h38.24.302,t1_Paradigm,2021.1.4,59.91193440739027,
N,right,Target,0,3,3,3,483.84229441848584,485.84260014333995,right,1,1,0.611077569425106,P30C05,2022-11-03_10h38.24.302,t1_Paradigm,2021.1.4,59.91193440739027,
S,left,Distractor,0,4,4,4,487.3425382284331,489.3445406780811,left,1,1,0.4691561160143465,P30C05,2022-11-03_10h38.24.302,t1_Paradigm,2021.1.4,59.91193440739027,
N,left,Lure,0,5,5,5,490.84243621322094,492.84307076071855,left,1,1,0.47475155448773876,P30C05,2022-11-03_10h38.24.302,t1_Paradigm,2021.1.4,59.91193440739027,
Z,left,Distractor,0,6,6,6,494.34204932529246,496.3438666719012,left,1,1,0.49384989391546696,P30C05,2022-11-03_10h38.24.302,t1_Paradigm,2021.1.4,59.91193440739027,
L,left,Pretarget,0,7,7,7,497.84216449345695,499.8446228035609,left,1,1,0.6253988378448412,P30C05,2022-11-03_10h38.24.302,t1_Paradigm,2021.1.4,59.91193440739027,
L,right,Target,0,8,8,8,501.3422369948239,503.3425456068944,right,1,1,0.5832363975350745,P30C05,2022-11-03_10h38.24.302,t1_Paradigm,2021.1.4,59.91193440739027,
H,left,Distractor,0,9,9,9,504.8426752111409,506.84403092280263,left,1,1,0.7936200067633763,P30C05,2022-11-03_10h38.24.302,t1_Paradigm,2021.1.4,59.91193440739027,
L,left,Lure,0,10,10,10,508.3423961129156,510.3426347899949,left,1,1,0.575133566162549,P30C05,2022-11-03_10h38.24.302,t1_Paradigm,2021.1.4,59.91193440739027,
X,left,Pretarget,0,11,11,11,511.84251833864255,513.8445810992271,left,1,1,0.7052190087269992,P30C05,2022-11-03_10h38.24.302,t1_Paradigm,2021.1.4,59.91193440739027,
X,right,Target,0,12,12,12,515.342231861956,517.3421709095128,right,1,1,0.6317202524514869,P30C05,2022-11-03_10h38.24.302,t1_Paradigm,2021.1.4,59.91193440739027,
X,right,Target,0,13,13,13,518.8425510605448,520.842156794155,right,1,1,0.5396236087544821,P30C05,2022-11-03_10h38.24.302,t1_Paradigm,2021.1.4,59.91193440739027,
R,left,Distractor,0,14,14,14,522.3421542277792,524.3438445365173,left,1,1,0.5580319018336013,P30C05,2022-11-03_10h38.24.302,t1_Paradigm,2021.1.4,59.91193440739027,
T,left,Distractor,0,15,15,15,525.8425164138316,527.8430245651398,left,1,1,0.8347350266994908,P30C05,2022-11-03_10h38.24.302,t1_Paradigm,2021.1.4,59.91193440739027,
V,left,Pretarget,0,16,16,16,529.3422591302078,531.3426617374062,left,1,1,0.6952487856033258,P30C05,2022-11-03_10h38.24.302,t1_Paradigm,2021.1.4,59.91193440739027,
V,right,Target,0,17,17,17,532.8426055969903,534.8426703991136,right,1,1,0.6670370866777375,P30C05,2022-11-03_10h38.24.302,t1_Paradigm,2021.1.4,59.91193440739027,
N,left,Distractor,0,18,18,18,536.3425372660276,538.3445021817461,left,1,1,0.9252844395814463,P30C05,2022-11-03_10h38.24.302,t1_Paradigm,2021.1.4,59.91193440739027,
B,left,Distractor,0,19,19,19,539.8426020681509,541.8441720759147,left,1,1,0.5138378189294599,P30C05,2022-11-03_10h38.24.302,t1_Paradigm,2021.1.4,59.91193440739027,
V,left,Lure,0,20,20,20,543.3416447932832,545.3423425388755,left,1,1,0.919393541989848,P30C05,2022-11-03_10h38.24.302,t1_Paradigm,2021.1.4,59.91193440739027,
P,left,Distractor,0,21,21,21,546.8423091754084,548.842577366333,left,1,1,0.4913617491838522,P30C05,2022-11-03_10h38.24.302,t1_Paradigm,2021.1.4,59.91193440739027,
K,left,Pretarget,0,22,22,22,550.3428365748259,552.3440248275292,left,1,1,0.8779156943783164,P30C05,2022-11-03_10h38.24.302,t1_Paradigm,2021.1.4,59.91193440739027,
K,right,Target,0,23,23,23,553.8426142586395,555.8427480332903,right,1,1,0.4190105036832392,P30C05,2022-11-03_10h38.24.302,t1_Paradigm,2021.1.4,59.91193440739027,
J,left,Pretarget,0,24,24,24,557.342650509323,559.3426601334359,left,1,1,0.6312983970856294,P30C05,2022-11-03_10h38.24.302,t1_Paradigm,2021.1.4,59.91193440739027,
J,right,Target,0,25,25,25,560.8422004232998,562.8426562837558,left,0,1,0.5072671406087466,P30C05,2022-11-03_10h38.24.302,t1_Paradigm,2021.1.4,59.91193440739027,
H,left,Distractor,0,26,26,26,564.3427416172344,566.3446956257103,left,1,1,0.7651089990977198,P30C05,2022-11-03_10h38.24.302,t1_Paradigm,2021.1.4,59.91193440739027,
J,left,Lure,0,27,27,27,567.8427483541309,569.8448265131447,left,1,1,0.9132129596546292,P30C05,2022-11-03_10h38.24.302,t1_Paradigm,2021.1.4,59.91193440739027,
V,left,Distractor,0,28,28,28,571.342612654611,573.343073647935,left,1,1,1.0789373222505674,P30C05,2022-11-03_10h38.24.302,t1_Paradigm,2021.1.4,59.91193440739027,
Z,left,Pretarget,0,29,29,29,574.8423332356033,576.8446109338547,left,1,1,0.7454412350780331,P30C05,2022-11-03_10h38.24.302,t1_Paradigm,2021.1.4,59.91193440739027,
Z,right,Target,0,30,30,30,578.3422164634685,580.3426322235609,right,1,1,0.4313963701715693,P30C05,2022-11-03_10h38.24.302,t1_Paradigm,2021.1.4,59.91193440739027,
T,left,Distractor,0,31,31,31,581.8423297067638,583.8443530085497,left,1,1,0.6735955744516104,P30C05,2022-11-03_10h38.24.302,t1_Paradigm,2021.1.4,59.91193440739027,
Z,left,Lure,0,32,32,32,585.3426415268332,587.3445984225255,left,1,1,0.6932623760658316,P30C05,2022-11-03_10h38.24.302,t1_Paradigm,2021.1.4,59.91193440739027,
F,left,Distractor,0,33,33,33,588.8427682438632,590.844313229085,left,1,1,1.017549825424794,P30C05,2022-11-03_10h38.24.302,t1_Paradigm,2021.1.4,59.91193440739027,
Y,left,Pretarget,0,34,34,34,592.3428025697358,594.3429870312102,left,1,1,0.7188996343757026,P30C05,2022-11-03_10h38.24.302,t1_Paradigm,2021.1.4,59.91193440739027,
Y,right,Target,0,35,35,35,595.8426181082614,597.8427056873916,right,1,1,0.6590895237750374,P30C05,2022-11-03_10h38.24.302,t1_Paradigm,2021.1.4,59.91193440739027,
Y,right,Target,0,36,36,36,599.3429520637728,601.3426979880896,right,1,1,0.7752720245043747,P30C05,2022-11-03_10h38.24.302,t1_Paradigm,2021.1.4,59.91193440739027,
W,left,Distractor,0,37,37,37,602.8426662286511,604.8446292196168,left,1,1,0.6012619731482118,P30C05,2022-11-03_10h38.24.302,t1_Paradigm,2021.1.4,59.91193440739027,
Q,left,Distractor,0,38,38,38,606.3426274115336,608.3445239963476,left,1,1,0.6693940231925808,P30C05,2022-11-03_10h38.24.302,t1_Paradigm,2021.1.4,59.91193440739027,
P,left,Pretarget,0,39,39,39,609.8426533965394,611.8438904112554,left,1,1,0.7061320128268562,P30C05,2022-11-03_10h38.24.302,t1_Paradigm,2021.1.4,59.91193440739027,
P,right,Target,0,40,40,40,613.342323290708,615.3426492261351,right,1,1,0.55124821071513,P30C05,2022-11-03_10h38.24.302,t1_Paradigm,2021.1.4,59.91193440739027,
J,left,Distractor,0,41,41,41,616.8427945497097,618.8448255507392,left,1,1,0.5370924764429219,P30C05,2022-11-03_10h38.24.302,t1_Paradigm,2021.1.4,59.91193440739027,
P,left,Lure,0,42,42,42,620.342247581284,622.3432237835368,left,1,1,1.0227355990209617,P30C05,2022-11-03_10h38.24.302,t1_Paradigm,2021.1.4,59.91193440739027,
L,left,Distractor,0,43,43,43,623.8428189306869,625.8445775703876,left,1,1,0.8975972529151477,P30C05,2022-11-03_10h38.24.302,t1_Paradigm,2021.1.4,59.91193440739027,
Z,left,Distractor,0,44,44,44,627.342194648867,629.3427162738517,left,1,1,0.5995126367197372,P30C05,2022-11-03_10h38.24.302,t1_Paradigm,2021.1.4,59.91193440739027,
F,left,Pretarget,0,45,45,45,630.8422604133957,632.842197856924,left,1,1,0.6676148521364667,P30C05,2022-11-03_10h38.24.302,t1_Paradigm,2021.1.4,59.91193440739027,
F,right,Target,0,46,46,46,634.3422687542625,636.3427749807015,right,1,1,0.43135530746076256,P30C05,2022-11-03_10h38.24.302,t1_Paradigm,2021.1.4,59.91193440739027,
G,left,Pretarget,0,47,47,47,637.8427659982699,639.8424586693873,left,1,1,0.5955106246983632,P30C05,2022-11-03_10h38.24.302,t1_Paradigm,2021.1.4,59.91193440739027,
G,right,Target,0,48,48,48,641.3428856576211,643.3428077026037,right,1,1,0.695169226557482,P30C05,2022-11-03_10h38.24.302,t1_Paradigm,2021.1.4,59.91193440739027,
V,left,Distractor,0,49,49,49,644.8427720934851,646.8446962673333,left,1,1,0.5853228974156082,P30C05,2022-11-03_10h38.24.302,t1_Paradigm,2021.1.4,59.91193440739027,
G,left,Lure,0,50,50,50,648.3427461084793,650.343141658057,left,1,1,0.590784240339417,P30C05,2022-11-03_10h38.24.302,t1_Paradigm,2021.1.4,59.91193440739027,
Q,left,Pretarget,0,51,51,51,651.8428051361698,653.843361087027,left,1,1,0.658783798920922,P30C05,2022-11-03_10h38.24.302,t1_Paradigm,2021.1.4,59.91193440739027,
Q,right,Target,0,52,52,52,655.3428622390493,657.3428792415652,right,1,1,0.48715731070842594,P30C05,2022-11-03_10h38.24.302,t1_Paradigm,2021.1.4,59.91193440739027,
Y,left,Distractor,0,53,53,53,658.8424759927439,660.8426877224119,left,1,1,0.5552752453950234,P30C05,2022-11-03_10h38.24.302,t1_Paradigm,2021.1.4,59.91193440739027,
V,left,Distractor,0,54,54,54,662.3426514717285,664.3428513317485,left,1,1,0.6391933483537287,P30C05,2022-11-03_10h38.24.302,t1_Paradigm,2021.1.4,59.91193440739027,
B,left,Distractor,0,55,55,55,665.8426607750007,667.8434749719454,left,1,1,0.7065349408658221,P30C05,2022-11-03_10h38.24.302,t1_Paradigm,2021.1.4,59.91193440739027,
J,left,Pretarget,0,56,56,56,669.3427538077813,671.3433203450986,left,1,1,0.6468316576210782,P30C05,2022-11-03_10h38.24.302,t1_Paradigm,2021.1.4,59.91193440739027,
J,right,Target,0,57,57,57,672.8427364844247,674.8428211762803,None,0,1,,P30C05,2022-11-03_10h38.24.302,t1_Paradigm,2021.1.4,59.91193440739027,
H,left,Distractor,0,58,58,58,676.342834650015,678.3433546709712,left,1,1,0.8147163046523929,P30C05,2022-11-03_10h38.24.302,t1_Paradigm,2021.1.4,59.91193440739027,
J,left,Lure,0,59,59,59,679.8423463884974,681.843378089543,left,1,1,0.6588014431181364,P30C05,2022-11-03_10h38.24.302,t1_Paradigm,2021.1.4,59.91193440739027,
D,left,Pretarget,0,60,60,60,683.3427980784909,685.3447475957219,left,1,1,0.8373521341127343,P30C05,2022-11-03_10h38.24.302,t1_Paradigm,2021.1.4,59.91193440739027,
D,right,Target,0,61,61,61,686.8428532565595,688.8429417980369,right,1,1,0.9231039445148781,P30C05,2022-11-03_10h38.24.302,t1_Paradigm,2021.1.4,59.91193440739027,
R,left,Distractor,0,62,62,62,690.3427207650966,692.3451896616607,left,1,1,0.8930469892802648,P30C05,2022-11-03_10h38.24.302,t1_Paradigm,2021.1.4,59.91193440739027,
F,left,Distractor,0,63,63,63,693.8427939080866,695.843837158056,left,1,1,0.7701998150441796,P30C05,2022-11-03_10h38.24.302,t1_Paradigm,2021.1.4,59.91193440739027,
F,left,Distractor,0,0,0,0,834.3091413975926,836.3096623809543,None,0,2,,P30C05,2022-11-03_10h38.24.302,t1_Paradigm,2021.1.4,59.91193440739027,
N,left,Pretarget,0,1,1,1,837.8097409775946,839.8114861435606,None,0,2,,P30C05,2022-11-03_10h38.24.302,t1_Paradigm,2021.1.4,59.91193440739027,
V,left,Distractor,0,2,2,2,841.3095603657421,843.3092036332819,left,1,2,0.6333601952064782,P30C05,2022-11-03_10h38.24.302,t1_Paradigm,2021.1.4,59.91193440739027,
N,right,Target,0,3,3,3,844.8093261798494,846.8116144646192,right,1,2,1.11458618711913,P30C05,2022-11-03_10h38.24.302,t1_Paradigm,2021.1.4,59.91193440739027,
N,left,Lure,0,4,4,4,848.3094442352303,850.3095468920073,None,0,2,,P30C05,2022-11-03_10h38.24.302,t1_Paradigm,2021.1.4,59.91193440739027,
X,left,Distractor,0,5,5,5,851.8097525264602,853.811506674916,None,0,2,,P30C05,2022-11-03_10h38.24.302,t1_Paradigm,2021.1.4,59.91193440739027,
G,left,Pretarget,0,6,6,6,855.3097733786562,857.3097121053725,None,0,2,,P30C05,2022-11-03_10h38.24.302,t1_Paradigm,2021.1.4,59.91193440739027,
H,left,Pretarget,0,7,7,7,858.8098911131965,860.8117767907097,left,1,2,1.3225692308042198,P30C05,2022-11-03_10h38.24.302,t1_Paradigm,2021.1.4,59.91193440739027,
G,right,Target,0,8,8,8,862.3094391023624,864.3097326367279,right,1,2,0.6726662094006315,P30C05,2022-11-03_10h38.24.302,t1_Paradigm,2021.1.4,59.91193440739027,
H,right,Target,0,9,9,9,865.8097387319431,867.8097765866551,right,1,2,1.4608749184408225,P30C05,2022-11-03_10h38.24.302,t1_Paradigm,2021.1.4,59.91193440739027,
T,left,Pretarget,0,10,10,10,869.3097736994387,871.3101567376871,left,1,2,1.2243080448824912,P30C05,2022-11-03_10h38.24.302,t1_Paradigm,2021.1.4,59.91193440739027,
K,left,Distractor,0,11,11,11,872.8099129277398,874.8117055725306,None,0,2,,P30C05,2022-11-03_10h38.24.302,t1_Paradigm,2021.1.4,59.91193440739027,
T,right,Target,0,12,12,12,876.309818932612,878.3118990164949,right,1,2,0.734458879858721,P30C05,2022-11-03_10h38.24.302,t1_Paradigm,2021.1.4,59.91193440739027,
T,left,Lure,0,13,13,13,879.8097400151892,881.8099251182284,left,1,2,1.4284562146058306,P30C05,2022-11-03_10h38.24.302,t1_Paradigm,2021.1.4,59.91193440739027,
J,left,Distractor,0,14,14,14,883.3093999644625,885.3113729002653,right,0,2,1.2710701524629258,P30C05,2022-11-03_10h38.24.302,t1_Paradigm,2021.1.4,59.91193440739027,
Q,left,Pretarget,0,15,15,15,886.8098192533944,888.810944949626,left,1,2,0.6993444720283151,P30C05,2022-11-03_10h38.24.302,t1_Paradigm,2021.1.4,59.91193440739027,
M,left,Distractor,0,16,16,16,890.3094050972722,892.3121861348045,left,1,2,1.1822039906983264,P30C05,2022-11-03_10h38.24.302,t1_Paradigm,2021.1.4,59.91193440739027,
Q,right,Target,0,17,17,17,893.8097592632985,895.8109484784654,right,1,2,0.9317617642809637,P30C05,2022-11-03_10h38.24.302,t1_Paradigm,2021.1.4,59.91193440739027,
R,left,Distractor,0,18,18,18,897.3099774090806,899.3105436256155,None,0,2,,P30C05,2022-11-03_10h38.24.302,t1_Paradigm,2021.1.4,59.91193440739027,
W,left,Distractor,0,19,19,19,900.8093884155387,902.8098070629057,None,0,2,,P30C05,2022-11-03_10h38.24.302,t1_Paradigm,2021.1.4,59.91193440739027,
C,left,Pretarget,0,20,20,20,904.3099469328299,906.3113071357366,left,1,2,0.8632899843505584,P30C05,2022-11-03_10h38.24.302,t1_Paradigm,2021.1.4,59.91193440739027,
T,left,Distractor,0,21,21,21,907.8096453784383,909.8115345847327,left,1,2,1.0112961001577787,P30C05,2022-11-03_10h38.24.302,t1_Paradigm,2021.1.4,59.91193440739027,
C,right,Target,0,22,22,22,911.3098320855061,913.3117023644736,right,1,2,0.6949343990418129,P30C05,2022-11-03_10h38.24.302,t1_Paradigm,2021.1.4,59.91193440739027,
F,left,Pretarget,0,23,23,23,914.8095501000644,916.8093245758209,left,1,2,1.1491728747496381,P30C05,2022-11-03_10h38.24.302,t1_Paradigm,2021.1.4,59.91193440739027,
C,right,Target,0,24,24,24,918.3094772778568,920.3117617129465,None,0,2,,P30C05,2022-11-03_10h38.24.302,t1_Paradigm,2021.1.4,59.91193440739027,
F,right,Target,0,25,25,25,921.8098911131965,923.8114928803989,None,0,2,,P30C05,2022-11-03_10h38.24.302,t1_Paradigm,2021.1.4,59.91193440739027,
H,left,Distractor,0,26,26,26,925.3095337391132,927.3116949860123,left,1,2,1.030984716315288,P30C05,2022-11-03_10h38.24.302,t1_Paradigm,2021.1.4,59.91193440739027,
H,left,Lure,0,27,27,27,928.8093534481013,930.8098211782053,None,0,2,,P30C05,2022-11-03_10h38.24.302,t1_Paradigm,2021.1.4,59.91193440739027,
P,left,Distractor,0,28,28,28,932.3099838251364,934.3108849595301,left,1,2,1.1994484120514244,P30C05,2022-11-03_10h38.24.302,t1_Paradigm,2021.1.4,59.91193440739027,
G,left,Pretarget,0,29,29,29,935.8093643553439,937.812201533292,left,1,2,1.2822799566783942,P30C05,2022-11-03_10h38.24.302,t1_Paradigm,2021.1.4,59.91193440739027,
K,left,Distractor,0,30,30,30,939.3099251182284,941.3114867851837,left,1,2,0.8870373946847394,P30C05,2022-11-03_10h38.24.302,t1_Paradigm,2021.1.4,59.91193440739027,
G,right,Target,0,31,31,31,942.809637999977,944.8118239486939,right,1,2,1.0506980343488976,P30C05,2022-11-03_10h38.24.302,t1_Paradigm,2021.1.4,59.91193440739027,
M,left,Pretarget,0,32,32,32,946.3094461600413,948.3106231846614,None,0,2,,P30C05,2022-11-03_10h38.24.302,t1_Paradigm,2021.1.4,59.91193440739027,
B,left,Distractor,0,33,33,33,949.8098032132839,951.8116972316639,left,1,2,1.3147817483986728,P30C05,2022-11-03_10h38.24.302,t1_Paradigm,2021.1.4,59.91193440739027,
M,right,Target,0,34,34,34,953.3096764962538,955.3094076637062,right,1,2,0.3931361723225564,P30C05,2022-11-03_10h38.24.302,t1_Paradigm,2021.1.4,59.91193440739027,
M,left,Lure,0,35,35,35,956.8094779194798,958.8099552736967,left,1,2,0.9565508206142113,P30C05,2022-11-03_10h38.24.302,t1_Paradigm,2021.1.4,59.91193440739027,
T,left,Distractor,0,36,36,36,960.3100367575535,962.3120141846011,left,1,2,0.7185345609905198,P30C05,2022-11-03_10h38.24.302,t1_Paradigm,2021.1.4,59.91193440739027,
F,left,Distractor,0,37,37,37,963.8095077541075,965.8109738218482,left,1,2,1.2355354932369664,P30C05,2022-11-03_10h38.24.302,t1_Paradigm,2021.1.4,59.91193440739027,
X,left,Distractor,0,38,38,38,967.3096861203667,969.309962010535,None,0,2,,P30C05,2022-11-03_10h38.24.302,t1_Paradigm,2021.1.4,59.91193440739027,
C,left,Distractor,0,39,39,39,970.8099190230132,972.8095202654367,None,0,2,,P30C05,2022-11-03_10h38.24.302,t1_Paradigm,2021.1.4,59.91193440739027,
R,left,Distractor,0,40,40,40,974.309929930314,976.3099478952354,None,0,2,,P30C05,2022-11-03_10h38.24.302,t1_Paradigm,2021.1.4,59.91193440739027,
B,left,Pretarget,0,41,41,41,977.8098067421233,979.810796738835,None,0,2,,P30C05,2022-11-03_10h38.24.302,t1_Paradigm,2021.1.4,59.91193440739027,
H,left,Distractor,0,42,42,42,981.3099459704245,983.3108426136314,None,0,2,,P30C05,2022-11-03_10h38.24.302,t1_Paradigm,2021.1.4,59.91193440739027,
B,right,Target,0,43,43,43,984.8099892787868,986.8117123093689,right,1,2,0.9069749536574818,P30C05,2022-11-03_10h38.24.302,t1_Paradigm,2021.1.4,59.91193440739027,
W,left,Pretarget,0,44,44,44,988.3100082061137,990.3093499192619,None,0,2,,P30C05,2022-11-03_10h38.24.302,t1_Paradigm,2021.1.4,59.91193440739027,
L,left,Pretarget,0,45,45,45,991.80943878158,993.812020600657,left,1,2,0.8025078420178033,P30C05,2022-11-03_10h38.24.302,t1_Paradigm,2021.1.4,59.91193440739027,
W,right,Target,0,46,46,46,995.3100027524633,997.3094946012134,right,1,2,1.3369963640579954,P30C05,2022-11-03_10h38.24.302,t1_Paradigm,2021.1.4,59.91193440739027,
L,right,Target,0,47,47,47,998.8094894683454,1000.8124402104295,right,1,2,0.7463074019760825,P30C05,2022-11-03_10h38.24.302,t1_Paradigm,2021.1.4,59.91193440739027,
W,right,Target,0,48,48,48,1002.3099825418903,1004.3116888907971,right,1,2,1.3269112935522571,P30C05,2022-11-03_10h38.24.302,t1_Paradigm,2021.1.4,59.91193440739027,
X,left,Distractor,0,49,49,49,1005.8101429432281,1007.8108679570141,None,0,2,,P30C05,2022-11-03_10h38.24.302,t1_Paradigm,2021.1.4,59.91193440739027,
R,left,Distractor,0,50,50,50,1009.3098240654217,1011.3114101133542,left,1,2,0.9990622940822504,P30C05,2022-11-03_10h38.24.302,t1_Paradigm,2021.1.4,59.91193440739027,
V,left,Pretarget,0,51,51,51,1012.8101102213259,1014.8122281599208,left,1,2,0.7144786541466601,P30C05,2022-11-03_10h38.24.302,t1_Paradigm,2021.1.4,59.91193440739027,
Z,left,Distractor,0,52,52,52,1016.3100518352585,1018.3099642561865,left,1,2,1.2328433180809952,P30C05,2022-11-03_10h38.24.302,t1_Paradigm,2021.1.4,59.91193440739027,
V,right,Target,0,53,53,53,1019.8095568369026,1021.8104560464853,right,1,2,0.6441904899547808,P30C05,2022-11-03_10h38.24.302,t1_Paradigm,2021.1.4,59.91193440739027,
V,left,Lure,0,54,54,54,1023.3099308927194,1025.3100566472858,None,0,2,,P30C05,2022-11-03_10h38.24.302,t1_Paradigm,2021.1.4,59.91193440739027,
N,left,Distractor,0,55,55,55,1026.8099033036851,1028.8109013204812,left,1,2,1.3078379767248407,P30C05,2022-11-03_10h38.24.302,t1_Paradigm,2021.1.4,59.91193440739027,
B,left,Distractor,0,56,56,56,1030.3100143013871,1032.3104480264592,left,1,2,0.9442416259553283,P30C05,2022-11-03_10h38.24.302,t1_Paradigm,2021.1.4,59.91193440739027,
V,left,Lure,0,57,57,57,1033.8101734194206,1035.8119673473993,left,1,2,0.6267503790440969,P30C05,2022-11-03_10h38.24.302,t1_Paradigm,2021.1.4,59.91193440739027,
J,left,Distractor,0,58,58,58,1037.3100341911195,1039.3102391839493,None,0,2,,P30C05,2022-11-03_10h38.24.302,t1_Paradigm,2021.1.4,59.91193440739027,
H,left,Distractor,0,59,59,59,1040.8101477552555,1042.81184095121,left,1,2,0.9228354328079149,P30C05,2022-11-03_10h38.24.302,t1_Paradigm,2021.1.4,59.91193440739027,
X,left,Pretarget,0,60,60,60,1044.3093341999338,1046.3117552969488,left,1,2,1.390988399158232,P30C05,2022-11-03_10h38.24.302,t1_Paradigm,2021.1.4,59.91193440739027,
P,left,Distractor,0,61,61,61,1047.810108296515,1049.8122031373205,None,0,2,,P30C05,2022-11-03_10h38.24.302,t1_Paradigm,2021.1.4,59.91193440739027,
X,right,Target,0,62,62,62,1051.3101012388943,1053.3117139133974,right,1,2,1.2390697752125561,P30C05,2022-11-03_10h38.24.302,t1_Paradigm,2021.1.4,59.91193440739027,
Q,left,Distractor,0,63,63,63,1054.8101012388943,1056.8097044060705,left,1,2,0.7009844147250988,P30C05,2022-11-03_10h38.24.302,t1_Paradigm,2021.1.4,59.91193440739027,
B,left,Pretarget,0,0,0,0,1165.226342895592,1167.2277377451537,left,1,2,0.5072231906815432,P30C05,2022-11-03_10h38.24.302,t1_Paradigm,2021.1.4,59.91193440739027,
F,left,Distractor,0,1,1,1,1168.7266005000565,1170.7263900535763,left,1,2,0.6725231314194389,P30C05,2022-11-03_10h38.24.302,t1_Paradigm,2021.1.4,59.91193440739027,
B,right,Target,0,2,2,2,1172.226908470504,1174.2268879391486,right,1,2,0.4839281119639054,P30C05,2022-11-03_10h38.24.302,t1_Paradigm,2021.1.4,59.91193440739027,
V,left,Distractor,0,3,3,3,1175.726945042028,1177.7287822783692,left,1,2,0.8541352413594723,P30C05,2022-11-03_10h38.24.302,t1_Paradigm,2021.1.4,59.91193440739027,
G,left,Pretarget,0,4,4,4,1179.226871899038,1181.2269148865598,left,1,2,1.0679440597305074,P30C05,2022-11-03_10h38.24.302,t1_Paradigm,2021.1.4,59.91193440739027,
B,left,Lure,0,5,5,5,1182.726781111909,1184.728191039234,left,1,2,0.8469017850002274,P30C05,2022-11-03_10h38.24.302,t1_Paradigm,2021.1.4,59.91193440739027,
G,right,Target,0,6,6,6,1186.226541472366,1188.2286780175054,right,1,2,0.7382539742975496,P30C05,2022-11-03_10h38.24.302,t1_Paradigm,2021.1.4,59.91193440739027,
Y,left,Pretarget,0,7,7,7,1189.7268760694424,1191.7287238923018,left,1,2,1.1904810177511536,P30C05,2022-11-03_10h38.24.302,t1_Paradigm,2021.1.4,59.91193440739027,
P,left,Distractor,0,8,8,8,1193.2269171322114,1195.2269633277901,left,1,2,1.3879808750352822,P30C05,2022-11-03_10h38.24.302,t1_Paradigm,2021.1.4,59.91193440739027,
Y,right,Target,0,9,9,9,1196.7268109465367,1198.7277598805376,right,1,2,0.639190461137332,P30C05,2022-11-03_10h38.24.302,t1_Paradigm,2021.1.4,59.91193440739027,
X,left,Distractor,0,10,10,10,1200.2265671365894,1202.2294011064805,None,0,2,,P30C05,2022-11-03_10h38.24.302,t1_Paradigm,2021.1.4,59.91193440739027,
Y,right,Target,0,11,11,11,1203.7265119585209,1205.7266537533142,right,1,2,0.7283203226397745,P30C05,2022-11-03_10h38.24.302,t1_Paradigm,2021.1.4,59.91193440739027,
N,left,Distractor,0,12,12,12,1207.2266136529506,1209.228950699675,None,0,2,,P30C05,2022-11-03_10h38.24.302,t1_Paradigm,2021.1.4,59.91193440739027,
Y,right,Target,0,13,13,13,1210.7266999488347,1212.7280595101765,None,0,2,,P30C05,2022-11-03_10h38.24.302,t1_Paradigm,2021.1.4,59.91193440739027,
Y,left,Lure,0,14,14,14,1214.226692249591,1216.2265071464935,right,0,2,1.092587471648585,P30C05,2022-11-03_10h38.24.302,t1_Paradigm,2021.1.4,59.91193440739027,
K,left,Distractor,0,15,15,15,1217.7266855127527,1219.7283969944692,left,1,2,0.9986523084226064,P30C05,2022-11-03_10h38.24.302,t1_Paradigm,2021.1.4,59.91193440739027,
T,left,Pretarget,0,16,16,16,1221.226752239687,1223.2266537533142,left,1,2,0.8763777668355033,P30C05,2022-11-03_10h38.24.302,t1_Paradigm,2021.1.4,59.91193440739027,
J,left,Distractor,0,17,17,17,1224.726673322264,1226.7282391595654,left,1,2,0.9267662266502157,P30C05,2022-11-03_10h38.24.302,t1_Paradigm,2021.1.4,59.91193440739027,
T,right,Target,0,18,18,18,1228.2269485708675,1230.2265353771509,right,1,2,0.5966013534343801,P30C05,2022-11-03_10h38.24.302,t1_Paradigm,2021.1.4,59.91193440739027,
S,left,Pretarget,0,19,19,19,1231.7267490316299,1233.7270399995614,left,1,2,1.2400013858568855,P30C05,2022-11-03_10h38.24.302,t1_Paradigm,2021.1.4,59.91193440739027,
R,left,Distractor,0,20,20,20,1235.227129824285,1237.2279196402524,None,0,2,,P30C05,2022-11-03_10h38.24.302,t1_Paradigm,2021.1.4,59.91193440739027,
S,right,Target,0,21,21,21,1238.7271237290697,1240.7280697758542,right,1,2,0.6869448110810481,P30C05,2022-11-03_10h38.24.302,t1_Paradigm,2021.1.4,59.91193440739027,
Q,left,Distractor,0,22,22,22,1242.226820891432,1244.2276488828356,left,1,2,0.9796989717287943,P30C05,2022-11-03_10h38.24.302,t1_Paradigm,2021.1.4,59.91193440739027,
D,left,Distractor,0,23,23,23,1245.726433682721,1247.7269498540554,left,1,2,1.3680792459635995,P30C05,2022-11-03_10h38.24.302,t1_Paradigm,2021.1.4,59.91193440739027,
F,left,Distractor,0,24,24,24,1249.2266643397743,1251.2264895023545,left,1,2,1.4046382277156226,P30C05,2022-11-03_10h38.24.302,t1_Paradigm,2021.1.4,59.91193440739027,
Z,left,Distractor,0,25,25,25,1252.7266482996638,1254.7288980880985,left,1,2,0.7983069323236123,P30C05,2022-11-03_10h38.24.302,t1_Paradigm,2021.1.4,59.91193440739027,
P,left,Distractor,0,26,26,26,1256.226561041316,1258.227111538581,left,1,2,1.1399693697458133,P30C05,2022-11-03_10h38.24.302,t1_Paradigm,2021.1.4,59.91193440739027,
H,left,Distractor,0,27,27,27,1259.7270820247359,1261.7451425678446,left,1,2,1.0460557003389113,P30C05,2022-11-03_10h38.24.302,t1_Paradigm,2021.1.4,59.91193440739027,
Z,left,Pretarget,0,28,28,28,1263.2270695134066,1265.2265318483114,left,1,2,1.3086505696410313,P30C05,2022-11-03_10h38.24.302,t1_Paradigm,2021.1.4,59.91193440739027,
J,left,Pretarget,0,29,29,29,1266.7271003104397,1268.7289061081246,left,1,2,1.0861470391973853,P30C05,2022-11-03_10h38.24.302,t1_Paradigm,2021.1.4,59.91193440739027,
Z,right,Target,0,30,30,30,1270.2266049913014,1272.2278618957498,right,1,2,1.091233043174725,P30C05,2022-11-03_10h38.24.302,t1_Paradigm,2021.1.4,59.91193440739027,
J,right,Target,0,31,31,31,1273.727128541097,1275.7273399499827,right,1,2,1.2877307132002898,P30C05,2022-11-03_10h38.24.302,t1_Paradigm,2021.1.4,59.91193440739027,
V,left,Pretarget,0,32,32,32,1277.2268266658648,1279.2285468092305,left,1,2,1.2586955141159706,P30C05,2022-11-03_10h38.24.302,t1_Paradigm,2021.1.4,59.91193440739027,
Z,left,Lure,0,33,33,33,1280.7270332627231,1282.7271798694856,None,0,2,,P30C05,2022-11-03_10h38.24.302,t1_Paradigm,2021.1.4,59.91193440739027,
V,right,Target,0,34,34,34,1284.2271105761756,1286.22945820936,right,1,2,0.7696676036575809,P30C05,2022-11-03_10h38.24.302,t1_Paradigm,2021.1.4,59.91193440739027,
X,left,Distractor,0,35,35,35,1287.7266402795794,1289.727705344092,left,1,2,1.0635301371803507,P30C05,2022-11-03_10h38.24.302,t1_Paradigm,2021.1.4,59.91193440739027,
S,left,Distractor,0,36,36,36,1291.2266515076626,1293.227620331454,left,1,2,0.9555184778873809,P30C05,2022-11-03_10h38.24.302,t1_Paradigm,2021.1.4,59.91193440739027,
Q,left,Distractor,0,37,37,37,1294.7269707062514,1296.727199117653,left,1,2,1.2801491860300303,P30C05,2022-11-03_10h38.24.302,t1_Paradigm,2021.1.4,59.91193440739027,
P,left,Distractor,0,38,38,38,1298.2270983856288,1300.2295582997613,left,1,2,0.9937138736131601,P30C05,2022-11-03_10h38.24.302,t1_Paradigm,2021.1.4,59.91193440739027,
S,left,Lure,0,39,39,39,1301.726997332822,1303.7266351467115,left,1,2,1.2725147264427505,P30C05,2022-11-03_10h38.24.302,t1_Paradigm,2021.1.4,59.91193440739027,
K,left,Pretarget,0,40,40,40,1305.227115388203,1307.2290642638109,left,1,2,0.7304244667175226,P30C05,2022-11-03_10h38.24.302,t1_Paradigm,2021.1.4,59.91193440739027,
L,left,Distractor,0,41,41,41,1308.7271837191074,1310.727309473732,left,1,2,0.7039361192728393,P30C05,2022-11-03_10h38.24.302,t1_Paradigm,2021.1.4,59.91193440739027,
K,right,Target,0,42,42,42,1312.227148110047,1314.2272523709107,right,1,2,0.8358296051155776,P30C05,2022-11-03_10h38.24.302,t1_Paradigm,2021.1.4,59.91193440739027,
B,left,Distractor,0,43,43,43,1315.7270387163735,1317.7285570749664,left,1,2,1.1907097500516102,P30C05,2022-11-03_10h38.24.302,t1_Paradigm,2021.1.4,59.91193440739027,
N,left,Distractor,0,44,44,44,1319.226769883826,1321.2289497372694,left,1,2,0.6982399487751536,P30C05,2022-11-03_10h38.24.302,t1_Paradigm,2021.1.4,59.91193440739027,
S,left,Pretarget,0,45,45,45,1322.7273967320216,1324.7278821063228,left,1,2,0.9112377782585099,P30C05,2022-11-03_10h38.24.302,t1_Paradigm,2021.1.4,59.91193440739027,
Z,left,Distractor,0,46,46,46,1326.2268962800154,1328.2266088409233,left,1,2,1.2204754165722989,P30C05,2022-11-03_10h38.24.302,t1_Paradigm,2021.1.4,59.91193440739027,
S,right,Target,0,47,47,47,1329.7272109873593,1331.7272725814255,None,0,2,,P30C05,2022-11-03_10h38.24.302,t1_Paradigm,2021.1.4,59.91193440739027,
C,left,Distractor,0,48,48,48,1333.226677171886,1335.2287800327176,left,1,2,1.0823849875014275,P30C05,2022-11-03_10h38.24.302,t1_Paradigm,2021.1.4,59.91193440739027,
T,left,Pretarget,0,49,49,49,1336.7269347763504,1338.7282398011885,None,0,2,,P30C05,2022-11-03_10h38.24.302,t1_Paradigm,2021.1.4,59.91193440739027,
S,left,Lure,0,50,50,50,1340.2273261554656,1342.227146185236,right,0,2,1.2679888437269256,P30C05,2022-11-03_10h38.24.302,t1_Paradigm,2021.1.4,59.91193440739027,
T,right,Target,0,51,51,51,1343.7270589269465,1345.7284634005628,right,1,2,0.9988428651122376,P30C05,2022-11-03_10h38.24.302,t1_Paradigm,2021.1.4,59.91193440739027,
N,left,Pretarget,0,52,52,52,1347.2267721294193,1349.2283177562058,left,1,2,1.2268949968274683,P30C05,2022-11-03_10h38.24.302,t1_Paradigm,2021.1.4,59.91193440739027,
B,left,Distractor,0,53,53,53,1350.7273255138425,1352.7284877815982,left,1,2,0.7027908540912904,P30C05,2022-11-03_10h38.24.302,t1_Paradigm,2021.1.4,59.91193440739027,
N,right,Target,0,54,54,54,1354.2268106257543,1356.2291582589387,right,1,2,0.786057406978216,P30C05,2022-11-03_10h38.24.302,t1_Paradigm,2021.1.4,59.91193440739027,
N,left,Lure,0,55,55,55,1357.7269026960712,1359.7272581453435,left,1,2,0.9839220167486928,P30C05,2022-11-03_10h38.24.302,t1_Paradigm,2021.1.4,59.91193440739027,
X,left,Distractor,0,56,56,56,1361.2268696534447,1363.226767317392,left,1,2,1.036265768285375,P30C05,2022-11-03_10h38.24.302,t1_Paradigm,2021.1.4,59.91193440739027,
W,left,Distractor,0,57,57,57,1364.7269726310624,1366.7289988200646,None,0,2,,P30C05,2022-11-03_10h38.24.302,t1_Paradigm,2021.1.4,59.91193440739027,
S,left,Distractor,0,58,58,58,1368.2269033376942,1370.2293552317424,None,0,2,,P30C05,2022-11-03_10h38.24.302,t1_Paradigm,2021.1.4,59.91193440739027,
L,left,Distractor,0,59,59,59,1371.7268369315425,1373.7274294539238,left,1,2,0.9199116381350905,P30C05,2022-11-03_10h38.24.302,t1_Paradigm,2021.1.4,59.91193440739027,
K,left,Pretarget,0,60,60,60,1375.227251408447,1377.2287896568305,left,1,2,0.7948820440797135,P30C05,2022-11-03_10h38.24.302,t1_Paradigm,2021.1.4,59.91193440739027,
V,left,Pretarget,0,61,61,61,1378.7272883007536,1380.7277005320648,left,1,2,0.6236786944209598,P30C05,2022-11-03_10h38.24.302,t1_Paradigm,2021.1.4,59.91193440739027,
K,right,Target,0,62,62,62,1382.2272234986303,1384.228821416269,right,1,2,0.6427433495991863,P30C05,2022-11-03_10h38.24.302,t1_Paradigm,2021.1.4,59.91193440739027,
V,right,Target,0,63,63,63,1385.7273104361375,1387.7284428692074,right,1,2,0.6629529491765425,P30C05,2022-11-03_10h38.24.302,t1_Paradigm,2021.1.4,59.91193440739027,
R,left,Distractor,0,0,0,0,1501.5542788326275,1503.5613958376343,left,1,3,0.47818638756871223,P30C05,2022-11-03_10h38.24.302,t1_Paradigm,2021.1.4,59.91193440739027,
P,left,Lure,0,1,1,1,1505.0605280667078,1507.0601921863854,left,1,3,1.123321641178336,P30C05,2022-11-03_10h38.24.302,t1_Paradigm,2021.1.4,59.91193440739027,
V,left,Distractor,0,2,2,2,1508.5605203674058,1510.5627335843747,left,1,3,0.7567501672892831,P30C05,2022-11-03_10h38.24.302,t1_Paradigm,2021.1.4,59.91193440739027,
P,left,Pretarget,0,3,3,3,1512.0604507532553,1514.0620836383314,left,1,3,1.1615067711682059,P30C05,2022-11-03_10h38.24.302,t1_Paradigm,2021.1.4,59.91193440739027,
Z,left,Distractor,0,4,4,4,1515.560769310221,1517.5614365795627,left,1,3,0.5901997381006368,P30C05,2022-11-03_10h38.24.302,t1_Paradigm,2021.1.4,59.91193440739027,
L,left,Pretarget,0,5,5,5,1519.0605335203581,1521.0607292099157,left,1,3,0.8831941798562184,P30C05,2022-11-03_10h38.24.302,t1_Paradigm,2021.1.4,59.91193440739027,
P,right,Target,0,6,6,6,1522.560824809072,1524.5631907280185,right,1,3,1.380675558873918,P30C05,2022-11-03_10h38.24.302,t1_Paradigm,2021.1.4,59.91193440739027,
S,left,Distractor,0,7,7,7,1526.060536086734,1528.0601392539684,None,0,3,,P30C05,2022-11-03_10h38.24.302,t1_Paradigm,2021.1.4,59.91193440739027,
L,right,Target,0,8,8,8,1529.5609675662126,1531.5606891095522,right,1,3,1.3909255218459293,P30C05,2022-11-03_10h38.24.302,t1_Paradigm,2021.1.4,59.91193440739027,
D,left,Distractor,0,9,9,9,1533.060839886777,1535.0609268242843,None,0,3,,P30C05,2022-11-03_10h38.24.302,t1_Paradigm,2021.1.4,59.91193440739027,
G,left,Distractor,0,10,10,10,1536.5607815007097,1538.5614375419682,left,1,3,0.9499987488961779,P30C05,2022-11-03_10h38.24.302,t1_Paradigm,2021.1.4,59.91193440739027,
M,left,Pretarget,0,11,11,11,1540.0603618909372,1542.062611037807,left,1,3,0.6970667737768963,P30C05,2022-11-03_10h38.24.302,t1_Paradigm,2021.1.4,59.91193440739027,
Y,left,Distractor,0,12,12,12,1543.560478663072,1545.5626591581386,left,1,3,0.8130150886136107,P30C05,2022-11-03_10h38.24.302,t1_Paradigm,2021.1.4,59.91193440739027,
V,left,Distractor,0,13,13,13,1547.060897310439,1549.0627387171844,left,1,3,0.5612149049993604,P30C05,2022-11-03_10h38.24.302,t1_Paradigm,2021.1.4,59.91193440739027,
M,right,Target,0,14,14,14,1550.5605986432638,1552.562406686542,right,1,3,0.45309256884502247,P30C05,2022-11-03_10h38.24.302,t1_Paradigm,2021.1.4,59.91193440739027,
S,left,Pretarget,0,15,15,15,1554.0606926383916,1556.0622055433341,left,1,3,1.0333310663118027,P30C05,2022-11-03_10h38.24.302,t1_Paradigm,2021.1.4,59.91193440739027,
Q,left,Distractor,0,16,16,16,1557.5607102825306,1559.5632606630097,left,1,3,0.828445692313835,P30C05,2022-11-03_10h38.24.302,t1_Paradigm,2021.1.4,59.91193440739027,
R,left,Pretarget,0,17,17,17,1561.0608289794764,1563.0610169697902,left,1,3,0.9147130324854515,P30C05,2022-11-03_10h38.24.302,t1_Paradigm,2021.1.4,59.91193440739027,
S,right,Target,0,18,18,18,1564.5606207786477,1566.5604199562222,right,1,3,1.0312872331705876,P30C05,2022-11-03_10h38.24.302,t1_Paradigm,2021.1.4,59.91193440739027,
F,left,Distractor,0,19,19,19,1568.0604491492268,1570.0609486388857,left,1,3,0.7147298425552435,P30C05,2022-11-03_10h38.24.302,t1_Paradigm,2021.1.4,59.91193440739027,
R,right,Target,0,20,20,20,1571.5606063425075,1573.5606271947036,right,1,3,1.2311526885605417,P30C05,2022-11-03_10h38.24.302,t1_Paradigm,2021.1.4,59.91193440739027,
P,left,Distractor,0,21,21,21,1575.0608857615734,1577.0606711446308,left,1,3,0.8509567294968292,P30C05,2022-11-03_10h38.24.302,t1_Paradigm,2021.1.4,59.91193440739027,
L,left,Distractor,0,22,22,22,1578.5608793455176,1580.5610843383474,left,1,3,1.0785257325624116,P30C05,2022-11-03_10h38.24.302,t1_Paradigm,2021.1.4,59.91193440739027,
R,right,Target,0,23,23,23,1582.060884157545,1584.0615280083148,right,1,3,1.3381339299376123,P30C05,2022-11-03_10h38.24.302,t1_Paradigm,2021.1.4,59.91193440739027,
H,left,Pretarget,0,24,24,24,1585.5609098217683,1587.560846302833,left,1,3,0.6228240763884969,P30C05,2022-11-03_10h38.24.302,t1_Paradigm,2021.1.4,59.91193440739027,
G,left,Pretarget,0,25,25,25,1589.0605514852796,1591.0634011744987,left,1,3,1.0084919648361392,P30C05,2022-11-03_10h38.24.302,t1_Paradigm,2021.1.4,59.91193440739027,
T,left,Distractor,0,26,26,26,1592.5609489596682,1594.5629392188275,left,1,3,1.2207009407575242,P30C05,2022-11-03_10h38.24.302,t1_Paradigm,2021.1.4,59.91193440739027,
H,right,Target,0,27,27,27,1596.0610891503748,1598.0614397876197,right,1,3,0.45827513438416645,P30C05,2022-11-03_10h38.24.302,t1_Paradigm,2021.1.4,59.91193440739027,
G,right,Target,0,28,28,28,1599.5607430044329,1601.560904368118,right,1,3,0.5588868407648988,P30C05,2022-11-03_10h38.24.302,t1_Paradigm,2021.1.4,59.91193440739027,
D,left,Distractor,0,29,29,29,1603.0609335611225,1605.0629000808694,left,1,3,0.8167437769006938,P30C05,2022-11-03_10h38.24.302,t1_Paradigm,2021.1.4,59.91193440739027,
N,left,Pretarget,0,30,30,30,1606.5609938720008,1608.562131758721,left,1,3,0.9821226351195946,P30C05,2022-11-03_10h38.24.302,t1_Paradigm,2021.1.4,59.91193440739027,
V,left,Distractor,0,31,31,31,1610.0609807191067,1612.061575166299,left,1,3,0.8582472887355834,P30C05,2022-11-03_10h38.24.302,t1_Paradigm,2021.1.4,59.91193440739027,
R,left,Distractor,0,32,32,32,1613.5609470348572,1615.5627598901629,left,1,3,0.7328770023887046,P30C05,2022-11-03_10h38.24.302,t1_Paradigm,2021.1.4,59.91193440739027,
N,right,Target,0,33,33,33,1617.0610166490078,1619.060845019645,right,1,3,1.1548129047150724,P30C05,2022-11-03_10h38.24.302,t1_Paradigm,2021.1.4,59.91193440739027,
Z,left,Distractor,0,34,34,34,1620.56071381137,1622.5605081769172,left,1,3,0.9673734161187895,P30C05,2022-11-03_10h38.24.302,t1_Paradigm,2021.1.4,59.91193440739027,
N,left,Lure,0,35,35,35,1624.0611112857587,1626.0631182266516,left,1,3,1.416463652101811,P30C05,2022-11-03_10h38.24.302,t1_Paradigm,2021.1.4,59.91193440739027,
Y,left,Pretarget,0,36,36,36,1627.5606348939473,1629.563297555258,left,1,3,0.8444957657484338,P30C05,2022-11-03_10h38.24.302,t1_Paradigm,2021.1.4,59.91193440739027,
Y,left,Lure,0,37,37,37,1631.0606082673185,1633.0609858519747,left,1,3,1.1227538206148893,P30C05,2022-11-03_10h38.24.302,t1_Paradigm,2021.1.4,59.91193440739027,
B,left,Distractor,0,38,38,38,1634.560986172757,1636.5633036505315,left,1,3,0.6925415326841176,P30C05,2022-11-03_10h38.24.302,t1_Paradigm,2021.1.4,59.91193440739027,
Y,right,Target,0,39,39,39,1638.0608296210994,1640.073674876825,right,1,3,1.0861678913934156,P30C05,2022-11-03_10h38.24.302,t1_Paradigm,2021.1.4,59.91193440739027,
J,left,Distractor,0,40,40,40,1641.5608187137987,1643.5626392684062,left,1,3,0.7168788989656605,P30C05,2022-11-03_10h38.24.302,t1_Paradigm,2021.1.4,59.91193440739027,
X,left,Distractor,0,41,41,41,1645.060734021943,1647.061044238042,left,1,3,0.6428395903785713,P30C05,2022-11-03_10h38.24.302,t1_Paradigm,2021.1.4,59.91193440739027,
W,left,Pretarget,0,42,42,42,1648.5605736206635,1650.5606422724086,left,1,3,0.551001513551455,P30C05,2022-11-03_10h38.24.302,t1_Paradigm,2021.1.4,59.91193440739027,
S,left,Pretarget,0,43,43,43,1652.0610182530363,1654.0617355675786,left,1,3,0.6823454645927995,P30C05,2022-11-03_10h38.24.302,t1_Paradigm,2021.1.4,59.91193440739027,
R,left,Distractor,0,44,44,44,1655.5606461220304,1657.5616524796933,left,1,3,0.7340713503072038,P30C05,2022-11-03_10h38.24.302,t1_Paradigm,2021.1.4,59.91193440739027,
W,right,Target,0,45,45,45,1659.061098453647,1661.0622000896838,left,0,3,0.8976825863937847,P30C05,2022-11-03_10h38.24.302,t1_Paradigm,2021.1.4,59.91193440739027,
S,right,Target,0,46,46,46,1662.5611542732804,1664.5614856623579,right,1,3,1.2542985940817744,P30C05,2022-11-03_10h38.24.302,t1_Paradigm,2021.1.4,59.91193440739027,
D,left,Distractor,0,47,47,47,1666.061041029985,1668.0613852511742,left,1,3,1.14656924107112,P30C05,2022-11-03_10h38.24.302,t1_Paradigm,2021.1.4,59.91193440739027,
T,left,Distractor,0,48,48,48,1669.5611818623147,1671.5622328115278,None,0,3,,P30C05,2022-11-03_10h38.24.302,t1_Paradigm,2021.1.4,59.91193440739027,
S,right,Target,0,49,49,49,1673.0609582629404,1675.062486245588,left,0,3,1.1533041702350602,P30C05,2022-11-03_10h38.24.302,t1_Paradigm,2021.1.4,59.91193440739027,
K,left,Distractor,0,50,50,50,1676.5610493708518,1678.563030968362,left,1,3,0.9648374717799015,P30C05,2022-11-03_10h38.24.302,t1_Paradigm,2021.1.4,59.91193440739027,
S,left,Lure,0,51,51,51,1680.060685580771,1682.0606361771352,right,0,3,0.9551598206744529,P30C05,2022-11-03_10h38.24.302,t1_Paradigm,2021.1.4,59.91193440739027,
T,left,Pretarget,0,52,52,52,1683.5609768694849,1685.5611600477714,right,0,3,1.4546622558264062,P30C05,2022-11-03_10h38.24.302,t1_Paradigm,2021.1.4,59.91193440739027,
V,left,Distractor,0,53,53,53,1687.0610528996913,1689.0622886312194,None,0,3,,P30C05,2022-11-03_10h38.24.302,t1_Paradigm,2021.1.4,59.91193440739027,
B,left,Distractor,0,54,54,54,1690.5606727486593,1692.5617374923895,None,0,3,,P30C05,2022-11-03_10h38.24.302,t1_Paradigm,2021.1.4,59.91193440739027,
T,right,Target,0,55,55,55,1694.0608485484845,1696.062552972522,None,0,3,,P30C05,2022-11-03_10h38.24.302,t1_Paradigm,2021.1.4,59.91193440739027,
Y,left,Pretarget,0,56,56,56,1697.560986172757,1699.560662162141,None,0,3,,P30C05,2022-11-03_10h38.24.302,t1_Paradigm,2021.1.4,59.91193440739027,
T,left,Lure,0,57,57,57,1701.0608706838102,1703.0607641773531,None,0,3,,P30C05,2022-11-03_10h38.24.302,t1_Paradigm,2021.1.4,59.91193440739027,
P,left,Pretarget,0,58,58,58,1704.5612970304792,1706.562262325373,left,1,3,1.1896725953556597,P30C05,2022-11-03_10h38.24.302,t1_Paradigm,2021.1.4,59.91193440739027,
Y,right,Target,0,59,59,59,1708.0610949248075,1710.0631268883008,left,0,3,1.4646661632577889,P30C05,2022-11-03_10h38.24.302,t1_Paradigm,2021.1.4,59.91193440739027,
R,left,Distractor,0,60,60,60,1711.5608677965938,1713.5627088825568,left,1,3,0.7330896944622509,P30C05,2022-11-03_10h38.24.302,t1_Paradigm,2021.1.4,59.91193440739027,
P,right,Target,0,61,61,61,1715.0611353459535,1717.0627858751686,right,1,3,1.2170441123307683,P30C05,2022-11-03_10h38.24.302,t1_Paradigm,2021.1.4,59.91193440739027,
L,left,Distractor,0,62,62,62,1718.561114172975,1720.5628339955583,left,1,3,1.061106794513762,P30C05,2022-11-03_10h38.24.302,t1_Paradigm,2021.1.4,59.91193440739027,
V,left,Distractor,0,63,63,63,1722.0611789750983,1724.0606518964632,left,1,3,1.163322192907799,P30C05,2022-11-03_10h38.24.302,t1_Paradigm,2021.1.4,59.91193440739027,
H,left,Lure,0,0,0,0,1734.2254215506255,1736.2284659669967,left,1,3,0.7074399248813279,P30C05,2022-11-03_10h38.24.302,t1_Paradigm,2021.1.4,59.91193440739027,
B,left,Distractor,0,1,1,1,1737.7275520004914,1739.7284848943818,left,1,3,0.3914201994193718,P30C05,2022-11-03_10h38.24.302,t1_Paradigm,2021.1.4,59.91193440739027,
T,left,Distractor,0,2,2,2,1741.2279523620964,1743.229783503164,left,1,3,0.5860681217745878,P30C05,2022-11-03_10h38.24.302,t1_Paradigm,2021.1.4,59.91193440739027,
R,left,Distractor,0,3,3,3,1744.7277852239786,1746.7277499356424,left,1,3,0.5599875143379904,P30C05,2022-11-03_10h38.24.302,t1_Paradigm,2021.1.4,59.91193440739027,
H,left,Pretarget,0,4,4,4,1748.2278166626347,1750.2298341899877,None,0,3,,P30C05,2022-11-03_10h38.24.302,t1_Paradigm,2021.1.4,59.91193440739027,
K,left,Distractor,0,5,5,5,1751.727605895314,1753.727798697655,left,1,3,0.712128775252495,P30C05,2022-11-03_10h38.24.302,t1_Paradigm,2021.1.4,59.91193440739027,
G,left,Distractor,0,6,6,6,1755.2278179458226,1757.2299836839666,left,1,3,0.938099219056312,P30C05,2022-11-03_10h38.24.302,t1_Paradigm,2021.1.4,59.91193440739027,
H,right,Target,0,7,7,7,1758.7277329331264,1760.7291977176792,None,0,3,,P30C05,2022-11-03_10h38.24.302,t1_Paradigm,2021.1.4,59.91193440739027,
Y,left,Pretarget,0,8,8,8,1762.227838477178,1764.2303615894052,left,1,3,0.6095499075599946,P30C05,2022-11-03_10h38.24.302,t1_Paradigm,2021.1.4,59.91193440739027,
S,left,Distractor,0,9,9,9,1765.7273893535603,1767.7276963616605,left,1,3,0.7121987102436833,P30C05,2022-11-03_10h38.24.302,t1_Paradigm,2021.1.4,59.91193440739027,
P,left,Distractor,0,10,10,10,1769.2277027777163,1771.2284162426367,left,1,3,0.7476846074569039,P30C05,2022-11-03_10h38.24.302,t1_Paradigm,2021.1.4,59.91193440739027,
Y,right,Target,0,11,11,11,1772.7278481012327,1774.728745065222,right,1,3,0.7032967596896924,P30C05,2022-11-03_10h38.24.302,t1_Paradigm,2021.1.4,59.91193440739027,
H,left,Lure,0,12,12,12,1776.2279510789085,1778.2281746782828,left,1,3,1.0278106956393458,P30C05,2022-11-03_10h38.24.302,t1_Paradigm,2021.1.4,59.91193440739027,
Q,left,Distractor,0,13,13,13,1779.7274676294182,1781.7408701192471,left,1,3,0.6194524413440377,P30C05,2022-11-03_10h38.24.302,t1_Paradigm,2021.1.4,59.91193440739027,
V,left,Pretarget,0,14,14,14,1783.228003690485,1785.2296009665006,left,1,3,0.730517499439884,P30C05,2022-11-03_10h38.24.302,t1_Paradigm,2021.1.4,59.91193440739027,
G,left,Distractor,0,15,15,15,1786.7278689534287,1788.7285750398878,left,1,3,0.7514168245834298,P30C05,2022-11-03_10h38.24.302,t1_Paradigm,2021.1.4,59.91193440739027,
Z,left,Pretarget,0,16,16,16,1790.227934397175,1792.2292567453696,left,1,3,0.7228458267636597,P30C05,2022-11-03_10h38.24.302,t1_Paradigm,2021.1.4,59.91193440739027,
V,right,Target,0,17,17,17,1793.7276334843482,1795.7284383779624,right,1,3,0.5675472269067541,P30C05,2022-11-03_10h38.24.302,t1_Paradigm,2021.1.4,59.91193440739027,
N,left,Distractor,0,18,18,18,1797.2277024568757,1799.229149276507,None,0,3,,P30C05,2022-11-03_10h38.24.302,t1_Paradigm,2021.1.4,59.91193440739027,
Z,right,Target,0,19,19,19,1800.727489123179,1802.7289834215771,right,1,3,0.9911448866478167,P30C05,2022-11-03_10h38.24.302,t1_Paradigm,2021.1.4,59.91193440739027,
R,left,Distractor,0,20,20,20,1804.2276408628095,1806.2294720038772,left,1,3,0.5787666552350856,P30C05,2022-11-03_10h38.24.302,t1_Paradigm,2021.1.4,59.91193440739027,
P,left,Distractor,0,21,21,21,1807.7279497956624,1809.7289660982206,left,1,3,0.8071896347682923,P30C05,2022-11-03_10h38.24.302,t1_Paradigm,2021.1.4,59.91193440739027,
Z,right,Target,0,22,22,22,1811.2275019552908,1813.2280508484691,left,0,3,0.5399886820814572,P30C05,2022-11-03_10h38.24.302,t1_Paradigm,2021.1.4,59.91193440739027,
D,left,Pretarget,0,23,23,23,1814.7279818759416,1816.7288644037908,left,1,3,0.6071788558037952,P30C05,2022-11-03_10h38.24.302,t1_Paradigm,2021.1.4,59.91193440739027,
K,left,Distractor,0,24,24,24,1818.227962627774,1820.2280473196297,left,1,3,0.6600192096666433,P30C05,2022-11-03_10h38.24.302,t1_Paradigm,2021.1.4,59.91193440739027,
W,left,Distractor,0,25,25,25,1821.7275000304799,1823.7275144665618,left,1,3,0.6966519760317169,P30C05,2022-11-03_10h38.24.302,t1_Paradigm,2021.1.4,59.91193440739027,
D,right,Target,0,26,26,26,1825.2275443012477,1827.2278901264071,right,1,3,0.7483175509260036,P30C05,2022-11-03_10h38.24.302,t1_Paradigm,2021.1.4,59.91193440739027,
G,left,Pretarget,0,27,27,27,1828.7279738558573,1830.7285188994138,left,1,3,0.9275704786996357,P30C05,2022-11-03_10h38.24.302,t1_Paradigm,2021.1.4,59.91193440739027,
V,left,Distractor,0,28,28,28,1832.2279148281668,1834.228533335554,left,1,3,0.9958039023913443,P30C05,2022-11-03_10h38.24.302,t1_Paradigm,2021.1.4,59.91193440739027,
D,right,Target,0,29,29,29,1835.728112121753,1837.727581835119,left,0,3,1.1766201011487283,P30C05,2022-11-03_10h38.24.302,t1_Paradigm,2021.1.4,59.91193440739027,
G,right,Target,0,30,30,30,1839.227982196724,1841.227364972583,right,1,3,0.7808899191441014,P30C05,2022-11-03_10h38.24.302,t1_Paradigm,2021.1.4,59.91193440739027,
B,left,Pretarget,0,31,31,31,1842.7279642318026,1844.7288730654982,left,1,3,0.7671672683791257,P30C05,2022-11-03_10h38.24.302,t1_Paradigm,2021.1.4,59.91193440739027,
N,left,Distractor,0,32,32,32,1846.2281477308716,1848.2287030401058,left,1,3,0.8354029376059771,P30C05,2022-11-03_10h38.24.302,t1_Paradigm,2021.1.4,59.91193440739027,
F,left,Distractor,0,33,33,33,1849.72782275785,1851.7289949704427,left,1,3,0.6956019892822951,P30C05,2022-11-03_10h38.24.302,t1_Paradigm,2021.1.4,59.91193440739027,
B,right,Target,0,34,34,34,1853.2276501660817,1855.2303391332389,left,0,3,1.3218788636731915,P30C05,2022-11-03_10h38.24.302,t1_Paradigm,2021.1.4,59.91193440739027,
Q,left,Pretarget,0,35,35,35,1856.727916111413,1858.7297270419076,left,1,3,1.2304312035557814,P30C05,2022-11-03_10h38.24.302,t1_Paradigm,2021.1.4,59.91193440739027,
S,left,Pretarget,0,36,36,36,1860.227677113493,1862.2464876930462,None,0,3,,P30C05,2022-11-03_10h38.24.302,t1_Paradigm,2021.1.4,59.91193440739027,
W,left,Distractor,0,37,37,37,1863.7277146473643,1865.728564132587,left,1,3,0.8875381674733944,P30C05,2022-11-03_10h38.24.302,t1_Paradigm,2021.1.4,59.91193440739027,
Q,right,Target,0,38,38,38,1867.2279809135362,1869.2298014680855,right,1,3,1.0501067951554433,P30C05,2022-11-03_10h38.24.302,t1_Paradigm,2021.1.4,59.91193440739027,
S,right,Target,0,39,39,39,1870.7278343067737,1872.7286337467376,right,1,3,0.5273121685022488,P30C05,2022-11-03_10h38.24.302,t1_Paradigm,2021.1.4,59.91193440739027,
T,left,Distractor,0,40,40,40,1874.2280752295046,1876.2294174674316,left,1,3,1.1067412810516544,P30C05,2022-11-03_10h38.24.302,t1_Paradigm,2021.1.4,59.91193440739027,
G,left,Distractor,0,41,41,41,1877.7281018560752,1879.7297607262153,left,1,3,1.3023188892984763,P30C05,2022-11-03_10h38.24.302,t1_Paradigm,2021.1.4,59.91193440739027,
D,left,Distractor,0,42,42,42,1881.2277701462153,1883.229646841297,left,1,3,1.4184529488557018,P30C05,2022-11-03_10h38.24.302,t1_Paradigm,2021.1.4,59.91193440739027,
S,left,Lure,0,43,43,43,1884.7277877903543,1886.7293430412537,None,0,3,,P30C05,2022-11-03_10h38.24.302,t1_Paradigm,2021.1.4,59.91193440739027,
Z,left,Pretarget,0,44,44,44,1888.2281111593475,1890.2282738062786,left,1,3,0.83582094340818,P30C05,2022-11-03_10h38.24.302,t1_Paradigm,2021.1.4,59.91193440739027,
J,left,Distractor,0,45,45,45,1891.7281053849147,1893.7297777287313,left,1,3,0.7904639510670677,P30C05,2022-11-03_10h38.24.302,t1_Paradigm,2021.1.4,59.91193440739027,
M,left,Pretarget,0,46,46,46,1895.2276501660817,1897.230130290729,left,1,3,0.7462156524416059,P30C05,2022-11-03_10h38.24.302,t1_Paradigm,2021.1.4,59.91193440739027,
Z,right,Target,0,47,47,47,1898.7280453948188,1900.7282221570495,right,1,3,1.0399870780529454,P30C05,2022-11-03_10h38.24.302,t1_Paradigm,2021.1.4,59.91193440739027,
P,left,Distractor,0,48,48,48,1902.2280861367472,1904.228805055318,left,1,3,0.7394197708345018,P30C05,2022-11-03_10h38.24.302,t1_Paradigm,2021.1.4,59.91193440739027,
M,right,Target,0,49,49,49,1905.728057906148,1907.7279927832424,right,1,3,1.0002399603254162,P30C05,2022-11-03_10h38.24.302,t1_Paradigm,2021.1.4,59.91193440739027,
K,left,Distractor,0,50,50,50,1909.2281496556825,1911.2276187274256,right,0,3,1.164772862161044,P30C05,2022-11-03_10h38.24.302,t1_Paradigm,2021.1.4,59.91193440739027,
Y,left,Distractor,0,51,51,51,1912.727636692347,1914.7299262603046,left,1,3,0.6862550855148584,P30C05,2022-11-03_10h38.24.302,t1_Paradigm,2021.1.4,59.91193440739027,
X,left,Distractor,0,52,52,52,1916.2281490140595,1918.2300593933905,left,1,3,0.6582929710275494,P30C05,2022-11-03_10h38.24.302,t1_Paradigm,2021.1.4,59.91193440739027,
F,left,Pretarget,0,53,53,53,1919.7279215650633,1921.7292111913557,left,1,3,0.8869931239169091,P30C05,2022-11-03_10h38.24.302,t1_Paradigm,2021.1.4,59.91193440739027,
M,left,Lure,0,54,54,54,1923.2280752295046,1925.2299429420382,left,1,3,0.8424018873483874,P30C05,2022-11-03_10h38.24.302,t1_Paradigm,2021.1.4,59.91193440739027,
V,left,Distractor,0,55,55,55,1926.728165695793,1928.7286937368335,left,1,3,0.7675547978724353,P30C05,2022-11-03_10h38.24.302,t1_Paradigm,2021.1.4,59.91193440739027,
F,right,Target,0,56,56,56,1930.228208683373,1932.2285612453707,right,1,3,0.9638253396842629,P30C05,2022-11-03_10h38.24.302,t1_Paradigm,2021.1.4,59.91193440739027,
S,left,Distractor,0,57,57,57,1933.7278307779343,1935.729019993043,left,1,3,0.6633760877302848,P30C05,2022-11-03_10h38.24.302,t1_Paradigm,2021.1.4,59.91193440739027,
D,left,Distractor,0,58,58,58,1937.2281766030937,1939.2294376780046,left,1,3,0.9228187510743737,P30C05,2022-11-03_10h38.24.302,t1_Paradigm,2021.1.4,59.91193440739027,
F,right,Target,0,59,59,59,1940.7281778862816,1942.7285365435528,right,1,3,1.1197693942813203,P30C05,2022-11-03_10h38.24.302,t1_Paradigm,2021.1.4,59.91193440739027,
V,left,Pretarget,0,60,60,60,1944.2279616653686,1946.2291056473623,left,1,3,0.803135652677156,P30C05,2022-11-03_10h38.24.302,t1_Paradigm,2021.1.4,59.91193440739027,
J,left,Distractor,0,61,61,61,1947.7281563925208,1949.7283004329074,left,1,3,1.0801396903116256,P30C05,2022-11-03_10h38.24.302,t1_Paradigm,2021.1.4,59.91193440739027,
V,left,Lure,0,62,62,62,1951.2282096457784,1953.2289208650473,right,0,3,0.9872156967758201,P30C05,2022-11-03_10h38.24.302,t1_Paradigm,2021.1.4,59.91193440739027,
V,right,Target,0,63,63,63,1954.7283103777445,1956.7279440212296,right,1,3,1.0243476319592446,P30C05,2022-11-03_10h38.24.302,t1_Paradigm,2021.1.4,59.91193440739027,
R,left,Distractor,0,0,0,0,2046.7614983661333,2048.7624617362744,left,1,4,0.974077869032044,P30C05,2022-11-03_10h38.24.302,t1_Paradigm,2021.1.4,59.91193440739027,
F,left,Distractor,0,1,1,1,2050.2616703163367,2052.26365929225,left,1,4,0.2569285335484892,P30C05,2022-11-03_10h38.24.302,t1_Paradigm,2021.1.4,59.91193440739027,
P,left,Pretarget,0,2,2,2,2053.7618265471538,2055.762332132028,left,1,4,0.48587185476208106,P30C05,2022-11-03_10h38.24.302,t1_Paradigm,2021.1.4,59.91193440739027,
H,left,Distractor,0,3,3,3,2057.26171554951,2059.2616847524187,left,1,4,0.538732098415494,P30C05,2022-11-03_10h38.24.302,t1_Paradigm,2021.1.4,59.91193440739027,
Z,left,Distractor,0,4,4,4,2060.761511839868,2062.7625743379467,left,1,4,0.5256350126001053,P30C05,2022-11-03_10h38.24.302,t1_Paradigm,2021.1.4,59.91193440739027,
T,left,Distractor,0,5,5,5,2064.2616866772296,2066.2609212422976,right,0,4,0.3076650641160086,P30C05,2022-11-03_10h38.24.302,t1_Paradigm,2021.1.4,59.91193440739027,
P,right,Target,0,6,6,6,2067.761374215537,2069.7617915797164,right,1,4,0.8866845118463971,P30C05,2022-11-03_10h38.24.302,t1_Paradigm,2021.1.4,59.91193440739027,
G,left,Distractor,0,7,7,7,2071.261682186043,2073.263724735996,left,1,4,0.6487423576763831,P30C05,2022-11-03_10h38.24.302,t1_Paradigm,2021.1.4,59.91193440739027,
L,left,Distractor,0,8,8,8,2074.76121798472,2076.7632153015,left,1,4,0.8134712698520161,P30C05,2022-11-03_10h38.24.302,t1_Paradigm,2021.1.4,59.91193440739027,
P,left,Lure,0,9,9,9,2078.2617165119154,2080.26190097339,left,1,4,1.1385915227001533,P30C05,2022-11-03_10h38.24.302,t1_Paradigm,2021.1.4,59.91193440739027,
Q,left,Pretarget,0,10,10,10,2081.761684110854,2083.763132855238,left,1,4,0.8054643585346639,P30C05,2022-11-03_10h38.24.302,t1_Paradigm,2021.1.4,59.91193440739027,
D,left,Distractor,0,11,11,11,2085.26154071209,2087.2623613250325,left,1,4,0.66602687939303,P30C05,2022-11-03_10h38.24.302,t1_Paradigm,2021.1.4,59.91193440739027,
M,left,Pretarget,0,12,12,12,2088.7614736643736,2090.7745162136853,left,1,4,1.2981824609450996,P30C05,2022-11-03_10h38.24.302,t1_Paradigm,2021.1.4,59.91193440739027,
C,left,Distractor,0,13,13,13,2092.2618666475173,2094.261671278742,left,1,4,0.626848544634413,P30C05,2022-11-03_10h38.24.302,t1_Paradigm,2021.1.4,59.91193440739027,
Q,right,Target,0,14,14,14,2095.7613286615815,2097.7634668107494,left,0,4,0.5491501619108021,P30C05,2022-11-03_10h38.24.302,t1_Paradigm,2021.1.4,59.91193440739027,
R,left,Distractor,0,15,15,15,2099.261530125572,2101.2630298776203,left,1,4,0.8255167648312636,P30C05,2022-11-03_10h38.24.302,t1_Paradigm,2021.1.4,59.91193440739027,
M,right,Target,0,16,16,16,2102.761695980502,2104.763020574348,right,1,4,1.213703274319414,P30C05,2022-11-03_10h38.24.302,t1_Paradigm,2021.1.4,59.91193440739027,
S,left,Distractor,0,17,17,17,2106.261874988384,2108.2639672627556,left,1,4,0.6887188492692076,P30C05,2022-11-03_10h38.24.302,t1_Paradigm,2021.1.4,59.91193440739027,
Z,left,Distractor,0,18,18,18,2109.761861835432,2111.7631986197666,None,0,4,,P30C05,2022-11-03_10h38.24.302,t1_Paradigm,2021.1.4,59.91193440739027,
L,left,Pretarget,0,19,19,19,2113.261222475907,2115.2633840436465,right,0,4,1.2412836337462068,P30C05,2022-11-03_10h38.24.302,t1_Paradigm,2021.1.4,59.91193440739027,
M,right,Target,0,20,20,20,2116.761683469231,2118.763613096671,left,0,4,1.1168978904606774,P30C05,2022-11-03_10h38.24.302,t1_Paradigm,2021.1.4,59.91193440739027,
P,left,Distractor,0,21,21,21,2120.2616116094287,2122.263520063949,left,1,4,1.105090751836542,P30C05,2022-11-03_10h38.24.302,t1_Paradigm,2021.1.4,59.91193440739027,
F,left,Distractor,0,22,22,22,2123.7612465361017,2125.7638700595708,left,1,4,1.1887621575733647,P30C05,2022-11-03_10h38.24.302,t1_Paradigm,2021.1.4,59.91193440739027,
L,right,Target,0,23,23,23,2127.2613395688822,2129.2627738771844,right,1,4,1.193718878144864,P30C05,2022-11-03_10h38.24.302,t1_Paradigm,2021.1.4,59.91193440739027,
L,left,Lure,0,24,24,24,2130.7613331528264,2132.76169213088,left,1,4,0.863100710848812,P30C05,2022-11-03_10h38.24.302,t1_Paradigm,2021.1.4,59.91193440739027,
V,left,Pretarget,0,25,25,25,2134.2615214639227,2136.262332773651,left,1,4,0.7382873377064243,P30C05,2022-11-03_10h38.24.302,t1_Paradigm,2021.1.4,59.91193440739027,
Z,left,Distractor,0,26,26,26,2137.7617479505716,2139.7632736875676,right,0,4,1.205406998982653,P30C05,2022-11-03_10h38.24.302,t1_Paradigm,2021.1.4,59.91193440739027,
H,left,Distractor,0,27,27,27,2141.2615423161187,2143.262446979352,left,1,4,0.7625653555151075,P30C05,2022-11-03_10h38.24.302,t1_Paradigm,2021.1.4,59.91193440739027,
X,left,Distractor,0,28,28,28,2144.7619131638785,2146.7641494785785,left,1,4,0.8127106470055878,P30C05,2022-11-03_10h38.24.302,t1_Paradigm,2021.1.4,59.91193440739027,
V,right,Target,0,29,29,29,2148.261624762381,2150.2626295160153,left,0,4,0.6261373253073543,P30C05,2022-11-03_10h38.24.302,t1_Paradigm,2021.1.4,59.91193440739027,
C,left,Distractor,0,30,30,30,2151.7619417153182,2153.7614460753393,left,1,4,1.0473369857645594,P30C05,2022-11-03_10h38.24.302,t1_Paradigm,2021.1.4,59.91193440739027,
S,left,Pretarget,0,31,31,31,2155.2616318200016,2157.2637956333347,left,1,4,0.8090207758359611,P30C05,2022-11-03_10h38.24.302,t1_Paradigm,2021.1.4,59.91193440739027,
D,left,Distractor,0,32,32,32,2158.761871780327,2160.762557656213,right,0,4,1.3262119439896196,P30C05,2022-11-03_10h38.24.302,t1_Paradigm,2021.1.4,59.91193440739027,
V,left,Distractor,0,33,33,33,2162.2619359408272,2164.263644214545,right,0,4,1.1210259779472835,P30C05,2022-11-03_10h38.24.302,t1_Paradigm,2021.1.4,59.91193440739027,
R,left,Distractor,0,34,34,34,2165.761815639911,2167.7618217351264,left,1,4,0.9348398649599403,P30C05,2022-11-03_10h38.24.302,t1_Paradigm,2021.1.4,59.91193440739027,
S,right,Target,0,35,35,35,2169.2618021661765,2171.2633317528525,left,0,4,1.2095530514488928,P30C05,2022-11-03_10h38.24.302,t1_Paradigm,2021.1.4,59.91193440739027,
Y,left,Distractor,0,36,36,36,2172.761843549728,2174.7624787387904,left,1,4,0.766205181425903,P30C05,2022-11-03_10h38.24.302,t1_Paradigm,2021.1.4,59.91193440739027,
N,left,Pretarget,0,37,37,37,2176.261833925615,2178.2631588402437,left,1,4,0.6895291965920478,P30C05,2022-11-03_10h38.24.302,t1_Paradigm,2021.1.4,59.91193440739027,
Z,left,Pretarget,0,38,38,38,2179.7614685315057,2181.7636288159993,left,1,4,1.18910990760196,P30C05,2022-11-03_10h38.24.302,t1_Paradigm,2021.1.4,59.91193440739027,
P,left,Pretarget,0,39,39,39,2183.261852211377,2185.2637256984017,left,1,4,0.8090820490615442,P30C05,2022-11-03_10h38.24.302,t1_Paradigm,2021.1.4,59.91193440739027,
M,left,Distractor,0,40,40,40,2186.7616526721977,2188.7631363840774,left,1,4,0.7495173524948768,P30C05,2022-11-03_10h38.24.302,t1_Paradigm,2021.1.4,59.91193440739027,
N,right,Target,0,41,41,41,2190.261696622125,2192.2617107374244,right,1,4,0.9311474273563363,P30C05,2022-11-03_10h38.24.302,t1_Paradigm,2021.1.4,59.91193440739027,
Z,right,Target,0,42,42,42,2193.761527559196,2195.761380631593,right,1,4,1.4475859927479178,P30C05,2022-11-03_10h38.24.302,t1_Paradigm,2021.1.4,59.91193440739027,
P,right,Target,0,43,43,43,2197.261933695234,2199.2617768227938,left,0,4,1.1789658095221967,P30C05,2022-11-03_10h38.24.302,t1_Paradigm,2021.1.4,59.91193440739027,
X,left,Pretarget,0,44,44,44,2200.7619920813013,2202.7634863796993,left,1,4,0.7652408489957452,P30C05,2022-11-03_10h38.24.302,t1_Paradigm,2021.1.4,59.91193440739027,
Z,left,Lure,0,45,45,45,2204.2618130734772,2206.2638543402427,right,0,4,1.1207642030785792,P30C05,2022-11-03_10h38.24.302,t1_Paradigm,2021.1.4,59.91193440739027,
R,left,Pretarget,0,46,46,46,2207.761719399132,2209.763861718704,left,1,4,0.9813841475988738,P30C05,2022-11-03_10h38.24.302,t1_Paradigm,2021.1.4,59.91193440739027,
K,left,Distractor,0,47,47,47,2211.2619391488843,2213.2631941285217,left,1,4,0.729746290075127,P30C05,2022-11-03_10h38.24.302,t1_Paradigm,2021.1.4,59.91193440739027,
X,right,Target,0,48,48,48,2214.7616558801965,2216.7638091070694,right,1,4,1.2451079212478362,P30C05,2022-11-03_10h38.24.302,t1_Paradigm,2021.1.4,59.91193440739027,
B,left,Distractor,0,49,49,49,2218.2620373144746,2220.263504665403,left,1,4,0.8973621046170592,P30C05,2022-11-03_10h38.24.302,t1_Paradigm,2021.1.4,59.91193440739027,
R,right,Target,0,50,50,50,2221.762064261886,2223.7642492481973,right,1,4,1.444687541516032,P30C05,2022-11-03_10h38.24.302,t1_Paradigm,2021.1.4,59.91193440739027,
Y,left,Pretarget,0,51,51,51,2225.2618996901438,2227.263808144664,left,1,4,1.1291169396135956,P30C05,2022-11-03_10h38.24.302,t1_Paradigm,2021.1.4,59.91193440739027,
W,left,Pretarget,0,52,52,52,2228.7617575746262,2230.763765157084,left,1,4,0.8450523581705056,P30C05,2022-11-03_10h38.24.302,t1_Paradigm,2021.1.4,59.91193440739027,
Z,left,Distractor,0,53,53,53,2232.261904502171,2234.263227491989,left,1,4,0.9137063539819792,P30C05,2022-11-03_10h38.24.302,t1_Paradigm,2021.1.4,59.91193440739027,
Q,left,Distractor,0,54,54,54,2235.761926637555,2237.763496003754,left,1,4,0.9818448200821877,P30C05,2022-11-03_10h38.24.302,t1_Paradigm,2021.1.4,59.91193440739027,
Y,right,Target,0,55,55,55,2239.261995930923,2241.2628941781586,left,0,4,1.2579814075725153,P30C05,2022-11-03_10h38.24.302,t1_Paradigm,2021.1.4,59.91193440739027,
W,right,Target,0,56,56,56,2242.7619523017784,2244.762861135474,None,0,4,,P30C05,2022-11-03_10h38.24.302,t1_Paradigm,2021.1.4,59.91193440739027,
H,left,Pretarget,0,57,57,57,2246.2620097254403,2248.2628550402005,left,1,4,1.1058882670477033,P30C05,2022-11-03_10h38.24.302,t1_Paradigm,2021.1.4,59.91193440739027,
M,left,Distractor,0,58,58,58,2249.7619269583956,2251.762447620975,right,0,4,0.8863338746596128,P30C05,2022-11-03_10h38.24.302,t1_Paradigm,2021.1.4,59.91193440739027,
R,left,Pretarget,0,59,59,59,2253.2619596802397,2255.264110661461,None,0,4,,P30C05,2022-11-03_10h38.24.302,t1_Paradigm,2021.1.4,59.91193440739027,
J,left,Distractor,0,60,60,60,2256.762151840958,2258.7633689659415,left,1,4,0.7817195145762525,P30C05,2022-11-03_10h38.24.302,t1_Paradigm,2021.1.4,59.91193440739027,
H,right,Target,0,61,61,61,2260.262029615231,2262.2640731275897,right,1,4,1.1047555131372064,P30C05,2022-11-03_10h38.24.302,t1_Paradigm,2021.1.4,59.91193440739027,
Z,left,Distractor,0,62,62,62,2263.7617415345157,2265.762571129948,left,1,4,1.0783059828099795,P30C05,2022-11-03_10h38.24.302,t1_Paradigm,2021.1.4,59.91193440739027,
R,right,Target,0,63,63,63,2267.2616963013425,2269.261477834778,None,0,4,,P30C05,2022-11-03_10h38.24.302,t1_Paradigm,2021.1.4,59.91193440739027,
J,left,Pretarget,0,0,0,0,2283.8760707587935,2285.8805020047002,left,1,4,0.7363599558593705,P30C05,2022-11-03_10h38.24.302,t1_Paradigm,2021.1.4,59.91193440739027,
G,left,Pretarget,0,1,1,1,2287.3785075750784,2289.378906332713,left,1,4,0.34190688899252564,P30C05,2022-11-03_10h38.24.302,t1_Paradigm,2021.1.4,59.91193440739027,
Z,left,Distractor,0,2,2,2,2290.878743685782,2292.8801115879323,left,1,4,0.6969467935850844,P30C05,2022-11-03_10h38.24.302,t1_Paradigm,2021.1.4,59.91193440739027,
F,left,Distractor,0,3,3,3,2294.3786102319136,2296.3804291824927,left,1,4,0.42860859585925937,P30C05,2022-11-03_10h38.24.302,t1_Paradigm,2021.1.4,59.91193440739027,
J,right,Target,0,4,4,4,2297.8787616507616,2299.8794061430963,right,1,4,0.8976668670657091,P30C05,2022-11-03_10h38.24.302,t1_Paradigm,2021.1.4,59.91193440739027,
G,right,Target,0,5,5,5,2301.3787167383707,2303.3801619539736,right,1,4,0.6766165722510777,P30C05,2022-11-03_10h38.24.302,t1_Paradigm,2021.1.4,59.91193440739027,
H,left,Distractor,0,6,6,6,2304.8782894293545,2306.87976897083,left,1,4,0.8091471720254049,P30C05,2022-11-03_10h38.24.302,t1_Paradigm,2021.1.4,59.91193440739027,
P,left,Distractor,0,7,7,7,2308.3788995958166,2310.3801921093836,left,1,4,0.6846780201303773,P30C05,2022-11-03_10h38.24.302,t1_Paradigm,2021.1.4,59.91193440739027,
G,left,Lure,0,8,8,8,2311.8786285176757,2313.8800252920482,left,1,4,1.2488982035429217,P30C05,2022-11-03_10h38.24.302,t1_Paradigm,2021.1.4,59.91193440739027,
S,left,Distractor,0,9,9,9,2315.378818753583,2317.3778467217926,None,0,4,,P30C05,2022-11-03_10h38.24.302,t1_Paradigm,2021.1.4,59.91193440739027,
R,left,Pretarget,0,10,10,10,2318.878710322315,2320.8792775012553,left,1,4,1.0658582014148124,P30C05,2022-11-03_10h38.24.302,t1_Paradigm,2021.1.4,59.91193440739027,
T,left,Pretarget,0,11,11,11,2322.378701981448,2324.379256328277,left,1,4,0.7495747762150131,P30C05,2022-11-03_10h38.24.302,t1_Paradigm,2021.1.4,59.91193440739027,
X,left,Distractor,0,12,12,12,2325.8785043670796,2327.8810056647053,left,1,4,0.8319093976751901,P30C05,2022-11-03_10h38.24.302,t1_Paradigm,2021.1.4,59.91193440739027,
F,left,Pretarget,0,13,13,13,2329.3788197159884,2331.3802257936914,right,0,4,1.3006773425731808,P30C05,2022-11-03_10h38.24.302,t1_Paradigm,2021.1.4,59.91193440739027,
R,right,Target,0,14,14,14,2332.8787728788448,2334.878589058935,left,0,4,1.1304870873573236,P30C05,2022-11-03_10h38.24.302,t1_Paradigm,2021.1.4,59.91193440739027,
T,right,Target,0,15,15,15,2336.378611835942,2338.3793978022295,left,0,4,0.9574866017210297,P30C05,2022-11-03_10h38.24.302,t1_Paradigm,2021.1.4,59.91193440739027,
C,left,Distractor,0,16,16,16,2339.8789393753395,2341.879808429512,left,1,4,0.8331537908525206,P30C05,2022-11-03_10h38.24.302,t1_Paradigm,2021.1.4,59.91193440739027,
F,right,Target,0,17,17,17,2343.3788091295282,2345.381059559528,right,1,4,1.012027850782033,P30C05,2022-11-03_10h38.24.302,t1_Paradigm,2021.1.4,59.91193440739027,
M,left,Distractor,0,18,18,18,2346.878942262614,2348.880198204657,left,1,4,0.6809730711975135,P30C05,2022-11-03_10h38.24.302,t1_Paradigm,2021.1.4,59.91193440739027,
N,left,Distractor,0,19,19,19,2350.3788466633996,2352.380899158248,left,1,4,0.8122252727043815,P30C05,2022-11-03_10h38.24.302,t1_Paradigm,2021.1.4,59.91193440739027,
R,left,Lure,0,20,20,20,2353.878628838458,2355.8782522162655,right,0,4,1.0908275487599894,P30C05,2022-11-03_10h38.24.302,t1_Paradigm,2021.1.4,59.91193440739027,
F,right,Target,0,21,21,21,2357.378788277332,2359.3797503642854,right,1,4,1.301216290856246,P30C05,2022-11-03_10h38.24.302,t1_Paradigm,2021.1.4,59.91193440739027,
P,left,Distractor,0,22,22,22,2360.878823886451,2362.8803743252647,left,1,4,1.1607025191187859,P30C05,2022-11-03_10h38.24.302,t1_Paradigm,2021.1.4,59.91193440739027,
L,left,Pretarget,0,23,23,23,2364.3787760868436,2366.379626855254,left,1,4,0.6853491390356794,P30C05,2022-11-03_10h38.24.302,t1_Paradigm,2021.1.4,59.91193440739027,
T,left,Distractor,0,24,24,24,2367.878571414796,2369.8803339041187,left,1,4,1.0087848575785756,P30C05,2022-11-03_10h38.24.302,t1_Paradigm,2021.1.4,59.91193440739027,
F,left,Distractor,0,25,25,25,2371.3788720068405,2373.380668501195,right,0,4,0.7563863772084005,P30C05,2022-11-03_10h38.24.302,t1_Paradigm,2021.1.4,59.91193440739027,
V,left,Distractor,0,26,26,26,2374.878372196399,2376.88071598002,left,1,4,0.7763136704452336,P30C05,2022-11-03_10h38.24.302,t1_Paradigm,2021.1.4,59.91193440739027,
L,right,Target,0,27,27,27,2378.3788081671228,2380.3788752148394,left,0,4,1.1983207910088822,P30C05,2022-11-03_10h38.24.302,t1_Paradigm,2021.1.4,59.91193440739027,
S,left,Pretarget,0,28,28,28,2381.8788797060843,2383.8782162863645,right,0,4,1.4429561700089835,P30C05,2022-11-03_10h38.24.302,t1_Paradigm,2021.1.4,59.91193440739027,
W,left,Distractor,0,29,29,29,2385.3788681572187,2387.380372721236,left,1,4,1.4607520510908216,P30C05,2022-11-03_10h38.24.302,t1_Paradigm,2021.1.4,59.91193440739027,
Q,left,Distractor,0,30,30,30,2388.8784777404508,2390.880023688078,left,1,4,0.745397605933249,P30C05,2022-11-03_10h38.24.302,t1_Paradigm,2021.1.4,59.91193440739027,
L,right,Target,0,31,31,31,2392.37889125495,2394.3809626771836,right,1,4,1.052028723352123,P30C05,2022-11-03_10h38.24.302,t1_Paradigm,2021.1.4,59.91193440739027,
S,right,Target,0,32,32,32,2395.8787420818117,2397.8809437498567,left,0,4,1.1360674481256865,P30C05,2022-11-03_10h38.24.302,t1_Paradigm,2021.1.4,59.91193440739027,
Z,left,Pretarget,0,33,33,33,2399.3786237056484,2401.3799672268215,left,1,4,0.8369065393344499,P30C05,2022-11-03_10h38.24.302,t1_Paradigm,2021.1.4,59.91193440739027,
F,left,Distractor,0,34,34,34,2402.8788707235944,2404.880114475207,None,0,4,,P30C05,2022-11-03_10h38.24.302,t1_Paradigm,2021.1.4,59.91193440739027,
V,left,Distractor,0,35,35,35,2406.378883555706,2408.3801638787845,right,0,4,1.1810064346645959,P30C05,2022-11-03_10h38.24.302,t1_Paradigm,2021.1.4,59.91193440739027,
M,left,Distractor,0,36,36,36,2409.87861311913,2411.8801991670625,left,1,4,1.281108706491068,P30C05,2022-11-03_10h38.24.302,t1_Paradigm,2021.1.4,59.91193440739027,
Z,right,Target,0,37,37,37,2413.3790372201474,2415.3786047782633,right,1,4,1.3344655525288545,P30C05,2022-11-03_10h38.24.302,t1_Paradigm,2021.1.4,59.91193440739027,
H,left,Pretarget,0,38,38,38,2416.8784754948574,2418.8802861045697,left,1,4,0.8729275352088735,P30C05,2022-11-03_10h38.24.302,t1_Paradigm,2021.1.4,59.91193440739027,
L,left,Distractor,0,39,39,39,2420.3789685684023,2422.3917300946778,left,1,4,0.8335368291009218,P30C05,2022-11-03_10h38.24.302,t1_Paradigm,2021.1.4,59.91193440739027,
G,left,Distractor,0,40,40,40,2423.8788444178062,2425.879563336377,left,1,4,0.9297747131786309,P30C05,2022-11-03_10h38.24.302,t1_Paradigm,2021.1.4,59.91193440739027,
K,left,Distractor,0,41,41,41,2427.378973701212,2429.379454905109,left,1,4,0.8854154168511741,P30C05,2022-11-03_10h38.24.302,t1_Paradigm,2021.1.4,59.91193440739027,
H,right,Target,0,42,42,42,2430.8784180711955,2432.8810310081462,right,1,4,0.9200765306595713,P30C05,2022-11-03_10h38.24.302,t1_Paradigm,2021.1.4,59.91193440739027,
B,left,Distractor,0,43,43,43,2434.378927826474,2436.380859699566,left,1,4,0.8123718794668093,P30C05,2022-11-03_10h38.24.302,t1_Paradigm,2021.1.4,59.91193440739027,
Z,left,Distractor,0,44,44,44,2437.8787542723003,2439.8795623739716,left,1,4,1.2175760029349476,P30C05,2022-11-03_10h38.24.302,t1_Paradigm,2021.1.4,59.91193440739027,
T,left,Pretarget,0,45,45,45,2441.3789576611016,2443.380379778915,left,1,4,1.0129026794456877,P30C05,2022-11-03_10h38.24.302,t1_Paradigm,2021.1.4,59.91193440739027,
H,right,Target,0,46,46,46,2444.8789923078148,2446.879639045743,right,1,4,1.337531141936779,P30C05,2022-11-03_10h38.24.302,t1_Paradigm,2021.1.4,59.91193440739027,
F,left,Distractor,0,47,47,47,2448.3789955158136,2450.3809235392837,left,1,4,0.8920977344387211,P30C05,2022-11-03_10h38.24.302,t1_Paradigm,2021.1.4,59.91193440739027,
R,left,Distractor,0,48,48,48,2451.8788216407993,2453.8809771133238,right,0,4,1.1521303536137566,P30C05,2022-11-03_10h38.24.302,t1_Paradigm,2021.1.4,59.91193440739027,
T,right,Target,0,49,49,49,2455.378790202143,2457.3812552491436,right,1,4,1.2839089921908453,P30C05,2022-11-03_10h38.24.302,t1_Paradigm,2021.1.4,59.91193440739027,
H,right,Target,0,50,50,50,2458.878963114752,2460.879145330633,right,1,4,1.1462291903444566,P30C05,2022-11-03_10h38.24.302,t1_Paradigm,2021.1.4,59.91193440739027,
Y,left,Pretarget,0,51,51,51,2462.3788825933007,2464.3795533914817,left,1,4,0.8935028496780433,P30C05,2022-11-03_10h38.24.302,t1_Paradigm,2021.1.4,59.91193440739027,
H,left,Distractor,0,52,52,52,2465.87895926513,2467.8808452634257,right,0,4,0.800294625107199,P30C05,2022-11-03_10h38.24.302,t1_Paradigm,2021.1.4,59.91193440739027,
S,left,Distractor,0,53,53,53,2469.3790125183295,2471.3796015118714,left,1,4,1.1896818985696882,P30C05,2022-11-03_10h38.24.302,t1_Paradigm,2021.1.4,59.91193440739027,
Q,left,Distractor,0,54,54,54,2472.8790006486815,2474.880159708322,left,1,4,1.001038117101416,P30C05,2022-11-03_10h38.24.302,t1_Paradigm,2021.1.4,59.91193440739027,
Y,right,Target,0,55,55,55,2476.3782156447414,2478.3794677372207,None,0,4,,P30C05,2022-11-03_10h38.24.302,t1_Paradigm,2021.1.4,59.91193440739027,
R,left,Distractor,0,56,56,56,2479.878837039345,2481.8809261056595,left,1,4,1.2964186883764341,P30C05,2022-11-03_10h38.24.302,t1_Paradigm,2021.1.4,59.91193440739027,
H,left,Pretarget,0,57,57,57,2483.3791411601705,2485.3807900854154,right,0,4,1.0445848205126822,P30C05,2022-11-03_10h38.24.302,t1_Paradigm,2021.1.4,59.91193440739027,
J,left,Distractor,0,58,58,58,2486.8788444178062,2488.8803877989994,left,1,4,0.8729676355142146,P30C05,2022-11-03_10h38.24.302,t1_Paradigm,2021.1.4,59.91193440739027,
V,left,Distractor,0,59,59,59,2490.3789647187805,2492.3805068167276,left,1,4,0.8925378755666316,P30C05,2022-11-03_10h38.24.302,t1_Paradigm,2021.1.4,59.91193440739027,
Y,left,Lure,0,60,60,60,2493.8790824533207,2495.879503346281,right,0,4,1.2498227566247806,P30C05,2022-11-03_10h38.24.302,t1_Paradigm,2021.1.4,59.91193440739027,
H,right,Target,0,61,61,61,2497.3789198063896,2499.3789910245687,None,0,4,,P30C05,2022-11-03_10h38.24.302,t1_Paradigm,2021.1.4,59.91193440739027,
L,left,Distractor,0,62,62,62,2500.878541900951,2502.8805157992174,left,1,4,1.2408730064635165,P30C05,2022-11-03_10h38.24.302,t1_Paradigm,2021.1.4,59.91193440739027,
P,left,Distractor,0,63,63,63,2504.3789153151447,2506.3809418249875,left,1,4,0.8284966999199241,P30C05,2022-11-03_10h38.24.302,t1_Paradigm,2021.1.4,59.91193440739027,
