Letter,CorrAnswer,Stimulus,nback_run.thisRepN,nback_run.thisTrialN,nback_run.thisN,nback_run.thisIndex,fixcross.started,nback_trial.started,trial_resp.keys,trial_resp.corr,currentlevel,trial_resp.rt,Participant,date,expName,psychopyVersion,frameRate,
H,left,Distractor,0,0,0,0,306.52423973629993,308.5289077449934,None,0,1,,P30F12,2022-12-08_10h51.20.595,t1_Paradigm,2021.1.4,60.13799902394332,
Q,left,Pretarget,0,1,1,1,310.0281196917076,312.02988475141774,None,0,1,,P30F12,2022-12-08_10h51.20.595,t1_Paradigm,2021.1.4,60.13799902394332,
Q,right,Target,0,2,2,2,313.5277432290459,315.52718406890835,right,1,1,0.6520022135428007,P30F12,2022-12-08_10h51.20.595,t1_Paradigm,2021.1.4,60.13799902394332,
T,left,Distractor,0,3,3,3,317.02703056453356,319.02735040541484,None,0,1,,P30F12,2022-12-08_10h51.20.595,t1_Paradigm,2021.1.4,60.13799902394332,
Q,left,Lure,0,4,4,4,320.5263891183522,322.52604265079754,None,0,1,,P30F12,2022-12-08_10h51.20.595,t1_Paradigm,2021.1.4,60.13799902394332,
L,left,Distractor,0,5,5,5,324.0258320434368,326.025611972379,None,0,1,,P30F12,2022-12-08_10h51.20.595,t1_Paradigm,2021.1.4,60.13799902394332,
V,left,Pretarget,0,6,6,6,327.52526117397974,329.52493780426175,None,0,1,,P30F12,2022-12-08_10h51.20.595,t1_Paradigm,2021.1.4,60.13799902394332,
V,right,Target,0,7,7,7,331.02463576796254,333.0246588658001,right,1,1,0.6133999534831673,P30F12,2022-12-08_10h51.20.595,t1_Paradigm,2021.1.4,60.13799902394332,
K,left,Distractor,0,8,8,8,334.52440719561764,336.52404500870216,None,0,1,,P30F12,2022-12-08_10h51.20.595,t1_Paradigm,2021.1.4,60.13799902394332,
G,left,Pretarget,0,9,9,9,338.0235010867209,340.0257094965791,None,0,1,,P30F12,2022-12-08_10h51.20.595,t1_Paradigm,2021.1.4,60.13799902394332,
G,right,Target,0,10,10,10,341.5233578480511,343.5229414453788,right,1,1,0.3815406578069087,P30F12,2022-12-08_10h51.20.595,t1_Paradigm,2021.1.4,60.13799902394332,
G,right,Target,0,11,11,11,345.0223657638726,347.02202827881047,right,1,1,0.5882268400073372,P30F12,2022-12-08_10h51.20.595,t1_Paradigm,2021.1.4,60.13799902394332,
P,left,Pretarget,0,12,12,12,348.52189434343563,350.522793555062,None,0,1,,P30F12,2022-12-08_10h51.20.595,t1_Paradigm,2021.1.4,60.13799902394332,
P,right,Target,0,13,13,13,352.0212041351542,354.02084291064784,right,1,1,0.3455984986403564,P30F12,2022-12-08_10h51.20.595,t1_Paradigm,2021.1.4,60.13799902394332,
G,left,Lure,0,14,14,14,355.5210365154344,357.5202499057641,None,0,1,,P30F12,2022-12-08_10h51.20.595,t1_Paradigm,2021.1.4,60.13799902394332,
Y,left,Distractor,0,15,15,15,359.0203507983988,361.02051152084823,None,0,1,,P30F12,2022-12-08_10h51.20.595,t1_Paradigm,2021.1.4,60.13799902394332,
B,left,Distractor,0,16,16,16,362.51960605355816,364.5210037934985,None,0,1,,P30F12,2022-12-08_10h51.20.595,t1_Paradigm,2021.1.4,60.13799902394332,
T,left,Pretarget,0,17,17,17,366.01891680768676,368.0185719441479,None,0,1,,P30F12,2022-12-08_10h51.20.595,t1_Paradigm,2021.1.4,60.13799902394332,
T,right,Target,0,18,18,18,369.5183876426572,371.5183234819988,right,1,1,0.5064880861673373,P30F12,2022-12-08_10h51.20.595,t1_Paradigm,2021.1.4,60.13799902394332,
S,left,Distractor,0,19,19,19,373.0181603535257,375.018172864854,None,0,1,,P30F12,2022-12-08_10h51.20.595,t1_Paradigm,2021.1.4,60.13799902394332,
T,left,Lure,0,20,20,20,376.5171968208397,378.5175009423592,None,0,1,,P30F12,2022-12-08_10h51.20.595,t1_Paradigm,2021.1.4,60.13799902394332,
J,left,Distractor,0,21,21,21,380.0169117871146,382.01690505024544,None,0,1,,P30F12,2022-12-08_10h51.20.595,t1_Paradigm,2021.1.4,60.13799902394332,
P,left,Distractor,0,22,22,22,383.5164467827444,385.5160541195155,left,1,1,0.7544818625838161,P30F12,2022-12-08_10h51.20.595,t1_Paradigm,2021.1.4,60.13799902394332,
F,left,Distractor,0,23,23,23,387.01546785150003,389.0171514271733,left,1,1,0.9719659627708097,P30F12,2022-12-08_10h51.20.595,t1_Paradigm,2021.1.4,60.13799902394332,
L,left,Distractor,0,24,24,24,390.5150044511456,392.5148299341554,left,1,1,0.8995311459893855,P30F12,2022-12-08_10h51.20.595,t1_Paradigm,2021.1.4,60.13799902394332,
W,left,Pretarget,0,25,25,25,394.01455548693957,396.01499594985853,left,1,1,0.7871829460973458,P30F12,2022-12-08_10h51.20.595,t1_Paradigm,2021.1.4,60.13799902394332,
W,right,Target,0,26,26,26,397.51401092335163,399.5142066133594,right,1,1,0.8227738256591692,P30F12,2022-12-08_10h51.20.595,t1_Paradigm,2021.1.4,60.13799902394332,
V,left,Distractor,0,27,27,27,401.0135000441105,403.0131205338166,left,1,1,0.9156277719412174,P30F12,2022-12-08_10h51.20.595,t1_Paradigm,2021.1.4,60.13799902394332,
W,left,Lure,0,28,28,28,404.5127443919573,406.51224714685577,left,1,1,0.8819514464221356,P30F12,2022-12-08_10h51.20.595,t1_Paradigm,2021.1.4,60.13799902394332,
R,left,Pretarget,0,29,29,29,408.0121411213677,410.01212443959685,left,1,1,0.6926810333079629,P30F12,2022-12-08_10h51.20.595,t1_Paradigm,2021.1.4,60.13799902394332,
R,right,Target,0,30,30,30,411.51142043677373,413.5112994939327,right,1,1,0.5608504495257876,P30F12,2022-12-08_10h51.20.595,t1_Paradigm,2021.1.4,60.13799902394332,
G,left,Distractor,0,31,31,31,415.01115144321375,417.0109034622692,left,1,1,0.6452448130121411,P30F12,2022-12-08_10h51.20.595,t1_Paradigm,2021.1.4,60.13799902394332,
R,left,Lure,0,32,32,32,418.51058185697,420.5100711381301,left,1,1,0.6684555727542829,P30F12,2022-12-08_10h51.20.595,t1_Paradigm,2021.1.4,60.13799902394332,
S,left,Distractor,0,33,33,33,422.010178767634,424.0100812434339,left,1,1,0.6340099609424215,P30F12,2022-12-08_10h51.20.595,t1_Paradigm,2021.1.4,60.13799902394332,
R,left,Lure,0,34,34,34,425.50948663453255,427.509098141747,left,1,1,0.5352404019668029,P30F12,2022-12-08_10h51.20.595,t1_Paradigm,2021.1.4,60.13799902394332,
P,left,Pretarget,0,35,35,35,429.0089382213064,431.0083293366588,left,1,1,0.4811949922604981,P30F12,2022-12-08_10h51.20.595,t1_Paradigm,2021.1.4,60.13799902394332,
P,right,Target,0,36,36,36,432.50824705061495,434.5079525531928,left,0,1,0.540927602717602,P30F12,2022-12-08_10h51.20.595,t1_Paradigm,2021.1.4,60.13799902394332,
Y,left,Pretarget,0,37,37,37,436.0075815441869,438.0075141754951,left,1,1,0.7761495584945806,P30F12,2022-12-08_10h51.20.595,t1_Paradigm,2021.1.4,60.13799902394332,
Y,right,Target,0,38,38,38,439.50715696103,441.5067225933735,right,1,1,0.4285736283654842,P30F12,2022-12-08_10h51.20.595,t1_Paradigm,2021.1.4,60.13799902394332,
J,left,Distractor,0,39,39,39,443.0064385220594,445.00603944276463,left,1,1,0.6838576595791892,P30F12,2022-12-08_10h51.20.595,t1_Paradigm,2021.1.4,60.13799902394332,
Y,left,Lure,0,40,40,40,446.50596196876995,448.50564020306865,left,1,1,1.1760677536549338,P30F12,2022-12-08_10h51.20.595,t1_Paradigm,2021.1.4,60.13799902394332,
T,left,Distractor,0,41,41,41,450.00520631661675,452.00536318942613,left,1,1,0.7870276773037403,P30F12,2022-12-08_10h51.20.595,t1_Paradigm,2021.1.4,60.13799902394332,
V,left,Distractor,0,42,42,42,453.5048920897925,455.5045228452045,left,1,1,0.6023206910103909,P30F12,2022-12-08_10h51.20.595,t1_Paradigm,2021.1.4,60.13799902394332,
N,left,Pretarget,0,43,43,43,457.00440077955227,459.0055829396806,left,1,1,0.6973875383964696,P30F12,2022-12-08_10h51.20.595,t1_Paradigm,2021.1.4,60.13799902394332,
N,right,Target,0,44,44,44,460.5202540762066,462.51998909268787,right,1,1,0.721812538597078,P30F12,2022-12-08_10h51.20.595,t1_Paradigm,2021.1.4,60.13799902394332,
N,right,Target,0,45,45,45,464.01981216967306,466.01937748121327,right,1,1,0.8180307489956249,P30F12,2022-12-08_10h51.20.595,t1_Paradigm,2021.1.4,60.13799902394332,
X,left,Distractor,0,46,46,46,467.5192897415127,469.51920376623093,left,1,1,0.7431748297731247,P30F12,2022-12-08_10h51.20.595,t1_Paradigm,2021.1.4,60.13799902394332,
Z,left,Distractor,0,47,47,47,471.018517728392,473.01873138338397,left,1,1,0.78289444769689,P30F12,2022-12-08_10h51.20.595,t1_Paradigm,2021.1.4,60.13799902394332,
H,left,Pretarget,0,48,48,48,474.51813677448354,476.5181431905494,left,1,1,0.5365685275928627,P30F12,2022-12-08_10h51.20.595,t1_Paradigm,2021.1.4,60.13799902394332,
H,right,Target,0,49,49,49,478.01729065580184,480.01715527681336,right,1,1,0.5973200093030755,P30F12,2022-12-08_10h51.20.595,t1_Paradigm,2021.1.4,60.13799902394332,
K,left,Distractor,0,50,50,50,481.5165603471096,483.51680415761075,left,1,1,0.726249248116801,P30F12,2022-12-08_10h51.20.595,t1_Paradigm,2021.1.4,60.13799902394332,
V,left,Pretarget,0,51,51,51,485.0160661496384,487.0159291666332,left,1,1,0.49690023819675844,P30F12,2022-12-08_10h51.20.595,t1_Paradigm,2021.1.4,60.13799902394332,
V,right,Target,0,52,52,52,488.5156916117958,490.51539037750535,right,1,1,0.42653171541587653,P30F12,2022-12-08_10h51.20.595,t1_Paradigm,2021.1.4,60.13799902394332,
R,left,Distractor,0,53,53,53,492.0151425569629,494.0154190894,left,1,1,0.5388388524861512,P30F12,2022-12-08_10h51.20.595,t1_Paradigm,2021.1.4,60.13799902394332,
V,left,Lure,0,54,54,54,495.51446582241897,497.5141719666044,left,1,1,0.5338667222722506,P30F12,2022-12-08_10h51.20.595,t1_Paradigm,2021.1.4,60.13799902394332,
Y,left,Distractor,0,55,55,55,499.0139286373078,501.0140858309205,left,1,1,0.5769021630158022,P30F12,2022-12-08_10h51.20.595,t1_Paradigm,2021.1.4,60.13799902394332,
Q,left,Distractor,0,56,56,56,502.51362371377945,504.51318710049964,left,1,1,0.46181847345724236,P30F12,2022-12-08_10h51.20.595,t1_Paradigm,2021.1.4,60.13799902394332,
Z,left,Pretarget,0,57,57,57,506.01337525163035,508.0146712969272,left,1,1,0.5564159856285187,P30F12,2022-12-08_10h51.20.595,t1_Paradigm,2021.1.4,60.13799902394332,
Z,right,Target,0,58,58,58,509.5131514913346,511.5287277743473,right,1,1,0.450462357743163,P30F12,2022-12-08_10h51.20.595,t1_Paradigm,2021.1.4,60.13799902394332,
B,left,Distractor,0,59,59,59,513.028709648961,515.0282861886162,left,1,1,0.48975306166630617,P30F12,2022-12-08_10h51.20.595,t1_Paradigm,2021.1.4,60.13799902394332,
S,left,Pretarget,0,60,60,60,516.5281307594214,518.527939239857,left,1,1,1.3202104469592086,P30F12,2022-12-08_10h51.20.595,t1_Paradigm,2021.1.4,60.13799902394332,
S,right,Target,0,61,61,61,520.0271187854387,522.0271704347688,right,1,1,0.45058682942089945,P30F12,2022-12-08_10h51.20.595,t1_Paradigm,2021.1.4,60.13799902394332,
T,left,Distractor,0,62,62,62,523.5266454401826,525.5263984216481,left,1,1,0.5312935590718553,P30F12,2022-12-08_10h51.20.595,t1_Paradigm,2021.1.4,60.13799902394332,
D,left,Distractor,0,63,63,63,527.0260652674297,529.0262718647491,left,1,1,0.5580270597583876,P30F12,2022-12-08_10h51.20.595,t1_Paradigm,2021.1.4,60.13799902394332,
R,left,Distractor,0,0,0,0,556.3505581175259,558.3542104629996,None,0,1,,P30F12,2022-12-08_10h51.20.595,t1_Paradigm,2021.1.4,60.13799902394332,
V,left,Distractor,0,1,1,1,559.8540226326722,561.8537874838594,left,1,1,0.5913700706569216,P30F12,2022-12-08_10h51.20.595,t1_Paradigm,2021.1.4,60.13799902394332,
N,left,Pretarget,0,2,2,2,563.3537375989481,565.3533741288184,left,1,1,1.0710293775609898,P30F12,2022-12-08_10h51.20.595,t1_Paradigm,2021.1.4,60.13799902394332,
N,right,Target,0,3,3,3,566.8529367135307,568.8526220055019,right,1,1,0.5890952545169057,P30F12,2022-12-08_10h51.20.595,t1_Paradigm,2021.1.4,60.13799902394332,
S,left,Distractor,0,4,4,4,570.3521942143125,572.3520889908332,left,1,1,0.5919414213185519,P30F12,2022-12-08_10h51.20.595,t1_Paradigm,2021.1.4,60.13799902394332,
N,left,Lure,0,5,5,5,573.8521164195145,575.8521241187937,left,1,1,0.45926680407774256,P30F12,2022-12-08_10h51.20.595,t1_Paradigm,2021.1.4,60.13799902394332,
Z,left,Distractor,0,6,6,6,577.351183363141,579.3515991242066,left,1,1,0.5115538909431052,P30F12,2022-12-08_10h51.20.595,t1_Paradigm,2021.1.4,60.13799902394332,
L,left,Pretarget,0,7,7,7,580.8508569457927,582.8505018165488,left,1,1,0.6089154442724976,P30F12,2022-12-08_10h51.20.595,t1_Paradigm,2021.1.4,60.13799902394332,
L,right,Target,0,8,8,8,584.3501943265937,586.3500573435886,right,1,1,0.40779776560520986,P30F12,2022-12-08_10h51.20.595,t1_Paradigm,2021.1.4,60.13799902394332,
H,left,Distractor,0,9,9,9,587.8496751064667,589.8493616816504,left,1,1,0.5166447183746641,P30F12,2022-12-08_10h51.20.595,t1_Paradigm,2021.1.4,60.13799902394332,
L,left,Lure,0,10,10,10,591.3490846680088,593.3485508513313,left,1,1,0.5243805689442524,P30F12,2022-12-08_10h51.20.595,t1_Paradigm,2021.1.4,60.13799902394332,
X,left,Pretarget,0,11,11,11,594.8482773665255,596.8488381306788,left,1,1,0.7141122971925142,P30F12,2022-12-08_10h51.20.595,t1_Paradigm,2021.1.4,60.13799902394332,
X,right,Target,0,12,12,12,598.347872993977,600.3472352370336,right,1,1,0.40801623264724185,P30F12,2022-12-08_10h51.20.595,t1_Paradigm,2021.1.4,60.13799902394332,
X,right,Target,0,13,13,13,601.8474205009343,603.8467426435791,right,1,1,0.5210778990594918,P30F12,2022-12-08_10h51.20.595,t1_Paradigm,2021.1.4,60.13799902394332,
R,left,Distractor,0,14,14,14,605.346687305012,607.3461499594987,left,1,1,0.5166707034413776,P30F12,2022-12-08_10h51.20.595,t1_Paradigm,2021.1.4,60.13799902394332,
T,left,Distractor,0,15,15,15,608.8459887558447,610.8455219870557,left,1,1,0.4784543697414847,P30F12,2022-12-08_10h51.20.595,t1_Paradigm,2021.1.4,60.13799902394332,
V,left,Pretarget,0,16,16,16,612.3453829188284,614.3451326922614,left,1,1,1.108804606735248,P30F12,2022-12-08_10h51.20.595,t1_Paradigm,2021.1.4,60.13799902394332,
V,right,Target,0,17,17,17,615.8450340452491,617.8446186049869,right,1,1,0.666889090281984,P30F12,2022-12-08_10h51.20.595,t1_Paradigm,2021.1.4,60.13799902394332,
N,left,Distractor,0,18,18,18,619.344404147987,621.3437907720936,left,1,1,0.5191665530483078,P30F12,2022-12-08_10h51.20.595,t1_Paradigm,2021.1.4,60.13799902394332,
B,left,Distractor,0,19,19,19,622.8436764057196,624.843210920144,left,1,1,0.6441832749205787,P30F12,2022-12-08_10h51.20.595,t1_Paradigm,2021.1.4,60.13799902394332,
V,left,Lure,0,20,20,20,626.3431395414118,628.342920432764,left,1,1,0.6179867989440027,P30F12,2022-12-08_10h51.20.595,t1_Paradigm,2021.1.4,60.13799902394332,
P,left,Distractor,0,21,21,21,629.842527609133,631.8427916302426,left,1,1,0.5837525965016539,P30F12,2022-12-08_10h51.20.595,t1_Paradigm,2021.1.4,60.13799902394332,
K,left,Pretarget,0,22,22,22,633.3421463344212,635.3416872649113,left,1,1,0.6648738040048556,P30F12,2022-12-08_10h51.20.595,t1_Paradigm,2021.1.4,60.13799902394332,
K,right,Target,0,23,23,23,636.8416046580642,638.8409688259399,right,1,1,0.5497051015745456,P30F12,2022-12-08_10h51.20.595,t1_Paradigm,2021.1.4,60.13799902394332,
J,left,Pretarget,0,24,24,24,640.3410029914903,642.3404521722396,left,1,1,0.5808711413374112,P30F12,2022-12-08_10h51.20.595,t1_Paradigm,2021.1.4,60.13799902394332,
J,right,Target,0,25,25,25,643.840380472704,645.8397934026807,right,1,1,0.40823245406500064,P30F12,2022-12-08_10h51.20.595,t1_Paradigm,2021.1.4,60.13799902394332,
H,left,Distractor,0,26,26,26,647.3395135018081,649.3394605692656,left,1,1,0.45617137311819533,P30F12,2022-12-08_10h51.20.595,t1_Paradigm,2021.1.4,60.13799902394332,
J,left,Lure,0,27,27,27,650.839146984048,652.8388842461527,left,1,1,0.519944180227867,P30F12,2022-12-08_10h51.20.595,t1_Paradigm,2021.1.4,60.13799902394332,
V,left,Distractor,0,28,28,28,654.3384272618641,656.338131802032,left,1,1,0.4859961343199757,P30F12,2022-12-08_10h51.20.595,t1_Paradigm,2021.1.4,60.13799902394332,
Z,left,Pretarget,0,29,29,29,657.8380174356589,659.8378814150637,left,1,1,0.5293883083240871,P30F12,2022-12-08_10h51.20.595,t1_Paradigm,2021.1.4,60.13799902394332,
Z,right,Target,0,30,30,30,661.3377038504414,663.3372444601282,right,1,1,0.41761530873282027,P30F12,2022-12-08_10h51.20.595,t1_Paradigm,2021.1.4,60.13799902394332,
T,left,Distractor,0,31,31,31,664.8369655216666,666.8367586035429,left,1,1,0.5063440454905503,P30F12,2022-12-08_10h51.20.595,t1_Paradigm,2021.1.4,60.13799902394332,
Z,left,Lure,0,32,32,32,668.3365653195606,670.3361569369699,left,1,1,0.6642851299657195,P30F12,2022-12-08_10h51.20.595,t1_Paradigm,2021.1.4,60.13799902394332,
F,left,Distractor,0,33,33,33,671.8358112714241,673.835569385742,left,1,1,0.6712103106183349,P30F12,2022-12-08_10h51.20.595,t1_Paradigm,2021.1.4,60.13799902394332,
Y,left,Pretarget,0,34,34,34,675.3353437006263,677.3350642809592,left,1,1,0.6621100836500773,P30F12,2022-12-08_10h51.20.595,t1_Paradigm,2021.1.4,60.13799902394332,
Y,right,Target,0,35,35,35,678.8349444609303,680.8348873579444,right,1,1,0.6483113716749358,P30F12,2022-12-08_10h51.20.595,t1_Paradigm,2021.1.4,60.13799902394332,
Y,right,Target,0,36,36,36,682.3340771692319,684.3339318453409,right,1,1,0.5128701468483996,P30F12,2022-12-08_10h51.20.595,t1_Paradigm,2021.1.4,60.13799902394332,
W,left,Distractor,0,37,37,37,685.8334305901981,687.8341199964716,left,1,1,0.4497010915329156,P30F12,2022-12-08_10h51.20.595,t1_Paradigm,2021.1.4,60.13799902394332,
Q,left,Distractor,0,38,38,38,689.3329335054977,691.3326284215673,left,1,1,0.4335858589911368,P30F12,2022-12-08_10h51.20.595,t1_Paradigm,2021.1.4,60.13799902394332,
P,left,Pretarget,0,39,39,39,692.832280510398,694.8319282683842,left,1,1,0.5794759678228729,P30F12,2022-12-08_10h51.20.595,t1_Paradigm,2021.1.4,60.13799902394332,
P,right,Target,0,40,40,40,696.3319281079821,698.3312739900712,right,1,1,0.5583231611954034,P30F12,2022-12-08_10h51.20.595,t1_Paradigm,2021.1.4,60.13799902394332,
J,left,Distractor,0,41,41,41,699.8310973878588,701.8308862992935,left,1,1,0.8587589724666032,P30F12,2022-12-08_10h51.20.595,t1_Paradigm,2021.1.4,60.13799902394332,
P,left,Lure,0,42,42,42,703.3307218876062,705.3300876594994,left,1,1,0.4501389880251736,P30F12,2022-12-08_10h51.20.595,t1_Paradigm,2021.1.4,60.13799902394332,
L,left,Distractor,0,43,43,43,706.8299992781922,708.8295235269115,left,1,1,0.43309695477546484,P30F12,2022-12-08_10h51.20.595,t1_Paradigm,2021.1.4,60.13799902394332,
Z,left,Distractor,0,44,44,44,710.3293048994683,712.3290466528188,left,1,1,0.5943407091353947,P30F12,2022-12-08_10h51.20.595,t1_Paradigm,2021.1.4,60.13799902394332,
F,left,Pretarget,0,45,45,45,713.8289489682165,715.8285415480359,left,1,1,0.5606015061721337,P30F12,2022-12-08_10h51.20.595,t1_Paradigm,2021.1.4,60.13799902394332,
F,right,Target,0,46,46,46,717.328394459727,719.3281775967025,right,1,1,0.5270932815765264,P30F12,2022-12-08_10h51.20.595,t1_Paradigm,2021.1.4,60.13799902394332,
G,left,Pretarget,0,47,47,47,720.8275906870804,722.8273760696784,left,1,1,0.42015574999823,P30F12,2022-12-08_10h51.20.595,t1_Paradigm,2021.1.4,60.13799902394332,
G,right,Target,0,48,48,48,724.3269957573766,726.3268109746805,right,1,1,0.6435493676171973,P30F12,2022-12-08_10h51.20.595,t1_Paradigm,2021.1.4,60.13799902394332,
V,left,Distractor,0,49,49,49,727.8265121464146,729.8260899692832,left,1,1,0.6264062813288547,P30F12,2022-12-08_10h51.20.595,t1_Paradigm,2021.1.4,60.13799902394332,
G,left,Lure,0,50,50,50,731.3258164844774,733.3257452661464,left,1,1,1.0537486666607947,P30F12,2022-12-08_10h51.20.595,t1_Paradigm,2021.1.4,60.13799902394332,
Q,left,Pretarget,0,51,51,51,734.8255632102782,736.8251936448869,left,1,1,0.6034967558762219,P30F12,2022-12-08_10h51.20.595,t1_Paradigm,2021.1.4,60.13799902394332,
Q,right,Target,0,52,52,52,738.3247844602884,740.3244306142578,right,1,1,0.6025622558890973,P30F12,2022-12-08_10h51.20.595,t1_Paradigm,2021.1.4,60.13799902394332,
Y,left,Distractor,0,53,53,53,741.8242135908313,743.8245475470576,left,1,1,0.6092984834031085,P30F12,2022-12-08_10h51.20.595,t1_Paradigm,2021.1.4,60.13799902394332,
V,left,Distractor,0,54,54,54,745.3235031719423,747.3234171966606,left,1,1,0.6620269955965341,P30F12,2022-12-08_10h51.20.595,t1_Paradigm,2021.1.4,60.13799902394332,
B,left,Distractor,0,55,55,55,748.8229313400752,750.8228922020744,left,1,1,0.5831918323483478,P30F12,2022-12-08_10h51.20.595,t1_Paradigm,2021.1.4,60.13799902394332,
J,left,Pretarget,0,56,56,56,752.3226472687611,754.3226973140745,left,1,1,0.8344629351895492,P30F12,2022-12-08_10h51.20.595,t1_Paradigm,2021.1.4,60.13799902394332,
J,right,Target,0,57,57,57,755.8222390465726,757.8219079775763,right,1,1,0.4219894616117017,P30F12,2022-12-08_10h51.20.595,t1_Paradigm,2021.1.4,60.13799902394332,
H,left,Distractor,0,58,58,58,759.3213951735142,761.3209967358262,left,1,1,0.4048367512250479,P30F12,2022-12-08_10h51.20.595,t1_Paradigm,2021.1.4,60.13799902394332,
J,left,Lure,0,59,59,59,762.8209471717182,764.8205529044726,left,1,1,0.6196398983047402,P30F12,2022-12-08_10h51.20.595,t1_Paradigm,2021.1.4,60.13799902394332,
D,left,Pretarget,0,60,60,60,766.3202980262577,768.3213236343809,left,1,1,0.5196423043298637,P30F12,2022-12-08_10h51.20.595,t1_Paradigm,2021.1.4,60.13799902394332,
D,right,Target,0,61,61,61,769.8368529197105,771.8361891777013,right,1,1,0.33189025319461507,P30F12,2022-12-08_10h51.20.595,t1_Paradigm,2021.1.4,60.13799902394332,
R,left,Distractor,0,62,62,62,773.3360315028831,775.3355916815708,left,1,1,0.5145941437367583,P30F12,2022-12-08_10h51.20.595,t1_Paradigm,2021.1.4,60.13799902394332,
F,left,Distractor,0,63,63,63,776.8353281416667,778.8351876298248,left,1,1,0.5296359684652998,P30F12,2022-12-08_10h51.20.595,t1_Paradigm,2021.1.4,60.13799902394332,
F,left,Distractor,0,0,0,0,989.9046935125552,991.9167595659528,None,0,2,,P30F12,2022-12-08_10h51.20.595,t1_Paradigm,2021.1.4,60.13799902394332,
N,left,Pretarget,0,1,1,1,993.416690432844,995.4189472839989,None,0,2,,P30F12,2022-12-08_10h51.20.595,t1_Paradigm,2021.1.4,60.13799902394332,
V,left,Distractor,0,2,2,2,996.9157772662747,998.9155892755462,left,1,2,0.5817600872587718,P30F12,2022-12-08_10h51.20.595,t1_Paradigm,2021.1.4,60.13799902394332,
N,right,Target,0,3,3,3,1000.4154062572679,1002.4150472783849,right,1,2,1.233128072693944,P30F12,2022-12-08_10h51.20.595,t1_Paradigm,2021.1.4,60.13799902394332,
N,left,Lure,0,4,4,4,1003.9147786056283,1005.914683647854,left,1,2,1.27690424823777,P30F12,2022-12-08_10h51.20.595,t1_Paradigm,2021.1.4,60.13799902394332,
X,left,Distractor,0,5,5,5,1007.4140620914768,1009.4139777202117,left,1,2,1.3535021293319005,P30F12,2022-12-08_10h51.20.595,t1_Paradigm,2021.1.4,60.13799902394332,
G,left,Pretarget,0,6,6,6,1010.9136041447782,1012.9133151010128,left,1,2,0.6673908266293438,P30F12,2022-12-08_10h51.20.595,t1_Paradigm,2021.1.4,60.13799902394332,
H,left,Pretarget,0,7,7,7,1014.4129729643028,1016.4126313087972,left,1,2,0.7728366229039239,P30F12,2022-12-08_10h51.20.595,t1_Paradigm,2021.1.4,60.13799902394332,
G,right,Target,0,8,8,8,1017.9123732225489,1019.9121666252295,right,1,2,1.093753799514161,P30F12,2022-12-08_10h51.20.595,t1_Paradigm,2021.1.4,60.13799902394332,
H,right,Target,0,9,9,9,1021.4123002398001,1023.4114465822422,None,0,2,,P30F12,2022-12-08_10h51.20.595,t1_Paradigm,2021.1.4,60.13799902394332,
T,left,Pretarget,0,10,10,10,1024.9113004563424,1026.9109494975419,left,1,2,0.7294906445740708,P30F12,2022-12-08_10h51.20.595,t1_Paradigm,2021.1.4,60.13799902394332,
K,left,Distractor,0,11,11,11,1028.410638478751,1030.4102759710313,left,1,2,0.7898780145487763,P30F12,2022-12-08_10h51.20.595,t1_Paradigm,2021.1.4,60.13799902394332,
T,right,Target,0,12,12,12,1031.9100698549164,1033.90966371795,right,1,2,0.6627962818893138,P30F12,2022-12-08_10h51.20.595,t1_Paradigm,2021.1.4,60.13799902394332,
T,left,Lure,0,13,13,13,1035.4096773520896,1037.4091573299538,left,1,2,0.7599143455217927,P30F12,2022-12-08_10h51.20.595,t1_Paradigm,2021.1.4,60.13799902394332,
J,left,Distractor,0,14,14,14,1038.9092376911785,1040.9085675331025,left,1,2,0.633143471252879,P30F12,2022-12-08_10h51.20.595,t1_Paradigm,2021.1.4,60.13799902394332,
Q,left,Pretarget,0,15,15,15,1042.4083970261536,1044.4079668289396,left,1,2,0.8275008621585584,P30F12,2022-12-08_10h51.20.595,t1_Paradigm,2021.1.4,60.13799902394332,
M,left,Distractor,0,16,16,16,1045.9077077802822,1047.9073077385774,left,1,2,0.6438518851209665,P30F12,2022-12-08_10h51.20.595,t1_Paradigm,2021.1.4,60.13799902394332,
Q,right,Target,0,17,17,17,1049.4074006111305,1051.4069149149473,right,1,2,1.188910151017808,P30F12,2022-12-08_10h51.20.595,t1_Paradigm,2021.1.4,60.13799902394332,
R,left,Distractor,0,18,18,18,1052.9068047190167,1054.9062590326175,left,1,2,1.1674711878549715,P30F12,2022-12-08_10h51.20.595,t1_Paradigm,2021.1.4,60.13799902394332,
W,left,Distractor,0,19,19,19,1056.406123493227,1058.4057792712956,left,1,2,1.4605018967495198,P30F12,2022-12-08_10h51.20.595,t1_Paradigm,2021.1.4,60.13799902394332,
C,left,Pretarget,0,20,20,20,1059.905425264863,1061.9050893838166,left,1,2,0.7910524753979189,P30F12,2022-12-08_10h51.20.595,t1_Paradigm,2021.1.4,60.13799902394332,
T,left,Distractor,0,21,21,21,1063.4051780859272,1065.4052249232082,left,1,2,0.7161683254871605,P30F12,2022-12-08_10h51.20.595,t1_Paradigm,2021.1.4,60.13799902394332,
C,right,Target,0,22,22,22,1066.904424358594,1068.9039617602475,right,1,2,0.6749143054212254,P30F12,2022-12-08_10h51.20.595,t1_Paradigm,2021.1.4,60.13799902394332,
F,left,Pretarget,0,23,23,23,1070.4037052780159,1072.40362764362,left,1,2,0.6412386215079096,P30F12,2022-12-08_10h51.20.595,t1_Paradigm,2021.1.4,60.13799902394332,
C,right,Target,0,24,24,24,1073.9034234523242,1075.902927490436,right,1,2,0.4937637444154461,P30F12,2022-12-08_10h51.20.595,t1_Paradigm,2021.1.4,60.13799902394332,
F,right,Target,0,25,25,25,1077.40257701284,1079.402333202339,right,1,2,0.7292221322195473,P30F12,2022-12-08_10h51.20.595,t1_Paradigm,2021.1.4,60.13799902394332,
H,left,Distractor,0,26,26,26,1080.902188038849,1082.9016263122858,left,1,2,0.9687726868078244,P30F12,2022-12-08_10h51.20.595,t1_Paradigm,2021.1.4,60.13799902394332,
H,left,Lure,0,27,27,27,1084.4015270236669,1086.4011061297488,left,1,2,0.8822966307634488,P30F12,2022-12-08_10h51.20.595,t1_Paradigm,2021.1.4,60.13799902394332,
P,left,Distractor,0,28,28,28,1087.9009369060122,1089.9005275610125,left,1,2,0.660832965746522,P30F12,2022-12-08_10h51.20.595,t1_Paradigm,2021.1.4,60.13799902394332,
G,left,Pretarget,0,29,29,29,1091.4002701163718,1093.3999165911446,left,1,2,0.5541944228352804,P30F12,2022-12-08_10h51.20.595,t1_Paradigm,2021.1.4,60.13799902394332,
K,left,Distractor,0,30,30,30,1094.899806395214,1096.9001461258995,left,1,2,0.7483689558657716,P30F12,2022-12-08_10h51.20.595,t1_Paradigm,2021.1.4,60.13799902394332,
G,right,Target,0,31,31,31,1098.415712945215,1100.4156795816725,right,1,2,0.5433669909452874,P30F12,2022-12-08_10h51.20.595,t1_Paradigm,2021.1.4,60.13799902394332,
M,left,Pretarget,0,32,32,32,1101.9152607729757,1103.915274246714,left,1,2,0.7053078508588442,P30F12,2022-12-08_10h51.20.595,t1_Paradigm,2021.1.4,60.13799902394332,
B,left,Distractor,0,33,33,33,1105.4147338535695,1107.4145635070217,left,1,2,0.814816941621757,P30F12,2022-12-08_10h51.20.595,t1_Paradigm,2021.1.4,60.13799902394332,
M,right,Target,0,34,34,34,1108.9140474949272,1110.9137456190301,right,1,2,0.3695618629044475,P30F12,2022-12-08_10h51.20.595,t1_Paradigm,2021.1.4,60.13799902394332,
M,left,Lure,0,35,35,35,1112.413648896838,1114.4135125554385,left,1,2,1.053265857707629,P30F12,2022-12-08_10h51.20.595,t1_Paradigm,2021.1.4,60.13799902394332,
T,left,Distractor,0,36,36,36,1115.9130343981333,1117.912677985676,left,1,2,1.1999387265714176,P30F12,2022-12-08_10h51.20.595,t1_Paradigm,2021.1.4,60.13799902394332,
F,left,Distractor,0,37,37,37,1119.4123506059168,1121.4120702238406,left,1,2,0.7095103739766273,P30F12,2022-12-08_10h51.20.595,t1_Paradigm,2021.1.4,60.13799902394332,
X,left,Distractor,0,38,38,38,1122.9120925196694,1124.9114393641676,left,1,2,0.5371661841254536,P30F12,2022-12-08_10h51.20.595,t1_Paradigm,2021.1.4,60.13799902394332,
C,left,Distractor,0,39,39,39,1126.411476416948,1128.410865286678,left,1,2,0.7894231154805311,P30F12,2022-12-08_10h51.20.595,t1_Paradigm,2021.1.4,60.13799902394332,
R,left,Distractor,0,40,40,40,1129.9114255696259,1131.910640243168,left,1,2,0.7641415704929386,P30F12,2022-12-08_10h51.20.595,t1_Paradigm,2021.1.4,60.13799902394332,
B,left,Pretarget,0,41,41,41,1133.4103173546555,1135.4097434375672,left,1,2,1.048885930369579,P30F12,2022-12-08_10h51.20.595,t1_Paradigm,2021.1.4,60.13799902394332,
H,left,Distractor,0,42,42,42,1136.909507165943,1138.9091353549284,left,1,2,1.0808414670336788,P30F12,2022-12-08_10h51.20.595,t1_Paradigm,2021.1.4,60.13799902394332,
B,right,Target,0,43,43,43,1140.408929880421,1142.4087932182192,right,1,2,0.6393170097926486,P30F12,2022-12-08_10h51.20.595,t1_Paradigm,2021.1.4,60.13799902394332,
W,left,Pretarget,0,44,44,44,1143.9083564445373,1145.9081379774962,left,1,2,0.7813837849971605,P30F12,2022-12-08_10h51.20.595,t1_Paradigm,2021.1.4,60.13799902394332,
L,left,Pretarget,0,45,45,45,1147.407802256852,1149.4079321821846,left,1,2,1.028707403338558,P30F12,2022-12-08_10h51.20.595,t1_Paradigm,2021.1.4,60.13799902394332,
W,right,Target,0,46,46,46,1150.907398205105,1152.9069769903836,right,1,2,0.7467338214883057,P30F12,2022-12-08_10h51.20.595,t1_Paradigm,2021.1.4,60.13799902394332,
L,right,Target,0,47,47,47,1154.4068549247313,1156.4063082759221,right,1,2,0.8109554324037163,P30F12,2022-12-08_10h51.20.595,t1_Paradigm,2021.1.4,60.13799902394332,
W,right,Target,0,48,48,48,1157.9060566057415,1159.9057656371551,right,1,2,1.115908795623909,P30F12,2022-12-08_10h51.20.595,t1_Paradigm,2021.1.4,60.13799902394332,
X,left,Distractor,0,49,49,49,1161.4057109401947,1163.4054388990025,left,1,2,0.9762551027779409,P30F12,2022-12-08_10h51.20.595,t1_Paradigm,2021.1.4,60.13799902394332,
R,left,Distractor,0,50,50,50,1164.9047271969011,1166.9054990496206,left,1,2,0.9990138506818766,P30F12,2022-12-08_10h51.20.595,t1_Paradigm,2021.1.4,60.13799902394332,
V,left,Pretarget,0,51,51,51,1168.4046837280548,1170.4042217713159,left,1,2,0.7666974103158282,P30F12,2022-12-08_10h51.20.595,t1_Paradigm,2021.1.4,60.13799902394332,
Z,left,Distractor,0,52,52,52,1171.9038651984574,1173.9036544306946,left,1,2,0.7129349491115136,P30F12,2022-12-08_10h51.20.595,t1_Paradigm,2021.1.4,60.13799902394332,
V,right,Target,0,53,53,53,1175.4032972162295,1177.4036908418675,right,1,2,0.4505290848283039,P30F12,2022-12-08_10h51.20.595,t1_Paradigm,2021.1.4,60.13799902394332,
V,left,Lure,0,54,54,54,1178.9027693344142,1180.9024283205144,None,0,2,,P30F12,2022-12-08_10h51.20.595,t1_Paradigm,2021.1.4,60.13799902394332,
N,left,Distractor,0,55,55,55,1182.4023691323073,1184.402446766704,left,1,2,0.9547192570207699,P30F12,2022-12-08_10h51.20.595,t1_Paradigm,2021.1.4,60.13799902394332,
B,left,Distractor,0,56,56,56,1185.9014492288698,1187.9016016104324,left,1,2,0.7219973212922923,P30F12,2022-12-08_10h51.20.595,t1_Paradigm,2021.1.4,60.13799902394332,
V,left,Lure,0,57,57,57,1189.4008745097726,1191.4005488944313,left,1,2,0.9336992629541783,P30F12,2022-12-08_10h51.20.595,t1_Paradigm,2021.1.4,60.13799902394332,
J,left,Distractor,0,58,58,58,1192.900343419924,1194.9001339353745,left,1,2,0.777723419441827,P30F12,2022-12-08_10h51.20.595,t1_Paradigm,2021.1.4,60.13799902394332,
H,left,Distractor,0,59,59,59,1196.3997712672535,1198.4003516004068,left,1,2,1.0126059653375705,P30F12,2022-12-08_10h51.20.595,t1_Paradigm,2021.1.4,60.13799902394332,
X,left,Pretarget,0,60,60,60,1199.9161339995353,1201.9157307497971,left,1,2,0.7879467787352041,P30F12,2022-12-08_10h51.20.595,t1_Paradigm,2021.1.4,60.13799902394332,
P,left,Distractor,0,61,61,61,1203.4151666172093,1205.4152060760152,left,1,2,0.946480386888652,P30F12,2022-12-08_10h51.20.595,t1_Paradigm,2021.1.4,60.13799902394332,
X,right,Target,0,62,62,62,1206.914825122105,1208.9153624676183,right,1,2,0.5735475229976146,P30F12,2022-12-08_10h51.20.595,t1_Paradigm,2021.1.4,60.13799902394332,
Q,left,Distractor,0,63,63,63,1210.4143508144389,1212.413875704764,None,0,2,,P30F12,2022-12-08_10h51.20.595,t1_Paradigm,2021.1.4,60.13799902394332,
B,left,Pretarget,0,0,0,0,1218.6920253113803,1220.6968338319148,None,0,2,,P30F12,2022-12-08_10h51.20.595,t1_Paradigm,2021.1.4,60.13799902394332,
F,left,Distractor,0,1,1,1,1222.195846238983,1224.1954105881123,None,0,2,,P30F12,2022-12-08_10h51.20.595,t1_Paradigm,2021.1.4,60.13799902394332,
B,right,Target,0,2,2,2,1225.6951775245216,1227.6949224859054,right,1,2,0.6786073929106351,P30F12,2022-12-08_10h51.20.595,t1_Paradigm,2021.1.4,60.13799902394332,
V,left,Distractor,0,3,3,3,1229.1945935021286,1231.1949746164391,left,1,2,0.7545270958489709,P30F12,2022-12-08_10h51.20.595,t1_Paradigm,2021.1.4,60.13799902394332,
G,left,Pretarget,0,4,4,4,1232.6940656203133,1234.6935917938517,left,1,2,0.7708274318902113,P30F12,2022-12-08_10h51.20.595,t1_Paradigm,2021.1.4,60.13799902394332,
B,left,Lure,0,5,5,5,1236.1934424599203,1238.193060704003,left,1,2,0.6559051063868537,P30F12,2022-12-08_10h51.20.595,t1_Paradigm,2021.1.4,60.13799902394332,
G,right,Target,0,6,6,6,1239.6928866682174,1241.692560090467,right,1,2,0.9974881102280051,P30F12,2022-12-08_10h51.20.595,t1_Paradigm,2021.1.4,60.13799902394332,
Y,left,Pretarget,0,7,7,7,1243.1923382549903,1245.1918195160688,left,1,2,0.7805974961302127,P30F12,2022-12-08_10h51.20.595,t1_Paradigm,2021.1.4,60.13799902394332,
P,left,Distractor,0,8,8,8,1246.6916300817247,1248.6911771074774,left,1,2,0.575924675387796,P30F12,2022-12-08_10h51.20.595,t1_Paradigm,2021.1.4,60.13799902394332,
Y,right,Target,0,9,9,9,1250.1910082045433,1252.1908118729298,right,1,2,1.1582172961097967,P30F12,2022-12-08_10h51.20.595,t1_Paradigm,2021.1.4,60.13799902394332,
X,left,Distractor,0,10,10,10,1253.6904482423997,1255.6902602516693,left,1,2,1.1043935614779912,P30F12,2022-12-08_10h51.20.595,t1_Paradigm,2021.1.4,60.13799902394332,
Y,right,Target,0,11,11,11,1257.189946987257,1259.1896768708848,right,1,2,1.2262619198481843,P30F12,2022-12-08_10h51.20.595,t1_Paradigm,2021.1.4,60.13799902394332,
N,left,Distractor,0,12,12,12,1260.689240418007,1262.6889959658984,left,1,2,0.732091396857868,P30F12,2022-12-08_10h51.20.595,t1_Paradigm,2021.1.4,60.13799902394332,
Y,right,Target,0,13,13,13,1264.1888030027185,1266.1885389816107,right,1,2,0.8128116002462775,P30F12,2022-12-08_10h51.20.595,t1_Paradigm,2021.1.4,60.13799902394332,
Y,left,Lure,0,14,14,14,1267.6881185688962,1269.6877788382117,left,1,2,1.1220143238679157,P30F12,2022-12-08_10h51.20.595,t1_Paradigm,2021.1.4,60.13799902394332,
K,left,Distractor,0,15,15,15,1271.1877177251845,1273.1872339538204,left,1,2,0.6930249344350159,P30F12,2022-12-08_10h51.20.595,t1_Paradigm,2021.1.4,60.13799902394332,
T,left,Pretarget,0,16,16,16,1274.687162254284,1276.6875334236938,left,1,2,0.7565760664692789,P30F12,2022-12-08_10h51.20.595,t1_Paradigm,2021.1.4,60.13799902394332,
J,left,Distractor,0,17,17,17,1278.1866067833853,1280.186096706153,left,1,2,0.5200237394437863,P30F12,2022-12-08_10h51.20.595,t1_Paradigm,2021.1.4,60.13799902394332,
T,right,Target,0,18,18,18,1281.6862489273135,1283.6863409978578,right,1,2,0.6327973245006433,P30F12,2022-12-08_10h51.20.595,t1_Paradigm,2021.1.4,60.13799902394332,
S,left,Pretarget,0,19,19,19,1285.1853505176969,1287.1852966227434,left,1,2,0.9955029794618895,P30F12,2022-12-08_10h51.20.595,t1_Paradigm,2021.1.4,60.13799902394332,
R,left,Distractor,0,20,20,20,1288.6846452316604,1290.6843632455675,left,1,2,0.7997523398589692,P30F12,2022-12-08_10h51.20.595,t1_Paradigm,2021.1.4,60.13799902394332,
S,right,Target,0,21,21,21,1292.1841969090601,1294.1838244564387,right,1,2,0.4070499731333257,P30F12,2022-12-08_10h51.20.595,t1_Paradigm,2021.1.4,60.13799902394332,
Q,left,Distractor,0,22,22,22,1295.6836141698823,1297.683311010771,left,1,2,0.8999010321858805,P30F12,2022-12-08_10h51.20.595,t1_Paradigm,2021.1.4,60.13799902394332,
D,left,Distractor,0,23,23,23,1299.1831850954786,1301.182345553265,left,1,2,0.678891624627795,P30F12,2022-12-08_10h51.20.595,t1_Paradigm,2021.1.4,60.13799902394332,
F,left,Distractor,0,24,24,24,1302.6828352594894,1304.6823017636161,left,1,2,0.510476954294063,P30F12,2022-12-08_10h51.20.595,t1_Paradigm,2021.1.4,60.13799902394332,
Z,left,Distractor,0,25,25,25,1306.182229422473,1308.1816571094023,left,1,2,0.6361275834678963,P30F12,2022-12-08_10h51.20.595,t1_Paradigm,2021.1.4,60.13799902394332,
P,left,Distractor,0,26,26,26,1309.6814269330407,1311.68148628165,left,1,2,0.6920532212661783,P30F12,2022-12-08_10h51.20.595,t1_Paradigm,2021.1.4,60.13799902394332,
H,left,Distractor,0,27,27,27,1313.181061698493,1315.1809689863421,left,1,2,0.5526398100846563,P30F12,2022-12-08_10h51.20.595,t1_Paradigm,2021.1.4,60.13799902394332,
Z,left,Pretarget,0,28,28,28,1316.6802258455173,1318.6798691122567,left,1,2,1.2008026498351683,P30F12,2022-12-08_10h51.20.595,t1_Paradigm,2021.1.4,60.13799902394332,
J,left,Pretarget,0,29,29,29,1320.1796646001585,1322.1796543344535,left,1,2,1.012463528675653,P30F12,2022-12-08_10h51.20.595,t1_Paradigm,2021.1.4,60.13799902394332,
Z,right,Target,0,30,30,30,1323.679161741,1325.678888095792,right,1,2,0.5144164187113347,P30F12,2022-12-08_10h51.20.595,t1_Paradigm,2021.1.4,60.13799902394332,
J,right,Target,0,31,31,31,1327.1785969668053,1329.178227401413,None,0,2,,P30F12,2022-12-08_10h51.20.595,t1_Paradigm,2021.1.4,60.13799902394332,
V,left,Pretarget,0,32,32,32,1330.6780466287582,1332.6782362235044,left,1,2,0.9608122739336977,P30F12,2022-12-08_10h51.20.595,t1_Paradigm,2021.1.4,60.13799902394332,
Z,left,Lure,0,33,33,33,1334.1773368514769,1336.1769326393296,left,1,2,0.6343705438412144,P30F12,2022-12-08_10h51.20.595,t1_Paradigm,2021.1.4,60.13799902394332,
V,right,Target,0,34,34,34,1337.6765273043693,1339.6765276251735,right,1,2,0.9719884190017183,P30F12,2022-12-08_10h51.20.595,t1_Paradigm,2021.1.4,60.13799902394332,
X,left,Distractor,0,35,35,35,1341.1763051480903,1343.1759144096814,left,1,2,0.9875316592751915,P30F12,2022-12-08_10h51.20.595,t1_Paradigm,2021.1.4,60.13799902394332,
S,left,Distractor,0,36,36,36,1344.6756537570072,1346.675351881111,left,1,2,0.6732794918461877,P30F12,2022-12-08_10h51.20.595,t1_Paradigm,2021.1.4,60.13799902394332,
Q,left,Distractor,0,37,37,37,1348.1751714292586,1350.1748865559366,left,1,2,0.6599427366127202,P30F12,2022-12-08_10h51.20.595,t1_Paradigm,2021.1.4,60.13799902394332,
P,left,Distractor,0,38,38,38,1351.6745383239631,1353.674417381122,left,1,2,0.9812503308294254,P30F12,2022-12-08_10h51.20.595,t1_Paradigm,2021.1.4,60.13799902394332,
S,left,Lure,0,39,39,39,1355.17390746429,1357.1736132876722,left,1,2,0.6219034863297566,P30F12,2022-12-08_10h51.20.595,t1_Paradigm,2021.1.4,60.13799902394332,
K,left,Pretarget,0,40,40,40,1358.6733138178006,1360.6729724830984,left,1,2,0.7316903927439853,P30F12,2022-12-08_10h51.20.595,t1_Paradigm,2021.1.4,60.13799902394332,
L,left,Distractor,0,41,41,41,1362.1726094941732,1364.172426636298,left,1,2,0.8287369172394392,P30F12,2022-12-08_10h51.20.595,t1_Paradigm,2021.1.4,60.13799902394332,
K,right,Target,0,42,42,42,1365.6720145644686,1367.6717511849674,right,1,2,0.375462718648123,P30F12,2022-12-08_10h51.20.595,t1_Paradigm,2021.1.4,60.13799902394332,
B,left,Distractor,0,43,43,43,1369.1716310441352,1371.1712749524813,left,1,2,0.6273215331184474,P30F12,2022-12-08_10h51.20.595,t1_Paradigm,2021.1.4,60.13799902394332,
N,left,Distractor,0,44,44,44,1372.671009487758,1374.671713330179,left,1,2,0.7069449100545171,P30F12,2022-12-08_10h51.20.595,t1_Paradigm,2021.1.4,60.13799902394332,
S,left,Pretarget,0,45,45,45,1376.1870761186,1378.1867755259173,left,1,2,0.8091708036918135,P30F12,2022-12-08_10h51.20.595,t1_Paradigm,2021.1.4,60.13799902394332,
Z,left,Distractor,0,46,46,46,1379.6864741312238,1381.6864446173222,left,1,2,0.7181842533700546,P30F12,2022-12-08_10h51.20.595,t1_Paradigm,2021.1.4,60.13799902394332,
S,right,Target,0,47,47,47,1383.1859253971943,1385.1861429018263,right,1,2,0.38312125562333676,P30F12,2022-12-08_10h51.20.595,t1_Paradigm,2021.1.4,60.13799902394332,
C,left,Distractor,0,48,48,48,1386.6853676806732,1388.685214657502,left,1,2,0.5381093458036048,P30F12,2022-12-08_10h51.20.595,t1_Paradigm,2021.1.4,60.13799902394332,
T,left,Pretarget,0,49,49,49,1390.184816380217,1392.1846922293425,left,1,2,0.5577348079586955,P30F12,2022-12-08_10h51.20.595,t1_Paradigm,2021.1.4,60.13799902394332,
S,left,Lure,0,50,50,50,1393.6841746132322,1395.6839186122052,left,1,2,0.944427566628292,P30F12,2022-12-08_10h51.20.595,t1_Paradigm,2021.1.4,60.13799902394332,
T,right,Target,0,51,51,51,1397.1837724863053,1399.1832652963021,right,1,2,0.6337597343754169,P30F12,2022-12-08_10h51.20.595,t1_Paradigm,2021.1.4,60.13799902394332,
N,left,Pretarget,0,52,52,52,1400.683095430959,1402.6829231595912,left,1,2,0.9635673325992684,P30F12,2022-12-08_10h51.20.595,t1_Paradigm,2021.1.4,60.13799902394332,
B,left,Distractor,0,53,53,53,1404.182664431737,1406.182007426596,left,1,2,0.710232181381798,P30F12,2022-12-08_10h51.20.595,t1_Paradigm,2021.1.4,60.13799902394332,
N,right,Target,0,54,54,54,1407.6821144144942,1409.682368169897,left,0,2,1.1815438658395578,P30F12,2022-12-08_10h51.20.595,t1_Paradigm,2021.1.4,60.13799902394332,
N,left,Lure,0,55,55,55,1411.1813157747001,1413.1812506516326,right,0,2,1.1895700433888123,P30F12,2022-12-08_10h51.20.595,t1_Paradigm,2021.1.4,60.13799902394332,
X,left,Distractor,0,56,56,56,1414.6809402744475,1416.6805129644636,left,1,2,0.8466569891006657,P30F12,2022-12-08_10h51.20.595,t1_Paradigm,2021.1.4,60.13799902394332,
W,left,Distractor,0,57,57,57,1418.1805362227024,1420.179930225284,left,1,2,0.670401565519569,P30F12,2022-12-08_10h51.20.595,t1_Paradigm,2021.1.4,60.13799902394332,
S,left,Distractor,0,58,58,58,1421.679599637493,1423.680033363542,left,1,2,1.2155554307992134,P30F12,2022-12-08_10h51.20.595,t1_Paradigm,2021.1.4,60.13799902394332,
L,left,Distractor,0,59,59,59,1425.1789800059341,1427.1786765260204,left,1,2,0.6774258743898827,P30F12,2022-12-08_10h51.20.595,t1_Paradigm,2021.1.4,60.13799902394332,
K,left,Pretarget,0,60,60,60,1428.6787151828175,1430.6784678434797,left,1,2,0.7168599773831374,P30F12,2022-12-08_10h51.20.595,t1_Paradigm,2021.1.4,60.13799902394332,
V,left,Pretarget,0,61,61,61,1432.1781125538346,1434.1777956001824,left,1,2,0.5290501816543838,P30F12,2022-12-08_10h51.20.595,t1_Paradigm,2021.1.4,60.13799902394332,
K,right,Target,0,62,62,62,1435.6773119892205,1437.677614185921,right,1,2,0.5441208786796778,P30F12,2022-12-08_10h51.20.595,t1_Paradigm,2021.1.4,60.13799902394332,
V,right,Target,0,63,63,63,1439.1767642176,1441.1763731583887,None,0,2,,P30F12,2022-12-08_10h51.20.595,t1_Paradigm,2021.1.4,60.13799902394332,
R,left,Distractor,0,0,0,0,1595.044942295508,1597.050853737759,None,0,3,,P30F12,2022-12-08_10h51.20.595,t1_Paradigm,2021.1.4,60.13799902394332,
P,left,Lure,0,1,1,1,1598.5507615068127,1600.5503675603704,None,0,3,,P30F12,2022-12-08_10h51.20.595,t1_Paradigm,2021.1.4,60.13799902394332,
V,left,Distractor,0,2,2,2,1602.0500806018263,1604.0505643731904,None,0,3,,P30F12,2022-12-08_10h51.20.595,t1_Paradigm,2021.1.4,60.13799902394332,
P,left,Pretarget,0,3,3,3,1605.5497525804622,1607.5498674280407,left,1,3,0.7220470458014461,P30F12,2022-12-08_10h51.20.595,t1_Paradigm,2021.1.4,60.13799902394332,
Z,left,Distractor,0,4,4,4,1609.0491265328383,1611.049250042106,left,1,3,0.8844761683249089,P30F12,2022-12-08_10h51.20.595,t1_Paradigm,2021.1.4,60.13799902394332,
L,left,Pretarget,0,5,5,5,1612.5483644646192,1614.5489008477234,left,1,3,1.075676213238694,P30F12,2022-12-08_10h51.20.595,t1_Paradigm,2021.1.4,60.13799902394332,
P,right,Target,0,6,6,6,1616.0480290647774,1618.0474182553116,right,1,3,1.434488278649951,P30F12,2022-12-08_10h51.20.595,t1_Paradigm,2021.1.4,60.13799902394332,
S,left,Distractor,0,7,7,7,1619.5476442612307,1621.547101782864,left,1,3,0.6917163778107351,P30F12,2022-12-08_10h51.20.595,t1_Paradigm,2021.1.4,60.13799902394332,
L,right,Target,0,8,8,8,1623.0466024525413,1625.0465161564553,right,1,3,1.0255952906081802,P30F12,2022-12-08_10h51.20.595,t1_Paradigm,2021.1.4,60.13799902394332,
D,left,Distractor,0,9,9,9,1626.5461486762852,1628.5459821793775,None,0,3,,P30F12,2022-12-08_10h51.20.595,t1_Paradigm,2021.1.4,60.13799902394332,
G,left,Distractor,0,10,10,10,1630.045726659555,1632.0455399520397,left,1,3,0.575651350984117,P30F12,2022-12-08_10h51.20.595,t1_Paradigm,2021.1.4,60.13799902394332,
M,left,Pretarget,0,11,11,11,1633.5455638518852,1635.5447544651815,left,1,3,0.860192321573777,P30F12,2022-12-08_10h51.20.595,t1_Paradigm,2021.1.4,60.13799902394332,
Y,left,Distractor,0,12,12,12,1637.044574013329,1639.0440552744076,left,1,3,0.5257311508012208,P30F12,2022-12-08_10h51.20.595,t1_Paradigm,2021.1.4,60.13799902394332,
V,left,Distractor,0,13,13,13,1640.5439611186412,1642.5436024605606,left,1,3,0.2803692445886554,P30F12,2022-12-08_10h51.20.595,t1_Paradigm,2021.1.4,60.13799902394332,
M,right,Target,0,14,14,14,1644.0434149510365,1646.0430643130403,right,1,3,1.0545955873512867,P30F12,2022-12-08_10h51.20.595,t1_Paradigm,2021.1.4,60.13799902394332,
S,left,Pretarget,0,15,15,15,1647.542789224217,1649.5423086608862,left,1,3,0.935647501344647,P30F12,2022-12-08_10h51.20.595,t1_Paradigm,2021.1.4,60.13799902394332,
Q,left,Distractor,0,16,16,16,1651.04283525949,1653.0417506235608,left,1,3,1.3346100234994083,P30F12,2022-12-08_10h51.20.595,t1_Paradigm,2021.1.4,60.13799902394332,
R,left,Pretarget,0,17,17,17,1654.5417562376188,1656.5413164163056,left,1,3,0.8079485431517242,P30F12,2022-12-08_10h51.20.595,t1_Paradigm,2021.1.4,60.13799902394332,
S,right,Target,0,18,18,18,1658.0410503099756,1660.0407699279003,right,1,3,0.5501725119702314,P30F12,2022-12-08_10h51.20.595,t1_Paradigm,2021.1.4,60.13799902394332,
F,left,Distractor,0,19,19,19,1661.5403864075652,1663.5400008020079,left,1,3,0.9986584006346675,P30F12,2022-12-08_10h51.20.595,t1_Paradigm,2021.1.4,60.13799902394332,
R,right,Target,0,20,20,20,1665.0400513285258,1667.0395444593269,right,1,3,1.1406026289823785,P30F12,2022-12-08_10h51.20.595,t1_Paradigm,2021.1.4,60.13799902394332,
P,left,Distractor,0,21,21,21,1668.5393004884227,1670.5394102031478,left,1,3,0.9235134376485803,P30F12,2022-12-08_10h51.20.595,t1_Paradigm,2021.1.4,60.13799902394332,
L,left,Distractor,0,22,22,22,1672.038739243064,1674.0384534073328,left,1,3,1.0253081716618908,P30F12,2022-12-08_10h51.20.595,t1_Paradigm,2021.1.4,60.13799902394332,
R,right,Target,0,23,23,23,1675.5380609045042,1677.5378504575456,right,1,3,0.8616487685158063,P30F12,2022-12-08_10h51.20.595,t1_Paradigm,2021.1.4,60.13799902394332,
H,left,Pretarget,0,24,24,24,1679.0375458548206,1681.0372250515284,left,1,3,1.2648747664152324,P30F12,2022-12-08_10h51.20.595,t1_Paradigm,2021.1.4,60.13799902394332,
G,left,Pretarget,0,25,25,25,1682.5370083489051,1684.538830190797,left,1,3,1.3923995284185366,P30F12,2022-12-08_10h51.20.595,t1_Paradigm,2021.1.4,60.13799902394332,
T,left,Distractor,0,26,26,26,1686.0370274367015,1688.0360361545318,left,1,3,1.112550626770826,P30F12,2022-12-08_10h51.20.595,t1_Paradigm,2021.1.4,60.13799902394332,
H,right,Target,0,27,27,27,1689.5360029513904,1691.5356503885723,right,1,3,0.736708397827897,P30F12,2022-12-08_10h51.20.595,t1_Paradigm,2021.1.4,60.13799902394332,
G,right,Target,0,28,28,28,1693.0354516509342,1695.034938686471,right,1,3,0.8625762108331401,P30F12,2022-12-08_10h51.20.595,t1_Paradigm,2021.1.4,60.13799902394332,
D,left,Distractor,0,29,29,29,1696.5348859143287,1698.53462093081,right,0,3,1.1510210366759566,P30F12,2022-12-08_10h51.20.595,t1_Paradigm,2021.1.4,60.13799902394332,
N,left,Pretarget,0,30,30,30,1700.0339409882345,1702.0339669733003,left,1,3,0.968588866522623,P30F12,2022-12-08_10h51.20.595,t1_Paradigm,2021.1.4,60.13799902394332,
V,left,Distractor,0,31,31,31,1703.5339366573899,1705.5331368947845,left,1,3,0.7356574462446588,P30F12,2022-12-08_10h51.20.595,t1_Paradigm,2021.1.4,60.13799902394332,
R,left,Distractor,0,32,32,32,1707.0329785783597,1709.0333911313937,left,1,3,0.8285482849041728,P30F12,2022-12-08_10h51.20.595,t1_Paradigm,2021.1.4,60.13799902394332,
N,right,Target,0,33,33,33,1710.5324593582336,1712.5327695750166,right,1,3,0.8278024172541336,P30F12,2022-12-08_10h51.20.595,t1_Paradigm,2021.1.4,60.13799902394332,
Z,left,Distractor,0,34,34,34,1714.0320947652926,1716.0323222148254,left,1,3,0.9130212451982516,P30F12,2022-12-08_10h51.20.595,t1_Paradigm,2021.1.4,60.13799902394332,
N,left,Lure,0,35,35,35,1717.531412897897,1719.5308733067595,left,1,3,0.9250513686256454,P30F12,2022-12-08_10h51.20.595,t1_Paradigm,2021.1.4,60.13799902394332,
Y,left,Pretarget,0,36,36,36,1721.0305831401838,1723.030349916191,left,1,3,0.9487648271278886,P30F12,2022-12-08_10h51.20.595,t1_Paradigm,2021.1.4,60.13799902394332,
Y,left,Lure,0,37,37,37,1724.5304723026456,1726.529697562697,left,1,3,0.9071774924414058,P30F12,2022-12-08_10h51.20.595,t1_Paradigm,2021.1.4,60.13799902394332,
B,left,Distractor,0,38,38,38,1728.0298016633642,1730.0291462622408,left,1,3,1.0375647822147585,P30F12,2022-12-08_10h51.20.595,t1_Paradigm,2021.1.4,60.13799902394332,
Y,right,Target,0,39,39,39,1731.5291185127553,1733.5288304314,right,1,3,0.641528627684238,P30F12,2022-12-08_10h51.20.595,t1_Paradigm,2021.1.4,60.13799902394332,
J,left,Distractor,0,40,40,40,1735.0286304105484,1737.0282130454652,left,1,3,1.0771519083791645,P30F12,2022-12-08_10h51.20.595,t1_Paradigm,2021.1.4,60.13799902394332,
X,left,Distractor,0,41,41,41,1738.5278218258518,1740.5275128922822,left,1,3,0.7175744063133607,P30F12,2022-12-08_10h51.20.595,t1_Paradigm,2021.1.4,60.13799902394332,
W,left,Pretarget,0,42,42,42,1742.0274367015008,1744.0269272658734,left,1,3,1.3777272690822429,P30F12,2022-12-08_10h51.20.595,t1_Paradigm,2021.1.4,60.13799902394332,
S,left,Pretarget,0,43,43,43,1745.5267869144336,1747.5270551059857,left,1,3,0.6754779568036611,P30F12,2022-12-08_10h51.20.595,t1_Paradigm,2021.1.4,60.13799902394332,
R,left,Distractor,0,44,44,44,1749.026020675772,1751.0257175166626,left,1,3,1.0548814230824064,P30F12,2022-12-08_10h51.20.595,t1_Paradigm,2021.1.4,60.13799902394332,
W,right,Target,0,45,45,45,1752.525502418055,1754.5252188279446,right,1,3,1.1155122827549349,P30F12,2022-12-08_10h51.20.595,t1_Paradigm,2021.1.4,60.13799902394332,
S,right,Target,0,46,46,46,1756.024943739123,1758.024770184542,right,1,3,1.134949112578397,P30F12,2022-12-08_10h51.20.595,t1_Paradigm,2021.1.4,60.13799902394332,
D,left,Distractor,0,47,47,47,1759.5242795159083,1761.524014853192,left,1,3,1.0533014668726537,P30F12,2022-12-08_10h51.20.595,t1_Paradigm,2021.1.4,60.13799902394332,
T,left,Distractor,0,48,48,48,1763.0238844466548,1765.0232232710714,left,1,3,1.322411799144902,P30F12,2022-12-08_10h51.20.595,t1_Paradigm,2021.1.4,60.13799902394332,
S,right,Target,0,49,49,49,1766.5234887357947,1768.5234803949097,right,1,3,1.1253875704769598,P30F12,2022-12-08_10h51.20.595,t1_Paradigm,2021.1.4,60.13799902394332,
K,left,Distractor,0,50,50,50,1770.0225428472895,1772.022603158308,left,1,3,0.6481416667320445,P30F12,2022-12-08_10h51.20.595,t1_Paradigm,2021.1.4,60.13799902394332,
S,left,Lure,0,51,51,51,1773.5221933321027,1775.5225051529032,left,1,3,0.965001964919793,P30F12,2022-12-08_10h51.20.595,t1_Paradigm,2021.1.4,60.13799902394332,
T,left,Pretarget,0,52,52,52,1777.0221123292722,1779.0211239343316,left,1,3,1.010615380913805,P30F12,2022-12-08_10h51.20.595,t1_Paradigm,2021.1.4,60.13799902394332,
V,left,Distractor,0,53,53,53,1780.5208738681667,1782.5205559521037,left,1,3,0.67966155252725,P30F12,2022-12-08_10h51.20.595,t1_Paradigm,2021.1.4,60.13799902394332,
B,left,Distractor,0,54,54,54,1784.0205782479334,1786.0199988771892,left,1,3,0.6303024373028165,P30F12,2022-12-08_10h51.20.595,t1_Paradigm,2021.1.4,60.13799902394332,
T,right,Target,0,55,55,55,1787.5197561894984,1789.5195126998005,left,0,3,0.9513322158691153,P30F12,2022-12-08_10h51.20.595,t1_Paradigm,2021.1.4,60.13799902394332,
Y,left,Pretarget,0,56,56,56,1791.0197986959338,1793.018813829829,left,1,3,1.2041280967532657,P30F12,2022-12-08_10h51.20.595,t1_Paradigm,2021.1.4,60.13799902394332,
T,left,Lure,0,57,57,57,1794.5185769166,1796.5182840231937,None,0,3,,P30F12,2022-12-08_10h51.20.595,t1_Paradigm,2021.1.4,60.13799902394332,
P,left,Pretarget,0,58,58,58,1798.0183351913183,1800.0202535950011,left,1,3,0.9233145396065083,P30F12,2022-12-08_10h51.20.595,t1_Paradigm,2021.1.4,60.13799902394332,
Y,right,Target,0,59,59,59,1801.534453150689,1803.533723002398,left,0,3,1.092241853601081,P30F12,2022-12-08_10h51.20.595,t1_Paradigm,2021.1.4,60.13799902394332,
R,left,Distractor,0,60,60,60,1805.0341171092423,1807.0332990608476,left,1,3,0.9734737382405001,P30F12,2022-12-08_10h51.20.595,t1_Paradigm,2021.1.4,60.13799902394332,
P,right,Target,0,61,61,61,1808.533333226398,1810.533058618781,right,1,3,1.0377242214490252,P30F12,2022-12-08_10h51.20.595,t1_Paradigm,2021.1.4,60.13799902394332,
L,left,Distractor,0,62,62,62,1812.0329012647671,1814.0327171236786,left,1,3,0.8987743710258655,P30F12,2022-12-08_10h51.20.595,t1_Paradigm,2021.1.4,60.13799902394332,
V,left,Distractor,0,63,63,63,1815.5320448803814,1817.5314767377513,left,1,3,0.7028376655143802,P30F12,2022-12-08_10h51.20.595,t1_Paradigm,2021.1.4,60.13799902394332,
H,left,Lure,0,0,0,0,1825.0852082414367,1827.0967879570453,None,0,3,,P30F12,2022-12-08_10h51.20.595,t1_Paradigm,2021.1.4,60.13799902394332,
B,left,Distractor,0,1,1,1,1828.596348937741,1830.5973963604865,None,0,3,,P30F12,2022-12-08_10h51.20.595,t1_Paradigm,2021.1.4,60.13799902394332,
T,left,Distractor,0,2,2,2,1832.0957639529388,1834.0960270116375,None,0,3,,P30F12,2022-12-08_10h51.20.595,t1_Paradigm,2021.1.4,60.13799902394332,
R,left,Distractor,0,3,3,3,1835.5954721823455,1837.5948491823528,left,1,3,0.5699118592947343,P30F12,2022-12-08_10h51.20.595,t1_Paradigm,2021.1.4,60.13799902394332,
H,left,Pretarget,0,4,4,4,1839.0949369220525,1841.0944438473944,left,1,3,0.9159716730700893,P30F12,2022-12-08_10h51.20.595,t1_Paradigm,2021.1.4,60.13799902394332,
K,left,Distractor,0,5,5,5,1842.5940378708292,1844.5940154145974,left,1,3,0.5563723563809617,P30F12,2022-12-08_10h51.20.595,t1_Paradigm,2021.1.4,60.13799902394332,
G,left,Distractor,0,6,6,6,1846.0937047166099,1848.093614891688,left,1,3,0.8660245254122856,P30F12,2022-12-08_10h51.20.595,t1_Paradigm,2021.1.4,60.13799902394332,
H,right,Target,0,7,7,7,1849.5930664784628,1851.5925487019504,right,1,3,0.9633934572157159,P30F12,2022-12-08_10h51.20.595,t1_Paradigm,2021.1.4,60.13799902394332,
Y,left,Pretarget,0,8,8,8,1853.0928831393812,1855.0942160770574,left,1,3,0.7650558598725183,P30F12,2022-12-08_10h51.20.595,t1_Paradigm,2021.1.4,60.13799902394332,
S,left,Distractor,0,9,9,9,1856.5920697426354,1858.5917502225566,left,1,3,0.7831273508872982,P30F12,2022-12-08_10h51.20.595,t1_Paradigm,2021.1.4,60.13799902394332,
P,left,Distractor,0,10,10,10,1860.0911177588678,1862.0908418680374,left,1,3,0.5788786320954387,P30F12,2022-12-08_10h51.20.595,t1_Paradigm,2021.1.4,60.13799902394332,
Y,right,Target,0,11,11,11,1863.5909504599513,1865.5903027581062,right,1,3,0.5332947300048545,P30F12,2022-12-08_10h51.20.595,t1_Paradigm,2021.1.4,60.13799902394332,
H,left,Lure,0,12,12,12,1867.0901492537305,1869.0897838587825,right,0,3,0.9166283574068075,P30F12,2022-12-08_10h51.20.595,t1_Paradigm,2021.1.4,60.13799902394332,
Q,left,Distractor,0,13,13,13,1870.5897670166105,1872.5892463528671,left,1,3,0.524134192015481,P30F12,2022-12-08_10h51.20.595,t1_Paradigm,2021.1.4,60.13799902394332,
V,left,Pretarget,0,14,14,14,1874.0889302012238,1876.088779423677,left,1,3,0.7353873298743565,P30F12,2022-12-08_10h51.20.595,t1_Paradigm,2021.1.4,60.13799902394332,
G,left,Distractor,0,15,15,15,1877.5889194543142,1879.5880863281654,left,1,3,0.7759743998958584,P30F12,2022-12-08_10h51.20.595,t1_Paradigm,2021.1.4,60.13799902394332,
Z,left,Pretarget,0,16,16,16,1881.0884406554014,1883.0890424823756,left,1,3,0.839130623080564,P30F12,2022-12-08_10h51.20.595,t1_Paradigm,2021.1.4,60.13799902394332,
V,right,Target,0,17,17,17,1884.5871752468174,1886.587496370912,right,1,3,0.9171756478208408,P30F12,2022-12-08_10h51.20.595,t1_Paradigm,2021.1.4,60.13799902394332,
N,left,Distractor,0,18,18,18,1888.086830864484,1890.0870544643785,left,1,3,0.945137825114216,P30F12,2022-12-08_10h51.20.595,t1_Paradigm,2021.1.4,60.13799902394332,
Z,right,Target,0,19,19,19,1891.5860963853484,1893.585763391533,right,1,3,1.1331673710974428,P30F12,2022-12-08_10h51.20.595,t1_Paradigm,2021.1.4,60.13799902394332,
R,left,Distractor,0,20,20,20,1895.0859906806636,1897.08576804318,left,1,3,1.0952378355395922,P30F12,2022-12-08_10h51.20.595,t1_Paradigm,2021.1.4,60.13799902394332,
P,left,Distractor,0,21,21,21,1898.5849992380918,1900.584503597007,left,1,3,0.8465860915730445,P30F12,2022-12-08_10h51.20.595,t1_Paradigm,2021.1.4,60.13799902394332,
Z,right,Target,0,22,22,22,1902.0847899139444,1904.083979885634,right,1,3,0.6834223295136326,P30F12,2022-12-08_10h51.20.595,t1_Paradigm,2021.1.4,60.13799902394332,
D,left,Pretarget,0,23,23,23,1905.5839851788878,1907.583391051192,left,1,3,0.7970425144558249,P30F12,2022-12-08_10h51.20.595,t1_Paradigm,2021.1.4,60.13799902394332,
K,left,Distractor,0,24,24,24,1909.0832975370322,1911.0839811688475,left,1,3,0.7544581231413758,P30F12,2022-12-08_10h51.20.595,t1_Paradigm,2021.1.4,60.13799902394332,
W,left,Distractor,0,25,25,25,1912.5825932134067,1914.582506275714,left,1,3,0.7346607104173017,P30F12,2022-12-08_10h51.20.595,t1_Paradigm,2021.1.4,60.13799902394332,
D,right,Target,0,26,26,26,1916.0821317378723,1918.08229438514,right,1,3,0.876739355346217,P30F12,2022-12-08_10h51.20.595,t1_Paradigm,2021.1.4,60.13799902394332,
G,left,Pretarget,0,27,27,27,1919.5816577510086,1921.5810815882978,left,1,3,0.9420760785014863,P30F12,2022-12-08_10h51.20.595,t1_Paradigm,2021.1.4,60.13799902394332,
V,left,Distractor,0,28,28,28,1923.081550442308,1925.0831743485687,right,0,3,0.9510518337920075,P30F12,2022-12-08_10h51.20.595,t1_Paradigm,2021.1.4,60.13799902394332,
D,right,Target,0,29,29,29,1926.5971997080687,1928.596744488199,right,1,3,0.40643627643657965,P30F12,2022-12-08_10h51.20.595,t1_Paradigm,2021.1.4,60.13799902394332,
G,right,Target,0,30,30,30,1930.096924298443,1932.0961065708543,right,1,3,0.8546722593382583,P30F12,2022-12-08_10h51.20.595,t1_Paradigm,2021.1.4,60.13799902394332,
B,left,Pretarget,0,31,31,31,1933.5960842750246,1935.595556874414,left,1,3,0.5729601321709197,P30F12,2022-12-08_10h51.20.595,t1_Paradigm,2021.1.4,60.13799902394332,
N,left,Distractor,0,32,32,32,1937.0955432402734,1939.0951877902262,left,1,3,1.102368330299214,P30F12,2022-12-08_10h51.20.595,t1_Paradigm,2021.1.4,60.13799902394332,
F,left,Distractor,0,33,33,33,1940.595126677199,1942.5943067039861,left,1,3,0.7719024437192274,P30F12,2022-12-08_10h51.20.595,t1_Paradigm,2021.1.4,60.13799902394332,
B,right,Target,0,34,34,34,1944.094404067786,1946.0937906918916,right,1,3,0.37530327941021824,P30F12,2022-12-08_10h51.20.595,t1_Paradigm,2021.1.4,60.13799902394332,
Q,left,Pretarget,0,35,35,35,1947.5934989212983,1949.5931720227454,left,1,3,0.7502578456460469,P30F12,2022-12-08_10h51.20.595,t1_Paradigm,2021.1.4,60.13799902394332,
S,left,Pretarget,0,36,36,36,1951.0933264895302,1953.0929633402047,left,1,3,0.7738234138269036,P30F12,2022-12-08_10h51.20.595,t1_Paradigm,2021.1.4,60.13799902394332,
W,left,Distractor,0,37,37,37,1954.5925092431444,1956.5944100026463,left,1,3,0.8937775389567832,P30F12,2022-12-08_10h51.20.595,t1_Paradigm,2021.1.4,60.13799902394332,
Q,right,Target,0,38,38,38,1958.091738513238,1960.0915854900668,right,1,3,0.9853521217137313,P30F12,2022-12-08_10h51.20.595,t1_Paradigm,2021.1.4,60.13799902394332,
S,right,Target,0,39,39,39,1961.5913893188535,1963.591007562938,right,1,3,1.1560878038599185,P30F12,2022-12-08_10h51.20.595,t1_Paradigm,2021.1.4,60.13799902394332,
T,left,Distractor,0,40,40,40,1965.090765516854,1967.0909326553683,left,1,3,0.7598601297650021,P30F12,2022-12-08_10h51.20.595,t1_Paradigm,2021.1.4,60.13799902394332,
G,left,Distractor,0,41,41,41,1968.590205233906,1970.5898728816956,left,1,3,0.9026785470814502,P30F12,2022-12-08_10h51.20.595,t1_Paradigm,2021.1.4,60.13799902394332,
D,left,Distractor,0,42,42,42,1972.0900587872038,1974.089331526142,left,1,3,0.9834651567525725,P30F12,2022-12-08_10h51.20.595,t1_Paradigm,2021.1.4,60.13799902394332,
S,left,Lure,0,43,43,43,1975.589052266876,1977.588703553698,left,1,3,0.9914226823966601,P30F12,2022-12-08_10h51.20.595,t1_Paradigm,2021.1.4,60.13799902394332,
Z,left,Pretarget,0,44,44,44,1979.0884011965954,1981.0881615565377,left,1,3,1.0191997561887547,P30F12,2022-12-08_10h51.20.595,t1_Paradigm,2021.1.4,60.13799902394332,
J,left,Distractor,0,45,45,45,1982.5879095655528,1984.5874549872879,left,1,3,1.0108431512508105,P30F12,2022-12-08_10h51.20.595,t1_Paradigm,2021.1.4,60.13799902394332,
M,left,Pretarget,0,46,46,46,1986.0877589484062,1988.088003400515,left,1,3,0.7564560860391794,P30F12,2022-12-08_10h51.20.595,t1_Paradigm,2021.1.4,60.13799902394332,
Z,right,Target,0,47,47,47,1989.5869766695814,1991.5865827231391,right,1,3,0.43091292596727726,P30F12,2022-12-08_10h51.20.595,t1_Paradigm,2021.1.4,60.13799902394332,
P,left,Distractor,0,48,48,48,1993.0865690889987,1995.0857850457542,left,1,3,0.5079544780128344,P30F12,2022-12-08_10h51.20.595,t1_Paradigm,2021.1.4,60.13799902394332,
M,right,Target,0,49,49,49,1996.5859558735065,1998.585379069189,None,0,3,,P30F12,2022-12-08_10h51.20.595,t1_Paradigm,2021.1.4,60.13799902394332,
K,left,Distractor,0,50,50,50,2000.085024741953,2002.0853189185727,left,1,3,0.6165627531336213,P30F12,2022-12-08_10h51.20.595,t1_Paradigm,2021.1.4,60.13799902394332,
Y,left,Distractor,0,51,51,51,2003.584812209774,2005.5844760079235,left,1,3,0.812182184190533,P30F12,2022-12-08_10h51.20.595,t1_Paradigm,2021.1.4,60.13799902394332,
X,left,Distractor,0,52,52,52,2007.0838967975815,2009.0836735184912,left,1,3,0.6078670591159607,P30F12,2022-12-08_10h51.20.595,t1_Paradigm,2021.1.4,60.13799902394332,
F,left,Pretarget,0,53,53,53,2010.5834330764228,2012.5829894054714,left,1,3,1.2395903341966914,P30F12,2022-12-08_10h51.20.595,t1_Paradigm,2021.1.4,60.13799902394332,
M,left,Lure,0,54,54,54,2014.0827637203565,2016.0824403506376,left,1,3,1.1535993327288452,P30F12,2022-12-08_10h51.20.595,t1_Paradigm,2021.1.4,60.13799902394332,
V,left,Distractor,0,55,55,55,2017.5825495841582,2019.58156535966,None,0,3,,P30F12,2022-12-08_10h51.20.595,t1_Paradigm,2021.1.4,60.13799902394332,
F,right,Target,0,56,56,56,2021.081977752292,2023.082842958769,right,1,3,0.7234714124169841,P30F12,2022-12-08_10h51.20.595,t1_Paradigm,2021.1.4,60.13799902394332,
S,left,Distractor,0,57,57,57,2024.5976979155803,2026.5979430092957,left,1,3,0.7763952938148577,P30F12,2022-12-08_10h51.20.595,t1_Paradigm,2021.1.4,60.13799902394332,
D,left,Distractor,0,58,58,58,2028.0974632479738,2030.0973281897877,left,1,3,0.9601273589069024,P30F12,2022-12-08_10h51.20.595,t1_Paradigm,2021.1.4,60.13799902394332,
F,right,Target,0,59,59,59,2031.597078123621,2033.5962087467014,right,1,3,0.780484573371723,P30F12,2022-12-08_10h51.20.595,t1_Paradigm,2021.1.4,60.13799902394332,
V,left,Pretarget,0,60,60,60,2035.0958704596305,2037.0955525435693,left,1,3,1.3917707539694675,P30F12,2022-12-08_10h51.20.595,t1_Paradigm,2021.1.4,60.13799902394332,
J,left,Distractor,0,61,61,61,2038.595609486154,2040.5951478502175,left,1,3,1.2161065708532988,P30F12,2022-12-08_10h51.20.595,t1_Paradigm,2021.1.4,60.13799902394332,
V,left,Lure,0,62,62,62,2042.0947454024881,2044.0973211321143,right,0,3,0.7355560724045063,P30F12,2022-12-08_10h51.20.595,t1_Paradigm,2021.1.4,60.13799902394332,
V,right,Target,0,63,63,63,2045.5941758162444,2047.5939502915298,left,0,3,0.7541594552749302,P30F12,2022-12-08_10h51.20.595,t1_Paradigm,2021.1.4,60.13799902394332,
R,left,Distractor,0,0,0,0,2167.8198882000524,2169.8267780923434,None,0,4,,P30F12,2022-12-08_10h51.20.595,t1_Paradigm,2021.1.4,60.13799902394332,
F,left,Distractor,0,1,1,1,2171.323909629713,2173.3239615998464,None,0,4,,P30F12,2022-12-08_10h51.20.595,t1_Paradigm,2021.1.4,60.13799902394332,
P,left,Pretarget,0,2,2,2,2174.823257276219,2176.8228097556275,None,0,4,,P30F12,2022-12-08_10h51.20.595,t1_Paradigm,2021.1.4,60.13799902394332,
H,left,Distractor,0,3,3,3,2178.3224743557876,2180.3223197286006,None,0,4,,P30F12,2022-12-08_10h51.20.595,t1_Paradigm,2021.1.4,60.13799902394332,
Z,left,Distractor,0,4,4,4,2181.821895466248,2183.821604818466,left,1,4,0.5338279050738493,P30F12,2022-12-08_10h51.20.595,t1_Paradigm,2021.1.4,60.13799902394332,
T,left,Distractor,0,5,5,5,2185.321329088036,2187.3242458315617,left,1,4,0.5548879995512834,P30F12,2022-12-08_10h51.20.595,t1_Paradigm,2021.1.4,60.13799902394332,
P,right,Target,0,6,6,6,2188.8213353437004,2190.820623481197,right,1,4,1.205974961301763,P30F12,2022-12-08_10h51.20.595,t1_Paradigm,2021.1.4,60.13799902394332,
G,left,Distractor,0,7,7,7,2192.3208141987543,2194.3212649273773,left,1,4,0.7189346122704592,P30F12,2022-12-08_10h51.20.595,t1_Paradigm,2021.1.4,60.13799902394332,
L,left,Distractor,0,8,8,8,2195.8198875584458,2197.8192902227183,left,1,4,0.6464269731404784,P30F12,2022-12-08_10h51.20.595,t1_Paradigm,2021.1.4,60.13799902394332,
P,left,Lure,0,9,9,9,2199.3194693913556,2201.3188675643814,right,0,4,0.9803398910880787,P30F12,2022-12-08_10h51.20.595,t1_Paradigm,2021.1.4,60.13799902394332,
Q,left,Pretarget,0,10,10,10,2202.8186970574316,2204.818384274222,left,1,4,0.6326673991661664,P30F12,2022-12-08_10h51.20.595,t1_Paradigm,2021.1.4,60.13799902394332,
D,left,Distractor,0,11,11,11,2206.3178798110475,2208.3177954397815,left,1,4,0.7753292644774774,P30F12,2022-12-08_10h51.20.595,t1_Paradigm,2021.1.4,60.13799902394332,
M,left,Pretarget,0,12,12,12,2209.8175957397325,2211.8170651310884,left,1,4,0.9625975442504568,P30F12,2022-12-08_10h51.20.595,t1_Paradigm,2021.1.4,60.13799902394332,
C,left,Distractor,0,13,13,13,2213.316598201898,2215.3164454995313,left,1,4,0.9745827552178525,P30F12,2022-12-08_10h51.20.595,t1_Paradigm,2021.1.4,60.13799902394332,
Q,right,Target,0,14,14,14,2216.8163324163706,2218.817692622326,None,0,4,,P30F12,2022-12-08_10h51.20.595,t1_Paradigm,2021.1.4,60.13799902394332,
R,left,Distractor,0,15,15,15,2220.316005678218,2222.315409625702,right,0,4,1.0433379582464113,P30F12,2022-12-08_10h51.20.595,t1_Paradigm,2021.1.4,60.13799902394332,
M,right,Target,0,16,16,16,2223.8153080914617,2225.8148400394584,right,1,4,0.7497602797393483,P30F12,2022-12-08_10h51.20.595,t1_Paradigm,2021.1.4,60.13799902394332,
S,left,Distractor,0,17,17,17,2227.3146968007895,2229.3142957966757,left,1,4,0.5940529485833395,P30F12,2022-12-08_10h51.20.595,t1_Paradigm,2021.1.4,60.13799902394332,
Z,left,Distractor,0,18,18,18,2230.813891103322,2232.8137088870535,right,0,4,0.756981561829889,P30F12,2022-12-08_10h51.20.595,t1_Paradigm,2021.1.4,60.13799902394332,
L,left,Pretarget,0,19,19,19,2234.3135765556963,2236.313159190613,left,1,4,0.6502624972927151,P30F12,2022-12-08_10h51.20.595,t1_Paradigm,2021.1.4,60.13799902394332,
M,right,Target,0,20,20,20,2237.812759950917,2239.812498496234,left,0,4,1.0862373783947987,P30F12,2022-12-08_10h51.20.595,t1_Paradigm,2021.1.4,60.13799902394332,
P,left,Distractor,0,21,21,21,2241.3122522797075,2243.312410114928,right,0,4,1.1956005036608985,P30F12,2022-12-08_10h51.20.595,t1_Paradigm,2021.1.4,60.13799902394332,
F,left,Distractor,0,22,22,22,2244.8118472655533,2246.811326922614,left,1,4,1.2773087811874575,P30F12,2022-12-08_10h51.20.595,t1_Paradigm,2021.1.4,60.13799902394332,
L,right,Target,0,23,23,23,2248.311301418753,2250.3108802040315,right,1,4,0.9873635583498981,P30F12,2022-12-08_10h51.20.595,t1_Paradigm,2021.1.4,60.13799902394332,
L,left,Lure,0,24,24,24,2251.810434447858,2253.8103086929677,left,1,4,0.6935481646032713,P30F12,2022-12-08_10h51.20.595,t1_Paradigm,2021.1.4,60.13799902394332,
V,left,Pretarget,0,25,25,25,2255.3102700361706,2257.310111238541,left,1,4,0.7007694466938119,P30F12,2022-12-08_10h51.20.595,t1_Paradigm,2021.1.4,60.13799902394332,
Z,left,Distractor,0,26,26,26,2258.8095503139866,2260.809205771251,left,1,4,0.49681843335747544,P30F12,2022-12-08_10h51.20.595,t1_Paradigm,2021.1.4,60.13799902394332,
H,left,Distractor,0,27,27,27,2262.3092771499832,2264.3087048369125,left,1,4,0.7577822868461226,P30F12,2022-12-08_10h51.20.595,t1_Paradigm,2021.1.4,60.13799902394332,
X,left,Distractor,0,28,28,28,2265.8085651270776,2267.808028423171,left,1,4,0.7410078035409242,P30F12,2022-12-08_10h51.20.595,t1_Paradigm,2021.1.4,60.13799902394332,
V,right,Target,0,29,29,29,2269.3080892153957,2271.3082560331077,right,1,4,0.751914794645927,P30F12,2022-12-08_10h51.20.595,t1_Paradigm,2021.1.4,60.13799902394332,
C,left,Distractor,0,30,30,30,2272.8237978297657,2274.825332552711,left,1,4,0.5871810212775017,P30F12,2022-12-08_10h51.20.595,t1_Paradigm,2021.1.4,60.13799902394332,
S,left,Pretarget,0,31,31,31,2276.323099922205,2278.3231384186,left,1,4,0.7109604048546316,P30F12,2022-12-08_10h51.20.595,t1_Paradigm,2021.1.4,60.13799902394332,
D,left,Distractor,0,32,32,32,2279.8230073704563,2281.822476761812,left,1,4,1.220487781405609,P30F12,2022-12-08_10h51.20.595,t1_Paradigm,2021.1.4,60.13799902394332,
V,left,Distractor,0,33,33,33,2283.322259096778,2285.3218978722725,right,0,4,1.3343299622247287,P30F12,2022-12-08_10h51.20.595,t1_Paradigm,2021.1.4,60.13799902394332,
R,left,Distractor,0,34,34,34,2286.8215717757266,2288.8212962056987,left,1,4,0.861149919397576,P30F12,2022-12-08_10h51.20.595,t1_Paradigm,2021.1.4,60.13799902394332,
S,right,Target,0,35,35,35,2290.3210410066804,2292.3226626673186,right,1,4,0.7081116716271936,P30F12,2022-12-08_10h51.20.595,t1_Paradigm,2021.1.4,60.13799902394332,
Y,left,Distractor,0,36,36,36,2293.8204329240416,2295.820419129501,left,1,4,0.8155891151436663,P30F12,2022-12-08_10h51.20.595,t1_Paradigm,2021.1.4,60.13799902394332,
N,left,Pretarget,0,37,37,37,2297.3198360695187,2299.3199698444914,left,1,4,0.9861624708264571,P30F12,2022-12-08_10h51.20.595,t1_Paradigm,2021.1.4,60.13799902394332,
Z,left,Pretarget,0,38,38,38,2300.8196536928463,2302.8195061233328,left,1,4,0.9778774050228094,P30F12,2022-12-08_10h51.20.595,t1_Paradigm,2021.1.4,60.13799902394332,
P,left,Pretarget,0,39,39,39,2304.31888103812,2306.3184348007417,left,1,4,1.0555140471751656,P30F12,2022-12-08_10h51.20.595,t1_Paradigm,2021.1.4,60.13799902394332,
M,left,Distractor,0,40,40,40,2307.818217456512,2309.81817831851,left,1,4,1.1039081860981241,P30F12,2022-12-08_10h51.20.595,t1_Paradigm,2021.1.4,60.13799902394332,
N,right,Target,0,41,41,41,2311.3174868270144,2313.3171522291814,right,1,4,0.9613679052345105,P30F12,2022-12-08_10h51.20.595,t1_Paradigm,2021.1.4,60.13799902394332,
Z,right,Target,0,42,42,42,2314.8170747551867,2316.818428224273,left,0,4,0.6081628397514578,P30F12,2022-12-08_10h51.20.595,t1_Paradigm,2021.1.4,60.13799902394332,
P,right,Target,0,43,43,43,2318.3163604866586,2320.3159020587555,left,0,4,0.9361906213162001,P30F12,2022-12-08_10h51.20.595,t1_Paradigm,2021.1.4,60.13799902394332,
X,left,Pretarget,0,44,44,44,2321.8155794910454,2323.8154222974335,left,1,4,0.5566010891270707,P30F12,2022-12-08_10h51.20.595,t1_Paradigm,2021.1.4,60.13799902394332,
Z,left,Lure,0,45,45,45,2325.3154866184923,2327.3154898265257,right,0,4,0.8658477627977845,P30F12,2022-12-08_10h51.20.595,t1_Paradigm,2021.1.4,60.13799902394332,
R,left,Pretarget,0,46,46,46,2328.815008461186,2330.814632479729,left,1,4,0.9958305196214496,P30F12,2022-12-08_10h51.20.595,t1_Paradigm,2021.1.4,60.13799902394332,
K,left,Distractor,0,47,47,47,2332.314398132925,2334.3145437776184,left,1,4,0.58290310938537,P30F12,2022-12-08_10h51.20.595,t1_Paradigm,2021.1.4,60.13799902394332,
X,right,Target,0,48,48,48,2335.8136017387533,2337.813650180051,right,1,4,1.3414363967367535,P30F12,2022-12-08_10h51.20.595,t1_Paradigm,2021.1.4,60.13799902394332,
B,left,Distractor,0,49,49,49,2339.3134427807236,2341.3124162101903,left,1,4,0.6485410668319673,P30F12,2022-12-08_10h51.20.595,t1_Paradigm,2021.1.4,60.13799902394332,
R,right,Target,0,50,50,50,2342.8123720997373,2344.811904047736,left,0,4,1.13361938293383,P30F12,2022-12-08_10h51.20.595,t1_Paradigm,2021.1.4,60.13799902394332,
Y,left,Pretarget,0,51,51,51,2346.311985692173,2348.3115054496466,right,0,4,0.965485415479634,P30F12,2022-12-08_10h51.20.595,t1_Paradigm,2021.1.4,60.13799902394332,
W,left,Pretarget,0,52,52,52,2349.811265649185,2351.8118466239466,left,1,4,0.7517412400648027,P30F12,2022-12-08_10h51.20.595,t1_Paradigm,2021.1.4,60.13799902394332,
Z,left,Distractor,0,53,53,53,2353.3105799321493,2355.310531811656,left,1,4,1.1272443799261964,P30F12,2022-12-08_10h51.20.595,t1_Paradigm,2021.1.4,60.13799902394332,
Q,left,Distractor,0,54,54,54,2356.8101117197457,2358.8096273067767,left,1,4,0.9114348729217454,P30F12,2022-12-08_10h51.20.595,t1_Paradigm,2021.1.4,60.13799902394332,
Y,right,Target,0,55,55,55,2360.3095969908645,2362.309035905908,None,0,4,,P30F12,2022-12-08_10h51.20.595,t1_Paradigm,2021.1.4,60.13799902394332,
W,right,Target,0,56,56,56,2363.809029650245,2365.809351095142,left,0,4,0.7023423452319548,P30F12,2022-12-08_10h51.20.595,t1_Paradigm,2021.1.4,60.13799902394332,
H,left,Pretarget,0,57,57,57,2367.308348103652,2369.3079663477347,left,1,4,1.3309406754524389,P30F12,2022-12-08_10h51.20.595,t1_Paradigm,2021.1.4,60.13799902394332,
M,left,Distractor,0,58,58,58,2370.8082295668355,2372.8075324612837,left,1,4,0.9834125450124702,P30F12,2022-12-08_10h51.20.595,t1_Paradigm,2021.1.4,60.13799902394332,
R,left,Pretarget,0,59,59,59,2374.3073622751363,2376.3066895506345,left,1,4,1.012093642479158,P30F12,2022-12-08_10h51.20.595,t1_Paradigm,2021.1.4,60.13799902394332,
J,left,Distractor,0,60,60,60,2377.806420236271,2379.8075446518087,left,1,4,0.7371456527143891,P30F12,2022-12-08_10h51.20.595,t1_Paradigm,2021.1.4,60.13799902394332,
H,right,Target,0,61,61,61,2381.322733244044,2383.3241678763625,right,1,4,0.784590213894262,P30F12,2022-12-08_10h51.20.595,t1_Paradigm,2021.1.4,60.13799902394332,
Z,left,Distractor,0,62,62,62,2384.8224883107305,2386.82171742042,left,1,4,0.7696998083192739,P30F12,2022-12-08_10h51.20.595,t1_Paradigm,2021.1.4,60.13799902394332,
R,right,Target,0,63,63,63,2388.3218818321075,2390.3211311524065,right,1,4,0.6347359387909819,P30F12,2022-12-08_10h51.20.595,t1_Paradigm,2021.1.4,60.13799902394332,
J,left,Pretarget,0,0,0,0,2397.346292716964,2399.3531107493163,None,0,4,,P30F12,2022-12-08_10h51.20.595,t1_Paradigm,2021.1.4,60.13799902394332,
G,left,Pretarget,0,1,1,1,2400.853009215074,2402.852490796955,None,0,4,,P30F12,2022-12-08_10h51.20.595,t1_Paradigm,2021.1.4,60.13799902394332,
Z,left,Distractor,0,2,2,2,2404.3524248718786,2406.3517938518053,None,0,4,,P30F12,2022-12-08_10h51.20.595,t1_Paradigm,2021.1.4,60.13799902394332,
F,left,Distractor,0,3,3,3,2407.851805881928,2409.8520506548393,None,0,4,,P30F12,2022-12-08_10h51.20.595,t1_Paradigm,2021.1.4,60.13799902394332,
J,right,Target,0,4,4,4,2411.3509899187575,2413.3508417076355,right,1,4,0.816384386504069,P30F12,2022-12-08_10h51.20.595,t1_Paradigm,2021.1.4,60.13799902394332,
G,right,Target,0,5,5,5,2414.851789841763,2416.850912444761,right,1,4,0.7008040934506425,P30F12,2022-12-08_10h51.20.595,t1_Paradigm,2021.1.4,60.13799902394332,
H,left,Distractor,0,6,6,6,2418.3502735650072,2420.350307249353,left,1,4,0.5665472743748978,P30F12,2022-12-08_10h51.20.595,t1_Paradigm,2021.1.4,60.13799902394332,
P,left,Distractor,0,7,7,7,2421.849986606463,2423.8491095302634,left,1,4,0.7131559825793374,P30F12,2022-12-08_10h51.20.595,t1_Paradigm,2021.1.4,60.13799902394332,
G,left,Lure,0,8,8,8,2425.348821288506,2427.3491077658455,left,1,4,1.2299806716000603,P30F12,2022-12-08_10h51.20.595,t1_Paradigm,2021.1.4,60.13799902394332,
S,left,Distractor,0,9,9,9,2428.848259080738,2430.84785775582,left,1,4,0.8180904184082465,P30F12,2022-12-08_10h51.20.595,t1_Paradigm,2021.1.4,60.13799902394332,
R,left,Pretarget,0,10,10,10,2432.3475050326015,2434.347269562986,left,1,4,0.7362913535489497,P30F12,2022-12-08_10h51.20.595,t1_Paradigm,2021.1.4,60.13799902394332,
T,left,Pretarget,0,11,11,11,2435.847202996303,2437.8466804077416,left,1,4,1.2501505369436927,P30F12,2022-12-08_10h51.20.595,t1_Paradigm,2021.1.4,60.13799902394332,
X,left,Distractor,0,12,12,12,2439.346657149503,2441.3461948719596,left,1,4,1.110947572720761,P30F12,2022-12-08_10h51.20.595,t1_Paradigm,2021.1.4,60.13799902394332,
F,left,Pretarget,0,13,13,13,2442.8459672620247,2444.8460015879755,left,1,4,0.71049812730962,P30F12,2022-12-08_10h51.20.595,t1_Paradigm,2021.1.4,60.13799902394332,
R,right,Target,0,14,14,14,2446.34547563098,2448.344929944582,right,1,4,1.2494624138853396,P30F12,2022-12-08_10h51.20.595,t1_Paradigm,2021.1.4,60.13799902394332,
T,right,Target,0,15,15,15,2449.845182897976,2451.8450690128084,left,0,4,1.2400311179208074,P30F12,2022-12-08_10h51.20.595,t1_Paradigm,2021.1.4,60.13799902394332,
C,left,Distractor,0,16,16,16,2453.3444586845453,2455.3461919847305,left,1,4,0.8339804470379022,P30F12,2022-12-08_10h51.20.595,t1_Paradigm,2021.1.4,60.13799902394332,
F,right,Target,0,17,17,17,2456.843679613752,2458.843507021582,right,1,4,1.161942143125998,P30F12,2022-12-08_10h51.20.595,t1_Paradigm,2021.1.4,60.13799902394332,
M,left,Distractor,0,18,18,18,2460.3430968745743,2462.342679509491,left,1,4,0.7256146992076538,P30F12,2022-12-08_10h51.20.595,t1_Paradigm,2021.1.4,60.13799902394332,
N,left,Distractor,0,19,19,19,2463.8424810926554,2465.8427823269467,left,1,4,0.683629568438846,P30F12,2022-12-08_10h51.20.595,t1_Paradigm,2021.1.4,60.13799902394332,
R,left,Lure,0,20,20,20,2467.3421617329786,2469.3422169111454,right,0,4,1.1486085959259071,P30F12,2022-12-08_10h51.20.595,t1_Paradigm,2021.1.4,60.13799902394332,
F,right,Target,0,21,21,21,2470.841543384635,2472.8412030123436,left,0,4,0.7287380400521215,P30F12,2022-12-08_10h51.20.595,t1_Paradigm,2021.1.4,60.13799902394332,
P,left,Distractor,0,22,22,22,2474.3407575769725,2476.3404781573063,left,1,4,0.7694964190322935,P30F12,2022-12-08_10h51.20.595,t1_Paradigm,2021.1.4,60.13799902394332,
L,left,Pretarget,0,23,23,23,2477.840309254372,2479.8406845942245,left,1,4,1.0047735529769852,P30F12,2022-12-08_10h51.20.595,t1_Paradigm,2021.1.4,60.13799902394332,
T,left,Distractor,0,24,24,24,2481.339845212411,2483.3393636866713,right,0,4,1.2253052844316699,P30F12,2022-12-08_10h51.20.595,t1_Paradigm,2021.1.4,60.13799902394332,
F,left,Distractor,0,25,25,25,2484.839317330596,2486.8389766375003,right,0,4,1.2086090771281306,P30F12,2022-12-08_10h51.20.595,t1_Paradigm,2021.1.4,60.13799902394332,
V,left,Distractor,0,26,26,26,2488.338490139309,2490.3387872031562,left,1,4,0.8574892330379953,P30F12,2022-12-08_10h51.20.595,t1_Paradigm,2021.1.4,60.13799902394332,
L,right,Target,0,27,27,27,2491.8378875103263,2493.8383196323593,left,0,4,0.9831559023805312,P30F12,2022-12-08_10h51.20.595,t1_Paradigm,2021.1.4,60.13799902394332,
S,left,Pretarget,0,28,28,28,2495.3376114590938,2497.3371395574522,left,1,4,0.8774996591473609,P30F12,2022-12-08_10h51.20.595,t1_Paradigm,2021.1.4,60.13799902394332,
W,left,Distractor,0,29,29,29,2498.837107316722,2500.837306214762,left,1,4,0.632008469206994,P30F12,2022-12-08_10h51.20.595,t1_Paradigm,2021.1.4,60.13799902394332,
Q,left,Distractor,0,30,30,30,2502.3365127078196,2504.3366676558107,left,1,4,0.8437113732779835,P30F12,2022-12-08_10h51.20.595,t1_Paradigm,2021.1.4,60.13799902394332,
L,right,Target,0,31,31,31,2505.8359691066435,2507.837107316722,left,0,4,0.9448330619870831,P30F12,2022-12-08_10h51.20.595,t1_Paradigm,2021.1.4,60.13799902394332,
S,right,Target,0,32,32,32,2509.3517531097878,2511.3515214898107,left,0,4,0.7334458283530694,P30F12,2022-12-08_10h51.20.595,t1_Paradigm,2021.1.4,60.13799902394332,
Z,left,Pretarget,0,33,33,33,2512.851145027147,2514.8507196419832,left,1,4,0.7989349330728146,P30F12,2022-12-08_10h51.20.595,t1_Paradigm,2021.1.4,60.13799902394332,
F,left,Distractor,0,34,34,34,2516.3509709913633,2518.350167379118,left,1,4,0.8802630586978921,P30F12,2022-12-08_10h51.20.595,t1_Paradigm,2021.1.4,60.13799902394332,
V,left,Distractor,0,35,35,35,2519.850145083288,2521.8499785863805,left,1,4,1.2870464442967204,P30F12,2022-12-08_10h51.20.595,t1_Paradigm,2021.1.4,60.13799902394332,
M,left,Distractor,0,36,36,36,2523.3495071659436,2525.349131505289,right,0,4,1.09124704259375,P30F12,2022-12-08_10h51.20.595,t1_Paradigm,2021.1.4,60.13799902394332,
Z,right,Target,0,37,37,37,2526.849092206887,2528.8485744303744,left,0,4,0.5973504856156069,P30F12,2022-12-08_10h51.20.595,t1_Paradigm,2021.1.4,60.13799902394332,
H,left,Pretarget,0,38,38,38,2530.348203100564,2532.348513317347,left,1,4,1.0573137536393915,P30F12,2022-12-08_10h51.20.595,t1_Paradigm,2021.1.4,60.13799902394332,
L,left,Distractor,0,39,39,39,2533.8480290647785,2535.8475549175128,left,1,4,0.5844731206943834,P30F12,2022-12-08_10h51.20.595,t1_Paradigm,2021.1.4,60.13799902394332,
G,left,Distractor,0,40,40,40,2537.347384731367,2539.346767185032,right,0,4,0.8334828811348416,P30F12,2022-12-08_10h51.20.595,t1_Paradigm,2021.1.4,60.13799902394332,
K,left,Distractor,0,41,41,41,2540.8467545133008,2542.846172896934,left,1,4,0.8941233649056812,P30F12,2022-12-08_10h51.20.595,t1_Paradigm,2021.1.4,60.13799902394332,
H,right,Target,0,42,42,42,2544.3464964270534,2546.345554869393,left,0,4,0.5964336298075068,P30F12,2022-12-08_10h51.20.595,t1_Paradigm,2021.1.4,60.13799902394332,
B,left,Distractor,0,43,43,43,2547.8459512218597,2549.845275610127,left,1,4,0.5708697779245995,P30F12,2022-12-08_10h51.20.595,t1_Paradigm,2021.1.4,60.13799902394332,
Z,left,Distractor,0,44,44,44,2551.3450473585854,2553.344453872496,left,1,4,0.7669989654095843,P30F12,2022-12-08_10h51.20.595,t1_Paradigm,2021.1.4,60.13799902394332,
T,left,Pretarget,0,45,45,45,2554.8445922991177,2556.845462317644,left,1,4,0.5892986438047956,P30F12,2022-12-08_10h51.20.595,t1_Paradigm,2021.1.4,60.13799902394332,
H,right,Target,0,46,46,46,2558.343603743775,2560.3433519131904,None,0,4,,P30F12,2022-12-08_10h51.20.595,t1_Paradigm,2021.1.4,60.13799902394332,
F,left,Distractor,0,47,47,47,2561.8432984994433,2563.8450581054967,left,1,4,0.8249183956613706,P30F12,2022-12-08_10h51.20.595,t1_Paradigm,2021.1.4,60.13799902394332,
R,left,Distractor,0,48,48,48,2565.342623368915,2567.3427719008396,left,1,4,0.8914991939818719,P30F12,2022-12-08_10h51.20.595,t1_Paradigm,2021.1.4,60.13799902394332,
T,right,Target,0,49,49,49,2568.8421683094475,2570.842690577205,right,1,4,0.6297933224795997,P30F12,2022-12-08_10h51.20.595,t1_Paradigm,2021.1.4,60.13799902394332,
H,right,Target,0,50,50,50,2572.34182938077,2574.3411784708915,None,0,4,,P30F12,2022-12-08_10h51.20.595,t1_Paradigm,2021.1.4,60.13799902394332,
Y,left,Pretarget,0,51,51,51,2575.840828634902,2577.841428216254,left,1,4,0.6745992765900155,P30F12,2022-12-08_10h51.20.595,t1_Paradigm,2021.1.4,60.13799902394332,
H,left,Distractor,0,52,52,52,2579.340592042474,2581.3398079992294,left,1,4,0.9119266643683659,P30F12,2022-12-08_10h51.20.595,t1_Paradigm,2021.1.4,60.13799902394332,
S,left,Distractor,0,53,53,53,2582.8397690216298,2584.839329841925,left,1,4,0.7648021044697089,P30F12,2022-12-08_10h51.20.595,t1_Paradigm,2021.1.4,60.13799902394332,
Q,left,Distractor,0,54,54,54,2586.3394137319847,2588.338791694403,left,1,4,0.7318090899607341,P30F12,2022-12-08_10h51.20.595,t1_Paradigm,2021.1.4,60.13799902394332,
Y,right,Target,0,55,55,55,2589.838506019072,2591.840221033468,right,1,4,0.9576809130066977,P30F12,2022-12-08_10h51.20.595,t1_Paradigm,2021.1.4,60.13799902394332,
R,left,Distractor,0,56,56,56,2593.337995781436,2595.338323963204,left,1,4,0.6120875472170155,P30F12,2022-12-08_10h51.20.595,t1_Paradigm,2021.1.4,60.13799902394332,
H,left,Pretarget,0,57,57,57,2596.8373508064196,2598.8378012142402,right,0,4,0.7466539414690487,P30F12,2022-12-08_10h51.20.595,t1_Paradigm,2021.1.4,60.13799902394332,
J,left,Distractor,0,58,58,58,2600.3536490572387,2602.353036322953,left,1,4,0.7875143358960486,P30F12,2022-12-08_10h51.20.595,t1_Paradigm,2021.1.4,60.13799902394332,
V,left,Distractor,0,59,59,59,2603.8530704885034,2605.8525174236293,left,1,4,0.5751669380115345,P30F12,2022-12-08_10h51.20.595,t1_Paradigm,2021.1.4,60.13799902394332,
Y,left,Lure,0,60,60,60,2607.352359748811,2609.352328630892,None,0,4,,P30F12,2022-12-08_10h51.20.595,t1_Paradigm,2021.1.4,60.13799902394332,
H,right,Target,0,61,61,61,2610.8519877773942,2612.853730060071,left,0,4,0.7393620826551341,P30F12,2022-12-08_10h51.20.595,t1_Paradigm,2021.1.4,60.13799902394332,
L,left,Distractor,0,62,62,62,2614.3514489882673,2616.352148660246,left,1,4,0.74410900895964,P30F12,2022-12-08_10h51.20.595,t1_Paradigm,2021.1.4,60.13799902394332,
P,left,Distractor,0,63,63,63,2617.850749476689,2619.850469094614,left,1,4,0.6550992485190363,P30F12,2022-12-08_10h51.20.595,t1_Paradigm,2021.1.4,60.13799902394332,
