Letter,CorrAnswer,Stimulus,nback_run.thisRepN,nback_run.thisTrialN,nback_run.thisN,nback_run.thisIndex,fixcross.started,nback_trial.started,trial_resp.keys,trial_resp.corr,currentlevel,trial_resp.rt,Participant,date,expName,psychopyVersion,frameRate,
H,left,Distractor,0,0,0,0,278.44947879272513,280.3875309333671,None,0,1,,Q24R01,2022-12-01_14h41.04.745,t1_Paradigm,2021.1.4,60.03015772462957,
Q,left,Pretarget,0,1,1,1,281.89114701529616,283.88908650304074,left,1,1,0.5308419196226168,Q24R01,2022-12-01_14h41.04.745,t1_Paradigm,2021.1.4,60.03015772462957,
Q,right,Target,0,2,2,2,285.38672892795876,287.3864084465895,right,1,1,1.2095348176371772,Q24R01,2022-12-01_14h41.04.745,t1_Paradigm,2021.1.4,60.03015772462957,
T,left,Distractor,0,3,3,3,288.88632439644425,290.8879004974442,left,1,1,0.8280487593729049,Q24R01,2022-12-01_14h41.04.745,t1_Paradigm,2021.1.4,60.03015772462957,
Q,left,Lure,0,4,4,4,292.3864655493817,294.3883310139354,right,0,1,1.1994847275782377,Q24R01,2022-12-01_14h41.04.745,t1_Paradigm,2021.1.4,60.03015772462957,
L,left,Distractor,0,5,5,5,295.88654286271776,297.8880881667137,left,1,1,0.9958841082989238,Q24R01,2022-12-01_14h41.04.745,t1_Paradigm,2021.1.4,60.03015772462957,
V,left,Pretarget,0,6,6,6,299.38654703312204,301.3895077162597,left,1,1,0.8863539102312643,Q24R01,2022-12-01_14h41.04.745,t1_Paradigm,2021.1.4,60.03015772462957,
V,right,Target,0,7,7,7,302.88660734394216,304.88655473239487,right,1,1,1.0692496373376343,Q24R01,2022-12-01_14h41.04.745,t1_Paradigm,2021.1.4,60.03015772462957,
K,left,Distractor,0,8,8,8,306.38649859200814,308.38787002125173,left,1,1,1.1678619754966348,Q24R01,2022-12-01_14h41.04.745,t1_Paradigm,2021.1.4,60.03015772462957,
G,left,Pretarget,0,9,9,9,309.88611940384726,311.88823669811245,left,1,1,0.9317608894780278,Q24R01,2022-12-01_14h41.04.745,t1_Paradigm,2021.1.4,60.03015772462957,
G,right,Target,0,10,10,10,313.38656307323254,315.38653259704006,right,1,1,0.8094284396211151,Q24R01,2022-12-01_14h41.04.745,t1_Paradigm,2021.1.4,60.03015772462957,
G,right,Target,0,11,11,11,316.8866403865686,318.88658969983226,right,1,1,0.8612472916429397,Q24R01,2022-12-01_14h41.04.745,t1_Paradigm,2021.1.4,60.03015772462957,
P,left,Pretarget,0,12,12,12,320.3864379604056,322.38905153560336,left,1,1,0.7667700932943262,Q24R01,2022-12-01_14h41.04.745,t1_Paradigm,2021.1.4,60.03015772462957,
P,right,Target,0,13,13,13,323.88651495293016,325.88636513831443,right,1,1,0.757453036174411,Q24R01,2022-12-01_14h41.04.745,t1_Paradigm,2021.1.4,60.03015772462957,
G,left,Lure,0,14,14,14,327.3866827324382,329.388888247282,left,1,1,0.7429251895518973,Q24R01,2022-12-01_14h41.04.745,t1_Paradigm,2021.1.4,60.03015772462957,
Y,left,Distractor,0,15,15,15,330.88662049683626,332.8888189540303,None,0,1,,Q24R01,2022-12-01_14h41.04.745,t1_Paradigm,2021.1.4,60.03015772462957,
B,left,Distractor,0,16,16,16,334.3865723765048,336.38829059287673,left,1,1,0.6875977243762463,Q24R01,2022-12-01_14h41.04.745,t1_Paradigm,2021.1.4,60.03015772462957,
T,left,Pretarget,0,17,17,17,337.90320564765716,339.8883489788568,left,1,1,0.579640098469099,Q24R01,2022-12-01_14h41.04.745,t1_Paradigm,2021.1.4,60.03015772462957,
T,right,Target,0,18,18,18,341.3865784717491,343.3864896095474,right,1,1,0.7297783962858375,Q24R01,2022-12-01_14h41.04.745,t1_Paradigm,2021.1.4,60.03015772462957,
S,left,Distractor,0,19,19,19,344.8866009278863,346.8880602569261,left,1,1,0.9079422915528994,Q24R01,2022-12-01_14h41.04.745,t1_Paradigm,2021.1.4,60.03015772462957,
T,left,Lure,0,20,20,20,348.38665386024513,350.39937655310496,left,1,1,1.0125651790003758,Q24R01,2022-12-01_14h41.04.745,t1_Paradigm,2021.1.4,60.03015772462957,
J,left,Distractor,0,21,21,21,351.8864556045155,353.88877757053706,left,1,1,0.7871897923469078,Q24R01,2022-12-01_14h41.04.745,t1_Paradigm,2021.1.4,60.03015772462957,
P,left,Distractor,0,22,22,22,355.38662915848545,357.3885690491297,left,1,1,0.6955208960862365,Q24R01,2022-12-01_14h41.04.745,t1_Paradigm,2021.1.4,60.03015772462957,
F,left,Distractor,0,23,23,23,358.8864498300827,360.88913815218257,left,1,1,0.8108293826517183,Q24R01,2022-12-01_14h41.04.745,t1_Paradigm,2021.1.4,60.03015772462957,
L,left,Distractor,0,24,24,24,362.3866371785407,364.3878302417579,left,1,1,0.7999750415910967,Q24R01,2022-12-01_14h41.04.745,t1_Paradigm,2021.1.4,60.03015772462957,
W,left,Pretarget,0,25,25,25,365.88655569480034,367.888328126719,left,1,1,0.6278037306619808,Q24R01,2022-12-01_14h41.04.745,t1_Paradigm,2021.1.4,60.03015772462957,
W,right,Target,0,26,26,26,369.3865723765048,371.3866622011119,right,1,1,0.7451913360273466,Q24R01,2022-12-01_14h41.04.745,t1_Paradigm,2021.1.4,60.03015772462957,
V,left,Distractor,0,27,27,27,372.88663525372976,374.88800058772904,left,1,1,0.9238909709092695,Q24R01,2022-12-01_14h41.04.745,t1_Paradigm,2021.1.4,60.03015772462957,
W,left,Lure,0,28,28,28,376.3864847975201,378.38871886374545,left,1,1,0.9274509124807082,Q24R01,2022-12-01_14h41.04.745,t1_Paradigm,2021.1.4,60.03015772462957,
R,left,Pretarget,0,29,29,29,379.8865739805042,381.8890566684131,left,1,1,0.8667808080790564,Q24R01,2022-12-01_14h41.04.745,t1_Paradigm,2021.1.4,60.03015772462957,
R,right,Target,0,30,30,30,383.3865171985235,385.3865710932878,right,1,1,1.1613124786235858,Q24R01,2022-12-01_14h41.04.745,t1_Paradigm,2021.1.4,60.03015772462957,
G,left,Distractor,0,31,31,31,386.88656179004465,388.88878174097044,left,1,1,0.7952839516219683,Q24R01,2022-12-01_14h41.04.745,t1_Paradigm,2021.1.4,60.03015772462957,
R,left,Lure,0,32,32,32,390.38657045169384,392.3890274754376,left,1,1,0.7507630279287696,Q24R01,2022-12-01_14h41.04.745,t1_Paradigm,2021.1.4,60.03015772462957,
S,left,Distractor,0,33,33,33,393.88669363970985,395.88579699769616,left,1,1,1.046174338000128,Q24R01,2022-12-01_14h41.04.745,t1_Paradigm,2021.1.4,60.03015772462957,
R,left,Lure,0,34,34,34,397.386704867793,399.38840832727146,left,1,1,0.7594975083484314,Q24R01,2022-12-01_14h41.04.745,t1_Paradigm,2021.1.4,60.03015772462957,
P,left,Pretarget,0,35,35,35,400.8866108727525,402.88679180518375,left,1,1,0.7973168748721946,Q24R01,2022-12-01_14h41.04.745,t1_Paradigm,2021.1.4,60.03015772462957,
P,right,Target,0,36,36,36,404.38666572992224,406.38659387023654,right,1,1,0.7532662471930962,Q24R01,2022-12-01_14h41.04.745,t1_Paradigm,2021.1.4,60.03015772462957,
Y,left,Pretarget,0,37,37,37,407.8866067023482,409.8878430738696,left,1,1,0.6920161324960645,Q24R01,2022-12-01_14h41.04.745,t1_Paradigm,2021.1.4,60.03015772462957,
Y,right,Target,0,38,38,38,411.38632600044366,413.3866095895646,right,1,1,0.8253796853823587,Q24R01,2022-12-01_14h41.04.745,t1_Paradigm,2021.1.4,60.03015772462957,
J,left,Distractor,0,39,39,39,414.8865855293989,416.88862518951646,None,0,1,,Q24R01,2022-12-01_14h41.04.745,t1_Paradigm,2021.1.4,60.03015772462957,
Y,left,Lure,0,40,40,40,418.3865611484216,420.38840640246053,None,0,1,,Q24R01,2022-12-01_14h41.04.745,t1_Paradigm,2021.1.4,60.03015772462957,
T,left,Distractor,0,41,41,41,421.8866095895646,423.8886649689812,left,1,1,0.9793775540019851,Q24R01,2022-12-01_14h41.04.745,t1_Paradigm,2021.1.4,60.03015772462957,
V,left,Distractor,0,42,42,42,425.38659836148145,427.38850200150046,left,1,1,0.8714414218557067,Q24R01,2022-12-01_14h41.04.745,t1_Paradigm,2021.1.4,60.03015772462957,
N,left,Pretarget,0,43,43,43,428.8866134391865,430.8887984226749,left,1,1,0.8911758874601219,Q24R01,2022-12-01_14h41.04.745,t1_Paradigm,2021.1.4,60.03015772462957,
N,right,Target,0,44,44,44,432.38655024114996,434.3867908427783,right,1,1,0.86545846160152,Q24R01,2022-12-01_14h41.04.745,t1_Paradigm,2021.1.4,60.03015772462957,
N,right,Target,0,45,45,45,435.88658360458794,437.8864514340821,right,1,1,0.9815904472779948,Q24R01,2022-12-01_14h41.04.745,t1_Paradigm,2021.1.4,60.03015772462957,
X,left,Distractor,0,46,46,46,439.3865842461819,441.3891708739975,left,1,1,0.7109126628783997,Q24R01,2022-12-01_14h41.04.745,t1_Paradigm,2021.1.4,60.03015772462957,
Z,left,Distractor,0,47,47,47,442.8865887374268,444.8880118157831,left,1,1,0.8279810700914823,Q24R01,2022-12-01_14h41.04.745,t1_Paradigm,2021.1.4,60.03015772462957,
H,left,Pretarget,0,48,48,48,446.38662178002414,448.3884028736211,left,1,1,0.6715425386792049,Q24R01,2022-12-01_14h41.04.745,t1_Paradigm,2021.1.4,60.03015772462957,
H,right,Target,0,49,49,49,449.8867735194508,451.88667727881693,right,1,1,0.7254491711209994,Q24R01,2022-12-01_14h41.04.745,t1_Paradigm,2021.1.4,60.03015772462957,
K,left,Distractor,0,50,50,50,453.3866692587617,455.38842404657044,left,1,1,0.9514815606235061,Q24R01,2022-12-01_14h41.04.745,t1_Paradigm,2021.1.4,60.03015772462957,
V,left,Pretarget,0,51,51,51,456.88666893795016,458.8882857808494,left,1,1,1.083598155528307,Q24R01,2022-12-01_14h41.04.745,t1_Paradigm,2021.1.4,60.03015772462957,
V,right,Target,0,52,52,52,460.38663493291824,462.3866387825401,right,1,1,0.6732828904059716,Q24R01,2022-12-01_14h41.04.745,t1_Paradigm,2021.1.4,60.03015772462957,
R,left,Distractor,0,53,53,53,463.8866298000794,465.888467675657,None,0,1,,Q24R01,2022-12-01_14h41.04.745,t1_Paradigm,2021.1.4,60.03015772462957,
V,left,Lure,0,54,54,54,467.38655152436695,469.3886364175996,left,1,1,1.0477494766237214,Q24R01,2022-12-01_14h41.04.745,t1_Paradigm,2021.1.4,60.03015772462957,
Y,left,Distractor,0,55,55,55,470.8862111532653,472.88802849751664,left,1,1,0.827937761816429,Q24R01,2022-12-01_14h41.04.745,t1_Paradigm,2021.1.4,60.03015772462957,
Q,left,Distractor,0,56,56,56,474.3866179304023,476.38801374059403,left,1,1,0.6879060152277816,Q24R01,2022-12-01_14h41.04.745,t1_Paradigm,2021.1.4,60.03015772462957,
Z,left,Pretarget,0,57,57,57,477.88674913850264,479.888546913804,left,1,1,0.7234935611777473,Q24R01,2022-12-01_14h41.04.745,t1_Paradigm,2021.1.4,60.03015772462957,
Z,right,Target,0,58,58,58,481.38659098302014,483.3866779204109,right,1,1,0.8253366979188286,Q24R01,2022-12-01_14h41.04.745,t1_Paradigm,2021.1.4,60.03015772462957,
B,left,Distractor,0,59,59,59,484.886643273785,486.88858252283535,left,1,1,0.8433721953188069,Q24R01,2022-12-01_14h41.04.745,t1_Paradigm,2021.1.4,60.03015772462957,
S,left,Pretarget,0,60,60,60,488.3866259504575,490.3876303820289,left,1,1,1.1363944916811306,Q24R01,2022-12-01_14h41.04.745,t1_Paradigm,2021.1.4,60.03015772462957,
S,right,Target,0,61,61,61,491.88651463211863,493.8867995044275,right,1,1,0.9010649348492734,Q24R01,2022-12-01_14h41.04.745,t1_Paradigm,2021.1.4,60.03015772462957,
T,left,Distractor,0,62,62,62,495.3868219605938,497.388734262262,left,1,1,1.0635454541479703,Q24R01,2022-12-01_14h41.04.745,t1_Paradigm,2021.1.4,60.03015772462957,
D,left,Distractor,0,63,63,63,498.8865701308823,500.88966715493007,left,1,1,1.0343511744285934,Q24R01,2022-12-01_14h41.04.745,t1_Paradigm,2021.1.4,60.03015772462957,
R,left,Distractor,0,0,0,0,516.0783690803219,518.0716405758285,None,0,1,,Q24R01,2022-12-01_14h41.04.745,t1_Paradigm,2021.1.4,60.03015772462957,
V,left,Distractor,0,1,1,1,519.5699441740289,521.5720752627531,left,1,1,1.071999874227913,Q24R01,2022-12-01_14h41.04.745,t1_Paradigm,2021.1.4,60.03015772462957,
N,left,Pretarget,0,2,2,2,523.0698960536974,525.0715892474982,left,1,1,1.2044671059120446,Q24R01,2022-12-01_14h41.04.745,t1_Paradigm,2021.1.4,60.03015772462957,
N,right,Target,0,3,3,3,526.5700644748285,528.5699878031155,right,1,1,0.8100655527086928,Q24R01,2022-12-01_14h41.04.745,t1_Paradigm,2021.1.4,60.03015772462957,
S,left,Distractor,0,4,4,4,530.070110028726,532.0711298587848,left,1,1,0.8130031380860601,Q24R01,2022-12-01_14h41.04.745,t1_Paradigm,2021.1.4,60.03015772462957,
N,left,Lure,0,5,5,5,533.5700400938513,535.582640881883,left,1,1,1.2854911448957864,Q24R01,2022-12-01_14h41.04.745,t1_Paradigm,2021.1.4,60.03015772462957,
Z,left,Distractor,0,6,6,6,537.0700301489851,539.071797448094,left,1,1,1.284125490084989,Q24R01,2022-12-01_14h41.04.745,t1_Paradigm,2021.1.4,60.03015772462957,
L,left,Pretarget,0,7,7,7,540.5691258076986,542.5712450267747,left,1,1,0.8088500333251432,Q24R01,2022-12-01_14h41.04.745,t1_Paradigm,2021.1.4,60.03015772462957,
L,right,Target,0,8,8,8,544.0700221289298,546.069985557493,right,1,1,0.75004924312816,Q24R01,2022-12-01_14h41.04.745,t1_Paradigm,2021.1.4,60.03015772462957,
H,left,Distractor,0,9,9,9,547.5698947704805,549.5718070721487,left,1,1,0.6881700353987981,Q24R01,2022-12-01_14h41.04.745,t1_Paradigm,2021.1.4,60.03015772462957,
L,left,Lure,0,10,10,10,551.0698687855038,553.0713319641654,left,1,1,1.0288205452088732,Q24R01,2022-12-01_14h41.04.745,t1_Paradigm,2021.1.4,60.03015772462957,
X,left,Pretarget,0,11,11,11,554.5701052166987,556.5716457086673,left,1,1,1.0964988935447764,Q24R01,2022-12-01_14h41.04.745,t1_Paradigm,2021.1.4,60.03015772462957,
X,right,Target,0,12,12,12,558.0700696076674,560.0701010462653,right,1,1,0.846268076391425,Q24R01,2022-12-01_14h41.04.745,t1_Paradigm,2021.1.4,60.03015772462957,
X,right,Target,0,13,13,13,561.5700955926441,563.5700080136594,right,1,1,0.9463320443464909,Q24R01,2022-12-01_14h41.04.745,t1_Paradigm,2021.1.4,60.03015772462957,
R,left,Distractor,0,14,14,14,565.069939682784,567.071764084656,left,1,1,0.7563125845044851,Q24R01,2022-12-01_14h41.04.745,t1_Paradigm,2021.1.4,60.03015772462957,
T,left,Distractor,0,15,15,15,568.5699104897794,570.5721439144108,left,1,1,0.9518472750787623,Q24R01,2022-12-01_14h41.04.745,t1_Paradigm,2021.1.4,60.03015772462957,
V,left,Pretarget,0,16,16,16,572.0702030613611,574.0716402550461,left,1,1,0.9564414827909786,Q24R01,2022-12-01_14h41.04.745,t1_Paradigm,2021.1.4,60.03015772462957,
V,right,Target,0,17,17,17,575.5700365650409,577.5699916527374,right,1,1,0.7699187664838973,Q24R01,2022-12-01_14h41.04.745,t1_Paradigm,2021.1.4,60.03015772462957,
N,left,Distractor,0,18,18,18,579.069893808075,581.0716444254504,left,1,1,0.7244585340667982,Q24R01,2022-12-01_14h41.04.745,t1_Paradigm,2021.1.4,60.03015772462957,
B,left,Distractor,0,19,19,19,582.5700102592527,584.5721750322264,left,1,1,0.791860992583679,Q24R01,2022-12-01_14h41.04.745,t1_Paradigm,2021.1.4,60.03015772462957,
V,left,Lure,0,20,20,20,586.0699826702767,588.0863653949637,left,1,1,0.7658548447361682,Q24R01,2022-12-01_14h41.04.745,t1_Paradigm,2021.1.4,60.03015772462957,
P,left,Distractor,0,21,21,21,589.5698812968039,591.5717400244903,left,1,1,0.7042325995280407,Q24R01,2022-12-01_14h41.04.745,t1_Paradigm,2021.1.4,60.03015772462957,
K,left,Pretarget,0,22,22,22,593.0699043945351,595.0709184501611,left,1,1,0.7251848301675636,Q24R01,2022-12-01_14h41.04.745,t1_Paradigm,2021.1.4,60.03015772462957,
K,right,Target,0,23,23,23,596.5700843645609,598.5699531564896,right,1,1,0.8261624426522758,Q24R01,2022-12-01_14h41.04.745,t1_Paradigm,2021.1.4,60.03015772462957,
J,left,Pretarget,0,24,24,24,600.070050359529,602.0714464905323,None,0,1,,Q24R01,2022-12-01_14h41.04.745,t1_Paradigm,2021.1.4,60.03015772462957,
J,right,Target,0,25,25,25,603.5701218984032,605.5701988909277,right,1,1,0.7217660415335558,Q24R01,2022-12-01_14h41.04.745,t1_Paradigm,2021.1.4,60.03015772462957,
H,left,Distractor,0,26,26,26,607.0700542091508,609.0712370067195,left,1,1,0.6130574178241659,Q24R01,2022-12-01_14h41.04.745,t1_Paradigm,2021.1.4,60.03015772462957,
J,left,Lure,0,27,27,27,610.5699833118706,612.572404726583,left,1,1,0.8236864915816113,Q24R01,2022-12-01_14h41.04.745,t1_Paradigm,2021.1.4,60.03015772462957,
V,left,Distractor,0,28,28,28,614.0701000838599,616.0716649568058,left,1,1,0.7002735800633673,Q24R01,2022-12-01_14h41.04.745,t1_Paradigm,2021.1.4,60.03015772462957,
Z,left,Pretarget,0,29,29,29,617.5700452266901,619.5717669718724,left,1,1,0.7682371215487365,Q24R01,2022-12-01_14h41.04.745,t1_Paradigm,2021.1.4,60.03015772462957,
Z,right,Target,0,30,30,30,621.0699791414372,623.0700224497414,right,1,1,0.7260827553982381,Q24R01,2022-12-01_14h41.04.745,t1_Paradigm,2021.1.4,60.03015772462957,
T,left,Distractor,0,31,31,31,624.5700603043952,626.5714638138306,left,1,1,0.680662302474957,Q24R01,2022-12-01_14h41.04.745,t1_Paradigm,2021.1.4,60.03015772462957,
Z,left,Lure,0,32,32,32,628.0699762542208,630.0713579491421,left,1,1,0.8927821438701358,Q24R01,2022-12-01_14h41.04.745,t1_Paradigm,2021.1.4,60.03015772462957,
F,left,Distractor,0,33,33,33,631.5701260688365,633.5714641346422,left,1,1,0.7685383547795936,Q24R01,2022-12-01_14h41.04.745,t1_Paradigm,2021.1.4,60.03015772462957,
Y,left,Pretarget,0,34,34,34,635.0701915124664,637.0719151824887,left,1,1,0.7881637476966716,Q24R01,2022-12-01_14h41.04.745,t1_Paradigm,2021.1.4,60.03015772462957,
Y,right,Target,0,35,35,35,638.5699265298899,640.570064154017,right,1,1,0.761912506975932,Q24R01,2022-12-01_14h41.04.745,t1_Paradigm,2021.1.4,60.03015772462957,
Y,right,Target,0,36,36,36,642.0700057680369,644.0699701589765,right,1,1,0.8464894298813306,Q24R01,2022-12-01_14h41.04.745,t1_Paradigm,2021.1.4,60.03015772462957,
W,left,Distractor,0,37,37,37,645.5700651164225,647.5722693480784,left,1,1,0.6877930928603746,Q24R01,2022-12-01_14h41.04.745,t1_Paradigm,2021.1.4,60.03015772462957,
Q,left,Distractor,0,38,38,38,649.070146600192,651.0720794331864,left,1,1,0.596096928435145,Q24R01,2022-12-01_14h41.04.745,t1_Paradigm,2021.1.4,60.03015772462957,
P,left,Pretarget,0,39,39,39,652.5699955023592,654.5714054278506,left,1,1,0.6005769306211732,Q24R01,2022-12-01_14h41.04.745,t1_Paradigm,2021.1.4,60.03015772462957,
P,right,Target,0,40,40,40,656.0699948607653,658.0700128256867,right,1,1,0.6058117802313063,Q24R01,2022-12-01_14h41.04.745,t1_Paradigm,2021.1.4,60.03015772462957,
J,left,Distractor,0,41,41,41,659.5700301489851,661.5720733379421,left,1,1,0.8644027016707696,Q24R01,2022-12-01_14h41.04.745,t1_Paradigm,2021.1.4,60.03015772462957,
P,left,Lure,0,42,42,42,663.0704022794962,665.0716049667972,left,1,1,1.15651488234289,Q24R01,2022-12-01_14h41.04.745,t1_Paradigm,2021.1.4,60.03015772462957,
L,left,Distractor,0,43,43,43,666.5698838632088,668.5719270521658,left,1,1,0.9521754556626547,Q24R01,2022-12-01_14h41.04.745,t1_Paradigm,2021.1.4,60.03015772462957,
Z,left,Distractor,0,44,44,44,670.0700619083946,672.0716781096999,left,1,1,1.1647110567137133,Q24R01,2022-12-01_14h41.04.745,t1_Paradigm,2021.1.4,60.03015772462957,
F,left,Pretarget,0,45,45,45,673.5699598933279,675.5718847062672,left,1,1,0.8805451455409639,Q24R01,2022-12-01_14h41.04.745,t1_Paradigm,2021.1.4,60.03015772462957,
F,right,Target,0,46,46,46,677.06998684071,679.0701116327546,right,1,1,0.7899227059097029,Q24R01,2022-12-01_14h41.04.745,t1_Paradigm,2021.1.4,60.03015772462957,
G,left,Pretarget,0,47,47,47,680.5701023294823,682.5825112778111,left,1,1,0.8616139685036615,Q24R01,2022-12-01_14h41.04.745,t1_Paradigm,2021.1.4,60.03015772462957,
G,right,Target,0,48,48,48,684.0699727254105,686.0699310211348,right,1,1,1.3101457532611676,Q24R01,2022-12-01_14h41.04.745,t1_Paradigm,2021.1.4,60.03015772462957,
V,left,Distractor,0,49,49,49,687.5699483444332,689.5721631625493,left,1,1,1.2802979995321948,Q24R01,2022-12-01_14h41.04.745,t1_Paradigm,2021.1.4,60.03015772462957,
G,left,Lure,0,50,50,50,691.0699496276502,693.0717028114595,left,1,1,1.0444888434722088,Q24R01,2022-12-01_14h41.04.745,t1_Paradigm,2021.1.4,60.03015772462957,
Q,left,Pretarget,0,51,51,51,694.5700307906081,696.5720358040999,left,1,1,0.8083107649290469,Q24R01,2022-12-01_14h41.04.745,t1_Paradigm,2021.1.4,60.03015772462957,
Q,right,Target,0,52,52,52,698.0700372066349,700.0700673620449,right,1,1,0.7663354063697625,Q24R01,2022-12-01_14h41.04.745,t1_Paradigm,2021.1.4,60.03015772462957,
Y,left,Distractor,0,53,53,53,701.5698476125544,703.572436165181,left,1,1,0.7355977474653628,Q24R01,2022-12-01_14h41.04.745,t1_Paradigm,2021.1.4,60.03015772462957,
V,left,Distractor,0,54,54,54,705.070050359529,707.0717621598451,left,1,1,0.7403677547408734,Q24R01,2022-12-01_14h41.04.745,t1_Paradigm,2021.1.4,60.03015772462957,
B,left,Distractor,0,55,55,55,708.5699502692441,710.5712915430777,left,1,1,0.8408757128927391,Q24R01,2022-12-01_14h41.04.745,t1_Paradigm,2021.1.4,60.03015772462957,
J,left,Pretarget,0,56,56,56,712.0699756126269,714.0715440143831,left,1,1,0.7808292479021475,Q24R01,2022-12-01_14h41.04.745,t1_Paradigm,2021.1.4,60.03015772462957,
J,right,Target,0,57,57,57,715.5691874017357,717.5700410562567,right,1,1,0.7539800319937058,Q24R01,2022-12-01_14h41.04.745,t1_Paradigm,2021.1.4,60.03015772462957,
H,left,Distractor,0,58,58,58,719.0700253369578,721.0723177891923,left,1,1,0.7877431760425679,Q24R01,2022-12-01_14h41.04.745,t1_Paradigm,2021.1.4,60.03015772462957,
J,left,Lure,0,59,59,59,722.5700086552533,724.5827384057338,left,1,1,1.0213057546352502,Q24R01,2022-12-01_14h41.04.745,t1_Paradigm,2021.1.4,60.03015772462957,
D,left,Pretarget,0,60,60,60,726.070064154017,728.0726286464778,left,1,1,0.6353971177886706,Q24R01,2022-12-01_14h41.04.745,t1_Paradigm,2021.1.4,60.03015772462957,
D,right,Target,0,61,61,61,729.5700269409863,731.5699964647647,right,1,1,0.7540653653559275,Q24R01,2022-12-01_14h41.04.745,t1_Paradigm,2021.1.4,60.03015772462957,
R,left,Distractor,0,62,62,62,733.0698761639651,735.0717624806566,left,1,1,0.6923548995691817,Q24R01,2022-12-01_14h41.04.745,t1_Paradigm,2021.1.4,60.03015772462957,
F,left,Distractor,0,63,63,63,736.5701196528098,738.5714631722367,left,1,1,0.9046328964759596,Q24R01,2022-12-01_14h41.04.745,t1_Paradigm,2021.1.4,60.03015772462957,
F,left,Distractor,0,0,0,0,835.3450419705478,837.3368563826662,None,0,2,,Q24R01,2022-12-01_14h41.04.745,t1_Paradigm,2021.1.4,60.03015772462957,
N,left,Pretarget,0,1,1,1,838.836831360095,840.8384097067174,None,0,2,,Q24R01,2022-12-01_14h41.04.745,t1_Paradigm,2021.1.4,60.03015772462957,
V,left,Distractor,0,2,2,2,842.3364974050492,844.3391786694992,left,1,2,0.7210111940803472,Q24R01,2022-12-01_14h41.04.745,t1_Paradigm,2021.1.4,60.03015772462957,
N,right,Target,0,3,3,3,845.8366581269074,847.8387401329237,right,1,2,0.8534062452381477,Q24R01,2022-12-01_14h41.04.745,t1_Paradigm,2021.1.4,60.03015772462957,
N,left,Lure,0,4,4,4,849.3366157810378,851.3366709590191,left,1,2,1.3075087594916113,Q24R01,2022-12-01_14h41.04.745,t1_Paradigm,2021.1.4,60.03015772462957,
X,left,Distractor,0,5,5,5,852.8366084025765,854.837171410385,left,1,2,0.9271108621906023,Q24R01,2022-12-01_14h41.04.745,t1_Paradigm,2021.1.4,60.03015772462957,
G,left,Pretarget,0,6,6,6,856.336674808641,858.3391854063375,None,0,2,,Q24R01,2022-12-01_14h41.04.745,t1_Paradigm,2021.1.4,60.03015772462957,
H,left,Pretarget,0,7,7,7,859.8366122521984,861.8385515012778,left,1,2,1.109574147965759,Q24R01,2022-12-01_14h41.04.745,t1_Paradigm,2021.1.4,60.03015772462957,
G,right,Target,0,8,8,8,863.3368060167122,865.338655120373,right,1,2,1.129616583668394,Q24R01,2022-12-01_14h41.04.745,t1_Paradigm,2021.1.4,60.03015772462957,
H,right,Target,0,9,9,9,866.8367360818374,868.8386182281247,None,0,2,,Q24R01,2022-12-01_14h41.04.745,t1_Paradigm,2021.1.4,60.03015772462957,
T,left,Pretarget,0,10,10,10,870.3367296658107,872.3389072708669,left,1,2,0.9133766801096499,Q24R01,2022-12-01_14h41.04.745,t1_Paradigm,2021.1.4,60.03015772462957,
K,left,Distractor,0,11,11,11,873.8366388787981,875.8392816469714,None,0,2,,Q24R01,2022-12-01_14h41.04.745,t1_Paradigm,2021.1.4,60.03015772462957,
T,right,Target,0,12,12,12,877.3367851645744,879.3368871796702,right,1,2,0.9712542016932275,Q24R01,2022-12-01_14h41.04.745,t1_Paradigm,2021.1.4,60.03015772462957,
T,left,Lure,0,13,13,13,880.8367723324918,882.836530768458,None,0,2,,Q24R01,2022-12-01_14h41.04.745,t1_Paradigm,2021.1.4,60.03015772462957,
J,left,Distractor,0,14,14,14,884.3366122521984,886.3370963426714,None,0,2,,Q24R01,2022-12-01_14h41.04.745,t1_Paradigm,2021.1.4,60.03015772462957,
Q,left,Pretarget,0,15,15,15,887.8363177558349,889.8389993410674,left,1,2,1.3976153492403682,Q24R01,2022-12-01_14h41.04.745,t1_Paradigm,2021.1.4,60.03015772462957,
M,left,Distractor,0,16,16,16,891.3367107384838,893.340026870399,left,1,2,1.0802618130401243,Q24R01,2022-12-01_14h41.04.745,t1_Paradigm,2021.1.4,60.03015772462957,
Q,right,Target,0,17,17,17,894.8369320919737,896.8387382081128,right,1,2,1.0693997727357782,Q24R01,2022-12-01_14h41.04.745,t1_Paradigm,2021.1.4,60.03015772462957,
R,left,Distractor,0,18,18,18,898.336530768458,900.3384174059611,None,0,2,,Q24R01,2022-12-01_14h41.04.745,t1_Paradigm,2021.1.4,60.03015772462957,
W,left,Distractor,0,19,19,19,901.836611931416,903.8367293449992,None,0,2,,Q24R01,2022-12-01_14h41.04.745,t1_Paradigm,2021.1.4,60.03015772462957,
C,left,Pretarget,0,20,20,20,905.3365545078123,907.338999020285,left,1,2,1.3532272376469336,Q24R01,2022-12-01_14h41.04.745,t1_Paradigm,2021.1.4,60.03015772462957,
T,left,Distractor,0,21,21,21,908.8360652845295,910.8386849549715,None,0,2,,Q24R01,2022-12-01_14h41.04.745,t1_Paradigm,2021.1.4,60.03015772462957,
C,right,Target,0,22,22,22,912.3367675204645,914.3379846438474,right,1,2,1.058286865154514,Q24R01,2022-12-01_14h41.04.745,t1_Paradigm,2021.1.4,60.03015772462957,
F,left,Pretarget,0,23,23,23,915.8366359915817,917.8387362833018,left,1,2,1.0455446033738554,Q24R01,2022-12-01_14h41.04.745,t1_Paradigm,2021.1.4,60.03015772462957,
C,right,Target,0,24,24,24,919.3367777861131,921.3492903535371,None,0,2,,Q24R01,2022-12-01_14h41.04.745,t1_Paradigm,2021.1.4,60.03015772462957,
F,right,Target,0,25,25,25,922.836811791145,924.8388649249682,right,1,2,1.0692701686639339,Q24R01,2022-12-01_14h41.04.745,t1_Paradigm,2021.1.4,60.03015772462957,
H,left,Distractor,0,26,26,26,926.3367675204645,928.3392129953136,left,1,2,1.0890601330902427,Q24R01,2022-12-01_14h41.04.745,t1_Paradigm,2021.1.4,60.03015772462957,
H,left,Lure,0,27,27,27,929.8366946983733,931.8365869088448,None,0,2,,Q24R01,2022-12-01_14h41.04.745,t1_Paradigm,2021.1.4,60.03015772462957,
P,left,Distractor,0,28,28,28,933.336752763571,935.339044253371,left,1,2,1.1452354783832561,Q24R01,2022-12-01_14h41.04.745,t1_Paradigm,2021.1.4,60.03015772462957,
G,left,Pretarget,0,29,29,29,936.8366889239405,938.8390740879695,left,1,2,0.9732046788267326,Q24R01,2022-12-01_14h41.04.745,t1_Paradigm,2021.1.4,60.03015772462957,
K,left,Distractor,0,30,30,30,940.3366841118841,942.3382111301762,None,0,2,,Q24R01,2022-12-01_14h41.04.745,t1_Paradigm,2021.1.4,60.03015772462957,
G,right,Target,0,31,31,31,943.8367469891091,945.836499971454,None,0,2,,Q24R01,2022-12-01_14h41.04.745,t1_Paradigm,2021.1.4,60.03015772462957,
M,left,Pretarget,0,32,32,32,947.336736402649,949.3389229901659,left,1,2,1.225393030763371,Q24R01,2022-12-01_14h41.04.745,t1_Paradigm,2021.1.4,60.03015772462957,
B,left,Distractor,0,33,33,33,950.8367511595425,952.8386156616907,left,1,2,1.2617203464906197,Q24R01,2022-12-01_14h41.04.745,t1_Paradigm,2021.1.4,60.03015772462957,
M,right,Target,0,34,34,34,954.3366956607788,956.3496018524456,right,1,2,0.8707019728608429,Q24R01,2022-12-01_14h41.04.745,t1_Paradigm,2021.1.4,60.03015772462957,
M,left,Lure,0,35,35,35,957.8368361721223,959.8368056959007,left,1,2,1.207451207592385,Q24R01,2022-12-01_14h41.04.745,t1_Paradigm,2021.1.4,60.03015772462957,
T,left,Distractor,0,36,36,36,961.3368951997254,963.3385200626508,left,1,2,1.3216651171678677,Q24R01,2022-12-01_14h41.04.745,t1_Paradigm,2021.1.4,60.03015772462957,
F,left,Distractor,0,37,37,37,964.8369333751616,966.8384757919703,None,0,2,,Q24R01,2022-12-01_14h41.04.745,t1_Paradigm,2021.1.4,60.03015772462957,
X,left,Distractor,0,38,38,38,968.336126557755,970.3388299575308,left,1,2,1.0733738699054811,Q24R01,2022-12-01_14h41.04.745,t1_Paradigm,2021.1.4,60.03015772462957,
C,left,Distractor,0,39,39,39,971.8369436408393,973.8388206542877,left,1,2,1.3653234038793016,Q24R01,2022-12-01_14h41.04.745,t1_Paradigm,2021.1.4,60.03015772462957,
R,left,Distractor,0,40,40,40,975.3368534954498,977.3390439325885,None,0,2,,Q24R01,2022-12-01_14h41.04.745,t1_Paradigm,2021.1.4,60.03015772462957,
B,left,Pretarget,0,41,41,41,978.8368730643706,980.8384690551029,None,0,2,,Q24R01,2022-12-01_14h41.04.745,t1_Paradigm,2021.1.4,60.03015772462957,
H,left,Distractor,0,42,42,42,982.336705605645,984.3383654360077,None,0,2,,Q24R01,2022-12-01_14h41.04.745,t1_Paradigm,2021.1.4,60.03015772462957,
B,right,Target,0,43,43,43,985.8368284728786,987.8388937971613,right,1,2,1.3813429804868065,Q24R01,2022-12-01_14h41.04.745,t1_Paradigm,2021.1.4,60.03015772462957,
W,left,Pretarget,0,44,44,44,989.3368056959007,991.3385107593786,left,1,2,1.3376994507270865,Q24R01,2022-12-01_14h41.04.745,t1_Paradigm,2021.1.4,60.03015772462957,
L,left,Pretarget,0,45,45,45,992.8365192195924,994.8394244039373,None,0,2,,Q24R01,2022-12-01_14h41.04.745,t1_Paradigm,2021.1.4,60.03015772462957,
W,right,Target,0,46,46,46,996.3368721019651,998.337250648503,right,1,2,0.5791681984846946,Q24R01,2022-12-01_14h41.04.745,t1_Paradigm,2021.1.4,60.03015772462957,
L,right,Target,0,47,47,47,999.8368798012089,1001.8385309699224,right,1,2,0.869613170332741,Q24R01,2022-12-01_14h41.04.745,t1_Paradigm,2021.1.4,60.03015772462957,
W,right,Target,0,48,48,48,1003.3367123424832,1005.3381662178726,right,1,2,1.322092104848707,Q24R01,2022-12-01_14h41.04.745,t1_Paradigm,2021.1.4,60.03015772462957,
X,left,Distractor,0,49,49,49,1006.8367142672942,1008.8390301381005,left,1,2,0.8934218234207947,Q24R01,2022-12-01_14h41.04.745,t1_Paradigm,2021.1.4,60.03015772462957,
R,left,Distractor,0,50,50,50,1010.3367100968608,1012.3390019075014,left,1,2,1.201165410107933,Q24R01,2022-12-01_14h41.04.745,t1_Paradigm,2021.1.4,60.03015772462957,
V,left,Pretarget,0,51,51,51,1013.8369596809498,1015.8380674108048,None,0,2,,Q24R01,2022-12-01_14h41.04.745,t1_Paradigm,2021.1.4,60.03015772462957,
Z,left,Distractor,0,52,52,52,1017.3366600517475,1019.3387423785462,None,0,2,,Q24R01,2022-12-01_14h41.04.745,t1_Paradigm,2021.1.4,60.03015772462957,
V,right,Target,0,53,53,53,1020.8366549189086,1022.838325656543,right,1,2,1.0858302969427314,Q24R01,2022-12-01_14h41.04.745,t1_Paradigm,2021.1.4,60.03015772462957,
V,left,Lure,0,54,54,54,1024.3368409841496,1026.3367688036524,left,1,2,1.379619310493581,Q24R01,2022-12-01_14h41.04.745,t1_Paradigm,2021.1.4,60.03015772462957,
N,left,Distractor,0,55,55,55,1027.8368945581024,1029.836987911549,None,0,2,,Q24R01,2022-12-01_14h41.04.745,t1_Paradigm,2021.1.4,60.03015772462957,
B,left,Distractor,0,56,56,56,1031.3365987785219,1033.3384847744019,left,1,2,1.2578319035237655,Q24R01,2022-12-01_14h41.04.745,t1_Paradigm,2021.1.4,60.03015772462957,
V,left,Lure,0,57,57,57,1034.836981495493,1036.8387375665188,None,0,2,,Q24R01,2022-12-01_14h41.04.745,t1_Paradigm,2021.1.4,60.03015772462957,
J,left,Distractor,0,58,58,58,1038.3365342972975,1040.3371637111122,left,1,2,1.1071427883871365,Q24R01,2022-12-01_14h41.04.745,t1_Paradigm,2021.1.4,60.03015772462957,
H,left,Distractor,0,59,59,59,1041.8368028086843,1043.8387372457073,left,1,2,1.3174468896177132,Q24R01,2022-12-01_14h41.04.745,t1_Paradigm,2021.1.4,60.03015772462957,
X,left,Pretarget,0,60,60,60,1045.3366664677742,1047.3385550300882,left,1,2,1.1457933533529285,Q24R01,2022-12-01_14h41.04.745,t1_Paradigm,2021.1.4,60.03015772462957,
P,left,Distractor,0,61,61,61,1048.8359350388637,1050.8385251954896,left,1,2,1.0217519904254004,Q24R01,2022-12-01_14h41.04.745,t1_Paradigm,2021.1.4,60.03015772462957,
X,right,Target,0,62,62,62,1052.3366398412036,1054.338854338508,right,1,2,1.0734588824852835,Q24R01,2022-12-01_14h41.04.745,t1_Paradigm,2021.1.4,60.03015772462957,
Q,left,Distractor,0,63,63,63,1055.8370414855017,1057.8357935651147,left,1,2,1.384551643684972,Q24R01,2022-12-01_14h41.04.745,t1_Paradigm,2021.1.4,60.03015772462957,
B,left,Pretarget,0,0,0,0,1086.4280094290152,1088.4205068289302,None,0,2,,Q24R01,2022-12-01_14h41.04.745,t1_Paradigm,2021.1.4,60.03015772462957,
F,left,Distractor,0,1,1,1,1089.9202036708884,1091.921993105323,None,0,2,,Q24R01,2022-12-01_14h41.04.745,t1_Paradigm,2021.1.4,60.03015772462957,
B,right,Target,0,2,2,2,1093.4200538562727,1095.419915911334,right,1,2,0.6964486559445504,Q24R01,2022-12-01_14h41.04.745,t1_Paradigm,2021.1.4,60.03015772462957,
V,left,Distractor,0,3,3,3,1096.9202094453212,1098.9217656565888,left,1,2,1.178649589739507,Q24R01,2022-12-01_14h41.04.745,t1_Paradigm,2021.1.4,60.03015772462957,
G,left,Pretarget,0,4,4,4,1100.4201972548326,1102.4219279824756,left,1,2,1.4224207345978357,Q24R01,2022-12-01_14h41.04.745,t1_Paradigm,2021.1.4,60.03015772462957,
B,left,Lure,0,5,5,5,1103.9201773651002,1105.9220883835806,None,0,2,,Q24R01,2022-12-01_14h41.04.745,t1_Paradigm,2021.1.4,60.03015772462957,
G,right,Target,0,6,6,6,1107.420125395147,1109.4221721129434,right,1,2,1.4304298812930938,Q24R01,2022-12-01_14h41.04.745,t1_Paradigm,2021.1.4,60.03015772462957,
Y,left,Pretarget,0,7,7,7,1110.9201456056908,1112.9201780067233,left,1,2,1.1164592039131094,Q24R01,2022-12-01_14h41.04.745,t1_Paradigm,2021.1.4,60.03015772462957,
P,left,Distractor,0,8,8,8,1114.4201622873952,1116.4229471709405,left,1,2,1.229415569046978,Q24R01,2022-12-01_14h41.04.745,t1_Paradigm,2021.1.4,60.03015772462957,
Y,right,Target,0,9,9,9,1117.9199890542368,1119.922061115387,None,0,2,,Q24R01,2022-12-01_14h41.04.745,t1_Paradigm,2021.1.4,60.03015772462957,
X,left,Distractor,0,10,10,10,1121.420119620714,1123.4221259174228,None,0,2,,Q24R01,2022-12-01_14h41.04.745,t1_Paradigm,2021.1.4,60.03015772462957,
Y,right,Target,0,11,11,11,1124.9201144878753,1126.9224576268462,None,0,2,,Q24R01,2022-12-01_14h41.04.745,t1_Paradigm,2021.1.4,60.03015772462957,
N,left,Distractor,0,12,12,12,1128.4201484929072,1130.4220915915794,None,0,2,,Q24R01,2022-12-01_14h41.04.745,t1_Paradigm,2021.1.4,60.03015772462957,
Y,right,Target,0,13,13,13,1131.9201414352574,1133.9219350401254,None,0,2,,Q24R01,2022-12-01_14h41.04.745,t1_Paradigm,2021.1.4,60.03015772462957,
Y,left,Lure,0,14,14,14,1135.4200105479686,1137.420125395147,left,1,2,1.1443244002584834,Q24R01,2022-12-01_14h41.04.745,t1_Paradigm,2021.1.4,60.03015772462957,
K,left,Distractor,0,15,15,15,1138.920297665929,1140.9219866892963,left,1,2,1.0182507556455676,Q24R01,2022-12-01_14h41.04.745,t1_Paradigm,2021.1.4,60.03015772462957,
T,left,Pretarget,0,16,16,16,1142.4199149489286,1144.4215558519936,left,1,2,1.1987667723442428,Q24R01,2022-12-01_14h41.04.745,t1_Paradigm,2021.1.4,60.03015772462957,
J,left,Distractor,0,17,17,17,1145.920183781156,1147.9219250952592,left,1,2,0.9624420871841721,Q24R01,2022-12-01_14h41.04.745,t1_Paradigm,2021.1.4,60.03015772462957,
T,right,Target,0,18,18,18,1149.419986487832,1151.422367802239,right,1,2,0.9658984096604399,Q24R01,2022-12-01_14h41.04.745,t1_Paradigm,2021.1.4,60.03015772462957,
S,left,Pretarget,0,19,19,19,1152.9201866683725,1154.9218968646892,None,0,2,,Q24R01,2022-12-01_14h41.04.745,t1_Paradigm,2021.1.4,60.03015772462957,
R,left,Distractor,0,20,20,20,1156.4202136157546,1158.4224925942835,None,0,2,,Q24R01,2022-12-01_14h41.04.745,t1_Paradigm,2021.1.4,60.03015772462957,
S,right,Target,0,21,21,21,1159.9198119714565,1161.9219706491858,right,1,2,0.8662848479289096,Q24R01,2022-12-01_14h41.04.745,t1_Paradigm,2021.1.4,60.03015772462957,
Q,left,Distractor,0,22,22,22,1163.4200217760517,1165.4223241731524,left,1,2,1.1900711090129334,Q24R01,2022-12-01_14h41.04.745,t1_Paradigm,2021.1.4,60.03015772462957,
D,left,Distractor,0,23,23,23,1166.9200439114065,1168.9220059374056,left,1,2,1.2108802618749905,Q24R01,2022-12-01_14h41.04.745,t1_Paradigm,2021.1.4,60.03015772462957,
F,left,Distractor,0,24,24,24,1170.420150417718,1172.422528203344,left,1,2,0.9576794583408628,Q24R01,2022-12-01_14h41.04.745,t1_Paradigm,2021.1.4,60.03015772462957,
Z,left,Distractor,0,25,25,25,1173.9192925927637,1175.9203676007746,left,1,2,0.9960377725365106,Q24R01,2022-12-01_14h41.04.745,t1_Paradigm,2021.1.4,60.03015772462957,
P,left,Distractor,0,26,26,26,1177.4199470291496,1179.422680905147,None,0,2,,Q24R01,2022-12-01_14h41.04.745,t1_Paradigm,2021.1.4,60.03015772462957,
H,left,Distractor,0,27,27,27,1180.920205916511,1182.9202222774038,None,0,2,,Q24R01,2022-12-01_14h41.04.745,t1_Paradigm,2021.1.4,60.03015772462957,
Z,left,Pretarget,0,28,28,28,1184.4201484929072,1186.421670699172,None,0,2,,Q24R01,2022-12-01_14h41.04.745,t1_Paradigm,2021.1.4,60.03015772462957,
J,left,Pretarget,0,29,29,29,1187.9199778261536,1189.922320644342,None,0,2,,Q24R01,2022-12-01_14h41.04.745,t1_Paradigm,2021.1.4,60.03015772462957,
Z,right,Target,0,30,30,30,1191.4201860267494,1193.4219725739968,None,0,2,,Q24R01,2022-12-01_14h41.04.745,t1_Paradigm,2021.1.4,60.03015772462957,
J,right,Target,0,31,31,31,1194.9200814452488,1196.9213819772121,right,1,2,0.8588377466076054,Q24R01,2022-12-01_14h41.04.745,t1_Paradigm,2021.1.4,60.03015772462957,
V,left,Pretarget,0,32,32,32,1198.420168061857,1200.4222436518176,left,1,2,1.2462079580582213,Q24R01,2022-12-01_14h41.04.745,t1_Paradigm,2021.1.4,60.03015772462957,
Z,left,Lure,0,33,33,33,1201.9202549992187,1203.9219523634529,None,0,2,,Q24R01,2022-12-01_14h41.04.745,t1_Paradigm,2021.1.4,60.03015772462957,
V,right,Target,0,34,34,34,1205.4202877210628,1207.422091912391,None,0,2,,Q24R01,2022-12-01_14h41.04.745,t1_Paradigm,2021.1.4,60.03015772462957,
X,left,Distractor,0,35,35,35,1208.9198940967908,1210.9218185889476,None,0,2,,Q24R01,2022-12-01_14h41.04.745,t1_Paradigm,2021.1.4,60.03015772462957,
S,left,Distractor,0,36,36,36,1212.4199588988267,1214.422244614223,left,1,2,1.0221578051277902,Q24R01,2022-12-01_14h41.04.745,t1_Paradigm,2021.1.4,60.03015772462957,
Q,left,Distractor,0,37,37,37,1215.9203769040469,1217.9328833762265,None,0,2,,Q24R01,2022-12-01_14h41.04.745,t1_Paradigm,2021.1.4,60.03015772462957,
P,left,Distractor,0,38,38,38,1219.42015426734,1221.422289847338,None,0,2,,Q24R01,2022-12-01_14h41.04.745,t1_Paradigm,2021.1.4,60.03015772462957,
S,left,Lure,0,39,39,39,1222.9201924428053,1224.9219417769928,None,0,2,,Q24R01,2022-12-01_14h41.04.745,t1_Paradigm,2021.1.4,60.03015772462957,
K,left,Pretarget,0,40,40,40,1226.4203146684158,1228.421914508799,None,0,2,,Q24R01,2022-12-01_14h41.04.745,t1_Paradigm,2021.1.4,60.03015772462957,
L,left,Distractor,0,41,41,41,1229.9202055956994,1231.9221958522976,left,1,2,1.4261064306192566,Q24R01,2022-12-01_14h41.04.745,t1_Paradigm,2021.1.4,60.03015772462957,
K,right,Target,0,42,42,42,1233.4202396007313,1235.4211920623493,right,1,2,1.4312681373558007,Q24R01,2022-12-01_14h41.04.745,t1_Paradigm,2021.1.4,60.03015772462957,
B,left,Distractor,0,43,43,43,1236.9201667786401,1238.9220623986039,left,1,2,0.8903575211588759,Q24R01,2022-12-01_14h41.04.745,t1_Paradigm,2021.1.4,60.03015772462957,
N,left,Distractor,0,44,44,44,1240.4202524328139,1242.4194764123822,left,1,2,1.008965778775746,Q24R01,2022-12-01_14h41.04.745,t1_Paradigm,2021.1.4,60.03015772462957,
S,left,Pretarget,0,45,45,45,1243.9203438614204,1245.9220213359222,left,1,2,1.2984059982409235,Q24R01,2022-12-01_14h41.04.745,t1_Paradigm,2021.1.4,60.03015772462957,
Z,left,Distractor,0,46,46,46,1247.4202755305741,1249.4221557520214,None,0,2,,Q24R01,2022-12-01_14h41.04.745,t1_Paradigm,2021.1.4,60.03015772462957,
S,right,Target,0,47,47,47,1250.9199823173985,1252.9218728045234,right,1,2,1.1465873387060128,Q24R01,2022-12-01_14h41.04.745,t1_Paradigm,2021.1.4,60.03015772462957,
C,left,Distractor,0,48,48,48,1254.4201966132387,1256.4221936066751,None,0,2,,Q24R01,2022-12-01_14h41.04.745,t1_Paradigm,2021.1.4,60.03015772462957,
T,left,Pretarget,0,49,49,49,1257.920183139533,1259.9229535869963,None,0,2,,Q24R01,2022-12-01_14h41.04.745,t1_Paradigm,2021.1.4,60.03015772462957,
S,left,Lure,0,50,50,50,1261.4203512398817,1263.422320002719,left,1,2,1.349946714763064,Q24R01,2022-12-01_14h41.04.745,t1_Paradigm,2021.1.4,60.03015772462957,
T,right,Target,0,51,51,51,1264.9193240313616,1266.9206001823477,right,1,2,0.8596506592875812,Q24R01,2022-12-01_14h41.04.745,t1_Paradigm,2021.1.4,60.03015772462957,
N,left,Pretarget,0,52,52,52,1268.419966918882,1270.4219847644854,left,1,2,1.1183753552031703,Q24R01,2022-12-01_14h41.04.745,t1_Paradigm,2021.1.4,60.03015772462957,
B,left,Distractor,0,53,53,53,1271.9203733752365,1273.9203262173105,None,0,2,,Q24R01,2022-12-01_14h41.04.745,t1_Paradigm,2021.1.4,60.03015772462957,
N,right,Target,0,54,54,54,1275.4202280518366,1277.4224261882482,right,1,2,1.078115967422491,Q24R01,2022-12-01_14h41.04.745,t1_Paradigm,2021.1.4,60.03015772462957,
N,left,Lure,0,55,55,55,1278.920198217238,1280.9203964729677,left,1,2,1.2278641698067077,Q24R01,2022-12-01_14h41.04.745,t1_Paradigm,2021.1.4,60.03015772462957,
X,left,Distractor,0,56,56,56,1282.420204633294,1284.4219138672051,None,0,2,,Q24R01,2022-12-01_14h41.04.745,t1_Paradigm,2021.1.4,60.03015772462957,
W,left,Distractor,0,57,57,57,1285.9201436808798,1287.9223023586092,left,1,2,0.8499733413336799,Q24R01,2022-12-01_14h41.04.745,t1_Paradigm,2021.1.4,60.03015772462957,
S,left,Distractor,0,58,58,58,1289.420200142049,1291.4220306391944,None,0,2,,Q24R01,2022-12-01_14h41.04.745,t1_Paradigm,2021.1.4,60.03015772462957,
L,left,Distractor,0,59,59,59,1292.920265585708,1294.9219658371585,left,1,2,1.4183568128501065,Q24R01,2022-12-01_14h41.04.745,t1_Paradigm,2021.1.4,60.03015772462957,
K,left,Pretarget,0,60,60,60,1296.420323971688,1298.4222824688768,None,0,2,,Q24R01,2022-12-01_14h41.04.745,t1_Paradigm,2021.1.4,60.03015772462957,
V,left,Pretarget,0,61,61,61,1299.9200686131662,1301.921839120303,None,0,2,,Q24R01,2022-12-01_14h41.04.745,t1_Paradigm,2021.1.4,60.03015772462957,
K,right,Target,0,62,62,62,1303.4202684729244,1305.4222638623614,None,0,2,,Q24R01,2022-12-01_14h41.04.745,t1_Paradigm,2021.1.4,60.03015772462957,
V,right,Target,0,63,63,63,1306.9203804328863,1308.922339571669,None,0,2,,Q24R01,2022-12-01_14h41.04.745,t1_Paradigm,2021.1.4,60.03015772462957,
R,left,Distractor,0,0,0,0,1390.2046069756616,1392.20576667547,None,0,3,,Q24R01,2022-12-01_14h41.04.745,t1_Paradigm,2021.1.4,60.03015772462957,
P,left,Lure,0,1,1,1,1393.7036006192793,1395.7052489007765,None,0,3,,Q24R01,2022-12-01_14h41.04.745,t1_Paradigm,2021.1.4,60.03015772462957,
V,left,Distractor,0,2,2,2,1397.2034787144512,1399.205078875646,None,0,3,,Q24R01,2022-12-01_14h41.04.745,t1_Paradigm,2021.1.4,60.03015772462957,
P,left,Pretarget,0,3,3,3,1400.703458183125,1402.7054230963404,None,0,3,,Q24R01,2022-12-01_14h41.04.745,t1_Paradigm,2021.1.4,60.03015772462957,
Z,left,Distractor,0,4,4,4,1404.203575596708,1406.206064059079,left,1,3,1.2384262600971851,Q24R01,2022-12-01_14h41.04.745,t1_Paradigm,2021.1.4,60.03015772462957,
L,left,Pretarget,0,5,5,5,1407.7035489701375,1409.703718353674,None,0,3,,Q24R01,2022-12-01_14h41.04.745,t1_Paradigm,2021.1.4,60.03015772462957,
P,right,Target,0,6,6,6,1411.2036320579064,1413.2055462843855,left,0,3,1.2950103073671926,Q24R01,2022-12-01_14h41.04.745,t1_Paradigm,2021.1.4,60.03015772462957,
S,left,Distractor,0,7,7,7,1414.7036336619058,1416.7054400988563,None,0,3,,Q24R01,2022-12-01_14h41.04.745,t1_Paradigm,2021.1.4,60.03015772462957,
L,right,Target,0,8,8,8,1418.2032637770171,1420.2055645701184,right,1,3,1.2229286285873968,Q24R01,2022-12-01_14h41.04.745,t1_Paradigm,2021.1.4,60.03015772462957,
D,left,Distractor,0,9,9,9,1421.703597732063,1423.7027893106278,left,1,3,1.2456045292201452,Q24R01,2022-12-01_14h41.04.745,t1_Paradigm,2021.1.4,60.03015772462957,
G,left,Distractor,0,10,10,10,1425.2035881080083,1427.2056229560985,left,1,3,1.2149226898909546,Q24R01,2022-12-01_14h41.04.745,t1_Paradigm,2021.1.4,60.03015772462957,
M,left,Pretarget,0,11,11,11,1428.7036513060157,1430.7054474773176,left,1,3,1.1070725327299442,Q24R01,2022-12-01_14h41.04.745,t1_Paradigm,2021.1.4,60.03015772462957,
Y,left,Distractor,0,12,12,12,1432.2036686293432,1434.2053929409594,None,0,3,,Q24R01,2022-12-01_14h41.04.745,t1_Paradigm,2021.1.4,60.03015772462957,
V,left,Distractor,0,13,13,13,1435.703549290949,1437.7046037676337,None,0,3,,Q24R01,2022-12-01_14h41.04.745,t1_Paradigm,2021.1.4,60.03015772462957,
M,right,Target,0,14,14,14,1439.2037773812772,1441.205778545147,right,1,3,1.326677009346895,Q24R01,2022-12-01_14h41.04.745,t1_Paradigm,2021.1.4,60.03015772462957,
S,left,Pretarget,0,15,15,15,1442.7033760577615,1444.7052771313756,left,1,3,1.4431224187428597,Q24R01,2022-12-01_14h41.04.745,t1_Paradigm,2021.1.4,60.03015772462957,
Q,left,Distractor,0,16,16,16,1446.2035707846808,1448.2055575124687,left,1,3,1.3348273090086877,Q24R01,2022-12-01_14h41.04.745,t1_Paradigm,2021.1.4,60.03015772462957,
R,left,Pretarget,0,17,17,17,1449.7036275666615,1451.7056110864214,left,1,3,1.1789168179093394,Q24R01,2022-12-01_14h41.04.745,t1_Paradigm,2021.1.4,60.03015772462957,
S,right,Target,0,18,18,18,1453.2034979625896,1455.205779828364,None,0,3,,Q24R01,2022-12-01_14h41.04.745,t1_Paradigm,2021.1.4,60.03015772462957,
F,left,Distractor,0,19,19,19,1456.702800538711,1458.7055366603017,left,1,3,1.363003041857155,Q24R01,2022-12-01_14h41.04.745,t1_Paradigm,2021.1.4,60.03015772462957,
R,right,Target,0,20,20,20,1460.2032653810165,1462.2053489910613,None,0,3,,Q24R01,2022-12-01_14h41.04.745,t1_Paradigm,2021.1.4,60.03015772462957,
P,left,Distractor,0,21,21,21,1463.7036978223477,1465.7058366103447,left,1,3,1.4505082468676846,Q24R01,2022-12-01_14h41.04.745,t1_Paradigm,2021.1.4,60.03015772462957,
L,left,Distractor,0,22,22,22,1467.2035441581102,1469.205432078801,None,0,3,,Q24R01,2022-12-01_14h41.04.745,t1_Paradigm,2021.1.4,60.03015772462957,
R,right,Target,0,23,23,23,1470.7036727997765,1472.7051308455702,None,0,3,,Q24R01,2022-12-01_14h41.04.745,t1_Paradigm,2021.1.4,60.03015772462957,
H,left,Pretarget,0,24,24,24,1474.2031380225671,1476.205655357102,right,0,3,1.206972891552141,Q24R01,2022-12-01_14h41.04.745,t1_Paradigm,2021.1.4,60.03015772462957,
G,left,Pretarget,0,25,25,25,1477.7035743135202,1479.7057114974887,left,1,3,1.0186787057318725,Q24R01,2022-12-01_14h41.04.745,t1_Paradigm,2021.1.4,60.03015772462957,
T,left,Distractor,0,26,26,26,1481.2027100724808,1483.2056576027244,None,0,3,,Q24R01,2022-12-01_14h41.04.745,t1_Paradigm,2021.1.4,60.03015772462957,
H,right,Target,0,27,27,27,1484.7034953961847,1486.7039156469982,None,0,3,,Q24R01,2022-12-01_14h41.04.745,t1_Paradigm,2021.1.4,60.03015772462957,
G,right,Target,0,28,28,28,1488.203189030115,1490.2056624147517,left,0,3,1.3027297697262838,Q24R01,2022-12-01_14h41.04.745,t1_Paradigm,2021.1.4,60.03015772462957,
D,left,Distractor,0,29,29,29,1491.7026228143077,1493.7056011415552,left,1,3,0.6668334837886505,Q24R01,2022-12-01_14h41.04.745,t1_Paradigm,2021.1.4,60.03015772462957,
N,left,Pretarget,0,30,30,30,1495.2036336619058,1497.2056508658861,left,1,3,0.798711081064539,Q24R01,2022-12-01_14h41.04.745,t1_Paradigm,2021.1.4,60.03015772462957,
V,left,Distractor,0,31,31,31,1498.703442463826,1500.7054683294555,left,1,3,0.8989235804474447,Q24R01,2022-12-01_14h41.04.745,t1_Paradigm,2021.1.4,60.03015772462957,
R,left,Distractor,0,32,32,32,1502.2033131805365,1504.205732028844,None,0,3,,Q24R01,2022-12-01_14h41.04.745,t1_Paradigm,2021.1.4,60.03015772462957,
N,right,Target,0,33,33,33,1505.7036699125601,1507.7060335828573,right,1,3,1.2745646233379375,Q24R01,2022-12-01_14h41.04.745,t1_Paradigm,2021.1.4,60.03015772462957,
Z,left,Distractor,0,34,34,34,1509.2033077269152,1511.2052861138363,None,0,3,,Q24R01,2022-12-01_14h41.04.745,t1_Paradigm,2021.1.4,60.03015772462957,
N,left,Lure,0,35,35,35,1512.7034527294745,1514.7058523296437,None,0,3,,Q24R01,2022-12-01_14h41.04.745,t1_Paradigm,2021.1.4,60.03015772462957,
Y,left,Pretarget,0,36,36,36,1516.203440539015,1518.2163316529768,left,1,3,1.21209898928646,Q24R01,2022-12-01_14h41.04.745,t1_Paradigm,2021.1.4,60.03015772462957,
Y,left,Lure,0,37,37,37,1519.703595807252,1521.7033831154113,left,1,3,1.1652124704851303,Q24R01,2022-12-01_14h41.04.745,t1_Paradigm,2021.1.4,60.03015772462957,
B,left,Distractor,0,38,38,38,1523.203798875009,1525.2057939436345,left,1,3,1.2787661692418624,Q24R01,2022-12-01_14h41.04.745,t1_Paradigm,2021.1.4,60.03015772462957,
Y,right,Target,0,39,39,39,1526.7033109349431,1528.7049082088924,right,1,3,0.7555586994276382,Q24R01,2022-12-01_14h41.04.745,t1_Paradigm,2021.1.4,60.03015772462957,
J,left,Distractor,0,40,40,40,1530.2032528697455,1532.2062546155357,None,0,3,,Q24R01,2022-12-01_14h41.04.745,t1_Paradigm,2021.1.4,60.03015772462957,
X,left,Distractor,0,41,41,41,1533.7032631354232,1535.7054198883416,None,0,3,,Q24R01,2022-12-01_14h41.04.745,t1_Paradigm,2021.1.4,60.03015772462957,
W,left,Pretarget,0,42,42,42,1537.2034777520457,1539.20556296609,left,1,3,1.0389793871727306,Q24R01,2022-12-01_14h41.04.745,t1_Paradigm,2021.1.4,60.03015772462957,
S,left,Pretarget,0,43,43,43,1540.7036006192793,1542.7054086602584,left,1,3,1.3150306077150162,Q24R01,2022-12-01_14h41.04.745,t1_Paradigm,2021.1.4,60.03015772462957,
R,left,Distractor,0,44,44,44,1544.2033590552455,1546.2056155776372,left,1,3,1.3987865979142953,Q24R01,2022-12-01_14h41.04.745,t1_Paradigm,2021.1.4,60.03015772462957,
W,right,Target,0,45,45,45,1547.7036314162833,1549.7055312066805,right,1,3,1.3070301226980519,Q24R01,2022-12-01_14h41.04.745,t1_Paradigm,2021.1.4,60.03015772462957,
S,right,Target,0,46,46,46,1551.203470694396,1553.2038094614982,None,0,3,,Q24R01,2022-12-01_14h41.04.745,t1_Paradigm,2021.1.4,60.03015772462957,
D,left,Distractor,0,47,47,47,1554.7034139124153,1556.705388128903,left,1,3,1.2990193719451781,Q24R01,2022-12-01_14h41.04.745,t1_Paradigm,2021.1.4,60.03015772462957,
T,left,Distractor,0,48,48,48,1558.2034472758533,1560.2054445901013,None,0,3,,Q24R01,2022-12-01_14h41.04.745,t1_Paradigm,2021.1.4,60.03015772462957,
S,right,Target,0,49,49,49,1561.7035871456028,1563.7057390864647,None,0,3,,Q24R01,2022-12-01_14h41.04.745,t1_Paradigm,2021.1.4,60.03015772462957,
K,left,Distractor,0,50,50,50,1565.2037905341713,1567.205095878162,left,1,3,1.0873714305053,Q24R01,2022-12-01_14h41.04.745,t1_Paradigm,2021.1.4,60.03015772462957,
S,left,Lure,0,51,51,51,1568.7035358172434,1570.7055626452784,left,1,3,1.3149388583260588,Q24R01,2022-12-01_14h41.04.745,t1_Paradigm,2021.1.4,60.03015772462957,
T,left,Pretarget,0,52,52,52,1572.203623396228,1574.206278996513,right,0,3,1.3182142483710777,Q24R01,2022-12-01_14h41.04.745,t1_Paradigm,2021.1.4,60.03015772462957,
V,left,Distractor,0,53,53,53,1575.7034873761295,1577.7041155067564,None,0,3,,Q24R01,2022-12-01_14h41.04.745,t1_Paradigm,2021.1.4,60.03015772462957,
B,left,Distractor,0,54,54,54,1579.2027995763056,1581.2033609800856,None,0,3,,Q24R01,2022-12-01_14h41.04.745,t1_Paradigm,2021.1.4,60.03015772462957,
T,right,Target,0,55,55,55,1582.7033882482501,1584.7057204799494,right,1,3,1.0426342861901503,Q24R01,2022-12-01_14h41.04.745,t1_Paradigm,2021.1.4,60.03015772462957,
Y,left,Pretarget,0,56,56,56,1586.2033654713014,1588.206121803465,left,1,3,1.2384644355624914,Q24R01,2022-12-01_14h41.04.745,t1_Paradigm,2021.1.4,60.03015772462957,
T,left,Lure,0,57,57,57,1589.7036208298232,1591.7058812018367,left,1,3,1.4025736674084328,Q24R01,2022-12-01_14h41.04.745,t1_Paradigm,2021.1.4,60.03015772462957,
P,left,Pretarget,0,58,58,58,1593.203658042883,1595.2056450914533,left,1,3,1.2630051591258962,Q24R01,2022-12-01_14h41.04.745,t1_Paradigm,2021.1.4,60.03015772462957,
Y,right,Target,0,59,59,59,1596.7036025440902,1598.705871577782,right,1,3,0.8185924741264898,Q24R01,2022-12-01_14h41.04.745,t1_Paradigm,2021.1.4,60.03015772462957,
R,left,Distractor,0,60,60,60,1600.2035207395384,1602.2041617022478,left,1,3,1.1124302496027667,Q24R01,2022-12-01_14h41.04.745,t1_Paradigm,2021.1.4,60.03015772462957,
P,right,Target,0,61,61,61,1603.703442463826,1605.7051186551107,None,0,3,,Q24R01,2022-12-01_14h41.04.745,t1_Paradigm,2021.1.4,60.03015772462957,
L,left,Distractor,0,62,62,62,1607.203406533983,1609.2055039384868,left,1,3,0.7509243914100807,Q24R01,2022-12-01_14h41.04.745,t1_Paradigm,2021.1.4,60.03015772462957,
V,left,Distractor,0,63,63,63,1610.7033840778167,1612.7054461941007,left,1,3,1.1231161695031915,Q24R01,2022-12-01_14h41.04.745,t1_Paradigm,2021.1.4,60.03015772462957,
H,left,Lure,0,0,0,0,1639.3946851423243,1641.3883833047003,None,0,3,,Q24R01,2022-12-01_14h41.04.745,t1_Paradigm,2021.1.4,60.03015772462957,
B,left,Distractor,0,1,1,1,1642.8870385020273,1644.8871847878327,None,0,3,,Q24R01,2022-12-01_14h41.04.745,t1_Paradigm,2021.1.4,60.03015772462957,
T,left,Distractor,0,2,2,2,1646.3870048178069,1648.3883983824053,None,0,3,,Q24R01,2022-12-01_14h41.04.745,t1_Paradigm,2021.1.4,60.03015772462957,
R,left,Distractor,0,3,3,3,1649.8869797952357,1651.8889896207838,None,0,3,,Q24R01,2022-12-01_14h41.04.745,t1_Paradigm,2021.1.4,60.03015772462957,
H,left,Pretarget,0,4,4,4,1653.3869627927197,1655.3886697810085,right,0,3,1.3358490638784133,Q24R01,2022-12-01_14h41.04.745,t1_Paradigm,2021.1.4,60.03015772462957,
K,left,Distractor,0,5,5,5,1656.8868687977083,1658.8869034443342,left,1,3,1.3896158265706617,Q24R01,2022-12-01_14h41.04.745,t1_Paradigm,2021.1.4,60.03015772462957,
G,left,Distractor,0,6,6,6,1660.3869948729407,1662.3887756457261,left,1,3,1.1516800730023533,Q24R01,2022-12-01_14h41.04.745,t1_Paradigm,2021.1.4,60.03015772462957,
H,right,Target,0,7,7,7,1663.8870904719806,1665.8886899915524,right,1,3,0.9156691323441919,Q24R01,2022-12-01_14h41.04.745,t1_Paradigm,2021.1.4,60.03015772462957,
Y,left,Pretarget,0,8,8,8,1667.3868636648695,1669.3885863724572,left,1,3,0.8239460205368232,Q24R01,2022-12-01_14h41.04.745,t1_Paradigm,2021.1.4,60.03015772462957,
S,left,Distractor,0,9,9,9,1670.887028557161,1672.8890675757139,left,1,3,1.1635988356138114,Q24R01,2022-12-01_14h41.04.745,t1_Paradigm,2021.1.4,60.03015772462957,
P,left,Distractor,0,10,10,10,1674.3868501911638,1676.3866792036279,None,0,3,,Q24R01,2022-12-01_14h41.04.745,t1_Paradigm,2021.1.4,60.03015772462957,
Y,right,Target,0,11,11,11,1677.8870859807648,1679.8874940411188,None,0,3,,Q24R01,2022-12-01_14h41.04.745,t1_Paradigm,2021.1.4,60.03015772462957,
H,left,Lure,0,12,12,12,1681.386672145978,1683.3860921356827,None,0,3,,Q24R01,2022-12-01_14h41.04.745,t1_Paradigm,2021.1.4,60.03015772462957,
Q,left,Distractor,0,13,13,13,1684.8870388228388,1686.8880644273595,left,1,3,1.1003786748915445,Q24R01,2022-12-01_14h41.04.745,t1_Paradigm,2021.1.4,60.03015772462957,
V,left,Pretarget,0,14,14,14,1688.386770953046,1690.3892376008444,None,0,3,,Q24R01,2022-12-01_14h41.04.745,t1_Paradigm,2021.1.4,60.03015772462957,
G,left,Distractor,0,15,15,15,1691.8867982212105,1693.8884968686616,left,1,3,1.3801999624120072,Q24R01,2022-12-01_14h41.04.745,t1_Paradigm,2021.1.4,60.03015772462957,
Z,left,Pretarget,0,16,16,16,1695.3865903414262,1697.3884936606337,None,0,3,,Q24R01,2022-12-01_14h41.04.745,t1_Paradigm,2021.1.4,60.03015772462957,
V,right,Target,0,17,17,17,1698.886988456914,1700.888766984077,right,1,3,1.099698574282229,Q24R01,2022-12-01_14h41.04.745,t1_Paradigm,2021.1.4,60.03015772462957,
N,left,Distractor,0,18,18,18,1702.3869679255586,1704.3890338914644,left,1,3,1.1834863238909747,Q24R01,2022-12-01_14h41.04.745,t1_Paradigm,2021.1.4,60.03015772462957,
Z,right,Target,0,19,19,19,1705.8870279155672,1707.888792648242,None,0,3,,Q24R01,2022-12-01_14h41.04.745,t1_Paradigm,2021.1.4,60.03015772462957,
R,left,Distractor,0,20,20,20,1709.3869592639094,1711.3886794050923,None,0,3,,Q24R01,2022-12-01_14h41.04.745,t1_Paradigm,2021.1.4,60.03015772462957,
P,left,Distractor,0,21,21,21,1712.8869522062596,1714.8886120366224,None,0,3,,Q24R01,2022-12-01_14h41.04.745,t1_Paradigm,2021.1.4,60.03015772462957,
Z,right,Target,0,22,22,22,1716.3870109130512,1718.3886335303832,right,1,3,1.1998886174988002,Q24R01,2022-12-01_14h41.04.745,t1_Paradigm,2021.1.4,60.03015772462957,
D,left,Pretarget,0,23,23,23,1719.8868505119754,1721.8888058011362,left,1,3,0.7716834991588257,Q24R01,2022-12-01_14h41.04.745,t1_Paradigm,2021.1.4,60.03015772462957,
K,left,Distractor,0,24,24,24,1723.3872056399705,1725.3892096910567,None,0,3,,Q24R01,2022-12-01_14h41.04.745,t1_Paradigm,2021.1.4,60.03015772462957,
W,left,Distractor,0,25,25,25,1726.8870394644619,1728.8888590543065,None,0,3,,Q24R01,2022-12-01_14h41.04.745,t1_Paradigm,2021.1.4,60.03015772462957,
D,right,Target,0,26,26,26,1730.3870648078155,1732.3882103923243,left,0,3,1.344921669748146,Q24R01,2022-12-01_14h41.04.745,t1_Paradigm,2021.1.4,60.03015772462957,
G,left,Pretarget,0,27,27,27,1733.887114852958,1735.8882610790606,None,0,3,,Q24R01,2022-12-01_14h41.04.745,t1_Paradigm,2021.1.4,60.03015772462957,
V,left,Distractor,0,28,28,28,1737.3862156445102,1739.3883707934,left,1,3,1.2721432086545974,Q24R01,2022-12-01_14h41.04.745,t1_Paradigm,2021.1.4,60.03015772462957,
D,right,Target,0,29,29,29,1740.8867982212105,1742.888987695973,right,1,3,0.7956997112196404,Q24R01,2022-12-01_14h41.04.745,t1_Paradigm,2021.1.4,60.03015772462957,
G,right,Target,0,30,30,30,1744.3870134794852,1746.3889174402866,right,1,3,1.0077091967104934,Q24R01,2022-12-01_14h41.04.745,t1_Paradigm,2021.1.4,60.03015772462957,
B,left,Pretarget,0,31,31,31,1747.8869637551252,1749.8892921372026,left,1,3,1.0274102989060339,Q24R01,2022-12-01_14h41.04.745,t1_Paradigm,2021.1.4,60.03015772462957,
N,left,Distractor,0,32,32,32,1751.3867398352304,1753.3871835046157,None,0,3,,Q24R01,2022-12-01_14h41.04.745,t1_Paradigm,2021.1.4,60.03015772462957,
F,left,Distractor,0,33,33,33,1754.8869711335865,1756.889295666042,left,1,3,1.1475317802687641,Q24R01,2022-12-01_14h41.04.745,t1_Paradigm,2021.1.4,60.03015772462957,
B,right,Target,0,34,34,34,1758.387063203816,1760.3887448487221,right,1,3,0.8799378670519218,Q24R01,2022-12-01_14h41.04.745,t1_Paradigm,2021.1.4,60.03015772462957,
Q,left,Pretarget,0,35,35,35,1761.8868986323068,1763.886127744714,left,1,3,1.0465220875339583,Q24R01,2022-12-01_14h41.04.745,t1_Paradigm,2021.1.4,60.03015772462957,
S,left,Pretarget,0,36,36,36,1765.3870112338627,1767.3864283363218,None,0,3,,Q24R01,2022-12-01_14h41.04.745,t1_Paradigm,2021.1.4,60.03015772462957,
W,left,Distractor,0,37,37,37,1768.8868963866844,1770.8873692490743,left,1,3,1.1813443278660998,Q24R01,2022-12-01_14h41.04.745,t1_Paradigm,2021.1.4,60.03015772462957,
Q,right,Target,0,38,38,38,1772.3872178304591,1774.3886476456828,None,0,3,,Q24R01,2022-12-01_14h41.04.745,t1_Paradigm,2021.1.4,60.03015772462957,
S,right,Target,0,39,39,39,1775.8868829130079,1777.8894146836246,None,0,3,,Q24R01,2022-12-01_14h41.04.745,t1_Paradigm,2021.1.4,60.03015772462957,
T,left,Distractor,0,40,40,40,1779.387160086073,1781.3871735597495,None,0,3,,Q24R01,2022-12-01_14h41.04.745,t1_Paradigm,2021.1.4,60.03015772462957,
G,left,Distractor,0,41,41,41,1782.8866368577292,1784.888987695973,left,1,3,1.2756037015351467,Q24R01,2022-12-01_14h41.04.745,t1_Paradigm,2021.1.4,60.03015772462957,
D,left,Distractor,0,42,42,42,1786.3871177401743,1788.3886290391383,left,1,3,1.0720117439341266,Q24R01,2022-12-01_14h41.04.745,t1_Paradigm,2021.1.4,60.03015772462957,
S,left,Lure,0,43,43,43,1789.8869955145638,1791.887781800644,None,0,3,,Q24R01,2022-12-01_14h41.04.745,t1_Paradigm,2021.1.4,60.03015772462957,
Z,left,Pretarget,0,44,44,44,1793.3870930384146,1795.388986412756,left,1,3,1.3515231365745421,Q24R01,2022-12-01_14h41.04.745,t1_Paradigm,2021.1.4,60.03015772462957,
J,left,Distractor,0,45,45,45,1796.8866160055913,1798.8873897804006,None,0,3,,Q24R01,2022-12-01_14h41.04.745,t1_Paradigm,2021.1.4,60.03015772462957,
M,left,Pretarget,0,46,46,46,1800.3872187928646,1802.388968768646,None,0,3,,Q24R01,2022-12-01_14h41.04.745,t1_Paradigm,2021.1.4,60.03015772462957,
Z,right,Target,0,47,47,47,1803.886990381725,1805.8892757763097,right,1,3,1.187332100176718,Q24R01,2022-12-01_14h41.04.745,t1_Paradigm,2021.1.4,60.03015772462957,
P,left,Distractor,0,48,48,48,1807.3871687477222,1809.388152647938,left,1,3,1.1603831147949677,Q24R01,2022-12-01_14h41.04.745,t1_Paradigm,2021.1.4,60.03015772462957,
M,right,Target,0,49,49,49,1810.887016687484,1812.8870426724607,left,0,3,1.1816452402854338,Q24R01,2022-12-01_14h41.04.745,t1_Paradigm,2021.1.4,60.03015772462957,
K,left,Distractor,0,50,50,50,1814.3867417600413,1816.388013099,left,1,3,1.0885506992635783,Q24R01,2022-12-01_14h41.04.745,t1_Paradigm,2021.1.4,60.03015772462957,
Y,left,Distractor,0,51,51,51,1817.8872521562735,1819.8888824728492,left,1,3,1.1075768337177578,Q24R01,2022-12-01_14h41.04.745,t1_Paradigm,2021.1.4,60.03015772462957,
X,left,Distractor,0,52,52,52,1821.3866317248903,1823.3886941619858,None,0,3,,Q24R01,2022-12-01_14h41.04.745,t1_Paradigm,2021.1.4,60.03015772462957,
F,left,Pretarget,0,53,53,53,1824.8870850183594,1826.8865040456294,None,0,3,,Q24R01,2022-12-01_14h41.04.745,t1_Paradigm,2021.1.4,60.03015772462957,
M,left,Lure,0,54,54,54,1828.386936807743,1830.3890573100362,None,0,3,,Q24R01,2022-12-01_14h41.04.745,t1_Paradigm,2021.1.4,60.03015772462957,
V,left,Distractor,0,55,55,55,1831.887021178729,1833.8893030444742,None,0,3,,Q24R01,2022-12-01_14h41.04.745,t1_Paradigm,2021.1.4,60.03015772462957,
F,right,Target,0,56,56,56,1835.387096567225,1837.3884330290311,right,1,3,1.0963112243043724,Q24R01,2022-12-01_14h41.04.745,t1_Paradigm,2021.1.4,60.03015772462957,
S,left,Distractor,0,57,57,57,1838.8870202163234,1840.8888324277068,None,0,3,,Q24R01,2022-12-01_14h41.04.745,t1_Paradigm,2021.1.4,60.03015772462957,
D,left,Distractor,0,58,58,58,1842.3870859807648,1844.3885388937488,left,1,3,1.1040088720910717,Q24R01,2022-12-01_14h41.04.745,t1_Paradigm,2021.1.4,60.03015772462957,
F,right,Target,0,59,59,59,1845.8870051386184,1847.8888818312553,None,0,3,,Q24R01,2022-12-01_14h41.04.745,t1_Paradigm,2021.1.4,60.03015772462957,
V,left,Pretarget,0,60,60,60,1849.3871873542375,1851.3878828533343,None,0,3,,Q24R01,2022-12-01_14h41.04.745,t1_Paradigm,2021.1.4,60.03015772462957,
J,left,Distractor,0,61,61,61,1852.8871549532341,1854.8884259713814,left,1,3,1.1962975581118371,Q24R01,2022-12-01_14h41.04.745,t1_Paradigm,2021.1.4,60.03015772462957,
V,left,Lure,0,62,62,62,1856.3868806673854,1858.388450673141,right,0,3,0.8321784455620218,Q24R01,2022-12-01_14h41.04.745,t1_Paradigm,2021.1.4,60.03015772462957,
V,right,Target,0,63,63,63,1859.8869525270711,1861.88717195575,left,0,3,0.9172163611801807,Q24R01,2022-12-01_14h41.04.745,t1_Paradigm,2021.1.4,60.03015772462957,
R,left,Distractor,0,0,0,0,1936.7348393711727,1938.738746420655,left,1,4,1.4099193952570204,Q24R01,2022-12-01_14h41.04.745,t1_Paradigm,2021.1.4,60.03015772462957,
F,left,Distractor,0,1,1,1,1940.237059001287,1942.2392459096154,left,1,4,0.565169033856364,Q24R01,2022-12-01_14h41.04.745,t1_Paradigm,2021.1.4,60.03015772462957,
P,left,Pretarget,0,2,2,2,1943.7371035928081,1945.738383593416,left,1,4,0.5702832618844695,Q24R01,2022-12-01_14h41.04.745,t1_Paradigm,2021.1.4,60.03015772462957,
H,left,Distractor,0,3,3,3,1947.2367128557817,1949.238946922007,None,0,4,,Q24R01,2022-12-01_14h41.04.745,t1_Paradigm,2021.1.4,60.03015772462957,
Z,left,Distractor,0,4,4,4,1950.7372793923714,1952.738730701356,left,1,4,1.0257677918707486,Q24R01,2022-12-01_14h41.04.745,t1_Paradigm,2021.1.4,60.03015772462957,
T,left,Distractor,0,5,5,5,1954.2371051968075,1956.2387079244072,None,0,4,,Q24R01,2022-12-01_14h41.04.745,t1_Paradigm,2021.1.4,60.03015772462957,
P,right,Target,0,6,6,6,1957.737152675516,1959.7378998237546,right,1,4,0.9226436921162531,Q24R01,2022-12-01_14h41.04.745,t1_Paradigm,2021.1.4,60.03015772462957,
G,left,Distractor,0,7,7,7,1961.2367215174309,1963.2387768968765,left,1,4,0.8460217003303114,Q24R01,2022-12-01_14h41.04.745,t1_Paradigm,2021.1.4,60.03015772462957,
L,left,Distractor,0,8,8,8,1964.7370824198588,1966.7390893581614,left,1,4,1.0254668794223107,Q24R01,2022-12-01_14h41.04.745,t1_Paradigm,2021.1.4,60.03015772462957,
P,left,Lure,0,9,9,9,1968.2371359938115,1970.238354079629,None,0,4,,Q24R01,2022-12-01_14h41.04.745,t1_Paradigm,2021.1.4,60.03015772462957,
Q,left,Pretarget,0,10,10,10,1971.737106159213,1973.7393212981406,left,1,4,1.0172007701767143,Q24R01,2022-12-01_14h41.04.745,t1_Paradigm,2021.1.4,60.03015772462957,
D,left,Distractor,0,11,11,11,1975.2371266905684,1977.2390396338305,left,1,4,1.1655345558538102,Q24R01,2022-12-01_14h41.04.745,t1_Paradigm,2021.1.4,60.03015772462957,
M,left,Pretarget,0,12,12,12,1978.7372566154227,1980.736888655345,left,1,4,1.2837941014731769,Q24R01,2022-12-01_14h41.04.745,t1_Paradigm,2021.1.4,60.03015772462957,
C,left,Distractor,0,13,13,13,1982.237197908631,1984.2387380797882,None,0,4,,Q24R01,2022-12-01_14h41.04.745,t1_Paradigm,2021.1.4,60.03015772462957,
Q,right,Target,0,14,14,14,1985.7369079034834,1987.7379732874397,right,1,4,1.0825526612752583,Q24R01,2022-12-01_14h41.04.745,t1_Paradigm,2021.1.4,60.03015772462957,
R,left,Distractor,0,15,15,15,1989.2537108789838,1991.2385157638928,None,0,4,,Q24R01,2022-12-01_14h41.04.745,t1_Paradigm,2021.1.4,60.03015772462957,
M,right,Target,0,16,16,16,1992.7371234825405,1994.7391111727047,None,0,4,,Q24R01,2022-12-01_14h41.04.745,t1_Paradigm,2021.1.4,60.03015772462957,
S,left,Distractor,0,17,17,17,1996.237245708151,1998.239292105136,left,1,4,1.3493115264864173,Q24R01,2022-12-01_14h41.04.745,t1_Paradigm,2021.1.4,60.03015772462957,
Z,left,Distractor,0,18,18,18,1999.7371655076277,2001.7387162652449,None,0,4,,Q24R01,2022-12-01_14h41.04.745,t1_Paradigm,2021.1.4,60.03015772462957,
L,left,Pretarget,0,19,19,19,2003.2368787104788,2005.2393206565175,None,0,4,,Q24R01,2022-12-01_14h41.04.745,t1_Paradigm,2021.1.4,60.03015772462957,
M,right,Target,0,20,20,20,2006.7370811366418,2008.7374997834559,None,0,4,,Q24R01,2022-12-01_14h41.04.745,t1_Paradigm,2021.1.4,60.03015772462957,
P,left,Distractor,0,21,21,21,2010.2371141792682,2012.238930561085,None,0,4,,Q24R01,2022-12-01_14h41.04.745,t1_Paradigm,2021.1.4,60.03015772462957,
F,left,Distractor,0,22,22,22,2013.7368588207464,2015.7384349217464,left,1,4,1.338228774286108,Q24R01,2022-12-01_14h41.04.745,t1_Paradigm,2021.1.4,60.03015772462957,
L,right,Target,0,23,23,23,2017.2367728457612,2019.2395250074915,None,0,4,,Q24R01,2022-12-01_14h41.04.745,t1_Paradigm,2021.1.4,60.03015772462957,
L,left,Lure,0,24,24,24,2020.7369826503855,2022.7372976781044,None,0,4,,Q24R01,2022-12-01_14h41.04.745,t1_Paradigm,2021.1.4,60.03015772462957,
V,left,Pretarget,0,25,25,25,2024.2368248157145,2026.2389334483305,None,0,4,,Q24R01,2022-12-01_14h41.04.745,t1_Paradigm,2021.1.4,60.03015772462957,
Z,left,Distractor,0,26,26,26,2027.7372046454693,2029.738946922007,None,0,4,,Q24R01,2022-12-01_14h41.04.745,t1_Paradigm,2021.1.4,60.03015772462957,
H,left,Distractor,0,27,27,27,2031.2368700488296,2033.2389706613612,left,1,4,0.7816784112364985,Q24R01,2022-12-01_14h41.04.745,t1_Paradigm,2021.1.4,60.03015772462957,
X,left,Distractor,0,28,28,28,2034.7371003847802,2036.7383967463102,None,0,4,,Q24R01,2022-12-01_14h41.04.745,t1_Paradigm,2021.1.4,60.03015772462957,
V,right,Target,0,29,29,29,2038.2372222896083,2040.2391685963084,right,1,4,1.0776010799454525,Q24R01,2022-12-01_14h41.04.745,t1_Paradigm,2021.1.4,60.03015772462957,
C,left,Distractor,0,30,30,30,2041.7368809561012,2043.739088395756,left,1,4,0.8736511071037967,Q24R01,2022-12-01_14h41.04.745,t1_Paradigm,2021.1.4,60.03015772462957,
S,left,Pretarget,0,31,31,31,2045.2371571667609,2047.238478550862,left,1,4,1.1182598664308898,Q24R01,2022-12-01_14h41.04.745,t1_Paradigm,2021.1.4,60.03015772462957,
D,left,Distractor,0,32,32,32,2048.737033337122,2050.7391384408984,None,0,4,,Q24R01,2022-12-01_14h41.04.745,t1_Paradigm,2021.1.4,60.03015772462957,
V,left,Distractor,0,33,33,33,2052.2362714319897,2054.2391143807326,right,0,4,1.3655803663714323,Q24R01,2022-12-01_14h41.04.745,t1_Paradigm,2021.1.4,60.03015772462957,
R,left,Distractor,0,34,34,34,2055.7371850765485,2057.737400334794,left,1,4,0.7154231412569061,Q24R01,2022-12-01_14h41.04.745,t1_Paradigm,2021.1.4,60.03015772462957,
S,right,Target,0,35,35,35,2059.236791131494,2061.239043162641,None,0,4,,Q24R01,2022-12-01_14h41.04.745,t1_Paradigm,2021.1.4,60.03015772462957,
Y,left,Distractor,0,36,36,36,2062.7370914023195,2064.7388792327547,left,1,4,1.23371752598905,Q24R01,2022-12-01_14h41.04.745,t1_Paradigm,2021.1.4,60.03015772462957,
N,left,Pretarget,0,37,37,37,2066.236778620223,2068.238851964561,left,1,4,0.8698200877406634,Q24R01,2022-12-01_14h41.04.745,t1_Paradigm,2021.1.4,60.03015772462957,
Z,left,Pretarget,0,38,38,38,2069.737093647942,2071.73906080678,None,0,4,,Q24R01,2022-12-01_14h41.04.745,t1_Paradigm,2021.1.4,60.03015772462957,
P,left,Pretarget,0,39,39,39,2073.2362502590695,2075.239320335735,left,1,4,1.2775057375547476,Q24R01,2022-12-01_14h41.04.745,t1_Paradigm,2021.1.4,60.03015772462957,
M,left,Distractor,0,40,40,40,2076.737089156697,2078.7388352828566,None,0,4,,Q24R01,2022-12-01_14h41.04.745,t1_Paradigm,2021.1.4,60.03015772462957,
N,right,Target,0,41,41,41,2080.2368280237424,2082.249969042605,left,0,4,1.338665386021603,Q24R01,2022-12-01_14h41.04.745,t1_Paradigm,2021.1.4,60.03015772462957,
Z,right,Target,0,42,42,42,2083.737065417343,2085.7391275336267,None,0,4,,Q24R01,2022-12-01_14h41.04.745,t1_Paradigm,2021.1.4,60.03015772462957,
P,right,Target,0,43,43,43,2087.23709493113,2089.23796815463,right,1,4,1.0387484096281696,Q24R01,2022-12-01_14h41.04.745,t1_Paradigm,2021.1.4,60.03015772462957,
X,left,Pretarget,0,44,44,44,2090.736257958313,2092.7393036540016,left,1,4,1.0573254210758023,Q24R01,2022-12-01_14h41.04.745,t1_Paradigm,2021.1.4,60.03015772462957,
Z,left,Lure,0,45,45,45,2094.2371279737563,2096.239188806823,right,0,4,1.3979922917496879,Q24R01,2022-12-01_14h41.04.745,t1_Paradigm,2021.1.4,60.03015772462957,
R,left,Pretarget,0,46,46,46,2097.73717833971,2099.739146781765,left,1,4,1.2577010162349325,Q24R01,2022-12-01_14h41.04.745,t1_Paradigm,2021.1.4,60.03015772462957,
K,left,Distractor,0,47,47,47,2101.2371988710365,2103.2391974685015,left,1,4,0.9896368070330936,Q24R01,2022-12-01_14h41.04.745,t1_Paradigm,2021.1.4,60.03015772462957,
X,right,Target,0,48,48,48,2104.7372139487416,2106.7383197537856,right,1,4,1.250337644276442,Q24R01,2022-12-01_14h41.04.745,t1_Paradigm,2021.1.4,60.03015772462957,
B,left,Distractor,0,49,49,49,2108.2371517131105,2110.239224095072,left,1,4,1.1896139659220353,Q24R01,2022-12-01_14h41.04.745,t1_Paradigm,2021.1.4,60.03015772462957,
R,right,Target,0,50,50,50,2111.7371177081077,2113.7381898289023,None,0,4,,Q24R01,2022-12-01_14h41.04.745,t1_Paradigm,2021.1.4,60.03015772462957,
Y,left,Pretarget,0,51,51,51,2115.2372094575258,2117.239130420843,None,0,4,,Q24R01,2022-12-01_14h41.04.745,t1_Paradigm,2021.1.4,60.03015772462957,
W,left,Pretarget,0,52,52,52,2118.7370185802283,2120.7389748317946,left,1,4,1.1539122144167777,Q24R01,2022-12-01_14h41.04.745,t1_Paradigm,2021.1.4,60.03015772462957,
Z,left,Distractor,0,53,53,53,2122.237074078992,2124.238863192644,None,0,4,,Q24R01,2022-12-01_14h41.04.745,t1_Paradigm,2021.1.4,60.03015772462957,
Q,left,Distractor,0,54,54,54,2125.737136314623,2127.7391528769804,None,0,4,,Q24R01,2022-12-01_14h41.04.745,t1_Paradigm,2021.1.4,60.03015772462957,
Y,right,Target,0,55,55,55,2129.237277788372,2131.2388019194186,right,1,4,1.3420158437802456,Q24R01,2022-12-01_14h41.04.745,t1_Paradigm,2021.1.4,60.03015772462957,
W,right,Target,0,56,56,56,2132.7372258184187,2134.7386761649977,left,0,4,0.7860551150806714,Q24R01,2022-12-01_14h41.04.745,t1_Paradigm,2021.1.4,60.03015772462957,
H,left,Pretarget,0,57,57,57,2136.2370391115546,2138.2391471025476,None,0,4,,Q24R01,2022-12-01_14h41.04.745,t1_Paradigm,2021.1.4,60.03015772462957,
M,left,Distractor,0,58,58,58,2139.73714465549,2141.738885969593,right,0,4,1.2579611868131906,Q24R01,2022-12-01_14h41.04.745,t1_Paradigm,2021.1.4,60.03015772462957,
R,left,Pretarget,0,59,59,59,2143.237161978788,2145.239338621439,left,1,4,0.7652770800341386,Q24R01,2022-12-01_14h41.04.745,t1_Paradigm,2021.1.4,60.03015772462957,
J,left,Distractor,0,60,60,60,2146.7372710515338,2148.7380412975035,left,1,4,0.7387614983599633,Q24R01,2022-12-01_14h41.04.745,t1_Paradigm,2021.1.4,60.03015772462957,
H,right,Target,0,61,61,61,2150.2371594123833,2152.2389706613612,right,1,4,0.8857642758521251,Q24R01,2022-12-01_14h41.04.745,t1_Paradigm,2021.1.4,60.03015772462957,
Z,left,Distractor,0,62,62,62,2153.7372380089073,2155.73786549794,left,1,4,0.6828456819639541,Q24R01,2022-12-01_14h41.04.745,t1_Paradigm,2021.1.4,60.03015772462957,
R,right,Target,0,63,63,63,2157.236254429474,2159.2372052870924,left,0,4,0.7194982910878025,Q24R01,2022-12-01_14h41.04.745,t1_Paradigm,2021.1.4,60.03015772462957,
J,left,Pretarget,0,0,0,0,2181.2990306000283,2183.289178765728,None,0,4,,Q24R01,2022-12-01_14h41.04.745,t1_Paradigm,2021.1.4,60.03015772462957,
G,left,Pretarget,0,1,1,1,2184.787147125666,2186.788512459636,None,0,4,,Q24R01,2022-12-01_14h41.04.745,t1_Paradigm,2021.1.4,60.03015772462957,
Z,left,Distractor,0,2,2,2,2188.286322022497,2190.2891251917754,None,0,4,,Q24R01,2022-12-01_14h41.04.745,t1_Paradigm,2021.1.4,60.03015772462957,
F,left,Distractor,0,3,3,3,2191.7872603688156,2193.788862775604,None,0,4,,Q24R01,2022-12-01_14h41.04.745,t1_Paradigm,2021.1.4,60.03015772462957,
J,right,Target,0,4,4,4,2195.287012388755,2197.2883668154536,left,0,4,0.6044291229336523,Q24R01,2022-12-01_14h41.04.745,t1_Paradigm,2021.1.4,60.03015772462957,
G,right,Target,0,5,5,5,2198.787003085483,2200.789232981304,None,0,4,,Q24R01,2022-12-01_14h41.04.745,t1_Paradigm,2021.1.4,60.03015772462957,
H,left,Distractor,0,6,6,6,2202.2871304439323,2204.2893475076708,None,0,4,,Q24R01,2022-12-01_14h41.04.745,t1_Paradigm,2021.1.4,60.03015772462957,
P,left,Distractor,0,7,7,7,2205.7869405290694,2207.789340450021,None,0,4,,Q24R01,2022-12-01_14h41.04.745,t1_Paradigm,2021.1.4,60.03015772462957,
G,left,Lure,0,8,8,8,2209.2871561081265,2211.2888252417615,left,1,4,1.3560512590629514,Q24R01,2022-12-01_14h41.04.745,t1_Paradigm,2021.1.4,60.03015772462957,
S,left,Distractor,0,9,9,9,2212.7871496920707,2214.788964469888,left,1,4,1.0238497157406528,Q24R01,2022-12-01_14h41.04.745,t1_Paradigm,2021.1.4,60.03015772462957,
R,left,Pretarget,0,10,10,10,2216.28718850913,2218.288672219118,left,1,4,1.2041257724049501,Q24R01,2022-12-01_14h41.04.745,t1_Paradigm,2021.1.4,60.03015772462957,
T,left,Pretarget,0,11,11,11,2219.7873322285013,2221.7897449815355,None,0,4,,Q24R01,2022-12-01_14h41.04.745,t1_Paradigm,2021.1.4,60.03015772462957,
X,left,Distractor,0,12,12,12,2223.287139426393,2225.289005211758,left,1,4,1.1639090513053816,Q24R01,2022-12-01_14h41.04.745,t1_Paradigm,2021.1.4,60.03015772462957,
F,left,Pretarget,0,13,13,13,2226.7871509752877,2228.7891659336456,None,0,4,,Q24R01,2022-12-01_14h41.04.745,t1_Paradigm,2021.1.4,60.03015772462957,
R,right,Target,0,14,14,14,2230.287061471463,2232.2887844998622,None,0,4,,Q24R01,2022-12-01_14h41.04.745,t1_Paradigm,2021.1.4,60.03015772462957,
T,right,Target,0,15,15,15,2233.787310413958,2235.788431938301,right,1,4,1.2084209925087634,Q24R01,2022-12-01_14h41.04.745,t1_Paradigm,2021.1.4,60.03015772462957,
C,left,Distractor,0,16,16,16,2237.2870021230774,2239.2892535126302,left,1,4,1.0834608521836344,Q24R01,2022-12-01_14h41.04.745,t1_Paradigm,2021.1.4,60.03015772462957,
F,right,Target,0,17,17,17,2240.7863576315285,2242.7892666655243,left,0,4,1.1834962687280495,Q24R01,2022-12-01_14h41.04.745,t1_Paradigm,2021.1.4,60.03015772462957,
M,left,Distractor,0,18,18,18,2244.2873447397724,2246.288830053789,left,1,4,0.9641211657144595,Q24R01,2022-12-01_14h41.04.745,t1_Paradigm,2021.1.4,60.03015772462957,
N,left,Distractor,0,19,19,19,2247.787835246272,2249.7891306453967,None,0,4,,Q24R01,2022-12-01_14h41.04.745,t1_Paradigm,2021.1.4,60.03015772462957,
R,left,Lure,0,20,20,20,2251.2870698123297,2253.2886654822796,None,0,4,,Q24R01,2022-12-01_14h41.04.745,t1_Paradigm,2021.1.4,60.03015772462957,
F,right,Target,0,21,21,21,2254.787345702178,2256.7873258124455,None,0,4,,Q24R01,2022-12-01_14h41.04.745,t1_Paradigm,2021.1.4,60.03015772462957,
P,left,Distractor,0,22,22,22,2258.2870704539237,2260.2893783046748,left,1,4,0.9636595313786529,Q24R01,2022-12-01_14h41.04.745,t1_Paradigm,2021.1.4,60.03015772462957,
L,left,Pretarget,0,23,23,23,2261.7873992761597,2263.7881130609603,left,1,4,1.1766763356572483,Q24R01,2022-12-01_14h41.04.745,t1_Paradigm,2021.1.4,60.03015772462957,
T,left,Distractor,0,24,24,24,2265.2871926795633,2267.288891006203,right,0,4,0.8758874189807102,Q24R01,2022-12-01_14h41.04.745,t1_Paradigm,2021.1.4,60.03015772462957,
F,left,Distractor,0,25,25,25,2268.78717792267,2270.7891024148266,right,0,4,1.2156589308287948,Q24R01,2022-12-01_14h41.04.745,t1_Paradigm,2021.1.4,60.03015772462957,
V,left,Distractor,0,26,26,26,2272.286957852368,2274.2887113569886,left,1,4,0.9486094188760035,Q24R01,2022-12-01_14h41.04.745,t1_Paradigm,2021.1.4,60.03015772462957,
L,right,Target,0,27,27,27,2275.787062113086,2277.789045632846,None,0,4,,Q24R01,2022-12-01_14h41.04.745,t1_Paradigm,2021.1.4,60.03015772462957,
S,left,Pretarget,0,28,28,28,2279.2869158273097,2281.2896134526527,None,0,4,,Q24R01,2022-12-01_14h41.04.745,t1_Paradigm,2021.1.4,60.03015772462957,
W,left,Distractor,0,29,29,29,2282.786401902238,2284.789272439957,left,1,4,0.9117534211836755,Q24R01,2022-12-01_14h41.04.745,t1_Paradigm,2021.1.4,60.03015772462957,
Q,left,Distractor,0,30,30,30,2286.2870820028184,2288.2898065755435,left,1,4,0.8349283616698813,Q24R01,2022-12-01_14h41.04.745,t1_Paradigm,2021.1.4,60.03015772462957,
L,right,Target,0,31,31,31,2289.7872565191938,2291.7886064546765,None,0,4,,Q24R01,2022-12-01_14h41.04.745,t1_Paradigm,2021.1.4,60.03015772462957,
S,right,Target,0,32,32,32,2293.287081682007,2295.288743757992,right,1,4,0.828136338328477,Q24R01,2022-12-01_14h41.04.745,t1_Paradigm,2021.1.4,60.03015772462957,
Z,left,Pretarget,0,33,33,33,2296.7871869051305,2298.7892069963273,left,1,4,1.1995633240730967,Q24R01,2022-12-01_14h41.04.745,t1_Paradigm,2021.1.4,60.03015772462957,
F,left,Distractor,0,34,34,34,2300.2869610603957,2302.288965111482,left,1,4,1.0597333620826248,Q24R01,2022-12-01_14h41.04.745,t1_Paradigm,2021.1.4,60.03015772462957,
V,left,Distractor,0,35,35,35,2303.7868324187293,2305.789115888503,left,1,4,1.1756860193563625,Q24R01,2022-12-01_14h41.04.745,t1_Paradigm,2021.1.4,60.03015772462957,
M,left,Distractor,0,36,36,36,2307.2872635768435,2309.2890603897395,None,0,4,,Q24R01,2022-12-01_14h41.04.745,t1_Paradigm,2021.1.4,60.03015772462957,
Z,right,Target,0,37,37,37,2310.787338002934,2312.788954525022,right,1,4,1.23196594620822,Q24R01,2022-12-01_14h41.04.745,t1_Paradigm,2021.1.4,60.03015772462957,
H,left,Pretarget,0,38,38,38,2314.2871221030946,2316.2892884800676,None,0,4,,Q24R01,2022-12-01_14h41.04.745,t1_Paradigm,2021.1.4,60.03015772462957,
L,left,Distractor,0,39,39,39,2317.787226684595,2319.7885041187983,None,0,4,,Q24R01,2022-12-01_14h41.04.745,t1_Paradigm,2021.1.4,60.03015772462957,
G,left,Distractor,0,40,40,40,2321.2872873161978,2323.289284951228,left,1,4,1.291719518834725,Q24R01,2022-12-01_14h41.04.745,t1_Paradigm,2021.1.4,60.03015772462957,
K,left,Distractor,0,41,41,41,2324.787150012882,2326.7898720192024,None,0,4,,Q24R01,2022-12-01_14h41.04.745,t1_Paradigm,2021.1.4,60.03015772462957,
H,right,Target,0,42,42,42,2328.2871811306686,2330.288944259344,left,0,4,1.2198909529251978,Q24R01,2022-12-01_14h41.04.745,t1_Paradigm,2021.1.4,60.03015772462957,
B,left,Distractor,0,43,43,43,2331.7872629352205,2333.789012911002,left,1,4,0.839867431728635,Q24R01,2022-12-01_14h41.04.745,t1_Paradigm,2021.1.4,60.03015772462957,
Z,left,Distractor,0,44,44,44,2335.286933792202,2337.2863816916943,left,1,4,1.2464713366643991,Q24R01,2022-12-01_14h41.04.745,t1_Paradigm,2021.1.4,60.03015772462957,
T,left,Pretarget,0,45,45,45,2338.7870832860353,2340.789206033922,left,1,4,0.9276940804847982,Q24R01,2022-12-01_14h41.04.745,t1_Paradigm,2021.1.4,60.03015772462957,
H,right,Target,0,46,46,46,2342.287275767332,2344.288829412166,right,1,4,0.6923436714860145,Q24R01,2022-12-01_14h41.04.745,t1_Paradigm,2021.1.4,60.03015772462957,
F,left,Distractor,0,47,47,47,2345.7869851205614,2347.788509893231,left,1,4,1.192670889722649,Q24R01,2022-12-01_14h41.04.745,t1_Paradigm,2021.1.4,60.03015772462957,
R,left,Distractor,0,48,48,48,2349.2869793461286,2351.289294575312,left,1,4,1.1154945518064778,Q24R01,2022-12-01_14h41.04.745,t1_Paradigm,2021.1.4,60.03015772462957,
T,right,Target,0,49,49,49,2352.787243687111,2354.789043066412,right,1,4,1.3438687970628962,Q24R01,2022-12-01_14h41.04.745,t1_Paradigm,2021.1.4,60.03015772462957,
H,right,Target,0,50,50,50,2356.2871022133622,2358.288887156552,left,0,4,1.092105187184643,Q24R01,2022-12-01_14h41.04.745,t1_Paradigm,2021.1.4,60.03015772462957,
Y,left,Pretarget,0,51,51,51,2359.787031957676,2361.789141231886,left,1,4,0.7920403209864162,Q24R01,2022-12-01_14h41.04.745,t1_Paradigm,2021.1.4,60.03015772462957,
H,left,Distractor,0,52,52,52,2363.287182093074,2365.288996550109,left,1,4,1.2920441706082784,Q24R01,2022-12-01_14h41.04.745,t1_Paradigm,2021.1.4,60.03015772462957,
S,left,Distractor,0,53,53,53,2366.786374313262,2368.7894116680836,left,1,4,0.911580508807674,Q24R01,2022-12-01_14h41.04.745,t1_Paradigm,2021.1.4,60.03015772462957,
Q,left,Distractor,0,54,54,54,2370.2872635768435,2372.2889327104785,left,1,4,1.0440689134411514,Q24R01,2022-12-01_14h41.04.745,t1_Paradigm,2021.1.4,60.03015772462957,
Y,right,Target,0,55,55,55,2373.7868789350614,2375.789085091499,None,0,4,,Q24R01,2022-12-01_14h41.04.745,t1_Paradigm,2021.1.4,60.03015772462957,
R,left,Distractor,0,56,56,56,2377.2872844289814,2379.289297141717,None,0,4,,Q24R01,2022-12-01_14h41.04.745,t1_Paradigm,2021.1.4,60.03015772462957,
H,left,Pretarget,0,57,57,57,2380.787195245968,2382.7891502143466,None,0,4,,Q24R01,2022-12-01_14h41.04.745,t1_Paradigm,2021.1.4,60.03015772462957,
J,left,Distractor,0,58,58,58,2384.287016238377,2386.289264419902,left,1,4,0.8516498534299899,Q24R01,2022-12-01_14h41.04.745,t1_Paradigm,2021.1.4,60.03015772462957,
V,left,Distractor,0,59,59,59,2387.7870531306253,2389.7888082392456,left,1,4,0.9518604279437568,Q24R01,2022-12-01_14h41.04.745,t1_Paradigm,2021.1.4,60.03015772462957,
Y,left,Lure,0,60,60,60,2391.2872792961425,2393.288788991107,None,0,4,,Q24R01,2022-12-01_14h41.04.745,t1_Paradigm,2021.1.4,60.03015772462957,
H,right,Target,0,61,61,61,2394.787258123193,2396.788279878063,None,0,4,,Q24R01,2022-12-01_14h41.04.745,t1_Paradigm,2021.1.4,60.03015772462957,
L,left,Distractor,0,62,62,62,2398.2872314966226,2400.289093432366,None,0,4,,Q24R01,2022-12-01_14h41.04.745,t1_Paradigm,2021.1.4,60.03015772462957,
P,left,Distractor,0,63,63,63,2401.7873630255053,2403.788499948365,left,1,4,1.3044611389923375,Q24R01,2022-12-01_14h41.04.745,t1_Paradigm,2021.1.4,60.03015772462957,
