Letter,CorrAnswer,Stimulus,finaln_nback_run.thisRepN,finaln_nback_run.thisTrialN,finaln_nback_run.thisN,finaln_nback_run.thisIndex,finaln_fixcross.started,finaln_nback_trial.started,finaln_trial_resp.keys,finaln_trial_resp.corr,finaln_level,finaln_money,finaln_trial_resp.rt,Participant,date,expName,psychopyVersion,frameRate,
F,left,Distractor,0,0,0,0,2667.7361652464897,2669.7385378992476,None,0,1,1.29,,Q24R01,2022-12-01_14h41.04.745,t1_Paradigm,2021.1.4,60.03015772462957,
T,left,Pretarget,0,1,1,1,2671.2372505201783,2673.2389395435457,left,1,1,1.29,0.9420493355428334,Q24R01,2022-12-01_14h41.04.745,t1_Paradigm,2021.1.4,60.03015772462957,
B,left,Distractor,0,2,2,2,2674.736478028586,2676.739055673941,left,1,1,1.29,0.9940982026746497,Q24R01,2022-12-01_14h41.04.745,t1_Paradigm,2021.1.4,60.03015772462957,
T,right,Target,0,3,3,3,2678.237189888576,2680.238531483221,right,1,1,1.29,0.726439166610362,Q24R01,2022-12-01_14h41.04.745,t1_Paradigm,2021.1.4,60.03015772462957,
Z,left,Distractor,0,4,4,4,2681.7374542295584,2683.7386944507016,left,1,1,1.29,0.8102371818677057,Q24R01,2022-12-01_14h41.04.745,t1_Paradigm,2021.1.4,60.03015772462957,
T,right,Target,0,5,5,5,2685.23724378334,2687.2386912426737,right,1,1,1.29,1.134255382901756,Q24R01,2022-12-01_14h41.04.745,t1_Paradigm,2021.1.4,60.03015772462957,
L,left,Distractor,0,6,6,6,2688.7372838836163,2690.7366134070908,left,1,1,1.29,1.3005589015083387,Q24R01,2022-12-01_14h41.04.745,t1_Paradigm,2021.1.4,60.03015772462957,
T,right,Target,0,7,7,7,2692.2372662395064,2694.2387185108673,right,1,1,1.29,0.8063519468996674,Q24R01,2022-12-01_14h41.04.745,t1_Paradigm,2021.1.4,60.03015772462957,
Z,left,Lure,0,8,8,8,2695.7375138987554,2697.7385901900125,left,1,1,1.29,1.0502312021271791,Q24R01,2022-12-01_14h41.04.745,t1_Paradigm,2021.1.4,60.03015772462957,
J,left,Distractor,0,9,9,9,2699.2372774675605,2701.23951410022,left,1,1,1.29,1.3254480162577238,Q24R01,2022-12-01_14h41.04.745,t1_Paradigm,2021.1.4,60.03015772462957,
D,left,Pretarget,0,10,10,10,2702.7372649562894,2704.739099623839,left,1,1,1.29,0.6740062992903404,Q24R01,2022-12-01_14h41.04.745,t1_Paradigm,2021.1.4,60.03015772462957,
H,left,Distractor,0,11,11,11,2706.2372655978834,2708.2395192330587,left,1,1,1.29,0.8215570068568923,Q24R01,2022-12-01_14h41.04.745,t1_Paradigm,2021.1.4,60.03015772462957,
D,right,Target,0,12,12,12,2709.7372546906117,2711.738930561085,right,1,1,1.29,0.8901396965084132,Q24R01,2022-12-01_14h41.04.745,t1_Paradigm,2021.1.4,60.03015772462957,
S,left,Distractor,0,13,13,13,2713.237432415015,2715.2389254282753,left,1,1,1.29,0.7181018393021077,Q24R01,2022-12-01_14h41.04.745,t1_Paradigm,2021.1.4,60.03015772462957,
R,left,Pretarget,0,14,14,14,2716.7374731568852,2718.7394922856765,None,0,1,1.29,,Q24R01,2022-12-01_14h41.04.745,t1_Paradigm,2021.1.4,60.03015772462957,
Z,left,Distractor,0,15,15,15,2720.237039432366,2722.2380483551533,left,1,1,1.29,1.2869565691507887,Q24R01,2022-12-01_14h41.04.745,t1_Paradigm,2021.1.4,60.03015772462957,
R,right,Target,0,16,16,16,2723.737283562805,2725.7385635634128,right,1,1,1.29,0.8585156612680294,Q24R01,2022-12-01_14h41.04.745,t1_Paradigm,2021.1.4,60.03015772462957,
T,left,Distractor,0,17,17,17,2727.2372139487416,2729.2392372479662,left,1,1,1.29,1.149723821436055,Q24R01,2022-12-01_14h41.04.745,t1_Paradigm,2021.1.4,60.03015772462957,
M,left,Distractor,0,18,18,18,2730.7374571167747,2732.7393206565175,left,1,1,1.29,1.025598087493563,Q24R01,2022-12-01_14h41.04.745,t1_Paradigm,2021.1.4,60.03015772462957,
R,left,Lure,0,19,19,19,2734.2374818185344,2736.2380772273464,None,0,1,1.29,,Q24R01,2022-12-01_14h41.04.745,t1_Paradigm,2021.1.4,60.03015772462957,
J,left,Distractor,0,20,20,20,2737.7365383394063,2739.739460526267,left,1,1,1.29,1.1294571450271178,Q24R01,2022-12-01_14h41.04.745,t1_Paradigm,2021.1.4,60.03015772462957,
K,left,Distractor,0,21,21,21,2741.236542189028,2743.2397652883083,left,1,1,1.29,1.4532469349214807,Q24R01,2022-12-01_14h41.04.745,t1_Paradigm,2021.1.4,60.03015772462957,
Z,left,Distractor,0,22,22,22,2744.737110008835,2746.7389565460617,left,1,1,1.29,1.1220700336853042,Q24R01,2022-12-01_14h41.04.745,t1_Paradigm,2021.1.4,60.03015772462957,
W,left,Pretarget,0,23,23,23,2748.2373849363066,2750.2500495639397,left,1,1,1.29,0.8749888520978857,Q24R01,2022-12-01_14h41.04.745,t1_Paradigm,2021.1.4,60.03015772462957,
Q,left,Distractor,0,24,24,24,2751.737475081696,2753.7388805159717,None,0,1,1.29,,Q24R01,2022-12-01_14h41.04.745,t1_Paradigm,2021.1.4,60.03015772462957,
W,right,Target,0,25,25,25,2755.2370410363656,2757.238886611187,right,1,1,1.29,0.8306597681366839,Q24R01,2022-12-01_14h41.04.745,t1_Paradigm,2021.1.4,60.03015772462957,
D,left,Pretarget,0,26,26,26,2758.737282921211,2760.737515502784,None,0,1,1.29,,Q24R01,2022-12-01_14h41.04.745,t1_Paradigm,2021.1.4,60.03015772462957,
W,right,Target,0,27,27,27,2762.2373214174586,2764.239280235459,left,0,1,1.29,1.25372435268946,Q24R01,2022-12-01_14h41.04.745,t1_Paradigm,2021.1.4,60.03015772462957,
D,right,Target,0,28,28,28,2765.7373454776243,2767.7392956339463,right,1,1,1.29,0.7618207575869747,Q24R01,2022-12-01_14h41.04.745,t1_Paradigm,2021.1.4,60.03015772462957,
L,left,Pretarget,0,29,29,29,2769.2373637633573,2771.2385757539014,left,1,1,1.29,1.198818742268486,Q24R01,2022-12-01_14h41.04.745,t1_Paradigm,2021.1.4,60.03015772462957,
P,left,Distractor,0,30,30,30,2772.7372826003993,2774.7393501703336,None,0,1,1.29,,Q24R01,2022-12-01_14h41.04.745,t1_Paradigm,2021.1.4,60.03015772462957,
L,right,Target,0,31,31,31,2776.2373660089797,2778.2391881652293,right,1,1,1.29,1.3338341055205092,Q24R01,2022-12-01_14h41.04.745,t1_Paradigm,2021.1.4,60.03015772462957,
R,left,Distractor,0,32,32,32,2779.7374234325544,2781.739153839386,left,1,1,1.29,1.449815634987317,Q24R01,2022-12-01_14h41.04.745,t1_Paradigm,2021.1.4,60.03015772462957,
V,left,Distractor,0,33,33,33,2783.2369813671685,2785.239051824319,left,1,1,1.29,1.438015248364536,Q24R01,2022-12-01_14h41.04.745,t1_Paradigm,2021.1.4,60.03015772462957,
L,left,Lure,0,34,34,34,2786.7373031317547,2788.7393476038997,left,1,1,1.29,1.0098386814061087,Q24R01,2022-12-01_14h41.04.745,t1_Paradigm,2021.1.4,60.03015772462957,
H,left,Distractor,0,35,35,35,2790.237377237034,2792.239041879453,left,1,1,1.29,0.902025737304939,Q24R01,2022-12-01_14h41.04.745,t1_Paradigm,2021.1.4,60.03015772462957,
K,left,Pretarget,0,36,36,36,2793.7373313623248,2795.7390762052673,left,1,1,1.29,0.7141197220771573,Q24R01,2022-12-01_14h41.04.745,t1_Paradigm,2021.1.4,60.03015772462957,
F,left,Distractor,0,37,37,37,2797.237645106856,2799.238306921703,left,1,1,1.29,1.0068366148334462,Q24R01,2022-12-01_14h41.04.745,t1_Paradigm,2021.1.4,60.03015772462957,
K,right,Target,0,38,38,38,2800.737408675661,2802.750203869771,right,1,1,1.29,0.6310884240083396,Q24R01,2022-12-01_14h41.04.745,t1_Paradigm,2021.1.4,60.03015772462957,
S,left,Pretarget,0,39,39,39,2804.2373788410623,2806.239600716799,left,1,1,1.29,1.4615945278783329,Q24R01,2022-12-01_14h41.04.745,t1_Paradigm,2021.1.4,60.03015772462957,
W,left,Distractor,0,40,40,40,2807.7373259087035,2809.73917950358,left,1,1,1.29,0.889999826787971,Q24R01,2022-12-01_14h41.04.745,t1_Paradigm,2021.1.4,60.03015772462957,
S,right,Target,0,41,41,41,2811.237246349774,2813.250003368419,right,1,1,1.29,0.8512032967992127,Q24R01,2022-12-01_14h41.04.745,t1_Paradigm,2021.1.4,60.03015772462957,
F,left,Pretarget,0,42,42,42,2814.737334891164,2816.7385266711644,None,0,1,1.29,,Q24R01,2022-12-01_14h41.04.745,t1_Paradigm,2021.1.4,60.03015772462957,
Y,left,Distractor,0,43,43,43,2818.2371943798207,2820.2389510924404,left,1,1,1.29,1.0141926083306316,Q24R01,2022-12-01_14h41.04.745,t1_Paradigm,2021.1.4,60.03015772462957,
F,right,Target,0,44,44,44,2821.737009276956,2823.739840356022,left,0,1,1.29,1.1933667096018326,Q24R01,2022-12-01_14h41.04.745,t1_Paradigm,2021.1.4,60.03015772462957,
F,left,Lure,0,45,45,45,2825.2373474024353,2827.237509728322,right,0,1,1.29,0.719538391334936,Q24R01,2022-12-01_14h41.04.745,t1_Paradigm,2021.1.4,60.03015772462957,
B,left,Pretarget,0,46,46,46,2828.7373015277262,2830.739106039866,None,0,1,1.29,,Q24R01,2022-12-01_14h41.04.745,t1_Paradigm,2021.1.4,60.03015772462957,
W,left,Distractor,0,47,47,47,2832.237241216935,2834.2394640550774,None,0,1,1.29,,Q24R01,2022-12-01_14h41.04.745,t1_Paradigm,2021.1.4,60.03015772462957,
B,right,Target,0,48,48,48,2835.73752544765,2837.750027428585,right,1,1,1.29,0.8313677785045002,Q24R01,2022-12-01_14h41.04.745,t1_Paradigm,2021.1.4,60.03015772462957,
R,left,Pretarget,0,49,49,49,2839.2371831517376,2841.2394130475586,None,0,1,1.29,,Q24R01,2022-12-01_14h41.04.745,t1_Paradigm,2021.1.4,60.03015772462957,
N,left,Distractor,0,50,50,50,2842.7372460289625,2844.738333227462,None,0,1,1.29,,Q24R01,2022-12-01_14h41.04.745,t1_Paradigm,2021.1.4,60.03015772462957,
R,right,Target,0,51,51,51,2846.237507161917,2848.239031934587,right,1,1,1.29,1.190188522596145,Q24R01,2022-12-01_14h41.04.745,t1_Paradigm,2021.1.4,60.03015772462957,
V,left,Distractor,0,52,52,52,2849.737351252057,2851.7389754733886,None,0,1,1.29,,Q24R01,2022-12-01_14h41.04.745,t1_Paradigm,2021.1.4,60.03015772462957,
G,left,Distractor,0,53,53,53,2853.237311793404,2855.238112836407,left,1,1,1.29,1.3750799599511083,Q24R01,2022-12-01_14h41.04.745,t1_Paradigm,2021.1.4,60.03015772462957,
H,left,Distractor,0,54,54,54,2856.737429206987,2858.738892706431,left,1,1,1.29,1.074198973044986,Q24R01,2022-12-01_14h41.04.745,t1_Paradigm,2021.1.4,60.03015772462957,
V,left,Lure,0,55,55,55,2860.2371648660046,2862.2383486259787,left,1,1,1.29,1.3186935267876834,Q24R01,2022-12-01_14h41.04.745,t1_Paradigm,2021.1.4,60.03015772462957,
L,left,Distractor,0,56,56,56,2863.737469628075,2865.7387926161755,left,1,1,1.29,1.1144038244674448,Q24R01,2022-12-01_14h41.04.745,t1_Paradigm,2021.1.4,60.03015772462957,
K,left,Distractor,0,57,57,57,2867.2375119739445,2869.239431654074,left,1,1,1.29,0.7496405411802698,Q24R01,2022-12-01_14h41.04.745,t1_Paradigm,2021.1.4,60.03015772462957,
D,left,Pretarget,0,58,58,58,2870.7371837933315,2872.7392144710175,left,1,1,1.29,1.3943527912488207,Q24R01,2022-12-01_14h41.04.745,t1_Paradigm,2021.1.4,60.03015772462957,
T,left,Pretarget,0,59,59,59,2874.2374263197707,2876.23877914247,left,1,1,1.29,0.7904292525199708,Q24R01,2022-12-01_14h41.04.745,t1_Paradigm,2021.1.4,60.03015772462957,
D,right,Target,0,60,60,60,2877.737372745818,2879.7394563558337,right,1,1,1.29,0.6657972928369418,Q24R01,2022-12-01_14h41.04.745,t1_Paradigm,2021.1.4,60.03015772462957,
T,right,Target,0,61,61,61,2881.2374163749046,2883.2375026706723,right,1,1,1.29,0.9439327650179621,Q24R01,2022-12-01_14h41.04.745,t1_Paradigm,2021.1.4,60.03015772462957,
T,left,Lure,0,62,62,62,2884.7375655478972,2886.737324946298,left,1,1,1.29,1.3478932601283304,Q24R01,2022-12-01_14h41.04.745,t1_Paradigm,2021.1.4,60.03015772462957,
F,left,Distractor,0,63,63,63,2888.2373647257627,2890.2366746803164,left,1,1,1.29,1.4645882536424324,Q24R01,2022-12-01_14h41.04.745,t1_Paradigm,2021.1.4,60.03015772462957,
