Letter,CorrAnswer,Stimulus,nback_run.thisRepN,nback_run.thisTrialN,nback_run.thisN,nback_run.thisIndex,fixcross.started,nback_trial.started,trial_resp.keys,trial_resp.corr,currentlevel,trial_resp.rt,Participant,date,expName,psychopyVersion,frameRate,
H,left,Distractor,0,0,0,0,361.341082834173,363.2743650532793,None,0,1,,R05E05,2023-01-05_14h31.11.585,t1_Paradigm,2021.1.4,59.98980025955487,
Q,left,Pretarget,0,1,1,1,364.7766003997531,366.77647657040507,left,1,1,0.6968715412076563,R05E05,2023-01-05_14h31.11.585,t1_Paradigm,2021.1.4,59.98980025955487,
Q,right,Target,0,2,2,2,368.2724992702715,370.27283033775166,right,1,1,0.46487958705984056,R05E05,2023-01-05_14h31.11.585,t1_Paradigm,2021.1.4,59.98980025955487,
T,left,Distractor,0,3,3,3,371.7724973454606,373.7740901261568,left,1,1,1.0754891424439847,R05E05,2023-01-05_14h31.11.585,t1_Paradigm,2021.1.4,59.98980025955487,
Q,left,Lure,0,4,4,4,375.2727357011754,377.27314151544124,left,1,1,0.5043173497542739,R05E05,2023-01-05_14h31.11.585,t1_Paradigm,2021.1.4,59.98980025955487,
L,left,Distractor,0,5,5,5,378.772832904011,380.77461816580035,left,1,1,0.5229447034653276,R05E05,2023-01-05_14h31.11.585,t1_Paradigm,2021.1.4,59.98980025955487,
V,left,Pretarget,0,6,6,6,382.2729031597264,384.27476220577955,left,1,1,1.1187537491787225,R05E05,2023-01-05_14h31.11.585,t1_Paradigm,2021.1.4,59.98980025955487,
V,right,Target,0,7,7,7,385.7723950096406,387.77248515491374,right,1,1,0.789007086539641,R05E05,2023-01-05_14h31.11.585,t1_Paradigm,2021.1.4,59.98980025955487,
K,left,Distractor,0,8,8,8,389.2729191996623,391.2747208222281,left,1,1,1.0789101724512875,R05E05,2023-01-05_14h31.11.585,t1_Paradigm,2021.1.4,59.98980025955487,
G,left,Pretarget,0,9,9,9,392.77284220722504,394.7744680305477,left,1,1,0.6831348105333745,R05E05,2023-01-05_14h31.11.585,t1_Paradigm,2021.1.4,59.98980025955487,
G,right,Target,0,10,10,10,396.2726157212164,398.27259262348525,right,1,1,0.8969854260794818,R05E05,2023-01-05_14h31.11.585,t1_Paradigm,2021.1.4,59.98980025955487,
G,right,Target,0,11,11,11,399.77289642277174,401.7728021070361,right,1,1,0.5488709383644164,R05E05,2023-01-05_14h31.11.585,t1_Paradigm,2021.1.4,59.98980025955487,
P,left,Pretarget,0,12,12,12,403.27252365113236,405.27500922302715,left,1,1,0.5824787709861994,R05E05,2023-01-05_14h31.11.585,t1_Paradigm,2021.1.4,59.98980025955487,
P,right,Target,0,13,13,13,406.77275687409565,408.77265710476786,right,1,1,0.5089500481262803,R05E05,2023-01-05_14h31.11.585,t1_Paradigm,2021.1.4,59.98980025955487,
G,left,Lure,0,14,14,14,410.27253840793855,412.2751433183439,left,1,1,0.6384140844456851,R05E05,2023-01-05_14h31.11.585,t1_Paradigm,2021.1.4,59.98980025955487,
Y,left,Distractor,0,15,15,15,413.7724521122873,415.77528928313404,left,1,1,0.6582826199010015,R05E05,2023-01-05_14h31.11.585,t1_Paradigm,2021.1.4,59.98980025955487,
B,left,Distractor,0,16,16,16,417.2723241124768,419.27477375464514,left,1,1,0.5506433679256588,R05E05,2023-01-05_14h31.11.585,t1_Paradigm,2021.1.4,59.98980025955487,
T,left,Pretarget,0,17,17,17,420.77250857348554,422.77389251231216,left,1,1,0.6835643639788032,R05E05,2023-01-05_14h31.11.585,t1_Paradigm,2021.1.4,59.98980025955487,
T,right,Target,0,18,18,18,424.2726016060915,426.27243799716234,right,1,1,1.3134858638513833,R05E05,2023-01-05_14h31.11.585,t1_Paradigm,2021.1.4,59.98980025955487,
S,left,Distractor,0,19,19,19,427.77234271890484,429.77426432142965,left,1,1,0.6593197719193995,R05E05,2023-01-05_14h31.11.585,t1_Paradigm,2021.1.4,59.98980025955487,
T,left,Lure,0,20,20,20,431.2726959215943,433.2725461071823,left,1,1,1.0491394493728876,R05E05,2023-01-05_14h31.11.585,t1_Paradigm,2021.1.4,59.98980025955487,
J,left,Distractor,0,21,21,21,434.77281173109077,436.77501595998183,right,0,1,0.6343187293969095,R05E05,2023-01-05_14h31.11.585,t1_Paradigm,2021.1.4,59.98980025955487,
P,left,Distractor,0,22,22,22,438.2729121420998,440.2727357011754,left,1,1,0.9927915846928954,R05E05,2023-01-05_14h31.11.585,t1_Paradigm,2021.1.4,59.98980025955487,
F,left,Distractor,0,23,23,23,441.7723860272672,443.7746582659893,left,1,1,0.9309724464546889,R05E05,2023-01-05_14h31.11.585,t1_Paradigm,2021.1.4,59.98980025955487,
L,left,Distractor,0,24,24,24,445.2727456460707,447.2742793990765,left,1,1,1.0315630424302071,R05E05,2023-01-05_14h31.11.585,t1_Paradigm,2021.1.4,59.98980025955487,
W,left,Pretarget,0,25,25,25,448.77289353567176,450.7743881510105,left,1,1,0.8593826489523053,R05E05,2023-01-05_14h31.11.585,t1_Paradigm,2021.1.4,59.98980025955487,
W,right,Target,0,26,26,26,452.2727562324144,454.2724960623309,right,1,1,0.561177855823189,R05E05,2023-01-05_14h31.11.585,t1_Paradigm,2021.1.4,59.98980025955487,
V,left,Distractor,0,27,27,27,455.7729294653982,457.7748324612621,left,1,1,0.7547178708482534,R05E05,2023-01-05_14h31.11.585,t1_Paradigm,2021.1.4,59.98980025955487,
W,left,Lure,0,28,28,28,459.2728928939905,461.2730160818901,left,1,1,0.856491263024509,R05E05,2023-01-05_14h31.11.585,t1_Paradigm,2021.1.4,59.98980025955487,
R,left,Pretarget,0,29,29,29,462.772439280292,464.7757733729668,left,1,1,1.0016736227553338,R05E05,2023-01-05_14h31.11.585,t1_Paradigm,2021.1.4,59.98980025955487,
R,right,Target,0,30,30,30,466.2726609543897,468.27278510457836,right,1,1,1.1526288099121302,R05E05,2023-01-05_14h31.11.585,t1_Paradigm,2021.1.4,59.98980025955487,
G,left,Distractor,0,31,31,31,469.77265838789754,471.78892207401805,left,1,1,0.5326204048469663,R05E05,2023-01-05_14h31.11.585,t1_Paradigm,2021.1.4,59.98980025955487,
R,left,Lure,0,32,32,32,473.2727738765534,475.27354155504145,left,1,1,0.9199618888087571,R05E05,2023-01-05_14h31.11.585,t1_Paradigm,2021.1.4,59.98980025955487,
S,left,Distractor,0,33,33,33,476.77273024758324,478.77424346935004,left,1,1,0.9393190662376583,R05E05,2023-01-05_14h31.11.585,t1_Paradigm,2021.1.4,59.98980025955487,
R,left,Lure,0,34,34,34,480.2728338665329,482.27424379019067,left,1,1,1.0392821738496423,R05E05,2023-01-05_14h31.11.585,t1_Paradigm,2021.1.4,59.98980025955487,
P,left,Pretarget,0,35,35,35,483.77287428756244,485.77390855224803,left,1,1,0.6432684566825628,R05E05,2023-01-05_14h31.11.585,t1_Paradigm,2021.1.4,59.98980025955487,
P,right,Target,0,36,36,36,487.2724797013216,489.2728531146422,right,1,1,0.5045778411440551,R05E05,2023-01-05_14h31.11.585,t1_Paradigm,2021.1.4,59.98980025955487,
Y,left,Pretarget,0,37,37,37,490.77277900930494,492.773714146344,left,1,1,0.747822558041662,R05E05,2023-01-05_14h31.11.585,t1_Paradigm,2021.1.4,59.98980025955487,
Y,right,Target,0,38,38,38,494.2725887738634,496.272700733738,right,1,1,0.6568114231340587,R05E05,2023-01-05_14h31.11.585,t1_Paradigm,2021.1.4,59.98980025955487,
J,left,Distractor,0,39,39,39,497.7728444528766,499.7734071391169,left,1,1,0.5481266782153398,R05E05,2023-01-05_14h31.11.585,t1_Paradigm,2021.1.4,59.98980025955487,
Y,left,Lure,0,40,40,40,501.2727475708816,503.2734937556088,left,1,1,0.8719195814337581,R05E05,2023-01-05_14h31.11.585,t1_Paradigm,2021.1.4,59.98980025955487,
T,left,Distractor,0,41,41,41,504.77263529016636,506.77398650720716,left,1,1,0.9874608220998198,R05E05,2023-01-05_14h31.11.585,t1_Paradigm,2021.1.4,59.98980025955487,
V,left,Distractor,0,42,42,42,508.272700733738,510.2749601404648,left,1,1,0.9423756652977318,R05E05,2023-01-05_14h31.11.585,t1_Paradigm,2021.1.4,59.98980025955487,
N,left,Pretarget,0,43,43,43,511.77280082390644,513.77434869227,left,1,1,0.8349696360528469,R05E05,2023-01-05_14h31.11.585,t1_Paradigm,2021.1.4,59.98980025955487,
N,right,Target,0,44,44,44,515.2721813556273,517.2720466188621,right,1,1,0.5052714142948389,R05E05,2023-01-05_14h31.11.585,t1_Paradigm,2021.1.4,59.98980025955487,
N,right,Target,0,45,45,45,518.7723209045362,520.772709074663,right,1,1,0.47667193855158985,R05E05,2023-01-05_14h31.11.585,t1_Paradigm,2021.1.4,59.98980025955487,
X,left,Distractor,0,46,46,46,522.2727857462596,524.2747763211373,left,1,1,0.5425800159573555,R05E05,2023-01-05_14h31.11.585,t1_Paradigm,2021.1.4,59.98980025955487,
Z,left,Distractor,0,47,47,47,525.7727013754193,527.7742226172704,left,1,1,0.5153083384502679,R05E05,2023-01-05_14h31.11.585,t1_Paradigm,2021.1.4,59.98980025955487,
H,left,Pretarget,0,48,48,48,529.2725419369526,531.2747172934469,left,1,1,0.5187518245074898,R05E05,2023-01-05_14h31.11.585,t1_Paradigm,2021.1.4,59.98980025955487,
H,right,Target,0,49,49,49,532.7726936761755,534.7723273204174,right,1,1,0.6529916368890554,R05E05,2023-01-05_14h31.11.585,t1_Paradigm,2021.1.4,59.98980025955487,
K,left,Distractor,0,50,50,50,536.2724296562374,538.272783500608,left,1,1,0.4968003232497722,R05E05,2023-01-05_14h31.11.585,t1_Paradigm,2021.1.4,59.98980025955487,
V,left,Pretarget,0,51,51,51,539.7725906986743,541.7739213844761,left,1,1,0.5155749248806387,R05E05,2023-01-05_14h31.11.585,t1_Paradigm,2021.1.4,59.98980025955487,
V,right,Target,0,52,52,52,543.2723905183375,545.2726769943256,right,1,1,0.7286495210137218,R05E05,2023-01-05_14h31.11.585,t1_Paradigm,2021.1.4,59.98980025955487,
R,left,Distractor,0,53,53,53,546.7726702576037,548.7744651434477,left,1,1,0.618819513823837,R05E05,2023-01-05_14h31.11.585,t1_Paradigm,2021.1.4,59.98980025955487,
V,left,Lure,0,54,54,54,550.2724331850186,552.2750255840365,left,1,1,0.8784434057306498,R05E05,2023-01-05_14h31.11.585,t1_Paradigm,2021.1.4,59.98980025955487,
Y,left,Distractor,0,55,55,55,553.7727357011754,555.7744946570601,left,1,1,0.6908988542854786,R05E05,2023-01-05_14h31.11.585,t1_Paradigm,2021.1.4,59.98980025955487,
Q,left,Distractor,0,56,56,56,557.272653255146,559.2738944371231,left,1,1,0.5355243023950607,R05E05,2023-01-05_14h31.11.585,t1_Paradigm,2021.1.4,59.98980025955487,
Z,left,Pretarget,0,57,57,57,560.7726137964055,562.7728807034437,left,1,1,0.6203696276061237,R05E05,2023-01-05_14h31.11.585,t1_Paradigm,2021.1.4,59.98980025955487,
Z,right,Target,0,58,58,58,564.2724347889889,566.2721807141788,left,0,1,0.8493332136422396,R05E05,2023-01-05_14h31.11.585,t1_Paradigm,2021.1.4,59.98980025955487,
B,left,Distractor,0,59,59,59,567.7727382674348,569.774574857438,left,1,1,1.1868253138381988,R05E05,2023-01-05_14h31.11.585,t1_Paradigm,2021.1.4,59.98980025955487,
S,left,Pretarget,0,60,60,60,571.2725743378978,573.2739425573964,None,0,1,,R05E05,2023-01-05_14h31.11.585,t1_Paradigm,2021.1.4,59.98980025955487,
S,right,Target,0,61,61,61,574.772617966868,576.7726240621414,right,1,1,0.6686910327989608,R05E05,2023-01-05_14h31.11.585,t1_Paradigm,2021.1.4,59.98980025955487,
T,left,Distractor,0,62,62,62,578.2728072400205,580.2740529130679,left,1,1,0.5432581908535212,R05E05,2023-01-05_14h31.11.585,t1_Paradigm,2021.1.4,59.98980025955487,
D,left,Distractor,0,63,63,63,581.7727219066583,583.7751369022299,left,1,1,0.8822102597914636,R05E05,2023-01-05_14h31.11.585,t1_Paradigm,2021.1.4,59.98980025955487,
R,left,Distractor,0,0,0,0,597.5977598414756,599.591287024552,None,0,1,,R05E05,2023-01-05_14h31.11.585,t1_Paradigm,2021.1.4,59.98980025955487,
V,left,Distractor,0,1,1,1,601.0892310061026,603.0892133621965,left,1,1,1.248285474954173,R05E05,2023-01-05_14h31.11.585,t1_Paradigm,2021.1.4,59.98980025955487,
N,left,Pretarget,0,2,2,2,604.589224911062,606.5902161884587,left,1,1,0.6590881529264152,R05E05,2023-01-05_14h31.11.585,t1_Paradigm,2021.1.4,59.98980025955487,
N,right,Target,0,3,3,3,608.089294845704,610.0888117183931,right,1,1,0.664695767685771,R05E05,2023-01-05_14h31.11.585,t1_Paradigm,2021.1.4,59.98980025955487,
S,left,Distractor,0,4,4,4,611.5893375123851,613.5913091599941,left,1,1,0.5700011870358139,R05E05,2023-01-05_14h31.11.585,t1_Paradigm,2021.1.4,59.98980025955487,
N,left,Lure,0,5,5,5,615.0890353170689,617.0892011716496,left,1,1,0.9602176961489022,R05E05,2023-01-05_14h31.11.585,t1_Paradigm,2021.1.4,59.98980025955487,
Z,left,Distractor,0,6,6,6,618.5893201890867,620.5913499016315,left,1,1,0.5300103616900742,R05E05,2023-01-05_14h31.11.585,t1_Paradigm,2021.1.4,59.98980025955487,
L,left,Pretarget,0,7,7,7,622.0894404896535,624.0910634258762,left,1,1,0.7903862132225186,R05E05,2023-01-05_14h31.11.585,t1_Paradigm,2021.1.4,59.98980025955487,
L,right,Target,0,8,8,8,625.5892088708933,627.5893984646536,right,1,1,0.8440265110693872,R05E05,2023-01-05_14h31.11.585,t1_Paradigm,2021.1.4,59.98980025955487,
H,left,Distractor,0,9,9,9,629.0892438383307,631.0911474758759,left,1,1,0.7182247473392636,R05E05,2023-01-05_14h31.11.585,t1_Paradigm,2021.1.4,59.98980025955487,
L,left,Lure,0,10,10,10,632.5893288506195,634.5895919082686,left,1,1,0.6757669567596167,R05E05,2023-01-05_14h31.11.585,t1_Paradigm,2021.1.4,59.98980025955487,
X,left,Pretarget,0,11,11,11,636.0892396678682,638.090928689111,left,1,1,0.8704137380700558,R05E05,2023-01-05_14h31.11.585,t1_Paradigm,2021.1.4,59.98980025955487,
X,right,Target,0,12,12,12,639.5893278883304,641.5889724399894,right,1,1,0.6523205193225294,R05E05,2023-01-05_14h31.11.585,t1_Paradigm,2021.1.4,59.98980025955487,
X,right,Target,0,13,13,13,643.0892541038338,645.0892396678682,right,1,1,0.5279049400705844,R05E05,2023-01-05_14h31.11.585,t1_Paradigm,2021.1.4,59.98980025955487,
R,left,Distractor,0,14,14,14,646.5890613021329,648.5892210614402,left,1,1,0.6601349292322993,R05E05,2023-01-05_14h31.11.585,t1_Paradigm,2021.1.4,59.98980025955487,
T,left,Distractor,0,15,15,15,650.0891565801576,652.0905251204967,left,1,1,0.5347357715945691,R05E05,2023-01-05_14h31.11.585,t1_Paradigm,2021.1.4,59.98980025955487,
V,left,Pretarget,0,16,16,16,653.5889519087505,655.5909687893,None,0,1,,R05E05,2023-01-05_14h31.11.585,t1_Paradigm,2021.1.4,59.98980025955487,
V,right,Target,0,17,17,17,657.0888287208509,659.0888255126774,right,1,1,0.704442783491686,R05E05,2023-01-05_14h31.11.585,t1_Paradigm,2021.1.4,59.98980025955487,
N,left,Distractor,0,18,18,18,660.5890824750531,662.5913386736065,left,1,1,0.6101411846466362,R05E05,2023-01-05_14h31.11.585,t1_Paradigm,2021.1.4,59.98980025955487,
B,left,Distractor,0,19,19,19,664.0889509462286,666.0884075080976,left,1,1,0.6007769817952067,R05E05,2023-01-05_14h31.11.585,t1_Paradigm,2021.1.4,59.98980025955487,
V,left,Lure,0,20,20,20,667.588730876334,669.5908613207284,left,1,1,1.3864079506602138,R05E05,2023-01-05_14h31.11.585,t1_Paradigm,2021.1.4,59.98980025955487,
P,left,Distractor,0,21,21,21,671.0890725301579,673.0913332200143,left,1,1,0.8940889071673155,R05E05,2023-01-05_14h31.11.585,t1_Paradigm,2021.1.4,59.98980025955487,
K,left,Pretarget,0,22,22,22,674.5891498434357,676.589051036397,left,1,1,0.5483560513239354,R05E05,2023-01-05_14h31.11.585,t1_Paradigm,2021.1.4,59.98980025955487,
K,right,Target,0,23,23,23,678.0892027756199,680.0893275674898,right,1,1,0.48786984430626035,R05E05,2023-01-05_14h31.11.585,t1_Paradigm,2021.1.4,59.98980025955487,
J,left,Pretarget,0,24,24,24,681.5888476481196,683.5898713264614,left,1,1,0.5075080441311002,R05E05,2023-01-05_14h31.11.585,t1_Paradigm,2021.1.4,59.98980025955487,
J,right,Target,0,25,25,25,685.0891540136654,687.0892573120072,right,1,1,0.6720472606830299,R05E05,2023-01-05_14h31.11.585,t1_Paradigm,2021.1.4,59.98980025955487,
H,left,Distractor,0,26,26,26,688.589226835873,690.6020569808315,left,1,1,0.823207760695368,R05E05,2023-01-05_14h31.11.585,t1_Paradigm,2021.1.4,59.98980025955487,
J,left,Lure,0,27,27,27,692.0892172118183,694.0912347338162,None,0,1,,R05E05,2023-01-05_14h31.11.585,t1_Paradigm,2021.1.4,59.98980025955487,
V,left,Distractor,0,28,28,28,695.5892018133309,697.5899287499487,left,1,1,0.9074230317492038,R05E05,2023-01-05_14h31.11.585,t1_Paradigm,2021.1.4,59.98980025955487,
Z,left,Pretarget,0,29,29,29,699.0890414123423,701.0907307544257,left,1,1,0.558658278780058,R05E05,2023-01-05_14h31.11.585,t1_Paradigm,2021.1.4,59.98980025955487,
Z,right,Target,0,30,30,30,702.5892294021323,704.589030505158,right,1,1,0.6603588487487286,R05E05,2023-01-05_14h31.11.585,t1_Paradigm,2021.1.4,59.98980025955487,
T,left,Distractor,0,31,31,31,706.0893500235397,708.0913486185018,left,1,1,0.6941735986620188,R05E05,2023-01-05_14h31.11.585,t1_Paradigm,2021.1.4,59.98980025955487,
Z,left,Lure,0,32,32,32,709.589013823308,711.5902575717773,left,1,1,0.7152217221446335,R05E05,2023-01-05_14h31.11.585,t1_Paradigm,2021.1.4,59.98980025955487,
F,left,Distractor,0,33,33,33,713.0891652419232,715.0911705736071,left,1,1,0.7180903314147145,R05E05,2023-01-05_14h31.11.585,t1_Paradigm,2021.1.4,59.98980025955487,
Y,left,Pretarget,0,34,34,34,716.5892457631417,718.5913405984174,left,1,1,1.2018635373096913,R05E05,2023-01-05_14h31.11.585,t1_Paradigm,2021.1.4,59.98980025955487,
Y,right,Target,0,35,35,35,720.0887116282247,722.0891893019434,right,1,1,0.5360263572074473,R05E05,2023-01-05_14h31.11.585,t1_Paradigm,2021.1.4,59.98980025955487,
Y,right,Target,0,36,36,36,723.5890529612079,725.5889589663129,right,1,1,0.5882461448200047,R05E05,2023-01-05_14h31.11.585,t1_Paradigm,2021.1.4,59.98980025955487,
W,left,Distractor,0,37,37,37,727.0891684498638,729.0892922792118,left,1,1,0.5442491474095732,R05E05,2023-01-05_14h31.11.585,t1_Paradigm,2021.1.4,59.98980025955487,
Q,left,Distractor,0,38,38,38,730.5892207405996,732.5911420222837,left,1,1,0.5462907298933715,R05E05,2023-01-05_14h31.11.585,t1_Paradigm,2021.1.4,59.98980025955487,
P,left,Pretarget,0,39,39,39,734.0891530513763,736.0902501933742,left,1,1,0.5673135099932551,R05E05,2023-01-05_14h31.11.585,t1_Paradigm,2021.1.4,59.98980025955487,
P,right,Target,0,40,40,40,737.5891020440031,739.5892258733511,right,1,1,0.4601272300351411,R05E05,2023-01-05_14h31.11.585,t1_Paradigm,2021.1.4,59.98980025955487,
J,left,Distractor,0,41,41,41,741.0891350863967,743.089994514361,left,1,1,0.5435514035634696,R05E05,2023-01-05_14h31.11.585,t1_Paradigm,2021.1.4,59.98980025955487,
P,left,Lure,0,42,42,42,744.5891960388981,746.5903932708316,left,1,1,0.914793130941689,R05E05,2023-01-05_14h31.11.585,t1_Paradigm,2021.1.4,59.98980025955487,
L,left,Distractor,0,43,43,43,748.0891970011871,750.0911558165681,left,1,1,0.5500745864119381,R05E05,2023-01-05_14h31.11.585,t1_Paradigm,2021.1.4,59.98980025955487,
Z,left,Distractor,0,44,44,44,751.589154334506,753.5909078370314,left,1,1,0.7624491930473596,R05E05,2023-01-05_14h31.11.585,t1_Paradigm,2021.1.4,59.98980025955487,
F,left,Pretarget,0,45,45,45,755.089191547595,757.0915674052667,left,1,1,0.8617726222146302,R05E05,2023-01-05_14h31.11.585,t1_Paradigm,2021.1.4,59.98980025955487,
F,right,Target,0,46,46,46,758.5887411418371,760.5892605199479,right,1,1,0.7400097523350269,R05E05,2023-01-05_14h31.11.585,t1_Paradigm,2021.1.4,59.98980025955487,
G,left,Pretarget,0,47,47,47,762.0886282196734,764.0882262550294,left,1,1,0.6491840407252312,R05E05,2023-01-05_14h31.11.585,t1_Paradigm,2021.1.4,59.98980025955487,
G,right,Target,0,48,48,48,765.5888457233086,767.5891270663124,right,1,1,0.47618945268914104,R05E05,2023-01-05_14h31.11.585,t1_Paradigm,2021.1.4,59.98980025955487,
V,left,Distractor,0,49,49,49,769.089197963709,771.0910598968621,left,1,1,0.4783468444366008,R05E05,2023-01-05_14h31.11.585,t1_Paradigm,2021.1.4,59.98980025955487,
G,left,Lure,0,50,50,50,772.5892005299684,774.5906544034369,left,1,1,0.6111369535792619,R05E05,2023-01-05_14h31.11.585,t1_Paradigm,2021.1.4,59.98980025955487,
Q,left,Pretarget,0,51,51,51,776.0891973220278,778.089526464697,left,1,1,0.5356529438868165,R05E05,2023-01-05_14h31.11.585,t1_Paradigm,2021.1.4,59.98980025955487,
Q,right,Target,0,52,52,52,779.589068680536,781.5891459938139,right,1,1,0.6680128579027951,R05E05,2023-01-05_14h31.11.585,t1_Paradigm,2021.1.4,59.98980025955487,
Y,left,Distractor,0,53,53,53,783.089207266923,785.091060859384,left,1,1,0.5902277370914817,R05E05,2023-01-05_14h31.11.585,t1_Paradigm,2021.1.4,59.98980025955487,
V,left,Distractor,0,54,54,54,786.5891216127202,788.5888649714179,left,1,1,0.7563558847177774,R05E05,2023-01-05_14h31.11.585,t1_Paradigm,2021.1.4,59.98980025955487,
B,left,Distractor,0,55,55,55,790.0890465450939,792.0910547641106,left,1,1,0.5182933988980949,R05E05,2023-01-05_14h31.11.585,t1_Paradigm,2021.1.4,59.98980025955487,
J,left,Pretarget,0,56,56,56,793.5891055727843,795.5906139826402,left,1,1,0.538683237042278,R05E05,2023-01-05_14h31.11.585,t1_Paradigm,2021.1.4,59.98980025955487,
J,right,Target,0,57,57,57,797.0890988358296,799.0891889811028,right,1,1,0.5760800591669977,R05E05,2023-01-05_14h31.11.585,t1_Paradigm,2021.1.4,59.98980025955487,
H,left,Distractor,0,58,58,58,800.5890953070484,802.5888300039805,left,1,1,0.5324814978521317,R05E05,2023-01-05_14h31.11.585,t1_Paradigm,2021.1.4,59.98980025955487,
J,left,Lure,0,59,59,59,804.0891142343171,806.0909145737533,left,1,1,0.9661871748976409,R05E05,2023-01-05_14h31.11.585,t1_Paradigm,2021.1.4,59.98980025955487,
D,left,Pretarget,0,60,60,60,807.588865933707,809.5910868442152,left,1,1,1.0340463686734438,R05E05,2023-01-05_14h31.11.585,t1_Paradigm,2021.1.4,59.98980025955487,
D,right,Target,0,61,61,61,811.0891030062921,813.0891309159342,right,1,1,0.432134069269523,R05E05,2023-01-05_14h31.11.585,t1_Paradigm,2021.1.4,59.98980025955487,
R,left,Distractor,0,62,62,62,814.5888951267116,816.5907949146349,left,1,1,0.43435016786679626,R05E05,2023-01-05_14h31.11.585,t1_Paradigm,2021.1.4,59.98980025955487,
F,left,Distractor,0,63,63,63,818.0891135926358,820.091221901821,left,1,1,0.48587862798012793,R05E05,2023-01-05_14h31.11.585,t1_Paradigm,2021.1.4,59.98980025955487,
F,left,Distractor,0,0,0,0,966.5629656838719,968.5558406771161,None,0,2,,R05E05,2023-01-05_14h31.11.585,t1_Paradigm,2021.1.4,59.98980025955487,
N,left,Pretarget,0,1,1,1,970.0556613488588,972.0563645462971,None,0,2,,R05E05,2023-01-05_14h31.11.585,t1_Paradigm,2021.1.4,59.98980025955487,
V,left,Distractor,0,2,2,2,973.5554958151188,975.5563363158144,left,1,2,0.8446511121001095,R05E05,2023-01-05_14h31.11.585,t1_Paradigm,2021.1.4,59.98980025955487,
N,right,Target,0,3,3,3,977.05522570014,979.0570173778106,right,1,2,0.6880119596607983,R05E05,2023-01-05_14h31.11.585,t1_Paradigm,2021.1.4,59.98980025955487,
N,left,Lure,0,4,4,4,980.5555936596356,982.5556250982918,left,1,2,1.077592960326001,R05E05,2023-01-05_14h31.11.585,t1_Paradigm,2021.1.4,59.98980025955487,
X,left,Distractor,0,5,5,5,984.0553751937114,986.055777479196,left,1,2,0.7455961941741407,R05E05,2023-01-05_14h31.11.585,t1_Paradigm,2021.1.4,59.98980025955487,
G,left,Pretarget,0,6,6,6,987.5554387124721,989.5566295285244,left,1,2,0.540472348453477,R05E05,2023-01-05_14h31.11.585,t1_Paradigm,2021.1.4,59.98980025955487,
H,left,Pretarget,0,7,7,7,991.0555959052872,993.0563937393017,left,1,2,0.4808115642517805,R05E05,2023-01-05_14h31.11.585,t1_Paradigm,2021.1.4,59.98980025955487,
G,right,Target,0,8,8,8,994.5555625420529,996.5568252175581,right,1,2,0.5001395486760885,R05E05,2023-01-05_14h31.11.585,t1_Paradigm,2021.1.4,59.98980025955487,
H,right,Target,0,9,9,9,998.0553835346363,1000.0568896988407,right,1,2,0.5521094319410622,R05E05,2023-01-05_14h31.11.585,t1_Paradigm,2021.1.4,59.98980025955487,
T,left,Pretarget,0,10,10,10,1001.5555208376609,1003.5560745415278,left,1,2,0.46086796117015183,R05E05,2023-01-05_14h31.11.585,t1_Paradigm,2021.1.4,59.98980025955487,
K,left,Distractor,0,11,11,11,1005.05522858724,1007.0564732982311,left,1,2,0.9127938945312053,R05E05,2023-01-05_14h31.11.585,t1_Paradigm,2021.1.4,59.98980025955487,
T,right,Target,0,12,12,12,1008.5554643766955,1010.5557171683758,right,1,2,0.7253808719106019,R05E05,2023-01-05_14h31.11.585,t1_Paradigm,2021.1.4,59.98980025955487,
T,left,Lure,0,13,13,13,1012.0554640558548,1014.0556042462122,left,1,2,0.7136100141797215,R05E05,2023-01-05_14h31.11.585,t1_Paradigm,2021.1.4,59.98980025955487,
J,left,Distractor,0,14,14,14,1015.5556071333122,1017.55701416987,left,1,2,0.8919286280870438,R05E05,2023-01-05_14h31.11.585,t1_Paradigm,2021.1.4,59.98980025955487,
Q,left,Pretarget,0,15,15,15,1019.0555307825562,1021.0578707105014,left,1,2,0.6392439985647798,R05E05,2023-01-05_14h31.11.585,t1_Paradigm,2021.1.4,59.98980025955487,
M,left,Distractor,0,16,16,16,1022.5555737700779,1024.5571296585258,left,1,2,0.6442414482589811,R05E05,2023-01-05_14h31.11.585,t1_Paradigm,2021.1.4,59.98980025955487,
Q,right,Target,0,17,17,17,1026.0552500810008,1028.05726535758,right,1,2,0.776053112000227,R05E05,2023-01-05_14h31.11.585,t1_Paradigm,2021.1.4,59.98980025955487,
R,left,Distractor,0,18,18,18,1029.5554836248048,1031.5570003753528,left,1,2,1.1320243552327156,R05E05,2023-01-05_14h31.11.585,t1_Paradigm,2021.1.4,59.98980025955487,
W,left,Distractor,0,19,19,19,1033.055527253775,1035.0573057786096,left,1,2,0.6717803534120321,R05E05,2023-01-05_14h31.11.585,t1_Paradigm,2021.1.4,59.98980025955487,
C,left,Pretarget,0,20,20,20,1036.5552548931446,1038.5570664606057,left,1,2,0.6283598369918764,R05E05,2023-01-05_14h31.11.585,t1_Paradigm,2021.1.4,59.98980025955487,
T,left,Distractor,0,21,21,21,1040.055505760014,1042.0566481351852,left,1,2,0.5363952789921314,R05E05,2023-01-05_14h31.11.585,t1_Paradigm,2021.1.4,59.98980025955487,
C,right,Target,0,22,22,22,1043.5555208376609,1045.5554326171987,right,1,2,0.4614267977885902,R05E05,2023-01-05_14h31.11.585,t1_Paradigm,2021.1.4,59.98980025955487,
F,left,Pretarget,0,23,23,23,1047.0555243664421,1049.05701416987,left,1,2,0.6879750674124807,R05E05,2023-01-05_14h31.11.585,t1_Paradigm,2021.1.4,59.98980025955487,
C,right,Target,0,24,24,24,1050.555471434258,1052.5568024406675,right,1,2,0.6601006034761667,R05E05,2023-01-05_14h31.11.585,t1_Paradigm,2021.1.4,59.98980025955487,
F,right,Target,0,25,25,25,1054.0555054391734,1056.0572534878738,right,1,2,0.7917691897600889,R05E05,2023-01-05_14h31.11.585,t1_Paradigm,2021.1.4,59.98980025955487,
H,left,Distractor,0,26,26,26,1057.5551583317574,1059.5552690082695,left,1,2,0.4937228721100837,R05E05,2023-01-05_14h31.11.585,t1_Paradigm,2021.1.4,59.98980025955487,
H,left,Lure,0,27,27,27,1061.0554932488594,1063.055491965497,left,1,2,1.0894661536440253,R05E05,2023-01-05_14h31.11.585,t1_Paradigm,2021.1.4,59.98980025955487,
P,left,Distractor,0,28,28,28,1064.5555795445107,1066.5562211479992,left,1,2,1.3167201871983707,R05E05,2023-01-05_14h31.11.585,t1_Paradigm,2021.1.4,59.98980025955487,
G,left,Pretarget,0,29,29,29,1068.0552965973038,1070.057742710691,left,1,2,0.5992182060144842,R05E05,2023-01-05_14h31.11.585,t1_Paradigm,2021.1.4,59.98980025955487,
K,left,Distractor,0,30,30,30,1071.5553790433332,1073.5564842054155,left,1,2,0.6204556026495993,R05E05,2023-01-05_14h31.11.585,t1_Paradigm,2021.1.4,59.98980025955487,
G,right,Target,0,31,31,31,1075.0555371986702,1077.0562962156255,right,1,2,0.7367600305005908,R05E05,2023-01-05_14h31.11.585,t1_Paradigm,2021.1.4,59.98980025955487,
M,left,Pretarget,0,32,32,32,1078.555523404153,1080.5563568470534,left,1,2,0.5648715670686215,R05E05,2023-01-05_14h31.11.585,t1_Paradigm,2021.1.4,59.98980025955487,
B,left,Distractor,0,33,33,33,1082.055467584636,1084.0574315330014,left,1,2,0.6155168598052114,R05E05,2023-01-05_14h31.11.585,t1_Paradigm,2021.1.4,59.98980025955487,
M,right,Target,0,34,34,34,1085.5551865622401,1087.5576490366366,right,1,2,0.5393771312665194,R05E05,2023-01-05_14h31.11.585,t1_Paradigm,2021.1.4,59.98980025955487,
M,left,Lure,0,35,35,35,1089.0554743215907,1091.055467584636,left,1,2,0.6894696827512234,R05E05,2023-01-05_14h31.11.585,t1_Paradigm,2021.1.4,59.98980025955487,
T,left,Distractor,0,36,36,36,1092.5554749630392,1094.5566600046586,left,1,2,0.53226591902785,R05E05,2023-01-05_14h31.11.585,t1_Paradigm,2021.1.4,59.98980025955487,
F,left,Distractor,0,37,37,37,1096.0551544821355,1098.0580035224557,left,1,2,0.7751628870610148,R05E05,2023-01-05_14h31.11.585,t1_Paradigm,2021.1.4,59.98980025955487,
X,left,Distractor,0,38,38,38,1099.555328998249,1101.5566330573056,None,0,2,,R05E05,2023-01-05_14h31.11.585,t1_Paradigm,2021.1.4,59.98980025955487,
C,left,Distractor,0,39,39,39,1103.0553806473035,1105.056258681696,left,1,2,1.120666369330138,R05E05,2023-01-05_14h31.11.585,t1_Paradigm,2021.1.4,59.98980025955487,
R,left,Distractor,0,40,40,40,1106.5554598853923,1108.5566956137773,left,1,2,0.8840372257400304,R05E05,2023-01-05_14h31.11.585,t1_Paradigm,2021.1.4,59.98980025955487,
B,left,Pretarget,0,41,41,41,1110.055165068712,1112.056246491382,left,1,2,1.1445940092671663,R05E05,2023-01-05_14h31.11.585,t1_Paradigm,2021.1.4,59.98980025955487,
H,left,Distractor,0,42,42,42,1113.5554669429548,1115.556680856971,left,1,2,0.7321876434143633,R05E05,2023-01-05_14h31.11.585,t1_Paradigm,2021.1.4,59.98980025955487,
B,right,Target,0,43,43,43,1117.0552009984385,1119.0559985116124,right,1,2,0.8009158889763057,R05E05,2023-01-05_14h31.11.585,t1_Paradigm,2021.1.4,59.98980025955487,
W,left,Pretarget,0,44,44,44,1120.5555381609593,1122.5575755729806,left,1,2,0.4993423563428223,R05E05,2023-01-05_14h31.11.585,t1_Paradigm,2021.1.4,59.98980025955487,
L,left,Pretarget,0,45,45,45,1124.0554820208345,1126.0562304512132,left,1,2,0.6327631615567952,R05E05,2023-01-05_14h31.11.585,t1_Paradigm,2021.1.4,59.98980025955487,
W,right,Target,0,46,46,46,1127.5555509931874,1129.5555548428092,right,1,2,0.7332915221340954,R05E05,2023-01-05_14h31.11.585,t1_Paradigm,2021.1.4,59.98980025955487,
L,right,Target,0,47,47,47,1131.0555105721578,1133.0566192630213,right,1,2,0.5923007579986006,R05E05,2023-01-05_14h31.11.585,t1_Paradigm,2021.1.4,59.98980025955487,
W,right,Target,0,48,48,48,1134.5554297300987,1136.557019623462,right,1,2,0.6120608625933528,R05E05,2023-01-05_14h31.11.585,t1_Paradigm,2021.1.4,59.98980025955487,
X,left,Distractor,0,49,49,49,1138.0551535198465,1140.0566224709619,left,1,2,0.7124734134413302,R05E05,2023-01-05_14h31.11.585,t1_Paradigm,2021.1.4,59.98980025955487,
R,left,Distractor,0,50,50,50,1141.5554185020737,1143.5569054181688,None,0,2,,R05E05,2023-01-05_14h31.11.585,t1_Paradigm,2021.1.4,59.98980025955487,
V,left,Pretarget,0,51,51,51,1145.055423955666,1147.056419403525,left,1,2,0.9286058919969946,R05E05,2023-01-05_14h31.11.585,t1_Paradigm,2021.1.4,59.98980025955487,
Z,left,Distractor,0,52,52,52,1148.554908427177,1150.5547582919244,left,1,2,0.7741167526692152,R05E05,2023-01-05_14h31.11.585,t1_Paradigm,2021.1.4,59.98980025955487,
V,right,Target,0,53,53,53,1152.0554412789643,1154.0575066006277,right,1,2,0.48738671699538827,R05E05,2023-01-05_14h31.11.585,t1_Paradigm,2021.1.4,59.98980025955487,
V,left,Lure,0,54,54,54,1155.5554188226815,1157.5554114442784,left,1,2,1.309567912016064,R05E05,2023-01-05_14h31.11.585,t1_Paradigm,2021.1.4,59.98980025955487,
N,left,Distractor,0,55,55,55,1159.055440637283,1161.0570760846604,left,1,2,0.7677716149482876,R05E05,2023-01-05_14h31.11.585,t1_Paradigm,2021.1.4,59.98980025955487,
B,left,Distractor,0,56,56,56,1162.5549610387534,1164.5565599144902,left,1,2,0.7244633790105581,R05E05,2023-01-05_14h31.11.585,t1_Paradigm,2021.1.4,59.98980025955487,
V,left,Lure,0,57,57,57,1166.0551124571357,1168.0565012078732,left,1,2,0.7126427970360965,R05E05,2023-01-05_14h31.11.585,t1_Paradigm,2021.1.4,59.98980025955487,
J,left,Distractor,0,58,58,58,1169.5553816098254,1171.5565114736091,left,1,2,0.7805218801368028,R05E05,2023-01-05_14h31.11.585,t1_Paradigm,2021.1.4,59.98980025955487,
H,left,Distractor,0,59,59,59,1173.0554335797206,1175.0555827524513,left,1,2,0.4975057663396001,R05E05,2023-01-05_14h31.11.585,t1_Paradigm,2021.1.4,59.98980025955487,
X,left,Pretarget,0,60,60,60,1176.5554059906863,1178.5557146018837,left,1,2,0.5330967956688255,R05E05,2023-01-05_14h31.11.585,t1_Paradigm,2021.1.4,59.98980025955487,
P,left,Distractor,0,61,61,61,1180.0554820208345,1182.0562782506458,left,1,2,0.6165601070970297,R05E05,2023-01-05_14h31.11.585,t1_Paradigm,2021.1.4,59.98980025955487,
X,right,Target,0,62,62,62,1183.555321619846,1185.5556440255605,right,1,2,0.6211777273565531,R05E05,2023-01-05_14h31.11.585,t1_Paradigm,2021.1.4,59.98980025955487,
Q,left,Distractor,0,63,63,63,1187.0553915547207,1189.0715631707571,left,1,2,0.5292327385395765,R05E05,2023-01-05_14h31.11.585,t1_Paradigm,2021.1.4,59.98980025955487,
B,left,Pretarget,0,0,0,0,1213.1976427487098,1215.1899107850622,None,0,2,,R05E05,2023-01-05_14h31.11.585,t1_Paradigm,2021.1.4,59.98980025955487,
F,left,Distractor,0,1,1,1,1216.688686284935,1218.6891678082757,None,0,2,,R05E05,2023-01-05_14h31.11.585,t1_Paradigm,2021.1.4,59.98980025955487,
B,right,Target,0,2,2,2,1220.188643618254,1222.190741982311,right,1,2,0.7861256450414658,R05E05,2023-01-05_14h31.11.585,t1_Paradigm,2021.1.4,59.98980025955487,
V,left,Distractor,0,3,3,3,1223.688689172035,1225.689118084032,left,1,2,0.5836692664306611,R05E05,2023-01-05_14h31.11.585,t1_Paradigm,2021.1.4,59.98980025955487,
G,left,Pretarget,0,4,4,4,1227.188442796236,1229.1892842592206,left,1,2,0.5395394570659846,R05E05,2023-01-05_14h31.11.585,t1_Paradigm,2021.1.4,59.98980025955487,
B,left,Lure,0,5,5,5,1230.6886731318664,1232.689180640271,left,1,2,1.3438616190105677,R05E05,2023-01-05_14h31.11.585,t1_Paradigm,2021.1.4,59.98980025955487,
G,right,Target,0,6,6,6,1234.1885791369714,1236.1894873268902,right,1,2,0.6435007171239704,R05E05,2023-01-05_14h31.11.585,t1_Paradigm,2021.1.4,59.98980025955487,
Y,left,Pretarget,0,7,7,7,1237.6884877085686,1239.6908648496028,left,1,2,0.5179161361884326,R05E05,2023-01-05_14h31.11.585,t1_Paradigm,2021.1.4,59.98980025955487,
P,left,Distractor,0,8,8,8,1241.188381202286,1243.1894324696623,left,1,2,0.5394679182209074,R05E05,2023-01-05_14h31.11.585,t1_Paradigm,2021.1.4,59.98980025955487,
Y,right,Target,0,9,9,9,1244.6887177233584,1246.6906585739926,right,1,2,0.5422803871333599,R05E05,2023-01-05_14h31.11.585,t1_Paradigm,2021.1.4,59.98980025955487,
X,left,Distractor,0,10,10,10,1248.1885075983591,1250.1899701333605,left,1,2,0.6430156647693366,R05E05,2023-01-05_14h31.11.585,t1_Paradigm,2021.1.4,59.98980025955487,
Y,right,Target,0,11,11,11,1251.6884601195343,1253.6907939522061,right,1,2,0.965970633784309,R05E05,2023-01-05_14h31.11.585,t1_Paradigm,2021.1.4,59.98980025955487,
N,left,Distractor,0,12,12,12,1255.1883205708582,1257.1894828355871,left,1,2,0.8113271889742464,R05E05,2023-01-05_14h31.11.585,t1_Paradigm,2021.1.4,59.98980025955487,
Y,right,Target,0,13,13,13,1258.6886439390946,1260.6879173230845,right,1,2,0.5930206370539963,R05E05,2023-01-05_14h31.11.585,t1_Paradigm,2021.1.4,59.98980025955487,
Y,left,Lure,0,14,14,14,1262.1886801896617,1264.188603518065,left,1,2,1.0763075076974928,R05E05,2023-01-05_14h31.11.585,t1_Paradigm,2021.1.4,59.98980025955487,
K,left,Distractor,0,15,15,15,1265.688628861215,1267.6894125798717,left,1,2,1.4317507112864405,R05E05,2023-01-05_14h31.11.585,t1_Paradigm,2021.1.4,59.98980025955487,
T,left,Pretarget,0,16,16,16,1269.1883706159424,1271.1894209207967,left,1,2,0.9234753095079213,R05E05,2023-01-05_14h31.11.585,t1_Paradigm,2021.1.4,59.98980025955487,
J,left,Distractor,0,17,17,17,1272.6887206106912,1274.6907500023954,left,1,2,0.8138842997141182,R05E05,2023-01-05_14h31.11.585,t1_Paradigm,2021.1.4,59.98980025955487,
T,right,Target,0,18,18,18,1276.188626936404,1278.1904426743276,right,1,2,0.5785460623446852,R05E05,2023-01-05_14h31.11.585,t1_Paradigm,2021.1.4,59.98980025955487,
S,left,Pretarget,0,19,19,19,1279.688648430165,1281.6892322893254,left,1,2,0.7117548177484423,R05E05,2023-01-05_14h31.11.585,t1_Paradigm,2021.1.4,59.98980025955487,
R,left,Distractor,0,20,20,20,1283.1884055833798,1285.1898045996204,left,1,2,0.6349943380337209,R05E05,2023-01-05_14h31.11.585,t1_Paradigm,2021.1.4,59.98980025955487,
S,right,Target,0,21,21,21,1286.6886131421197,1288.6891697330866,None,0,2,,R05E05,2023-01-05_14h31.11.585,t1_Paradigm,2021.1.4,59.98980025955487,
Q,left,Distractor,0,22,22,22,1290.1885140142404,1292.1906155864708,None,0,2,,R05E05,2023-01-05_14h31.11.585,t1_Paradigm,2021.1.4,59.98980025955487,
D,left,Distractor,0,23,23,23,1293.6883221748285,1295.69042567187,None,0,2,,R05E05,2023-01-05_14h31.11.585,t1_Paradigm,2021.1.4,59.98980025955487,
F,left,Distractor,0,24,24,24,1297.1885900443885,1299.1892082293052,left,1,2,0.9875618745572865,R05E05,2023-01-05_14h31.11.585,t1_Paradigm,2021.1.4,59.98980025955487,
Z,left,Distractor,0,25,25,25,1300.688625011593,1302.6889086004812,left,1,2,1.3440727062989026,R05E05,2023-01-05_14h31.11.585,t1_Paradigm,2021.1.4,59.98980025955487,
P,left,Distractor,0,26,26,26,1304.18859806424,1306.1907490401063,left,1,2,1.1541102724149823,R05E05,2023-01-05_14h31.11.585,t1_Paradigm,2021.1.4,59.98980025955487,
H,left,Distractor,0,27,27,27,1307.6884293225594,1309.688777713338,left,1,2,0.9998293335083872,R05E05,2023-01-05_14h31.11.585,t1_Paradigm,2021.1.4,59.98980025955487,
Z,left,Pretarget,0,28,28,28,1311.1882262551226,1313.1902986343484,left,1,2,0.9225597414188087,R05E05,2023-01-05_14h31.11.585,t1_Paradigm,2021.1.4,59.98980025955487,
J,left,Pretarget,0,29,29,29,1314.6884739140514,1316.6900782436132,left,1,2,1.1186061806511134,R05E05,2023-01-05_14h31.11.585,t1_Paradigm,2021.1.4,59.98980025955487,
Z,right,Target,0,30,30,30,1318.1882339543663,1320.1905007394962,right,1,2,0.5784604081418365,R05E05,2023-01-05_14h31.11.585,t1_Paradigm,2021.1.4,59.98980025955487,
J,right,Target,0,31,31,31,1321.6885910066776,1323.6890924198087,None,0,2,,R05E05,2023-01-05_14h31.11.585,t1_Paradigm,2021.1.4,59.98980025955487,
V,left,Pretarget,0,32,32,32,1325.1883975632954,1327.1904943233822,left,1,2,0.7784883179701865,R05E05,2023-01-05_14h31.11.585,t1_Paradigm,2021.1.4,59.98980025955487,
Z,left,Lure,0,33,33,33,1328.688523638295,1330.701180229662,left,1,2,1.1876799296587706,R05E05,2023-01-05_14h31.11.585,t1_Paradigm,2021.1.4,59.98980025955487,
V,right,Target,0,34,34,34,1332.1883683702908,1334.1899691710714,right,1,2,0.866706873755902,R05E05,2023-01-05_14h31.11.585,t1_Paradigm,2021.1.4,59.98980025955487,
X,left,Distractor,0,35,35,35,1335.6882785458583,1337.6906540826894,left,1,2,0.5660296613350511,R05E05,2023-01-05_14h31.11.585,t1_Paradigm,2021.1.4,59.98980025955487,
S,left,Distractor,0,36,36,36,1339.188476159703,1341.1895595071837,left,1,2,0.9552333992905915,R05E05,2023-01-05_14h31.11.585,t1_Paradigm,2021.1.4,59.98980025955487,
Q,left,Distractor,0,37,37,37,1342.6884363803547,1344.6904304840136,left,1,2,0.7824069114867598,R05E05,2023-01-05_14h31.11.585,t1_Paradigm,2021.1.4,59.98980025955487,
P,left,Distractor,0,38,38,38,1346.1882605808787,1348.1889134123921,left,1,2,0.8678319256287068,R05E05,2023-01-05_14h31.11.585,t1_Paradigm,2021.1.4,59.98980025955487,
S,left,Lure,0,39,39,39,1349.688580420334,1351.6907259423751,left,1,2,1.174048742512241,R05E05,2023-01-05_14h31.11.585,t1_Paradigm,2021.1.4,59.98980025955487,
K,left,Pretarget,0,40,40,40,1353.18872285611,1355.187560591381,None,0,2,,R05E05,2023-01-05_14h31.11.585,t1_Paradigm,2021.1.4,59.98980025955487,
L,left,Distractor,0,41,41,41,1356.688628861215,1358.68805655092,left,1,2,1.0087899677455425,R05E05,2023-01-05_14h31.11.585,t1_Paradigm,2021.1.4,59.98980025955487,
K,right,Target,0,42,42,42,1360.1886795479804,1362.1892826552503,right,1,2,0.6915690093301237,R05E05,2023-01-05_14h31.11.585,t1_Paradigm,2021.1.4,59.98980025955487,
B,left,Distractor,0,43,43,43,1363.6885005405638,1365.689259557519,left,1,2,0.6795905928593129,R05E05,2023-01-05_14h31.11.585,t1_Paradigm,2021.1.4,59.98980025955487,
N,left,Distractor,0,44,44,44,1367.188608329976,1369.1885903649963,left,1,2,0.9083610558882356,R05E05,2023-01-05_14h31.11.585,t1_Paradigm,2021.1.4,59.98980025955487,
S,left,Pretarget,0,45,45,45,1370.6885480191559,1372.6906152656302,left,1,2,1.422224824083969,R05E05,2023-01-05_14h31.11.585,t1_Paradigm,2021.1.4,59.98980025955487,
Z,left,Distractor,0,46,46,46,1374.1885624553543,1376.1905514262617,None,0,2,,R05E05,2023-01-05_14h31.11.585,t1_Paradigm,2021.1.4,59.98980025955487,
S,right,Target,0,47,47,47,1377.6885480191559,1379.688514335081,left,0,2,1.0484227780252695,R05E05,2023-01-05_14h31.11.585,t1_Paradigm,2021.1.4,59.98980025955487,
C,left,Distractor,0,48,48,48,1381.1883529718034,1383.1889291317202,left,1,2,0.8277317071333528,R05E05,2023-01-05_14h31.11.585,t1_Paradigm,2021.1.4,59.98980025955487,
T,left,Pretarget,0,49,49,49,1384.6885762498714,1386.69021811313,left,1,2,1.2466747295111418,R05E05,2023-01-05_14h31.11.585,t1_Paradigm,2021.1.4,59.98980025955487,
S,left,Lure,0,50,50,50,1388.1884460044093,1390.1889759688638,left,1,2,1.0439655587542802,R05E05,2023-01-05_14h31.11.585,t1_Paradigm,2021.1.4,59.98980025955487,
T,right,Target,0,51,51,51,1391.6884800093248,1393.6891774323303,right,1,2,0.6956496075727046,R05E05,2023-01-05_14h31.11.585,t1_Paradigm,2021.1.4,59.98980025955487,
N,left,Pretarget,0,52,52,52,1395.1886320693884,1397.1891187254805,left,1,2,0.8437015388626605,R05E05,2023-01-05_14h31.11.585,t1_Paradigm,2021.1.4,59.98980025955487,
B,left,Distractor,0,53,53,53,1398.6881277689245,1400.690530574182,left,1,2,1.2942400046158582,R05E05,2023-01-05_14h31.11.585,t1_Paradigm,2021.1.4,59.98980025955487,
N,right,Target,0,54,54,54,1402.1883321197238,1404.1904510152526,right,1,2,0.5302978004328907,R05E05,2023-01-05_14h31.11.585,t1_Paradigm,2021.1.4,59.98980025955487,
N,left,Lure,0,55,55,55,1405.688603518065,1407.6882599391975,left,1,2,1.368359002750367,R05E05,2023-01-05_14h31.11.585,t1_Paradigm,2021.1.4,59.98980025955487,
X,left,Distractor,0,56,56,56,1409.1883340445347,1411.189379537478,left,1,2,0.8435087369289249,R05E05,2023-01-05_14h31.11.585,t1_Paradigm,2021.1.4,59.98980025955487,
W,left,Distractor,0,57,57,57,1412.6886089716572,1414.6905020226259,left,1,2,1.2783769997768104,R05E05,2023-01-05_14h31.11.585,t1_Paradigm,2021.1.4,59.98980025955487,
S,left,Distractor,0,58,58,58,1416.1885531521402,1418.1884273977485,left,1,2,1.09233444230631,R05E05,2023-01-05_14h31.11.585,t1_Paradigm,2021.1.4,59.98980025955487,
L,left,Distractor,0,59,59,59,1419.6884270769078,1421.6899784742855,left,1,2,0.9986369134858251,R05E05,2023-01-05_14h31.11.585,t1_Paradigm,2021.1.4,59.98980025955487,
K,left,Pretarget,0,60,60,60,1423.188522676006,1425.1898973113857,left,1,2,0.6348249546717852,R05E05,2023-01-05_14h31.11.585,t1_Paradigm,2021.1.4,59.98980025955487,
V,left,Pretarget,0,61,61,61,1426.6882288216148,1428.688484500628,left,1,2,1.2963194414041936,R05E05,2023-01-05_14h31.11.585,t1_Paradigm,2021.1.4,59.98980025955487,
K,right,Target,0,62,62,62,1430.1882400496397,1432.1884982949123,right,1,2,0.7402808298356831,R05E05,2023-01-05_14h31.11.585,t1_Paradigm,2021.1.4,59.98980025955487,
V,right,Target,0,63,63,63,1433.6882512776647,1435.6886580542196,right,1,2,0.7438783005345613,R05E05,2023-01-05_14h31.11.585,t1_Paradigm,2021.1.4,59.98980025955487,
R,left,Distractor,0,0,0,0,1540.2870347974822,1542.290297351312,None,0,3,,R05E05,2023-01-05_14h31.11.585,t1_Paradigm,2021.1.4,59.98980025955487,
P,left,Lure,0,1,1,1,1543.7879227767698,1545.789034675574,None,0,3,,R05E05,2023-01-05_14h31.11.585,t1_Paradigm,2021.1.4,59.98980025955487,
V,left,Distractor,0,2,2,2,1547.2881521498784,1549.2890051617287,None,0,3,,R05E05,2023-01-05_14h31.11.585,t1_Paradigm,2021.1.4,59.98980025955487,
P,left,Pretarget,0,3,3,3,1550.788199949311,1552.7892749560997,left,1,3,0.9393796976655722,R05E05,2023-01-05_14h31.11.585,t1_Paradigm,2021.1.4,59.98980025955487,
Z,left,Distractor,0,4,4,4,1554.2883103052154,1556.2907538521104,left,1,3,1.1498532332479954,R05E05,2023-01-05_14h31.11.585,t1_Paradigm,2021.1.4,59.98980025955487,
L,left,Pretarget,0,5,5,5,1557.7881662652362,1559.7905241579283,left,1,3,1.3621604715008289,R05E05,2023-01-05_14h31.11.585,t1_Paradigm,2021.1.4,59.98980025955487,
P,right,Target,0,6,6,6,1561.2883317989763,1563.289097873494,left,0,3,1.0799322465900332,R05E05,2023-01-05_14h31.11.585,t1_Paradigm,2021.1.4,59.98980025955487,
S,left,Distractor,0,7,7,7,1564.788370295195,1566.7902617421933,None,0,3,,R05E05,2023-01-05_14h31.11.585,t1_Paradigm,2021.1.4,59.98980025955487,
L,right,Target,0,8,8,8,1568.2878740148153,1570.2881643404253,left,0,3,1.2325745304115117,R05E05,2023-01-05_14h31.11.585,t1_Paradigm,2021.1.4,59.98980025955487,
D,left,Distractor,0,9,9,9,1571.7880514182616,1573.7901023037266,left,1,3,1.4426011890172958,R05E05,2023-01-05_14h31.11.585,t1_Paradigm,2021.1.4,59.98980025955487,
G,left,Distractor,0,10,10,10,1575.2881277690176,1577.288557322463,None,0,3,,R05E05,2023-01-05_14h31.11.585,t1_Paradigm,2021.1.4,59.98980025955487,
M,left,Pretarget,0,11,11,11,1578.7882448616438,1580.7883789567277,None,0,3,,R05E05,2023-01-05_14h31.11.585,t1_Paradigm,2021.1.4,59.98980025955487,
Y,left,Distractor,0,12,12,12,1582.2881107665598,1584.2905007395893,None,0,3,,R05E05,2023-01-05_14h31.11.585,t1_Paradigm,2021.1.4,59.98980025955487,
V,left,Distractor,0,13,13,13,1585.7881505459081,1587.7897292112466,left,1,3,1.202797711826861,R05E05,2023-01-05_14h31.11.585,t1_Paradigm,2021.1.4,59.98980025955487,
M,right,Target,0,14,14,14,1589.288182305172,1591.2903891005553,left,0,3,0.9340255167335272,R05E05,2023-01-05_14h31.11.585,t1_Paradigm,2021.1.4,59.98980025955487,
S,left,Pretarget,0,15,15,15,1592.7881855133455,1594.7887177234516,left,1,3,1.0358258560299873,R05E05,2023-01-05_14h31.11.585,t1_Paradigm,2021.1.4,59.98980025955487,
Q,left,Distractor,0,16,16,16,1596.288332119584,1598.28861314198,None,0,3,,R05E05,2023-01-05_14h31.11.585,t1_Paradigm,2021.1.4,59.98980025955487,
R,left,Pretarget,0,17,17,17,1599.7883927512448,1601.787785794353,None,0,3,,R05E05,2023-01-05_14h31.11.585,t1_Paradigm,2021.1.4,59.98980025955487,
S,right,Target,0,18,18,18,1603.2884184154682,1605.2890109361615,right,1,3,0.663658294826746,R05E05,2023-01-05_14h31.11.585,t1_Paradigm,2021.1.4,59.98980025955487,
F,left,Distractor,0,19,19,19,1606.788337573409,1608.7898568904493,left,1,3,0.9067907312419266,R05E05,2023-01-05_14h31.11.585,t1_Paradigm,2021.1.4,59.98980025955487,
R,right,Target,0,20,20,20,1610.2883273076732,1612.2903643988539,right,1,3,1.4062694285530597,R05E05,2023-01-05_14h31.11.585,t1_Paradigm,2021.1.4,59.98980025955487,
P,left,Distractor,0,21,21,21,1613.7883083804045,1615.7892088708468,left,1,3,1.2033260725438595,R05E05,2023-01-05_14h31.11.585,t1_Paradigm,2021.1.4,59.98980025955487,
L,left,Distractor,0,22,22,22,1617.2881566411816,1619.2887251018547,None,0,3,,R05E05,2023-01-05_14h31.11.585,t1_Paradigm,2021.1.4,59.98980025955487,
R,right,Target,0,23,23,23,1620.7881483002566,1622.8070682249963,right,1,3,0.7933619702234864,R05E05,2023-01-05_14h31.11.585,t1_Paradigm,2021.1.4,59.98980025955487,
H,left,Pretarget,0,24,24,24,1624.2882981146686,1626.2886012722738,None,0,3,,R05E05,2023-01-05_14h31.11.585,t1_Paradigm,2021.1.4,59.98980025955487,
G,left,Pretarget,0,25,25,25,1627.7878692026716,1629.789676599903,left,1,3,0.786820180946961,R05E05,2023-01-05_14h31.11.585,t1_Paradigm,2021.1.4,59.98980025955487,
T,left,Distractor,0,26,26,26,1631.2881781349424,1633.2903117872775,left,1,3,1.1743085922207683,R05E05,2023-01-05_14h31.11.585,t1_Paradigm,2021.1.4,59.98980025955487,
H,right,Target,0,27,27,27,1634.7882333127782,1636.7885114478413,right,1,3,0.46005119988694787,R05E05,2023-01-05_14h31.11.585,t1_Paradigm,2021.1.4,59.98980025955487,
G,right,Target,0,28,28,28,1638.287959989626,1640.2905565591063,right,1,3,0.6699216281995177,R05E05,2023-01-05_14h31.11.585,t1_Paradigm,2021.1.4,59.98980025955487,
D,left,Distractor,0,29,29,29,1641.7883966008667,1643.7894603793975,left,1,3,0.7230720617808402,R05E05,2023-01-05_14h31.11.585,t1_Paradigm,2021.1.4,59.98980025955487,
N,left,Pretarget,0,30,30,30,1645.28817396448,1647.2891001191456,left,1,3,1.2235131640918553,R05E05,2023-01-05_14h31.11.585,t1_Paradigm,2021.1.4,59.98980025955487,
V,left,Distractor,0,31,31,31,1648.7880831775256,1650.789771557087,left,1,3,0.8428786823060364,R05E05,2023-01-05_14h31.11.585,t1_Paradigm,2021.1.4,59.98980025955487,
R,left,Distractor,0,32,32,32,1652.2878807515372,1654.2880286411382,left,1,3,1.104403645498678,R05E05,2023-01-05_14h31.11.585,t1_Paradigm,2021.1.4,59.98980025955487,
N,right,Target,0,33,33,33,1655.7879734633025,1657.7888524602167,right,1,3,0.6434705615974963,R05E05,2023-01-05_14h31.11.585,t1_Paradigm,2021.1.4,59.98980025955487,
Z,left,Distractor,0,34,34,34,1659.2882256135345,1661.2904340126552,left,1,3,0.6302262614481151,R05E05,2023-01-05_14h31.11.585,t1_Paradigm,2021.1.4,59.98980025955487,
N,left,Lure,0,35,35,35,1662.7880279996898,1664.7889503047336,left,1,3,0.8916511344723403,R05E05,2023-01-05_14h31.11.585,t1_Paradigm,2021.1.4,59.98980025955487,
Y,left,Pretarget,0,36,36,36,1666.2882089319173,1668.2889114876743,left,1,3,1.3437352231703699,R05E05,2023-01-05_14h31.11.585,t1_Paradigm,2021.1.4,59.98980025955487,
Y,left,Lure,0,37,37,37,1669.788241974311,1671.7880581549834,left,1,3,1.1724533955566585,R05E05,2023-01-05_14h31.11.585,t1_Paradigm,2021.1.4,59.98980025955487,
B,left,Distractor,0,38,38,38,1673.288317362778,1675.2897840684745,left,1,3,0.8547310237772763,R05E05,2023-01-05_14h31.11.585,t1_Paradigm,2021.1.4,59.98980025955487,
Y,right,Target,0,39,39,39,1676.788212139858,1678.801066024229,right,1,3,0.7034405989106745,R05E05,2023-01-05_14h31.11.585,t1_Paradigm,2021.1.4,59.98980025955487,
J,left,Distractor,0,40,40,40,1680.2881197489332,1682.2883828063495,left,1,3,0.6561274738050997,R05E05,2023-01-05_14h31.11.585,t1_Paradigm,2021.1.4,59.98980025955487,
X,left,Distractor,0,41,41,41,1683.7882625057828,1685.7903897420038,left,1,3,0.8500595088116825,R05E05,2023-01-05_14h31.11.585,t1_Paradigm,2021.1.4,59.98980025955487,
W,left,Pretarget,0,42,42,42,1687.2882358792704,1689.2889262444805,left,1,3,1.0798818808980286,R05E05,2023-01-05_14h31.11.585,t1_Paradigm,2021.1.4,59.98980025955487,
S,left,Pretarget,0,43,43,43,1690.7881447714753,1692.7901340632234,left,1,3,1.0502763707190752,R05E05,2023-01-05_14h31.11.585,t1_Paradigm,2021.1.4,59.98980025955487,
R,left,Distractor,0,44,44,44,1694.287370035192,1696.288458515657,left,1,3,1.3761320291087031,R05E05,2023-01-05_14h31.11.585,t1_Paradigm,2021.1.4,59.98980025955487,
W,right,Target,0,45,45,45,1697.7878380850889,1699.7905684285797,left,0,3,0.8338914213236421,R05E05,2023-01-05_14h31.11.585,t1_Paradigm,2021.1.4,59.98980025955487,
S,right,Target,0,46,46,46,1701.2881903252564,1703.289101723116,right,1,3,1.0795136003289372,R05E05,2023-01-05_14h31.11.585,t1_Paradigm,2021.1.4,59.98980025955487,
D,left,Distractor,0,47,47,47,1704.78834238532,1706.7901494617108,left,1,3,0.6023039983119816,R05E05,2023-01-05_14h31.11.585,t1_Paradigm,2021.1.4,59.98980025955487,
T,left,Distractor,0,48,48,48,1708.2877678293735,1710.2884703853633,left,1,3,0.5760335430968553,R05E05,2023-01-05_14h31.11.585,t1_Paradigm,2021.1.4,59.98980025955487,
S,right,Target,0,49,49,49,1711.7879593481775,1713.7883439892903,left,0,3,0.580216797767207,R05E05,2023-01-05_14h31.11.585,t1_Paradigm,2021.1.4,59.98980025955487,
K,left,Distractor,0,50,50,50,1715.288245503325,1717.2890786253847,left,1,3,1.143511303467676,R05E05,2023-01-05_14h31.11.585,t1_Paradigm,2021.1.4,59.98980025955487,
S,left,Lure,0,51,51,51,1718.7881957788486,1720.7878727316856,None,0,3,,R05E05,2023-01-05_14h31.11.585,t1_Paradigm,2021.1.4,59.98980025955487,
T,left,Pretarget,0,52,52,52,1722.2880607214756,1724.290399686899,left,1,3,1.0699992622248828,R05E05,2023-01-05_14h31.11.585,t1_Paradigm,2021.1.4,59.98980025955487,
V,left,Distractor,0,53,53,53,1725.787915398134,1727.788752690889,left,1,3,0.915916257770732,R05E05,2023-01-05_14h31.11.585,t1_Paradigm,2021.1.4,59.98980025955487,
B,left,Distractor,0,54,54,54,1729.288268921664,1731.2886416933034,left,1,3,1.1439774283207953,R05E05,2023-01-05_14h31.11.585,t1_Paradigm,2021.1.4,59.98980025955487,
T,right,Target,0,55,55,55,1732.7882763003,1734.800921663409,right,1,3,0.5115023467224091,R05E05,2023-01-05_14h31.11.585,t1_Paradigm,2021.1.4,59.98980025955487,
Y,left,Pretarget,0,56,56,56,1736.2882779042702,1738.2902784238104,left,1,3,0.7341653862968087,R05E05,2023-01-05_14h31.11.585,t1_Paradigm,2021.1.4,59.98980025955487,
T,left,Lure,0,57,57,57,1739.7883504054043,1741.7907894609962,None,0,3,,R05E05,2023-01-05_14h31.11.585,t1_Paradigm,2021.1.4,59.98980025955487,
P,left,Pretarget,0,58,58,58,1743.2880661750678,1745.2903072959743,None,0,3,,R05E05,2023-01-05_14h31.11.585,t1_Paradigm,2021.1.4,59.98980025955487,
Y,right,Target,0,59,59,59,1746.7879532529041,1748.7877296539955,right,1,3,0.7970511903986335,R05E05,2023-01-05_14h31.11.585,t1_Paradigm,2021.1.4,59.98980025955487,
R,left,Distractor,0,60,60,60,1750.288138676202,1752.2888742745854,left,1,3,1.2796435251366347,R05E05,2023-01-05_14h31.11.585,t1_Paradigm,2021.1.4,59.98980025955487,
P,right,Target,0,61,61,61,1753.7877665462438,1755.7903464338742,right,1,3,0.689878704957664,R05E05,2023-01-05_14h31.11.585,t1_Paradigm,2021.1.4,59.98980025955487,
L,left,Distractor,0,62,62,62,1757.2878044007812,1759.2901760882232,left,1,3,0.5181763062719256,R05E05,2023-01-05_14h31.11.585,t1_Paradigm,2021.1.4,59.98980025955487,
V,left,Distractor,0,63,63,63,1760.7877620549407,1762.7890985151753,left,1,3,0.619142560986802,R05E05,2023-01-05_14h31.11.585,t1_Paradigm,2021.1.4,59.98980025955487,
H,left,Lure,0,0,0,0,1797.9454694774467,1799.9381927312352,None,0,3,,R05E05,2023-01-05_14h31.11.585,t1_Paradigm,2021.1.4,59.98980025955487,
B,left,Distractor,0,1,1,1,1801.437918445794,1803.4381805409212,None,0,3,,R05E05,2023-01-05_14h31.11.585,t1_Paradigm,2021.1.4,59.98980025955487,
T,left,Distractor,0,2,2,2,1804.9376897141337,1806.9386967108585,None,0,3,,R05E05,2023-01-05_14h31.11.585,t1_Paradigm,2021.1.4,59.98980025955487,
R,left,Distractor,0,3,3,3,1808.438075638609,1810.4394076075405,left,1,3,0.8890481491107494,R05E05,2023-01-05_14h31.11.585,t1_Paradigm,2021.1.4,59.98980025955487,
H,left,Pretarget,0,4,4,4,1811.9382424557116,1813.9392709459644,left,1,3,0.9732204324100167,R05E05,2023-01-05_14h31.11.585,t1_Paradigm,2021.1.4,59.98980025955487,
K,left,Distractor,0,5,5,5,1815.4381138142198,1817.4381949768867,left,1,3,0.8983234900515527,R05E05,2023-01-05_14h31.11.585,t1_Paradigm,2021.1.4,59.98980025955487,
G,left,Distractor,0,6,6,6,1818.9382270572241,1820.9381680295337,left,1,3,0.822194348089397,R05E05,2023-01-05_14h31.11.585,t1_Paradigm,2021.1.4,59.98980025955487,
H,right,Target,0,7,7,7,1822.4376672580838,1824.4385077585466,left,0,3,0.7777280178852379,R05E05,2023-01-05_14h31.11.585,t1_Paradigm,2021.1.4,59.98980025955487,
Y,left,Pretarget,0,8,8,8,1825.938121192623,1827.9381606511306,left,1,3,1.0221404533367604,R05E05,2023-01-05_14h31.11.585,t1_Paradigm,2021.1.4,59.98980025955487,
S,left,Distractor,0,9,9,9,1829.4377612529788,1831.4393059134018,left,1,3,1.2329399234149605,R05E05,2023-01-05_14h31.11.585,t1_Paradigm,2021.1.4,59.98980025955487,
P,left,Distractor,0,10,10,10,1832.937775047496,1834.9376072681043,left,1,3,0.6468492457643151,R05E05,2023-01-05_14h31.11.585,t1_Paradigm,2021.1.4,59.98980025955487,
Y,right,Target,0,11,11,11,1836.4378443406895,1838.4387374527287,left,0,3,0.889656709972769,R05E05,2023-01-05_14h31.11.585,t1_Paradigm,2021.1.4,59.98980025955487,
H,left,Lure,0,12,12,12,1839.9381914481055,1841.9392581139691,left,1,3,1.4210898277815431,R05E05,2023-01-05_14h31.11.585,t1_Paradigm,2021.1.4,59.98980025955487,
Q,left,Distractor,0,13,13,13,1843.438083017245,1845.438887908822,left,1,3,1.2655166992917657,R05E05,2023-01-05_14h31.11.585,t1_Paradigm,2021.1.4,59.98980025955487,
V,left,Pretarget,0,14,14,14,1846.937999287853,1848.9389132519718,left,1,3,1.1895392965525389,R05E05,2023-01-05_14h31.11.585,t1_Paradigm,2021.1.4,59.98980025955487,
G,left,Distractor,0,15,15,15,1850.43816033029,1852.4383364506066,None,0,3,,R05E05,2023-01-05_14h31.11.585,t1_Paradigm,2021.1.4,59.98980025955487,
Z,left,Pretarget,0,16,16,16,1853.9378189973067,1855.9395022441167,None,0,3,,R05E05,2023-01-05_14h31.11.585,t1_Paradigm,2021.1.4,59.98980025955487,
V,right,Target,0,17,17,17,1857.4380907164887,1859.4395089808386,right,1,3,0.4327824099455029,R05E05,2023-01-05_14h31.11.585,t1_Paradigm,2021.1.4,59.98980025955487,
N,left,Distractor,0,18,18,18,1860.9379822853953,1862.9385748063214,left,1,3,0.6298461114056408,R05E05,2023-01-05_14h31.11.585,t1_Paradigm,2021.1.4,59.98980025955487,
Z,right,Target,0,19,19,19,1864.437749062432,1866.4389966605231,right,1,3,0.5693239744286984,R05E05,2023-01-05_14h31.11.585,t1_Paradigm,2021.1.4,59.98980025955487,
R,left,Distractor,0,20,20,20,1867.938043879345,1869.937999287853,left,1,3,1.1664964277297258,R05E05,2023-01-05_14h31.11.585,t1_Paradigm,2021.1.4,59.98980025955487,
P,left,Distractor,0,21,21,21,1871.4379213331267,1873.4395266249776,left,1,3,1.3767739536706358,R05E05,2023-01-05_14h31.11.585,t1_Paradigm,2021.1.4,59.98980025955487,
Z,right,Target,0,22,22,22,1874.9380490120966,1876.9376659749541,right,1,3,0.5024162787012756,R05E05,2023-01-05_14h31.11.585,t1_Paradigm,2021.1.4,59.98980025955487,
D,left,Pretarget,0,23,23,23,1878.4376117594074,1880.4386200392619,left,1,3,0.7297755349427462,R05E05,2023-01-05_14h31.11.585,t1_Paradigm,2021.1.4,59.98980025955487,
K,left,Distractor,0,24,24,24,1881.9378193181474,1883.9396315272897,None,0,3,,R05E05,2023-01-05_14h31.11.585,t1_Paradigm,2021.1.4,59.98980025955487,
W,left,Distractor,0,25,25,25,1885.4378453029785,1887.4392773620784,None,0,3,,R05E05,2023-01-05_14h31.11.585,t1_Paradigm,2021.1.4,59.98980025955487,
D,right,Target,0,26,26,26,1888.937715378357,1890.9375472781248,None,0,3,,R05E05,2023-01-05_14h31.11.585,t1_Paradigm,2021.1.4,59.98980025955487,
G,left,Pretarget,0,27,27,27,1892.4376573131885,1894.4386354377493,None,0,3,,R05E05,2023-01-05_14h31.11.585,t1_Paradigm,2021.1.4,59.98980025955487,
V,left,Distractor,0,28,28,28,1895.9375530525576,1897.9397335420363,left,1,3,1.2606247935909778,R05E05,2023-01-05_14h31.11.585,t1_Paradigm,2021.1.4,59.98980025955487,
D,right,Target,0,29,29,29,1899.438020781614,1901.438841392519,right,1,3,1.0734090639743954,R05E05,2023-01-05_14h31.11.585,t1_Paradigm,2021.1.4,59.98980025955487,
G,right,Target,0,30,30,30,1902.9379822853953,1904.9393418431282,right,1,3,0.836988762486726,R05E05,2023-01-05_14h31.11.585,t1_Paradigm,2021.1.4,59.98980025955487,
B,left,Pretarget,0,31,31,31,1906.4381038693246,1908.438312069513,left,1,3,0.6821772172115743,R05E05,2023-01-05_14h31.11.585,t1_Paradigm,2021.1.4,59.98980025955487,
N,left,Distractor,0,32,32,32,1909.938030084828,1911.9382373227272,left,1,3,1.0061122355982661,R05E05,2023-01-05_14h31.11.585,t1_Paradigm,2021.1.4,59.98980025955487,
F,left,Distractor,0,33,33,33,1913.4377910874318,1915.4389934525825,left,1,3,1.0410401676781476,R05E05,2023-01-05_14h31.11.585,t1_Paradigm,2021.1.4,59.98980025955487,
B,right,Target,0,34,34,34,1916.9381070772652,1918.9402827548329,left,0,3,0.6282029650174081,R05E05,2023-01-05_14h31.11.585,t1_Paradigm,2021.1.4,59.98980025955487,
Q,left,Pretarget,0,35,35,35,1920.4380987363402,1922.4388073873706,left,1,3,0.6658079873304814,R05E05,2023-01-05_14h31.11.585,t1_Paradigm,2021.1.4,59.98980025955487,
S,left,Pretarget,0,36,36,36,1923.9376807317603,1925.9383637185674,left,1,3,0.9260276083368808,R05E05,2023-01-05_14h31.11.585,t1_Paradigm,2021.1.4,59.98980025955487,
W,left,Distractor,0,37,37,37,1927.4379996086936,1929.439308479894,None,0,3,,R05E05,2023-01-05_14h31.11.585,t1_Paradigm,2021.1.4,59.98980025955487,
Q,right,Target,0,38,38,38,1930.937793653924,1932.9394621439278,right,1,3,0.8687481353990734,R05E05,2023-01-05_14h31.11.585,t1_Paradigm,2021.1.4,59.98980025955487,
S,right,Target,0,39,39,39,1934.4374054837972,1936.4394820334855,right,1,3,0.8248290929477662,R05E05,2023-01-05_14h31.11.585,t1_Paradigm,2021.1.4,59.98980025955487,
T,left,Distractor,0,40,40,40,1937.9380114783999,1939.938900099136,left,1,3,0.9254030070733279,R05E05,2023-01-05_14h31.11.585,t1_Paradigm,2021.1.4,59.98980025955487,
G,left,Distractor,0,41,41,41,1941.4376990173478,1943.438776269788,left,1,3,1.3458460986148566,R05E05,2023-01-05_14h31.11.585,t1_Paradigm,2021.1.4,59.98980025955487,
D,left,Distractor,0,42,42,42,1944.9378972728737,1946.939456369495,left,1,3,0.6609844123013318,R05E05,2023-01-05_14h31.11.585,t1_Paradigm,2021.1.4,59.98980025955487,
S,left,Lure,0,43,43,43,1948.4380397088826,1950.4388593572658,left,1,3,0.8414475857280195,R05E05,2023-01-05_14h31.11.585,t1_Paradigm,2021.1.4,59.98980025955487,
Z,left,Pretarget,0,44,44,44,1951.9380121198483,1953.939548439579,left,1,3,0.6688113331329077,R05E05,2023-01-05_14h31.11.585,t1_Paradigm,2021.1.4,59.98980025955487,
J,left,Distractor,0,45,45,45,1955.438001212664,1957.4387964801863,left,1,3,0.7534824633039534,R05E05,2023-01-05_14h31.11.585,t1_Paradigm,2021.1.4,59.98980025955487,
M,left,Pretarget,0,46,46,46,1958.9379636789672,1960.9392003696412,left,1,3,0.9651975017040968,R05E05,2023-01-05_14h31.11.585,t1_Paradigm,2021.1.4,59.98980025955487,
Z,right,Target,0,47,47,47,1962.4379123505205,1964.4395641589072,right,1,3,0.4407386139500886,R05E05,2023-01-05_14h31.11.585,t1_Paradigm,2021.1.4,59.98980025955487,
P,left,Distractor,0,48,48,48,1965.9379469971173,1967.939149362035,left,1,3,0.7492931133601815,R05E05,2023-01-05_14h31.11.585,t1_Paradigm,2021.1.4,59.98980025955487,
M,right,Target,0,49,49,49,1969.437983568525,1971.439545873087,right,1,3,1.0404598372988403,R05E05,2023-01-05_14h31.11.585,t1_Paradigm,2021.1.4,59.98980025955487,
K,left,Distractor,0,50,50,50,1972.9380153280217,1974.9395461939275,left,1,3,1.0606507784686983,R05E05,2023-01-05_14h31.11.585,t1_Paradigm,2021.1.4,59.98980025955487,
Y,left,Distractor,0,51,51,51,1976.4374667569064,1978.4386091320775,left,1,3,1.0498439299408346,R05E05,2023-01-05_14h31.11.585,t1_Paradigm,2021.1.4,59.98980025955487,
X,left,Distractor,0,52,52,52,1979.9379883806687,1981.9380464458372,left,1,3,0.9263038183562458,R05E05,2023-01-05_14h31.11.585,t1_Paradigm,2021.1.4,59.98980025955487,
F,left,Pretarget,0,53,53,53,1983.4378914984409,1985.4396427553147,left,1,3,0.6886343148071319,R05E05,2023-01-05_14h31.11.585,t1_Paradigm,2021.1.4,59.98980025955487,
M,left,Lure,0,54,54,54,1986.9379643204156,1988.939243357163,left,1,3,0.8690099094528705,R05E05,2023-01-05_14h31.11.585,t1_Paradigm,2021.1.4,59.98980025955487,
V,left,Distractor,0,55,55,55,1990.437963999575,1992.4380108367186,left,1,3,1.1463135068770498,R05E05,2023-01-05_14h31.11.585,t1_Paradigm,2021.1.4,59.98980025955487,
F,right,Target,0,56,56,56,1993.9376813734416,1995.9375379749108,right,1,3,0.6226521320641041,R05E05,2023-01-05_14h31.11.585,t1_Paradigm,2021.1.4,59.98980025955487,
S,left,Distractor,0,57,57,57,1997.4379264658783,1999.4384150470141,left,1,3,0.6258630368392915,R05E05,2023-01-05_14h31.11.585,t1_Paradigm,2021.1.4,59.98980025955487,
D,left,Distractor,0,58,58,58,2000.9380211024545,2002.939197803149,left,1,3,0.9652048798743635,R05E05,2023-01-05_14h31.11.585,t1_Paradigm,2021.1.4,59.98980025955487,
F,right,Target,0,59,59,59,2004.4379582251422,2006.4567392428871,left,0,3,1.3194697790313512,R05E05,2023-01-05_14h31.11.585,t1_Paradigm,2021.1.4,59.98980025955487,
V,left,Pretarget,0,60,60,60,2007.9379607916344,2009.9377984660678,left,1,3,0.8306647974532098,R05E05,2023-01-05_14h31.11.585,t1_Paradigm,2021.1.4,59.98980025955487,
J,left,Distractor,0,61,61,61,2011.437936089933,2013.4390579336323,left,1,3,0.9292744428385049,R05E05,2023-01-05_14h31.11.585,t1_Paradigm,2021.1.4,59.98980025955487,
V,left,Lure,0,62,62,62,2014.937914596172,2016.9394043995999,right,0,3,0.7569291573017836,R05E05,2023-01-05_14h31.11.585,t1_Paradigm,2021.1.4,59.98980025955487,
V,right,Target,0,63,63,63,2018.437941543525,2020.438091357937,None,0,3,,R05E05,2023-01-05_14h31.11.585,t1_Paradigm,2021.1.4,59.98980025955487,
R,left,Distractor,0,0,0,0,2110.179319194518,2112.1731578761246,None,0,4,,R05E05,2023-01-05_14h31.11.585,t1_Paradigm,2021.1.4,59.98980025955487,
F,left,Distractor,0,1,1,1,2113.6711063489784,2115.671900333371,None,0,4,,R05E05,2023-01-05_14h31.11.585,t1_Paradigm,2021.1.4,59.98980025955487,
P,left,Pretarget,0,2,2,2,2117.1712802236434,2119.1707226701546,None,0,4,,R05E05,2023-01-05_14h31.11.585,t1_Paradigm,2021.1.4,59.98980025955487,
H,left,Distractor,0,3,3,3,2120.671148373978,2122.672401104821,None,0,4,,R05E05,2023-01-05_14h31.11.585,t1_Paradigm,2021.1.4,59.98980025955487,
Z,left,Distractor,0,4,4,4,2124.171325456584,2126.171876914799,None,0,4,,R05E05,2023-01-05_14h31.11.585,t1_Paradigm,2021.1.4,59.98980025955487,
T,left,Distractor,0,5,5,5,2127.671309737256,2129.6713360431604,left,1,4,0.9526974614709616,R05E05,2023-01-05_14h31.11.585,t1_Paradigm,2021.1.4,59.98980025955487,
P,right,Target,0,6,6,6,2131.171125276247,2133.1724248442333,left,0,4,0.7958433718886226,R05E05,2023-01-05_14h31.11.585,t1_Paradigm,2021.1.4,59.98980025955487,
G,left,Distractor,0,7,7,7,2134.670894299168,2136.672360042343,left,1,4,0.6557854991406202,R05E05,2023-01-05_14h31.11.585,t1_Paradigm,2021.1.4,59.98980025955487,
L,left,Distractor,0,8,8,8,2138.171215421753,2140.1722936362494,left,1,4,0.5321023100987077,R05E05,2023-01-05_14h31.11.585,t1_Paradigm,2021.1.4,59.98980025955487,
P,left,Lure,0,9,9,9,2141.671127842739,2143.6732008636463,right,0,4,1.2549138807225972,R05E05,2023-01-05_14h31.11.585,t1_Paradigm,2021.1.4,59.98980025955487,
Q,left,Pretarget,0,10,10,10,2145.1705478332005,2147.17327176081,left,1,4,0.9229225681629032,R05E05,2023-01-05_14h31.11.585,t1_Paradigm,2021.1.4,59.98980025955487,
D,left,Distractor,0,11,11,11,2148.6710316021927,2150.6727549491916,left,1,4,1.2155345038045198,R05E05,2023-01-05_14h31.11.585,t1_Paradigm,2021.1.4,59.98980025955487,
M,left,Pretarget,0,12,12,12,2152.1711339380126,2154.1709709707648,left,1,4,1.0134489717893302,R05E05,2023-01-05_14h31.11.585,t1_Paradigm,2021.1.4,59.98980025955487,
C,left,Distractor,0,13,13,13,2155.671151261311,2157.6709327953868,left,1,4,0.7135387961752713,R05E05,2023-01-05_14h31.11.585,t1_Paradigm,2021.1.4,59.98980025955487,
Q,right,Target,0,14,14,14,2159.1711195018142,2161.1714018075727,right,1,4,0.4767867857590318,R05E05,2023-01-05_14h31.11.585,t1_Paradigm,2021.1.4,59.98980025955487,
R,left,Distractor,0,15,15,15,2162.670967121143,2164.672425165074,left,1,4,0.6876363006886095,R05E05,2023-01-05_14h31.11.585,t1_Paradigm,2021.1.4,59.98980025955487,
M,right,Target,0,16,16,16,2166.1710678527597,2168.172018388519,right,1,4,0.8680343513842672,R05E05,2023-01-05_14h31.11.585,t1_Paradigm,2021.1.4,59.98980025955487,
S,left,Distractor,0,17,17,17,2169.6711134067737,2171.6709748203866,left,1,4,0.7131669868249446,R05E05,2023-01-05_14h31.11.585,t1_Paradigm,2021.1.4,59.98980025955487,
Z,left,Distractor,0,18,18,18,2173.170968083432,2175.1710604743566,left,1,4,1.453013451071456,R05E05,2023-01-05_14h31.11.585,t1_Paradigm,2021.1.4,59.98980025955487,
L,left,Pretarget,0,19,19,19,2176.671054699924,2178.6710989705753,None,0,4,,R05E05,2023-01-05_14h31.11.585,t1_Paradigm,2021.1.4,59.98980025955487,
M,right,Target,0,20,20,20,2180.170316535048,2182.1717364036012,right,1,4,1.2204039536882192,R05E05,2023-01-05_14h31.11.585,t1_Paradigm,2021.1.4,59.98980025955487,
P,left,Distractor,0,21,21,21,2183.6711146899033,2185.6725002327003,left,1,4,0.9035852802917361,R05E05,2023-01-05_14h31.11.585,t1_Paradigm,2021.1.4,59.98980025955487,
F,left,Distractor,0,22,22,22,2187.170903602382,2189.1719243933912,left,1,4,0.5721868092659861,R05E05,2023-01-05_14h31.11.585,t1_Paradigm,2021.1.4,59.98980025955487,
L,right,Target,0,23,23,23,2190.6711535069626,2192.6711211060174,right,1,4,0.9930276947561651,R05E05,2023-01-05_14h31.11.585,t1_Paradigm,2021.1.4,59.98980025955487,
L,left,Lure,0,24,24,24,2194.171034810366,2196.170801266562,None,0,4,,R05E05,2023-01-05_14h31.11.585,t1_Paradigm,2021.1.4,59.98980025955487,
V,left,Pretarget,0,25,25,25,2197.6709703290835,2199.6715006143786,None,0,4,,R05E05,2023-01-05_14h31.11.585,t1_Paradigm,2021.1.4,59.98980025955487,
Z,left,Distractor,0,26,26,26,2201.171054379083,2203.1712709204294,left,1,4,1.2292211896274239,R05E05,2023-01-05_14h31.11.585,t1_Paradigm,2021.1.4,59.98980025955487,
H,left,Distractor,0,27,27,27,2204.6709238127805,2206.6725412951782,None,0,4,,R05E05,2023-01-05_14h31.11.585,t1_Paradigm,2021.1.4,59.98980025955487,
X,left,Distractor,0,28,28,28,2208.170778168831,2210.172183280578,left,1,4,0.5319236235227436,R05E05,2023-01-05_14h31.11.585,t1_Paradigm,2021.1.4,59.98980025955487,
V,right,Target,0,29,29,29,2211.670792925637,2213.672305826796,right,1,4,1.0639162193983793,R05E05,2023-01-05_14h31.11.585,t1_Paradigm,2021.1.4,59.98980025955487,
C,left,Distractor,0,30,30,30,2215.171036735177,2217.1717992809135,left,1,4,1.0682274741120636,R05E05,2023-01-05_14h31.11.585,t1_Paradigm,2021.1.4,59.98980025955487,
S,left,Pretarget,0,31,31,31,2218.6708625396714,2220.6722227390856,left,1,4,0.8478931346908212,R05E05,2023-01-05_14h31.11.585,t1_Paradigm,2021.1.4,59.98980025955487,
D,left,Distractor,0,32,32,32,2222.17104700068,2224.171714268392,left,1,4,0.86832211073488,R05E05,2023-01-05_14h31.11.585,t1_Paradigm,2021.1.4,59.98980025955487,
V,left,Distractor,0,33,33,33,2225.6710813264363,2227.670497146435,right,0,4,0.6013784850947559,R05E05,2023-01-05_14h31.11.585,t1_Paradigm,2021.1.4,59.98980025955487,
R,left,Distractor,0,34,34,34,2229.1708343091886,2231.172715490684,left,1,4,0.747401345288381,R05E05,2023-01-05_14h31.11.585,t1_Paradigm,2021.1.4,59.98980025955487,
S,right,Target,0,35,35,35,2232.6711916823406,2234.6723500974476,right,1,4,0.5281699222978204,R05E05,2023-01-05_14h31.11.585,t1_Paradigm,2021.1.4,59.98980025955487,
Y,left,Distractor,0,36,36,36,2236.1710271111224,2238.1733439413365,left,1,4,1.0107808634638786,R05E05,2023-01-05_14h31.11.585,t1_Paradigm,2021.1.4,59.98980025955487,
N,left,Pretarget,0,37,37,37,2239.6712000232656,2241.67096134671,left,1,4,1.2891533721704036,R05E05,2023-01-05_14h31.11.585,t1_Paradigm,2021.1.4,59.98980025955487,
Z,left,Pretarget,0,38,38,38,2243.171042188769,2245.1732034301385,left,1,4,0.8109961214940995,R05E05,2023-01-05_14h31.11.585,t1_Paradigm,2021.1.4,59.98980025955487,
P,left,Pretarget,0,39,39,39,2246.671073948033,2248.6721781475935,left,1,4,0.7523811508435756,R05E05,2023-01-05_14h31.11.585,t1_Paradigm,2021.1.4,59.98980025955487,
M,left,Distractor,0,40,40,40,2250.1710502088536,2252.1731068687513,left,1,4,1.1869513888377696,R05E05,2023-01-05_14h31.11.585,t1_Paradigm,2021.1.4,59.98980025955487,
N,right,Target,0,41,41,41,2253.671031281352,2255.673083129339,right,1,4,0.5188997143413872,R05E05,2023-01-05_14h31.11.585,t1_Paradigm,2021.1.4,59.98980025955487,
Z,right,Target,0,42,42,42,2257.1707765648607,2259.171884614043,right,1,4,0.8285827941726893,R05E05,2023-01-05_14h31.11.585,t1_Paradigm,2021.1.4,59.98980025955487,
P,right,Target,0,43,43,43,2260.671045075869,2262.672158899484,right,1,4,0.783645847812295,R05E05,2023-01-05_14h31.11.585,t1_Paradigm,2021.1.4,59.98980025955487,
X,left,Pretarget,0,44,44,44,2264.170621938305,2266.1723545887507,left,1,4,0.48365354677662253,R05E05,2023-01-05_14h31.11.585,t1_Paradigm,2021.1.4,59.98980025955487,
Z,left,Lure,0,45,45,45,2267.670987652382,2269.672216643812,right,0,4,1.3517751565668732,R05E05,2023-01-05_14h31.11.585,t1_Paradigm,2021.1.4,59.98980025955487,
R,left,Pretarget,0,46,46,46,2271.1707300485577,2273.1718493259978,left,1,4,1.308285988168791,R05E05,2023-01-05_14h31.11.585,t1_Paradigm,2021.1.4,59.98980025955487,
K,left,Distractor,0,47,47,47,2274.6710761936847,2276.6720533557236,left,1,4,0.9761496731080115,R05E05,2023-01-05_14h31.11.585,t1_Paradigm,2021.1.4,59.98980025955487,
X,right,Target,0,48,48,48,2278.17102294066,2280.171644333517,left,0,4,0.6764881189446896,R05E05,2023-01-05_14h31.11.585,t1_Paradigm,2021.1.4,59.98980025955487,
B,left,Distractor,0,49,49,49,2281.6710697775707,2283.6705786301754,left,1,4,1.1134868261869997,R05E05,2023-01-05_14h31.11.585,t1_Paradigm,2021.1.4,59.98980025955487,
R,right,Target,0,50,50,50,2285.1709886149038,2287.171803771984,left,0,4,0.8281339926179498,R05E05,2023-01-05_14h31.11.585,t1_Paradigm,2021.1.4,59.98980025955487,
Y,left,Pretarget,0,51,51,51,2288.670997597277,2290.6727604027838,left,1,4,0.7512901043519378,R05E05,2023-01-05_14h31.11.585,t1_Paradigm,2021.1.4,59.98980025955487,
W,left,Pretarget,0,52,52,52,2292.1709581385367,2294.1723215461243,left,1,4,0.9638299236539751,R05E05,2023-01-05_14h31.11.585,t1_Paradigm,2021.1.4,59.98980025955487,
Z,left,Distractor,0,53,53,53,2295.6709992012475,2297.673181615537,left,1,4,0.8545472044497728,R05E05,2023-01-05_14h31.11.585,t1_Paradigm,2021.1.4,59.98980025955487,
Q,left,Distractor,0,54,54,54,2299.1711082737893,2301.171302038012,left,1,4,1.036648391513154,R05E05,2023-01-05_14h31.11.585,t1_Paradigm,2021.1.4,59.98980025955487,
Y,right,Target,0,55,55,55,2302.6710027300287,2304.671112444252,right,1,4,0.4648221635725349,R05E05,2023-01-05_14h31.11.585,t1_Paradigm,2021.1.4,59.98980025955487,
W,right,Target,0,56,56,56,2306.1706639635377,2308.170677757822,right,1,4,0.46922709234058857,R05E05,2023-01-05_14h31.11.585,t1_Paradigm,2021.1.4,59.98980025955487,
H,left,Pretarget,0,57,57,57,2309.6709741787054,2311.67175244377,left,1,4,0.45629364904016256,R05E05,2023-01-05_14h31.11.585,t1_Paradigm,2021.1.4,59.98980025955487,
M,left,Distractor,0,58,58,58,2313.1707544294186,2315.172658708645,left,1,4,1.147524212487042,R05E05,2023-01-05_14h31.11.585,t1_Paradigm,2021.1.4,59.98980025955487,
R,left,Pretarget,0,59,59,59,2316.6707342190202,2318.671748594148,left,1,4,0.9923110236413777,R05E05,2023-01-05_14h31.11.585,t1_Paradigm,2021.1.4,59.98980025955487,
J,left,Distractor,0,60,60,60,2320.1709998429287,2322.1732332645915,left,1,4,0.978834463050589,R05E05,2023-01-05_14h31.11.585,t1_Paradigm,2021.1.4,59.98980025955487,
H,right,Target,0,61,61,61,2323.6710700984113,2325.6713119829074,right,1,4,0.5206792014651,R05E05,2023-01-05_14h31.11.585,t1_Paradigm,2021.1.4,59.98980025955487,
Z,left,Distractor,0,62,62,62,2327.1710222989786,2329.171786127845,left,1,4,0.7001328121405095,R05E05,2023-01-05_14h31.11.585,t1_Paradigm,2021.1.4,59.98980025955487,
R,right,Target,0,63,63,63,2330.6707098381594,2332.673063239781,None,0,4,,R05E05,2023-01-05_14h31.11.585,t1_Paradigm,2021.1.4,59.98980025955487,
J,left,Pretarget,0,0,0,0,2355.013520831242,2357.0064003157895,None,0,4,,R05E05,2023-01-05_14h31.11.585,t1_Paradigm,2021.1.4,59.98980025955487,
G,left,Pretarget,0,1,1,1,2358.5043288988527,2360.505837629549,None,0,4,,R05E05,2023-01-05_14h31.11.585,t1_Paradigm,2021.1.4,59.98980025955487,
Z,left,Distractor,0,2,2,2,2362.00382524007,2364.0065834934358,None,0,4,,R05E05,2023-01-05_14h31.11.585,t1_Paradigm,2021.1.4,59.98980025955487,
F,left,Distractor,0,3,3,3,2365.504289440345,2367.506371764466,None,0,4,,R05E05,2023-01-05_14h31.11.585,t1_Paradigm,2021.1.4,59.98980025955487,
J,right,Target,0,4,4,4,2369.004403003957,2371.0063595739193,right,1,4,0.7055248478427529,R05E05,2023-01-05_14h31.11.585,t1_Paradigm,2021.1.4,59.98980025955487,
G,right,Target,0,5,5,5,2372.503998152213,2374.5059213587083,right,1,4,0.43802816001698375,R05E05,2023-01-05_14h31.11.585,t1_Paradigm,2021.1.4,59.98980025955487,
H,left,Distractor,0,6,6,6,2376.004190954147,2378.0053182514384,left,1,4,1.066584006883204,R05E05,2023-01-05_14h31.11.585,t1_Paradigm,2021.1.4,59.98980025955487,
P,left,Distractor,0,7,7,7,2379.504242924042,2381.5066024209373,left,1,4,1.3092108597047627,R05E05,2023-01-05_14h31.11.585,t1_Paradigm,2021.1.4,59.98980025955487,
G,left,Lure,0,8,8,8,2383.004062312655,2385.0060775892343,left,1,4,1.2497890728991479,R05E05,2023-01-05_14h31.11.585,t1_Paradigm,2021.1.4,59.98980025955487,
S,left,Distractor,0,9,9,9,2386.503960939124,2388.505032737972,left,1,4,0.9987299458589405,R05E05,2023-01-05_14h31.11.585,t1_Paradigm,2021.1.4,59.98980025955487,
R,left,Pretarget,0,10,10,10,2390.004426422529,2392.0058045869227,left,1,4,1.1304370283614844,R05E05,2023-01-05_14h31.11.585,t1_Paradigm,2021.1.4,59.98980025955487,
T,left,Pretarget,0,11,11,11,2393.5039317463525,2395.5043943424243,left,1,4,1.0232205928768963,R05E05,2023-01-05_14h31.11.585,t1_Paradigm,2021.1.4,59.98980025955487,
X,left,Distractor,0,12,12,12,2397.0038265231997,2399.005494692363,left,1,4,0.6905071556102484,R05E05,2023-01-05_14h31.11.585,t1_Paradigm,2021.1.4,59.98980025955487,
F,left,Pretarget,0,13,13,13,2400.5039737713523,2402.505726311356,left,1,4,0.7582409156020731,R05E05,2023-01-05_14h31.11.585,t1_Paradigm,2021.1.4,59.98980025955487,
R,right,Target,0,14,14,14,2404.003930142382,2406.003951956751,right,1,4,1.1959155520889908,R05E05,2023-01-05_14h31.11.585,t1_Paradigm,2021.1.4,59.98980025955487,
T,right,Target,0,15,15,15,2407.5042166181374,2409.505551153561,right,1,4,0.526350655592978,R05E05,2023-01-05_14h31.11.585,t1_Paradigm,2021.1.4,59.98980025955487,
C,left,Distractor,0,16,16,16,2411.004197370028,2413.0037213002797,left,1,4,0.46794965979643166,R05E05,2023-01-05_14h31.11.585,t1_Paradigm,2021.1.4,59.98980025955487,
F,right,Target,0,17,17,17,2414.504254152067,2416.5065283156,left,0,4,1.397608743980527,R05E05,2023-01-05_14h31.11.585,t1_Paradigm,2021.1.4,59.98980025955487,
M,left,Distractor,0,18,18,18,2418.0042852698825,2420.0057506922167,left,1,4,1.0821512325201184,R05E05,2023-01-05_14h31.11.585,t1_Paradigm,2021.1.4,59.98980025955487,
N,left,Distractor,0,19,19,19,2421.5041787636,2423.5061064613983,left,1,4,0.573840863071382,R05E05,2023-01-05_14h31.11.585,t1_Paradigm,2021.1.4,59.98980025955487,
R,left,Lure,0,20,20,20,2425.0039259719197,2427.0051071639173,left,1,4,0.7228067587129772,R05E05,2023-01-05_14h31.11.585,t1_Paradigm,2021.1.4,59.98980025955487,
F,right,Target,0,21,21,21,2428.5031993559096,2430.5056980806403,right,1,4,0.4861631791573018,R05E05,2023-01-05_14h31.11.585,t1_Paradigm,2021.1.4,59.98980025955487,
P,left,Distractor,0,22,22,22,2432.0041822923813,2434.0037540220656,left,1,4,1.0201097782701254,R05E05,2023-01-05_14h31.11.585,t1_Paradigm,2021.1.4,59.98980025955487,
L,left,Pretarget,0,23,23,23,2435.5041585532017,2437.506195323309,None,0,4,,R05E05,2023-01-05_14h31.11.585,t1_Paradigm,2021.1.4,59.98980025955487,
T,left,Distractor,0,24,24,24,2439.0041524579283,2441.0066123655997,left,1,4,0.7372409126255661,R05E05,2023-01-05_14h31.11.585,t1_Paradigm,2021.1.4,59.98980025955487,
F,left,Distractor,0,25,25,25,2442.5042711545248,2444.5061940401793,left,1,4,1.1417545930016786,R05E05,2023-01-05_14h31.11.585,t1_Paradigm,2021.1.4,59.98980025955487,
V,left,Distractor,0,26,26,26,2446.004247735953,2448.0057490882464,left,1,4,0.8261873675510287,R05E05,2023-01-05_14h31.11.585,t1_Paradigm,2021.1.4,59.98980025955487,
L,right,Target,0,27,27,27,2449.5041784427594,2451.5056550933514,right,1,4,1.3262836078647524,R05E05,2023-01-05_14h31.11.585,t1_Paradigm,2021.1.4,59.98980025955487,
S,left,Pretarget,0,28,28,28,2453.0041223026346,2455.006401598919,left,1,4,0.5616577751934528,R05E05,2023-01-05_14h31.11.585,t1_Paradigm,2021.1.4,59.98980025955487,
W,left,Distractor,0,29,29,29,2456.503705260344,2458.5060692483094,left,1,4,0.5177836450748146,R05E05,2023-01-05_14h31.11.585,t1_Paradigm,2021.1.4,59.98980025955487,
Q,left,Distractor,0,30,30,30,2460.0041896707844,2462.0041421921924,left,1,4,0.6998979852069169,R05E05,2023-01-05_14h31.11.585,t1_Paradigm,2021.1.4,59.98980025955487,
L,right,Target,0,31,31,31,2463.5041550241876,2465.5047847582027,right,1,4,0.8954548810143024,R05E05,2023-01-05_14h31.11.585,t1_Paradigm,2021.1.4,59.98980025955487,
S,right,Target,0,32,32,32,2467.0041579115205,2469.0055659103673,None,0,4,,R05E05,2023-01-05_14h31.11.585,t1_Paradigm,2021.1.4,59.98980025955487,
Z,left,Pretarget,0,33,33,33,2470.503918272676,2472.504200899042,left,1,4,0.6637548559810966,R05E05,2023-01-05_14h31.11.585,t1_Paradigm,2021.1.4,59.98980025955487,
F,left,Distractor,0,34,34,34,2474.004205710953,2476.0062543509994,None,0,4,,R05E05,2023-01-05_14h31.11.585,t1_Paradigm,2021.1.4,59.98980025955487,
V,left,Distractor,0,35,35,35,2477.504166893894,2479.5065065009985,left,1,4,0.5893923693802208,R05E05,2023-01-05_14h31.11.585,t1_Paradigm,2021.1.4,59.98980025955487,
M,left,Distractor,0,36,36,36,2481.00407482381,2483.00629669684,left,1,4,0.4814727366901934,R05E05,2023-01-05_14h31.11.585,t1_Paradigm,2021.1.4,59.98980025955487,
Z,right,Target,0,37,37,37,2484.503814012045,2486.5058822208084,right,1,4,0.4699254776351154,R05E05,2023-01-05_14h31.11.585,t1_Paradigm,2021.1.4,59.98980025955487,
H,left,Pretarget,0,38,38,38,2488.0037152050063,2490.0055116948206,left,1,4,0.9223800923209637,R05E05,2023-01-05_14h31.11.585,t1_Paradigm,2021.1.4,59.98980025955487,
L,left,Distractor,0,39,39,39,2491.5041187736206,2493.5062068721745,left,1,4,0.7176254896912724,R05E05,2023-01-05_14h31.11.585,t1_Paradigm,2021.1.4,59.98980025955487,
G,left,Distractor,0,40,40,40,2495.004056859063,2497.006290922407,left,1,4,0.6416439164895564,R05E05,2023-01-05_14h31.11.585,t1_Paradigm,2021.1.4,59.98980025955487,
K,left,Distractor,0,41,41,41,2498.504080919083,2500.5064878945705,left,1,4,0.5172386027406901,R05E05,2023-01-05_14h31.11.585,t1_Paradigm,2021.1.4,59.98980025955487,
H,right,Target,0,42,42,42,2502.0041168488096,2504.0054603666067,right,1,4,0.5220852755010128,R05E05,2023-01-05_14h31.11.585,t1_Paradigm,2021.1.4,59.98980025955487,
B,left,Distractor,0,43,43,43,2505.504057179671,2507.5057911132462,left,1,4,0.6220095662865788,R05E05,2023-01-05_14h31.11.585,t1_Paradigm,2021.1.4,59.98980025955487,
Z,left,Distractor,0,44,44,44,2509.004162081983,2511.0060134287924,left,1,4,0.6898238477297127,R05E05,2023-01-05_14h31.11.585,t1_Paradigm,2021.1.4,59.98980025955487,
T,left,Pretarget,0,45,45,45,2512.5035900925286,2514.505306702573,left,1,4,1.1586047050077468,R05E05,2023-01-05_14h31.11.585,t1_Paradigm,2021.1.4,59.98980025955487,
H,right,Target,0,46,46,46,2516.0042230342515,2518.006055453792,right,1,4,0.8738264271523803,R05E05,2023-01-05_14h31.11.585,t1_Paradigm,2021.1.4,59.98980025955487,
F,left,Distractor,0,47,47,47,2519.504092467949,2521.5042195054702,left,1,4,0.7355072998907417,R05E05,2023-01-05_14h31.11.585,t1_Paradigm,2021.1.4,59.98980025955487,
R,left,Distractor,0,48,48,48,2523.003858603537,2525.0052216900513,left,1,4,0.6265999185852706,R05E05,2023-01-05_14h31.11.585,t1_Paradigm,2021.1.4,59.98980025955487,
T,right,Target,0,49,49,49,2526.5038480169605,2528.505377278896,left,0,4,0.4384346157312393,R05E05,2023-01-05_14h31.11.585,t1_Paradigm,2021.1.4,59.98980025955487,
H,right,Target,0,50,50,50,2530.0040555757005,2532.006046150578,left,0,4,0.5857669890392572,R05E05,2023-01-05_14h31.11.585,t1_Paradigm,2021.1.4,59.98980025955487,
Y,left,Pretarget,0,51,51,51,2533.503600037191,2535.506167413667,left,1,4,0.6376595587935299,R05E05,2023-01-05_14h31.11.585,t1_Paradigm,2021.1.4,59.98980025955487,
H,left,Distractor,0,52,52,52,2537.0041460418142,2539.004879394546,left,1,4,1.1549238255247474,R05E05,2023-01-05_14h31.11.585,t1_Paradigm,2021.1.4,59.98980025955487,
S,left,Distractor,0,53,53,53,2540.5041691395454,2542.506150411209,left,1,4,0.7094796916935593,R05E05,2023-01-05_14h31.11.585,t1_Paradigm,2021.1.4,59.98980025955487,
Q,left,Distractor,0,54,54,54,2544.003847375512,2546.004187104525,left,1,4,0.7157831250224262,R05E05,2023-01-05_14h31.11.585,t1_Paradigm,2021.1.4,59.98980025955487,
Y,right,Target,0,55,55,55,2547.5041104329284,2549.5036757464986,left,0,4,0.6081470812205225,R05E05,2023-01-05_14h31.11.585,t1_Paradigm,2021.1.4,59.98980025955487,
R,left,Distractor,0,56,56,56,2551.003874322865,2553.0049345726147,left,1,4,0.8507662350311875,R05E05,2023-01-05_14h31.11.585,t1_Paradigm,2021.1.4,59.98980025955487,
H,left,Pretarget,0,57,57,57,2554.5039670343976,2556.50600925833,left,1,4,0.6780462532769889,R05E05,2023-01-05_14h31.11.585,t1_Paradigm,2021.1.4,59.98980025955487,
J,left,Distractor,0,58,58,58,2558.004068087088,2560.004082202213,left,1,4,0.6196917735505849,R05E05,2023-01-05_14h31.11.585,t1_Paradigm,2021.1.4,59.98980025955487,
V,left,Distractor,0,59,59,59,2561.5040340819396,2563.5060346017126,left,1,4,0.6377763305790722,R05E05,2023-01-05_14h31.11.585,t1_Paradigm,2021.1.4,59.98980025955487,
Y,left,Lure,0,60,60,60,2565.0040026435163,2567.005412567174,right,0,4,0.9624562505632639,R05E05,2023-01-05_14h31.11.585,t1_Paradigm,2021.1.4,59.98980025955487,
H,right,Target,0,61,61,61,2568.5041348137893,2570.504992958391,right,1,4,0.9505939644295722,R05E05,2023-01-05_14h31.11.585,t1_Paradigm,2021.1.4,59.98980025955487,
L,left,Distractor,0,62,62,62,2572.003833580995,2574.0049162867945,left,1,4,0.7469823784194887,R05E05,2023-01-05_14h31.11.585,t1_Paradigm,2021.1.4,59.98980025955487,
P,left,Distractor,0,63,63,63,2575.503603886813,2577.504318633117,left,1,4,1.2475598216988146,R05E05,2023-01-05_14h31.11.585,t1_Paradigm,2021.1.4,59.98980025955487,
