Letter,CorrAnswer,Stimulus,nback_run.thisRepN,nback_run.thisTrialN,nback_run.thisN,nback_run.thisIndex,fixcross.started,nback_trial.started,trial_resp.keys,trial_resp.corr,currentlevel,trial_resp.rt,Participant,date,expName,psychopyVersion,frameRate,
H,left,Distractor,0,0,0,0,43.1702245742199,45.167204865429085,None,0,1,,R17D05,2022-11-14_15h16.19.627,t1_Paradigm,2021.1.4,59.929903344336836,
Q,left,Pretarget,0,1,1,1,46.669240353803616,48.66549787821714,left,1,1,0.7315670405514538,R17D05,2022-11-14_15h16.19.627,t1_Paradigm,2021.1.4,59.929903344336836,
Q,right,Target,0,2,2,2,50.16457942221314,52.16416687093442,right,1,1,0.4258851246559061,R17D05,2022-11-14_15h16.19.627,t1_Paradigm,2021.1.4,59.929903344336836,
T,left,Distractor,0,3,3,3,53.66395065042889,55.663998449919745,left,1,1,0.5271481861709617,R17D05,2022-11-14_15h16.19.627,t1_Paradigm,2021.1.4,59.929903344336836,
Q,left,Lure,0,4,4,4,57.16354868555209,59.16317751770839,left,1,1,0.9016151736723259,R17D05,2022-11-14_15h16.19.627,t1_Paradigm,2021.1.4,59.929903344336836,
L,left,Distractor,0,5,5,5,60.66279640496941,62.66267802903894,left,1,1,0.444216389907524,R17D05,2022-11-14_15h16.19.627,t1_Paradigm,2021.1.4,59.929903344336836,
V,left,Pretarget,0,6,6,6,64.16228248021798,66.16258178849239,left,1,1,0.46796696254750714,R17D05,2022-11-14_15h16.19.627,t1_Paradigm,2021.1.4,59.929903344336836,
V,right,Target,0,7,7,7,67.66161264578113,69.66127580369357,right,1,1,0.41981394769391045,R17D05,2022-11-14_15h16.19.627,t1_Paradigm,2021.1.4,59.929903344336836,
K,left,Distractor,0,8,8,8,71.1609989516437,73.16307165304897,left,1,1,0.44992121105315164,R17D05,2022-11-14_15h16.19.627,t1_Paradigm,2021.1.4,59.929903344336836,
G,left,Pretarget,0,9,9,9,74.66055977373617,76.66035061090952,left,1,1,0.42726040264824405,R17D05,2022-11-14_15h16.19.627,t1_Paradigm,2021.1.4,59.929903344336836,
G,right,Target,0,10,10,10,78.15986459591659,80.15966056589969,right,1,1,0.386634043243248,R17D05,2022-11-14_15h16.19.627,t1_Paradigm,2021.1.4,59.929903344336836,
G,right,Target,0,11,11,11,81.65930800454225,83.65902152837953,right,1,1,0.38676204322837293,R17D05,2022-11-14_15h16.19.627,t1_Paradigm,2021.1.4,59.929903344336836,
P,left,Pretarget,0,12,12,12,85.15855508233653,87.15865453094011,left,1,1,0.38642552198143676,R17D05,2022-11-14_15h16.19.627,t1_Paradigm,2021.1.4,59.929903344336836,
P,right,Target,0,13,13,13,88.6578194834874,90.65776141831884,left,0,1,0.4767059285659343,R17D05,2022-11-14_15h16.19.627,t1_Paradigm,2021.1.4,59.929903344336836,
G,left,Lure,0,14,14,14,92.157438049966,94.15730780432932,left,1,1,0.9003861814271659,R17D05,2022-11-14_15h16.19.627,t1_Paradigm,2021.1.4,59.929903344336836,
Y,left,Distractor,0,15,15,15,95.65704314276809,97.65804757364094,left,1,1,0.5685765504022129,R17D05,2022-11-14_15h16.19.627,t1_Paradigm,2021.1.4,59.929903344336836,
B,left,Distractor,0,16,16,16,99.15634411526844,101.15593284717761,left,1,1,0.6844482911983505,R17D05,2022-11-14_15h16.19.627,t1_Paradigm,2021.1.4,59.929903344336836,
T,left,Pretarget,0,17,17,17,102.65568101766985,104.65540737356059,left,1,1,0.4644423114368692,R17D05,2022-11-14_15h16.19.627,t1_Paradigm,2021.1.4,59.929903344336836,
T,right,Target,0,18,18,18,106.15507887239801,108.1547898298013,right,1,1,0.4480724293971434,R17D05,2022-11-14_15h16.19.627,t1_Paradigm,2021.1.4,59.929903344336836,
S,left,Distractor,0,19,19,19,109.65431536373217,111.65688177937409,left,1,1,0.5348955533117987,R17D05,2022-11-14_15h16.19.627,t1_Paradigm,2021.1.4,59.929903344336836,
T,left,Lure,0,20,20,20,113.15399424097268,115.15386174974265,left,1,1,0.7415972344460897,R17D05,2022-11-14_15h16.19.627,t1_Paradigm,2021.1.4,59.929903344336836,
J,left,Distractor,0,21,21,21,116.65338215086376,118.65285346924793,left,1,1,0.6277240897761658,R17D05,2022-11-14_15h16.19.627,t1_Paradigm,2021.1.4,59.929903344336836,
P,left,Distractor,0,22,22,22,120.15276460710447,122.152429048263,left,1,1,0.4112350618233904,R17D05,2022-11-14_15h16.19.627,t1_Paradigm,2021.1.4,59.929903344336836,
F,left,Distractor,0,23,23,23,123.65217336907517,125.65211722871754,left,1,1,0.40747686696704477,R17D05,2022-11-14_15h16.19.627,t1_Paradigm,2021.1.4,59.929903344336836,
L,left,Distractor,0,24,24,24,127.15158918872476,129.15159528393997,left,1,1,0.4686169072519988,R17D05,2022-11-14_15h16.19.627,t1_Paradigm,2021.1.4,59.929903344336836,
W,left,Pretarget,0,25,25,25,130.65135628648568,132.65093603596324,left,1,1,0.5302137695834972,R17D05,2022-11-14_15h16.19.627,t1_Paradigm,2021.1.4,59.929903344336836,
W,right,Target,0,26,26,26,134.15060047712177,136.1500740410993,right,1,1,0.4570744530064985,R17D05,2022-11-14_15h16.19.627,t1_Paradigm,2021.1.4,59.929903344336836,
V,left,Distractor,0,27,27,27,137.65000186068937,139.6494856903446,left,1,1,0.4574860419379547,R17D05,2022-11-14_15h16.19.627,t1_Paradigm,2021.1.4,59.929903344336836,
W,left,Lure,0,28,28,28,141.14933234697673,143.14888675307157,left,1,1,0.6209901359979995,R17D05,2022-11-14_15h16.19.627,t1_Paradigm,2021.1.4,59.929903344336836,
R,left,Pretarget,0,29,29,29,144.6488665425568,146.64825316920178,left,1,1,0.5316249773604795,R17D05,2022-11-14_15h16.19.627,t1_Paradigm,2021.1.4,59.929903344336836,
R,right,Target,0,30,30,30,148.14796476828633,150.14780372567475,right,1,1,0.41314928710926324,R17D05,2022-11-14_15h16.19.627,t1_Paradigm,2021.1.4,59.929903344336836,
G,left,Distractor,0,31,31,31,151.64763915428193,153.64727889368078,left,1,1,0.4419736634590663,R17D05,2022-11-14_15h16.19.627,t1_Paradigm,2021.1.4,59.929903344336836,
R,left,Lure,0,32,32,32,155.14683105418226,157.1465615805355,left,1,1,0.5852239262312651,R17D05,2022-11-14_15h16.19.627,t1_Paradigm,2021.1.4,59.929903344336836,
S,left,Distractor,0,33,33,33,158.64648362563457,160.6459674552898,left,1,1,0.4224297668552026,R17D05,2022-11-14_15h16.19.627,t1_Paradigm,2021.1.4,59.929903344336836,
R,left,Lure,0,34,34,34,162.145774011733,164.14557254809188,left,1,1,0.7897024497506209,R17D05,2022-11-14_15h16.19.627,t1_Paradigm,2021.1.4,59.929903344336836,
P,left,Pretarget,0,35,35,35,165.6453277762048,167.6447952449671,left,1,1,0.5739685896551237,R17D05,2022-11-14_15h16.19.627,t1_Paradigm,2021.1.4,59.929903344336836,
P,right,Target,0,36,36,36,169.14455271867337,171.1441760971793,right,1,1,0.80251399660483,R17D05,2022-11-14_15h16.19.627,t1_Paradigm,2021.1.4,59.929903344336836,
Y,left,Pretarget,0,37,37,37,172.64405098441057,174.6433500321582,left,1,1,0.6848762410227209,R17D05,2022-11-14_15h16.19.627,t1_Paradigm,2021.1.4,59.929903344336836,
Y,right,Target,0,38,38,38,176.14354989177082,178.14309852343285,right,1,1,0.5422794518526644,R17D05,2022-11-14_15h16.19.627,t1_Paradigm,2021.1.4,59.929903344336836,
J,left,Distractor,0,39,39,39,179.64275911496952,181.64238249347545,left,1,1,0.4855437015648931,R17D05,2022-11-14_15h16.19.627,t1_Paradigm,2021.1.4,59.929903344336836,
Y,left,Lure,0,40,40,40,183.14220958121587,185.14195807249052,left,1,1,0.5268828828702681,R17D05,2022-11-14_15h16.19.627,t1_Paradigm,2021.1.4,59.929903344336836,
T,left,Distractor,0,41,41,41,186.64158562140074,188.64135977684055,left,1,1,0.6333785449969582,R17D05,2022-11-14_15h16.19.627,t1_Paradigm,2021.1.4,59.929903344336836,
V,left,Distractor,0,42,42,42,190.1409424134763,192.14062931080116,left,1,1,0.4869693454238586,R17D05,2022-11-14_15h16.19.627,t1_Paradigm,2021.1.4,59.929903344336836,
N,left,Pretarget,0,43,43,43,193.64062289474532,195.64032807777403,left,1,1,0.4792572665028274,R17D05,2022-11-14_15h16.19.627,t1_Paradigm,2021.1.4,59.929903344336836,
N,right,Target,0,44,44,44,197.13995177706238,199.1395632859203,right,1,1,0.3942392951576039,R17D05,2022-11-14_15h16.19.627,t1_Paradigm,2021.1.4,59.929903344336836,
N,right,Target,0,45,45,45,200.63923093507765,202.63909106544452,right,1,1,0.41857116093160585,R17D05,2022-11-14_15h16.19.627,t1_Paradigm,2021.1.4,59.929903344336836,
X,left,Distractor,0,46,46,46,204.13861659931717,206.13866921083536,left,1,1,0.36614827206358314,R17D05,2022-11-14_15h16.19.627,t1_Paradigm,2021.1.4,59.929903344336836,
Z,left,Distractor,0,47,47,47,207.6381164690829,209.6376574015012,left,1,1,0.38705782260512933,R17D05,2022-11-14_15h16.19.627,t1_Paradigm,2021.1.4,59.929903344336836,
H,left,Pretarget,0,48,48,48,211.1375695017632,213.13711685017915,left,1,1,0.48952132498379797,R17D05,2022-11-14_15h16.19.627,t1_Paradigm,2021.1.4,59.929903344336836,
H,right,Target,0,49,49,49,214.63739530631574,216.63694393791957,right,1,1,0.3876644591218792,R17D05,2022-11-14_15h16.19.627,t1_Paradigm,2021.1.4,59.929903344336836,
K,left,Distractor,0,50,50,50,218.1362429856672,220.1365381234791,left,1,1,0.4085810672841035,R17D05,2022-11-14_15h16.19.627,t1_Paradigm,2021.1.4,59.929903344336836,
V,left,Pretarget,0,51,51,51,221.63587117620045,223.63648904080037,left,1,1,0.5878939608228393,R17D05,2022-11-14_15h16.19.627,t1_Paradigm,2021.1.4,59.929903344336836,
V,right,Target,0,52,52,52,225.15173098316882,227.15187470248202,right,1,1,0.5233983320649713,R17D05,2022-11-14_15h16.19.627,t1_Paradigm,2021.1.4,59.929903344336836,
R,left,Distractor,0,53,53,53,228.65141435165424,230.65091229660902,left,1,1,0.8179160191793926,R17D05,2022-11-14_15h16.19.627,t1_Paradigm,2021.1.4,59.929903344336836,
V,left,Lure,0,54,54,54,232.15059566509444,234.150301489688,left,1,1,0.5045800894731656,R17D05,2022-11-14_15h16.19.627,t1_Paradigm,2021.1.4,59.929903344336836,
Y,left,Distractor,0,55,55,55,235.65003971528495,237.6508195848437,left,1,1,0.455105691391509,R17D05,2022-11-14_15h16.19.627,t1_Paradigm,2021.1.4,59.929903344336836,
Q,left,Distractor,0,56,56,56,239.16612119640922,241.16676247952273,left,1,1,0.41843289526877925,R17D05,2022-11-14_15h16.19.627,t1_Paradigm,2021.1.4,59.929903344336836,
Z,left,Pretarget,0,57,57,57,242.6659816475585,244.66534228925593,left,1,1,0.450097652093973,R17D05,2022-11-14_15h16.19.627,t1_Paradigm,2021.1.4,59.929903344336836,
Z,right,Target,0,58,58,58,246.16482323169475,248.1647430312587,right,1,1,0.39845816168235615,R17D05,2022-11-14_15h16.19.627,t1_Paradigm,2021.1.4,59.929903344336836,
B,left,Distractor,0,59,59,59,249.66446778317913,251.6639391015633,left,1,1,0.3947949241264723,R17D05,2022-11-14_15h16.19.627,t1_Paradigm,2021.1.4,59.929903344336836,
S,left,Pretarget,0,60,60,60,253.1638540890417,255.1639891466475,left,1,1,0.4603267432539724,R17D05,2022-11-14_15h16.19.627,t1_Paradigm,2021.1.4,59.929903344336836,
S,right,Target,0,61,61,61,256.66317559289746,258.663042780885,right,1,1,0.44094838039018214,R17D05,2022-11-14_15h16.19.627,t1_Paradigm,2021.1.4,59.929903344336836,
T,left,Distractor,0,62,62,62,260.1629975478281,262.1622314727283,left,1,1,0.429220502555836,R17D05,2022-11-14_15h16.19.627,t1_Paradigm,2021.1.4,59.929903344336836,
D,left,Distractor,0,63,63,63,263.6621272120974,265.6630071718828,left,1,1,0.4077184307971038,R17D05,2022-11-14_15h16.19.627,t1_Paradigm,2021.1.4,59.929903344336836,
R,left,Distractor,0,0,0,0,329.8575430805213,331.85068208910525,left,1,1,1.452588358486537,R17D05,2022-11-14_15h16.19.627,t1_Paradigm,2021.1.4,59.929903344336836,
V,left,Distractor,0,1,1,1,333.3504552821396,335.35036224959185,left,1,1,0.4331198502914049,R17D05,2022-11-14_15h16.19.627,t1_Paradigm,2021.1.4,59.929903344336836,
N,left,Pretarget,0,2,2,2,336.84967445017537,338.8495166156208,left,1,1,0.4497117273276672,R17D05,2022-11-14_15h16.19.627,t1_Paradigm,2021.1.4,59.929903344336836,
N,right,Target,0,3,3,3,340.34912267082836,342.3489834427601,right,1,1,0.372924571740441,R17D05,2022-11-14_15h16.19.627,t1_Paradigm,2021.1.4,59.929903344336836,
S,left,Distractor,0,4,4,4,343.8485744202626,345.8482324454235,left,1,1,0.35288728174054995,R17D05,2022-11-14_15h16.19.627,t1_Paradigm,2021.1.4,59.929903344336836,
N,left,Lure,0,5,5,5,347.34811278630514,349.3477249367279,left,1,1,0.5125991759705357,R17D05,2022-11-14_15h16.19.627,t1_Paradigm,2021.1.4,59.929903344336836,
Z,left,Distractor,0,6,6,6,350.84731463104254,352.847166099702,left,1,1,0.43996351840905845,R17D05,2022-11-14_15h16.19.627,t1_Paradigm,2021.1.4,59.929903344336836,
L,left,Pretarget,0,7,7,7,354.3468911724631,356.34638173895655,left,1,1,0.45726821734569967,R17D05,2022-11-14_15h16.19.627,t1_Paradigm,2021.1.4,59.929903344336836,
L,right,Target,0,8,8,8,357.84617353847716,359.8458790422883,right,1,1,0.4045078448834829,R17D05,2022-11-14_15h16.19.627,t1_Paradigm,2021.1.4,59.929903344336836,
H,left,Distractor,0,9,9,9,361.3457061300287,363.34542350348784,left,1,1,0.4541535511962138,R17D05,2022-11-14_15h16.19.627,t1_Paradigm,2021.1.4,59.929903344336836,
L,left,Lure,0,10,10,10,364.8450324459118,366.8452015085495,left,1,1,0.4707643555593677,R17D05,2022-11-14_15h16.19.627,t1_Paradigm,2021.1.4,59.929903344336836,
X,left,Pretarget,0,11,11,11,368.34419290721416,370.34420028567547,left,1,1,0.5372845654492266,R17D05,2022-11-14_15h16.19.627,t1_Paradigm,2021.1.4,59.929903344336836,
X,right,Target,0,12,12,12,371.8438178897486,373.8434627619572,right,1,1,0.46472622122382745,R17D05,2022-11-14_15h16.19.627,t1_Paradigm,2021.1.4,59.929903344336836,
X,right,Target,0,13,13,13,375.34352243115427,377.3431355439825,right,1,1,0.44875092554138973,R17D05,2022-11-14_15h16.19.627,t1_Paradigm,2021.1.4,59.929903344336836,
R,left,Distractor,0,14,14,14,378.8428525966592,380.8428593334975,left,1,1,0.4161571262520738,R17D05,2022-11-14_15h16.19.627,t1_Paradigm,2021.1.4,59.929903344336836,
T,left,Distractor,0,15,15,15,382.3421218097792,384.3416980304173,left,1,1,0.3927299219649285,R17D05,2022-11-14_15h16.19.627,t1_Paradigm,2021.1.4,59.929903344336836,
V,left,Pretarget,0,16,16,16,385.84148694272153,387.8417464715312,left,1,1,0.437607228057459,R17D05,2022-11-14_15h16.19.627,t1_Paradigm,2021.1.4,59.929903344336836,
V,right,Target,0,17,17,17,389.3410127974348,391.34050849679625,right,1,1,0.4508791256812401,R17D05,2022-11-14_15h16.19.627,t1_Paradigm,2021.1.4,59.929903344336836,
N,left,Distractor,0,18,18,18,392.84048507822445,394.84014887775993,left,1,1,0.4109174679033458,R17D05,2022-11-14_15h16.19.627,t1_Paradigm,2021.1.4,59.929903344336836,
B,left,Distractor,0,19,19,19,396.33984251192305,398.33949636662146,left,1,1,0.4110435431357473,R17D05,2022-11-14_15h16.19.627,t1_Paradigm,2021.1.4,59.929903344336836,
V,left,Lure,0,20,20,20,399.83948128891643,401.8387735998258,left,1,1,0.4198617471847683,R17D05,2022-11-14_15h16.19.627,t1_Paradigm,2021.1.4,59.929903344336836,
P,left,Distractor,0,21,21,21,403.33990988030564,405.34059222607175,left,1,1,0.4832916718441993,R17D05,2022-11-14_15h16.19.627,t1_Paradigm,2021.1.4,59.929903344336836,
K,left,Pretarget,0,22,22,22,406.83801746962126,408.8376684371033,left,1,1,0.43774485209723935,R17D05,2022-11-14_15h16.19.627,t1_Paradigm,2021.1.4,59.929903344336836,
K,right,Target,0,23,23,23,410.33913803083124,412.33849386050133,right,1,1,0.3719756396021694,R17D05,2022-11-14_15h16.19.627,t1_Paradigm,2021.1.4,59.929903344336836,
J,left,Pretarget,0,24,24,24,413.83700918906834,415.83698127930984,left,1,1,0.4345891232951544,R17D05,2022-11-14_15h16.19.627,t1_Paradigm,2021.1.4,59.929903344336836,
J,right,Target,0,25,25,25,417.3376523969928,419.33600122929784,right,1,1,0.43148568517062813,R17D05,2022-11-14_15h16.19.627,t1_Paradigm,2021.1.4,59.929903344336836,
H,left,Distractor,0,26,26,26,420.8360663521453,422.83538240235066,left,1,1,0.4320717903319746,R17D05,2022-11-14_15h16.19.627,t1_Paradigm,2021.1.4,59.929903344336836,
J,left,Lure,0,27,27,27,424.336229640292,426.35186296113534,left,1,1,0.4404931624303572,R17D05,2022-11-14_15h16.19.627,t1_Paradigm,2021.1.4,59.929903344336836,
V,left,Distractor,0,28,28,28,427.8510628810618,429.85085660539335,left,1,1,0.38825377234024927,R17D05,2022-11-14_15h16.19.627,t1_Paradigm,2021.1.4,59.929903344336836,
Z,left,Pretarget,0,29,29,29,431.3506006054231,433.3502393824165,left,1,1,0.4542921376414597,R17D05,2022-11-14_15h16.19.627,t1_Paradigm,2021.1.4,59.929903344336836,
Z,right,Target,0,30,30,30,434.84995451028226,436.84971487126313,right,1,1,0.3854990459512919,R17D05,2022-11-14_15h16.19.627,t1_Paradigm,2021.1.4,59.929903344336836,
T,left,Distractor,0,31,31,31,438.3494460391812,440.3495823800331,left,1,1,0.37741066626040265,R17D05,2022-11-14_15h16.19.627,t1_Paradigm,2021.1.4,59.929903344336836,
Z,left,Lure,0,32,32,32,441.84895392897306,443.8483469717321,left,1,1,0.36662594618974254,R17D05,2022-11-14_15h16.19.627,t1_Paradigm,2021.1.4,59.929903344336836,
F,left,Distractor,0,33,33,33,445.34839027997805,447.3479305707733,left,1,1,0.4078579797060229,R17D05,2022-11-14_15h16.19.627,t1_Paradigm,2021.1.4,59.929903344336836,
Y,left,Pretarget,0,34,34,34,448.84753662598087,450.8472081247601,left,1,1,0.412472715775948,R17D05,2022-11-14_15h16.19.627,t1_Paradigm,2021.1.4,59.929903344336836,
Y,right,Target,0,35,35,35,452.34691138297785,454.34667078149505,right,1,1,0.49089981097495183,R17D05,2022-11-14_15h16.19.627,t1_Paradigm,2021.1.4,59.929903344336836,
Y,right,Target,0,36,36,36,455.84653444064315,457.8460798643064,right,1,1,0.4592822120175697,R17D05,2022-11-14_15h16.19.627,t1_Paradigm,2021.1.4,59.929903344336836,
W,left,Distractor,0,37,37,37,459.3460099294898,461.3456634633476,left,1,1,0.37008868250995874,R17D05,2022-11-14_15h16.19.627,t1_Paradigm,2021.1.4,59.929903344336836,
Q,left,Distractor,0,38,38,38,462.8451572378981,464.84495096222963,left,1,1,0.39151151617988944,R17D05,2022-11-14_15h16.19.627,t1_Paradigm,2021.1.4,59.929903344336836,
P,left,Pretarget,0,39,39,39,466.3447992228903,468.3443199447938,left,1,1,0.4412152876611799,R17D05,2022-11-14_15h16.19.627,t1_Paradigm,2021.1.4,59.929903344336836,
P,right,Target,0,40,40,40,469.8441656390205,471.8438939197804,right,1,1,0.5518653350300156,R17D05,2022-11-14_15h16.19.627,t1_Paradigm,2021.1.4,59.929903344336836,
J,left,Distractor,0,41,41,41,473.3434496090631,475.3429738598061,left,1,1,0.4061484261183068,R17D05,2022-11-14_15h16.19.627,t1_Paradigm,2021.1.4,59.929903344336836,
P,left,Lure,0,42,42,42,476.8428157044109,478.84267262677895,left,1,1,0.38631773251108825,R17D05,2022-11-14_15h16.19.627,t1_Paradigm,2021.1.4,59.929903344336836,
L,left,Distractor,0,43,43,43,480.3426033335272,482.34211378975306,left,1,1,0.6441526786074974,R17D05,2022-11-14_15h16.19.627,t1_Paradigm,2021.1.4,59.929903344336836,
Z,left,Distractor,0,44,44,44,483.8418308424298,485.8419527471415,left,1,1,0.5094813017640263,R17D05,2022-11-14_15h16.19.627,t1_Paradigm,2021.1.4,59.929903344336836,
F,left,Pretarget,0,45,45,45,487.3411298901774,489.34088415588485,left,1,1,0.4089233629638329,R17D05,2022-11-14_15h16.19.627,t1_Paradigm,2021.1.4,59.929903344336836,
F,right,Target,0,46,46,46,490.84064227121416,492.840495985467,right,1,1,0.5272120257141069,R17D05,2022-11-14_15h16.19.627,t1_Paradigm,2021.1.4,59.929903344336836,
G,left,Pretarget,0,47,47,47,494.3401235344354,496.3402143213898,left,1,1,0.4135688960668631,R17D05,2022-11-14_15h16.19.627,t1_Paradigm,2021.1.4,59.929903344336836,
G,right,Target,0,48,48,48,497.83938184031285,499.8389368879725,right,1,1,0.5699855125858448,R17D05,2022-11-14_15h16.19.627,t1_Paradigm,2021.1.4,59.929903344336836,
V,left,Distractor,0,49,49,49,501.33871296822326,503.3401969980914,left,1,1,0.38157467561541125,R17D05,2022-11-14_15h16.19.627,t1_Paradigm,2021.1.4,59.929903344336836,
G,left,Lure,0,50,50,50,504.83856251213,506.8381076149526,left,1,1,0.38374907127581537,R17D05,2022-11-14_15h16.19.627,t1_Paradigm,2021.1.4,59.929903344336836,
Q,left,Pretarget,0,51,51,51,508.33935810095863,510.3381618304993,left,1,1,0.608765335928183,R17D05,2022-11-14_15h16.19.627,t1_Paradigm,2021.1.4,59.929903344336836,
Q,right,Target,0,52,52,52,511.83747595589375,513.8369982817676,right,1,1,0.4589642973151058,R17D05,2022-11-14_15h16.19.627,t1_Paradigm,2021.1.4,59.929903344336836,
Y,left,Distractor,0,53,53,53,515.3381557352259,517.3361571390997,left,1,1,0.3864178227377124,R17D05,2022-11-14_15h16.19.627,t1_Paradigm,2021.1.4,59.929903344336836,
V,left,Distractor,0,54,54,54,518.8358052193071,520.8364304623101,left,1,1,0.4517671054927632,R17D05,2022-11-14_15h16.19.627,t1_Paradigm,2021.1.4,59.929903344336836,
B,left,Distractor,0,55,55,55,522.3364317455562,524.3516756127938,left,1,1,0.5021371825714596,R17D05,2022-11-14_15h16.19.627,t1_Paradigm,2021.1.4,59.929903344336836,
J,left,Pretarget,0,56,56,56,525.8513666804647,527.8511960138567,left,1,1,0.600656745780725,R17D05,2022-11-14_15h16.19.627,t1_Paradigm,2021.1.4,59.929903344336836,
J,right,Target,0,57,57,57,529.3507998234127,531.3504710014677,right,1,1,0.40149134409148246,R17D05,2022-11-14_15h16.19.627,t1_Paradigm,2021.1.4,59.929903344336836,
H,left,Distractor,0,58,58,58,532.850431863626,534.8499907609075,left,1,1,0.3821912570274435,R17D05,2022-11-14_15h16.19.627,t1_Paradigm,2021.1.4,59.929903344336836,
J,left,Lure,0,59,59,59,536.3497636331595,538.3492814677884,left,1,1,0.8318702625692822,R17D05,2022-11-14_15h16.19.627,t1_Paradigm,2021.1.4,59.929903344336836,
D,left,Pretarget,0,60,60,60,539.8488888061838,541.8486764353001,left,1,1,0.4167371361400001,R17D05,2022-11-14_15h16.19.627,t1_Paradigm,2021.1.4,59.929903344336836,
D,right,Target,0,61,61,61,543.3484153025202,545.3480316234054,right,1,1,0.3767680999590084,R17D05,2022-11-14_15h16.19.627,t1_Paradigm,2021.1.4,59.929903344336836,
R,left,Distractor,0,62,62,62,546.8477823602734,548.8473710921826,left,1,1,0.361122909525875,R17D05,2022-11-14_15h16.19.627,t1_Paradigm,2021.1.4,59.929903344336836,
F,left,Distractor,0,63,63,63,550.3471150922123,552.347080124775,left,1,1,0.45135776221286505,R17D05,2022-11-14_15h16.19.627,t1_Paradigm,2021.1.4,59.929903344336836,
F,left,Distractor,0,0,0,0,672.383921662753,674.3766955987085,left,1,2,0.7195520449895412,R17D05,2022-11-14_15h16.19.627,t1_Paradigm,2021.1.4,59.929903344336836,
N,left,Pretarget,0,1,1,1,675.8761104559526,677.8756157793687,left,1,2,0.5577635997906327,R17D05,2022-11-14_15h16.19.627,t1_Paradigm,2021.1.4,59.929903344336836,
V,left,Distractor,0,2,2,2,679.3754075788893,681.3754056540783,left,1,2,0.4726869217120111,R17D05,2022-11-14_15h16.19.627,t1_Paradigm,2021.1.4,59.929903344336836,
N,right,Target,0,3,3,3,682.8750601503998,684.8747117594467,right,1,2,0.8126192581257783,R17D05,2022-11-14_15h16.19.627,t1_Paradigm,2021.1.4,59.929903344336836,
N,left,Lure,0,4,4,4,686.3745962707326,688.3741368823685,left,1,2,0.8377409382956102,R17D05,2022-11-14_15h16.19.627,t1_Paradigm,2021.1.4,59.929903344336836,
X,left,Distractor,0,5,5,5,689.8736168624018,691.8735235090135,left,1,2,0.569375988910906,R17D05,2022-11-14_15h16.19.627,t1_Paradigm,2021.1.4,59.929903344336836,
G,left,Pretarget,0,6,6,6,693.3734307972481,695.3730294739944,left,1,2,0.6761189893004484,R17D05,2022-11-14_15h16.19.627,t1_Paradigm,2021.1.4,59.929903344336836,
H,left,Pretarget,0,7,7,7,696.8727128424798,698.8724533137283,left,1,2,0.5300418197293766,R17D05,2022-11-14_15h16.19.627,t1_Paradigm,2021.1.4,59.929903344336836,
G,right,Target,0,8,8,8,700.3722451132489,702.3718463564292,right,1,2,0.4165424093953334,R17D05,2022-11-14_15h16.19.627,t1_Paradigm,2021.1.4,59.929903344336836,
H,right,Target,0,9,9,9,703.8714431083645,705.8711893539876,right,1,2,0.4298877706169151,R17D05,2022-11-14_15h16.19.627,t1_Paradigm,2021.1.4,59.929903344336836,
T,left,Pretarget,0,10,10,10,707.3709968728363,709.3704906473286,left,1,2,0.4143205350264907,R17D05,2022-11-14_15h16.19.627,t1_Paradigm,2021.1.4,59.929903344336836,
K,left,Distractor,0,11,11,11,710.870623459341,712.870147710084,left,1,2,0.34570099716074765,R17D05,2022-11-14_15h16.19.627,t1_Paradigm,2021.1.4,59.929903344336836,
T,right,Target,0,12,12,12,714.3698779155966,716.3695686625433,right,1,2,0.5262185020837933,R17D05,2022-11-14_15h16.19.627,t1_Paradigm,2021.1.4,59.929903344336836,
T,left,Lure,0,13,13,13,717.8692671086756,719.8688571238308,left,1,2,0.6209583765594289,R17D05,2022-11-14_15h16.19.627,t1_Paradigm,2021.1.4,59.929903344336836,
J,left,Distractor,0,14,14,14,721.3686915899743,723.3680993895978,left,1,2,0.45064205303788185,R17D05,2022-11-14_15h16.19.627,t1_Paradigm,2021.1.4,59.929903344336836,
Q,left,Pretarget,0,15,15,15,724.8681022768142,726.8678289535455,left,1,2,0.5167047993163578,R17D05,2022-11-14_15h16.19.627,t1_Paradigm,2021.1.4,59.929903344336836,
M,left,Distractor,0,16,16,16,728.3675697455765,730.3675306077348,left,1,2,0.4030825218069367,R17D05,2022-11-14_15h16.19.627,t1_Paradigm,2021.1.4,59.929903344336836,
Q,right,Target,0,17,17,17,731.8665941868094,733.8664751693141,right,1,2,0.4987450227490626,R17D05,2022-11-14_15h16.19.627,t1_Paradigm,2021.1.4,59.929903344336836,
R,left,Distractor,0,18,18,18,735.3661944675841,737.3658759112586,left,1,2,0.38966947130393237,R17D05,2022-11-14_15h16.19.627,t1_Paradigm,2021.1.4,59.929903344336836,
W,left,Distractor,0,19,19,19,738.8655217458727,740.8653250943171,left,1,2,0.45581787172704935,R17D05,2022-11-14_15h16.19.627,t1_Paradigm,2021.1.4,59.929903344336836,
C,left,Pretarget,0,20,20,20,742.364934036741,744.3650960416999,left,1,2,0.39519400178687647,R17D05,2022-11-14_15h16.19.627,t1_Paradigm,2021.1.4,59.929903344336836,
T,left,Distractor,0,21,21,21,745.8646039314917,747.8642629189999,left,1,2,0.4372982957283966,R17D05,2022-11-14_15h16.19.627,t1_Paradigm,2021.1.4,59.929903344336836,
C,right,Target,0,22,22,22,749.3638725030469,751.364725515421,right,1,2,0.44553745235316455,R17D05,2022-11-14_15h16.19.627,t1_Paradigm,2021.1.4,59.929903344336836,
F,left,Pretarget,0,23,23,23,752.8634137562476,754.8630968039506,left,1,2,0.47176814486738294,R17D05,2022-11-14_15h16.19.627,t1_Paradigm,2021.1.4,59.929903344336836,
C,right,Target,0,24,24,24,756.3625533654122,758.362486959435,right,1,2,0.5382010966422968,R17D05,2022-11-14_15h16.19.627,t1_Paradigm,2021.1.4,59.929903344336836,
F,right,Target,0,25,25,25,759.8621590998373,761.861834127456,right,1,2,0.5311854787287302,R17D05,2022-11-14_15h16.19.627,t1_Paradigm,2021.1.4,59.929903344336836,
H,left,Distractor,0,26,26,26,763.361552784103,765.3611081526033,left,1,2,0.36836052231956273,R17D05,2022-11-14_15h16.19.627,t1_Paradigm,2021.1.4,59.929903344336836,
H,left,Lure,0,27,27,27,766.861101415765,768.8607459671912,left,1,2,0.5078445701510645,R17D05,2022-11-14_15h16.19.627,t1_Paradigm,2021.1.4,59.929903344336836,
P,left,Distractor,0,28,28,28,770.360420353245,772.3596882831771,left,1,2,0.3789052825886756,R17D05,2022-11-14_15h16.19.627,t1_Paradigm,2021.1.4,59.929903344336836,
G,left,Pretarget,0,29,29,29,773.8597829197533,775.8594983684015,left,1,2,0.3794612323399633,R17D05,2022-11-14_15h16.19.627,t1_Paradigm,2021.1.4,59.929903344336836,
K,left,Distractor,0,30,30,30,777.3593129448709,779.3588391204248,left,1,2,0.3725906169274822,R17D05,2022-11-14_15h16.19.627,t1_Paradigm,2021.1.4,59.929903344336836,
G,right,Target,0,31,31,31,780.8586476016208,782.8583681831369,right,1,2,0.3652548386598937,R17D05,2022-11-14_15h16.19.627,t1_Paradigm,2021.1.4,59.929903344336836,
M,left,Pretarget,0,32,32,32,784.3580069601303,786.3577368448605,left,1,2,0.37433064670767635,R17D05,2022-11-14_15h16.19.627,t1_Paradigm,2021.1.4,59.929903344336836,
B,left,Distractor,0,33,33,33,787.857465446461,789.8572363938438,left,1,2,0.4484666949720122,R17D05,2022-11-14_15h16.19.627,t1_Paradigm,2021.1.4,59.929903344336836,
M,right,Target,0,34,34,34,791.3569171958952,793.3565553312656,right,1,2,0.49841459677554667,R17D05,2022-11-14_15h16.19.627,t1_Paradigm,2021.1.4,59.929903344336836,
M,left,Lure,0,35,35,35,794.8562598726712,796.8560725243296,left,1,2,0.46651661687064916,R17D05,2022-11-14_15h16.19.627,t1_Paradigm,2021.1.4,59.929903344336836,
T,left,Distractor,0,36,36,36,798.3557497975999,800.3553314718301,right,0,2,0.45089676982024685,R17D05,2022-11-14_15h16.19.627,t1_Paradigm,2021.1.4,59.929903344336836,
F,left,Distractor,0,37,37,37,801.8552682738518,803.8547190608806,left,1,2,0.43708464165683836,R17D05,2022-11-14_15h16.19.627,t1_Paradigm,2021.1.4,59.929903344336836,
X,left,Distractor,0,38,38,38,805.3544316223706,807.3541643943172,left,1,2,0.5604217647924088,R17D05,2022-11-14_15h16.19.627,t1_Paradigm,2021.1.4,59.929903344336836,
C,left,Distractor,0,39,39,39,808.8538127953652,810.8537239332218,left,1,2,0.5243716451805085,R17D05,2022-11-14_15h16.19.627,t1_Paradigm,2021.1.4,59.929903344336836,
R,left,Distractor,0,40,40,40,812.3533996024635,814.3549663992017,left,1,2,0.6464201068156399,R17D05,2022-11-14_15h16.19.627,t1_Paradigm,2021.1.4,59.929903344336836,
B,left,Pretarget,0,41,41,41,815.8695420359727,817.869021374383,left,1,2,0.39188332558842376,R17D05,2022-11-14_15h16.19.627,t1_Paradigm,2021.1.4,59.929903344336836,
H,left,Distractor,0,42,42,42,819.3689947478706,821.368410567462,left,1,2,0.4053111330140382,R17D05,2022-11-14_15h16.19.627,t1_Paradigm,2021.1.4,59.929903344336836,
B,right,Target,0,43,43,43,822.8683072692365,824.8679187780945,right,1,2,0.4016668228432536,R17D05,2022-11-14_15h16.19.627,t1_Paradigm,2021.1.4,59.929903344336836,
W,left,Pretarget,0,44,44,44,826.3677509986446,828.367348392203,left,1,2,0.4109748914488591,R17D05,2022-11-14_15h16.19.627,t1_Paradigm,2021.1.4,59.929903344336836,
L,left,Pretarget,0,45,45,45,829.8671235100483,831.8666811241419,left,1,2,0.37915614974917844,R17D05,2022-11-14_15h16.19.627,t1_Paradigm,2021.1.4,59.929903344336836,
W,right,Target,0,46,46,46,833.3664960214519,835.3661598209874,right,1,2,0.5185064231045544,R17D05,2022-11-14_15h16.19.627,t1_Paradigm,2021.1.4,59.929903344336836,
L,right,Target,0,47,47,47,836.865910237073,838.8662695352687,right,1,2,0.5677270668675192,R17D05,2022-11-14_15h16.19.627,t1_Paradigm,2021.1.4,59.929903344336836,
W,right,Target,0,48,48,48,840.3652346281451,842.3649205630063,right,1,2,0.5657842902000993,R17D05,2022-11-14_15h16.19.627,t1_Paradigm,2021.1.4,59.929903344336836,
X,left,Distractor,0,49,49,49,843.864701134502,845.8647322522593,left,1,2,0.5418418779736385,R17D05,2022-11-14_15h16.19.627,t1_Paradigm,2021.1.4,59.929903344336836,
R,left,Distractor,0,50,50,50,847.3641105380957,849.3637743376312,left,1,2,0.6043055471382104,R17D05,2022-11-14_15h16.19.627,t1_Paradigm,2021.1.4,59.929903344336836,
V,left,Pretarget,0,51,51,51,850.8634169642464,852.8631426786305,left,1,2,0.666696394328028,R17D05,2022-11-14_15h16.19.627,t1_Paradigm,2021.1.4,59.929903344336836,
Z,left,Distractor,0,52,52,52,854.3630384179414,856.362704142346,left,1,2,0.5250806175754406,R17D05,2022-11-14_15h16.19.627,t1_Paradigm,2021.1.4,59.929903344336836,
V,right,Target,0,53,53,53,857.8623477313668,859.8620538768009,None,0,2,,R17D05,2022-11-14_15h16.19.627,t1_Paradigm,2021.1.4,59.929903344336836,
V,left,Lure,0,54,54,54,861.3617667590152,863.361567861808,None,0,2,,R17D05,2022-11-14_15h16.19.627,t1_Paradigm,2021.1.4,59.929903344336836,
N,left,Distractor,0,55,55,55,864.8613262979197,866.8607616865193,left,1,2,0.748580772196874,R17D05,2022-11-14_15h16.19.627,t1_Paradigm,2021.1.4,59.929903344336836,
B,left,Distractor,0,56,56,56,868.3606943180785,870.3602525737952,left,1,2,1.0677142347558402,R17D05,2022-11-14_15h16.19.627,t1_Paradigm,2021.1.4,59.929903344336836,
V,left,Lure,0,57,57,57,871.8601085336995,873.8596478621475,left,1,2,0.71819441113621,R17D05,2022-11-14_15h16.19.627,t1_Paradigm,2021.1.4,59.929903344336836,
J,left,Distractor,0,58,58,58,875.3596039122785,877.359816924727,left,1,2,0.5673966408357956,R17D05,2022-11-14_15h16.19.627,t1_Paradigm,2021.1.4,59.929903344336836,
H,left,Distractor,0,59,59,59,878.8589129048632,880.858861576533,left,1,2,0.8422796443337575,R17D05,2022-11-14_15h16.19.627,t1_Paradigm,2021.1.4,59.929903344336836,
X,left,Pretarget,0,60,60,60,882.3581856468227,884.3585943484795,left,1,2,1.3285830049426295,R17D05,2022-11-14_15h16.19.627,t1_Paradigm,2021.1.4,59.929903344336836,
P,left,Distractor,0,61,61,61,885.8578690153081,887.8573769051,left,1,2,0.8650915505131707,R17D05,2022-11-14_15h16.19.627,t1_Paradigm,2021.1.4,59.929903344336836,
X,right,Target,0,62,62,62,889.3570172861218,891.356788554287,right,1,2,0.5764458223129623,R17D05,2022-11-14_15h16.19.627,t1_Paradigm,2021.1.4,59.929903344336836,
Q,left,Distractor,0,63,63,63,892.8563907598727,894.8561485544196,left,1,2,0.8387626925250515,R17D05,2022-11-14_15h16.19.627,t1_Paradigm,2021.1.4,59.929903344336836,
B,left,Pretarget,0,0,0,0,903.4180719931028,905.4210291455383,left,1,2,0.5025478091556579,R17D05,2022-11-14_15h16.19.627,t1_Paradigm,2021.1.4,59.929903344336836,
F,left,Distractor,0,1,1,1,906.9208796517923,908.9205418473575,left,1,2,1.0377587107359432,R17D05,2022-11-14_15h16.19.627,t1_Paradigm,2021.1.4,59.929903344336836,
B,right,Target,0,2,2,2,910.4205171455978,912.4199807647383,right,1,2,0.5287621407187544,R17D05,2022-11-14_15h16.19.627,t1_Paradigm,2021.1.4,59.929903344336836,
V,left,Distractor,0,3,3,3,913.9197802635026,915.9211853760644,left,1,2,0.5282716345973313,R17D05,2022-11-14_15h16.19.627,t1_Paradigm,2021.1.4,59.929903344336836,
G,left,Pretarget,0,4,4,4,917.418984033051,919.4186718927813,left,1,2,0.3966267033247277,R17D05,2022-11-14_15h16.19.627,t1_Paradigm,2021.1.4,59.929903344336836,
B,left,Lure,0,5,5,5,920.9186452662107,922.91824458458,left,1,2,0.9401008216664195,R17D05,2022-11-14_15h16.19.627,t1_Paradigm,2021.1.4,59.929903344336836,
G,right,Target,0,6,6,6,924.4177531159366,926.417655592144,None,0,2,,R17D05,2022-11-14_15h16.19.627,t1_Paradigm,2021.1.4,59.929903344336836,
Y,left,Pretarget,0,7,7,7,927.9174220483401,929.9170710910112,left,1,2,1.3910043282667175,R17D05,2022-11-14_15h16.19.627,t1_Paradigm,2021.1.4,59.929903344336836,
P,left,Distractor,0,8,8,8,931.4167958429316,933.4163005247246,left,1,2,1.1880605212063529,R17D05,2022-11-14_15h16.19.627,t1_Paradigm,2021.1.4,59.929903344336836,
Y,right,Target,0,9,9,9,934.9161272916826,936.9163970861118,right,1,2,0.7315660781459883,R17D05,2022-11-14_15h16.19.627,t1_Paradigm,2021.1.4,59.929903344336836,
X,left,Distractor,0,10,10,10,938.415674960881,940.4151642441866,left,1,2,1.0312095388653688,R17D05,2022-11-14_15h16.19.627,t1_Paradigm,2021.1.4,59.929903344336836,
Y,right,Target,0,11,11,11,941.9150580587448,943.9145495876437,right,1,2,0.6692342585884035,R17D05,2022-11-14_15h16.19.627,t1_Paradigm,2021.1.4,59.929903344336836,
N,left,Distractor,0,12,12,12,945.4144761239877,947.4146766252234,left,1,2,0.7186313433339819,R17D05,2022-11-14_15h16.19.627,t1_Paradigm,2021.1.4,59.929903344336836,
Y,right,Target,0,13,13,13,948.9138377280906,950.913350429968,right,1,2,0.9079872628790326,R17D05,2022-11-14_15h16.19.627,t1_Paradigm,2021.1.4,59.929903344336836,
Y,left,Lure,0,14,14,14,952.4132323748199,954.412722620531,left,1,2,0.9007637652684934,R17D05,2022-11-14_15h16.19.627,t1_Paradigm,2021.1.4,59.929903344336836,
K,left,Distractor,0,15,15,15,955.9125359138125,957.9123732671724,None,0,2,,R17D05,2022-11-14_15h16.19.627,t1_Paradigm,2021.1.4,59.929903344336836,
T,left,Pretarget,0,16,16,16,959.4119770767866,961.4117701595533,left,1,2,1.1393454613280483,R17D05,2022-11-14_15h16.19.627,t1_Paradigm,2021.1.4,59.929903344336836,
J,left,Distractor,0,17,17,17,962.9114336383063,964.9112010568497,left,1,2,0.79347251431318,R17D05,2022-11-14_15h16.19.627,t1_Paradigm,2021.1.4,59.929903344336836,
T,right,Target,0,18,18,18,966.4107747110538,968.4104622499435,right,1,2,0.6602652776055038,R17D05,2022-11-14_15h16.19.627,t1_Paradigm,2021.1.4,59.929903344336836,
S,left,Pretarget,0,19,19,19,969.9103448364185,971.909841177403,left,1,2,0.9552298417547718,R17D05,2022-11-14_15h16.19.627,t1_Paradigm,2021.1.4,59.929903344336836,
R,left,Distractor,0,20,20,20,973.4097250470659,975.4093031925149,left,1,2,1.3356669536442496,R17D05,2022-11-14_15h16.19.627,t1_Paradigm,2021.1.4,59.929903344336836,
S,right,Target,0,21,21,21,976.909035002056,978.9094703303417,right,1,2,0.7891124949674122,R17D05,2022-11-14_15h16.19.627,t1_Paradigm,2021.1.4,59.929903344336836,
Q,left,Distractor,0,22,22,22,980.408453708922,982.4080761250225,left,1,2,0.5910512937116437,R17D05,2022-11-14_15h16.19.627,t1_Paradigm,2021.1.4,59.929903344336836,
D,left,Distractor,0,23,23,23,983.9079176488449,985.9075349321356,left,1,2,1.1386656820541248,R17D05,2022-11-14_15h16.19.627,t1_Paradigm,2021.1.4,59.929903344336836,
F,left,Distractor,0,24,24,24,987.4073626614991,989.4070578996325,left,1,2,0.7317037021857686,R17D05,2022-11-14_15h16.19.627,t1_Paradigm,2021.1.4,59.929903344336836,
Z,left,Distractor,0,25,25,25,990.9067765563377,992.9064169373014,left,1,2,0.6019187806523405,R17D05,2022-11-14_15h16.19.627,t1_Paradigm,2021.1.4,59.929903344336836,
P,left,Distractor,0,26,26,26,994.4062222105567,996.405982250697,left,1,2,0.5782195363426581,R17D05,2022-11-14_15h16.19.627,t1_Paradigm,2021.1.4,59.929903344336836,
H,left,Distractor,0,27,27,27,997.905469288351,999.9051302006701,left,1,2,0.5469147192779928,R17D05,2022-11-14_15h16.19.627,t1_Paradigm,2021.1.4,59.929903344336836,
Z,left,Pretarget,0,28,28,28,1001.405061228259,1003.4047067420906,left,1,2,0.5644154282636009,R17D05,2022-11-14_15h16.19.627,t1_Paradigm,2021.1.4,59.929903344336836,
J,left,Pretarget,0,29,29,29,1004.9044016594416,1006.9042133486946,left,1,2,0.7125768481055275,R17D05,2022-11-14_15h16.19.627,t1_Paradigm,2021.1.4,59.929903344336836,
Z,right,Target,0,30,30,30,1008.403957669565,1010.4034915443044,right,1,2,0.6404714762466028,R17D05,2022-11-14_15h16.19.627,t1_Paradigm,2021.1.4,59.929903344336836,
J,right,Target,0,31,31,31,1011.9032907222863,1013.90303728875,right,1,2,0.8004486736026593,R17D05,2022-11-14_15h16.19.627,t1_Paradigm,2021.1.4,59.929903344336836,
V,left,Pretarget,0,32,32,32,1015.4027601158596,1017.402177218697,left,1,2,0.5653589068097062,R17D05,2022-11-14_15h16.19.627,t1_Paradigm,2021.1.4,59.929903344336836,
Z,left,Lure,0,33,33,33,1018.9017977099866,1020.9017203967087,left,1,2,0.4887238113442436,R17D05,2022-11-14_15h16.19.627,t1_Paradigm,2021.1.4,59.929903344336836,
V,right,Target,0,34,34,34,1022.4015606373432,1024.4010576198925,right,1,2,0.6941448510624468,R17D05,2022-11-14_15h16.19.627,t1_Paradigm,2021.1.4,59.929903344336836,
X,left,Distractor,0,35,35,35,1025.9012205872568,1027.900331003475,left,1,2,0.5121247098431922,R17D05,2022-11-14_15h16.19.627,t1_Paradigm,2021.1.4,59.929903344336836,
S,left,Distractor,0,36,36,36,1029.4002360461163,1031.3999322466552,left,1,2,0.5001956892083399,R17D05,2022-11-14_15h16.19.627,t1_Paradigm,2021.1.4,59.929903344336836,
Q,left,Distractor,0,37,37,37,1032.8994821615051,1034.9004269232391,left,1,2,0.5326614885125309,R17D05,2022-11-14_15h16.19.627,t1_Paradigm,2021.1.4,59.929903344336836,
P,left,Distractor,0,38,38,38,1036.415824454627,1038.415521296789,left,1,2,0.5101549858227372,R17D05,2022-11-14_15h16.19.627,t1_Paradigm,2021.1.4,59.929903344336836,
S,left,Lure,0,39,39,39,1039.9151915123803,1041.9146734172245,left,1,2,0.45443329052068293,R17D05,2022-11-14_15h16.19.627,t1_Paradigm,2021.1.4,59.929903344336836,
K,left,Pretarget,0,40,40,40,1043.4146766252234,1045.4141671917168,left,1,2,0.4555509645724669,R17D05,2022-11-14_15h16.19.627,t1_Paradigm,2021.1.4,59.929903344336836,
L,left,Distractor,0,41,41,41,1046.914147622825,1048.9136388308834,left,1,2,0.4848799623432569,R17D05,2022-11-14_15h16.19.627,t1_Paradigm,2021.1.4,59.929903344336836,
K,right,Target,0,42,42,42,1050.4134655978414,1052.4129885653383,right,1,2,0.4823748198687099,R17D05,2022-11-14_15h16.19.627,t1_Paradigm,2021.1.4,59.929903344336836,
B,left,Distractor,0,43,43,43,1053.9129311417928,1055.9124643749674,left,1,2,0.6914202800253406,R17D05,2022-11-14_15h16.19.627,t1_Paradigm,2021.1.4,59.929903344336836,
N,left,Distractor,0,44,44,44,1057.4119729063823,1059.411975472758,left,1,2,0.6924301646067761,R17D05,2022-11-14_15h16.19.627,t1_Paradigm,2021.1.4,59.929903344336836,
S,left,Pretarget,0,45,45,45,1060.9116726357606,1062.9113518337836,left,1,2,0.44905376253882423,R17D05,2022-11-14_15h16.19.627,t1_Paradigm,2021.1.4,59.929903344336836,
Z,left,Distractor,0,46,46,46,1064.4109248463647,1066.4107628414058,left,1,2,0.4415296735824086,R17D05,2022-11-14_15h16.19.627,t1_Paradigm,2021.1.4,59.929903344336836,
S,right,Target,0,47,47,47,1067.9103506109095,1069.9100095984177,left,0,2,0.4841126040555537,R17D05,2022-11-14_15h16.19.627,t1_Paradigm,2021.1.4,59.929903344336836,
C,left,Distractor,0,48,48,48,1071.4099043753813,1073.4095514932415,left,1,2,0.843951343325898,R17D05,2022-11-14_15h16.19.627,t1_Paradigm,2021.1.4,59.929903344336836,
T,left,Pretarget,0,49,49,49,1074.909244164941,1076.9104404354002,left,1,2,0.6965749258524738,R17D05,2022-11-14_15h16.19.627,t1_Paradigm,2021.1.4,59.929903344336836,
S,left,Lure,0,50,50,50,1078.4086721750791,1080.4089589720243,left,1,2,0.9352525416761637,R17D05,2022-11-14_15h16.19.627,t1_Paradigm,2021.1.4,59.929903344336836,
T,right,Target,0,51,51,51,1081.9080090774223,1083.907858621329,None,0,2,,R17D05,2022-11-14_15h16.19.627,t1_Paradigm,2021.1.4,59.929903344336836,
N,left,Pretarget,0,52,52,52,1085.4076606865274,1087.4072808569763,left,1,2,0.865013274771627,R17D05,2022-11-14_15h16.19.627,t1_Paradigm,2021.1.4,59.929903344336836,
B,left,Distractor,0,53,53,53,1088.9068224310176,1090.9065722054802,left,1,2,0.9765503396047279,R17D05,2022-11-14_15h16.19.627,t1_Paradigm,2021.1.4,59.929903344336836,
N,right,Target,0,54,54,54,1092.4063428320806,1094.4060220301035,right,1,2,1.1411015312187374,R17D05,2022-11-14_15h16.19.627,t1_Paradigm,2021.1.4,59.929903344336836,
N,left,Lure,0,55,55,55,1095.9058317945455,1097.90554339363,left,1,2,0.76268065959448,R17D05,2022-11-14_15h16.19.627,t1_Paradigm,2021.1.4,59.929903344336836,
X,left,Distractor,0,56,56,56,1099.4052463310072,1101.4049059601384,left,1,2,1.2777509730076417,R17D05,2022-11-14_15h16.19.627,t1_Paradigm,2021.1.4,59.929903344336836,
W,left,Distractor,0,57,57,57,1102.9047404263401,1104.9042165567516,left,1,2,1.417678689933382,R17D05,2022-11-14_15h16.19.627,t1_Paradigm,2021.1.4,59.929903344336836,
S,left,Distractor,0,58,58,58,1106.403944516671,1108.4043955642264,left,1,2,0.6756932850694284,R17D05,2022-11-14_15h16.19.627,t1_Paradigm,2021.1.4,59.929903344336836,
L,left,Distractor,0,59,59,59,1109.9035444766632,1111.9032422811724,left,1,2,0.5056483599473722,R17D05,2022-11-14_15h16.19.627,t1_Paradigm,2021.1.4,59.929903344336836,
K,left,Pretarget,0,60,60,60,1113.4029577298788,1115.4032063513878,left,1,2,0.7756465122220106,R17D05,2022-11-14_15h16.19.627,t1_Paradigm,2021.1.4,59.929903344336836,
V,left,Pretarget,0,61,61,61,1116.9186019579065,1118.91867510078,left,1,2,0.49108042253647,R17D05,2022-11-14_15h16.19.627,t1_Paradigm,2021.1.4,59.929903344336836,
K,right,Target,0,62,62,62,1120.4183555820491,1122.4179295570357,right,1,2,0.41093575360719115,R17D05,2022-11-14_15h16.19.627,t1_Paradigm,2021.1.4,59.929903344336836,
V,right,Target,0,63,63,63,1123.917761136021,1125.9176434017136,right,1,2,0.4361687520868145,R17D05,2022-11-14_15h16.19.627,t1_Paradigm,2021.1.4,59.929903344336836,
R,left,Distractor,0,0,0,0,1223.0575175446575,1225.0506039417814,left,1,3,0.754348149697762,R17D05,2022-11-14_15h16.19.627,t1_Paradigm,2021.1.4,59.929903344336836,
P,left,Lure,0,1,1,1,1226.550358207489,1228.550195560907,left,1,3,1.1311608410906047,R17D05,2022-11-14_15h16.19.627,t1_Paradigm,2021.1.4,59.929903344336836,
V,left,Distractor,0,2,2,2,1230.0499138967716,1232.0497182075633,left,1,3,1.4259335657116026,R17D05,2022-11-14_15h16.19.627,t1_Paradigm,2021.1.4,59.929903344336836,
P,left,Pretarget,0,3,3,3,1233.5492617064156,1235.5489396212506,left,1,3,0.9170290658948943,R17D05,2022-11-14_15h16.19.627,t1_Paradigm,2021.1.4,59.929903344336836,
Z,left,Distractor,0,4,4,4,1237.0489822878735,1239.0482762028114,left,1,3,0.9838177870842628,R17D05,2022-11-14_15h16.19.627,t1_Paradigm,2021.1.4,59.929903344336836,
L,left,Pretarget,0,5,5,5,1240.5481186890393,1242.5477805637638,None,0,3,,R17D05,2022-11-14_15h16.19.627,t1_Paradigm,2021.1.4,59.929903344336836,
P,right,Target,0,6,6,6,1244.0477212154074,1246.047222368361,left,0,3,1.1578826814657077,R17D05,2022-11-14_15h16.19.627,t1_Paradigm,2021.1.4,59.929903344336836,
S,left,Distractor,0,7,7,7,1247.5471604535705,1249.5467331453692,left,1,3,1.0201174904941581,R17D05,2022-11-14_15h16.19.627,t1_Paradigm,2021.1.4,59.929903344336836,
L,right,Target,0,8,8,8,1251.046379942447,1253.046162117913,right,1,3,1.2167113436735235,R17D05,2022-11-14_15h16.19.627,t1_Paradigm,2021.1.4,59.929903344336836,
D,left,Distractor,0,9,9,9,1254.5459041931317,1256.545534308476,left,1,3,0.6875405012397096,R17D05,2022-11-14_15h16.19.627,t1_Paradigm,2021.1.4,59.929903344336836,
G,left,Distractor,0,10,10,10,1258.0450717120548,1260.0449883035617,left,1,3,0.7090332697262056,R17D05,2022-11-14_15h16.19.627,t1_Paradigm,2021.1.4,59.929903344336836,
M,left,Pretarget,0,11,11,11,1261.5445760730654,1263.5441648049746,left,1,3,0.57162416895153,R17D05,2022-11-14_15h16.19.627,t1_Paradigm,2021.1.4,59.929903344336836,
Y,left,Distractor,0,12,12,12,1265.044118609454,1267.0436512010056,left,1,3,0.6708623284939677,R17D05,2022-11-14_15h16.19.627,t1_Paradigm,2021.1.4,59.929903344336836,
V,left,Distractor,0,13,13,13,1268.5437480832334,1270.543090439227,left,1,3,0.5579365120502189,R17D05,2022-11-14_15h16.19.627,t1_Paradigm,2021.1.4,59.929903344336836,
M,right,Target,0,14,14,14,1272.04296917608,1274.0426663390244,right,1,3,1.4035255493363366,R17D05,2022-11-14_15h16.19.627,t1_Paradigm,2021.1.4,59.929903344336836,
S,left,Pretarget,0,15,15,15,1275.54230383283,1277.5420635521878,left,1,3,0.7764764268067665,R17D05,2022-11-14_15h16.19.627,t1_Paradigm,2021.1.4,59.929903344336836,
Q,left,Distractor,0,16,16,16,1279.0419929757481,1281.0413982089376,left,1,3,1.2711434151860885,R17D05,2022-11-14_15h16.19.627,t1_Paradigm,2021.1.4,59.929903344336836,
R,left,Pretarget,0,17,17,17,1282.5413581086905,1284.5406314922147,left,1,3,0.5626429974217899,R17D05,2022-11-14_15h16.19.627,t1_Paradigm,2021.1.4,59.929903344336836,
S,right,Target,0,18,18,18,1286.0404034020612,1288.0402423594496,right,1,3,0.5839509840589017,R17D05,2022-11-14_15h16.19.627,t1_Paradigm,2021.1.4,59.929903344336836,
F,left,Distractor,0,19,19,19,1289.5402940085623,1291.540436123847,left,1,3,0.5314225513720885,R17D05,2022-11-14_15h16.19.627,t1_Paradigm,2021.1.4,59.929903344336836,
R,right,Target,0,20,20,20,1293.0391760137863,1295.0389026905177,left,0,3,0.9171134368516505,R17D05,2022-11-14_15h16.19.627,t1_Paradigm,2021.1.4,59.929903344336836,
P,left,Distractor,0,21,21,21,1296.5389062193572,1298.538315622951,left,1,3,0.8984504623804241,R17D05,2022-11-14_15h16.19.627,t1_Paradigm,2021.1.4,59.929903344336836,
L,left,Distractor,0,22,22,22,1300.0383704800624,1302.0377696180367,left,1,3,0.9195229802862741,R17D05,2022-11-14_15h16.19.627,t1_Paradigm,2021.1.4,59.929903344336836,
R,right,Target,0,23,23,23,1303.5375386406085,1305.537654450105,None,0,3,,R17D05,2022-11-14_15h16.19.627,t1_Paradigm,2021.1.4,59.929903344336836,
H,left,Pretarget,0,24,24,24,1307.0371389213833,1309.0365499290056,left,1,3,1.244531289092265,R17D05,2022-11-14_15h16.19.627,t1_Paradigm,2021.1.4,59.929903344336836,
G,left,Pretarget,0,25,25,25,1310.53674305178,1312.5362387510831,left,1,3,1.294251742248889,R17D05,2022-11-14_15h16.19.627,t1_Paradigm,2021.1.4,59.929903344336836,
T,left,Distractor,0,26,26,26,1314.035950029327,1316.0358592423727,left,1,3,1.091478281072341,R17D05,2022-11-14_15h16.19.627,t1_Paradigm,2021.1.4,59.929903344336836,
H,right,Target,0,27,27,27,1317.5352323953412,1319.5348050871398,right,1,3,0.6488209886592813,R17D05,2022-11-14_15h16.19.627,t1_Paradigm,2021.1.4,59.929903344336836,
G,right,Target,0,28,28,28,1321.0346498190193,1323.0343553228304,right,1,3,0.6787498861085624,R17D05,2022-11-14_15h16.19.627,t1_Paradigm,2021.1.4,59.929903344336836,
D,left,Distractor,0,29,29,29,1324.534175994515,1326.5335546011338,left,1,3,1.0349789618048817,R17D05,2022-11-14_15h16.19.627,t1_Paradigm,2021.1.4,59.929903344336836,
N,left,Pretarget,0,30,30,30,1328.0338189419708,1330.0338644958101,left,1,3,0.7252100290497765,R17D05,2022-11-14_15h16.19.627,t1_Paradigm,2021.1.4,59.929903344336836,
V,left,Distractor,0,31,31,31,1331.5495077614905,1333.5493370948825,left,1,3,0.7108733897330239,R17D05,2022-11-14_15h16.19.627,t1_Paradigm,2021.1.4,59.929903344336836,
R,left,Distractor,0,32,32,32,1335.0490759620443,1337.0484895361005,left,1,3,0.9855850850581191,R17D05,2022-11-14_15h16.19.627,t1_Paradigm,2021.1.4,59.929903344336836,
N,right,Target,0,33,33,33,1338.5484657967463,1340.5479967842693,right,1,3,0.5012777541414835,R17D05,2022-11-14_15h16.19.627,t1_Paradigm,2021.1.4,59.929903344336836,
Z,left,Distractor,0,34,34,34,1342.0476172755589,1344.0474379473017,left,1,3,0.5273531785933301,R17D05,2022-11-14_15h16.19.627,t1_Paradigm,2021.1.4,59.929903344336836,
N,left,Lure,0,35,35,35,1345.5473144385614,1347.5467674711836,left,1,3,0.9367891830625013,R17D05,2022-11-14_15h16.19.627,t1_Paradigm,2021.1.4,59.929903344336836,
Y,left,Pretarget,0,36,36,36,1349.046553175489,1351.0463873209083,left,1,3,0.9218455864465795,R17D05,2022-11-14_15h16.19.627,t1_Paradigm,2021.1.4,59.929903344336836,
Y,left,Lure,0,37,37,37,1352.5461820076453,1354.5457854964188,left,1,3,0.7188732280046679,R17D05,2022-11-14_15h16.19.627,t1_Paradigm,2021.1.4,59.929903344336836,
B,left,Distractor,0,38,38,38,1356.0454396718997,1358.0449700178578,left,1,3,0.7123769884929061,R17D05,2022-11-14_15h16.19.627,t1_Paradigm,2021.1.4,59.929903344336836,
Y,right,Target,0,39,39,39,1359.5452183185844,1361.5445103086531,right,1,3,0.49720292777055874,R17D05,2022-11-14_15h16.19.627,t1_Paradigm,2021.1.4,59.929903344336836,
J,left,Distractor,0,40,40,40,1363.0443791006692,1365.0437978075352,left,1,3,0.48229494015686214,R17D05,2022-11-14_15h16.19.627,t1_Paradigm,2021.1.4,59.929903344336836,
X,left,Distractor,0,41,41,41,1366.5438728751615,1368.5432604642701,left,1,3,0.8546157626551576,R17D05,2022-11-14_15h16.19.627,t1_Paradigm,2021.1.4,59.929903344336836,
W,left,Pretarget,0,42,42,42,1370.0431526747998,1372.0428941083956,left,1,3,1.0883626525173895,R17D05,2022-11-14_15h16.19.627,t1_Paradigm,2021.1.4,59.929903344336836,
S,left,Pretarget,0,43,43,43,1373.5425113916863,1375.5420141486684,left,1,3,0.9552689795964397,R17D05,2022-11-14_15h16.19.627,t1_Paradigm,2021.1.4,59.929903344336836,
R,left,Distractor,0,44,44,44,1377.0420555321034,1379.041699121124,left,1,3,1.0830411897040904,R17D05,2022-11-14_15h16.19.627,t1_Paradigm,2021.1.4,59.929903344336836,
W,right,Target,0,45,45,45,1380.5414761637803,1382.5409497277578,right,1,3,1.0841174802626483,R17D05,2022-11-14_15h16.19.627,t1_Paradigm,2021.1.4,59.929903344336836,
S,right,Target,0,46,46,46,1384.0408509207773,1386.0404024396557,right,1,3,1.318001994106453,R17D05,2022-11-14_15h16.19.627,t1_Paradigm,2021.1.4,59.929903344336836,
D,left,Distractor,0,47,47,47,1387.5403668306535,1389.539663953532,left,1,3,0.8380508329719305,R17D05,2022-11-14_15h16.19.627,t1_Paradigm,2021.1.4,59.929903344336836,
T,left,Distractor,0,48,48,48,1391.0396963545354,1393.0391789010027,None,0,3,,R17D05,2022-11-14_15h16.19.627,t1_Paradigm,2021.1.4,59.929903344336836,
S,right,Target,0,49,49,49,1394.5391086453456,1396.538643161708,right,1,3,1.284997568349354,R17D05,2022-11-14_15h16.19.627,t1_Paradigm,2021.1.4,59.929903344336836,
K,left,Distractor,0,50,50,50,1398.03849880083,1400.0382030214532,left,1,3,1.0537702569854446,R17D05,2022-11-14_15h16.19.627,t1_Paradigm,2021.1.4,59.929903344336836,
S,left,Lure,0,51,51,51,1401.5379996330012,1403.5378055478213,left,1,3,0.9569859117036685,R17D05,2022-11-14_15h16.19.627,t1_Paradigm,2021.1.4,59.929903344336836,
T,left,Pretarget,0,52,52,52,1405.0371645855485,1407.0369470817968,left,1,3,1.1174106277758256,R17D05,2022-11-14_15h16.19.627,t1_Paradigm,2021.1.4,59.929903344336836,
V,left,Distractor,0,53,53,53,1408.536680816207,1410.536724124453,left,1,3,1.4450158283580095,R17D05,2022-11-14_15h16.19.627,t1_Paradigm,2021.1.4,59.929903344336836,
B,left,Distractor,0,54,54,54,1412.0359760142746,1414.0358467311016,left,1,3,0.7287192816147581,R17D05,2022-11-14_15h16.19.627,t1_Paradigm,2021.1.4,59.929903344336836,
T,right,Target,0,55,55,55,1415.5356375682168,1417.535621848947,right,1,3,0.5337159645278007,R17D05,2022-11-14_15h16.19.627,t1_Paradigm,2021.1.4,59.929903344336836,
Y,left,Pretarget,0,56,56,56,1419.0349151222035,1421.0344749819487,left,1,3,0.5970781999640167,R17D05,2022-11-14_15h16.19.627,t1_Paradigm,2021.1.4,59.929903344336836,
T,left,Lure,0,57,57,57,1422.5344518842176,1424.534017197555,left,1,3,0.9898097258992493,R17D05,2022-11-14_15h16.19.627,t1_Paradigm,2021.1.4,59.929903344336836,
P,left,Pretarget,0,58,58,58,1426.0337875033729,1428.0335128969164,left,1,3,0.9172234719153494,R17D05,2022-11-14_15h16.19.627,t1_Paradigm,2021.1.4,59.929903344336836,
Y,right,Target,0,59,59,59,1429.5330913631478,1431.5330371476011,right,1,3,1.318313171970658,R17D05,2022-11-14_15h16.19.627,t1_Paradigm,2021.1.4,59.929903344336836,
R,left,Distractor,0,60,60,60,1433.0325366965262,1435.0321725863032,left,1,3,0.8589581379201263,R17D05,2022-11-14_15h16.19.627,t1_Paradigm,2021.1.4,59.929903344336836,
P,right,Target,0,61,61,61,1436.5321132379468,1438.531690100208,left,0,3,0.7255593824083917,R17D05,2022-11-14_15h16.19.627,t1_Paradigm,2021.1.4,59.929903344336836,
L,left,Distractor,0,62,62,62,1440.0316201653914,1442.0309365363792,left,1,3,1.1105736965546384,R17D05,2022-11-14_15h16.19.627,t1_Paradigm,2021.1.4,59.929903344336836,
V,left,Distractor,0,63,63,63,1443.530710691819,1445.5303995139548,left,1,3,0.9121474226121791,R17D05,2022-11-14_15h16.19.627,t1_Paradigm,2021.1.4,59.929903344336836,
H,left,Lure,0,0,0,0,1452.9300568333128,1454.9293671090854,left,1,3,0.5224615904153325,R17D05,2022-11-14_15h16.19.627,t1_Paradigm,2021.1.4,59.929903344336836,
B,left,Distractor,0,1,1,1,1456.4285763322841,1458.4283947583754,left,1,3,0.5897077750996687,R17D05,2022-11-14_15h16.19.627,t1_Paradigm,2021.1.4,59.929903344336836,
T,left,Distractor,0,2,2,2,1459.9280332145863,1461.9278785880306,left,1,3,0.5254864320158958,R17D05,2022-11-14_15h16.19.627,t1_Paradigm,2021.1.4,59.929903344336836,
R,left,Distractor,0,3,3,3,1463.4274779063999,1465.4272312097019,left,1,3,0.4943025573156774,R17D05,2022-11-14_15h16.19.627,t1_Paradigm,2021.1.4,59.929903344336836,
H,left,Pretarget,0,4,4,4,1466.9267342874664,1468.9264693050645,left,1,3,0.6552752031711861,R17D05,2022-11-14_15h16.19.627,t1_Paradigm,2021.1.4,59.929903344336836,
K,left,Distractor,0,5,5,5,1470.4263243025634,1472.426045204862,left,1,3,0.6275101148639806,R17D05,2022-11-14_15h16.19.627,t1_Paradigm,2021.1.4,59.929903344336836,
G,left,Distractor,0,6,6,6,1473.9256211046595,1475.9259524930967,left,1,3,1.0771650603273883,R17D05,2022-11-14_15h16.19.627,t1_Paradigm,2021.1.4,59.929903344336836,
H,right,Target,0,7,7,7,1477.425210157351,1479.424787661177,right,1,3,0.48332599765853956,R17D05,2022-11-14_15h16.19.627,t1_Paradigm,2021.1.4,59.929903344336836,
Y,left,Pretarget,0,8,8,8,1480.9249374757055,1482.925043340365,left,1,3,0.5332543305121362,R17D05,2022-11-14_15h16.19.627,t1_Paradigm,2021.1.4,59.929903344336836,
S,left,Distractor,0,9,9,9,1484.4236542679137,1486.4237152202404,left,1,3,0.7227161146583967,R17D05,2022-11-14_15h16.19.627,t1_Paradigm,2021.1.4,59.929903344336836,
P,left,Distractor,0,10,10,10,1487.923380944645,1489.9230033607455,left,1,3,0.6833023866638541,R17D05,2022-11-14_15h16.19.627,t1_Paradigm,2021.1.4,59.929903344336836,
Y,right,Target,0,11,11,11,1491.4228227492422,1493.4225093257264,right,1,3,0.4645953340223059,R17D05,2022-11-14_15h16.19.627,t1_Paradigm,2021.1.4,59.929903344336836,
H,left,Lure,0,12,12,12,1494.921963962377,1496.9222462681355,left,1,3,0.5344368065125309,R17D05,2022-11-14_15h16.19.627,t1_Paradigm,2021.1.4,59.929903344336836,
Q,left,Distractor,0,13,13,13,1498.4215392206097,1500.4212642933708,left,1,3,0.8141539747011848,R17D05,2022-11-14_15h16.19.627,t1_Paradigm,2021.1.4,59.929903344336836,
V,left,Pretarget,0,14,14,14,1501.9210843234323,1503.9206265390385,left,1,3,0.6441068039275706,R17D05,2022-11-14_15h16.19.627,t1_Paradigm,2021.1.4,59.929903344336836,
G,left,Distractor,0,15,15,15,1505.420559170656,1507.4201578474022,left,1,3,0.7431306677754037,R17D05,2022-11-14_15h16.19.627,t1_Paradigm,2021.1.4,59.929903344336836,
Z,left,Pretarget,0,16,16,16,1508.9198248549947,1510.9199413061142,left,1,3,0.7805794838350266,R17D05,2022-11-14_15h16.19.627,t1_Paradigm,2021.1.4,59.929903344336836,
V,right,Target,0,17,17,17,1512.4192525442922,1514.4199217371643,right,1,3,0.6179701064247638,R17D05,2022-11-14_15h16.19.627,t1_Paradigm,2021.1.4,59.929903344336836,
N,left,Distractor,0,18,18,18,1515.9185211158474,1517.918361356482,left,1,3,0.6081067295162939,R17D05,2022-11-14_15h16.19.627,t1_Paradigm,2021.1.4,59.929903344336836,
Z,right,Target,0,19,19,19,1519.4179818477714,1521.417757927964,right,1,3,0.9154176777228713,R17D05,2022-11-14_15h16.19.627,t1_Paradigm,2021.1.4,59.929903344336836,
R,left,Distractor,0,20,20,20,1522.9174191611237,1524.9172308503767,left,1,3,1.079948338039685,R17D05,2022-11-14_15h16.19.627,t1_Paradigm,2021.1.4,59.929903344336836,
P,left,Distractor,0,21,21,21,1526.4170094970032,1528.4165408053668,left,1,3,0.6569055186701007,R17D05,2022-11-14_15h16.19.627,t1_Paradigm,2021.1.4,59.929903344336836,
Z,right,Target,0,22,22,22,1529.9166043241858,1531.9159960836405,right,1,3,0.6665404845844023,R17D05,2022-11-14_15h16.19.627,t1_Paradigm,2021.1.4,59.929903344336836,
D,left,Pretarget,0,23,23,23,1533.415667582478,1535.41542088578,left,1,3,0.5121965694706887,R17D05,2022-11-14_15h16.19.627,t1_Paradigm,2021.1.4,59.929903344336836,
K,left,Distractor,0,24,24,24,1536.9151199735352,1538.9148796928348,left,1,3,0.5868301815353334,R17D05,2022-11-14_15h16.19.627,t1_Paradigm,2021.1.4,59.929903344336836,
W,left,Distractor,0,25,25,25,1540.4144632919342,1542.4158793117385,left,1,3,0.6315159688820131,R17D05,2022-11-14_15h16.19.627,t1_Paradigm,2021.1.4,59.929903344336836,
D,right,Target,0,26,26,26,1543.9140687055187,1545.9135595927946,right,1,3,0.7649695815634914,R17D05,2022-11-14_15h16.19.627,t1_Paradigm,2021.1.4,59.929903344336836,
G,left,Pretarget,0,27,27,27,1547.413335993886,1549.4129706004169,left,1,3,0.5456148298108019,R17D05,2022-11-14_15h16.19.627,t1_Paradigm,2021.1.4,59.929903344336836,
V,left,Distractor,0,28,28,28,1550.9128743598703,1552.9124695077771,left,1,3,0.7427636703359894,R17D05,2022-11-14_15h16.19.627,t1_Paradigm,2021.1.4,59.929903344336836,
D,right,Target,0,29,29,29,1554.4121060391772,1556.4118545304518,right,1,3,0.7356085035717115,R17D05,2022-11-14_15h16.19.627,t1_Paradigm,2021.1.4,59.929903344336836,
G,right,Target,0,30,30,30,1557.9116379891057,1559.9112681044498,right,1,3,0.7532904656254686,R17D05,2022-11-14_15h16.19.627,t1_Paradigm,2021.1.4,59.929903344336836,
B,left,Pretarget,0,31,31,31,1561.4109319040435,1563.4107378188637,left,1,3,0.6036421287572011,R17D05,2022-11-14_15h16.19.627,t1_Paradigm,2021.1.4,59.929903344336836,
N,left,Distractor,0,32,32,32,1564.9104269617237,1566.9100795332342,left,1,3,0.7028543033520691,R17D05,2022-11-14_15h16.19.627,t1_Paradigm,2021.1.4,59.929903344336836,
F,left,Distractor,0,33,33,33,1568.4097555232584,1570.4101837938651,left,1,3,0.9889672999852337,R17D05,2022-11-14_15h16.19.627,t1_Paradigm,2021.1.4,59.929903344336836,
B,right,Target,0,34,34,34,1571.9091241850401,1573.9088752426906,right,1,3,0.8404526772210374,R17D05,2022-11-14_15h16.19.627,t1_Paradigm,2021.1.4,59.929903344336836,
Q,left,Pretarget,0,35,35,35,1575.4085942201782,1577.4090427012998,left,1,3,0.5554044222226366,R17D05,2022-11-14_15h16.19.627,t1_Paradigm,2021.1.4,59.929903344336836,
S,left,Pretarget,0,36,36,36,1578.9081877641147,1580.9077508318587,left,1,3,0.6801412042113952,R17D05,2022-11-14_15h16.19.627,t1_Paradigm,2021.1.4,59.929903344336836,
W,left,Distractor,0,37,37,37,1582.407466280507,1584.4096461298177,left,1,3,0.5646544257178903,R17D05,2022-11-14_15h16.19.627,t1_Paradigm,2021.1.4,59.929903344336836,
Q,right,Target,0,38,38,38,1585.9236924433499,1587.9232481326326,right,1,3,0.658104034839198,R17D05,2022-11-14_15h16.19.627,t1_Paradigm,2021.1.4,59.929903344336836,
S,right,Target,0,39,39,39,1589.4229488244164,1591.4226193607901,left,0,3,0.48007402825169265,R17D05,2022-11-14_15h16.19.627,t1_Paradigm,2021.1.4,59.929903344336836,
T,left,Distractor,0,40,40,40,1592.922330639034,1594.922156122746,left,1,3,0.9667026820243336,R17D05,2022-11-14_15h16.19.627,t1_Paradigm,2021.1.4,59.929903344336836,
G,left,Distractor,0,41,41,41,1596.4221060776617,1598.4214262983296,left,1,3,0.760281060996931,R17D05,2022-11-14_15h16.19.627,t1_Paradigm,2021.1.4,59.929903344336836,
D,left,Distractor,0,42,42,42,1599.9212062282022,1601.921031711914,left,1,3,0.5328937490703538,R17D05,2022-11-14_15h16.19.627,t1_Paradigm,2021.1.4,59.929903344336836,
S,left,Lure,0,43,43,43,1603.420773145568,1605.4217580075492,left,1,3,0.49223049747524783,R17D05,2022-11-14_15h16.19.627,t1_Paradigm,2021.1.4,59.929903344336836,
Z,left,Pretarget,0,44,44,44,1606.9200247146073,1608.9196307698148,left,1,3,0.5480545286554843,R17D05,2022-11-14_15h16.19.627,t1_Paradigm,2021.1.4,59.929903344336836,
J,left,Distractor,0,45,45,45,1610.4195159227238,1612.4209845540463,left,1,3,0.6740604031365365,R17D05,2022-11-14_15h16.19.627,t1_Paradigm,2021.1.4,59.929903344336836,
M,left,Pretarget,0,46,46,46,1613.9192204640713,1615.9197510705562,left,1,3,0.574186414189171,R17D05,2022-11-14_15h16.19.627,t1_Paradigm,2021.1.4,59.929903344336836,
Z,right,Target,0,47,47,47,1617.4184502186254,1619.4179411059013,right,1,3,0.6419917566818185,R17D05,2022-11-14_15h16.19.627,t1_Paradigm,2021.1.4,59.929903344336836,
P,left,Distractor,0,48,48,48,1620.9176642537932,1622.9176998628536,left,1,3,0.487790277635213,R17D05,2022-11-14_15h16.19.627,t1_Paradigm,2021.1.4,59.929903344336836,
M,right,Target,0,49,49,49,1624.4173203541432,1626.416876685049,right,1,3,0.6653252867981791,R17D05,2022-11-14_15h16.19.627,t1_Paradigm,2021.1.4,59.929903344336836,
K,left,Distractor,0,50,50,50,1627.9165096876095,1629.9164378279238,left,1,3,0.6585287766065449,R17D05,2022-11-14_15h16.19.627,t1_Paradigm,2021.1.4,59.929903344336836,
Y,left,Distractor,0,51,51,51,1631.4159502089606,1633.4154317930224,left,1,3,0.6029238531482406,R17D05,2022-11-14_15h16.19.627,t1_Paradigm,2021.1.4,59.929903344336836,
X,left,Distractor,0,52,52,52,1634.915328494797,1636.9153252867982,left,1,3,0.6201698453514837,R17D05,2022-11-14_15h16.19.627,t1_Paradigm,2021.1.4,59.929903344336836,
F,left,Pretarget,0,53,53,53,1638.4148248357233,1640.4145370763727,left,1,3,0.6953927706344984,R17D05,2022-11-14_15h16.19.627,t1_Paradigm,2021.1.4,59.929903344336836,
M,left,Lure,0,54,54,54,1641.9138518433901,1643.9137726053013,left,1,3,0.6808129635173827,R17D05,2022-11-14_15h16.19.627,t1_Paradigm,2021.1.4,59.929903344336836,
V,left,Distractor,0,55,55,55,1645.413538099092,1647.4137931366567,left,1,3,0.7015435065259226,R17D05,2022-11-14_15h16.19.627,t1_Paradigm,2021.1.4,59.929903344336836,
F,right,Target,0,56,56,56,1648.9133218785864,1650.9125975077623,left,0,3,0.8385079757426865,R17D05,2022-11-14_15h16.19.627,t1_Paradigm,2021.1.4,59.929903344336836,
S,left,Distractor,0,57,57,57,1652.412285046652,1654.4120184602216,left,1,3,1.1909368315245956,R17D05,2022-11-14_15h16.19.627,t1_Paradigm,2021.1.4,59.929903344336836,
D,left,Distractor,0,58,58,58,1655.9119668111089,1657.9115940392367,left,1,3,0.567710385133978,R17D05,2022-11-14_15h16.19.627,t1_Paradigm,2021.1.4,59.929903344336836,
F,right,Target,0,59,59,59,1659.4112405154738,1661.4110072924523,right,1,3,1.091771814855747,R17D05,2022-11-14_15h16.19.627,t1_Paradigm,2021.1.4,59.929903344336836,
V,left,Pretarget,0,60,60,60,1662.9106136685004,1664.9120762046077,left,1,3,0.5732849607011303,R17D05,2022-11-14_15h16.19.627,t1_Paradigm,2021.1.4,59.929903344336836,
J,left,Distractor,0,61,61,61,1666.4268372648512,1668.4262970343698,left,1,3,0.5393065801472403,R17D05,2022-11-14_15h16.19.627,t1_Paradigm,2021.1.4,59.929903344336836,
V,left,Lure,0,62,62,62,1669.9262710494222,1671.925857535738,left,1,3,1.263020709680859,R17D05,2022-11-14_15h16.19.627,t1_Paradigm,2021.1.4,59.929903344336836,
V,right,Target,0,63,63,63,1673.4254196410184,1675.4252383879502,right,1,3,1.2886717130895704,R17D05,2022-11-14_15h16.19.627,t1_Paradigm,2021.1.4,59.929903344336836,
R,left,Distractor,0,0,0,0,1775.7262516730116,1777.7247532070614,left,1,4,0.9487114668590948,R17D05,2022-11-14_15h16.19.627,t1_Paradigm,2021.1.4,59.929903344336836,
F,left,Distractor,0,1,1,1,1779.224446520384,1781.2248638837482,left,1,4,0.683885283768177,R17D05,2022-11-14_15h16.19.627,t1_Paradigm,2021.1.4,59.929903344336836,
P,left,Pretarget,0,2,2,2,1782.7238491871394,1784.7246582497028,left,1,4,0.6608112824615091,R17D05,2022-11-14_15h16.19.627,t1_Paradigm,2021.1.4,59.929903344336836,
H,left,Distractor,0,3,3,3,1786.2232759140898,1788.2231703702128,None,0,4,,R17D05,2022-11-14_15h16.19.627,t1_Paradigm,2021.1.4,59.929903344336836,
Z,left,Distractor,0,4,4,4,1789.7228357737768,1791.7228781196754,left,1,4,1.2271380487945862,R17D05,2022-11-14_15h16.19.627,t1_Paradigm,2021.1.4,59.929903344336836,
T,left,Distractor,0,5,5,5,1793.2222284956952,1795.221452796599,left,1,4,0.9929256753530353,R17D05,2022-11-14_15h16.19.627,t1_Paradigm,2021.1.4,59.929903344336836,
P,right,Target,0,6,6,6,1796.7215371674974,1798.7210598141537,right,1,4,0.8551351409987547,R17D05,2022-11-14_15h16.19.627,t1_Paradigm,2021.1.4,59.929903344336836,
G,left,Distractor,0,7,7,7,1800.2209141700878,1802.2204701802111,left,1,4,0.47313187399413437,R17D05,2022-11-14_15h16.19.627,t1_Paradigm,2021.1.4,59.929903344336836,
L,left,Distractor,0,8,8,8,1803.720483333047,1805.720002450922,left,1,4,0.6622452671872452,R17D05,2022-11-14_15h16.19.627,t1_Paradigm,2021.1.4,59.929903344336836,
P,left,Lure,0,9,9,9,1807.2197323357104,1809.2195113031194,left,1,4,0.6553772181505337,R17D05,2022-11-14_15h16.19.627,t1_Paradigm,2021.1.4,59.929903344336836,
Q,left,Pretarget,0,10,10,10,1810.7195481953677,1812.7189733182895,left,1,4,0.6240627770894207,R17D05,2022-11-14_15h16.19.627,t1_Paradigm,2021.1.4,59.929903344336836,
D,left,Distractor,0,11,11,11,1814.2189335388248,1816.21836090734,left,1,4,0.6049176373053342,R17D05,2022-11-14_15h16.19.627,t1_Paradigm,2021.1.4,59.929903344336836,
M,left,Pretarget,0,12,12,12,1817.7178809876204,1819.7182030727854,left,1,4,1.2709435555152595,R17D05,2022-11-14_15h16.19.627,t1_Paradigm,2021.1.4,59.929903344336836,
C,left,Distractor,0,13,13,13,1821.2174591330695,1823.2171980002313,left,1,4,0.8318667337298393,R17D05,2022-11-14_15h16.19.627,t1_Paradigm,2021.1.4,59.929903344336836,
Q,right,Target,0,14,14,14,1824.716932055424,1826.7164444364607,left,0,4,1.335117099166382,R17D05,2022-11-14_15h16.19.627,t1_Paradigm,2021.1.4,59.929903344336836,
R,left,Distractor,0,15,15,15,1828.2162862811238,1830.21675497276,left,1,4,0.5934361353865825,R17D05,2022-11-14_15h16.19.627,t1_Paradigm,2021.1.4,59.929903344336836,
M,right,Target,0,16,16,16,1831.7157665819395,1833.7152783213533,left,0,4,1.1871411027968861,R17D05,2022-11-14_15h16.19.627,t1_Paradigm,2021.1.4,59.929903344336836,
S,left,Distractor,0,17,17,17,1835.2151936296723,1837.214852296398,left,1,4,0.45818923984188586,R17D05,2022-11-14_15h16.19.627,t1_Paradigm,2021.1.4,59.929903344336836,
Z,left,Distractor,0,18,18,18,1838.7147996848798,1840.7141603265773,left,1,4,0.45553813240258023,R17D05,2022-11-14_15h16.19.627,t1_Paradigm,2021.1.4,59.929903344336836,
L,left,Pretarget,0,19,19,19,1842.2139171586605,1844.213395855506,left,1,4,0.4653889980399981,R17D05,2022-11-14_15h16.19.627,t1_Paradigm,2021.1.4,59.929903344336836,
M,right,Target,0,20,20,20,1845.713395855506,1847.7131093793432,right,1,4,0.7479587371344678,R17D05,2022-11-14_15h16.19.627,t1_Paradigm,2021.1.4,59.929903344336836,
P,left,Distractor,0,21,21,21,1849.2127600260428,1851.2123263017857,left,1,4,0.5454986994736828,R17D05,2022-11-14_15h16.19.627,t1_Paradigm,2021.1.4,59.929903344336836,
F,left,Distractor,0,22,22,22,1852.712245780509,1854.7118957855855,left,1,4,0.5464774662395939,R17D05,2022-11-14_15h16.19.627,t1_Paradigm,2021.1.4,59.929903344336836,
L,right,Target,0,23,23,23,1856.2116506928578,1858.210929850873,right,1,4,1.0256801964133047,R17D05,2022-11-14_15h16.19.627,t1_Paradigm,2021.1.4,59.929903344336836,
L,left,Lure,0,24,24,24,1859.7109766879585,1861.7107489185873,left,1,4,1.1330648006987758,R17D05,2022-11-14_15h16.19.627,t1_Paradigm,2021.1.4,59.929903344336836,
V,left,Pretarget,0,25,25,25,1863.2104563472094,1865.2101204675855,left,1,4,1.0934005263843574,R17D05,2022-11-14_15h16.19.627,t1_Paradigm,2021.1.4,59.929903344336836,
Z,left,Distractor,0,26,26,26,1866.7100909537985,1868.7094262521132,left,1,4,1.078989461006131,R17D05,2022-11-14_15h16.19.627,t1_Paradigm,2021.1.4,59.929903344336836,
H,left,Distractor,0,27,27,27,1870.209449029062,1872.2088045379496,left,1,4,1.3332516357768327,R17D05,2022-11-14_15h16.19.627,t1_Paradigm,2021.1.4,59.929903344336836,
X,left,Distractor,0,28,28,28,1873.7087009189418,1875.7083024829044,left,1,4,0.9429841895471327,R17D05,2022-11-14_15h16.19.627,t1_Paradigm,2021.1.4,59.929903344336836,
V,right,Target,0,29,29,29,1877.2083881369908,1879.2083153149579,left,0,4,0.7562636581715196,R17D05,2022-11-14_15h16.19.627,t1_Paradigm,2021.1.4,59.929903344336836,
C,left,Distractor,0,30,30,30,1880.70774204185,1882.7069673051592,left,1,4,0.7993816863163374,R17D05,2022-11-14_15h16.19.627,t1_Paradigm,2021.1.4,59.929903344336836,
S,left,Pretarget,0,31,31,31,1884.2072399868048,1886.2064402275719,left,1,4,0.6540227923542261,R17D05,2022-11-14_15h16.19.627,t1_Paradigm,2021.1.4,59.929903344336836,
D,left,Distractor,0,32,32,32,1887.7063686887268,1889.705947796523,left,1,4,0.8391713941819035,R17D05,2022-11-14_15h16.19.627,t1_Paradigm,2021.1.4,59.929903344336836,
V,left,Distractor,0,33,33,33,1891.2057123279083,1893.2053738818504,right,0,4,0.6000161042902619,R17D05,2022-11-14_15h16.19.627,t1_Paradigm,2021.1.4,59.929903344336836,
R,left,Distractor,0,34,34,34,1894.7052243881626,1896.705092217715,left,1,4,0.49955857649911195,R17D05,2022-11-14_15h16.19.627,t1_Paradigm,2021.1.4,59.929903344336836,
S,right,Target,0,35,35,35,1898.2043579020537,1900.2040473657544,right,1,4,0.7173731580842286,R17D05,2022-11-14_15h16.19.627,t1_Paradigm,2021.1.4,59.929903344336836,
Y,left,Distractor,0,36,36,36,1901.7039395763422,1903.7035514059826,left,1,4,0.5556498356745578,R17D05,2022-11-14_15h16.19.627,t1_Paradigm,2021.1.4,59.929903344336836,
N,left,Pretarget,0,37,37,37,1905.2033557167742,1907.2033348646364,left,1,4,0.6708597620599903,R17D05,2022-11-14_15h16.19.627,t1_Paradigm,2021.1.4,59.929903344336836,
Z,left,Pretarget,0,38,38,38,1908.7028125990764,1910.7033329398255,left,1,4,0.8392301009735093,R17D05,2022-11-14_15h16.19.627,t1_Paradigm,2021.1.4,59.929903344336836,
P,left,Pretarget,0,39,39,39,1912.2022781430278,1914.2018594964757,left,1,4,1.3884574815747328,R17D05,2022-11-14_15h16.19.627,t1_Paradigm,2021.1.4,59.929903344336836,
M,left,Distractor,0,40,40,40,1915.7017626142479,1917.701365782239,left,1,4,1.014515005168505,R17D05,2022-11-14_15h16.19.627,t1_Paradigm,2021.1.4,59.929903344336836,
N,right,Target,0,41,41,41,1919.200990443991,1921.2007212911267,left,0,4,1.2976220875862055,R17D05,2022-11-14_15h16.19.627,t1_Paradigm,2021.1.4,59.929903344336836,
Z,right,Target,0,42,42,42,1922.7004992961884,1924.7019583034562,right,1,4,1.3704778152168728,R17D05,2022-11-14_15h16.19.627,t1_Paradigm,2021.1.4,59.929903344336836,
P,right,Target,0,43,43,43,1926.2168281156337,1928.2160864215111,right,1,4,0.7777009278652258,R17D05,2022-11-14_15h16.19.627,t1_Paradigm,2021.1.4,59.929903344336836,
X,left,Pretarget,0,44,44,44,1929.7162715242011,1931.715493258671,left,1,4,0.5338933679740876,R17D05,2022-11-14_15h16.19.627,t1_Paradigm,2021.1.4,59.929903344336836,
Z,left,Lure,0,45,45,45,1933.2153354241163,1935.2150784617406,right,0,4,1.3182810918078758,R17D05,2022-11-14_15h16.19.627,t1_Paradigm,2021.1.4,59.929903344336836,
R,left,Pretarget,0,46,46,46,1936.714527644799,1938.7140733892447,left,1,4,1.222193849098403,R17D05,2022-11-14_15h16.19.627,t1_Paradigm,2021.1.4,59.929903344336836,
K,left,Distractor,0,47,47,47,1940.2142267325544,1942.2138991937973,None,0,4,,R17D05,2022-11-14_15h16.19.627,t1_Paradigm,2021.1.4,59.929903344336836,
X,right,Target,0,48,48,48,1943.7135123066255,1945.712943203922,left,0,4,1.1271007715840824,R17D05,2022-11-14_15h16.19.627,t1_Paradigm,2021.1.4,59.929903344336836,
B,left,Distractor,0,49,49,49,1947.213069279096,1949.2126025122707,None,0,4,,R17D05,2022-11-14_15h16.19.627,t1_Paradigm,2021.1.4,59.929903344336836,
R,right,Target,0,50,50,50,1950.7123490787344,1952.7119763068622,None,0,4,,R17D05,2022-11-14_15h16.19.627,t1_Paradigm,2021.1.4,59.929903344336836,
Y,left,Pretarget,0,51,51,51,1954.2117632943555,1956.2115512442542,None,0,4,,R17D05,2022-11-14_15h16.19.627,t1_Paradigm,2021.1.4,59.929903344336836,
W,left,Pretarget,0,52,52,52,1957.7112599561224,1959.7108592744335,left,1,4,1.2508401803206652,R17D05,2022-11-14_15h16.19.627,t1_Paradigm,2021.1.4,59.929903344336836,
Z,left,Distractor,0,53,53,53,1961.2106741717434,1963.2103703722823,right,0,4,0.7422689937520772,R17D05,2022-11-14_15h16.19.627,t1_Paradigm,2021.1.4,59.929903344336836,
Q,left,Distractor,0,54,54,54,1964.7099748234614,1966.7099998460035,left,1,4,0.5434272812562995,R17D05,2022-11-14_15h16.19.627,t1_Paradigm,2021.1.4,59.929903344336836,
Y,right,Target,0,55,55,55,1968.209576387424,1970.2094435754116,right,1,4,0.8061175649054348,R17D05,2022-11-14_15h16.19.627,t1_Paradigm,2021.1.4,59.929903344336836,
W,right,Target,0,56,56,56,1971.7088221820304,1973.7085905630374,right,1,4,0.6285267362836748,R17D05,2022-11-14_15h16.19.627,t1_Paradigm,2021.1.4,59.929903344336836,
H,left,Pretarget,0,57,57,57,1975.2082437761128,1977.2078584929695,left,1,4,0.5647933329455554,R17D05,2022-11-14_15h16.19.627,t1_Paradigm,2021.1.4,59.929903344336836,
M,left,Distractor,0,58,58,58,1978.7076515757362,1980.7073128088377,left,1,4,0.6807872992940247,R17D05,2022-11-14_15h16.19.627,t1_Paradigm,2021.1.4,59.929903344336836,
R,left,Pretarget,0,59,59,59,1982.207034031977,1984.206958001887,left,1,4,0.616528743179515,R17D05,2022-11-14_15h16.19.627,t1_Paradigm,2021.1.4,59.929903344336836,
J,left,Distractor,0,60,60,60,1985.7065913252882,1987.7061239168397,left,1,4,0.4795925045036711,R17D05,2022-11-14_15h16.19.627,t1_Paradigm,2021.1.4,59.929903344336836,
H,right,Target,0,61,61,61,1989.205848027137,1991.2056991750142,right,1,4,0.7174645866616629,R17D05,2022-11-14_15h16.19.627,t1_Paradigm,2021.1.4,59.929903344336836,
Z,left,Distractor,0,62,62,62,1992.705369069823,1994.7052298417548,left,1,4,0.4579178413259797,R17D05,2022-11-14_15h16.19.627,t1_Paradigm,2021.1.4,59.929903344336836,
R,right,Target,0,63,63,63,1996.204865089967,1998.2045247190981,left,0,4,1.1527918752399273,R17D05,2022-11-14_15h16.19.627,t1_Paradigm,2021.1.4,59.929903344336836,
J,left,Pretarget,0,0,0,0,2058.650455795403,2060.643947686185,left,1,4,0.4442619438050315,R17D05,2022-11-14_15h16.19.627,t1_Paradigm,2021.1.4,59.929903344336836,
G,left,Pretarget,0,1,1,1,2062.1435659318813,2064.143581971992,left,1,4,0.5027479895506985,R17D05,2022-11-14_15h16.19.627,t1_Paradigm,2021.1.4,59.929903344336836,
Z,left,Distractor,0,2,2,2,2065.643201500876,2067.642628227768,left,1,4,0.455979235121049,R17D05,2022-11-14_15h16.19.627,t1_Paradigm,2021.1.4,59.929903344336836,
F,left,Distractor,0,3,3,3,2069.1428274457576,2071.143183856737,left,1,4,0.6276945760473609,R17D05,2022-11-14_15h16.19.627,t1_Paradigm,2021.1.4,59.929903344336836,
J,right,Target,0,4,4,4,2072.6417325487128,2074.6417704033083,right,1,4,0.5930777995963581,R17D05,2022-11-14_15h16.19.627,t1_Paradigm,2021.1.4,59.929903344336836,
G,right,Target,0,5,5,5,2076.1415288394783,2078.141312298132,right,1,4,1.2555813124054112,R17D05,2022-11-14_15h16.19.627,t1_Paradigm,2021.1.4,59.929903344336836,
H,left,Distractor,0,6,6,6,2079.640883706743,2081.640423997538,left,1,4,1.1513344719423912,R17D05,2022-11-14_15h16.19.627,t1_Paradigm,2021.1.4,59.929903344336836,
P,left,Distractor,0,7,7,7,2083.1400207494735,2085.1397702031536,left,1,4,0.6918139040935785,R17D05,2022-11-14_15h16.19.627,t1_Paradigm,2021.1.4,59.929903344336836,
G,left,Lure,0,8,8,8,2086.639402564091,2088.6392556368373,left,1,4,0.6196078003267758,R17D05,2022-11-14_15h16.19.627,t1_Paradigm,2021.1.4,59.929903344336836,
S,left,Distractor,0,9,9,9,2090.1390878573875,2092.1386743437033,left,1,4,0.5677405405440368,R17D05,2022-11-14_15h16.19.627,t1_Paradigm,2021.1.4,59.929903344336836,
R,left,Pretarget,0,10,10,10,2093.6384934113594,2095.638005792396,left,1,4,1.1163824575487524,R17D05,2022-11-14_15h16.19.627,t1_Paradigm,2021.1.4,59.929903344336836,
T,left,Pretarget,0,11,11,11,2097.137790534296,2099.1383375016158,left,1,4,1.2677134006517008,R17D05,2022-11-14_15h16.19.627,t1_Paradigm,2021.1.4,59.929903344336836,
X,left,Distractor,0,12,12,12,2100.6370344040915,2102.636828128423,left,1,4,0.9352358600008301,R17D05,2022-11-14_15h16.19.627,t1_Paradigm,2021.1.4,59.929903344336836,
F,left,Pretarget,0,13,13,13,2104.1366965996567,2106.1364033866557,left,1,4,1.0833908638451248,R17D05,2022-11-14_15h16.19.627,t1_Paradigm,2021.1.4,59.929903344336836,
R,right,Target,0,14,14,14,2107.63612011855,2109.635823055927,left,0,4,1.1911126310005784,R17D05,2022-11-14_15h16.19.627,t1_Paradigm,2021.1.4,59.929903344336836,
T,right,Target,0,15,15,15,2111.1355673767393,2113.135212890629,left,0,4,0.8701477100839838,R17D05,2022-11-14_15h16.19.627,t1_Paradigm,2021.1.4,59.929903344336836,
C,left,Distractor,0,16,16,16,2114.63500629412,2116.6346816425794,left,1,4,0.9939086125232279,R17D05,2022-11-14_15h16.19.627,t1_Paradigm,2021.1.4,59.929903344336836,
F,right,Target,0,17,17,17,2118.1343897127663,2120.1352709557395,right,1,4,0.8797095330664888,R17D05,2022-11-14_15h16.19.627,t1_Paradigm,2021.1.4,59.929903344336836,
M,left,Distractor,0,18,18,18,2121.6337843594956,2123.633338444808,left,1,4,0.7764398553990759,R17D05,2022-11-14_15h16.19.627,t1_Paradigm,2021.1.4,59.929903344336836,
N,left,Distractor,0,19,19,19,2125.133084690431,2127.133282625233,None,0,4,,R17D05,2022-11-14_15h16.19.627,t1_Paradigm,2021.1.4,59.929903344336836,
R,left,Lure,0,20,20,20,2128.632629151689,2130.632298725657,left,1,4,1.174981104733888,R17D05,2022-11-14_15h16.19.627,t1_Paradigm,2021.1.4,59.929903344336836,
F,right,Target,0,21,21,21,2132.1320517081767,2134.1315464450745,left,0,4,0.9110489967279136,R17D05,2022-11-14_15h16.19.627,t1_Paradigm,2021.1.4,59.929903344336836,
P,left,Distractor,0,22,22,22,2135.631414274685,2137.631775176851,left,1,4,0.5364665204542689,R17D05,2022-11-14_15h16.19.627,t1_Paradigm,2021.1.4,59.929903344336836,
L,left,Pretarget,0,23,23,23,2139.1306311971275,2141.1303399089375,left,1,4,0.5225722670438699,R17D05,2022-11-14_15h16.19.627,t1_Paradigm,2021.1.4,59.929903344336836,
T,left,Distractor,0,24,24,24,2142.630144219729,2144.629962966661,left,1,4,1.1320071166846901,R17D05,2022-11-14_15h16.19.627,t1_Paradigm,2021.1.4,59.929903344336836,
F,left,Distractor,0,25,25,25,2146.1292963401647,2148.129340610816,right,0,4,1.1742345986422151,R17D05,2022-11-14_15h16.19.627,t1_Paradigm,2021.1.4,59.929903344336836,
V,left,Distractor,0,26,26,26,2149.6291465256363,2151.6287955683074,left,1,4,0.7959487846237607,R17D05,2022-11-14_15h16.19.627,t1_Paradigm,2021.1.4,59.929903344336836,
L,right,Target,0,27,27,27,2153.1285219242563,2155.1288148164167,right,1,4,0.6253912179963663,R17D05,2022-11-14_15h16.19.627,t1_Paradigm,2021.1.4,59.929903344336836,
S,left,Pretarget,0,28,28,28,2156.6277465459425,2158.628675267566,left,1,4,0.5857766679837368,R17D05,2022-11-14_15h16.19.627,t1_Paradigm,2021.1.4,59.929903344336836,
W,left,Distractor,0,29,29,29,2160.143969821511,2162.1440474556293,left,1,4,0.8691336550982669,R17D05,2022-11-14_15h16.19.627,t1_Paradigm,2021.1.4,59.929903344336836,
Q,left,Distractor,0,30,30,30,2163.643393340404,2165.643039495859,left,1,4,0.5895313340006396,R17D05,2022-11-14_15h16.19.627,t1_Paradigm,2021.1.4,59.929903344336836,
L,right,Target,0,31,31,31,2167.142670894391,2169.1436211098335,left,0,4,1.0059515178436413,R17D05,2022-11-14_15h16.19.627,t1_Paradigm,2021.1.4,59.929903344336836,
S,right,Target,0,32,32,32,2170.6422580223298,2172.6418204484507,right,1,4,0.7066843577777036,R17D05,2022-11-14_15h16.19.627,t1_Paradigm,2021.1.4,59.929903344336836,
Z,left,Pretarget,0,33,33,33,2174.1416170599987,2176.141236909665,left,1,4,0.8180167509708554,R17D05,2022-11-14_15h16.19.627,t1_Paradigm,2021.1.4,59.929903344336836,
F,left,Distractor,0,34,34,34,2177.6409116165014,2179.641097681655,left,1,4,1.2269715525908396,R17D05,2022-11-14_15h16.19.627,t1_Paradigm,2021.1.4,59.929903344336836,
V,left,Distractor,0,35,35,35,2181.140323586529,2183.1398821630282,left,1,4,0.8619412752450444,R17D05,2022-11-14_15h16.19.627,t1_Paradigm,2021.1.4,59.929903344336836,
M,left,Distractor,0,36,36,36,2184.6398651605123,2186.6394827645854,None,0,4,,R17D05,2022-11-14_15h16.19.627,t1_Paradigm,2021.1.4,59.929903344336836,
Z,right,Target,0,37,37,37,2188.1395902332733,2190.138896017859,None,0,4,,R17D05,2022-11-14_15h16.19.627,t1_Paradigm,2021.1.4,59.929903344336836,
H,left,Pretarget,0,38,38,38,2191.6384318174096,2193.6383872259175,left,1,4,1.3520034723333083,R17D05,2022-11-14_15h16.19.627,t1_Paradigm,2021.1.4,59.929903344336836,
L,left,Distractor,0,39,39,39,2195.138397170813,2197.1375669353292,left,1,4,1.0233136403840035,R17D05,2022-11-14_15h16.19.627,t1_Paradigm,2021.1.4,59.929903344336836,
G,left,Distractor,0,40,40,40,2198.6374706947245,2200.637237471761,left,1,4,0.963463865511585,R17D05,2022-11-14_15h16.19.627,t1_Paradigm,2021.1.4,59.929903344336836,
K,left,Distractor,0,41,41,41,2202.136956128408,2204.1366228152183,left,1,4,0.6830941861262545,R17D05,2022-11-14_15h16.19.627,t1_Paradigm,2021.1.4,59.929903344336836,
H,right,Target,0,42,42,42,2205.636265762616,2207.635993401753,right,1,4,1.3009189692675136,R17D05,2022-11-14_15h16.19.627,t1_Paradigm,2021.1.4,59.929903344336836,
B,left,Distractor,0,43,43,43,2209.1358002789784,2211.13664238411,left,1,4,0.5427641836577095,R17D05,2022-11-14_15h16.19.627,t1_Paradigm,2021.1.4,59.929903344336836,
Z,left,Distractor,0,44,44,44,2212.6354172414285,2214.6351836976246,left,1,4,0.7491203610552475,R17D05,2022-11-14_15h16.19.627,t1_Paradigm,2021.1.4,59.929903344336836,
T,left,Pretarget,0,45,45,45,2216.134340309305,2218.1342334822402,left,1,4,0.5304967169067822,R17D05,2022-11-14_15h16.19.627,t1_Paradigm,2021.1.4,59.929903344336836,
H,right,Target,0,46,46,46,2219.6340198281105,2221.6334654823877,right,1,4,0.5771871956530958,R17D05,2022-11-14_15h16.19.627,t1_Paradigm,2021.1.4,59.929903344336836,
F,left,Distractor,0,47,47,47,2223.133436931006,2225.1330808408093,left,1,4,0.6519250684068538,R17D05,2022-11-14_15h16.19.627,t1_Paradigm,2021.1.4,59.929903344336836,
R,left,Distractor,0,48,48,48,2226.6331296027056,2228.6325463847606,left,1,4,1.28194096731022,R17D05,2022-11-14_15h16.19.627,t1_Paradigm,2021.1.4,59.929903344336836,
T,right,Target,0,49,49,49,2230.132211467542,2232.1318954775925,right,1,4,0.5897132287500426,R17D05,2022-11-14_15h16.19.627,t1_Paradigm,2021.1.4,59.929903344336836,
H,right,Target,0,50,50,50,2233.631532329775,2235.6314348059823,right,1,4,1.146269009099342,R17D05,2022-11-14_15h16.19.627,t1_Paradigm,2021.1.4,59.929903344336836,
Y,left,Pretarget,0,51,51,51,2237.130957773479,2239.1305388061446,left,1,4,0.7400397409219295,R17D05,2022-11-14_15h16.19.627,t1_Paradigm,2021.1.4,59.929903344336836,
H,left,Distractor,0,52,52,52,2240.6303957284545,2242.630021994177,left,1,4,1.0925353234633803,R17D05,2022-11-14_15h16.19.627,t1_Paradigm,2021.1.4,59.929903344336836,
S,left,Distractor,0,53,53,53,2244.129744500504,2246.129429152177,left,1,4,0.6985077576246113,R17D05,2022-11-14_15h16.19.627,t1_Paradigm,2021.1.4,59.929903344336836,
Q,left,Distractor,0,54,54,54,2247.6291388263926,2249.628883147263,left,1,4,0.9325180258601904,R17D05,2022-11-14_15h16.19.627,t1_Paradigm,2021.1.4,59.929903344336836,
Y,right,Target,0,55,55,55,2251.128591217508,2253.128733011952,None,0,4,,R17D05,2022-11-14_15h16.19.627,t1_Paradigm,2021.1.4,59.929903344336836,
R,left,Distractor,0,56,56,56,2254.6280278892373,2256.627729864209,left,1,4,0.5721066551050171,R17D05,2022-11-14_15h16.19.627,t1_Paradigm,2021.1.4,59.929903344336836,
H,left,Pretarget,0,57,57,57,2258.127421573561,2260.12701543828,left,1,4,0.5613498447928578,R17D05,2022-11-14_15h16.19.627,t1_Paradigm,2021.1.4,59.929903344336836,
J,left,Distractor,0,58,58,58,2261.6267340949853,2263.6267212628736,None,0,4,,R17D05,2022-11-14_15h16.19.627,t1_Paradigm,2021.1.4,59.929903344336836,
V,left,Distractor,0,59,59,59,2265.1263000499457,2267.1260251226486,left,1,4,0.9274576958850957,R17D05,2022-11-14_15h16.19.627,t1_Paradigm,2021.1.4,59.929903344336836,
Y,left,Lure,0,60,60,60,2268.6257187568117,2270.6256847517798,None,0,4,,R17D05,2022-11-14_15h16.19.627,t1_Paradigm,2021.1.4,59.929903344336836,
H,right,Target,0,61,61,61,2272.1250579047482,2274.124752180476,left,0,4,1.1107735561672598,R17D05,2022-11-14_15h16.19.627,t1_Paradigm,2021.1.4,59.929903344336836,
L,left,Distractor,0,62,62,62,2275.6245141454274,2277.6241756993695,left,1,4,0.5859871139982715,R17D05,2022-11-14_15h16.19.627,t1_Paradigm,2021.1.4,59.929903344336836,
P,left,Distractor,0,63,63,63,2279.124059248308,2281.123514526582,left,1,4,0.5342545909807086,R17D05,2022-11-14_15h16.19.627,t1_Paradigm,2021.1.4,59.929903344336836,
