Letter,CorrAnswer,Stimulus,nback_run.thisRepN,nback_run.thisTrialN,nback_run.thisN,nback_run.thisIndex,fixcross.started,nback_trial.started,trial_resp.keys,trial_resp.corr,currentlevel,trial_resp.rt,Participant,date,expName,psychopyVersion,frameRate,
H,left,Distractor,0,0,0,0,297.58841160315365,299.524815482677,None,0,1,,R20L11,2023-01-11_14h47.48.737,t1_Paradigm,2021.1.4,59.9891652634604,
Q,left,Pretarget,0,1,1,1,301.02718637027533,303.0255788311704,left,1,1,0.8373549613802425,R20L11,2023-01-11_14h47.48.737,t1_Paradigm,2021.1.4,59.9891652634604,
Q,right,Target,0,2,2,2,304.52331252504246,306.52340972806564,right,1,1,0.6514684553733332,R20L11,2023-01-11_14h47.48.737,t1_Paradigm,2021.1.4,59.9891652634604,
T,left,Distractor,0,3,3,3,308.0232632819268,310.0254319038286,left,1,1,0.5576235881901539,R20L11,2023-01-11_14h47.48.737,t1_Paradigm,2021.1.4,59.9891652634604,
Q,left,Lure,0,4,4,4,311.523406199243,313.5250541594071,left,1,1,1.0258832723220621,R20L11,2023-01-11_14h47.48.737,t1_Paradigm,2021.1.4,59.9891652634604,
L,left,Distractor,0,5,5,5,315.02330145737164,317.02477618442526,left,1,1,0.6623728380748162,R20L11,2023-01-11_14h47.48.737,t1_Paradigm,2021.1.4,59.9891652634604,
V,left,Pretarget,0,6,6,6,318.52326280072384,320.5250849564045,left,1,1,0.6820457033859384,R20L11,2023-01-11_14h47.48.737,t1_Paradigm,2021.1.4,59.9891652634604,
V,right,Target,0,7,7,7,322.0231991215155,324.023297928549,right,1,1,0.6556055186936192,R20L11,2023-01-11_14h47.48.737,t1_Paradigm,2021.1.4,59.9891652634604,
K,left,Distractor,0,8,8,8,325.5233561541222,327.52518665065645,left,1,1,0.8497305423127273,R20L11,2023-01-11_14h47.48.737,t1_Paradigm,2021.1.4,59.9891652634604,
G,left,Pretarget,0,9,9,9,329.023139452333,331.0255092171242,left,1,1,0.7894973897941782,R20L11,2023-01-11_14h47.48.737,t1_Paradigm,2021.1.4,59.9891652634604,
G,right,Target,0,10,10,10,332.5232907105028,334.52344662030214,right,1,1,0.7156336786981683,R20L11,2023-01-11_14h47.48.737,t1_Paradigm,2021.1.4,59.9891652634604,
G,right,Target,0,11,11,11,336.023252053855,338.0233839035002,right,1,1,0.527591382871833,R20L11,2023-01-11_14h47.48.737,t1_Paradigm,2021.1.4,59.9891652634604,
P,left,Pretarget,0,12,12,12,339.5232791616286,341.5257220692886,left,1,1,0.8651967302571393,R20L11,2023-01-11_14h47.48.737,t1_Paradigm,2021.1.4,59.9891652634604,
P,right,Target,0,13,13,13,343.02329536213256,345.0233973771865,right,1,1,0.8395303201252773,R20L11,2023-01-11_14h47.48.737,t1_Paradigm,2021.1.4,59.9891652634604,
G,left,Lure,0,14,14,14,346.5234633020091,348.52542885620915,left,1,1,1.401558199748706,R20L11,2023-01-11_14h47.48.737,t1_Paradigm,2021.1.4,59.9891652634604,
Y,left,Distractor,0,15,15,15,350.02313079067744,352.0251085353557,left,1,1,1.0219194421124485,R20L11,2023-01-11_14h47.48.737,t1_Paradigm,2021.1.4,59.9891652634604,
B,left,Distractor,0,16,16,16,353.5232910313048,355.52534320205996,left,1,1,0.9297488408619756,R20L11,2023-01-11_14h47.48.737,t1_Paradigm,2021.1.4,59.9891652634604,
T,left,Pretarget,0,17,17,17,357.0232809260399,359.0245936480551,left,1,1,0.6305101362220284,R20L11,2023-01-11_14h47.48.737,t1_Paradigm,2021.1.4,59.9891652634604,
T,right,Target,0,18,18,18,360.5233699486107,362.52322173806056,None,0,1,,R20L11,2023-01-11_14h47.48.737,t1_Paradigm,2021.1.4,59.9891652634604,
S,left,Distractor,0,19,19,19,364.0235115827186,366.026411312507,left,1,1,0.8446901004015217,R20L11,2023-01-11_14h47.48.737,t1_Paradigm,2021.1.4,59.9891652634604,
T,left,Lure,0,20,20,20,367.5233157330631,369.52382163790617,left,1,1,0.8993592620527124,R20L11,2023-01-11_14h47.48.737,t1_Paradigm,2021.1.4,59.9891652634604,
J,left,Distractor,0,21,21,21,371.02321259520204,373.0256580692785,left,1,1,0.7893790138350596,R20L11,2023-01-11_14h47.48.737,t1_Paradigm,2021.1.4,59.9891652634604,
P,left,Distractor,0,22,22,22,374.5233526252996,376.52524471582865,left,1,1,0.6981117911759611,R20L11,2023-01-11_14h47.48.737,t1_Paradigm,2021.1.4,59.9891652634604,
F,left,Distractor,0,23,23,23,378.02329568293453,380.0226341890941,left,1,1,0.5923937190807465,R20L11,2023-01-11_14h47.48.737,t1_Paradigm,2021.1.4,59.9891652634604,
L,left,Distractor,0,24,24,24,381.5232114723947,383.5250576882297,left,1,1,0.6579656594230983,R20L11,2023-01-11_14h47.48.737,t1_Paradigm,2021.1.4,59.9891652634604,
W,left,Pretarget,0,25,25,25,385.02319687590125,387.02563561313445,left,1,1,0.9651657086983505,R20L11,2023-01-11_14h47.48.737,t1_Paradigm,2021.1.4,59.9891652634604,
W,right,Target,0,26,26,26,388.5233895175361,390.5232502894437,right,1,1,0.6356602924367962,R20L11,2023-01-11_14h47.48.737,t1_Paradigm,2021.1.4,59.9891652634604,
V,left,Distractor,0,27,27,27,392.0232251064822,394.0252439138235,left,1,1,0.589787202371781,R20L11,2023-01-11_14h47.48.737,t1_Paradigm,2021.1.4,59.9891652634604,
W,left,Lure,0,28,28,28,395.5230504297624,397.5250846356025,left,1,1,0.8018505145826111,R20L11,2023-01-11_14h47.48.737,t1_Paradigm,2021.1.4,59.9891652634604,
R,left,Pretarget,0,29,29,29,399.02339448996804,401.0255034426873,left,1,1,0.8858618363285586,R20L11,2023-01-11_14h47.48.737,t1_Paradigm,2021.1.4,59.9891652634604,
R,right,Target,0,30,30,30,402.5232445150066,404.52337283582915,right,1,1,0.8115005612432924,R20L11,2023-01-11_14h47.48.737,t1_Paradigm,2021.1.4,59.9891652634604,
G,left,Distractor,0,31,31,31,406.02345576316065,408.0250312220601,left,1,1,0.6378994907909146,R20L11,2023-01-11_14h47.48.737,t1_Paradigm,2021.1.4,59.9891652634604,
R,left,Lure,0,32,32,32,409.5232939185232,411.52503940251245,left,1,1,0.9621075026939252,R20L11,2023-01-11_14h47.48.737,t1_Paradigm,2021.1.4,59.9891652634604,
S,left,Distractor,0,33,33,33,413.0232414673869,415.02507613434796,left,1,1,0.7257957254407756,R20L11,2023-01-11_14h47.48.737,t1_Paradigm,2021.1.4,59.9891652634604,
R,left,Lure,0,34,34,34,416.523150840806,418.52547858052776,left,1,1,0.505546507155259,R20L11,2023-01-11_14h47.48.737,t1_Paradigm,2021.1.4,59.9891652634604,
P,left,Pretarget,0,35,35,35,420.0232879836851,422.02375763789587,left,1,1,0.8152385468051762,R20L11,2023-01-11_14h47.48.737,t1_Paradigm,2021.1.4,59.9891652634604,
P,right,Target,0,36,36,36,423.523081868364,425.52327370799367,None,0,1,,R20L11,2023-01-11_14h47.48.737,t1_Paradigm,2021.1.4,59.9891652634604,
Y,left,Pretarget,0,37,37,37,427.0232831716544,429.0250693975047,left,1,1,0.6300366323869184,R20L11,2023-01-11_14h47.48.737,t1_Paradigm,2021.1.4,59.9891652634604,
Y,right,Target,0,38,38,38,430.5232923145129,432.52326247992164,right,1,1,0.7478130121805862,R20L11,2023-01-11_14h47.48.737,t1_Paradigm,2021.1.4,59.9891652634604,
J,left,Distractor,0,39,39,39,434.023247562626,436.025048224569,left,1,1,0.6858654934721926,R20L11,2023-01-11_14h47.48.737,t1_Paradigm,2021.1.4,59.9891652634604,
Y,left,Lure,0,40,40,40,437.5233231115103,439.525536324898,left,1,1,0.7534081208473253,R20L11,2023-01-11_14h47.48.737,t1_Paradigm,2021.1.4,59.9891652634604,
T,left,Distractor,0,41,41,41,441.02327611400915,443.02468732225543,left,1,1,0.614643908113294,R20L11,2023-01-11_14h47.48.737,t1_Paradigm,2021.1.4,59.9891652634604,
V,left,Distractor,0,42,42,42,444.5232765952121,446.5252633223479,left,1,1,0.6496803047105004,R20L11,2023-01-11_14h47.48.737,t1_Paradigm,2021.1.4,59.9891652634604,
N,left,Pretarget,0,43,43,43,448.0233713922198,450.0262159440547,left,1,1,0.7326984232897757,R20L11,2023-01-11_14h47.48.737,t1_Paradigm,2021.1.4,59.9891652634604,
N,right,Target,0,44,44,44,451.5229727956648,453.5230565250015,right,1,1,0.5002571228480974,R20L11,2023-01-11_14h47.48.737,t1_Paradigm,2021.1.4,59.9891652634604,
N,right,Target,0,45,45,45,455.02329183330994,457.02327996363374,right,1,1,0.6638421114935227,R20L11,2023-01-11_14h47.48.737,t1_Paradigm,2021.1.4,59.9891652634604,
X,left,Distractor,0,46,46,46,458.52299396860053,460.5257570367128,left,1,1,0.569168291796359,R20L11,2023-01-11_14h47.48.737,t1_Paradigm,2021.1.4,59.9891652634604,
Z,left,Distractor,0,47,47,47,462.0232482042302,464.025218570461,left,1,1,0.5738179968027453,R20L11,2023-01-11_14h47.48.737,t1_Paradigm,2021.1.4,59.9891652634604,
H,left,Pretarget,0,48,48,48,465.52323938217364,467.524928084199,left,1,1,0.690145634509463,R20L11,2023-01-11_14h47.48.737,t1_Paradigm,2021.1.4,59.9891652634604,
H,right,Target,0,49,49,49,469.0232764348111,471.0232421089911,right,1,1,0.8237843927875019,R20L11,2023-01-11_14h47.48.737,t1_Paradigm,2021.1.4,59.9891652634604,
K,left,Distractor,0,50,50,50,472.52335743733033,474.52543078102144,left,1,1,0.9535189900379919,R20L11,2023-01-11_14h47.48.737,t1_Paradigm,2021.1.4,59.9891652634604,
V,left,Pretarget,0,51,51,51,476.02326424433295,478.02536902662564,left,1,1,1.405667994894202,R20L11,2023-01-11_14h47.48.737,t1_Paradigm,2021.1.4,59.9891652634604,
V,right,Target,0,52,52,52,479.5232329661326,481.5233349811865,right,1,1,0.8515908734382265,R20L11,2023-01-11_14h47.48.737,t1_Paradigm,2021.1.4,59.9891652634604,
R,left,Distractor,0,53,53,53,483.02342336215315,485.02490450524783,left,1,1,0.598287815264257,R20L11,2023-01-11_14h47.48.737,t1_Paradigm,2021.1.4,59.9891652634604,
V,left,Lure,0,54,54,54,486.52321050998853,488.5253403148415,left,1,1,1.0016203711873004,R20L11,2023-01-11_14h47.48.737,t1_Paradigm,2021.1.4,59.9891652634604,
Y,left,Distractor,0,55,55,55,490.02244555748484,492.0252615579366,left,1,1,0.8138998398235344,R20L11,2023-01-11_14h47.48.737,t1_Paradigm,2021.1.4,59.9891652634604,
Q,left,Distractor,0,56,56,56,493.5232445150066,495.5250884852271,left,1,1,0.6739807396861579,R20L11,2023-01-11_14h47.48.737,t1_Paradigm,2021.1.4,59.9891652634604,
Z,left,Pretarget,0,57,57,57,497.0231067305233,499.0252573875098,left,1,1,0.8856138563389777,R20L11,2023-01-11_14h47.48.737,t1_Paradigm,2021.1.4,59.9891652634604,
Z,right,Target,0,58,58,58,500.52324130698594,502.52340940726367,right,1,1,0.7157613579165627,R20L11,2023-01-11_14h47.48.737,t1_Paradigm,2021.1.4,59.9891652634604,
B,left,Distractor,0,59,59,59,504.023422720549,506.0252028511602,left,1,1,0.8778892636212277,R20L11,2023-01-11_14h47.48.737,t1_Paradigm,2021.1.4,59.9891652634604,
S,left,Pretarget,0,60,60,60,507.5232961641377,509.52519467070783,left,1,1,0.7058521031942746,R20L11,2023-01-11_14h47.48.737,t1_Paradigm,2021.1.4,59.9891652634604,
S,right,Target,0,61,61,61,511.02338294109404,513.0234281741839,right,1,1,0.807547317501303,R20L11,2023-01-11_14h47.48.737,t1_Paradigm,2021.1.4,59.9891652634604,
T,left,Distractor,0,62,62,62,514.5230635826467,516.5240628810527,left,1,1,0.6668842773949564,R20L11,2023-01-11_14h47.48.737,t1_Paradigm,2021.1.4,59.9891652634604,
D,left,Distractor,0,63,63,63,518.02336048495,520.0256247058646,left,1,1,0.797766704403557,R20L11,2023-01-11_14h47.48.737,t1_Paradigm,2021.1.4,59.9891652634604,
R,left,Distractor,0,0,0,0,537.4645428715055,539.4585810860881,left,1,1,1.2203810679307026,R20L11,2023-01-11_14h47.48.737,t1_Paradigm,2021.1.4,59.9891652634604,
V,left,Distractor,0,1,1,1,540.9565762336363,542.9578847852245,left,1,1,0.7132167560046128,R20L11,2023-01-11_14h47.48.737,t1_Paradigm,2021.1.4,59.9891652634604,
N,left,Pretarget,0,2,2,2,544.4566793714973,546.4581104694712,left,1,1,0.6048645782238964,R20L11,2023-01-11_14h47.48.737,t1_Paradigm,2021.1.4,59.9891652634604,
N,right,Target,0,3,3,3,547.9566063890295,549.9566795318983,right,1,1,0.6583964965848281,R20L11,2023-01-11_14h47.48.737,t1_Paradigm,2021.1.4,59.9891652634604,
S,left,Distractor,0,4,4,4,551.4565722236105,553.4584601437127,left,1,1,0.548408549117994,R20L11,2023-01-11_14h47.48.737,t1_Paradigm,2021.1.4,59.9891652634604,
N,left,Lure,0,5,5,5,554.9563866396209,556.9585331261808,left,1,1,0.7767503200802821,R20L11,2023-01-11_14h47.48.737,t1_Paradigm,2021.1.4,59.9891652634604,
Z,left,Distractor,0,6,6,6,558.4566363840217,560.4580225697077,left,1,1,0.7971174010413051,R20L11,2023-01-11_14h47.48.737,t1_Paradigm,2021.1.4,59.9891652634604,
L,left,Pretarget,0,7,7,7,561.9566416772557,563.9569910306952,left,1,1,0.6100695915899905,R20L11,2023-01-11_14h47.48.737,t1_Paradigm,2021.1.4,59.9891652634604,
L,right,Target,0,8,8,8,565.4566922035797,567.4732638754106,right,1,1,0.7258047078985328,R20L11,2023-01-11_14h47.48.737,t1_Paradigm,2021.1.4,59.9891652634604,
H,left,Distractor,0,9,9,9,568.9565714216053,570.9581289155894,left,1,1,0.8089453728632634,R20L11,2023-01-11_14h47.48.737,t1_Paradigm,2021.1.4,59.9891652634604,
L,left,Lure,0,10,10,10,572.4565998125875,574.4587010660573,left,1,1,0.8443760351881338,R20L11,2023-01-11_14h47.48.737,t1_Paradigm,2021.1.4,59.9891652634604,
X,left,Pretarget,0,11,11,11,575.9566448852763,577.9584468304274,left,1,1,0.8646584244063433,R20L11,2023-01-11_14h47.48.737,t1_Paradigm,2021.1.4,59.9891652634604,
X,right,Target,0,12,12,12,579.4565840932867,581.4567672712608,left,0,1,1.3663697429765307,R20L11,2023-01-11_14h47.48.737,t1_Paradigm,2021.1.4,59.9891652634604,
X,right,Target,0,13,13,13,582.9566567549523,584.9566150506851,right,1,1,0.7305147236916127,R20L11,2023-01-11_14h47.48.737,t1_Paradigm,2021.1.4,59.9891652634604,
R,left,Distractor,0,14,14,14,586.4563098075282,588.4579587300987,left,1,1,0.8292194212281174,R20L11,2023-01-11_14h47.48.737,t1_Paradigm,2021.1.4,59.9891652634604,
T,left,Distractor,0,15,15,15,589.956739842685,591.9694567570054,left,1,1,0.6136612914144735,R20L11,2023-01-11_14h47.48.737,t1_Paradigm,2021.1.4,59.9891652634604,
V,left,Pretarget,0,16,16,16,593.4563114115385,595.4584309507256,left,1,1,1.1246158796377586,R20L11,2023-01-11_14h47.48.737,t1_Paradigm,2021.1.4,59.9891652634604,
V,right,Target,0,17,17,17,596.956693967991,598.9566326947981,right,1,1,0.698490016800406,R20L11,2023-01-11_14h47.48.737,t1_Paradigm,2021.1.4,59.9891652634604,
N,left,Distractor,0,18,18,18,600.4564413363714,602.4581008454095,left,1,1,0.7008212853447731,R20L11,2023-01-11_14h47.48.737,t1_Paradigm,2021.1.4,59.9891652634604,
B,left,Distractor,0,19,19,19,603.9565139980373,605.958563602376,left,1,1,0.7843668025050192,R20L11,2023-01-11_14h47.48.737,t1_Paradigm,2021.1.4,59.9891652634604,
V,left,Lure,0,20,20,20,607.456348303775,609.4582564344071,left,1,1,0.884718818601641,R20L11,2023-01-11_14h47.48.737,t1_Paradigm,2021.1.4,59.9891652634604,
P,left,Distractor,0,21,21,21,610.9566253163509,612.9557658876415,left,1,1,0.9072240452690039,R20L11,2023-01-11_14h47.48.737,t1_Paradigm,2021.1.4,59.9891652634604,
K,left,Pretarget,0,22,22,22,614.4566113614615,616.4579866398774,left,1,1,0.716978160116696,R20L11,2023-01-11_14h47.48.737,t1_Paradigm,2021.1.4,59.9891652634604,
K,right,Target,0,23,23,23,617.9566253163509,619.9566949303971,right,1,1,0.9304934224348926,R20L11,2023-01-11_14h47.48.737,t1_Paradigm,2021.1.4,59.9891652634604,
J,left,Pretarget,0,24,24,24,621.4566331760013,623.4577899882167,left,1,1,0.7732760338089975,R20L11,2023-01-11_14h47.48.737,t1_Paradigm,2021.1.4,59.9891652634604,
J,right,Target,0,25,25,25,624.9567725644949,626.9566779278882,left,0,1,0.49040336688176467,R20L11,2023-01-11_14h47.48.737,t1_Paradigm,2021.1.4,59.9891652634604,
H,left,Distractor,0,26,26,26,628.4566460080835,630.4586843843501,left,1,1,0.49216007894301583,R20L11,2023-01-11_14h47.48.737,t1_Paradigm,2021.1.4,59.9891652634604,
J,left,Lure,0,27,27,27,631.956513998037,633.9582614068388,left,1,1,0.896915712788541,R20L11,2023-01-11_14h47.48.737,t1_Paradigm,2021.1.4,59.9891652634604,
V,left,Distractor,0,28,28,28,635.4565818476724,637.4577255070037,left,1,1,0.9493312399927163,R20L11,2023-01-11_14h47.48.737,t1_Paradigm,2021.1.4,59.9891652634604,
Z,left,Pretarget,0,29,29,29,638.9565881033125,640.9585440334506,None,0,1,,R20L11,2023-01-11_14h47.48.737,t1_Paradigm,2021.1.4,59.9891652634604,
Z,right,Target,0,30,30,30,642.4566428000628,644.4566428000628,right,1,1,0.6543312929252352,R20L11,2023-01-11_14h47.48.737,t1_Paradigm,2021.1.4,59.9891652634604,
T,left,Distractor,0,31,31,31,645.956642960464,647.9585257477336,left,1,1,0.6404447343070387,R20L11,2023-01-11_14h47.48.737,t1_Paradigm,2021.1.4,59.9891652634604,
Z,left,Lure,0,32,32,32,649.4562924842173,651.4583696775328,left,1,1,1.1246123508153687,R20L11,2023-01-11_14h47.48.737,t1_Paradigm,2021.1.4,59.9891652634604,
F,left,Distractor,0,33,33,33,652.9564870506645,654.9585603943553,left,1,1,0.9044160648691104,R20L11,2023-01-11_14h47.48.737,t1_Paradigm,2021.1.4,59.9891652634604,
Y,left,Pretarget,0,34,34,34,656.4566444040731,658.4586375472502,left,1,1,0.7162152928262913,R20L11,2023-01-11_14h47.48.737,t1_Paradigm,2021.1.4,59.9891652634604,
Y,right,Target,0,35,35,35,659.956551531878,661.9566779278882,right,1,1,0.5942842055997062,R20L11,2023-01-11_14h47.48.737,t1_Paradigm,2021.1.4,59.9891652634604,
Y,right,Target,0,36,36,36,663.4566001333894,665.4566328551994,right,1,1,0.7744254675772027,R20L11,2023-01-11_14h47.48.737,t1_Paradigm,2021.1.4,59.9891652634604,
W,left,Distractor,0,37,37,37,666.9565223388906,668.9585081036205,left,1,1,0.6484262894718995,R20L11,2023-01-11_14h47.48.737,t1_Paradigm,2021.1.4,59.9891652634604,
Q,left,Distractor,0,38,38,38,670.456580564464,672.4583802640007,left,1,1,0.7325858217682253,R20L11,2023-01-11_14h47.48.737,t1_Paradigm,2021.1.4,59.9891652634604,
P,left,Pretarget,0,39,39,39,673.9566095970501,675.9583647051011,left,1,1,0.5926195637284764,R20L11,2023-01-11_14h47.48.737,t1_Paradigm,2021.1.4,59.9891652634604,
P,right,Target,0,40,40,40,677.4566963740065,679.4566283639704,right,1,1,0.6305630685615142,R20L11,2023-01-11_14h47.48.737,t1_Paradigm,2021.1.4,59.9891652634604,
J,left,Distractor,0,41,41,41,680.9564706897597,682.9584038429518,left,1,1,0.616523808164402,R20L11,2023-01-11_14h47.48.737,t1_Paradigm,2021.1.4,59.9891652634604,
P,left,Lure,0,42,42,42,684.456603662212,686.4585531763094,left,1,1,0.7324257415421016,R20L11,2023-01-11_14h47.48.737,t1_Paradigm,2021.1.4,59.9891652634604,
L,left,Distractor,0,43,43,43,687.9565621183458,689.9587047552807,left,1,1,0.5922281852194828,R20L11,2023-01-11_14h47.48.737,t1_Paradigm,2021.1.4,59.9891652634604,
Z,left,Distractor,0,44,44,44,691.4566010957958,693.458552213903,left,1,1,0.6286668076058959,R20L11,2023-01-11_14h47.48.737,t1_Paradigm,2021.1.4,59.9891652634604,
F,left,Pretarget,0,45,45,45,694.9557848149627,696.9580631511678,left,1,1,0.7768584303730677,R20L11,2023-01-11_14h47.48.737,t1_Paradigm,2021.1.4,59.9891652634604,
F,right,Target,0,46,46,46,698.456682579518,700.4563425293379,right,1,1,0.6386058969192163,R20L11,2023-01-11_14h47.48.737,t1_Paradigm,2021.1.4,59.9891652634604,
G,left,Pretarget,0,47,47,47,701.9566455268803,703.9586707502629,left,1,1,0.6724319073578044,R20L11,2023-01-11_14h47.48.737,t1_Paradigm,2021.1.4,59.9891652634604,
G,right,Target,0,48,48,48,705.4566197023148,707.4565889053176,right,1,1,0.614545101080239,R20L11,2023-01-11_14h47.48.737,t1_Paradigm,2021.1.4,59.9891652634604,
V,left,Distractor,0,49,49,49,708.9567026296465,710.958683261543,left,1,1,0.5842819182807943,R20L11,2023-01-11_14h47.48.737,t1_Paradigm,2021.1.4,59.9891652634604,
G,left,Lure,0,50,50,50,712.456576073235,714.4580248153222,left,1,1,0.9090683362915115,R20L11,2023-01-11_14h47.48.737,t1_Paradigm,2021.1.4,59.9891652634604,
Q,left,Pretarget,0,51,51,51,715.9567103288957,717.9585822088955,left,1,1,0.8484088378399974,R20L11,2023-01-11_14h47.48.737,t1_Paradigm,2021.1.4,59.9891652634604,
Q,right,Target,0,52,52,52,719.4566062286283,721.4566254767517,right,1,1,0.694349745459931,R20L11,2023-01-11_14h47.48.737,t1_Paradigm,2021.1.4,59.9891652634604,
Y,left,Distractor,0,53,53,53,722.9565807248648,724.9577635220473,left,1,1,0.8413313028704579,R20L11,2023-01-11_14h47.48.737,t1_Paradigm,2021.1.4,59.9891652634604,
V,left,Distractor,0,54,54,54,726.4566370256259,728.458671552268,left,1,1,0.780724415955774,R20L11,2023-01-11_14h47.48.737,t1_Paradigm,2021.1.4,59.9891652634604,
B,left,Distractor,0,55,55,55,729.9564004341094,731.9582428003198,left,1,1,0.6888486317952811,R20L11,2023-01-11_14h47.48.737,t1_Paradigm,2021.1.4,59.9891652634604,
J,left,Pretarget,0,56,56,56,733.4566222687315,735.4583263692555,left,1,1,0.6766443591609459,R20L11,2023-01-11_14h47.48.737,t1_Paradigm,2021.1.4,59.9891652634604,
J,right,Target,0,57,57,57,736.9565566647109,738.9567661484537,right,1,1,0.6342131543601681,R20L11,2023-01-11_14h47.48.737,t1_Paradigm,2021.1.4,59.9891652634604,
H,left,Distractor,0,58,58,58,740.4565661283716,742.4585820484942,left,1,1,0.7163769770631916,R20L11,2023-01-11_14h47.48.737,t1_Paradigm,2021.1.4,59.9891652634604,
J,left,Lure,0,59,59,59,743.95668915596,745.9585812464891,left,1,1,0.720424215807725,R20L11,2023-01-11_14h47.48.737,t1_Paradigm,2021.1.4,59.9891652634604,
D,left,Pretarget,0,60,60,60,747.4565571459141,749.4579449356099,left,1,1,0.8211842921195966,R20L11,2023-01-11_14h47.48.737,t1_Paradigm,2021.1.4,59.9891652634604,
D,right,Target,0,61,61,61,750.9565544190962,752.9557556219759,right,1,1,0.6514190518569194,R20L11,2023-01-11_14h47.48.737,t1_Paradigm,2021.1.4,59.9891652634604,
R,left,Distractor,0,62,62,62,754.4564082937598,756.4579959431369,left,1,1,0.6849980447113921,R20L11,2023-01-11_14h47.48.737,t1_Paradigm,2021.1.4,59.9891652634604,
F,left,Distractor,0,63,63,63,757.9566150506851,759.958392935682,left,1,1,0.8646876173934288,R20L11,2023-01-11_14h47.48.737,t1_Paradigm,2021.1.4,59.9891652634604,
F,left,Distractor,0,0,0,0,884.9314064250877,886.9230261129667,left,1,2,1.0519221336417104,R20L11,2023-01-11_14h47.48.737,t1_Paradigm,2021.1.4,59.9891652634604,
N,left,Pretarget,0,1,1,1,888.4230378222417,890.4254778426832,left,1,2,0.7175151827591435,R20L11,2023-01-11_14h47.48.737,t1_Paradigm,2021.1.4,59.9891652634604,
V,left,Distractor,0,2,2,2,891.9232407295424,893.9235272057788,left,1,2,0.7235536398684417,R20L11,2023-01-11_14h47.48.737,t1_Paradigm,2021.1.4,59.9891652634604,
N,right,Target,0,3,3,3,895.4233140328122,897.4252744541793,None,0,2,,R20L11,2023-01-11_14h47.48.737,t1_Paradigm,2021.1.4,59.9891652634604,
N,left,Lure,0,4,4,4,898.9233568598868,900.9233145140154,None,0,2,,R20L11,2023-01-11_14h47.48.737,t1_Paradigm,2021.1.4,59.9891652634604,
X,left,Distractor,0,5,5,5,902.4233162784265,904.425613541953,left,1,2,1.309379899249052,R20L11,2023-01-11_14h47.48.737,t1_Paradigm,2021.1.4,59.9891652634604,
G,left,Pretarget,0,6,6,6,905.9232339926991,907.9233215716606,left,1,2,0.9798690293523578,R20L11,2023-01-11_14h47.48.737,t1_Paradigm,2021.1.4,59.9891652634604,
H,left,Pretarget,0,7,7,7,909.4233547746733,911.4233544538713,left,1,2,0.8876323428785327,R20L11,2023-01-11_14h47.48.737,t1_Paradigm,2021.1.4,59.9891652634604,
G,right,Target,0,8,8,8,912.9232792257892,914.925118383979,right,1,2,0.6658990942792116,R20L11,2023-01-11_14h47.48.737,t1_Paradigm,2021.1.4,59.9891652634604,
H,right,Target,0,9,9,9,916.4233390553725,918.4360315887368,None,0,2,,R20L11,2023-01-11_14h47.48.737,t1_Paradigm,2021.1.4,59.9891652634604,
T,left,Pretarget,0,10,10,10,919.9232413711463,921.9250141233103,left,1,2,1.1860825160633794,R20L11,2023-01-11_14h47.48.737,t1_Paradigm,2021.1.4,59.9891652634604,
K,left,Distractor,0,11,11,11,923.4233117871979,925.4251964992798,left,1,2,0.9338047412620654,R20L11,2023-01-11_14h47.48.737,t1_Paradigm,2021.1.4,59.9891652634604,
T,right,Target,0,12,12,12,926.9232651104987,928.9252165494079,right,1,2,1.2097942792652248,R20L11,2023-01-11_14h47.48.737,t1_Paradigm,2021.1.4,59.9891652634604,
T,left,Lure,0,13,13,13,930.4232437771618,932.4233198072491,left,1,2,0.9918173019455025,R20L11,2023-01-11_14h47.48.737,t1_Paradigm,2021.1.4,59.9891652634604,
J,left,Distractor,0,14,14,14,933.9230103936659,935.9365873782997,left,1,2,0.8063985253374994,R20L11,2023-01-11_14h47.48.737,t1_Paradigm,2021.1.4,59.9891652634604,
Q,left,Pretarget,0,15,15,15,937.4232023936963,939.4258727500144,left,1,2,0.7413369810669792,R20L11,2023-01-11_14h47.48.737,t1_Paradigm,2021.1.4,59.9891652634604,
M,left,Distractor,0,16,16,16,940.9232519576142,942.9261471961738,left,1,2,1.2248424621298,R20L11,2023-01-11_14h47.48.737,t1_Paradigm,2021.1.4,59.9891652634604,
Q,right,Target,0,17,17,17,944.4234891907352,946.4252503940249,right,1,2,1.181719608095591,R20L11,2023-01-11_14h47.48.737,t1_Paradigm,2021.1.4,59.9891652634604,
R,left,Distractor,0,18,18,18,947.9230036568226,949.9251684290996,left,1,2,0.6899788174400783,R20L11,2023-01-11_14h47.48.737,t1_Paradigm,2021.1.4,59.9891652634604,
W,left,Distractor,0,19,19,19,951.4232803485963,953.4252709253567,left,1,2,1.4619758134494987,R20L11,2023-01-11_14h47.48.737,t1_Paradigm,2021.1.4,59.9891652634604,
C,left,Pretarget,0,20,20,20,954.9232991155166,956.925256649665,None,0,2,,R20L11,2023-01-11_14h47.48.737,t1_Paradigm,2021.1.4,59.9891652634604,
T,left,Distractor,0,21,21,21,958.4232039977067,960.4362532629577,left,1,2,1.2349162883074314,R20L11,2023-01-11_14h47.48.737,t1_Paradigm,2021.1.4,59.9891652634604,
C,right,Target,0,22,22,22,961.9233109851928,963.9252364391357,right,1,2,0.577936132801824,R20L11,2023-01-11_14h47.48.737,t1_Paradigm,2021.1.4,59.9891652634604,
F,left,Pretarget,0,23,23,23,965.423283877419,967.4251214315984,None,0,2,,R20L11,2023-01-11_14h47.48.737,t1_Paradigm,2021.1.4,59.9891652634604,
C,right,Target,0,24,24,24,968.923119787167,970.9254055018193,right,1,2,0.7458541948240054,R20L11,2023-01-11_14h47.48.737,t1_Paradigm,2021.1.4,59.9891652634604,
F,right,Target,0,25,25,25,972.4232880478455,974.4251859128119,right,1,2,1.3097998291409567,R20L11,2023-01-11_14h47.48.737,t1_Paradigm,2021.1.4,59.9891652634604,
H,left,Distractor,0,26,26,26,975.9234479676709,977.9257070557526,left,1,2,1.4093116646513408,R20L11,2023-01-11_14h47.48.737,t1_Paradigm,2021.1.4,59.9891652634604,
H,left,Lure,0,27,27,27,979.4232809902003,981.4232315866836,right,0,2,1.0319611880840966,R20L11,2023-01-11_14h47.48.737,t1_Paradigm,2021.1.4,59.9891652634604,
P,left,Distractor,0,28,28,28,982.923271847342,984.9248312661382,left,1,2,1.050178574464553,R20L11,2023-01-11_14h47.48.737,t1_Paradigm,2021.1.4,59.9891652634604,
G,left,Pretarget,0,29,29,29,986.4233698523701,988.4253629955467,left,1,2,1.1978784076800366,R20L11,2023-01-11_14h47.48.737,t1_Paradigm,2021.1.4,59.9891652634604,
K,left,Distractor,0,30,30,30,989.9232817922054,991.9253840080817,None,0,2,,R20L11,2023-01-11_14h47.48.737,t1_Paradigm,2021.1.4,59.9891652634604,
G,right,Target,0,31,31,31,993.4232915766681,995.4249472360818,right,1,2,1.0946378898665898,R20L11,2023-01-11_14h47.48.737,t1_Paradigm,2021.1.4,59.9891652634604,
M,left,Pretarget,0,32,32,32,996.9232420127507,998.9253333213567,None,0,2,,R20L11,2023-01-11_14h47.48.737,t1_Paradigm,2021.1.4,59.9891652634604,
B,left,Distractor,0,33,33,33,1000.4231885992083,1002.4251624942615,left,1,2,1.0219345198092924,R20L11,2023-01-11_14h47.48.737,t1_Paradigm,2021.1.4,59.9891652634604,
M,right,Target,0,34,34,34,1003.9232426543547,1005.9255668652538,right,1,2,1.15349255594856,R20L11,2023-01-11_14h47.48.737,t1_Paradigm,2021.1.4,59.9891652634604,
M,left,Lure,0,35,35,35,1007.4233101831876,1009.4232800277944,left,1,2,1.0638797094943584,R20L11,2023-01-11_14h47.48.737,t1_Paradigm,2021.1.4,59.9891652634604,
T,left,Distractor,0,36,36,36,1010.9224582933264,1012.9251937724623,left,1,2,0.905932496189962,R20L11,2023-01-11_14h47.48.737,t1_Paradigm,2021.1.4,59.9891652634604,
F,left,Distractor,0,37,37,37,1014.4232469851825,1016.4255336622407,left,1,2,1.1334789988536613,R20L11,2023-01-11_14h47.48.737,t1_Paradigm,2021.1.4,59.9891652634604,
X,left,Distractor,0,38,38,38,1017.9231967796607,1019.9248572511049,left,1,2,1.2341636866826775,R20L11,2023-01-11_14h47.48.737,t1_Paradigm,2021.1.4,59.9891652634604,
C,left,Distractor,0,39,39,39,1021.4232296618713,1023.4232691205241,left,1,2,1.447925324980588,R20L11,2023-01-11_14h47.48.737,t1_Paradigm,2021.1.4,59.9891652634604,
R,left,Distractor,0,40,40,40,1024.9232933410797,1026.9249454716703,None,0,2,,R20L11,2023-01-11_14h47.48.737,t1_Paradigm,2021.1.4,59.9891652634604,
B,left,Pretarget,0,41,41,41,1028.4231565190023,1030.4250309654183,None,0,2,,R20L11,2023-01-11_14h47.48.737,t1_Paradigm,2021.1.4,59.9891652634604,
H,left,Distractor,0,42,42,42,1031.9233844488638,1033.9236606594343,left,1,2,1.235342634240169,R20L11,2023-01-11_14h47.48.737,t1_Paradigm,2021.1.4,59.9891652634604,
B,right,Target,0,43,43,43,1035.4233496418403,1037.436521453477,right,1,2,1.4346409118220436,R20L11,2023-01-11_14h47.48.737,t1_Paradigm,2021.1.4,59.9891652634604,
W,left,Pretarget,0,44,44,44,1038.9230607595885,1040.9250131609044,left,1,2,0.7781310521309024,R20L11,2023-01-11_14h47.48.737,t1_Paradigm,2021.1.4,59.9891652634604,
L,left,Pretarget,0,45,45,45,1042.423278423784,1044.4256510757934,None,0,2,,R20L11,2023-01-11_14h47.48.737,t1_Paradigm,2021.1.4,59.9891652634604,
W,right,Target,0,46,46,46,1045.9233799576348,1047.9245127096963,right,1,2,1.2505175339179004,R20L11,2023-01-11_14h47.48.737,t1_Paradigm,2021.1.4,59.9891652634604,
L,right,Target,0,47,47,47,1049.4232145841745,1051.4254547449352,None,0,2,,R20L11,2023-01-11_14h47.48.737,t1_Paradigm,2021.1.4,59.9891652634604,
W,right,Target,0,48,48,48,1052.9233029651411,1054.9252951459118,right,1,2,1.4177301522177004,R20L11,2023-01-11_14h47.48.737,t1_Paradigm,2021.1.4,59.9891652634604,
X,left,Distractor,0,49,49,49,1056.4234112358351,1058.42534631384,left,1,2,1.021757116272056,R20L11,2023-01-11_14h47.48.737,t1_Paradigm,2021.1.4,59.9891652634604,
R,left,Distractor,0,50,50,50,1059.9233157972237,1061.9252938627035,left,1,2,0.609728899806214,R20L11,2023-01-11_14h47.48.737,t1_Paradigm,2021.1.4,59.9891652634604,
V,left,Pretarget,0,51,51,51,1063.4232081681337,1065.425101862673,None,0,2,,R20L11,2023-01-11_14h47.48.737,t1_Paradigm,2021.1.4,59.9891652634604,
Z,left,Distractor,0,52,52,52,1066.9231945340464,1068.9253654015622,left,1,2,0.6496559237543806,R20L11,2023-01-11_14h47.48.737,t1_Paradigm,2021.1.4,59.9891652634604,
V,right,Target,0,53,53,53,1070.4232072057273,1072.4252122185806,right,1,2,0.525696084322135,R20L11,2023-01-11_14h47.48.737,t1_Paradigm,2021.1.4,59.9891652634604,
V,left,Lure,0,54,54,54,1073.92329494509,1075.9232128197634,left,1,2,1.1718119573833974,R20L11,2023-01-11_14h47.48.737,t1_Paradigm,2021.1.4,59.9891652634604,
N,left,Distractor,0,55,55,55,1077.4232854814293,1079.4250774817167,left,1,2,1.3659478882723306,R20L11,2023-01-11_14h47.48.737,t1_Paradigm,2021.1.4,59.9891652634604,
B,left,Distractor,0,56,56,56,1080.9233581430951,1082.9252220030432,None,0,2,,R20L11,2023-01-11_14h47.48.737,t1_Paradigm,2021.1.4,59.9891652634604,
V,left,Lure,0,57,57,57,1084.423284198221,1086.4252558476599,right,0,2,0.6217820746719553,R20L11,2023-01-11_14h47.48.737,t1_Paradigm,2021.1.4,59.9891652634604,
J,left,Distractor,0,58,58,58,1087.9233087395785,1089.925477040678,left,1,2,0.6576955440918937,R20L11,2023-01-11_14h47.48.737,t1_Paradigm,2021.1.4,59.9891652634604,
H,left,Distractor,0,59,59,59,1091.4233031255424,1093.4361281501558,left,1,2,1.0190963840154836,R20L11,2023-01-11_14h47.48.737,t1_Paradigm,2021.1.4,59.9891652634604,
X,left,Pretarget,0,60,60,60,1094.923262864884,1096.9252114165754,left,1,2,1.3537926983526631,R20L11,2023-01-11_14h47.48.737,t1_Paradigm,2021.1.4,59.9891652634604,
P,left,Distractor,0,61,61,61,1098.423007025244,1100.42508421856,left,1,2,0.8141144563992384,R20L11,2023-01-11_14h47.48.737,t1_Paradigm,2021.1.4,59.9891652634604,
X,right,Target,0,62,62,62,1101.9233847696657,1103.925652519403,right,1,2,0.8013661034774486,R20L11,2023-01-11_14h47.48.737,t1_Paradigm,2021.1.4,59.9891652634604,
Q,left,Distractor,0,63,63,63,1105.4231754463237,1107.425249431619,left,1,2,1.4299440489135122,R20L11,2023-01-11_14h47.48.737,t1_Paradigm,2021.1.4,59.9891652634604,
B,left,Pretarget,0,0,0,0,1123.38756866367,1125.3919784087382,left,1,2,0.6957744273922799,R20L11,2023-01-11_14h47.48.737,t1_Paradigm,2021.1.4,59.9891652634604,
F,left,Distractor,0,1,1,1,1126.890089686631,1128.8924045942701,left,1,2,0.7470110070394185,R20L11,2023-01-11_14h47.48.737,t1_Paradigm,2021.1.4,59.9891652634604,
B,right,Target,0,2,2,2,1130.389737285572,1132.391925155597,right,1,2,0.543552568389714,R20L11,2023-01-11_14h47.48.737,t1_Paradigm,2021.1.4,59.9891652634604,
V,left,Distractor,0,3,3,3,1133.889914207906,1135.8919256368001,left,1,2,0.7391869656839845,R20L11,2023-01-11_14h47.48.737,t1_Paradigm,2021.1.4,59.9891652634604,
G,left,Pretarget,0,4,4,4,1137.3899249547746,1139.391050649191,left,1,2,0.9039993429973947,R20L11,2023-01-11_14h47.48.737,t1_Paradigm,2021.1.4,59.9891652634604,
B,left,Lure,0,5,5,5,1140.8899520625484,1142.892033426291,None,0,2,,R20L11,2023-01-11_14h47.48.737,t1_Paradigm,2021.1.4,59.9891652634604,
G,right,Target,0,6,6,6,1144.389954147762,1146.3918770352886,right,1,2,1.0711769938729958,R20L11,2023-01-11_14h47.48.737,t1_Paradigm,2021.1.4,59.9891652634604,
Y,left,Pretarget,0,7,7,7,1147.8900258470214,1149.892015140574,left,1,2,0.6430214164247445,R20L11,2023-01-11_14h47.48.737,t1_Paradigm,2021.1.4,59.9891652634604,
P,left,Distractor,0,8,8,8,1151.3900311402556,1153.3906339273196,None,0,2,,R20L11,2023-01-11_14h47.48.737,t1_Paradigm,2021.1.4,59.9891652634604,
Y,right,Target,0,9,9,9,1154.889914528708,1156.8914720226924,right,1,2,0.7156044857110828,R20L11,2023-01-11_14h47.48.737,t1_Paradigm,2021.1.4,59.9891652634604,
X,left,Distractor,0,10,10,10,1158.3900699573044,1160.3918484839053,left,1,2,0.6870226264900339,R20L11,2023-01-11_14h47.48.737,t1_Paradigm,2021.1.4,59.9891652634604,
Y,right,Target,0,11,11,11,1161.88989143096,1163.8920266894477,right,1,2,1.0111812348759486,R20L11,2023-01-11_14h47.48.737,t1_Paradigm,2021.1.4,59.9891652634604,
N,left,Distractor,0,12,12,12,1165.3900802229703,1167.3923502183218,left,1,2,0.7586763322187835,R20L11,2023-01-11_14h47.48.737,t1_Paradigm,2021.1.4,59.9891652634604,
Y,right,Target,0,13,13,13,1168.8896450549807,1170.8919683034735,right,1,2,0.8112589972947717,R20L11,2023-01-11_14h47.48.737,t1_Paradigm,2021.1.4,59.9891652634604,
Y,left,Lure,0,14,14,14,1172.3899150099112,1174.3899650550318,left,1,2,0.9450873495879932,R20L11,2023-01-11_14h47.48.737,t1_Paradigm,2021.1.4,59.9891652634604,
K,left,Distractor,0,15,15,15,1175.8898946389806,1177.8917771054478,left,1,2,0.8352973369896972,R20L11,2023-01-11_14h47.48.737,t1_Paradigm,2021.1.4,59.9891652634604,
T,left,Pretarget,0,16,16,16,1179.3899073106616,1181.3908033108053,left,1,2,1.384224623033333,R20L11,2023-01-11_14h47.48.737,t1_Paradigm,2021.1.4,59.9891652634604,
J,left,Distractor,0,17,17,17,1182.8899498169342,1184.8920205942088,left,1,2,0.9071480151815194,R20L11,2023-01-11_14h47.48.737,t1_Paradigm,2021.1.4,59.9891652634604,
T,right,Target,0,18,18,18,1186.3898909497568,1188.3921452258076,right,1,2,0.7349902331816338,R20L11,2023-01-11_14h47.48.737,t1_Paradigm,2021.1.4,59.9891652634604,
S,left,Pretarget,0,19,19,19,1189.8900184685742,1191.8915750001522,left,1,2,0.7076392914509597,R20L11,2023-01-11_14h47.48.737,t1_Paradigm,2021.1.4,59.9891652634604,
R,left,Distractor,0,20,20,20,1193.3900766941476,1195.3918077420442,left,1,2,0.9032457789667205,R20L11,2023-01-11_14h47.48.737,t1_Paradigm,2021.1.4,59.9891652634604,
S,right,Target,0,21,21,21,1196.8899007342195,1198.9028479844167,right,1,2,0.8964207152152994,R20L11,2023-01-11_14h47.48.737,t1_Paradigm,2021.1.4,59.9891652634604,
Q,left,Distractor,0,22,22,22,1200.389920784348,1202.391754168101,left,1,2,0.8314955118185026,R20L11,2023-01-11_14h47.48.737,t1_Paradigm,2021.1.4,59.9891652634604,
D,left,Distractor,0,23,23,23,1203.8899713106719,1205.8920427295504,None,0,2,,R20L11,2023-01-11_14h47.48.737,t1_Paradigm,2021.1.4,59.9891652634604,
F,left,Distractor,0,24,24,24,1207.3900167041631,1209.392015621777,left,1,2,1.4473943975772272,R20L11,2023-01-11_14h47.48.737,t1_Paradigm,2021.1.4,59.9891652634604,
Z,left,Distractor,0,25,25,25,1210.8900694761012,1212.8903174560908,left,1,2,0.9408399303601982,R20L11,2023-01-11_14h47.48.737,t1_Paradigm,2021.1.4,59.9891652634604,
P,left,Distractor,0,26,26,26,1214.3899785287183,1216.3919283636176,left,1,2,0.6711512655479055,R20L11,2023-01-11_14h47.48.737,t1_Paradigm,2021.1.4,59.9891652634604,
H,left,Distractor,0,27,27,27,1217.8899514209445,1219.891664183124,left,1,2,0.9637022097167574,R20L11,2023-01-11_14h47.48.737,t1_Paradigm,2021.1.4,59.9891652634604,
Z,left,Pretarget,0,28,28,28,1221.3899246339727,1223.3919444037203,right,0,2,0.6952704473619633,R20L11,2023-01-11_14h47.48.737,t1_Paradigm,2021.1.4,59.9891652634604,
J,left,Pretarget,0,29,29,29,1224.8899709898699,1226.8920077621267,left,1,2,1.435402816705846,R20L11,2023-01-11_14h47.48.737,t1_Paradigm,2021.1.4,59.9891652634604,
Z,right,Target,0,30,30,30,1228.3899528645536,1230.391755130507,right,1,2,1.439487589291275,R20L11,2023-01-11_14h47.48.737,t1_Paradigm,2021.1.4,59.9891652634604,
J,right,Target,0,31,31,31,1231.8899815763377,1233.8919160127382,left,0,2,0.9316354777561173,R20L11,2023-01-11_14h47.48.737,t1_Paradigm,2021.1.4,59.9891652634604,
V,left,Pretarget,0,32,32,32,1235.3899499773354,1237.3908809449033,left,1,2,1.2242926074054594,R20L11,2023-01-11_14h47.48.737,t1_Paradigm,2021.1.4,59.9891652634604,
Z,left,Lure,0,33,33,33,1238.8899180575306,1240.8918714212525,right,0,2,0.8912092858076903,R20L11,2023-01-11_14h47.48.737,t1_Paradigm,2021.1.4,59.9891652634604,
V,right,Target,0,34,34,34,1242.3899618470111,1244.3918593911756,right,1,2,1.3913011955969523,R20L11,2023-01-11_14h47.48.737,t1_Paradigm,2021.1.4,59.9891652634604,
X,left,Distractor,0,35,35,35,1245.8899363432477,1247.9028483052186,left,1,2,0.744307608109466,R20L11,2023-01-11_14h47.48.737,t1_Paradigm,2021.1.4,59.9891652634604,
S,left,Distractor,0,36,36,36,1249.389931370816,1251.3918796017049,left,1,2,1.0313587218220164,R20L11,2023-01-11_14h47.48.737,t1_Paradigm,2021.1.4,59.9891652634604,
Q,left,Distractor,0,37,37,37,1252.8899494961322,1254.8908929749803,left,1,2,0.8601627043872213,R20L11,2023-01-11_14h47.48.737,t1_Paradigm,2021.1.4,59.9891652634604,
P,left,Distractor,0,38,38,38,1256.3899605638032,1258.3918937169954,left,1,2,0.5910402552044616,R20L11,2023-01-11_14h47.48.737,t1_Paradigm,2021.1.4,59.9891652634604,
S,left,Lure,0,39,39,39,1259.8899690650576,1261.8908268897565,left,1,2,1.1083762379353175,R20L11,2023-01-11_14h47.48.737,t1_Paradigm,2021.1.4,59.9891652634604,
K,left,Pretarget,0,40,40,40,1263.3899236715667,1265.3917560929133,left,1,2,0.8873073703948648,R20L11,2023-01-11_14h47.48.737,t1_Paradigm,2021.1.4,59.9891652634604,
L,left,Distractor,0,41,41,41,1266.8899806139318,1268.8918223385378,left,1,2,0.699240052008463,R20L11,2023-01-11_14h47.48.737,t1_Paradigm,2021.1.4,59.9891652634604,
K,right,Target,0,42,42,42,1270.3898713808314,1272.3918959626096,right,1,2,0.5750100972450127,R20L11,2023-01-11_14h47.48.737,t1_Paradigm,2021.1.4,59.9891652634604,
B,left,Distractor,0,43,43,43,1273.8897518820652,1275.8918845741366,None,0,2,,R20L11,2023-01-11_14h47.48.737,t1_Paradigm,2021.1.4,59.9891652634604,
N,left,Distractor,0,44,44,44,1277.3898319221787,1279.391896925016,left,1,2,0.6473698883000907,R20L11,2023-01-11_14h47.48.737,t1_Paradigm,2021.1.4,59.9891652634604,
S,left,Pretarget,0,45,45,45,1280.8891859872376,1282.8919323736434,left,1,2,1.1475346201555112,R20L11,2023-01-11_14h47.48.737,t1_Paradigm,2021.1.4,59.9891652634604,
Z,left,Distractor,0,46,46,46,1284.389584904595,1286.391947290939,left,1,2,0.9590525047101437,R20L11,2023-01-11_14h47.48.737,t1_Paradigm,2021.1.4,59.9891652634604,
S,right,Target,0,47,47,47,1287.8898837317108,1289.8918050152267,right,1,2,0.6592649077520036,R20L11,2023-01-11_14h47.48.737,t1_Paradigm,2021.1.4,59.9891652634604,
C,left,Distractor,0,48,48,48,1291.389902498631,1293.3907288847283,left,1,2,0.6643181817453296,R20L11,2023-01-11_14h47.48.737,t1_Paradigm,2021.1.4,59.9891652634604,
T,left,Pretarget,0,49,49,49,1294.8899578369858,1296.8917440628359,left,1,2,0.5553555176511509,R20L11,2023-01-11_14h47.48.737,t1_Paradigm,2021.1.4,59.9891652634604,
S,left,Lure,0,50,50,50,1298.3899679422505,1300.3923726744658,left,1,2,1.375028190480407,R20L11,2023-01-11_14h47.48.737,t1_Paradigm,2021.1.4,59.9891652634604,
T,right,Target,0,51,51,51,1301.8899745186925,1303.8911377469492,right,1,2,0.771925777953129,R20L11,2023-01-11_14h47.48.737,t1_Paradigm,2021.1.4,59.9891652634604,
N,left,Pretarget,0,52,52,52,1305.3899560725743,1307.391500413674,left,1,2,0.6957125125954917,R20L11,2023-01-11_14h47.48.737,t1_Paradigm,2021.1.4,59.9891652634604,
B,left,Distractor,0,53,53,53,1308.8900540776024,1310.89099274442,left,1,2,1.4360569320992909,R20L11,2023-01-11_14h47.48.737,t1_Paradigm,2021.1.4,59.9891652634604,
N,right,Target,0,54,54,54,1312.3899105186822,1314.3903002931809,right,1,2,0.6728467044163153,R20L11,2023-01-11_14h47.48.737,t1_Paradigm,2021.1.4,59.9891652634604,
N,left,Lure,0,55,55,55,1315.8897502780553,1317.8899478921219,left,1,2,0.8376321343571362,R20L11,2023-01-11_14h47.48.737,t1_Paradigm,2021.1.4,59.9891652634604,
X,left,Distractor,0,56,56,56,1319.3898630399779,1321.4029087764063,left,1,2,0.8601806693018261,R20L11,2023-01-11_14h47.48.737,t1_Paradigm,2021.1.4,59.9891652634604,
W,left,Distractor,0,57,57,57,1322.8898879021374,1324.8911371053453,left,1,2,0.7481171325298419,R20L11,2023-01-11_14h47.48.737,t1_Paradigm,2021.1.4,59.9891652634604,
S,left,Distractor,0,58,58,58,1326.389971150271,1328.392301456409,left,1,2,0.9909129609486627,R20L11,2023-01-11_14h47.48.737,t1_Paradigm,2021.1.4,59.9891652634604,
L,left,Distractor,0,59,59,59,1329.8899382680604,1331.891908634291,left,1,2,0.9151407984186335,R20L11,2023-01-11_14h47.48.737,t1_Paradigm,2021.1.4,59.9891652634604,
K,left,Pretarget,0,60,60,60,1333.390073486127,1335.391823140543,left,1,2,0.6151109959073437,R20L11,2023-01-11_14h47.48.737,t1_Paradigm,2021.1.4,59.9891652634604,
V,left,Pretarget,0,61,61,61,1336.8899790099215,1338.8925136669698,left,1,2,0.8907017769547565,R20L11,2023-01-11_14h47.48.737,t1_Paradigm,2021.1.4,59.9891652634604,
K,right,Target,0,62,62,62,1340.3891816564098,1342.3920050353088,right,1,2,1.4072036743386889,R20L11,2023-01-11_14h47.48.737,t1_Paradigm,2021.1.4,59.9891652634604,
V,right,Target,0,63,63,63,1343.8900704385076,1345.8922153210572,left,0,2,1.011049064429244,R20L11,2023-01-11_14h47.48.737,t1_Paradigm,2021.1.4,59.9891652634604,
R,left,Distractor,0,0,0,0,1515.7379865243886,1517.7406110060126,left,1,3,0.6827023851956255,R20L11,2023-01-11_14h47.48.737,t1_Paradigm,2021.1.4,59.9891652634604,
P,left,Lure,0,1,1,1,1519.2401017327481,1521.2417516177245,left,1,3,0.44563126947468845,R20L11,2023-01-11_14h47.48.737,t1_Paradigm,2021.1.4,59.9891652634604,
V,left,Distractor,0,2,2,2,1522.7397518981054,1524.7408599484086,left,1,3,0.4824182828942867,R20L11,2023-01-11_14h47.48.737,t1_Paradigm,2021.1.4,59.9891652634604,
P,left,Pretarget,0,3,3,3,1526.2399304244498,1528.252742616981,left,1,3,0.7784168867633525,R20L11,2023-01-11_14h47.48.737,t1_Paradigm,2021.1.4,59.9891652634604,
Z,left,Distractor,0,4,4,4,1529.740032599905,1531.7417620437911,left,1,3,0.9533534561769557,R20L11,2023-01-11_14h47.48.737,t1_Paradigm,2021.1.4,59.9891652634604,
L,left,Pretarget,0,5,5,5,1533.240015436995,1535.241640620213,left,1,3,1.245592259944715,R20L11,2023-01-11_14h47.48.737,t1_Paradigm,2021.1.4,59.9891652634604,
P,right,Target,0,6,6,6,1536.7399161487585,1538.7417068658376,right,1,3,1.121486776378788,R20L11,2023-01-11_14h47.48.737,t1_Paradigm,2021.1.4,59.9891652634604,
S,left,Distractor,0,7,7,7,1540.239743396851,1542.2416566603158,left,1,3,0.885463400174558,R20L11,2023-01-11_14h47.48.737,t1_Paradigm,2021.1.4,59.9891652634604,
L,right,Target,0,8,8,8,1543.739929943247,1545.7416590663313,None,0,3,,R20L11,2023-01-11_14h47.48.737,t1_Paradigm,2021.1.4,59.9891652634604,
D,left,Distractor,0,9,9,9,1547.2400038881208,1549.2418314974364,left,1,3,1.4532939473956503,R20L11,2023-01-11_14h47.48.737,t1_Paradigm,2021.1.4,59.9891652634604,
G,left,Distractor,0,10,10,10,1550.7400152765938,1552.7416609911436,None,0,3,,R20L11,2023-01-11_14h47.48.737,t1_Paradigm,2021.1.4,59.9891652634604,
M,left,Pretarget,0,11,11,11,1554.2399256124193,1556.241875126516,left,1,3,0.7892850188327429,R20L11,2023-01-11_14h47.48.737,t1_Paradigm,2021.1.4,59.9891652634604,
Y,left,Distractor,0,12,12,12,1557.7399097327173,1559.7418807405522,left,1,3,0.7133591921174229,R20L11,2023-01-11_14h47.48.737,t1_Paradigm,2021.1.4,59.9891652634604,
V,left,Distractor,0,13,13,13,1561.240079918208,1563.2527769428013,None,0,3,,R20L11,2023-01-11_14h47.48.737,t1_Paradigm,2021.1.4,59.9891652634604,
M,right,Target,0,14,14,14,1564.7398580835863,1566.742066805745,None,0,3,,R20L11,2023-01-11_14h47.48.737,t1_Paradigm,2021.1.4,59.9891652634604,
S,left,Pretarget,0,15,15,15,1568.2399743743315,1570.2421211816934,None,0,3,,R20L11,2023-01-11_14h47.48.737,t1_Paradigm,2021.1.4,59.9891652634604,
Q,left,Distractor,0,16,16,16,1571.7396341637507,1573.7405083493547,left,1,3,0.7147171472229275,R20L11,2023-01-11_14h47.48.737,t1_Paradigm,2021.1.4,59.9891652634604,
R,left,Pretarget,0,17,17,17,1575.2399438981363,1577.2404392165115,left,1,3,0.9106563064710826,R20L11,2023-01-11_14h47.48.737,t1_Paradigm,2021.1.4,59.9891652634604,
S,right,Target,0,18,18,18,1578.739999236491,1580.740423657612,None,0,3,,R20L11,2023-01-11_14h47.48.737,t1_Paradigm,2021.1.4,59.9891652634604,
F,left,Distractor,0,19,19,19,1582.2400536124394,1584.2417901139713,None,0,3,,R20L11,2023-01-11_14h47.48.737,t1_Paradigm,2021.1.4,59.9891652634604,
R,right,Target,0,20,20,20,1585.739999557293,1587.7405811714214,right,1,3,1.258642487601719,R20L11,2023-01-11_14h47.48.737,t1_Paradigm,2021.1.4,59.9891652634604,
P,left,Distractor,0,21,21,21,1589.2391877676894,1591.241608219205,left,1,3,1.133496322164774,R20L11,2023-01-11_14h47.48.737,t1_Paradigm,2021.1.4,59.9891652634604,
L,left,Distractor,0,22,22,22,1592.7399626650565,1594.7413077880794,left,1,3,0.8337472214529953,R20L11,2023-01-11_14h47.48.737,t1_Paradigm,2021.1.4,59.9891652634604,
R,right,Target,0,23,23,23,1596.239680519648,1598.2415803094261,left,0,3,1.0297296889789322,R20L11,2023-01-11_14h47.48.737,t1_Paradigm,2021.1.4,59.9891652634604,
H,left,Pretarget,0,24,24,24,1599.7399838379922,1601.742288800768,left,1,3,0.664858733210167,R20L11,2023-01-11_14h47.48.737,t1_Paradigm,2021.1.4,59.9891652634604,
G,left,Pretarget,0,25,25,25,1603.239863697622,1605.2414773319663,left,1,3,1.3737597391491363,R20L11,2023-01-11_14h47.48.737,t1_Paradigm,2021.1.4,59.9891652634604,
T,left,Distractor,0,26,26,26,1606.740027467072,1608.7419901340534,left,1,3,0.9612605852648812,R20L11,2023-01-11_14h47.48.737,t1_Paradigm,2021.1.4,59.9891652634604,
H,right,Target,0,27,27,27,1610.239909251514,1612.2418513871642,None,0,3,,R20L11,2023-01-11_14h47.48.737,t1_Paradigm,2021.1.4,59.9891652634604,
G,right,Target,0,28,28,28,1613.7399572114216,1615.7418438483157,left,0,3,1.3692438086009133,R20L11,2023-01-11_14h47.48.737,t1_Paradigm,2021.1.4,59.9891652634604,
D,left,Distractor,0,29,29,29,1617.2398986650462,1619.2420512468454,left,1,3,1.0530407704127356,R20L11,2023-01-11_14h47.48.737,t1_Paradigm,2021.1.4,59.9891652634604,
N,left,Pretarget,0,30,30,30,1620.739805792851,1622.741895818249,None,0,3,,R20L11,2023-01-11_14h47.48.737,t1_Paradigm,2021.1.4,59.9891652634604,
V,left,Distractor,0,31,31,31,1624.2400045297252,1626.2417699034415,left,1,3,0.7251826727106163,R20L11,2023-01-11_14h47.48.737,t1_Paradigm,2021.1.4,59.9891652634604,
R,left,Distractor,0,32,32,32,1627.7397214219102,1629.7419288608605,left,1,3,1.0652014139668609,R20L11,2023-01-11_14h47.48.737,t1_Paradigm,2021.1.4,59.9891652634604,
N,right,Target,0,33,33,33,1631.2398826249434,1633.2529556295465,right,1,3,1.3622721383094358,R20L11,2023-01-11_14h47.48.737,t1_Paradigm,2021.1.4,59.9891652634604,
Z,left,Distractor,0,34,34,34,1634.7398773317097,1636.7417694222388,left,1,3,0.8491235848218821,R20L11,2023-01-11_14h47.48.737,t1_Paradigm,2021.1.4,59.9891652634604,
N,left,Lure,0,35,35,35,1638.2399304244498,1640.2418414423003,right,0,3,1.2693168552286807,R20L11,2023-01-11_14h47.48.737,t1_Paradigm,2021.1.4,59.9891652634604,
Y,left,Pretarget,0,36,36,36,1641.7399697227017,1643.741965111493,left,1,3,1.4331241596992186,R20L11,2023-01-11_14h47.48.737,t1_Paradigm,2021.1.4,59.9891652634604,
Y,left,Lure,0,37,37,37,1645.2397193366967,1647.2399102139204,None,0,3,,R20L11,2023-01-11_14h47.48.737,t1_Paradigm,2021.1.4,59.9891652634604,
B,left,Distractor,0,38,38,38,1648.7399132615399,1650.7414851916167,None,0,3,,R20L11,2023-01-11_14h47.48.737,t1_Paradigm,2021.1.4,59.9891652634604,
Y,right,Target,0,39,39,39,1652.2399345948768,1654.2421843796985,right,1,3,1.2209418299257777,R20L11,2023-01-11_14h47.48.737,t1_Paradigm,2021.1.4,59.9891652634604,
J,left,Distractor,0,40,40,40,1655.7398555171696,1657.7414463745679,left,1,3,0.9696752232061954,R20L11,2023-01-11_14h47.48.737,t1_Paradigm,2021.1.4,59.9891652634604,
X,left,Distractor,0,41,41,41,1659.2400093417557,1661.241908810732,left,1,3,0.86142955170817,R20L11,2023-01-11_14h47.48.737,t1_Paradigm,2021.1.4,59.9891652634604,
W,left,Pretarget,0,42,42,42,1662.7399190359768,1664.7408310762232,None,0,3,,R20L11,2023-01-11_14h47.48.737,t1_Paradigm,2021.1.4,59.9891652634604,
S,left,Pretarget,0,43,43,43,1666.2399580134268,1668.2419065651177,None,0,3,,R20L11,2023-01-11_14h47.48.737,t1_Paradigm,2021.1.4,59.9891652634604,
R,left,Distractor,0,44,44,44,1669.7399844795966,1671.7404570210258,left,1,3,0.8907707493967791,R20L11,2023-01-11_14h47.48.737,t1_Paradigm,2021.1.4,59.9891652634604,
W,right,Target,0,45,45,45,1673.2397337727891,1675.2409374221054,left,0,3,0.7021494058585631,R20L11,2023-01-11_14h47.48.737,t1_Paradigm,2021.1.4,59.9891652634604,
S,right,Target,0,46,46,46,1676.739741953242,1678.7423507155652,right,1,3,0.9609943195578126,R20L11,2023-01-11_14h47.48.737,t1_Paradigm,2021.1.4,59.9891652634604,
D,left,Distractor,0,47,47,47,1680.2397645697868,1682.2417795275035,left,1,3,1.1734666543902676,R20L11,2023-01-11_14h47.48.737,t1_Paradigm,2021.1.4,59.9891652634604,
T,left,Distractor,0,48,48,48,1683.7399575322236,1685.7418630964391,left,1,3,0.6492433723096838,R20L11,2023-01-11_14h47.48.737,t1_Paradigm,2021.1.4,59.9891652634604,
S,right,Target,0,49,49,49,1687.2399727703212,1689.2529893137628,left,0,3,0.658136646919047,R20L11,2023-01-11_14h47.48.737,t1_Paradigm,2021.1.4,59.9891652634604,
K,left,Distractor,0,50,50,50,1690.7399155071541,1692.741976018763,left,1,3,1.0732474503452067,R20L11,2023-01-11_14h47.48.737,t1_Paradigm,2021.1.4,59.9891652634604,
S,left,Lure,0,51,51,51,1694.2399560886145,1696.2417615625884,right,0,3,1.269359842704489,R20L11,2023-01-11_14h47.48.737,t1_Paradigm,2021.1.4,59.9891652634604,
T,left,Pretarget,0,52,52,52,1697.7400107853653,1699.7419975125006,left,1,3,1.1931507477734158,R20L11,2023-01-11_14h47.48.737,t1_Paradigm,2021.1.4,59.9891652634604,
V,left,Distractor,0,53,53,53,1701.239698805365,1703.241697402177,left,1,3,1.4055663006424766,R20L11,2023-01-11_14h47.48.737,t1_Paradigm,2021.1.4,59.9891652634604,
B,left,Distractor,0,54,54,54,1704.739676830424,1706.7416561791126,left,1,3,1.1056099618022017,R20L11,2023-01-11_14h47.48.737,t1_Paradigm,2021.1.4,59.9891652634604,
T,right,Target,0,55,55,55,1708.2398162189177,1710.2416172016626,right,1,3,0.6936943468581376,R20L11,2023-01-11_14h47.48.737,t1_Paradigm,2021.1.4,59.9891652634604,
Y,left,Pretarget,0,56,56,56,1711.7397021737868,1713.741458885848,left,1,3,0.8737765812570615,R20L11,2023-01-11_14h47.48.737,t1_Paradigm,2021.1.4,59.9891652634604,
T,left,Lure,0,57,57,57,1715.240005812933,1717.2408816025475,None,0,3,,R20L11,2023-01-11_14h47.48.737,t1_Paradigm,2021.1.4,59.9891652634604,
P,left,Pretarget,0,58,58,58,1718.7400159181977,1720.741094775514,left,1,3,0.7220609478995357,R20L11,2023-01-11_14h47.48.737,t1_Paradigm,2021.1.4,59.9891652634604,
Y,right,Target,0,59,59,59,1722.2399509557815,1724.2417272367682,right,1,3,0.9172811897392421,R20L11,2023-01-11_14h47.48.737,t1_Paradigm,2021.1.4,59.9891652634604,
R,left,Distractor,0,60,60,60,1725.739952720193,1727.7414377129123,left,1,3,0.5858737380849561,R20L11,2023-01-11_14h47.48.737,t1_Paradigm,2021.1.4,59.9891652634604,
P,right,Target,0,61,61,61,1729.2400603492827,1731.2417156878944,right,1,3,1.1977568237002743,R20L11,2023-01-11_14h47.48.737,t1_Paradigm,2021.1.4,59.9891652634604,
L,left,Distractor,0,62,62,62,1732.7399350760795,1734.7409670962954,left,1,3,0.9144603772570008,R20L11,2023-01-11_14h47.48.737,t1_Paradigm,2021.1.4,59.9891652634604,
V,left,Distractor,0,63,63,63,1736.2400375723366,1738.2529434390688,left,1,3,0.9541901079401214,R20L11,2023-01-11_14h47.48.737,t1_Paradigm,2021.1.4,59.9891652634604,
H,left,Lure,0,0,0,0,1756.3391038137909,1758.3417055184689,left,1,3,1.121499287658935,R20L11,2023-01-11_14h47.48.737,t1_Paradigm,2021.1.4,59.9891652634604,
B,left,Distractor,0,1,1,1,1759.8400513026647,1761.8417926162272,left,1,3,0.37349219023462865,R20L11,2023-01-11_14h47.48.737,t1_Paradigm,2021.1.4,59.9891652634604,
T,left,Distractor,0,2,2,2,1763.3399587512715,1765.3417100096979,left,1,3,0.5055490735717285,R20L11,2023-01-11_14h47.48.737,t1_Paradigm,2021.1.4,59.9891652634604,
R,left,Distractor,0,3,3,3,1766.8400211472715,1768.8530595052528,left,1,3,0.5621898846620752,R20L11,2023-01-11_14h47.48.737,t1_Paradigm,2021.1.4,59.9891652634604,
H,left,Pretarget,0,4,4,4,1770.3400197036624,1772.3413102903353,None,0,3,,R20L11,2023-01-11_14h47.48.737,t1_Paradigm,2021.1.4,59.9891652634604,
K,left,Distractor,0,5,5,5,1773.839933889112,1775.8417637440423,None,0,3,,R20L11,2023-01-11_14h47.48.737,t1_Paradigm,2021.1.4,59.9891652634604,
G,left,Distractor,0,6,6,6,1777.3399484856056,1779.3413760547571,left,1,3,0.8097647013155438,R20L11,2023-01-11_14h47.48.737,t1_Paradigm,2021.1.4,59.9891652634604,
H,right,Target,0,7,7,7,1780.839905016927,1782.8418429821502,left,0,3,1.0852679034014727,R20L11,2023-01-11_14h47.48.737,t1_Paradigm,2021.1.4,59.9891652634604,
Y,left,Pretarget,0,8,8,8,1784.339909026953,1786.3420648167723,left,1,3,1.0572038186992359,R20L11,2023-01-11_14h47.48.737,t1_Paradigm,2021.1.4,59.9891652634604,
S,left,Distractor,0,9,9,9,1787.8397247261712,1789.8415058191888,left,1,3,0.9656424205541043,R20L11,2023-01-11_14h47.48.737,t1_Paradigm,2021.1.4,59.9891652634604,
P,left,Distractor,0,10,10,10,1791.340097979364,1793.3418559746335,left,1,3,0.8414208066437823,R20L11,2023-01-11_14h47.48.737,t1_Paradigm,2021.1.4,59.9891652634604,
Y,right,Target,0,11,11,11,1794.8399476836005,1796.8420614483505,right,1,3,1.1813247007639802,R20L11,2023-01-11_14h47.48.737,t1_Paradigm,2021.1.4,59.9891652634604,
H,left,Lure,0,12,12,12,1798.3399253878576,1800.3413282552508,left,1,3,1.4259850307344095,R20L11,2023-01-11_14h47.48.737,t1_Paradigm,2021.1.4,59.9891652634604,
Q,left,Distractor,0,13,13,13,1801.8399467211946,1803.8410865309008,left,1,3,0.5820760833403256,R20L11,2023-01-11_14h47.48.737,t1_Paradigm,2021.1.4,59.9891652634604,
V,left,Pretarget,0,14,14,14,1805.3396697086184,1807.3423455185718,left,1,3,0.6806822946459761,R20L11,2023-01-11_14h47.48.737,t1_Paradigm,2021.1.4,59.9891652634604,
G,left,Distractor,0,15,15,15,1808.839920736228,1810.841585698901,left,1,3,0.9577073816876691,R20L11,2023-01-11_14h47.48.737,t1_Paradigm,2021.1.4,59.9891652634604,
Z,left,Pretarget,0,16,16,16,1812.340087392896,1814.3418453881657,left,1,3,1.3933026796275954,R20L11,2023-01-11_14h47.48.737,t1_Paradigm,2021.1.4,59.9891652634604,
V,right,Target,0,17,17,17,1815.8398806359708,1817.8416841851324,None,0,3,,R20L11,2023-01-11_14h47.48.737,t1_Paradigm,2021.1.4,59.9891652634604,
N,left,Distractor,0,18,18,18,1819.3390271420997,1821.342045889451,None,0,3,,R20L11,2023-01-11_14h47.48.737,t1_Paradigm,2021.1.4,59.9891652634604,
Z,right,Target,0,19,19,19,1822.8399261898628,1824.8417579696054,right,1,3,1.3415390222016867,R20L11,2023-01-11_14h47.48.737,t1_Paradigm,2021.1.4,59.9891652634604,
R,left,Distractor,0,20,20,20,1826.3400129668191,1828.3418434633534,left,1,3,0.8333266499571437,R20L11,2023-01-11_14h47.48.737,t1_Paradigm,2021.1.4,59.9891652634604,
P,left,Distractor,0,21,21,21,1829.839932926706,1831.8411173278985,left,1,3,0.6302230183814572,R20L11,2023-01-11_14h47.48.737,t1_Paradigm,2021.1.4,59.9891652634604,
Z,right,Target,0,22,22,22,1833.339881117174,1835.3421132578826,right,1,3,1.3530619112680142,R20L11,2023-01-11_14h47.48.737,t1_Paradigm,2021.1.4,59.9891652634604,
D,left,Pretarget,0,23,23,23,1836.8398963552715,1838.8415658091733,left,1,3,1.3896959021062685,R20L11,2023-01-11_14h47.48.737,t1_Paradigm,2021.1.4,59.9891652634604,
K,left,Distractor,0,24,24,24,1840.340046651035,1842.3419557440732,left,1,3,0.769155972997396,R20L11,2023-01-11_14h47.48.737,t1_Paradigm,2021.1.4,59.9891652634604,
W,left,Distractor,0,25,25,25,1843.8397388414617,1845.8419895886898,left,1,3,0.8052596780366912,R20L11,2023-01-11_14h47.48.737,t1_Paradigm,2021.1.4,59.9891652634604,
D,right,Target,0,26,26,26,1847.3399241046493,1849.3425068820059,right,1,3,0.8887516212535047,R20L11,2023-01-11_14h47.48.737,t1_Paradigm,2021.1.4,59.9891652634604,
G,left,Pretarget,0,27,27,27,1850.8399130369783,1852.8417983906645,left,1,3,0.6533820396402916,R20L11,2023-01-11_14h47.48.737,t1_Paradigm,2021.1.4,59.9891652634604,
V,left,Distractor,0,28,28,28,1854.3399247462537,1856.3419005661192,left,1,3,1.217237528579517,R20L11,2023-01-11_14h47.48.737,t1_Paradigm,2021.1.4,59.9891652634604,
D,right,Target,0,29,29,29,1857.8400320545413,1859.8418218092145,right,1,3,1.2213585517970387,R20L11,2023-01-11_14h47.48.737,t1_Paradigm,2021.1.4,59.9891652634604,
G,right,Target,0,30,30,30,1861.340121077112,1863.3422739797131,right,1,3,1.2252338406392482,R20L11,2023-01-11_14h47.48.737,t1_Paradigm,2021.1.4,59.9891652634604,
B,left,Pretarget,0,31,31,31,1864.8398998840942,1866.84187570396,left,1,3,0.5734250142836572,R20L11,2023-01-11_14h47.48.737,t1_Paradigm,2021.1.4,59.9891652634604,
N,left,Distractor,0,32,32,32,1868.3399131973795,1870.342017017266,left,1,3,0.6408694762294544,R20L11,2023-01-11_14h47.48.737,t1_Paradigm,2021.1.4,59.9891652634604,
F,left,Distractor,0,33,33,33,1871.8398982800838,1873.8423110323504,left,1,3,0.7569882717975815,R20L11,2023-01-11_14h47.48.737,t1_Paradigm,2021.1.4,59.9891652634604,
B,right,Target,0,34,34,34,1875.339921217431,1877.341649378109,right,1,3,1.097781108415802,R20L11,2023-01-11_14h47.48.737,t1_Paradigm,2021.1.4,59.9891652634604,
Q,left,Pretarget,0,35,35,35,1878.8399319642997,1880.8412719544897,left,1,3,0.8460204665293531,R20L11,2023-01-11_14h47.48.737,t1_Paradigm,2021.1.4,59.9891652634604,
S,left,Pretarget,0,36,36,36,1882.3399433527727,1884.3415614783455,left,1,3,1.3935939678945033,R20L11,2023-01-11_14h47.48.737,t1_Paradigm,2021.1.4,59.9891652634604,
W,left,Distractor,0,37,37,37,1885.8399595532767,1887.8420893581294,left,1,3,0.8371746706247905,R20L11,2023-01-11_14h47.48.737,t1_Paradigm,2021.1.4,59.9891652634604,
Q,right,Target,0,38,38,38,1889.3399459191894,1891.3417424107054,right,1,3,0.8735552278385512,R20L11,2023-01-11_14h47.48.737,t1_Paradigm,2021.1.4,59.9891652634604,
S,right,Target,0,39,39,39,1892.8400314129374,1894.8417361550653,left,0,3,0.7334134910738612,R20L11,2023-01-11_14h47.48.737,t1_Paradigm,2021.1.4,59.9891652634604,
T,left,Distractor,0,40,40,40,1896.3396363452046,1898.3428578394557,None,0,3,,R20L11,2023-01-11_14h47.48.737,t1_Paradigm,2021.1.4,59.9891652634604,
G,left,Distractor,0,41,41,41,1899.84005836031,1901.8583578720175,None,0,3,,R20L11,2023-01-11_14h47.48.737,t1_Paradigm,2021.1.4,59.9891652634604,
D,left,Distractor,0,42,42,42,1903.3398974780787,1905.3418899796513,left,1,3,0.8574038067013134,R20L11,2023-01-11_14h47.48.737,t1_Paradigm,2021.1.4,59.9891652634604,
S,left,Lure,0,43,43,43,1906.839859463035,1908.8529568485944,right,0,3,0.7222049880228951,R20L11,2023-01-11_14h47.48.737,t1_Paradigm,2021.1.4,59.9891652634604,
Z,left,Pretarget,0,44,44,44,1910.3397499091327,1912.341837688916,left,1,3,1.1693571800469726,R20L11,2023-01-11_14h47.48.737,t1_Paradigm,2021.1.4,59.9891652634604,
J,left,Distractor,0,45,45,45,1913.8399531372354,1915.8416912427776,left,1,3,0.6456224794983427,R20L11,2023-01-11_14h47.48.737,t1_Paradigm,2021.1.4,59.9891652634604,
M,left,Pretarget,0,46,46,46,1917.3400453678266,1919.3420872729164,left,1,3,0.648866750695106,R20L11,2023-01-11_14h47.48.737,t1_Paradigm,2021.1.4,59.9891652634604,
Z,right,Target,0,47,47,47,1920.8398790319604,1922.841794861842,right,1,3,0.6854555084441927,R20L11,2023-01-11_14h47.48.737,t1_Paradigm,2021.1.4,59.9891652634604,
P,left,Distractor,0,48,48,48,1924.340024194891,1926.3419332879291,left,1,3,1.1212859542915794,R20L11,2023-01-11_14h47.48.737,t1_Paradigm,2021.1.4,59.9891652634604,
M,right,Target,0,49,49,49,1927.8399643653077,1929.841302109883,right,1,3,1.238027426651115,R20L11,2023-01-11_14h47.48.737,t1_Paradigm,2021.1.4,59.9891652634604,
K,left,Distractor,0,50,50,50,1931.339852565791,1933.3422861701913,left,1,3,1.4328601396068734,R20L11,2023-01-11_14h47.48.737,t1_Paradigm,2021.1.4,59.9891652634604,
Y,left,Distractor,0,51,51,51,1934.8397760545001,1936.8422292278262,left,1,3,0.7648918720628899,R20L11,2023-01-11_14h47.48.737,t1_Paradigm,2021.1.4,59.9891652634604,
X,left,Distractor,0,52,52,52,1938.3400533878782,1940.3420754032402,left,1,3,0.84907738932543,R20L11,2023-01-11_14h47.48.737,t1_Paradigm,2021.1.4,59.9891652634604,
F,left,Pretarget,0,53,53,53,1941.8399980495235,1943.8417836337696,left,1,3,0.8534085378901182,R20L11,2023-01-11_14h47.48.737,t1_Paradigm,2021.1.4,59.9891652634604,
M,left,Lure,0,54,54,54,1945.339955222449,1947.34172284178,left,1,3,0.7455876083145085,R20L11,2023-01-11_14h47.48.737,t1_Paradigm,2021.1.4,59.9891652634604,
V,left,Distractor,0,55,55,55,1948.8397045156419,1950.8413617790654,left,1,3,1.0699563420480445,R20L11,2023-01-11_14h47.48.737,t1_Paradigm,2021.1.4,59.9891652634604,
F,right,Target,0,56,56,56,1952.3400312525362,1954.3418678443097,right,1,3,1.0093045428461664,R20L11,2023-01-11_14h47.48.737,t1_Paradigm,2021.1.4,59.9891652634604,
S,left,Distractor,0,57,57,57,1955.8400891573076,1957.841733267847,right,0,3,1.1735802183188753,R20L11,2023-01-11_14h47.48.737,t1_Paradigm,2021.1.4,59.9891652634604,
D,left,Distractor,0,58,58,58,1959.3400678239707,1961.3415354933788,left,1,3,1.0979219405189724,R20L11,2023-01-11_14h47.48.737,t1_Paradigm,2021.1.4,59.9891652634604,
F,right,Target,0,59,59,59,1962.8399133577807,1964.8417505911577,right,1,3,1.2295791044939506,R20L11,2023-01-11_14h47.48.737,t1_Paradigm,2021.1.4,59.9891652634604,
V,left,Pretarget,0,60,60,60,1966.3400094379965,1968.3411303203818,left,1,3,1.1540469019023476,R20L11,2023-01-11_14h47.48.737,t1_Paradigm,2021.1.4,59.9891652634604,
J,left,Distractor,0,61,61,61,1969.8399136785827,1971.8415972477749,left,1,3,0.613813351589215,R20L11,2023-01-11_14h47.48.737,t1_Paradigm,2021.1.4,59.9891652634604,
V,left,Lure,0,62,62,62,1973.3396148514669,1975.341915964618,right,0,3,1.1454093065317466,R20L11,2023-01-11_14h47.48.737,t1_Paradigm,2021.1.4,59.9891652634604,
V,right,Target,0,63,63,63,1976.8400432826136,1978.8399643653077,left,0,3,0.9433367327660562,R20L11,2023-01-11_14h47.48.737,t1_Paradigm,2021.1.4,59.9891652634604,
R,left,Distractor,0,0,0,0,2081.486803647006,2083.492204991231,None,0,4,,R20L11,2023-01-11_14h47.48.737,t1_Paradigm,2021.1.4,59.9891652634604,
F,left,Distractor,0,1,1,1,2084.989760639962,2087.0029590781687,left,1,4,0.8443372181395716,R20L11,2023-01-11_14h47.48.737,t1_Paradigm,2021.1.4,59.9891652634604,
P,left,Pretarget,0,2,2,2,2088.490075186378,2090.49199582829,left,1,4,0.37931186034074926,R20L11,2023-01-11_14h47.48.737,t1_Paradigm,2021.1.4,59.9891652634604,
H,left,Distractor,0,3,3,3,2091.990021452033,2093.9915067655547,left,1,4,1.0876873925112704,R20L11,2023-01-11_14h47.48.737,t1_Paradigm,2021.1.4,59.9891652634604,
Z,left,Distractor,0,4,4,4,2095.489541371756,2097.491767738028,right,0,4,0.7714201939120358,R20L11,2023-01-11_14h47.48.737,t1_Paradigm,2021.1.4,59.9891652634604,
T,left,Distractor,0,5,5,5,2098.989944780342,2100.991739347046,left,1,4,0.9354142051793133,R20L11,2023-01-11_14h47.48.737,t1_Paradigm,2021.1.4,59.9891652634604,
P,right,Target,0,6,6,6,2102.489949752774,2104.491695236763,None,0,4,,R20L11,2023-01-11_14h47.48.737,t1_Paradigm,2021.1.4,59.9891652634604,
G,left,Distractor,0,7,7,7,2105.9898831863475,2107.991804790666,left,1,4,1.087385517776056,R20L11,2023-01-11_14h47.48.737,t1_Paradigm,2021.1.4,59.9891652634604,
L,left,Distractor,0,8,8,8,2109.4899327502644,2111.492247657904,left,1,4,0.6110733812247418,R20L11,2023-01-11_14h47.48.737,t1_Paradigm,2021.1.4,59.9891652634604,
P,left,Lure,0,9,9,9,2112.990088499663,2114.992043467395,left,1,4,1.1431883938948886,R20L11,2023-01-11_14h47.48.737,t1_Paradigm,2021.1.4,59.9891652634604,
Q,left,Pretarget,0,10,10,10,2116.490045030984,2118.491877131529,left,1,4,0.7477276788335985,R20L11,2023-01-11_14h47.48.737,t1_Paradigm,2021.1.4,59.9891652634604,
D,left,Distractor,0,11,11,11,2119.9899210409894,2121.9917714272515,left,1,4,0.687445443600609,R20L11,2023-01-11_14h47.48.737,t1_Paradigm,2021.1.4,59.9891652634604,
M,left,Pretarget,0,12,12,12,2123.4896934319304,2125.4923355576675,left,1,4,0.8188604020228922,R20L11,2023-01-11_14h47.48.737,t1_Paradigm,2021.1.4,59.9891652634604,
C,left,Distractor,0,13,13,13,2126.98994766756,2128.989976539746,left,1,4,0.777415021941124,R20L11,2023-01-11_14h47.48.737,t1_Paradigm,2021.1.4,59.9891652634604,
Q,right,Target,0,14,14,14,2130.4899244094113,2132.492178685462,right,1,4,0.9391749676869949,R20L11,2023-01-11_14h47.48.737,t1_Paradigm,2021.1.4,59.9891652634604,
R,left,Distractor,0,15,15,15,2133.9898350660387,2135.991923487426,left,1,4,1.2637085936776202,R20L11,2023-01-11_14h47.48.737,t1_Paradigm,2021.1.4,59.9891652634604,
M,right,Target,0,16,16,16,2137.4899147853494,2139.4917943645987,right,1,4,0.8673910163233813,R20L11,2023-01-11_14h47.48.737,t1_Paradigm,2021.1.4,59.9891652634604,
S,left,Distractor,0,17,17,17,2140.989750374296,2142.991824359591,left,1,4,1.4153344024593935,R20L11,2023-01-11_14h47.48.737,t1_Paradigm,2021.1.4,59.9891652634604,
Z,left,Distractor,0,18,18,18,2144.489724870532,2146.491968239313,left,1,4,1.0991964870891024,R20L11,2023-01-11_14h47.48.737,t1_Paradigm,2021.1.4,59.9891652634604,
L,left,Pretarget,0,19,19,19,2147.989964990871,2149.9918888408038,left,1,4,0.719309107859317,R20L11,2023-01-11_14h47.48.737,t1_Paradigm,2021.1.4,59.9891652634604,
M,right,Target,0,20,20,20,2151.4897630459773,2153.4918402392923,right,1,4,0.9955167912607976,R20L11,2023-01-11_14h47.48.737,t1_Paradigm,2021.1.4,59.9891652634604,
P,left,Distractor,0,21,21,21,2154.989937401895,2156.9913473269326,left,1,4,1.4481068989443884,R20L11,2023-01-11_14h47.48.737,t1_Paradigm,2021.1.4,59.9891652634604,
F,left,Distractor,0,22,22,22,2158.4899783041565,2160.492212369678,left,1,4,1.258981575375401,R20L11,2023-01-11_14h47.48.737,t1_Paradigm,2021.1.4,59.9891652634604,
L,right,Target,0,23,23,23,2161.9900108655656,2163.9920341641355,left,0,4,0.6072754056781378,R20L11,2023-01-11_14h47.48.737,t1_Paradigm,2021.1.4,59.9891652634604,
L,left,Lure,0,24,24,24,2165.490041502162,2167.489895858028,left,1,4,0.9814441674498084,R20L11,2023-01-11_14h47.48.737,t1_Paradigm,2021.1.4,59.9891652634604,
V,left,Pretarget,0,25,25,25,2168.9890369105224,2170.989922003396,left,1,4,0.6496405252555633,R20L11,2023-01-11_14h47.48.737,t1_Paradigm,2021.1.4,59.9891652634604,
Z,left,Distractor,0,26,26,26,2172.4900318781,2174.491924931035,left,1,4,1.1954175351047525,R20L11,2023-01-11_14h47.48.737,t1_Paradigm,2021.1.4,59.9891652634604,
H,left,Distractor,0,27,27,27,2175.9899149457506,2177.991950434799,left,1,4,0.6713572204685079,R20L11,2023-01-11_14h47.48.737,t1_Paradigm,2021.1.4,59.9891652634604,
X,left,Distractor,0,28,28,28,2179.4899487903676,2181.491897342059,left,1,4,0.6274076595341285,R20L11,2023-01-11_14h47.48.737,t1_Paradigm,2021.1.4,59.9891652634604,
V,right,Target,0,29,29,29,2182.9900092615553,2184.9916934723515,None,0,4,,R20L11,2023-01-11_14h47.48.737,t1_Paradigm,2021.1.4,59.9891652634604,
C,left,Distractor,0,30,30,30,2186.4900251412573,2188.492030474912,left,1,4,0.8591826541041883,R20L11,2023-01-11_14h47.48.737,t1_Paradigm,2021.1.4,59.9891652634604,
S,left,Pretarget,0,31,31,31,2189.989964349267,2191.991882103961,left,1,4,0.6394499271300447,R20L11,2023-01-11_14h47.48.737,t1_Paradigm,2021.1.4,59.9891652634604,
D,left,Distractor,0,32,32,32,2193.4897287201566,2195.491829011221,left,1,4,0.5795796017368957,R20L11,2023-01-11_14h47.48.737,t1_Paradigm,2021.1.4,59.9891652634604,
V,left,Distractor,0,33,33,33,2196.9900397377505,2198.9917107956626,right,0,4,1.0318306216472592,R20L11,2023-01-11_14h47.48.737,t1_Paradigm,2021.1.4,59.9891652634604,
R,left,Distractor,0,34,34,34,2200.4900706951494,2202.492204991231,left,1,4,0.7951043681373449,R20L11,2023-01-11_14h47.48.737,t1_Paradigm,2021.1.4,59.9891652634604,
S,right,Target,0,35,35,35,2203.9899268154268,2205.9917425550666,right,1,4,0.9275609708370212,R20L11,2023-01-11_14h47.48.737,t1_Paradigm,2021.1.4,59.9891652634604,
Y,left,Distractor,0,36,36,36,2207.489750534697,2209.4920741039914,left,1,4,0.8671032568786359,R20L11,2023-01-11_14h47.48.737,t1_Paradigm,2021.1.4,59.9891652634604,
N,left,Pretarget,0,37,37,37,2210.9899149457506,2212.9911465048453,left,1,4,1.09620019588192,R20L11,2023-01-11_14h47.48.737,t1_Paradigm,2021.1.4,59.9891652634604,
Z,left,Pretarget,0,38,38,38,2214.490046955797,2216.4913182943465,left,1,4,0.8599179324182842,R20L11,2023-01-11_14h47.48.737,t1_Paradigm,2021.1.4,59.9891652634604,
P,left,Pretarget,0,39,39,39,2217.9899175121673,2219.9917755976785,left,1,4,0.9598654171213639,R20L11,2023-01-11_14h47.48.737,t1_Paradigm,2021.1.4,59.9891652634604,
M,left,Distractor,0,40,40,40,2221.4898942540176,2223.4921321691636,left,1,4,0.7392100634324379,R20L11,2023-01-11_14h47.48.737,t1_Paradigm,2021.1.4,59.9891652634604,
N,right,Target,0,41,41,41,2224.9898164595197,2226.9923155075394,right,1,4,0.582912735103946,R20L11,2023-01-11_14h47.48.737,t1_Paradigm,2021.1.4,59.9891652634604,
Z,right,Target,0,42,42,42,2228.489950394378,2230.4924183245985,None,0,4,,R20L11,2023-01-11_14h47.48.737,t1_Paradigm,2021.1.4,59.9891652634604,
P,right,Target,0,43,43,43,2231.989949913175,2233.991886915992,None,0,4,,R20L11,2023-01-11_14h47.48.737,t1_Paradigm,2021.1.4,59.9891652634604,
X,left,Pretarget,0,44,44,44,2235.5067286627336,2237.491855316989,None,0,4,,R20L11,2023-01-11_14h47.48.737,t1_Paradigm,2021.1.4,59.9891652634604,
Z,left,Lure,0,45,45,45,2238.990071176352,2240.991826926007,left,1,4,1.2395268554628274,R20L11,2023-01-11_14h47.48.737,t1_Paradigm,2021.1.4,59.9891652634604,
R,left,Pretarget,0,46,46,46,2242.489916068558,2244.4921032969787,left,1,4,0.9871554064611701,R20L11,2023-01-11_14h47.48.737,t1_Paradigm,2021.1.4,59.9891652634604,
K,left,Distractor,0,47,47,47,2245.9891212814628,2247.9907384446296,left,1,4,1.0243023597877254,R20L11,2023-01-11_14h47.48.737,t1_Paradigm,2021.1.4,59.9891652634604,
X,right,Target,0,48,48,48,2249.4898913667994,2251.4917638884035,None,0,4,,R20L11,2023-01-11_14h47.48.737,t1_Paradigm,2021.1.4,59.9891652634604,
B,left,Distractor,0,49,49,49,2252.990022735242,2254.9916928307475,left,1,4,0.6796586152836426,R20L11,2023-01-11_14h47.48.737,t1_Paradigm,2021.1.4,59.9891652634604,
R,right,Target,0,50,50,50,2256.4900363693287,2258.4917494523106,right,1,4,0.8277799824004433,R20L11,2023-01-11_14h47.48.737,t1_Paradigm,2021.1.4,59.9891652634604,
Y,left,Pretarget,0,51,51,51,2259.9899730109228,2261.9901645297505,left,1,4,0.6571710327293658,R20L11,2023-01-11_14h47.48.737,t1_Paradigm,2021.1.4,59.9891652634604,
W,left,Pretarget,0,52,52,52,2263.4898259231804,2265.49202085085,left,1,4,0.8031670862224018,R20L11,2023-01-11_14h47.48.737,t1_Paradigm,2021.1.4,59.9891652634604,
Z,left,Distractor,0,53,53,53,2266.9899085297093,2268.9918009410403,right,0,4,1.0955675742266067,R20L11,2023-01-11_14h47.48.737,t1_Paradigm,2021.1.4,59.9891652634604,
Q,left,Distractor,0,54,54,54,2270.4898647402288,2272.4912996878274,left,1,4,0.9880485193862114,R20L11,2023-01-11_14h47.48.737,t1_Paradigm,2021.1.4,59.9891652634604,
Y,right,Target,0,55,55,55,2273.98993676029,2275.991987006233,right,1,4,0.9910525098430298,R20L11,2023-01-11_14h47.48.737,t1_Paradigm,2021.1.4,59.9891652634604,
W,right,Target,0,56,56,56,2277.4896674469637,2279.4918816227582,left,0,4,1.2833063913071783,R20L11,2023-01-11_14h47.48.737,t1_Paradigm,2021.1.4,59.9891652634604,
H,left,Pretarget,0,57,57,57,2280.9898812615347,2282.9918391164856,left,1,4,0.7592929137713327,R20L11,2023-01-11_14h47.48.737,t1_Paradigm,2021.1.4,59.9891652634604,
M,left,Distractor,0,58,58,58,2284.489932429463,2286.4916968407733,left,1,4,0.6034986030676919,R20L11,2023-01-11_14h47.48.737,t1_Paradigm,2021.1.4,59.9891652634604,
R,left,Pretarget,0,59,59,59,2287.9900240184497,2289.991987006233,left,1,4,0.8633543640471544,R20L11,2023-01-11_14h47.48.737,t1_Paradigm,2021.1.4,59.9891652634604,
J,left,Distractor,0,60,60,60,2291.4898515873447,2293.492092389709,left,1,4,0.6272241607575779,R20L11,2023-01-11_14h47.48.737,t1_Paradigm,2021.1.4,59.9891652634604,
H,right,Target,0,61,61,61,2294.9900188856172,2296.9915003495134,left,0,4,1.3197299359967474,R20L11,2023-01-11_14h47.48.737,t1_Paradigm,2021.1.4,59.9891652634604,
Z,left,Distractor,0,62,62,62,2298.490024178851,2300.491896700454,left,1,4,0.6673282674410075,R20L11,2023-01-11_14h47.48.737,t1_Paradigm,2021.1.4,59.9891652634604,
R,right,Target,0,63,63,63,2301.98990083046,2303.991784259334,right,1,4,0.7833983010964403,R20L11,2023-01-11_14h47.48.737,t1_Paradigm,2021.1.4,59.9891652634604,
J,left,Pretarget,0,0,0,0,2323.2339740926673,2325.2249861814516,left,1,4,0.8791718302431946,R20L11,2023-01-11_14h47.48.737,t1_Paradigm,2021.1.4,59.9891652634604,
G,left,Pretarget,0,1,1,1,2326.723365008259,2328.725218923343,left,1,4,0.41798711466435634,R20L11,2023-01-11_14h47.48.737,t1_Paradigm,2021.1.4,59.9891652634604,
Z,left,Distractor,0,2,2,2,2330.2233529781815,2332.2249191338215,left,1,4,0.5343025618931279,R20L11,2023-01-11_14h47.48.737,t1_Paradigm,2021.1.4,59.9891652634604,
F,left,Distractor,0,3,3,3,2333.7231356347884,2335.7256234547367,left,1,4,0.5057428380141573,R20L11,2023-01-11_14h47.48.737,t1_Paradigm,2021.1.4,59.9891652634604,
J,right,Target,0,4,4,4,2337.223352015776,2339.2252052892563,right,1,4,0.7983204087531703,R20L11,2023-01-11_14h47.48.737,t1_Paradigm,2021.1.4,59.9891652634604,
G,right,Target,0,5,5,5,2340.7230384317654,2342.725262873225,None,0,4,,R20L11,2023-01-11_14h47.48.737,t1_Paradigm,2021.1.4,59.9891652634604,
H,left,Distractor,0,6,6,6,2344.223004266347,2346.2255020311577,left,1,4,0.6140388754347441,R20L11,2023-01-11_14h47.48.737,t1_Paradigm,2021.1.4,59.9891652634604,
P,left,Distractor,0,7,7,7,2347.723331965647,2349.7246122866545,left,1,4,0.7787960747946272,R20L11,2023-01-11_14h47.48.737,t1_Paradigm,2021.1.4,59.9891652634604,
G,left,Lure,0,8,8,8,2351.2234004568863,2353.225218121338,None,0,4,,R20L11,2023-01-11_14h47.48.737,t1_Paradigm,2021.1.4,59.9891652634604,
S,left,Distractor,0,9,9,9,2354.7233027726597,2356.7249103117647,left,1,4,1.3785194792612856,R20L11,2023-01-11_14h47.48.737,t1_Paradigm,2021.1.4,59.9891652634604,
R,left,Pretarget,0,10,10,10,2358.2232220909427,2360.2247750936986,left,1,4,0.7582063572062907,R20L11,2023-01-11_14h47.48.737,t1_Paradigm,2021.1.4,59.9891652634604,
T,left,Pretarget,0,11,11,11,2361.723376877935,2363.7252372090607,left,1,4,0.6180091216856454,R20L11,2023-01-11_14h47.48.737,t1_Paradigm,2021.1.4,59.9891652634604,
X,left,Distractor,0,12,12,12,2365.223295554614,2367.2250121664183,left,1,4,0.8143255441523252,R20L11,2023-01-11_14h47.48.737,t1_Paradigm,2021.1.4,59.9891652634604,
F,left,Pretarget,0,13,13,13,2368.723229950593,2370.72522309377,left,1,4,0.8339974470572997,R20L11,2023-01-11_14h47.48.737,t1_Paradigm,2021.1.4,59.9891652634604,
R,right,Target,0,14,14,14,2372.2232426222745,2374.225122201523,None,0,4,,R20L11,2023-01-11_14h47.48.737,t1_Paradigm,2021.1.4,59.9891652634604,
T,right,Target,0,15,15,15,2375.723289940578,2377.72501874286,right,1,4,1.0821978277208473,R20L11,2023-01-11_14h47.48.737,t1_Paradigm,2021.1.4,59.9891652634604,
C,left,Distractor,0,16,16,16,2379.223305178675,2381.225233199035,left,1,4,0.5901362350095951,R20L11,2023-01-11_14h47.48.737,t1_Paradigm,2021.1.4,59.9891652634604,
F,right,Target,0,17,17,17,2382.723213268886,2384.724929239086,left,0,4,0.722396186048627,R20L11,2023-01-11_14h47.48.737,t1_Paradigm,2021.1.4,59.9891652634604,
M,left,Distractor,0,18,18,18,2386.223303574665,2388.2250541914873,left,1,4,0.5341411984586557,R20L11,2023-01-11_14h47.48.737,t1_Paradigm,2021.1.4,59.9891652634604,
N,left,Distractor,0,19,19,19,2389.7233345320637,2391.7246645773894,None,0,4,,R20L11,2023-01-11_14h47.48.737,t1_Paradigm,2021.1.4,59.9891652634604,
R,left,Lure,0,20,20,20,2393.223247113503,2395.2253066627054,left,1,4,1.4379634587212422,R20L11,2023-01-11_14h47.48.737,t1_Paradigm,2021.1.4,59.9891652634604,
F,right,Target,0,21,21,21,2396.7232758252876,2398.724812467138,right,1,4,0.5146261677596158,R20L11,2023-01-11_14h47.48.737,t1_Paradigm,2021.1.4,59.9891652634604,
P,left,Distractor,0,22,22,22,2400.2232355646292,2402.2395396875454,left,1,4,0.6958950489656672,R20L11,2023-01-11_14h47.48.737,t1_Paradigm,2021.1.4,59.9891652634604,
L,left,Pretarget,0,23,23,23,2403.723246953102,2405.7246212691125,left,1,4,0.7469016135378297,R20L11,2023-01-11_14h47.48.737,t1_Paradigm,2021.1.4,59.9891652634604,
T,left,Distractor,0,24,24,24,2407.223267644835,2409.2252742616984,None,0,4,,R20L11,2023-01-11_14h47.48.737,t1_Paradigm,2021.1.4,59.9891652634604,
F,left,Distractor,0,25,25,25,2410.723407674933,2412.72526993087,right,0,4,0.8499980912274623,R20L11,2023-01-11_14h47.48.737,t1_Paradigm,2021.1.4,59.9891652634604,
V,left,Distractor,0,26,26,26,2414.223289780177,2416.225400336906,left,1,4,0.6142717777274811,R20L11,2023-01-11_14h47.48.737,t1_Paradigm,2021.1.4,59.9891652634604,
L,right,Target,0,27,27,27,2417.7233736699145,2419.725012647621,left,0,4,1.0182029502884689,R20L11,2023-01-11_14h47.48.737,t1_Paradigm,2021.1.4,59.9891652634604,
S,left,Pretarget,0,28,28,28,2421.223386341596,2423.22504360502,left,1,4,0.6063322476325084,R20L11,2023-01-11_14h47.48.737,t1_Paradigm,2021.1.4,59.9891652634604,
W,left,Distractor,0,29,29,29,2424.7233156047423,2426.7239475847937,left,1,4,0.7074051059494195,R20L11,2023-01-11_14h47.48.737,t1_Paradigm,2021.1.4,59.9891652634604,
Q,left,Distractor,0,30,30,30,2428.22320925886,2430.2251074446285,left,1,4,0.7101322442313176,R20L11,2023-01-11_14h47.48.737,t1_Paradigm,2021.1.4,59.9891652634604,
L,right,Target,0,31,31,31,2431.72326844684,2433.7244984019244,right,1,4,0.9548358824795287,R20L11,2023-01-11_14h47.48.737,t1_Paradigm,2021.1.4,59.9891652634604,
S,right,Target,0,32,32,32,2435.2230937701206,2437.222442862748,left,0,4,0.9128188331337697,R20L11,2023-01-11_14h47.48.737,t1_Paradigm,2021.1.4,59.9891652634604,
Z,left,Pretarget,0,33,33,33,2438.723289940578,2440.7249475248036,left,1,4,0.6425482333911532,R20L11,2023-01-11_14h47.48.737,t1_Paradigm,2021.1.4,59.9891652634604,
F,left,Distractor,0,34,34,34,2442.2230831836523,2444.2252232541714,left,1,4,1.3180351387322844,R20L11,2023-01-11_14h47.48.737,t1_Paradigm,2021.1.4,59.9891652634604,
V,left,Distractor,0,35,35,35,2445.7232610683923,2447.7252150737186,left,1,4,1.1941077003079954,R20L11,2023-01-11_14h47.48.737,t1_Paradigm,2021.1.4,59.9891652634604,
M,left,Distractor,0,36,36,36,2449.223409118542,2451.2251536401245,None,0,4,,R20L11,2023-01-11_14h47.48.737,t1_Paradigm,2021.1.4,59.9891652634604,
Z,right,Target,0,37,37,37,2452.7234144117756,2454.72523400104,left,0,4,0.8500279258191767,R20L11,2023-01-11_14h47.48.737,t1_Paradigm,2021.1.4,59.9891652634604,
H,left,Pretarget,0,38,38,38,2456.223218241318,2458.2252081764746,left,1,4,0.6301967126132695,R20L11,2023-01-11_14h47.48.737,t1_Paradigm,2021.1.4,59.9891652634604,
L,left,Distractor,0,39,39,39,2459.723260105987,2461.7250434446187,right,0,4,0.7305410294602552,R20L11,2023-01-11_14h47.48.737,t1_Paradigm,2021.1.4,59.9891652634604,
G,left,Distractor,0,40,40,40,2463.223412647364,2465.2250108832095,right,0,4,0.7499835588946553,R20L11,2023-01-11_14h47.48.737,t1_Paradigm,2021.1.4,59.9891652634604,
K,left,Distractor,0,41,41,41,2466.723248557112,2468.7246068330196,left,1,4,0.6430214164247445,R20L11,2023-01-11_14h47.48.737,t1_Paradigm,2021.1.4,59.9891652634604,
H,right,Target,0,42,42,42,2470.223326993215,2472.225527053719,right,1,4,0.8054819938615765,R20L11,2023-01-11_14h47.48.737,t1_Paradigm,2021.1.4,59.9891652634604,
B,left,Distractor,0,43,43,43,2473.7231696398067,2475.736210564204,left,1,4,0.6069988743051908,R20L11,2023-01-11_14h47.48.737,t1_Paradigm,2021.1.4,59.9891652634604,
Z,left,Distractor,0,44,44,44,2477.223235243827,2479.225457439672,left,1,4,1.1178151968424572,R20L11,2023-01-11_14h47.48.737,t1_Paradigm,2021.1.4,59.9891652634604,
T,left,Pretarget,0,45,45,45,2480.723348647354,2482.724394141256,left,1,4,0.6431122034064174,R20L11,2023-01-11_14h47.48.737,t1_Paradigm,2021.1.4,59.9891652634604,
H,right,Target,0,46,46,46,2484.2232673240323,2486.2252004772254,right,1,4,0.90204084644256,R20L11,2023-01-11_14h47.48.737,t1_Paradigm,2021.1.4,59.9891652634604,
F,left,Distractor,0,47,47,47,2487.723198832794,2489.7253405073225,left,1,4,0.921992809542644,R20L11,2023-01-11_14h47.48.737,t1_Paradigm,2021.1.4,59.9891652634604,
R,left,Distractor,0,48,48,48,2491.223293308999,2493.2255770988395,left,1,4,0.6537140697687391,R20L11,2023-01-11_14h47.48.737,t1_Paradigm,2021.1.4,59.9891652634604,
T,right,Target,0,49,49,49,2494.7233322864495,2496.7253369785003,left,0,4,0.7059996721404787,R20L11,2023-01-11_14h47.48.737,t1_Paradigm,2021.1.4,59.9891652634604,
H,right,Target,0,50,50,50,2498.2232246573594,2500.2251841163206,left,0,4,0.5340603563408877,R20L11,2023-01-11_14h47.48.737,t1_Paradigm,2021.1.4,59.9891652634604,
Y,left,Pretarget,0,51,51,51,2501.723136917997,2503.725036066171,None,0,4,,R20L11,2023-01-11_14h47.48.737,t1_Paradigm,2021.1.4,59.9891652634604,
H,left,Distractor,0,52,52,52,2505.2232503215237,2507.2249342115183,None,0,4,,R20L11,2023-01-11_14h47.48.737,t1_Paradigm,2021.1.4,59.9891652634604,
S,left,Distractor,0,53,53,53,2508.723280316516,2510.736217942652,left,1,4,0.7750337082761689,R20L11,2023-01-11_14h47.48.737,t1_Paradigm,2021.1.4,59.9891652634604,
Q,left,Distractor,0,54,54,54,2512.223302291457,2514.2254997855434,left,1,4,1.0618920199526656,R20L11,2023-01-11_14h47.48.737,t1_Paradigm,2021.1.4,59.9891652634604,
Y,right,Target,0,55,55,55,2515.7233040558685,2517.72473483304,right,1,4,1.018630579429555,R20L11,2023-01-11_14h47.48.737,t1_Paradigm,2021.1.4,59.9891652634604,
R,left,Distractor,0,56,56,56,2519.2234010984903,2521.2251193143047,left,1,4,0.9261298728629299,R20L11,2023-01-11_14h47.48.737,t1_Paradigm,2021.1.4,59.9891652634604,
H,left,Pretarget,0,57,57,57,2522.723264276413,2524.724611324248,left,1,4,1.2031052355855536,R20L11,2023-01-11_14h47.48.737,t1_Paradigm,2021.1.4,59.9891652634604,
J,left,Distractor,0,58,58,58,2526.2232432638784,2528.225191173966,left,1,4,1.2541076297316067,R20L11,2023-01-11_14h47.48.737,t1_Paradigm,2021.1.4,59.9891652634604,
V,left,Distractor,0,59,59,59,2529.723235404228,2531.7238378704906,left,1,4,0.7635579771122138,R20L11,2023-01-11_14h47.48.737,t1_Paradigm,2021.1.4,59.9891652634604,
Y,left,Lure,0,60,60,60,2533.2230199856476,2535.225056757904,left,1,4,1.1502235829930214,R20L11,2023-01-11_14h47.48.737,t1_Paradigm,2021.1.4,59.9891652634604,
H,right,Target,0,61,61,61,2536.7231689982027,2538.725037349379,right,1,4,1.4583469005865481,R20L11,2023-01-11_14h47.48.737,t1_Paradigm,2021.1.4,59.9891652634604,
L,left,Distractor,0,62,62,62,2540.2232336398165,2542.2239721261512,left,1,4,1.1594049378495583,R20L11,2023-01-11_14h47.48.737,t1_Paradigm,2021.1.4,59.9891652634604,
P,left,Distractor,0,63,63,63,2543.7233460809375,2545.725212507302,left,1,4,0.666053400068904,R20L11,2023-01-11_14h47.48.737,t1_Paradigm,2021.1.4,59.9891652634604,
