Letter,CorrAnswer,Stimulus,finaln_nback_run.thisRepN,finaln_nback_run.thisTrialN,finaln_nback_run.thisN,finaln_nback_run.thisIndex,finaln_fixcross.started,finaln_nback_trial.started,finaln_trial_resp.keys,finaln_trial_resp.corr,finaln_trial_resp.rt,finaln_level,finaln_money,Participant,date,expName,psychopyVersion,frameRate,
F,left,Distractor,0,0,0,0,2880.720401759663,2882.7240743016055,left,1,1.2992800881047515,1,2.91,R20L11,2023-01-11_14h47.48.737,t1_Paradigm,2021.1.4,59.9891652634604,
T,left,Pretarget,0,1,1,1,2884.223186481914,2886.225683605122,left,1,0.5976173389663018,1,2.91,R20L11,2023-01-11_14h47.48.737,t1_Paradigm,2021.1.4,59.9891652634604,
B,left,Distractor,0,2,2,2,2887.7232549731534,2889.7253543018105,left,1,1.0339472736150128,1,2.91,R20L11,2023-01-11_14h47.48.737,t1_Paradigm,2021.1.4,59.9891652634604,
T,right,Target,0,3,3,3,2891.2233038954673,2893.225124447137,right,1,1.2463730921499518,1,2.91,R20L11,2023-01-11_14h47.48.737,t1_Paradigm,2021.1.4,59.9891652634604,
Z,left,Distractor,0,4,4,4,2894.7234403967423,2896.7251076050297,left,1,0.7703763040199192,1,2.91,R20L11,2023-01-11_14h47.48.737,t1_Paradigm,2021.1.4,59.9891652634604,
T,right,Target,0,5,5,5,2898.223270532053,2900.225088517307,right,1,0.9662320547340641,1,2.91,R20L11,2023-01-11_14h47.48.737,t1_Paradigm,2021.1.4,59.9891652634604,
L,left,Distractor,0,6,6,6,2901.7234288478676,2903.7250710335948,left,1,0.8903848245226982,1,2.91,R20L11,2023-01-11_14h47.48.737,t1_Paradigm,2021.1.4,59.9891652634604,
T,right,Target,0,7,7,7,2905.223367735076,2907.2254138105927,right,1,1.0379553745087833,1,2.91,R20L11,2023-01-11_14h47.48.737,t1_Paradigm,2021.1.4,59.9891652634604,
Z,left,Lure,0,8,8,8,2908.7232376498423,2910.7248269032298,left,1,1.18648448103977,1,2.91,R20L11,2023-01-11_14h47.48.737,t1_Paradigm,2021.1.4,59.9891652634604,
J,left,Distractor,0,9,9,9,2912.22324358468,2914.225218762942,left,1,0.7262512643610535,1,2.91,R20L11,2023-01-11_14h47.48.737,t1_Paradigm,2021.1.4,59.9891652634604,
D,left,Pretarget,0,10,10,10,2915.72344007594,2917.725281479744,None,0,,1,2.91,R20L11,2023-01-11_14h47.48.737,t1_Paradigm,2021.1.4,59.9891652634604,
H,left,Distractor,0,11,11,11,2919.223289138572,2921.22493453232,left,1,1.2946720873660524,1,2.91,R20L11,2023-01-11_14h47.48.737,t1_Paradigm,2021.1.4,59.9891652634604,
D,right,Target,0,12,12,12,2922.7232434242796,2924.7253405073225,right,1,0.994267588052935,1,2.91,R20L11,2023-01-11_14h47.48.737,t1_Paradigm,2021.1.4,59.9891652634604,
S,left,Distractor,0,13,13,13,2926.223197389184,2928.2250942917444,None,0,,1,2.91,R20L11,2023-01-11_14h47.48.737,t1_Paradigm,2021.1.4,59.9891652634604,
R,left,Pretarget,0,14,14,14,2929.7232645972153,2931.7251929383765,left,1,1.322440071769961,1,2.91,R20L11,2023-01-11_14h47.48.737,t1_Paradigm,2021.1.4,59.9891652634604,
Z,left,Distractor,0,15,15,15,2933.2232811185213,2935.2246724370398,left,1,0.9907977930106426,1,2.91,R20L11,2023-01-11_14h47.48.737,t1_Paradigm,2021.1.4,59.9891652634604,
R,right,Target,0,16,16,16,2936.723282241328,2938.7253308832605,right,1,0.9461289938653863,1,2.91,R20L11,2023-01-11_14h47.48.737,t1_Paradigm,2021.1.4,59.9891652634604,
T,left,Distractor,0,17,17,17,2940.223238131045,2942.223885830397,left,1,1.127448240994454,1,2.91,R20L11,2023-01-11_14h47.48.737,t1_Paradigm,2021.1.4,59.9891652634604,
M,left,Distractor,0,18,18,18,2943.7234108829525,2945.724835244084,left,1,0.6346648436556279,1,2.91,R20L11,2023-01-11_14h47.48.737,t1_Paradigm,2021.1.4,59.9891652634604,
R,left,Lure,0,19,19,19,2947.223069068362,2949.224787604978,left,1,1.118560740821522,1,2.91,R20L11,2023-01-11_14h47.48.737,t1_Paradigm,2021.1.4,59.9891652634604,
J,left,Distractor,0,20,20,20,2950.723356025801,2952.7394355872775,left,1,0.7559148681166334,1,2.91,R20L11,2023-01-11_14h47.48.737,t1_Paradigm,2021.1.4,59.9891652634604,
K,left,Distractor,0,21,21,21,2954.2232961962172,2956.225654732937,left,1,0.9977126813373616,1,2.91,R20L11,2023-01-11_14h47.48.737,t1_Paradigm,2021.1.4,59.9891652634604,
Z,left,Distractor,0,22,22,22,2957.723198191189,2959.7252038456463,left,1,0.6981082623533439,1,2.91,R20L11,2023-01-11_14h47.48.737,t1_Paradigm,2021.1.4,59.9891652634604,
W,left,Pretarget,0,23,23,23,2961.223283684937,2963.2252322366285,left,1,0.6221833980443989,1,2.91,R20L11,2023-01-11_14h47.48.737,t1_Paradigm,2021.1.4,59.9891652634604,
Q,left,Distractor,0,24,24,24,2964.723341589709,2966.7252054496566,left,1,1.1062111448563883,1,2.91,R20L11,2023-01-11_14h47.48.737,t1_Paradigm,2021.1.4,59.9891652634604,
W,right,Target,0,25,25,25,2968.223235243827,2970.225164226593,right,1,1.1103466041658976,1,2.91,R20L11,2023-01-11_14h47.48.737,t1_Paradigm,2021.1.4,59.9891652634604,
D,left,Pretarget,0,26,26,26,2971.723194662367,2973.7248384521044,left,1,0.7945904432417592,1,2.91,R20L11,2023-01-11_14h47.48.737,t1_Paradigm,2021.1.4,59.9891652634604,
W,right,Target,0,27,27,27,2975.22338858721,2977.2241460008654,right,1,0.766948854848124,1,2.91,R20L11,2023-01-11_14h47.48.737,t1_Paradigm,2021.1.4,59.9891652634604,
D,right,Target,0,28,28,28,2978.7232867325565,2980.72541814142,right,1,0.8818874196513207,1,2.91,R20L11,2023-01-11_14h47.48.737,t1_Paradigm,2021.1.4,59.9891652634604,
L,left,Pretarget,0,29,29,29,2982.2232005972046,2984.22536504868,left,1,1.301987978264151,1,2.91,R20L11,2023-01-11_14h47.48.737,t1_Paradigm,2021.1.4,59.9891652634604,
P,left,Distractor,0,30,30,30,2985.723299564639,2987.7254075549527,left,1,0.7142644955210926,1,2.91,R20L11,2023-01-11_14h47.48.737,t1_Paradigm,2021.1.4,59.9891652634604,
L,right,Target,0,31,31,31,2989.2229821310048,2991.224693930778,right,1,0.8307506094442942,1,2.91,R20L11,2023-01-11_14h47.48.737,t1_Paradigm,2021.1.4,59.9891652634604,
R,left,Distractor,0,32,32,32,2992.723003785143,2994.7252169985304,left,1,0.5782527644314541,1,2.91,R20L11,2023-01-11_14h47.48.737,t1_Paradigm,2021.1.4,59.9891652634604,
V,left,Distractor,0,33,33,33,2996.223228506984,2998.223722221349,left,1,0.5515851310810831,1,2.91,R20L11,2023-01-11_14h47.48.737,t1_Paradigm,2021.1.4,59.9891652634604,
L,left,Lure,0,34,34,34,2999.7233810483613,3001.725578221646,left,1,0.8898898269499114,1,2.91,R20L11,2023-01-11_14h47.48.737,t1_Paradigm,2021.1.4,59.9891652634604,
H,left,Distractor,0,35,35,35,3003.223350411765,3005.2253586326387,left,1,0.6539979795879844,1,2.91,R20L11,2023-01-11_14h47.48.737,t1_Paradigm,2021.1.4,59.9891652634604,
K,left,Pretarget,0,36,36,36,3006.723261709996,3008.7251079258313,left,1,0.7063615368606406,1,2.91,R20L11,2023-01-11_14h47.48.737,t1_Paradigm,2021.1.4,59.9891652634604,
F,left,Distractor,0,37,37,37,3010.2233770383355,3012.224656717739,left,1,0.5666586573079258,1,2.91,R20L11,2023-01-11_14h47.48.737,t1_Paradigm,2021.1.4,59.9891652634604,
K,right,Target,0,38,38,38,3013.7232841661407,3015.725070391991,right,1,0.8744104861207234,1,2.91,R20L11,2023-01-11_14h47.48.737,t1_Paradigm,2021.1.4,59.9891652634604,
S,left,Pretarget,0,39,39,39,3017.2234405571435,3019.225724988587,left,1,0.5577743651574565,1,2.91,R20L11,2023-01-11_14h47.48.737,t1_Paradigm,2021.1.4,59.9891652634604,
W,left,Distractor,0,40,40,40,3020.7232482363106,3022.7252032040424,left,1,0.546271045015601,1,2.91,R20L11,2023-01-11_14h47.48.737,t1_Paradigm,2021.1.4,59.9891652634604,
S,right,Target,0,41,41,41,3024.2233709430966,3026.22516230178,right,1,0.7899497206935848,1,2.91,R20L11,2023-01-11_14h47.48.737,t1_Paradigm,2021.1.4,59.9891652634604,
F,left,Pretarget,0,42,42,42,3027.723368537081,3029.725128457163,left,1,0.9063482556548479,1,2.91,R20L11,2023-01-11_14h47.48.737,t1_Paradigm,2021.1.4,59.9891652634604,
Y,left,Distractor,0,43,43,43,3031.2232997250403,3033.2248562566183,left,1,0.6545224909514218,1,2.91,R20L11,2023-01-11_14h47.48.737,t1_Paradigm,2021.1.4,59.9891652634604,
F,right,Target,0,44,44,44,3034.723394522048,3036.725910572577,right,1,0.945625013834615,1,2.91,R20L11,2023-01-11_14h47.48.737,t1_Paradigm,2021.1.4,59.9891652634604,
F,left,Lure,0,45,45,45,3038.2232275445776,3040.2232269029737,None,0,,1,2.91,R20L11,2023-01-11_14h47.48.737,t1_Paradigm,2021.1.4,59.9891652634604,
B,left,Pretarget,0,46,46,46,3041.723397409266,3043.725187805544,left,1,1.2743024399887872,1,2.91,R20L11,2023-01-11_14h47.48.737,t1_Paradigm,2021.1.4,59.9891652634604,
W,left,Distractor,0,47,47,47,3045.2232804769164,3047.2253169283713,left,1,0.813917804738594,1,2.91,R20L11,2023-01-11_14h47.48.737,t1_Paradigm,2021.1.4,59.9891652634604,
B,right,Target,0,48,48,48,3048.7225392637656,3050.7252301514154,right,1,0.642152042851194,1,2.91,R20L11,2023-01-11_14h47.48.737,t1_Paradigm,2021.1.4,59.9891652634604,
R,left,Pretarget,0,49,49,49,3052.223202201215,3054.224918171415,left,1,0.6149239683090855,1,2.91,R20L11,2023-01-11_14h47.48.737,t1_Paradigm,2021.1.4,59.9891652634604,
N,left,Distractor,0,50,50,50,3055.7234102413486,3057.7254454095946,left,1,0.5859067806959501,1,2.91,R20L11,2023-01-11_14h47.48.737,t1_Paradigm,2021.1.4,59.9891652634604,
R,right,Target,0,51,51,51,3059.223337579683,3061.2250625323404,right,1,0.7982771004753886,1,2.91,R20L11,2023-01-11_14h47.48.737,t1_Paradigm,2021.1.4,59.9891652634604,
V,left,Distractor,0,52,52,52,3062.7231956247733,3064.7252686476622,left,1,0.7541177349958161,1,2.91,R20L11,2023-01-11_14h47.48.737,t1_Paradigm,2021.1.4,59.9891652634604,
G,left,Distractor,0,53,53,53,3066.2232952338118,3068.2254080361554,left,1,0.6780709659060449,1,2.91,R20L11,2023-01-11_14h47.48.737,t1_Paradigm,2021.1.4,59.9891652634604,
H,left,Distractor,0,54,54,54,3069.7234089581407,3071.725124286736,left,1,0.6341932646328132,1,2.91,R20L11,2023-01-11_14h47.48.737,t1_Paradigm,2021.1.4,59.9891652634604,
V,left,Lure,0,55,55,55,3073.2232038052252,3075.224811985934,left,1,1.2946210798390894,1,2.91,R20L11,2023-01-11_14h47.48.737,t1_Paradigm,2021.1.4,59.9891652634604,
L,left,Distractor,0,56,56,56,3076.7232751836827,3078.725749209142,left,1,0.7856169681190295,1,2.91,R20L11,2023-01-11_14h47.48.737,t1_Paradigm,2021.1.4,59.9891652634604,
K,left,Distractor,0,57,57,57,3080.2232509631276,3082.2252251789832,left,1,0.6783061138139601,1,2.91,R20L11,2023-01-11_14h47.48.737,t1_Paradigm,2021.1.4,59.9891652634604,
D,left,Pretarget,0,58,58,58,3083.7233694994875,3085.725491284289,left,1,0.6658634852510659,1,2.91,R20L11,2023-01-11_14h47.48.737,t1_Paradigm,2021.1.4,59.9891652634604,
T,left,Pretarget,0,59,59,59,3087.223404948115,3089.2224486371842,left,1,0.6889204914559741,1,2.91,R20L11,2023-01-11_14h47.48.737,t1_Paradigm,2021.1.4,59.9891652634604,
D,right,Target,0,60,60,60,3090.723020787652,3092.725240096279,right,1,0.9623070415727852,1,2.91,R20L11,2023-01-11_14h47.48.737,t1_Paradigm,2021.1.4,59.9891652634604,
T,right,Target,0,61,61,61,3094.2233038954673,3096.2256377304275,right,1,1.1738493712437048,1,2.91,R20L11,2023-01-11_14h47.48.737,t1_Paradigm,2021.1.4,59.9891652634604,
T,left,Lure,0,62,62,62,3097.723194662367,3099.7233832939755,left,1,1.0679824469943924,1,2.91,R20L11,2023-01-11_14h47.48.737,t1_Paradigm,2021.1.4,59.9891652634604,
F,left,Distractor,0,63,63,63,3101.2232942714054,3103.2250115248135,left,1,0.7502700351305975,1,2.91,R20L11,2023-01-11_14h47.48.737,t1_Paradigm,2021.1.4,59.9891652634604,
