Letter,CorrAnswer,Stimulus,finaln_nback_run.thisRepN,finaln_nback_run.thisTrialN,finaln_nback_run.thisN,finaln_nback_run.thisIndex,finaln_fixcross.started,finaln_nback_trial.started,finaln_trial_resp.keys,finaln_trial_resp.corr,finaln_level,finaln_money,finaln_trial_resp.rt,Participant,date,expName,psychopyVersion,frameRate,
F,left,Distractor,0,0,0,0,3117.1072675804317,3119.1100932058616,None,0,1,2.41,,R22N06,2022-11-30_10h39.18.374,t1_Paradigm,2021.1.4,60.000461959926454,
T,left,Pretarget,0,1,1,1,3120.6093146190105,3122.609833035298,None,0,1,2.41,,R22N06,2022-11-30_10h39.18.374,t1_Paradigm,2021.1.4,60.000461959926454,
B,left,Distractor,0,2,2,2,3124.1095122331462,3126.1110498378985,left,1,1,2.41,0.4420618468138855,R22N06,2022-11-30_10h39.18.374,t1_Paradigm,2021.1.4,60.000461959926454,
T,right,Target,0,3,3,3,3127.6095439925557,3129.610892965633,right,1,1,2.41,0.4302868035447318,R22N06,2022-11-30_10h39.18.374,t1_Paradigm,2021.1.4,60.000461959926454,
Z,left,Distractor,0,4,4,4,3131.1093046741444,3133.1102706094534,left,1,1,2.41,0.41883801607764326,R22N06,2022-11-30_10h39.18.374,t1_Paradigm,2021.1.4,60.000461959926454,
T,right,Target,0,5,5,5,3134.609641837218,3136.610294990416,right,1,1,2.41,0.6148564763279865,R22N06,2022-11-30_10h39.18.374,t1_Paradigm,2021.1.4,60.000461959926454,
L,left,Distractor,0,6,6,6,3138.1091538971377,3140.1118239335046,left,1,1,2.41,0.4573589769715909,R22N06,2022-11-30_10h39.18.374,t1_Paradigm,2021.1.4,60.000461959926454,
T,right,Target,0,7,7,7,3141.609555862233,3143.609755721991,right,1,1,2.41,0.3831795728619909,R22N06,2022-11-30_10h39.18.374,t1_Paradigm,2021.1.4,60.000461959926454,
Z,left,Lure,0,8,8,8,3145.109104814401,3147.1114755423623,left,1,1,2.41,0.48159076807496604,R22N06,2022-11-30_10h39.18.374,t1_Paradigm,2021.1.4,60.000461959926454,
J,left,Distractor,0,9,9,9,3148.6092613658548,3150.6113151412865,left,1,1,2.41,0.437717864770093,R22N06,2022-11-30_10h39.18.374,t1_Paradigm,2021.1.4,60.000461959926454,
D,left,Pretarget,0,10,10,10,3152.1095815264125,3154.111011020839,left,1,1,2.41,0.47432459917035885,R22N06,2022-11-30_10h39.18.374,t1_Paradigm,2021.1.4,60.000461959926454,
H,left,Distractor,0,11,11,11,3155.609393857143,3157.6090829998575,left,1,1,2.41,0.5440820663206978,R22N06,2022-11-30_10h39.18.374,t1_Paradigm,2021.1.4,60.000461959926454,
D,right,Target,0,12,12,12,3159.1095776767907,3161.1096049449698,right,1,1,2.41,0.4354517183091957,R22N06,2022-11-30_10h39.18.374,t1_Paradigm,2021.1.4,60.000461959926454,
S,left,Distractor,0,13,13,13,3162.609628684324,3164.6099231807166,left,1,1,2.41,0.4551512165198801,R22N06,2022-11-30_10h39.18.374,t1_Paradigm,2021.1.4,60.000461959926454,
R,left,Pretarget,0,14,14,14,3166.1097618172207,3168.1107162036496,left,1,1,2.41,0.42653823031287175,R22N06,2022-11-30_10h39.18.374,t1_Paradigm,2021.1.4,60.000461959926454,
Z,left,Distractor,0,15,15,15,3169.6095131955517,3171.6097724036954,left,1,1,2.41,0.49525565686053596,R22N06,2022-11-30_10h39.18.374,t1_Paradigm,2021.1.4,60.000461959926454,
R,right,Target,0,16,16,16,3173.109611361011,3175.1099642433837,right,1,1,2.41,0.5151848494133446,R22N06,2022-11-30_10h39.18.374,t1_Paradigm,2021.1.4,60.000461959926454,
T,left,Distractor,0,17,17,17,3176.6092976164946,3178.6106074517156,left,1,1,2.41,0.4225208248826675,R22N06,2022-11-30_10h39.18.374,t1_Paradigm,2021.1.4,60.000461959926454,
M,left,Distractor,0,18,18,18,3180.1095985289285,3182.110488113307,left,1,1,2.41,0.8906844185694354,R22N06,2022-11-30_10h39.18.374,t1_Paradigm,2021.1.4,60.000461959926454,
R,left,Lure,0,19,19,19,3183.6092931252642,3185.6111531361967,left,1,1,2.41,0.622012289284612,R22N06,2022-11-30_10h39.18.374,t1_Paradigm,2021.1.4,60.000461959926454,
J,left,Distractor,0,20,20,20,3187.1093146190105,3189.1096719926136,left,1,1,2.41,0.49971673170512076,R22N06,2022-11-30_10h39.18.374,t1_Paradigm,2021.1.4,60.000461959926454,
K,left,Distractor,0,21,21,21,3190.6096203434718,3192.6091256665386,left,1,1,2.41,0.48788201923889574,R22N06,2022-11-30_10h39.18.374,t1_Paradigm,2021.1.4,60.000461959926454,
Z,left,Distractor,0,22,22,22,3194.109614569039,3196.1107383390045,right,0,1,2.41,0.4423553807864664,R22N06,2022-11-30_10h39.18.374,t1_Paradigm,2021.1.4,60.000461959926454,
W,left,Pretarget,0,23,23,23,3197.6096732758306,3199.6095757519797,left,1,1,2.41,0.4316624032071559,R22N06,2022-11-30_10h39.18.374,t1_Paradigm,2021.1.4,60.000461959926454,
Q,left,Distractor,0,24,24,24,3201.109633496366,3203.111275361807,left,1,1,2.41,0.46579896098410245,R22N06,2022-11-30_10h39.18.374,t1_Paradigm,2021.1.4,60.000461959926454,
W,right,Target,0,25,25,25,3204.609549767003,3206.6116029008117,right,1,1,2.41,0.5174160284223035,R22N06,2022-11-30_10h39.18.374,t1_Paradigm,2021.1.4,60.000461959926454,
D,left,Pretarget,0,26,26,26,3208.1095933960896,3210.109983491522,left,1,1,2.41,0.3792442927660886,R22N06,2022-11-30_10h39.18.374,t1_Paradigm,2021.1.4,60.000461959926454,
W,right,Target,0,27,27,27,3211.6094458270964,3213.609425937364,right,1,1,2.41,0.4477801453031134,R22N06,2022-11-30_10h39.18.374,t1_Paradigm,2021.1.4,60.000461959926454,
D,right,Target,0,28,28,28,3215.109267140302,3217.111064273995,right,1,1,2.41,0.6099610353703611,R22N06,2022-11-30_10h39.18.374,t1_Paradigm,2021.1.4,60.000461959926454,
L,left,Pretarget,0,29,29,29,3218.609631892352,3220.6106517224107,left,1,1,2.41,0.47038001581677236,R22N06,2022-11-30_10h39.18.374,t1_Paradigm,2021.1.4,60.000461959926454,
P,left,Distractor,0,30,30,30,3222.1095783183846,3224.110709466797,left,1,1,2.41,0.4264657290332252,R22N06,2022-11-30_10h39.18.374,t1_Paradigm,2021.1.4,60.000461959926454,
L,right,Target,0,31,31,31,3225.6092036214686,3227.6096633309644,right,1,1,2.41,0.495642544265138,R22N06,2022-11-30_10h39.18.374,t1_Paradigm,2021.1.4,60.000461959926454,
R,left,Distractor,0,32,32,32,3229.10963413796,3231.1091818069253,left,1,1,2.41,0.4838331751670921,R22N06,2022-11-30_10h39.18.374,t1_Paradigm,2021.1.4,60.000461959926454,
V,left,Distractor,0,33,33,33,3232.609678087858,3234.6113481838984,left,1,1,2.41,0.5016636799991829,R22N06,2022-11-30_10h39.18.374,t1_Paradigm,2021.1.4,60.000461959926454,
L,left,Lure,0,34,34,34,3236.109385516291,3238.110035140664,left,1,1,2.41,0.4430213660671143,R22N06,2022-11-30_10h39.18.374,t1_Paradigm,2021.1.4,60.000461959926454,
H,left,Distractor,0,35,35,35,3239.6093906491296,3241.609555541436,left,1,1,2.41,0.5114382009924157,R22N06,2022-11-30_10h39.18.374,t1_Paradigm,2021.1.4,60.000461959926454,
K,left,Pretarget,0,36,36,36,3243.1096100778086,3245.111704595096,left,1,1,2.41,0.43327475486148614,R22N06,2022-11-30_10h39.18.374,t1_Paradigm,2021.1.4,60.000461959926454,
F,left,Distractor,0,37,37,37,3246.609359210517,3248.6100646544655,left,1,1,2.41,0.5509116234898102,R22N06,2022-11-30_10h39.18.374,t1_Paradigm,2021.1.4,60.000461959926454,
K,right,Target,0,38,38,38,3250.1096460076515,3252.1099639225868,right,1,1,2.41,0.6191382227552822,R22N06,2022-11-30_10h39.18.374,t1_Paradigm,2021.1.4,60.000461959926454,
S,left,Pretarget,0,39,39,39,3253.6095972457115,3255.6093890451157,left,1,1,2.41,0.6876933234016178,R22N06,2022-11-30_10h39.18.374,t1_Paradigm,2021.1.4,60.000461959926454,
W,left,Distractor,0,40,40,40,3257.1096517820843,3259.1103989303083,left,1,1,2.41,0.6268480610306142,R22N06,2022-11-30_10h39.18.374,t1_Paradigm,2021.1.4,60.000461959926454,
S,right,Target,0,41,41,41,3260.6094079724426,3262.6109122137714,right,1,1,2.41,0.43823403543501627,R22N06,2022-11-30_10h39.18.374,t1_Paradigm,2021.1.4,60.000461959926454,
F,left,Pretarget,0,42,42,42,3264.109283180398,3266.1114752215653,left,1,1,2.41,0.4897423509537475,R22N06,2022-11-30_10h39.18.374,t1_Paradigm,2021.1.4,60.000461959926454,
Y,left,Distractor,0,43,43,43,3267.609669105397,3269.611217617421,left,1,1,2.41,0.4460176582360873,R22N06,2022-11-30_10h39.18.374,t1_Paradigm,2021.1.4,60.000461959926454,
F,right,Target,0,44,44,44,3271.109693165563,3273.110149346234,left,0,1,2.41,0.41894003117340617,R22N06,2022-11-30_10h39.18.374,t1_Paradigm,2021.1.4,60.000461959926454,
F,left,Lure,0,45,45,45,3274.609596283306,3276.6096094362,left,1,1,2.41,0.8233509325364139,R22N06,2022-11-30_10h39.18.374,t1_Paradigm,2021.1.4,60.000461959926454,
B,left,Pretarget,0,46,46,46,3278.1095873008453,3280.110269647048,left,1,1,2.41,0.5548462619772181,R22N06,2022-11-30_10h39.18.374,t1_Paradigm,2021.1.4,60.000461959926454,
W,left,Distractor,0,47,47,47,3281.609701506415,3283.6116365850467,left,1,1,2.41,0.46154352033045143,R22N06,2022-11-30_10h39.18.374,t1_Paradigm,2021.1.4,60.000461959926454,
B,right,Target,0,48,48,48,3285.1092071502935,3287.1108188603394,right,1,1,2.41,0.6583049583714455,R22N06,2022-11-30_10h39.18.374,t1_Paradigm,2021.1.4,60.000461959926454,
R,left,Pretarget,0,49,49,49,3288.609345736826,3290.6097400026774,left,1,1,2.41,0.5673296364111593,R22N06,2022-11-30_10h39.18.374,t1_Paradigm,2021.1.4,60.000461959926454,
N,left,Distractor,0,50,50,50,3292.109630609135,3294.1096087945916,left,1,1,2.41,0.42751699770451523,R22N06,2022-11-30_10h39.18.374,t1_Paradigm,2021.1.4,60.000461959926454,
R,right,Target,0,51,51,51,3295.609429466189,3297.610802499432,right,1,1,2.41,0.4786714684450999,R22N06,2022-11-30_10h39.18.374,t1_Paradigm,2021.1.4,60.000461959926454,
V,left,Distractor,0,52,52,52,3299.109477586506,3301.1106241334346,left,1,1,2.41,0.45041489342111163,R22N06,2022-11-30_10h39.18.374,t1_Paradigm,2021.1.4,60.000461959926454,
G,left,Distractor,0,53,53,53,3302.6092992205085,3304.6096309299464,left,1,1,2.41,0.45553874551842455,R22N06,2022-11-30_10h39.18.374,t1_Paradigm,2021.1.4,60.000461959926454,
H,left,Distractor,0,54,54,54,3306.1104444842204,3308.1105888451857,left,1,1,2.41,0.5385023543640273,R22N06,2022-11-30_10h39.18.374,t1_Paradigm,2021.1.4,60.000461959926454,
V,left,Lure,0,55,55,55,3309.6096331755543,3311.6119654072536,left,1,1,2.41,0.44531285589619074,R22N06,2022-11-30_10h39.18.374,t1_Paradigm,2021.1.4,60.000461959926454,
L,left,Distractor,0,56,56,56,3313.1092924836703,3315.110789346538,left,1,1,2.41,0.4823651845072163,R22N06,2022-11-30_10h39.18.374,t1_Paradigm,2021.1.4,60.000461959926454,
K,left,Distractor,0,57,57,57,3316.6096562733146,3318.610286649564,left,1,1,2.41,0.6948513819806976,R22N06,2022-11-30_10h39.18.374,t1_Paradigm,2021.1.4,60.000461959926454,
D,left,Pretarget,0,58,58,58,3320.109322639066,3322.1110177576775,left,1,1,2.41,0.47424022819905076,R22N06,2022-11-30_10h39.18.374,t1_Paradigm,2021.1.4,60.000461959926454,
T,left,Pretarget,0,59,59,59,3323.609711772093,3325.609626759513,left,1,1,2.41,0.4637034812767524,R22N06,2022-11-30_10h39.18.374,t1_Paradigm,2021.1.4,60.000461959926454,
D,right,Target,0,60,60,60,3327.109611681808,3329.1102003537817,right,1,1,2.41,0.45093170570908114,R22N06,2022-11-30_10h39.18.374,t1_Paradigm,2021.1.4,60.000461959926454,
T,right,Target,0,61,61,61,3330.609431391,3332.611224675071,right,1,1,2.41,0.4220014461752726,R22N06,2022-11-30_10h39.18.374,t1_Paradigm,2021.1.4,60.000461959926454,
T,left,Lure,0,62,62,62,3334.109656914923,3336.109718188134,left,1,1,2.41,0.6033724006119883,R22N06,2022-11-30_10h39.18.374,t1_Paradigm,2021.1.4,60.000461959926454,
F,left,Distractor,0,63,63,63,3337.6096161730384,3339.610896173661,left,1,1,2.41,0.47861629046383314,R22N06,2022-11-30_10h39.18.374,t1_Paradigm,2021.1.4,60.000461959926454,
