Letter,CorrAnswer,Stimulus,nback_run.thisRepN,nback_run.thisTrialN,nback_run.thisN,nback_run.thisIndex,fixcross.started,nback_trial.started,trial_resp.keys,trial_resp.corr,currentlevel,trial_resp.rt,Participant,date,expName,psychopyVersion,frameRate,
H,left,Distractor,0,0,0,0,393.25462933555536,395.19329709552403,None,0,1,,R22N06,2022-11-30_10h39.18.374,t1_Paradigm,2021.1.4,60.000461959926454,
Q,left,Pretarget,0,1,1,1,396.6920998618589,398.6927732255863,left,1,1,0.5790844691364327,R22N06,2022-11-30_10h39.18.374,t1_Paradigm,2021.1.4,60.000461959926454,
Q,right,Target,0,2,2,2,400.19204211747274,402.1920835009514,left,0,1,0.5676331152499188,R22N06,2022-11-30_10h39.18.374,t1_Paradigm,2021.1.4,60.000461959926454,
T,left,Distractor,0,3,3,3,403.69188299959933,405.6936098776205,left,1,1,0.9222449350054376,R22N06,2022-11-30_10h39.18.374,t1_Paradigm,2021.1.4,60.000461959926454,
Q,left,Lure,0,4,4,4,407.191691159911,409.1917649444076,None,0,1,,R22N06,2022-11-30_10h39.18.374,t1_Paradigm,2021.1.4,60.000461959926454,
L,left,Distractor,0,5,5,5,410.69163566113275,412.6932457671792,left,1,1,1.0266156719590072,R22N06,2022-11-30_10h39.18.374,t1_Paradigm,2021.1.4,60.000461959926454,
V,left,Pretarget,0,6,6,6,414.1920126036712,416.19400670989126,left,1,1,1.1897920111223357,R22N06,2022-11-30_10h39.18.374,t1_Paradigm,2021.1.4,60.000461959926454,
V,right,Target,0,7,7,7,417.69181787676644,419.6919779570453,right,1,1,0.539925753546413,R22N06,2022-11-30_10h39.18.374,t1_Paradigm,2021.1.4,60.000461959926454,
K,left,Distractor,0,8,8,8,421.1920552703523,423.19394126624684,left,1,1,0.7497826565377181,R22N06,2022-11-30_10h39.18.374,t1_Paradigm,2021.1.4,60.000461959926454,
G,left,Pretarget,0,9,9,9,424.69211686437484,426.6940076722967,left,1,1,0.8658097399311373,R22N06,2022-11-30_10h39.18.374,t1_Paradigm,2021.1.4,60.000461959926454,
G,right,Target,0,10,10,10,428.1921800623968,430.19221246341476,right,1,1,0.5034704377612798,R22N06,2022-11-30_10h39.18.374,t1_Paradigm,2021.1.4,60.000461959926454,
G,right,Target,0,11,11,11,431.6917902877758,433.69205045832496,right,1,1,0.5398060943407472,R22N06,2022-11-30_10h39.18.374,t1_Paradigm,2021.1.4,60.000461959926454,
P,left,Pretarget,0,12,12,12,435.1919680121646,437.19388159704977,left,1,1,0.5739439353201305,R22N06,2022-11-30_10h39.18.374,t1_Paradigm,2021.1.4,60.000461959926454,
P,right,Target,0,13,13,13,438.6921399621351,440.6920835009514,right,1,1,0.9799694339599228,R22N06,2022-11-30_10h39.18.374,t1_Paradigm,2021.1.4,60.000461959926454,
G,left,Lure,0,14,14,14,442.1917723228544,444.19269719548174,left,1,1,0.5349882875161711,R22N06,2022-11-30_10h39.18.374,t1_Paradigm,2021.1.4,60.000461959926454,
Y,left,Distractor,0,15,15,15,445.69129336523474,447.693889937902,left,1,1,0.5059303487214493,R22N06,2022-11-30_10h39.18.374,t1_Paradigm,2021.1.4,60.000461959926454,
B,left,Distractor,0,16,16,16,449.1921021074668,451.19363233377226,left,1,1,0.7024839069636073,R22N06,2022-11-30_10h39.18.374,t1_Paradigm,2021.1.4,60.000461959926454,
T,left,Pretarget,0,17,17,17,452.69202254853735,454.6920280021732,left,1,1,0.6917001423717011,R22N06,2022-11-30_10h39.18.374,t1_Paradigm,2021.1.4,60.000461959926454,
T,right,Target,0,18,18,18,456.19201067886024,458.1921367541072,right,1,1,0.40759807082940824,R22N06,2022-11-30_10h39.18.374,t1_Paradigm,2021.1.4,60.000461959926454,
S,left,Distractor,0,19,19,19,459.69168891428853,461.6913103677507,left,1,1,0.540531107224524,R22N06,2022-11-30_10h39.18.374,t1_Paradigm,2021.1.4,60.000461959926454,
T,left,Lure,0,20,20,20,463.19211333554995,465.19219481930486,left,1,1,0.735589085801621,R22N06,2022-11-30_10h39.18.374,t1_Paradigm,2021.1.4,60.000461959926454,
J,left,Distractor,0,21,21,21,466.6917806637066,468.6939518527215,left,1,1,0.6577708227850962,R22N06,2022-11-30_10h39.18.374,t1_Paradigm,2021.1.4,60.000461959926454,
P,left,Distractor,0,22,22,22,470.1914252149145,472.19208478415385,left,1,1,0.5997316169086844,R22N06,2022-11-30_10h39.18.374,t1_Paradigm,2021.1.4,60.000461959926454,
F,left,Distractor,0,23,23,23,473.69214124533755,475.69472402351676,left,1,1,0.5531639754626667,R22N06,2022-11-30_10h39.18.374,t1_Paradigm,2021.1.4,60.000461959926454,
L,left,Distractor,0,24,24,24,477.19212295961916,479.19398232892854,left,1,1,0.50979280671163,R22N06,2022-11-30_10h39.18.374,t1_Paradigm,2021.1.4,60.000461959926454,
W,left,Pretarget,0,25,25,25,480.6921415661345,482.6940683039138,left,1,1,0.7217169588111574,R22N06,2022-11-30_10h39.18.374,t1_Paradigm,2021.1.4,60.000461959926454,
W,right,Target,0,26,26,26,484.19204468389216,486.1918566938257,right,1,1,0.9199037208600203,R22N06,2022-11-30_10h39.18.374,t1_Paradigm,2021.1.4,60.000461959926454,
V,left,Distractor,0,27,27,27,487.6921829496132,489.6922493556631,left,1,1,0.5395635679160478,R22N06,2022-11-30_10h39.18.374,t1_Paradigm,2021.1.4,60.000461959926454,
W,left,Lure,0,28,28,28,491.1921457365679,493.19377605314367,left,1,1,0.7339921326492913,R22N06,2022-11-30_10h39.18.374,t1_Paradigm,2021.1.4,60.000461959926454,
R,left,Pretarget,0,29,29,29,494.6920956914255,496.69473300597747,left,1,1,0.7050387753552059,R22N06,2022-11-30_10h39.18.374,t1_Paradigm,2021.1.4,60.000461959926454,
R,right,Target,0,30,30,30,498.19211878918577,500.1917957414116,right,1,1,0.9045016883756034,R22N06,2022-11-30_10h39.18.374,t1_Paradigm,2021.1.4,60.000461959926454,
G,left,Distractor,0,31,31,31,501.6919811650587,503.6927167644171,left,1,1,0.5231750687962631,R22N06,2022-11-30_10h39.18.374,t1_Paradigm,2021.1.4,60.000461959926454,
R,left,Lure,0,32,32,32,505.19165394685115,507.1933471406519,left,1,1,0.5905358230083948,R22N06,2022-11-30_10h39.18.374,t1_Paradigm,2021.1.4,60.000461959926454,
S,left,Distractor,0,33,33,33,508.69215311501466,510.6941122538119,left,1,1,0.705699948608526,R22N06,2022-11-30_10h39.18.374,t1_Paradigm,2021.1.4,60.000461959926454,
R,left,Lure,0,34,34,34,512.192050458325,514.1940500181809,left,1,1,0.6778966670535738,R22N06,2022-11-30_10h39.18.374,t1_Paradigm,2021.1.4,60.000461959926454,
P,left,Pretarget,0,35,35,35,515.6918124231306,517.6930606643291,left,1,1,0.7948216757067712,R22N06,2022-11-30_10h39.18.374,t1_Paradigm,2021.1.4,60.000461959926454,
P,right,Target,0,36,36,36,519.191956784096,521.1921428493515,right,1,1,0.6557988519052742,R22N06,2022-11-30_10h39.18.374,t1_Paradigm,2021.1.4,60.000461959926454,
Y,left,Pretarget,0,37,37,37,522.6921540774201,524.6917598115688,left,1,1,0.43618475124822,R22N06,2022-11-30_10h39.18.374,t1_Paradigm,2021.1.4,60.000461959926454,
Y,right,Target,0,38,38,38,526.1921085235226,528.1921014658728,left,0,1,1.127669956171303,R22N06,2022-11-30_10h39.18.374,t1_Paradigm,2021.1.4,60.000461959926454,
J,left,Distractor,0,39,39,39,529.692067140044,531.6939800833206,left,1,1,0.7459638276341138,R22N06,2022-11-30_10h39.18.374,t1_Paradigm,2021.1.4,60.000461959926454,
Y,left,Lure,0,40,40,40,533.1920530247444,535.1927170852141,left,1,1,1.3270857112802332,R22N06,2022-11-30_10h39.18.374,t1_Paradigm,2021.1.4,60.000461959926454,
T,left,Distractor,0,41,41,41,536.692097616251,538.6930818372639,left,1,1,0.8507179231528426,R22N06,2022-11-30_10h39.18.374,t1_Paradigm,2021.1.4,60.000461959926454,
V,left,Distractor,0,42,42,42,540.1920681024494,542.194015371555,left,1,1,0.7097770232503535,R22N06,2022-11-30_10h39.18.374,t1_Paradigm,2021.1.4,60.000461959926454,
N,left,Pretarget,0,43,43,43,543.6920263981592,545.6944093166094,left,1,1,0.7295037896401482,R22N06,2022-11-30_10h39.18.374,t1_Paradigm,2021.1.4,60.000461959926454,
N,right,Target,0,44,44,44,547.1917890045734,549.1921210348082,right,1,1,0.7196971884259256,R22N06,2022-11-30_10h39.18.374,t1_Paradigm,2021.1.4,60.000461959926454,
N,right,Target,0,45,45,45,550.6921345084993,552.6920953706285,right,1,1,0.8196668405435048,R22N06,2022-11-30_10h39.18.374,t1_Paradigm,2021.1.4,60.000461959926454,
X,left,Distractor,0,46,46,46,554.192051741542,556.1936570355465,left,1,1,0.5822485408280045,R22N06,2022-11-30_10h39.18.374,t1_Paradigm,2021.1.4,60.000461959926454,
Z,left,Distractor,0,47,47,47,557.6921720423416,559.6936599227629,left,1,1,0.6343991022731643,R22N06,2022-11-30_10h39.18.374,t1_Paradigm,2021.1.4,60.000461959926454,
H,left,Pretarget,0,48,48,48,561.1921059571032,563.1920924834121,left,1,1,0.559773141547339,R22N06,2022-11-30_10h39.18.374,t1_Paradigm,2021.1.4,60.000461959926454,
H,right,Target,0,49,49,49,564.691798307831,566.6920992202504,right,1,1,0.4677189619105775,R22N06,2022-11-30_10h39.18.374,t1_Paradigm,2021.1.4,60.000461959926454,
K,left,Distractor,0,50,50,50,568.1921402829321,570.1936846245226,left,1,1,0.614370140247047,R22N06,2022-11-30_10h39.18.374,t1_Paradigm,2021.1.4,60.000461959926454,
V,left,Pretarget,0,51,51,51,571.6921787791944,573.6922936263582,left,1,1,0.6513303986430401,R22N06,2022-11-30_10h39.18.374,t1_Paradigm,2021.1.4,60.000461959926454,
V,right,Target,0,52,52,52,575.1920988994534,577.1918749795441,right,1,1,0.7359522338520037,R22N06,2022-11-30_10h39.18.374,t1_Paradigm,2021.1.4,60.000461959926454,
R,left,Distractor,0,53,53,53,578.6918236511992,580.6912420368899,left,1,1,0.6285040417860728,R22N06,2022-11-30_10h39.18.374,t1_Paradigm,2021.1.4,60.000461959926454,
V,left,Lure,0,54,54,54,582.1916404731601,584.1937705995078,left,1,1,0.6143707818555413,R22N06,2022-11-30_10h39.18.374,t1_Paradigm,2021.1.4,60.000461959926454,
Y,left,Distractor,0,55,55,55,585.6920328142005,587.693171661871,left,1,1,0.8106269564887043,R22N06,2022-11-30_10h39.18.374,t1_Paradigm,2021.1.4,60.000461959926454,
Q,left,Distractor,0,56,56,56,589.1918499569729,591.1928486140969,left,1,1,0.6390597160352627,R22N06,2022-11-30_10h39.18.374,t1_Paradigm,2021.1.4,60.000461959926454,
Z,left,Pretarget,0,57,57,57,592.6920280021732,594.6939688552375,left,1,1,0.5301682350691408,R22N06,2022-11-30_10h39.18.374,t1_Paradigm,2021.1.4,60.000461959926454,
Z,right,Target,0,58,58,58,596.1917838717345,598.1922669997875,right,1,1,0.7115481719665695,R22N06,2022-11-30_10h39.18.374,t1_Paradigm,2021.1.4,60.000461959926454,
B,left,Distractor,0,59,59,59,599.6921178267803,601.6932492959895,left,1,1,0.5705418284196639,R22N06,2022-11-30_10h39.18.374,t1_Paradigm,2021.1.4,60.000461959926454,
S,left,Pretarget,0,60,60,60,603.191800232642,605.1931267495675,left,1,1,0.6068104373553069,R22N06,2022-11-30_10h39.18.374,t1_Paradigm,2021.1.4,60.000461959926454,
S,right,Target,0,61,61,61,606.6921178267803,608.6921816664108,right,1,1,0.7076289319957141,R22N06,2022-11-30_10h39.18.374,t1_Paradigm,2021.1.4,60.000461959926454,
T,left,Distractor,0,62,62,62,610.1921155811579,612.1917906085728,left,1,1,0.7761609348963248,R22N06,2022-11-30_10h39.18.374,t1_Paradigm,2021.1.4,60.000461959926454,
D,left,Distractor,0,63,63,63,613.6922516012855,615.6945475823304,left,1,1,0.7135236716712825,R22N06,2022-11-30_10h39.18.374,t1_Paradigm,2021.1.4,60.000461959926454,
R,left,Distractor,0,0,0,0,632.7315758507757,634.7250241082802,None,0,1,,R22N06,2022-11-30_10h39.18.374,t1_Paradigm,2021.1.4,60.000461959926454,
V,left,Distractor,0,1,1,1,636.2250860230997,638.2260176325653,None,0,1,,R22N06,2022-11-30_10h39.18.374,t1_Paradigm,2021.1.4,60.000461959926454,
N,left,Pretarget,0,2,2,2,639.7254158077121,641.7255993065482,left,1,1,0.5861533447168767,R22N06,2022-11-30_10h39.18.374,t1_Paradigm,2021.1.4,60.000461959926454,
N,right,Target,0,3,3,3,643.2255576022726,645.2254802889511,right,1,1,1.454395085820579,R22N06,2022-11-30_10h39.18.374,t1_Paradigm,2021.1.4,60.000461959926454,
S,left,Distractor,0,4,4,4,646.7254302438087,648.7273698136705,left,1,1,0.5125892391370144,R22N06,2022-11-30_10h39.18.374,t1_Paradigm,2021.1.4,60.000461959926454,
N,left,Lure,0,5,5,5,650.2254238277674,652.2263589660579,left,1,1,0.6456220450199908,R22N06,2022-11-30_10h39.18.374,t1_Paradigm,2021.1.4,60.000461959926454,
Z,left,Distractor,0,6,6,6,653.724922413996,655.7256971512106,left,1,1,0.6179265529935947,R22N06,2022-11-30_10h39.18.374,t1_Paradigm,2021.1.4,60.000461959926454,
L,left,Pretarget,0,7,7,7,657.2252120983467,659.226091737859,left,1,1,0.6857768513000337,R22N06,2022-11-30_10h39.18.374,t1_Paradigm,2021.1.4,60.000461959926454,
L,right,Target,0,8,8,8,660.7254674568685,662.7256355571881,right,1,1,0.6422619631921407,R22N06,2022-11-30_10h39.18.374,t1_Paradigm,2021.1.4,60.000461959926454,
H,left,Distractor,0,9,9,9,664.2254565495823,666.2254199781455,left,1,1,0.806460698848241,R22N06,2022-11-30_10h39.18.374,t1_Paradigm,2021.1.4,60.000461959926454,
L,left,Lure,0,10,10,10,667.7254299230117,669.7265475977329,left,1,1,0.48943245605914854,R22N06,2022-11-30_10h39.18.374,t1_Paradigm,2021.1.4,60.000461959926454,
X,left,Pretarget,0,11,11,11,671.2254494919471,673.2262091514567,left,1,1,0.5417074887518538,R22N06,2022-11-30_10h39.18.374,t1_Paradigm,2021.1.4,60.000461959926454,
X,right,Target,0,12,12,12,674.7254536623659,676.7254905546142,right,1,1,0.6584159559424734,R22N06,2022-11-30_10h39.18.374,t1_Paradigm,2021.1.4,60.000461959926454,
X,right,Target,0,13,13,13,678.2254565495823,680.2254870257893,right,1,1,0.5825994983897544,R22N06,2022-11-30_10h39.18.374,t1_Paradigm,2021.1.4,60.000461959926454,
R,left,Distractor,0,14,14,14,681.7254713064904,683.727137552909,left,1,1,0.5207565413147677,R22N06,2022-11-30_10h39.18.374,t1_Paradigm,2021.1.4,60.000461959926454,
T,left,Distractor,0,15,15,15,685.2254879881948,687.2257340434589,left,1,1,0.6221425349649508,R22N06,2022-11-30_10h39.18.374,t1_Paradigm,2021.1.4,60.000461959926454,
V,left,Pretarget,0,16,16,16,688.725390464344,690.7257420635142,left,1,1,0.4824822772789048,R22N06,2022-11-30_10h39.18.374,t1_Paradigm,2021.1.4,60.000461959926454,
V,right,Target,0,17,17,17,692.2254443591082,694.2254700232734,right,1,1,0.6783406572358217,R22N06,2022-11-30_10h39.18.374,t1_Paradigm,2021.1.4,60.000461959926454,
N,left,Distractor,0,18,18,18,695.7252521986084,697.7253609505424,left,1,1,0.5384183042042423,R22N06,2022-11-30_10h39.18.374,t1_Paradigm,2021.1.4,60.000461959926454,
B,left,Distractor,0,19,19,19,699.2254591160017,701.2255739631801,left,1,1,0.47818898198602255,R22N06,2022-11-30_10h39.18.374,t1_Paradigm,2021.1.4,60.000461959926454,
V,left,Lure,0,20,20,20,702.7253811610863,704.7269874174963,left,1,1,0.6569113938021474,R22N06,2022-11-30_10h39.18.374,t1_Paradigm,2021.1.4,60.000461959926454,
P,left,Distractor,0,21,21,21,706.2255197476188,708.2262547053688,left,1,1,0.7257587452186272,R22N06,2022-11-30_10h39.18.374,t1_Paradigm,2021.1.4,60.000461959926454,
K,left,Pretarget,0,22,22,22,709.7253218126862,711.7262595173961,left,1,1,0.6654999092133949,R22N06,2022-11-30_10h39.18.374,t1_Paradigm,2021.1.4,60.000461959926454,
K,right,Target,0,23,23,23,713.2252043990884,715.2254956874531,right,1,1,0.7344011554087047,R22N06,2022-11-30_10h39.18.374,t1_Paradigm,2021.1.4,60.000461959926454,
J,left,Pretarget,0,24,24,24,716.7255162187939,718.7267259637301,left,1,1,0.6731587399699492,R22N06,2022-11-30_10h39.18.374,t1_Paradigm,2021.1.4,60.000461959926454,
J,right,Target,0,25,25,25,720.2248463838769,722.2255919281015,left,0,1,0.7903968515165616,R22N06,2022-11-30_10h39.18.374,t1_Paradigm,2021.1.4,60.000461959926454,
H,left,Distractor,0,26,26,26,723.7255088403472,725.725623366714,left,1,1,0.7144260881468654,R22N06,2022-11-30_10h39.18.374,t1_Paradigm,2021.1.4,60.000461959926454,
J,left,Lure,0,27,27,27,727.2252464241756,729.2255948153179,None,0,1,,R22N06,2022-11-30_10h39.18.374,t1_Paradigm,2021.1.4,60.000461959926454,
V,left,Distractor,0,28,28,28,730.7255540734477,732.7270470866933,left,1,1,1.0409699645679211,R22N06,2022-11-30_10h39.18.374,t1_Paradigm,2021.1.4,60.000461959926454,
Z,left,Pretarget,0,29,29,29,734.2254626448266,736.2254847801814,left,1,1,1.0305596137040993,R22N06,2022-11-30_10h39.18.374,t1_Paradigm,2021.1.4,60.000461959926454,
Z,right,Target,0,30,30,30,737.7255592062866,739.7255078779417,right,1,1,0.5063923038396752,R22N06,2022-11-30_10h39.18.374,t1_Paradigm,2021.1.4,60.000461959926454,
T,left,Distractor,0,31,31,31,741.2255874368711,743.2254504543525,left,1,1,0.6224485802231357,R22N06,2022-11-30_10h39.18.374,t1_Paradigm,2021.1.4,60.000461959926454,
Z,left,Lure,0,32,32,32,744.7252727299492,746.7255797376129,left,1,1,1.1063398205878912,R22N06,2022-11-30_10h39.18.374,t1_Paradigm,2021.1.4,60.000461959926454,
F,left,Distractor,0,33,33,33,748.2250048601418,750.2270191769057,left,1,1,0.7090090228884947,R22N06,2022-11-30_10h39.18.374,t1_Paradigm,2021.1.4,60.000461959926454,
Y,left,Pretarget,0,34,34,34,751.725511406752,753.7257212113764,left,1,1,0.9701522463001311,R22N06,2022-11-30_10h39.18.374,t1_Paradigm,2021.1.4,60.000461959926454,
Y,right,Target,0,35,35,35,755.2252637474885,757.2250969303714,None,0,1,,R22N06,2022-11-30_10h39.18.374,t1_Paradigm,2021.1.4,60.000461959926454,
Y,right,Target,0,36,36,36,758.7255441285815,760.7252637474885,right,1,1,1.394647287655971,R22N06,2022-11-30_10h39.18.374,t1_Paradigm,2021.1.4,60.000461959926454,
W,left,Distractor,0,37,37,37,762.2254799681541,764.2257215321733,left,1,1,0.6304019073577365,R22N06,2022-11-30_10h39.18.374,t1_Paradigm,2021.1.4,60.000461959926454,
Q,left,Distractor,0,38,38,38,765.7255207100243,767.7269296731101,left,1,1,0.5850446524418658,R22N06,2022-11-30_10h39.18.374,t1_Paradigm,2021.1.4,60.000461959926454,
P,left,Pretarget,0,39,39,39,769.2252672763134,771.2266993371595,left,1,1,0.4931919365626527,R22N06,2022-11-30_10h39.18.374,t1_Paradigm,2021.1.4,60.000461959926454,
P,right,Target,0,40,40,40,772.7251966998447,774.7251906046004,right,1,1,0.6587380412966013,R22N06,2022-11-30_10h39.18.374,t1_Paradigm,2021.1.4,60.000461959926454,
J,left,Distractor,0,41,41,41,776.2255040283053,778.2265350864473,left,1,1,0.46980866717058234,R22N06,2022-11-30_10h39.18.374,t1_Paradigm,2021.1.4,60.000461959926454,
P,left,Lure,0,42,42,42,779.7255098027526,781.7265498433553,left,1,1,0.4414718916377751,R22N06,2022-11-30_10h39.18.374,t1_Paradigm,2021.1.4,60.000461959926454,
L,left,Distractor,0,43,43,43,783.2254915170197,785.2269508460449,left,1,1,0.5411611626623198,R22N06,2022-11-30_10h39.18.374,t1_Paradigm,2021.1.4,60.000461959926454,
Z,left,Distractor,0,44,44,44,786.7255585646781,788.7261568607064,left,1,1,0.5138891294918722,R22N06,2022-11-30_10h39.18.374,t1_Paradigm,2021.1.4,60.000461959926454,
F,left,Pretarget,0,45,45,45,790.2254757977207,792.2263843094406,left,1,1,0.48557031888049096,R22N06,2022-11-30_10h39.18.374,t1_Paradigm,2021.1.4,60.000461959926454,
F,right,Target,0,46,46,46,793.7252403289312,795.725357742529,right,1,1,0.6504549295495963,R22N06,2022-11-30_10h39.18.374,t1_Paradigm,2021.1.4,60.000461959926454,
G,left,Pretarget,0,47,47,47,797.2255056323193,799.2271083599044,left,1,1,0.5888788798620226,R22N06,2022-11-30_10h39.18.374,t1_Paradigm,2021.1.4,60.000461959926454,
G,right,Target,0,48,48,48,800.7255819832353,802.725497612264,right,1,1,0.6103132761345478,R22N06,2022-11-30_10h39.18.374,t1_Paradigm,2021.1.4,60.000461959926454,
V,left,Distractor,0,49,49,49,804.2255062739277,806.225499216278,left,1,1,0.4544499430048745,R22N06,2022-11-30_10h39.18.374,t1_Paradigm,2021.1.4,60.000461959926454,
G,left,Lure,0,50,50,50,807.7255810208298,809.7264872869273,left,1,1,0.6331839036865858,R22N06,2022-11-30_10h39.18.374,t1_Paradigm,2021.1.4,60.000461959926454,
Q,left,Pretarget,0,51,51,51,811.2252752963686,813.2272325103404,left,1,1,0.5887858472415246,R22N06,2022-11-30_10h39.18.374,t1_Paradigm,2021.1.4,60.000461959926454,
Q,right,Target,0,52,52,52,814.7255492614204,816.7255576022726,right,1,1,0.8342745668633142,R22N06,2022-11-30_10h39.18.374,t1_Paradigm,2021.1.4,60.000461959926454,
Y,left,Distractor,0,53,53,53,818.2255274468625,820.226574545115,left,1,1,0.7894668460648973,R22N06,2022-11-30_10h39.18.374,t1_Paradigm,2021.1.4,60.000461959926454,
V,left,Distractor,0,54,54,54,821.7256564093404,823.7252300632681,left,1,1,0.5706322946498403,R22N06,2022-11-30_10h39.18.374,t1_Paradigm,2021.1.4,60.000461959926454,
B,left,Distractor,0,55,55,55,825.2251469754992,827.2259621337871,left,1,1,0.5421226067264797,R22N06,2022-11-30_10h39.18.374,t1_Paradigm,2021.1.4,60.000461959926454,
J,left,Pretarget,0,56,56,56,828.7254754769237,830.7258607603144,left,1,1,0.5781101929751458,R22N06,2022-11-30_10h39.18.374,t1_Paradigm,2021.1.4,60.000461959926454,
J,right,Target,0,57,57,57,832.2252990357229,834.2255572814611,right,1,1,0.662473461648915,R22N06,2022-11-30_10h39.18.374,t1_Paradigm,2021.1.4,60.000461959926454,
H,left,Distractor,0,58,58,58,835.7255521486368,837.7439729294274,left,1,1,0.44002186588477343,R22N06,2022-11-30_10h39.18.374,t1_Paradigm,2021.1.4,60.000461959926454,
J,left,Lure,0,59,59,59,839.2252435369592,841.2267535527208,left,1,1,0.5892580680083483,R22N06,2022-11-30_10h39.18.374,t1_Paradigm,2021.1.4,60.000461959926454,
D,left,Pretarget,0,60,60,60,842.725294865304,844.7250873063022,left,1,1,0.5787764990527648,R22N06,2022-11-30_10h39.18.374,t1_Paradigm,2021.1.4,60.000461959926454,
D,right,Target,0,61,61,61,846.2252332712815,848.2255572814611,right,1,1,0.9183767025824636,R22N06,2022-11-30_10h39.18.374,t1_Paradigm,2021.1.4,60.000461959926454,
R,left,Distractor,0,62,62,62,849.725499216278,851.7273335630307,left,1,1,0.5365521980274934,R22N06,2022-11-30_10h39.18.374,t1_Paradigm,2021.1.4,60.000461959926454,
F,left,Distractor,0,63,63,63,853.2254915170197,855.2264442994347,left,1,1,0.6216314971243264,R22N06,2022-11-30_10h39.18.374,t1_Paradigm,2021.1.4,60.000461959926454,
F,left,Distractor,0,0,0,0,986.357297254639,988.3590542880556,None,0,2,,R22N06,2022-11-30_10h39.18.374,t1_Paradigm,2021.1.4,60.000461959926454,
N,left,Pretarget,0,1,1,1,989.8585233604826,991.8593449348118,None,0,2,,R22N06,2022-11-30_10h39.18.374,t1_Paradigm,2021.1.4,60.000461959926454,
V,left,Distractor,0,2,2,2,993.3579497662286,995.3605088050535,left,1,2,0.6636350862536347,R22N06,2022-11-30_10h39.18.374,t1_Paradigm,2021.1.4,60.000461959926454,
N,right,Target,0,3,3,3,996.8589153807261,998.8606323138811,right,1,2,0.8274713154678466,R22N06,2022-11-30_10h39.18.374,t1_Paradigm,2021.1.4,60.000461959926454,
N,left,Lure,0,4,4,4,1000.3586475109187,1002.3589262879977,left,1,2,0.8493083184584975,R22N06,2022-11-30_10h39.18.374,t1_Paradigm,2021.1.4,60.000461959926454,
X,left,Distractor,0,5,5,5,1003.8583215759281,1005.8587046137109,None,0,2,,R22N06,2022-11-30_10h39.18.374,t1_Paradigm,2021.1.4,60.000461959926454,
G,left,Pretarget,0,6,6,6,1007.3587553004472,1009.3589294960257,left,1,2,0.8411692468798719,R22N06,2022-11-30_10h39.18.374,t1_Paradigm,2021.1.4,60.000461959926454,
H,left,Pretarget,0,7,7,7,1010.8589365536754,1012.8586962728587,left,1,2,0.6852526605653111,R22N06,2022-11-30_10h39.18.374,t1_Paradigm,2021.1.4,60.000461959926454,
G,right,Target,0,8,8,8,1014.3586949896417,1016.360524845164,right,1,2,1.00742913641443,R22N06,2022-11-30_10h39.18.374,t1_Paradigm,2021.1.4,60.000461959926454,
H,right,Target,0,9,9,9,1017.8589160223346,1019.8593381979736,right,1,2,0.8686822024756111,R22N06,2022-11-30_10h39.18.374,t1_Paradigm,2021.1.4,60.000461959926454,
T,left,Pretarget,0,10,10,10,1021.3589859572094,1023.3591322429857,left,1,2,1.2569631712685805,R22N06,2022-11-30_10h39.18.374,t1_Paradigm,2021.1.4,60.000461959926454,
K,left,Distractor,0,11,11,11,1024.8586657966516,1026.8596493760706,left,1,2,0.8443118248396786,R22N06,2022-11-30_10h39.18.374,t1_Paradigm,2021.1.4,60.000461959926454,
T,right,Target,0,12,12,12,1028.3581194705766,1030.359464914829,right,1,2,0.7045739330351353,R22N06,2022-11-30_10h39.18.374,t1_Paradigm,2021.1.4,60.000461959926454,
T,left,Lure,0,13,13,13,1031.8589891652227,1033.8585778968554,left,1,2,0.78954704660282,R22N06,2022-11-30_10h39.18.374,t1_Paradigm,2021.1.4,60.000461959926454,
J,left,Distractor,0,14,14,14,1035.3588977366016,1037.3589217967674,left,1,2,0.8892379216413246,R22N06,2022-11-30_10h39.18.374,t1_Paradigm,2021.1.4,60.000461959926454,
Q,left,Pretarget,0,15,15,15,1038.8586465485132,1040.8595518522052,left,1,2,0.7965995612757979,R22N06,2022-11-30_10h39.18.374,t1_Paradigm,2021.1.4,60.000461959926454,
M,left,Distractor,0,16,16,16,1042.3587078217242,1044.3606714517518,left,1,2,1.2795316031842958,R22N06,2022-11-30_10h39.18.374,t1_Paradigm,2021.1.4,60.000461959926454,
Q,right,Target,0,17,17,17,1045.858965105057,1047.8601790204266,right,1,2,1.1399602076999145,R22N06,2022-11-30_10h39.18.374,t1_Paradigm,2021.1.4,60.000461959926454,
R,left,Distractor,0,18,18,18,1049.358932704039,1051.360838589666,left,1,2,0.5833084711630363,R22N06,2022-11-30_10h39.18.374,t1_Paradigm,2021.1.4,60.000461959926454,
W,left,Distractor,0,19,19,19,1052.858777435802,1054.8607962437818,left,1,2,0.5872601121664047,R22N06,2022-11-30_10h39.18.374,t1_Paradigm,2021.1.4,60.000461959926454,
C,left,Pretarget,0,20,20,20,1056.3586972352641,1058.3603063788905,left,1,2,0.8156513599242317,R22N06,2022-11-30_10h39.18.374,t1_Paradigm,2021.1.4,60.000461959926454,
T,left,Distractor,0,21,21,21,1059.8587578668667,1061.8588640523813,left,1,2,0.6292662677151384,R22N06,2022-11-30_10h39.18.374,t1_Paradigm,2021.1.4,60.000461959926454,
C,right,Target,0,22,22,22,1063.3590116213745,1065.3609271310706,right,1,2,0.647631870539044,R22N06,2022-11-30_10h39.18.374,t1_Paradigm,2021.1.4,60.000461959926454,
F,left,Pretarget,0,23,23,23,1066.858901586238,1068.859012262983,left,1,2,0.6690024271956645,R22N06,2022-11-30_10h39.18.374,t1_Paradigm,2021.1.4,60.000461959926454,
C,right,Target,0,24,24,24,1070.3586273003893,1072.3599666493974,right,1,2,0.9284441159397829,R22N06,2022-11-30_10h39.18.374,t1_Paradigm,2021.1.4,60.000461959926454,
F,right,Target,0,25,25,25,1073.858764282908,1075.8595630802884,left,0,2,0.7565887951495824,R22N06,2022-11-30_10h39.18.374,t1_Paradigm,2021.1.4,60.000461959926454,
H,left,Distractor,0,26,26,26,1077.3589070398739,1079.3586760623148,left,1,2,1.0332655799138593,R22N06,2022-11-30_10h39.18.374,t1_Paradigm,2021.1.4,60.000461959926454,
H,left,Lure,0,27,27,27,1080.8584893554653,1082.8587309194845,left,1,2,0.9253644152049674,R22N06,2022-11-30_10h39.18.374,t1_Paradigm,2021.1.4,60.000461959926454,
P,left,Distractor,0,28,28,28,1084.3587495260144,1086.3590469096089,left,1,2,0.9609757005237043,R22N06,2022-11-30_10h39.18.374,t1_Paradigm,2021.1.4,60.000461959926454,
G,left,Pretarget,0,29,29,29,1087.859000393306,1089.8596496968676,left,1,2,0.9324762782925973,R22N06,2022-11-30_10h39.18.374,t1_Paradigm,2021.1.4,60.000461959926454,
K,left,Distractor,0,30,30,30,1091.3587305986875,1093.3598149099853,left,1,2,0.6485609135997947,R22N06,2022-11-30_10h39.18.374,t1_Paradigm,2021.1.4,60.000461959926454,
G,right,Target,0,31,31,31,1094.8584588792583,1096.8609242438542,right,1,2,0.5550490089372033,R22N06,2022-11-30_10h39.18.374,t1_Paradigm,2021.1.4,60.000461959926454,
M,left,Pretarget,0,32,32,32,1098.3588788092748,1100.3584239118209,left,1,2,0.6415613312710775,R22N06,2022-11-30_10h39.18.374,t1_Paradigm,2021.1.4,60.000461959926454,
B,left,Distractor,0,33,33,33,1101.8585047539673,1103.8587649245164,left,1,2,0.5011061258410336,R22N06,2022-11-30_10h39.18.374,t1_Paradigm,2021.1.4,60.000461959926454,
M,right,Target,0,34,34,34,1105.3590064885357,1107.3589776163426,right,1,2,0.7449869850534014,R22N06,2022-11-30_10h39.18.374,t1_Paradigm,2021.1.4,60.000461959926454,
M,left,Lure,0,35,35,35,1108.858573405625,1110.8590879722906,left,1,2,0.7493171726091532,R22N06,2022-11-30_10h39.18.374,t1_Paradigm,2021.1.4,60.000461959926454,
T,left,Distractor,0,36,36,36,1112.3588095160085,1114.3587514508254,left,1,2,0.4331502836284926,R22N06,2022-11-30_10h39.18.374,t1_Paradigm,2021.1.4,60.000461959926454,
F,left,Distractor,0,37,37,37,1115.8589115311042,1117.8592833408038,left,1,2,0.5005825767293572,R22N06,2022-11-30_10h39.18.374,t1_Paradigm,2021.1.4,60.000461959926454,
X,left,Distractor,0,38,38,38,1119.358842558635,1121.359310288186,left,1,2,0.568711652114871,R22N06,2022-11-30_10h39.18.374,t1_Paradigm,2021.1.4,60.000461959926454,
C,left,Distractor,0,39,39,39,1122.8589099270903,1124.859279491182,left,1,2,0.7167576782376273,R22N06,2022-11-30_10h39.18.374,t1_Paradigm,2021.1.4,60.000461959926454,
R,left,Distractor,0,40,40,40,1126.3587864182628,1128.3609457376006,left,1,2,0.6071934751380468,R22N06,2022-11-30_10h39.18.374,t1_Paradigm,2021.1.4,60.000461959926454,
B,left,Pretarget,0,41,41,41,1129.8591068996175,1131.8588630899758,left,1,2,0.8053648386703571,R22N06,2022-11-30_10h39.18.374,t1_Paradigm,2021.1.4,60.000461959926454,
H,left,Distractor,0,42,42,42,1133.3587155209825,1135.3584595208522,left,1,2,0.9701833641011035,R22N06,2022-11-30_10h39.18.374,t1_Paradigm,2021.1.4,60.000461959926454,
B,right,Target,0,43,43,43,1136.858073275056,1138.859571741952,right,1,2,0.6524570558103733,R22N06,2022-11-30_10h39.18.374,t1_Paradigm,2021.1.4,60.000461959926454,
W,left,Pretarget,0,44,44,44,1140.3585207940778,1142.3600988198887,left,1,2,0.8801149498176528,R22N06,2022-11-30_10h39.18.374,t1_Paradigm,2021.1.4,60.000461959926454,
L,left,Pretarget,0,45,45,45,1143.8588348593912,1145.8606560532498,left,1,2,0.9956592259841273,R22N06,2022-11-30_10h39.18.374,t1_Paradigm,2021.1.4,60.000461959926454,
W,right,Target,0,46,46,46,1147.3590417767846,1149.3609685145493,right,1,2,1.3351185973442625,R22N06,2022-11-30_10h39.18.374,t1_Paradigm,2021.1.4,60.000461959926454,
L,right,Target,0,47,47,47,1150.8588634107728,1152.8585284933215,right,1,2,0.8615257479104912,R22N06,2022-11-30_10h39.18.374,t1_Paradigm,2021.1.4,60.000461959926454,
W,right,Target,0,48,48,48,1154.3586699670705,1156.3586170347262,right,1,2,0.8335918998636771,R22N06,2022-11-30_10h39.18.374,t1_Paradigm,2021.1.4,60.000461959926454,
X,left,Distractor,0,49,49,49,1157.8590026389138,1159.8607574267226,left,1,2,0.6755159942258615,R22N06,2022-11-30_10h39.18.374,t1_Paradigm,2021.1.4,60.000461959926454,
R,left,Distractor,0,50,50,50,1161.3589638218546,1163.360200193376,left,1,2,1.3997913502826123,R22N06,2022-11-30_10h39.18.374,t1_Paradigm,2021.1.4,60.000461959926454,
V,left,Pretarget,0,51,51,51,1164.8586949896417,1166.860697115917,left,1,2,1.195593397380435,R22N06,2022-11-30_10h39.18.374,t1_Paradigm,2021.1.4,60.000461959926454,
Z,left,Distractor,0,52,52,52,1168.3589144183206,1170.3594418170687,left,1,2,0.8165727037121542,R22N06,2022-11-30_10h39.18.374,t1_Paradigm,2021.1.4,60.000461959926454,
V,right,Target,0,53,53,53,1171.858997185278,1173.8599085842143,right,1,2,1.0284262793429662,R22N06,2022-11-30_10h39.18.374,t1_Paradigm,2021.1.4,60.000461959926454,
V,left,Lure,0,54,54,54,1175.3586741375038,1177.3586526437575,left,1,2,1.0173390359123005,R22N06,2022-11-30_10h39.18.374,t1_Paradigm,2021.1.4,60.000461959926454,
N,left,Distractor,0,55,55,55,1178.8589843531954,1180.8584855058289,left,1,2,0.7657926091051195,R22N06,2022-11-30_10h39.18.374,t1_Paradigm,2021.1.4,60.000461959926454,
B,left,Distractor,0,56,56,56,1182.3589734459238,1184.360569436656,left,1,2,1.2155027001863346,R22N06,2022-11-30_10h39.18.374,t1_Paradigm,2021.1.4,60.000461959926454,
V,left,Lure,0,57,57,57,1185.8587498468114,1187.8752788572747,right,0,2,0.996957191513502,R22N06,2022-11-30_10h39.18.374,t1_Paradigm,2021.1.4,60.000461959926454,
J,left,Distractor,0,58,58,58,1189.3585329845519,1191.3592653758824,left,1,2,1.0649714197352296,R22N06,2022-11-30_10h39.18.374,t1_Paradigm,2021.1.4,60.000461959926454,
H,left,Distractor,0,59,59,59,1192.858792513507,1194.859591310873,None,0,2,,R22N06,2022-11-30_10h39.18.374,t1_Paradigm,2021.1.4,60.000461959926454,
X,left,Pretarget,0,60,60,60,1196.3591136364557,1198.360618198596,left,1,2,1.4555194973945618,R22N06,2022-11-30_10h39.18.374,t1_Paradigm,2021.1.4,60.000461959926454,
P,left,Distractor,0,61,61,61,1199.8587190498074,1201.8598136267683,left,1,2,0.8043103619711474,R22N06,2022-11-30_10h39.18.374,t1_Paradigm,2021.1.4,60.000461959926454,
X,right,Target,0,62,62,62,1203.359044664001,1205.3595534562191,right,1,2,0.79263444658136,R22N06,2022-11-30_10h39.18.374,t1_Paradigm,2021.1.4,60.000461959926454,
Q,left,Distractor,0,63,63,63,1206.8585345885658,1208.8597504287463,left,1,2,0.7804683454887709,R22N06,2022-11-30_10h39.18.374,t1_Paradigm,2021.1.4,60.000461959926454,
B,left,Pretarget,0,0,0,0,1251.982211520255,1253.975929893175,None,0,2,,R22N06,2022-11-30_10h39.18.374,t1_Paradigm,2021.1.4,60.000461959926454,
F,left,Distractor,0,1,1,1,1255.475381963086,1257.4754012112098,None,0,2,,R22N06,2022-11-30_10h39.18.374,t1_Paradigm,2021.1.4,60.000461959926454,
B,right,Target,0,2,2,2,1258.9756087702117,1260.9761753068306,left,0,2,0.6481313594995299,R22N06,2022-11-30_10h39.18.374,t1_Paradigm,2021.1.4,60.000461959926454,
V,left,Distractor,0,3,3,3,1262.4756706850312,1264.4774601194804,left,1,2,0.7787963246373693,R22N06,2022-11-30_10h39.18.374,t1_Paradigm,2021.1.4,60.000461959926454,
G,left,Pretarget,0,4,4,4,1265.9756222439028,1267.977047247099,left,1,2,0.46345646362169646,R22N06,2022-11-30_10h39.18.374,t1_Paradigm,2021.1.4,60.000461959926454,
B,left,Lure,0,5,5,5,1269.4754595972045,1271.4774671771302,left,1,2,0.9468100395606598,R22N06,2022-11-30_10h39.18.374,t1_Paradigm,2021.1.4,60.000461959926454,
G,right,Target,0,6,6,6,1272.9752340732957,1274.9774075079185,right,1,2,0.42277778740390204,R22N06,2022-11-30_10h39.18.374,t1_Paradigm,2021.1.4,60.000461959926454,
Y,left,Pretarget,0,7,7,7,1276.4755067551305,1278.4764155876474,left,1,2,0.44362832374463324,R22N06,2022-11-30_10h39.18.374,t1_Paradigm,2021.1.4,60.000461959926454,
P,left,Distractor,0,8,8,8,1279.9756722890452,1281.9772878487129,left,1,2,0.5590054619824514,R22N06,2022-11-30_10h39.18.374,t1_Paradigm,2021.1.4,60.000461959926454,
Y,right,Target,0,9,9,9,1283.4756418128381,1285.4772182346496,right,1,2,0.691024853833369,R22N06,2022-11-30_10h39.18.374,t1_Paradigm,2021.1.4,60.000461959926454,
X,left,Distractor,0,10,10,10,1286.9756661938009,1288.9758699031663,left,1,2,0.5682509801990818,R22N06,2022-11-30_10h39.18.374,t1_Paradigm,2021.1.4,60.000461959926454,
Y,right,Target,0,11,11,11,1290.4754191761313,1292.475273211152,right,1,2,0.7970477218914311,R22N06,2022-11-30_10h39.18.374,t1_Paradigm,2021.1.4,60.000461959926454,
N,left,Distractor,0,12,12,12,1293.9753136322252,1295.9759699934511,left,1,2,0.6082768240448786,R22N06,2022-11-30_10h39.18.374,t1_Paradigm,2021.1.4,60.000461959926454,
Y,right,Target,0,13,13,13,1297.4756514369074,1299.4762898331974,right,1,2,0.8676399162650341,R22N06,2022-11-30_10h39.18.374,t1_Paradigm,2021.1.4,60.000461959926454,
Y,left,Lure,0,14,14,14,1300.9754685796652,1302.9757232965785,left,1,2,0.8883874751190888,R22N06,2022-11-30_10h39.18.374,t1_Paradigm,2021.1.4,60.000461959926454,
K,left,Distractor,0,15,15,15,1304.475393511966,1306.475426233781,left,1,2,0.9727504229813349,R22N06,2022-11-30_10h39.18.374,t1_Paradigm,2021.1.4,60.000461959926454,
T,left,Pretarget,0,16,16,16,1307.97558631406,1309.97590775782,left,1,2,0.6243775636103237,R22N06,2022-11-30_10h39.18.374,t1_Paradigm,2021.1.4,60.000461959926454,
J,left,Distractor,0,17,17,17,1311.47570501086,1313.475816008402,left,1,2,0.612799492868362,R22N06,2022-11-30_10h39.18.374,t1_Paradigm,2021.1.4,60.000461959926454,
T,right,Target,0,18,18,18,1314.9757133517123,1316.9754268753895,right,1,2,0.5846962613140931,R22N06,2022-11-30_10h39.18.374,t1_Paradigm,2021.1.4,60.000461959926454,
S,left,Pretarget,0,19,19,19,1318.4756386048102,1320.476143868218,left,1,2,0.6199745539779542,R22N06,2022-11-30_10h39.18.374,t1_Paradigm,2021.1.4,60.000461959926454,
R,left,Distractor,0,20,20,20,1321.97528796806,1323.9761974421708,left,1,2,0.5280586400622269,R22N06,2022-11-30_10h39.18.374,t1_Paradigm,2021.1.4,60.000461959926454,
S,right,Target,0,21,21,21,1325.4754390658782,1327.4758051011304,right,1,2,0.5804879785864614,R22N06,2022-11-30_10h39.18.374,t1_Paradigm,2021.1.4,60.000461959926454,
Q,left,Distractor,0,22,22,22,1328.975679346695,1330.9775810618885,left,1,2,0.45459045433381107,R22N06,2022-11-30_10h39.18.374,t1_Paradigm,2021.1.4,60.000461959926454,
D,left,Distractor,0,23,23,23,1332.4753694518004,1334.477017091689,left,1,2,0.5232353796018288,R22N06,2022-11-30_10h39.18.374,t1_Paradigm,2021.1.4,60.000461959926454,
F,left,Distractor,0,24,24,24,1335.9747618525143,1337.9759966200218,left,1,2,0.5604853223339887,R22N06,2022-11-30_10h39.18.374,t1_Paradigm,2021.1.4,60.000461959926454,
Z,left,Distractor,0,25,25,25,1339.4752523590141,1341.4759202691057,left,1,2,0.5164205793407746,R22N06,2022-11-30_10h39.18.374,t1_Paradigm,2021.1.4,60.000461959926454,
P,left,Distractor,0,26,26,26,1342.9756572113401,1344.9757643592602,left,1,2,0.68057985631458,R22N06,2022-11-30_10h39.18.374,t1_Paradigm,2021.1.4,60.000461959926454,
H,left,Distractor,0,27,27,27,1346.4757463943388,1348.475582785235,left,1,2,0.604571879885043,R22N06,2022-11-30_10h39.18.374,t1_Paradigm,2021.1.4,60.000461959926454,
Z,left,Pretarget,0,28,28,28,1349.9756543241238,1351.9752321484848,left,1,2,0.4490980005648453,R22N06,2022-11-30_10h39.18.374,t1_Paradigm,2021.1.4,60.000461959926454,
J,left,Pretarget,0,29,29,29,1353.4755715571664,1355.474896589425,left,1,2,0.5337191941653145,R22N06,2022-11-30_10h39.18.374,t1_Paradigm,2021.1.4,60.000461959926454,
Z,right,Target,0,30,30,30,1356.9754211009567,1358.9758044595364,right,1,2,0.8724134523945395,R22N06,2022-11-30_10h39.18.374,t1_Paradigm,2021.1.4,60.000461959926454,
J,right,Target,0,31,31,31,1360.4752154667658,1362.477692701039,right,1,2,0.8424091472261352,R22N06,2022-11-30_10h39.18.374,t1_Paradigm,2021.1.4,60.000461959926454,
V,left,Pretarget,0,32,32,32,1363.9753919079521,1365.976987898699,left,1,2,0.6392929392022779,R22N06,2022-11-30_10h39.18.374,t1_Paradigm,2021.1.4,60.000461959926454,
Z,left,Lure,0,33,33,33,1367.475567386733,1369.4774934829038,left,1,2,0.6590938109002309,R22N06,2022-11-30_10h39.18.374,t1_Paradigm,2021.1.4,60.000461959926454,
V,right,Target,0,34,34,34,1370.9753502036765,1372.9755003390892,left,0,2,1.4006867091084132,R22N06,2022-11-30_10h39.18.374,t1_Paradigm,2021.1.4,60.000461959926454,
X,left,Distractor,0,35,35,35,1374.47539511598,1376.4761419434071,left,1,2,0.7480990868061781,R22N06,2022-11-30_10h39.18.374,t1_Paradigm,2021.1.4,60.000461959926454,
S,left,Distractor,0,36,36,36,1377.9757601888268,1379.9771739639546,left,1,2,0.5910821490833769,R22N06,2022-11-30_10h39.18.374,t1_Paradigm,2021.1.4,60.000461959926454,
Q,left,Distractor,0,37,37,37,1381.4752472261753,1383.4758057427389,left,1,2,0.5805152467510197,R22N06,2022-11-30_10h39.18.374,t1_Paradigm,2021.1.4,60.000461959926454,
P,left,Distractor,0,38,38,38,1384.9756694018288,1386.977503748567,left,1,2,0.5666973353509093,R22N06,2022-11-30_10h39.18.374,t1_Paradigm,2021.1.4,60.000461959926454,
S,left,Lure,0,39,39,39,1388.4756992364273,1390.4764082092006,left,1,2,0.6197461428237148,R22N06,2022-11-30_10h39.18.374,t1_Paradigm,2021.1.4,60.000461959926454,
K,left,Pretarget,0,40,40,40,1391.9756944243854,1393.9773067760398,left,1,2,0.49507472444383893,R22N06,2022-11-30_10h39.18.374,t1_Paradigm,2021.1.4,60.000461959926454,
L,left,Distractor,0,41,41,41,1395.475770133693,1397.476178514844,left,1,2,0.4839672704838449,R22N06,2022-11-30_10h39.18.374,t1_Paradigm,2021.1.4,60.000461959926454,
K,right,Target,0,42,42,42,1398.9754701836791,1400.9774283600564,right,1,2,1.174893638046342,R22N06,2022-11-30_10h39.18.374,t1_Paradigm,2021.1.4,60.000461959926454,
B,left,Distractor,0,43,43,43,1402.4756671562063,1404.4767678284115,left,1,2,0.6195106740487972,R22N06,2022-11-30_10h39.18.374,t1_Paradigm,2021.1.4,60.000461959926454,
N,left,Distractor,0,44,44,44,1405.975441632283,1407.9758901137102,left,1,2,0.44849168448126875,R22N06,2022-11-30_10h39.18.374,t1_Paradigm,2021.1.4,60.000461959926454,
S,left,Pretarget,0,45,45,45,1409.4756703642342,1411.475705331657,left,1,2,0.6444360394380055,R22N06,2022-11-30_10h39.18.374,t1_Paradigm,2021.1.4,60.000461959926454,
Z,left,Distractor,0,46,46,46,1412.9753617525566,1414.9774164903793,left,1,2,0.5027220063202549,R22N06,2022-11-30_10h39.18.374,t1_Paradigm,2021.1.4,60.000461959926454,
S,right,Target,0,47,47,47,1416.475274494369,1418.4772868863074,right,1,2,1.2111349788028747,R22N06,2022-11-30_10h39.18.374,t1_Paradigm,2021.1.4,60.000461959926454,
C,left,Distractor,0,48,48,48,1419.975692820386,1421.9770786857116,left,1,2,0.4150673075055238,R22N06,2022-11-30_10h39.18.374,t1_Paradigm,2021.1.4,60.000461959926454,
T,left,Pretarget,0,49,49,49,1423.4757983642921,1425.4753097826033,left,1,2,0.5330262615170795,R22N06,2022-11-30_10h39.18.374,t1_Paradigm,2021.1.4,60.000461959926454,
S,left,Lure,0,50,50,50,1426.9754984142783,1428.9756908955605,right,0,2,0.6005875170667423,R22N06,2022-11-30_10h39.18.374,t1_Paradigm,2021.1.4,60.000461959926454,
T,right,Target,0,51,51,51,1430.475689612358,1432.475429121012,left,0,2,0.5088589516235515,R22N06,2022-11-30_10h39.18.374,t1_Paradigm,2021.1.4,60.000461959926454,
N,left,Pretarget,0,52,52,52,1433.9755359481205,1435.9768489913695,left,1,2,0.5597808407910634,R22N06,2022-11-30_10h39.18.374,t1_Paradigm,2021.1.4,60.000461959926454,
B,left,Distractor,0,53,53,53,1437.4755869556684,1439.476909943769,left,1,2,0.5152794860478025,R22N06,2022-11-30_10h39.18.374,t1_Paradigm,2021.1.4,60.000461959926454,
N,right,Target,0,54,54,54,1440.975364639773,1442.9759154570784,right,1,2,0.6329327155835927,R22N06,2022-11-30_10h39.18.374,t1_Paradigm,2021.1.4,60.000461959926454,
N,left,Lure,0,55,55,55,1444.4754628052324,1446.4756924995745,left,1,2,0.3807071506162174,R22N06,2022-11-30_10h39.18.374,t1_Paradigm,2021.1.4,60.000461959926454,
X,left,Distractor,0,56,56,56,1447.9755985045485,1449.9763033068884,left,1,2,0.4481327068642713,R22N06,2022-11-30_10h39.18.374,t1_Paradigm,2021.1.4,60.000461959926454,
W,left,Distractor,0,57,57,57,1451.4754509355553,1453.475565461922,left,1,2,0.48459379709674977,R22N06,2022-11-30_10h39.18.374,t1_Paradigm,2021.1.4,60.000461959926454,
S,left,Distractor,0,58,58,58,1454.975814083591,1456.975929893175,left,1,2,0.42435613402631134,R22N06,2022-11-30_10h39.18.374,t1_Paradigm,2021.1.4,60.000461959926454,
L,left,Distractor,0,59,59,59,1458.4756578529486,1460.476115316822,left,1,2,0.47619295095501,R22N06,2022-11-30_10h39.18.374,t1_Paradigm,2021.1.4,60.000461959926454,
K,left,Pretarget,0,60,60,60,1461.9756844795193,1463.9760453819472,left,1,2,0.5123107828549109,R22N06,2022-11-30_10h39.18.374,t1_Paradigm,2021.1.4,60.000461959926454,
V,left,Pretarget,0,61,61,61,1465.4754499731498,1467.4770328110026,left,1,2,0.451200217125006,R22N06,2022-11-30_10h39.18.374,t1_Paradigm,2021.1.4,60.000461959926454,
K,right,Target,0,62,62,62,1468.9754050608462,1470.9760473067727,right,1,2,0.5201755685993703,R22N06,2022-11-30_10h39.18.374,t1_Paradigm,2021.1.4,60.000461959926454,
V,right,Target,0,63,63,63,1472.4757242589985,1474.4769548560726,right,1,2,0.6353682455956005,R22N06,2022-11-30_10h39.18.374,t1_Paradigm,2021.1.4,60.000461959926454,
R,left,Distractor,0,0,0,0,1571.8821106600662,1573.87483262147,None,0,3,,R22N06,2022-11-30_10h39.18.374,t1_Paradigm,2021.1.4,60.000461959926454,
P,left,Lure,0,1,1,1,1575.3757558900834,1577.3761892938055,None,0,3,,R22N06,2022-11-30_10h39.18.374,t1_Paradigm,2021.1.4,60.000461959926454,
V,left,Distractor,0,2,2,2,1578.8755326117825,1580.8752929725742,left,1,3,1.277133927855175,R22N06,2022-11-30_10h39.18.374,t1_Paradigm,2021.1.4,60.000461959926454,
P,left,Pretarget,0,3,3,3,1582.3754989275476,1584.3756872384256,right,0,3,0.7206053793488536,R22N06,2022-11-30_10h39.18.374,t1_Paradigm,2021.1.4,60.000461959926454,
Z,left,Distractor,0,4,4,4,1585.875552180718,1587.8759679403156,left,1,3,1.012456106240279,R22N06,2022-11-30_10h39.18.374,t1_Paradigm,2021.1.4,60.000461959926454,
L,left,Pretarget,0,5,5,5,1589.3756651030708,1591.376125774972,left,1,3,0.8403043642465491,R22N06,2022-11-30_10h39.18.374,t1_Paradigm,2021.1.4,60.000461959926454,
P,right,Target,0,6,6,6,1592.8758219753363,1594.877110958405,right,1,3,1.2753239620651584,R22N06,2022-11-30_10h39.18.374,t1_Paradigm,2021.1.4,60.000461959926454,
S,left,Distractor,0,7,7,7,1596.3757574940973,1598.3779065477574,left,1,3,1.0061703087412752,R22N06,2022-11-30_10h39.18.374,t1_Paradigm,2021.1.4,60.000461959926454,
L,right,Target,0,8,8,8,1599.8756076794816,1601.8748031076684,right,1,3,0.9176686922146473,R22N06,2022-11-30_10h39.18.374,t1_Paradigm,2021.1.4,60.000461959926454,
D,left,Distractor,0,9,9,9,1603.3757825166686,1605.3776187882177,left,1,3,0.7908231975889066,R22N06,2022-11-30_10h39.18.374,t1_Paradigm,2021.1.4,60.000461959926454,
G,left,Distractor,0,10,10,10,1606.8756859552086,1608.8753135039005,left,1,3,1.3889873751468258,R22N06,2022-11-30_10h39.18.374,t1_Paradigm,2021.1.4,60.000461959926454,
M,left,Pretarget,0,11,11,11,1610.3759041006851,1612.3780185077194,left,1,3,0.5585573013668181,R22N06,2022-11-30_10h39.18.374,t1_Paradigm,2021.1.4,60.000461959926454,
Y,left,Distractor,0,12,12,12,1613.8752926517627,1615.8776521516556,left,1,3,0.4986057938222075,R22N06,2022-11-30_10h39.18.374,t1_Paradigm,2021.1.4,60.000461959926454,
V,left,Distractor,0,13,13,13,1617.3753202407534,1619.3766573441535,left,1,3,0.6957531568477862,R22N06,2022-11-30_10h39.18.374,t1_Paradigm,2021.1.4,60.000461959926454,
M,right,Target,0,14,14,14,1620.8753744563146,1622.8777528835199,right,1,3,0.4903255692770472,R22N06,2022-11-30_10h39.18.374,t1_Paradigm,2021.1.4,60.000461959926454,
S,left,Pretarget,0,15,15,15,1624.3754459952033,1626.3775077906757,left,1,3,0.5267751106293872,R22N06,2022-11-30_10h39.18.374,t1_Paradigm,2021.1.4,60.000461959926454,
Q,left,Distractor,0,16,16,16,1627.8754084613465,1629.8748868370312,left,1,3,0.4693457496614428,R22N06,2022-11-30_10h39.18.374,t1_Paradigm,2021.1.4,60.000461959926454,
R,left,Pretarget,0,17,17,17,1631.3757789878437,1633.3753606618266,left,1,3,0.3930034973891452,R22N06,2022-11-30_10h39.18.374,t1_Paradigm,2021.1.4,60.000461959926454,
S,right,Target,0,18,18,18,1634.8758457146905,1636.877267830656,left,0,3,0.827070954386727,R22N06,2022-11-30_10h39.18.374,t1_Paradigm,2021.1.4,60.000461959926454,
F,left,Distractor,0,19,19,19,1638.3925203693361,1640.3764930934412,left,1,3,0.44800727324036416,R22N06,2022-11-30_10h39.18.374,t1_Paradigm,2021.1.4,60.000461959926454,
R,right,Target,0,20,20,20,1641.8755518599064,1643.876407760079,right,1,3,0.7240491905249655,R22N06,2022-11-30_10h39.18.374,t1_Paradigm,2021.1.4,60.000461959926454,
P,left,Distractor,0,21,21,21,1645.3754033285077,1647.3754867370735,left,1,3,0.6332743699022103,R22N06,2022-11-30_10h39.18.374,t1_Paradigm,2021.1.4,60.000461959926454,
L,left,Distractor,0,22,22,22,1648.875426426268,1650.877046156369,left,1,3,0.49107175509561785,R22N06,2022-11-30_10h39.18.374,t1_Paradigm,2021.1.4,60.000461959926454,
R,right,Target,0,23,23,23,1652.3755364614044,1654.3759150079568,right,1,3,0.6244789370975923,R22N06,2022-11-30_10h39.18.374,t1_Paradigm,2021.1.4,60.000461959926454,
H,left,Pretarget,0,24,24,24,1655.875795669548,1657.8748364710918,left,1,3,0.7575370863341959,R22N06,2022-11-30_10h39.18.374,t1_Paradigm,2021.1.4,60.000461959926454,
G,left,Pretarget,0,25,25,25,1659.375783479074,1661.3775623270485,left,1,3,0.5666867488762364,R22N06,2022-11-30_10h39.18.374,t1_Paradigm,2021.1.4,60.000461959926454,
T,left,Distractor,0,26,26,26,1662.8758081808337,1664.8776197506231,left,1,3,0.8589497065549949,R22N06,2022-11-30_10h39.18.374,t1_Paradigm,2021.1.4,60.000461959926454,
H,right,Target,0,27,27,27,1666.375577844883,1668.3753827971668,right,1,3,0.5768398164218524,R22N06,2022-11-30_10h39.18.374,t1_Paradigm,2021.1.4,60.000461959926454,
G,right,Target,0,28,28,28,1669.8753577746102,1671.8759977749141,right,1,3,0.6126541694975458,R22N06,2022-11-30_10h39.18.374,t1_Paradigm,2021.1.4,60.000461959926454,
D,left,Distractor,0,29,29,29,1673.3759178951732,1675.3758441106766,left,1,3,0.4725653201312525,R22N06,2022-11-30_10h39.18.374,t1_Paradigm,2021.1.4,60.000461959926454,
N,left,Pretarget,0,30,30,30,1676.8757812334516,1678.8762871384533,left,1,3,0.5880534558964428,R22N06,2022-11-30_10h39.18.374,t1_Paradigm,2021.1.4,60.000461959926454,
V,left,Distractor,0,31,31,31,1680.375409744549,1682.3783550291846,left,1,3,0.6059866174182389,R22N06,2022-11-30_10h39.18.374,t1_Paradigm,2021.1.4,60.000461959926454,
R,left,Distractor,0,32,32,32,1683.87559677221,1685.8777208033134,left,1,3,0.6589529787452193,R22N06,2022-11-30_10h39.18.374,t1_Paradigm,2021.1.4,60.000461959926454,
N,right,Target,0,33,33,33,1687.3757196394436,1689.3762338852976,left,0,3,0.5200664958829293,R22N06,2022-11-30_10h39.18.374,t1_Paradigm,2021.1.4,60.000461959926454,
Z,left,Distractor,0,34,34,34,1690.8754979651421,1692.8764058352535,left,1,3,0.4438422987877857,R22N06,2022-11-30_10h39.18.374,t1_Paradigm,2021.1.4,60.000461959926454,
N,left,Lure,0,35,35,35,1694.3755412734463,1696.375707128158,left,1,3,0.6726608550088713,R22N06,2022-11-30_10h39.18.374,t1_Paradigm,2021.1.4,60.000461959926454,
Y,left,Pretarget,0,36,36,36,1697.8758572635707,1699.8775318508415,left,1,3,0.48256600664171856,R22N06,2022-11-30_10h39.18.374,t1_Paradigm,2021.1.4,60.000461959926454,
Y,left,Lure,0,37,37,37,1701.375641042905,1703.37533467685,left,1,3,0.45712382899364457,R22N06,2022-11-30_10h39.18.374,t1_Paradigm,2021.1.4,60.000461959926454,
B,left,Distractor,0,38,38,38,1704.8757789878437,1706.8764164217282,left,1,3,0.49171239700808655,R22N06,2022-11-30_10h39.18.374,t1_Paradigm,2021.1.4,60.000461959926454,
Y,right,Target,0,39,39,39,1708.3754123109684,1710.3777820765245,right,1,3,0.6067097054765327,R22N06,2022-11-30_10h39.18.374,t1_Paradigm,2021.1.4,60.000461959926454,
J,left,Distractor,0,40,40,40,1711.8755653335975,1713.8773445023835,left,1,3,0.4510308335738955,R22N06,2022-11-30_10h39.18.374,t1_Paradigm,2021.1.4,60.000461959926454,
X,left,Distractor,0,41,41,41,1715.3758033688064,1717.3769005121867,left,1,3,0.4555227054224815,R22N06,2022-11-30_10h39.18.374,t1_Paradigm,2021.1.4,60.000461959926454,
W,left,Pretarget,0,42,42,42,1718.87561537874,1720.8753151079145,left,1,3,0.4768505953834392,R22N06,2022-11-30_10h39.18.374,t1_Paradigm,2021.1.4,60.000461959926454,
S,left,Pretarget,0,43,43,43,1722.3758774741,1724.376033704757,left,1,3,0.5606158888258506,R22N06,2022-11-30_10h39.18.374,t1_Paradigm,2021.1.4,60.000461959926454,
R,left,Distractor,0,44,44,44,1725.875581052911,1727.876282005629,left,1,3,0.5642489732708782,R22N06,2022-11-30_10h39.18.374,t1_Paradigm,2021.1.4,60.000461959926454,
W,right,Target,0,45,45,45,1729.3758745868836,1731.3761004316038,right,1,3,0.8403913016372826,R22N06,2022-11-30_10h39.18.374,t1_Paradigm,2021.1.4,60.000461959926454,
S,right,Target,0,46,46,46,1732.8758460354875,1734.8762938753061,right,1,3,0.5880820072925417,R22N06,2022-11-30_10h39.18.374,t1_Paradigm,2021.1.4,60.000461959926454,
D,left,Distractor,0,47,47,47,1736.3753725315037,1738.392167166152,left,1,3,0.5923233326466288,R22N06,2022-11-30_10h39.18.374,t1_Paradigm,2021.1.4,60.000461959926454,
T,left,Distractor,0,48,48,48,1739.8758155592805,1741.8762739855738,left,1,3,0.5643339858506806,R22N06,2022-11-30_10h39.18.374,t1_Paradigm,2021.1.4,60.000461959926454,
S,right,Target,0,49,49,49,1743.375827749769,1745.375676972748,right,1,3,1.2725798203900922,R22N06,2022-11-30_10h39.18.374,t1_Paradigm,2021.1.4,60.000461959926454,
K,left,Distractor,0,50,50,50,1746.8755072684144,1748.876404552051,left,1,3,0.9080154344410403,R22N06,2022-11-30_10h39.18.374,t1_Paradigm,2021.1.4,60.000461959926454,
S,left,Lure,0,51,51,51,1750.3756429677305,1752.376782456995,left,1,3,0.8476574705418898,R22N06,2022-11-30_10h39.18.374,t1_Paradigm,2021.1.4,60.000461959926454,
T,left,Pretarget,0,52,52,52,1753.8756394389056,1755.876123850161,left,1,3,0.7243902032205369,R22N06,2022-11-30_10h39.18.374,t1_Paradigm,2021.1.4,60.000461959926454,
V,left,Distractor,0,53,53,53,1757.3756195491733,1759.376423158581,left,1,3,0.5838743661734043,R22N06,2022-11-30_10h39.18.374,t1_Paradigm,2021.1.4,60.000461959926454,
B,left,Distractor,0,54,54,54,1760.8755460854736,1762.8762277900678,left,1,3,0.6841539131710306,R22N06,2022-11-30_10h39.18.374,t1_Paradigm,2021.1.4,60.000461959926454,
T,right,Target,0,55,55,55,1764.375814596875,1766.3768812640628,right,1,3,0.47960211550525855,R22N06,2022-11-30_10h39.18.374,t1_Paradigm,2021.1.4,60.000461959926454,
Y,left,Pretarget,0,56,56,56,1767.8758357698243,1769.8761325118248,left,1,3,0.5803391263762023,R22N06,2022-11-30_10h39.18.374,t1_Paradigm,2021.1.4,60.000461959926454,
T,left,Lure,0,57,57,57,1771.3754174438072,1773.3759393889195,left,1,3,0.7443704033066751,R22N06,2022-11-30_10h39.18.374,t1_Paradigm,2021.1.4,60.000461959926454,
P,left,Pretarget,0,58,58,58,1774.875843469068,1776.8777942669985,left,1,3,0.698616636931547,R22N06,2022-11-30_10h39.18.374,t1_Paradigm,2021.1.4,60.000461959926454,
Y,right,Target,0,59,59,59,1778.3758078600367,1780.3753850427893,right,1,3,0.7049268154078163,R22N06,2022-11-30_10h39.18.374,t1_Paradigm,2021.1.4,60.000461959926454,
R,left,Distractor,0,60,60,60,1781.875520421294,1783.875765193341,left,1,3,0.5648193595116027,R22N06,2022-11-30_10h39.18.374,t1_Paradigm,2021.1.4,60.000461959926454,
P,right,Target,0,61,61,61,1785.3754350879317,1787.3777224073274,left,0,3,0.5666312500979984,R22N06,2022-11-30_10h39.18.374,t1_Paradigm,2021.1.4,60.000461959926454,
L,left,Distractor,0,62,62,62,1788.875454977664,1790.8763079906057,left,1,3,0.6040528220037231,R22N06,2022-11-30_10h39.18.374,t1_Paradigm,2021.1.4,60.000461959926454,
V,left,Distractor,0,63,63,63,1792.3755361406074,1794.3758582259761,left,1,3,0.5284859485400375,R22N06,2022-11-30_10h39.18.374,t1_Paradigm,2021.1.4,60.000461959926454,
H,left,Lure,0,0,0,0,1802.0243886633543,1804.0257761326939,None,0,3,,R22N06,2022-11-30_10h39.18.374,t1_Paradigm,2021.1.4,60.000461959926454,
B,left,Distractor,0,1,1,1,1805.5255486839742,1807.525651340664,None,0,3,,R22N06,2022-11-30_10h39.18.374,t1_Paradigm,2021.1.4,60.000461959926454,
T,left,Distractor,0,2,2,2,1809.0255493255681,1811.0264895966975,None,0,3,,R22N06,2022-11-30_10h39.18.374,t1_Paradigm,2021.1.4,60.000461959926454,
R,left,Distractor,0,3,3,3,1812.5255538167985,1814.5272912812943,left,1,3,0.7292311078053899,R22N06,2022-11-30_10h39.18.374,t1_Paradigm,2021.1.4,60.000461959926454,
H,left,Pretarget,0,4,4,4,1816.0259650851658,1818.0264690653712,right,0,3,1.1339313727221452,R22N06,2022-11-30_10h39.18.374,t1_Paradigm,2021.1.4,60.000461959926454,
K,left,Distractor,0,5,5,5,1819.5259063783742,1821.526364163059,left,1,3,0.546224383142544,R22N06,2022-11-30_10h39.18.374,t1_Paradigm,2021.1.4,60.000461959926454,
G,left,Distractor,0,6,6,6,1823.0256773256406,1825.026566268425,None,0,3,,R22N06,2022-11-30_10h39.18.374,t1_Paradigm,2021.1.4,60.000461959926454,
H,right,Target,0,7,7,7,1826.5255493255681,1828.5267789602512,left,0,3,0.5535178202408133,R22N06,2022-11-30_10h39.18.374,t1_Paradigm,2021.1.4,60.000461959926454,
Y,left,Pretarget,0,8,8,8,1830.0257042730227,1832.026556323559,left,1,3,0.49375526516814716,R22N06,2022-11-30_10h39.18.374,t1_Paradigm,2021.1.4,60.000461959926454,
S,left,Distractor,0,9,9,9,1833.5253273304843,1835.5262445038534,left,1,3,0.9143830364919268,R22N06,2022-11-30_10h39.18.374,t1_Paradigm,2021.1.4,60.000461959926454,
P,left,Distractor,0,10,10,10,1837.0256285637006,1839.0273114918382,left,1,3,0.6293208040733589,R22N06,2022-11-30_10h39.18.374,t1_Paradigm,2021.1.4,60.000461959926454,
Y,right,Target,0,11,11,11,1840.5253202728345,1842.5264851054671,right,1,3,0.8097473169764271,R22N06,2022-11-30_10h39.18.374,t1_Paradigm,2021.1.4,60.000461959926454,
H,left,Lure,0,12,12,12,1844.0254633505974,1846.028140444614,left,1,3,0.6842238480458036,R22N06,2022-11-30_10h39.18.374,t1_Paradigm,2021.1.4,60.000461959926454,
Q,left,Distractor,0,13,13,13,1847.5256250348903,1849.526193817117,left,1,3,0.6423665446927771,R22N06,2022-11-30_10h39.18.374,t1_Paradigm,2021.1.4,60.000461959926454,
V,left,Pretarget,0,14,14,14,1851.0258880926558,1853.0268482535175,left,1,3,0.6935530956397997,R22N06,2022-11-30_10h39.18.374,t1_Paradigm,2021.1.4,60.000461959926454,
G,left,Distractor,0,15,15,15,1854.5257539973536,1856.5265733260603,left,1,3,0.6018431367265293,R22N06,2022-11-30_10h39.18.374,t1_Paradigm,2021.1.4,60.000461959926454,
Z,left,Pretarget,0,16,16,16,1858.0258765437757,1860.0261559624632,left,1,3,0.5104921554302564,R22N06,2022-11-30_10h39.18.374,t1_Paradigm,2021.1.4,60.000461959926454,
V,right,Target,0,17,17,17,1861.5255380974995,1863.5274308302323,right,1,3,0.8327494733966887,R22N06,2022-11-30_10h39.18.374,t1_Paradigm,2021.1.4,60.000461959926454,
N,left,Distractor,0,18,18,18,1865.0258393307304,1867.0268723136833,left,1,3,0.5336508633045014,R22N06,2022-11-30_10h39.18.374,t1_Paradigm,2021.1.4,60.000461959926454,
Z,right,Target,0,19,19,19,1868.5258454259601,1870.5265502283146,right,1,3,0.7140372759313323,R22N06,2022-11-30_10h39.18.374,t1_Paradigm,2021.1.4,60.000461959926454,
R,left,Distractor,0,20,20,20,1872.025554779204,1874.0261976667389,left,1,3,0.5423612835438689,R22N06,2022-11-30_10h39.18.374,t1_Paradigm,2021.1.4,60.000461959926454,
P,left,Distractor,0,21,21,21,1875.525790889602,1877.5254659170168,left,1,3,0.5631537547014887,R22N06,2022-11-30_10h39.18.374,t1_Paradigm,2021.1.4,60.000461959926454,
Z,right,Target,0,22,22,22,1879.0255656864902,1881.0260449649068,right,1,3,0.6305805941665312,R22N06,2022-11-30_10h39.18.374,t1_Paradigm,2021.1.4,60.000461959926454,
D,left,Pretarget,0,23,23,23,1882.5258146289561,1884.5269374365162,left,1,3,0.5855139860068448,R22N06,2022-11-30_10h39.18.374,t1_Paradigm,2021.1.4,60.000461959926454,
K,left,Distractor,0,24,24,24,1886.0258441427577,1888.0268694264669,left,1,3,0.525666097557405,R22N06,2022-11-30_10h39.18.374,t1_Paradigm,2021.1.4,60.000461959926454,
W,left,Distractor,0,25,25,25,1889.5255127541313,1891.5258037216845,left,1,3,0.48298208705091383,R22N06,2022-11-30_10h39.18.374,t1_Paradigm,2021.1.4,60.000461959926454,
D,right,Target,0,26,26,26,1893.025865957301,1895.0261043133069,right,1,3,0.4703004568873439,R22N06,2022-11-30_10h39.18.374,t1_Paradigm,2021.1.4,60.000461959926454,
G,left,Pretarget,0,27,27,27,1896.5258698069374,1898.526146017597,left,1,3,0.37824403164268006,R22N06,2022-11-30_10h39.18.374,t1_Paradigm,2021.1.4,60.000461959926454,
V,left,Distractor,0,28,28,28,1900.0253886036953,1902.027303150986,left,1,3,0.4931139816471841,R22N06,2022-11-30_10h39.18.374,t1_Paradigm,2021.1.4,60.000461959926454,
D,right,Target,0,29,29,29,1903.5258643533016,1905.5265909701848,right,1,3,0.48213837736693677,R22N06,2022-11-30_10h39.18.374,t1_Paradigm,2021.1.4,60.000461959926454,
G,right,Target,0,30,30,30,1907.0254521225143,1909.027439171099,right,1,3,0.4849591907550348,R22N06,2022-11-30_10h39.18.374,t1_Paradigm,2021.1.4,60.000461959926454,
B,left,Pretarget,0,31,31,31,1910.5258614660706,1912.5270724942238,left,1,3,0.39326302632980514,R22N06,2022-11-30_10h39.18.374,t1_Paradigm,2021.1.4,60.000461959926454,
N,left,Distractor,0,32,32,32,1914.0256523030694,1916.0273281735426,left,1,3,0.49311654806660954,R22N06,2022-11-30_10h39.18.374,t1_Paradigm,2021.1.4,60.000461959926454,
F,left,Distractor,0,33,33,33,1917.5258358019055,1919.5273288151511,left,1,3,0.4651361837168224,R22N06,2022-11-30_10h39.18.374,t1_Paradigm,2021.1.4,60.000461959926454,
B,right,Target,0,34,34,34,1921.0255958418857,1923.026881616941,left,0,3,0.5494324047467671,R22N06,2022-11-30_10h39.18.374,t1_Paradigm,2021.1.4,60.000461959926454,
Q,left,Pretarget,0,35,35,35,1924.5259429498255,1926.526602198268,left,1,3,0.6177876456495142,R22N06,2022-11-30_10h39.18.374,t1_Paradigm,2021.1.4,60.000461959926454,
S,left,Pretarget,0,36,36,36,1928.0259981277923,1930.026680473995,left,1,3,0.8777917005936615,R22N06,2022-11-30_10h39.18.374,t1_Paradigm,2021.1.4,60.000461959926454,
W,left,Distractor,0,37,37,37,1931.5253683931514,1933.526850819937,left,1,3,0.40160676969389897,R22N06,2022-11-30_10h39.18.374,t1_Paradigm,2021.1.4,60.000461959926454,
Q,right,Target,0,38,38,38,1935.025865636504,1937.0276926047954,right,1,3,0.5168334517074982,R22N06,2022-11-30_10h39.18.374,t1_Paradigm,2021.1.4,60.000461959926454,
S,right,Target,0,39,39,39,1938.5259224184847,1940.5267208950536,right,1,3,0.48982575951959006,R22N06,2022-11-30_10h39.18.374,t1_Paradigm,2021.1.4,60.000461959926454,
T,left,Distractor,0,40,40,40,1942.0258662781125,1944.0275065395545,left,1,3,0.4452169360447442,R22N06,2022-11-30_10h39.18.374,t1_Paradigm,2021.1.4,60.000461959926454,
G,left,Distractor,0,41,41,41,1945.5259557819081,1947.5258223282144,left,1,3,0.49874405954324175,R22N06,2022-11-30_10h39.18.374,t1_Paradigm,2021.1.4,60.000461959926454,
D,left,Distractor,0,42,42,42,1949.025504734076,1951.0268841833604,None,0,3,,R22N06,2022-11-30_10h39.18.374,t1_Paradigm,2021.1.4,60.000461959926454,
S,left,Lure,0,43,43,43,1952.525915040038,1954.5264315315144,left,1,3,0.9699761259107618,R22N06,2022-11-30_10h39.18.374,t1_Paradigm,2021.1.4,60.000461959926454,
Z,left,Pretarget,0,44,44,44,1956.02547618268,1958.026722819879,left,1,3,0.9898357043712167,R22N06,2022-11-30_10h39.18.374,t1_Paradigm,2021.1.4,60.000461959926454,
J,left,Distractor,0,45,45,45,1959.5258508796105,1961.525789285588,left,1,3,0.6268345873395447,R22N06,2022-11-30_10h39.18.374,t1_Paradigm,2021.1.4,60.000461959926454,
M,left,Pretarget,0,46,46,46,1963.0256375461613,1965.0265624187887,left,1,3,0.7420375299989246,R22N06,2022-11-30_10h39.18.374,t1_Paradigm,2021.1.4,60.000461959926454,
Z,right,Target,0,47,47,47,1966.5258993207244,1968.525847029974,left,0,3,0.7785560438205721,R22N06,2022-11-30_10h39.18.374,t1_Paradigm,2021.1.4,60.000461959926454,
P,left,Distractor,0,48,48,48,1970.02549478921,1972.0275296373002,left,1,3,0.5889873109845212,R22N06,2022-11-30_10h39.18.374,t1_Paradigm,2021.1.4,60.000461959926454,
M,right,Target,0,49,49,49,1973.5255486839742,1975.5258393307304,right,1,3,0.5467633307707729,R22N06,2022-11-30_10h39.18.374,t1_Paradigm,2021.1.4,60.000461959926454,
K,left,Distractor,0,50,50,50,1977.0258588996512,1979.0265758924797,left,1,3,0.4538375316769816,R22N06,2022-11-30_10h39.18.374,t1_Paradigm,2021.1.4,60.000461959926454,
Y,left,Distractor,0,51,51,51,1980.525554458407,1982.5266419777327,left,1,3,0.4739001779089449,R22N06,2022-11-30_10h39.18.374,t1_Paradigm,2021.1.4,60.000461959926454,
X,left,Distractor,0,52,52,52,1984.0258544084209,1986.0277176273667,left,1,3,0.46087689345586114,R22N06,2022-11-30_10h39.18.374,t1_Paradigm,2021.1.4,60.000461959926454,
F,left,Pretarget,0,53,53,53,1987.5256064283603,1989.5279675322527,left,1,3,0.4644846345472615,R22N06,2022-11-30_10h39.18.374,t1_Paradigm,2021.1.4,60.000461959926454,
M,left,Lure,0,54,54,54,1991.0257918520074,1993.02591183201,left,1,3,0.42255258429213427,R22N06,2022-11-30_10h39.18.374,t1_Paradigm,2021.1.4,60.000461959926454,
V,left,Distractor,0,55,55,55,1994.5257132554834,1996.526037907257,left,1,3,0.538434023517766,R22N06,2022-11-30_10h39.18.374,t1_Paradigm,2021.1.4,60.000461959926454,
F,right,Target,0,56,56,56,1998.0259140776325,2000.025784152749,right,1,3,0.4628600924042985,R22N06,2022-11-30_10h39.18.374,t1_Paradigm,2021.1.4,60.000461959926454,
S,left,Distractor,0,57,57,57,2001.525586859425,2003.5267160830263,left,1,3,0.4337062337581301,R22N06,2022-11-30_10h39.18.374,t1_Paradigm,2021.1.4,60.000461959926454,
D,left,Distractor,0,58,58,58,2005.0257902479934,2007.026634599286,left,1,3,0.34161933230643626,R22N06,2022-11-30_10h39.18.374,t1_Paradigm,2021.1.4,60.000461959926454,
F,right,Target,0,59,59,59,2008.525613806807,2010.5269650255068,right,1,3,0.4576236387511017,R22N06,2022-11-30_10h39.18.374,t1_Paradigm,2021.1.4,60.000461959926454,
V,left,Pretarget,0,60,60,60,2012.026081857155,2014.0272104391624,left,1,3,0.8772986276744632,R22N06,2022-11-30_10h39.18.374,t1_Paradigm,2021.1.4,60.000461959926454,
J,left,Distractor,0,61,61,61,2015.5254492352979,2017.5266888148471,left,1,3,0.4822798511158908,R22N06,2022-11-30_10h39.18.374,t1_Paradigm,2021.1.4,60.000461959926454,
V,left,Lure,0,62,62,62,2019.0260164135252,2021.0273865595373,left,1,3,0.9491169278917369,R22N06,2022-11-30_10h39.18.374,t1_Paradigm,2021.1.4,60.000461959926454,
V,right,Target,0,63,63,63,2022.525988503723,2024.5258765437757,right,1,3,1.0186479087133193,R22N06,2022-11-30_10h39.18.374,t1_Paradigm,2021.1.4,60.000461959926454,
R,left,Distractor,0,0,0,0,2210.670252593205,2212.6604681273457,None,0,4,,R22N06,2022-11-30_10h39.18.374,t1_Paradigm,2021.1.4,60.000461959926454,
F,left,Distractor,0,1,1,1,2214.1591740114236,2216.159933670948,None,0,4,,R22N06,2022-11-30_10h39.18.374,t1_Paradigm,2021.1.4,60.000461959926454,
P,left,Pretarget,0,2,2,2,2217.659353660638,2219.660668307886,None,0,4,,R22N06,2022-11-30_10h39.18.374,t1_Paradigm,2021.1.4,60.000461959926454,
H,left,Distractor,0,3,3,3,2221.1593225428223,2223.159505079253,None,0,4,,R22N06,2022-11-30_10h39.18.374,t1_Paradigm,2021.1.4,60.000461959926454,
Z,left,Distractor,0,4,4,4,2224.6593559062458,2226.6599141020124,left,1,4,0.40466786389879417,R22N06,2022-11-30_10h39.18.374,t1_Paradigm,2021.1.4,60.000461959926454,
T,left,Distractor,0,5,5,5,2228.1590610890707,2230.159927254892,left,1,4,0.48878122767200693,R22N06,2022-11-30_10h39.18.374,t1_Paradigm,2021.1.4,60.000461959926454,
P,right,Target,0,6,6,6,2231.6592975202657,2233.6602002575382,right,1,4,0.4603876701730769,R22N06,2022-11-30_10h39.18.374,t1_Paradigm,2021.1.4,60.000461959926454,
G,left,Distractor,0,7,7,7,2235.1588233746734,2237.161092087539,left,1,4,0.44789884208876174,R22N06,2022-11-30_10h39.18.374,t1_Paradigm,2021.1.4,60.000461959926454,
L,left,Distractor,0,8,8,8,2238.659296878657,2240.6594729990466,left,1,4,0.45309006264142226,R22N06,2022-11-30_10h39.18.374,t1_Paradigm,2021.1.4,60.000461959926454,
P,left,Lure,0,9,9,9,2242.1591435352166,2244.1600231747434,left,1,4,0.728724240383599,R22N06,2022-11-30_10h39.18.374,t1_Paradigm,2021.1.4,60.000461959926454,
Q,left,Pretarget,0,10,10,10,2245.65899275821,2247.659090282061,left,1,4,0.5095631123695057,R22N06,2022-11-30_10h39.18.374,t1_Paradigm,2021.1.4,60.000461959926454,
D,left,Distractor,0,11,11,11,2249.1593491694075,2251.160981089997,left,1,4,0.49577663956733886,R22N06,2022-11-30_10h39.18.374,t1_Paradigm,2021.1.4,60.000461959926454,
M,left,Pretarget,0,12,12,12,2252.6591063221713,2254.660051084531,left,1,4,0.6127115930721629,R22N06,2022-11-30_10h39.18.374,t1_Paradigm,2021.1.4,60.000461959926454,
C,left,Distractor,0,13,13,13,2256.1594617709634,2258.1595756557363,left,1,4,0.5050895262684207,R22N06,2022-11-30_10h39.18.374,t1_Paradigm,2021.1.4,60.000461959926454,
Q,right,Target,0,14,14,14,2259.658492948438,2261.6596985229553,right,1,4,0.7970243033196311,R22N06,2022-11-30_10h39.18.374,t1_Paradigm,2021.1.4,60.000461959926454,
R,left,Distractor,0,15,15,15,2263.1593523774354,2265.160739846775,left,1,4,0.6879153185000177,R22N06,2022-11-30_10h39.18.374,t1_Paradigm,2021.1.4,60.000461959926454,
M,right,Target,0,16,16,16,2266.6592689688696,2268.661227145247,None,0,4,,R22N06,2022-11-30_10h39.18.374,t1_Paradigm,2021.1.4,60.000461959926454,
S,left,Distractor,0,17,17,17,2270.1590598058538,2272.1755163150374,left,1,4,0.5371572309231851,R22N06,2022-11-30_10h39.18.374,t1_Paradigm,2021.1.4,60.000461959926454,
Z,left,Distractor,0,18,18,18,2273.65884839723,2275.659484547912,left,1,4,0.7652202980534639,R22N06,2022-11-30_10h39.18.374,t1_Paradigm,2021.1.4,60.000461959926454,
L,left,Pretarget,0,19,19,19,2277.159358472665,2279.1602140520263,left,1,4,1.0724380900064716,R22N06,2022-11-30_10h39.18.374,t1_Paradigm,2021.1.4,60.000461959926454,
M,right,Target,0,20,20,20,2280.6593847784534,2282.659936878961,left,0,4,1.1248218745895429,R22N06,2022-11-30_10h39.18.374,t1_Paradigm,2021.1.4,60.000461959926454,
P,left,Distractor,0,21,21,21,2284.159077770775,2286.1589616403944,right,0,4,0.9696367172145983,R22N06,2022-11-30_10h39.18.374,t1_Paradigm,2021.1.4,60.000461959926454,
F,left,Distractor,0,22,22,22,2287.659181710682,2289.65997826244,left,1,4,0.7164509913855,R22N06,2022-11-30_10h39.18.374,t1_Paradigm,2021.1.4,60.000461959926454,
L,right,Target,0,23,23,23,2291.1588881767093,2293.1603054806474,left,0,4,0.9924460715556052,R22N06,2022-11-30_10h39.18.374,t1_Paradigm,2021.1.4,60.000461959926454,
L,left,Lure,0,24,24,24,2294.659038953716,2296.6591698410048,left,1,4,0.7412300709693227,R22N06,2022-11-30_10h39.18.374,t1_Paradigm,2021.1.4,60.000461959926454,
V,left,Pretarget,0,25,25,25,2298.1593097107398,2300.159660989113,left,1,4,0.6650610518554458,R22N06,2022-11-30_10h39.18.374,t1_Paradigm,2021.1.4,60.000461959926454,
Z,left,Distractor,0,26,26,26,2301.658960036395,2303.6594883975486,right,0,4,0.7812681052746484,R22N06,2022-11-30_10h39.18.374,t1_Paradigm,2021.1.4,60.000461959926454,
H,left,Distractor,0,27,27,27,2305.158820808254,2307.1599647887488,left,1,4,0.5769193753658328,R22N06,2022-11-30_10h39.18.374,t1_Paradigm,2021.1.4,60.000461959926454,
X,left,Distractor,0,28,28,28,2308.6589674148418,2310.6591467432445,left,1,4,0.4694541807839414,R22N06,2022-11-30_10h39.18.374,t1_Paradigm,2021.1.4,60.000461959926454,
V,right,Target,0,29,29,29,2312.1593116355507,2314.159972488007,left,0,4,0.6166789533890551,R22N06,2022-11-30_10h39.18.374,t1_Paradigm,2021.1.4,60.000461959926454,
C,left,Distractor,0,30,30,30,2315.6593132395647,2317.6601229442167,left,1,4,0.716313046446885,R22N06,2022-11-30_10h39.18.374,t1_Paradigm,2021.1.4,60.000461959926454,
S,left,Pretarget,0,31,31,31,2319.1593135603616,2321.1613256315177,left,1,4,0.751367419201415,R22N06,2022-11-30_10h39.18.374,t1_Paradigm,2021.1.4,60.000461959926454,
D,left,Distractor,0,32,32,32,2322.6595310642297,2324.6599853200896,left,1,4,1.412906063356786,R22N06,2022-11-30_10h39.18.374,t1_Paradigm,2021.1.4,60.000461959926454,
V,left,Distractor,0,33,33,33,2326.159227264594,2328.1612797568087,left,1,4,1.1114588606433244,R22N06,2022-11-30_10h39.18.374,t1_Paradigm,2021.1.4,60.000461959926454,
R,left,Distractor,0,34,34,34,2329.65937355037,2331.658404407048,left,1,4,0.55838150177442,R22N06,2022-11-30_10h39.18.374,t1_Paradigm,2021.1.4,60.000461959926454,
S,right,Target,0,35,35,35,2333.1591691993963,2335.161300288135,left,0,4,0.5433256148244254,R22N06,2022-11-30_10h39.18.374,t1_Paradigm,2021.1.4,60.000461959926454,
Y,left,Distractor,0,36,36,36,2336.6590851492365,2338.6599484278413,left,1,4,0.4687134486011928,R22N06,2022-11-30_10h39.18.374,t1_Paradigm,2021.1.4,60.000461959926454,
N,left,Pretarget,0,37,37,37,2340.159134552756,2342.1591294199316,left,1,4,0.4576284507784294,R22N06,2022-11-30_10h39.18.374,t1_Paradigm,2021.1.4,60.000461959926454,
Z,left,Pretarget,0,38,38,38,2343.6593812496285,2345.6610420423967,left,1,4,0.6675357197091216,R22N06,2022-11-30_10h39.18.374,t1_Paradigm,2021.1.4,60.000461959926454,
P,left,Pretarget,0,39,39,39,2347.1593838160334,2349.159579505358,left,1,4,0.4651008954824647,R22N06,2022-11-30_10h39.18.374,t1_Paradigm,2021.1.4,60.000461959926454,
M,left,Distractor,0,40,40,40,2350.659379004006,2352.660752358046,left,1,4,0.4039604951394722,R22N06,2022-11-30_10h39.18.374,t1_Paradigm,2021.1.4,60.000461959926454,
N,right,Target,0,41,41,41,2354.159322863634,2356.1604793554143,left,0,4,0.47227499417203944,R22N06,2022-11-30_10h39.18.374,t1_Paradigm,2021.1.4,60.000461959926454,
Z,right,Target,0,42,42,42,2357.659266723247,2359.6600905431987,right,1,4,0.7164641442650463,R22N06,2022-11-30_10h39.18.374,t1_Paradigm,2021.1.4,60.000461959926454,
P,right,Target,0,43,43,43,2361.158870532585,2363.1596298712975,left,0,4,0.46538191816944163,R22N06,2022-11-30_10h39.18.374,t1_Paradigm,2021.1.4,60.000461959926454,
X,left,Pretarget,0,44,44,44,2364.6594784526824,2366.659256778381,left,1,4,0.4694496895535849,R22N06,2022-11-30_10h39.18.374,t1_Paradigm,2021.1.4,60.000461959926454,
Z,left,Lure,0,45,45,45,2368.159385740859,2370.1603054806474,left,1,4,0.47240331504144706,R22N06,2022-11-30_10h39.18.374,t1_Paradigm,2021.1.4,60.000461959926454,
R,left,Pretarget,0,46,46,46,2371.658793860872,2373.65888561029,right,0,4,0.7978792410722235,R22N06,2022-11-30_10h39.18.374,t1_Paradigm,2021.1.4,60.000461959926454,
K,left,Distractor,0,47,47,47,2375.1593328085,2377.159913460404,left,1,4,0.6248930926813046,R22N06,2022-11-30_10h39.18.374,t1_Paradigm,2021.1.4,60.000461959926454,
X,right,Target,0,48,48,48,2378.6590264424303,2380.661043967222,left,0,4,0.9156338441243861,R22N06,2022-11-30_10h39.18.374,t1_Paradigm,2021.1.4,60.000461959926454,
B,left,Distractor,0,49,49,49,2382.1593405077438,2384.1602201472706,left,1,4,1.064578116274788,R22N06,2022-11-30_10h39.18.374,t1_Paradigm,2021.1.4,60.000461959926454,
R,right,Target,0,50,50,50,2385.6591367983783,2387.6590716755454,left,0,4,1.1015945150575135,R22N06,2022-11-30_10h39.18.374,t1_Paradigm,2021.1.4,60.000461959926454,
Y,left,Pretarget,0,51,51,51,2389.1594223122956,2391.1592400966765,left,1,4,0.8815822988981381,R22N06,2022-11-30_10h39.18.374,t1_Paradigm,2021.1.4,60.000461959926454,
W,left,Pretarget,0,52,52,52,2392.6594069137936,2394.6598714353167,left,1,4,0.4528407993639121,R22N06,2022-11-30_10h39.18.374,t1_Paradigm,2021.1.4,60.000461959926454,
Z,left,Distractor,0,53,53,53,2396.1588798358425,2398.1596844076703,left,1,4,0.5689294767798856,R22N06,2022-11-30_10h39.18.374,t1_Paradigm,2021.1.4,60.000461959926454,
Q,left,Distractor,0,54,54,54,2399.659163104152,2401.66122682445,left,1,4,0.5714785707386909,R22N06,2022-11-30_10h39.18.374,t1_Paradigm,2021.1.4,60.000461959926454,
Y,right,Target,0,55,55,55,2403.1593494902045,2405.159413009038,right,1,4,0.8172903381491778,R22N06,2022-11-30_10h39.18.374,t1_Paradigm,2021.1.4,60.000461959926454,
W,right,Target,0,56,56,56,2406.6590068735095,2408.660413590973,left,0,4,0.45219759103201795,R22N06,2022-11-30_10h39.18.374,t1_Paradigm,2021.1.4,60.000461959926454,
H,left,Pretarget,0,57,57,57,2410.1593356957164,2412.1589067832247,left,1,4,0.6501126336370362,R22N06,2022-11-30_10h39.18.374,t1_Paradigm,2021.1.4,60.000461959926454,
M,left,Distractor,0,58,58,58,2413.6589520163398,2415.6608024031884,left,1,4,0.6038776640198193,R22N06,2022-11-30_10h39.18.374,t1_Paradigm,2021.1.4,60.000461959926454,
R,left,Pretarget,0,59,59,59,2417.1591281367146,2419.1591499512724,right,0,4,0.7537692649639212,R22N06,2022-11-30_10h39.18.374,t1_Paradigm,2021.1.4,60.000461959926454,
J,left,Distractor,0,60,60,60,2420.6593591142737,2422.660471335359,None,0,4,,R22N06,2022-11-30_10h39.18.374,t1_Paradigm,2021.1.4,60.000461959926454,
H,right,Target,0,61,61,61,2424.1592320766213,2426.161190894607,left,0,4,0.6316639430588111,R22N06,2022-11-30_10h39.18.374,t1_Paradigm,2021.1.4,60.000461959926454,
Z,left,Distractor,0,62,62,62,2427.659288858602,2429.6605274757458,left,1,4,0.6041532330709742,R22N06,2022-11-30_10h39.18.374,t1_Paradigm,2021.1.4,60.000461959926454,
R,right,Target,0,63,63,63,2431.1591294199316,2433.1595820717775,left,0,4,0.5611397587490501,R22N06,2022-11-30_10h39.18.374,t1_Paradigm,2021.1.4,60.000461959926454,
J,left,Pretarget,0,0,0,0,2461.151089476203,2463.144448871506,None,0,4,,R22N06,2022-11-30_10h39.18.374,t1_Paradigm,2021.1.4,60.000461959926454,
G,left,Pretarget,0,1,1,1,2464.64273001354,2466.6432843596704,None,0,4,,R22N06,2022-11-30_10h39.18.374,t1_Paradigm,2021.1.4,60.000461959926454,
Z,left,Distractor,0,2,2,2,2468.142266133611,2470.1447077588527,None,0,4,,R22N06,2022-11-30_10h39.18.374,t1_Paradigm,2021.1.4,60.000461959926454,
F,left,Distractor,0,3,3,3,2471.6425952766294,2473.643247788219,None,0,4,,R22N06,2022-11-30_10h39.18.374,t1_Paradigm,2021.1.4,60.000461959926454,
J,right,Target,0,4,4,4,2475.1425648004224,2477.1437257834477,right,1,4,0.8813898176013026,R22N06,2022-11-30_10h39.18.374,t1_Paradigm,2021.1.4,60.000461959926454,
G,right,Target,0,5,5,5,2478.642687346859,2480.6438858637266,right,1,4,0.6768168469861848,R22N06,2022-11-30_10h39.18.374,t1_Paradigm,2021.1.4,60.000461959926454,
H,left,Distractor,0,6,6,6,2482.142680610006,2484.142521171336,left,1,4,0.8902805286634248,R22N06,2022-11-30_10h39.18.374,t1_Paradigm,2021.1.4,60.000461959926454,
P,left,Distractor,0,7,7,7,2485.642481391871,2487.643005903403,left,1,4,0.7500572631834075,R22N06,2022-11-30_10h39.18.374,t1_Paradigm,2021.1.4,60.000461959926454,
G,left,Lure,0,8,8,8,2489.1426735523564,2491.1434434775438,left,1,4,1.3134442410664633,R22N06,2022-11-30_10h39.18.374,t1_Paradigm,2021.1.4,60.000461959926454,
S,left,Distractor,0,9,9,9,2492.6425157177,2494.6431685500866,left,1,4,0.8055146532715298,R22N06,2022-11-30_10h39.18.374,t1_Paradigm,2021.1.4,60.000461959926454,
R,left,Pretarget,0,10,10,10,2496.1426796476007,2498.144761974414,left,1,4,0.6802789438952459,R22N06,2022-11-30_10h39.18.374,t1_Paradigm,2021.1.4,60.000461959926454,
T,left,Pretarget,0,11,11,11,2499.6426953669143,2501.643604520228,left,1,4,0.813372060583788,R22N06,2022-11-30_10h39.18.374,t1_Paradigm,2021.1.4,60.000461959926454,
X,left,Distractor,0,12,12,12,2503.142326765228,2505.143426795825,left,1,4,1.1053953790396918,R22N06,2022-11-30_10h39.18.374,t1_Paradigm,2021.1.4,60.000461959926454,
F,left,Pretarget,0,13,13,13,2506.642788078738,2508.6434168509586,left,1,4,0.6135844957607333,R22N06,2022-11-30_10h39.18.374,t1_Paradigm,2021.1.4,60.000461959926454,
R,right,Target,0,14,14,14,2510.142390284047,2512.1433440288674,right,1,4,0.5853805323131382,R22N06,2022-11-30_10h39.18.374,t1_Paradigm,2021.1.4,60.000461959926454,
T,right,Target,0,15,15,15,2513.6427194270655,2515.644629162329,right,1,4,0.5081592821225058,R22N06,2022-11-30_10h39.18.374,t1_Paradigm,2021.1.4,60.000461959926454,
C,left,Distractor,0,16,16,16,2517.142447066042,2519.143753372424,left,1,4,0.6250884611945366,R22N06,2022-11-30_10h39.18.374,t1_Paradigm,2021.1.4,60.000461959926454,
F,right,Target,0,17,17,17,2520.6424156274297,2522.644706154839,right,1,4,0.9481747319514398,R22N06,2022-11-30_10h39.18.374,t1_Paradigm,2021.1.4,60.000461959926454,
M,left,Distractor,0,18,18,18,2524.1424441788113,2526.143987878808,left,1,4,0.5207873383187689,R22N06,2022-11-30_10h39.18.374,t1_Paradigm,2021.1.4,60.000461959926454,
N,left,Distractor,0,19,19,19,2527.6426430761494,2529.644759728806,left,1,4,0.5721057389600901,R22N06,2022-11-30_10h39.18.374,t1_Paradigm,2021.1.4,60.000461959926454,
R,left,Lure,0,20,20,20,2531.1426543042326,2533.142692800495,left,1,4,0.7701144558086526,R22N06,2022-11-30_10h39.18.374,t1_Paradigm,2021.1.4,60.000461959926454,
F,right,Target,0,21,21,21,2534.6427207102824,2536.6439660642645,None,0,4,,R22N06,2022-11-30_10h39.18.374,t1_Paradigm,2021.1.4,60.000461959926454,
P,left,Distractor,0,22,22,22,2538.142493582345,2540.143291096523,left,1,4,0.5214597396552563,R22N06,2022-11-30_10h39.18.374,t1_Paradigm,2021.1.4,60.000461959926454,
L,left,Pretarget,0,23,23,23,2541.642372960734,2543.6556961952156,left,1,4,0.4331265442597214,R22N06,2022-11-30_10h39.18.374,t1_Paradigm,2021.1.4,60.000461959926454,
T,left,Distractor,0,24,24,24,2545.1426713067485,2547.143503146741,left,1,4,0.4974185050232336,R22N06,2022-11-30_10h39.18.374,t1_Paradigm,2021.1.4,60.000461959926454,
F,left,Distractor,0,25,25,25,2548.642405040955,2550.642716860646,right,0,4,0.5179206502216402,R22N06,2022-11-30_10h39.18.374,t1_Paradigm,2021.1.4,60.000461959926454,
V,left,Distractor,0,26,26,26,2552.1424419332034,2554.14334627449,left,1,4,0.6814838768041227,R22N06,2022-11-30_10h39.18.374,t1_Paradigm,2021.1.4,60.000461959926454,
L,right,Target,0,27,27,27,2555.642716219052,2557.6433722594666,left,0,4,0.7012622923357412,R22N06,2022-11-30_10h39.18.374,t1_Paradigm,2021.1.4,60.000461959926454,
S,left,Pretarget,0,28,28,28,2559.1427229558903,2561.142912549971,left,1,4,0.561839749047067,R22N06,2022-11-30_10h39.18.374,t1_Paradigm,2021.1.4,60.000461959926454,
W,left,Distractor,0,29,29,29,2562.6426969709137,2564.6434101141203,left,1,4,0.9816170738631627,R22N06,2022-11-30_10h39.18.374,t1_Paradigm,2021.1.4,60.000461959926454,
Q,left,Distractor,0,30,30,30,2566.1429202492145,2568.1433555777476,left,1,4,0.9374147067283047,R22N06,2022-11-30_10h39.18.374,t1_Paradigm,2021.1.4,60.000461959926454,
L,right,Target,0,31,31,31,2569.6423813015863,2571.6428143845114,right,1,4,0.7981929856032366,R22N06,2022-11-30_10h39.18.374,t1_Paradigm,2021.1.4,60.000461959926454,
S,right,Target,0,32,32,32,2573.142162514516,2575.143938475274,right,1,4,0.7208610586676514,R22N06,2022-11-30_10h39.18.374,t1_Paradigm,2021.1.4,60.000461959926454,
Z,left,Pretarget,0,33,33,33,2576.642747016056,2578.643902224634,left,1,4,0.46881033085810486,R22N06,2022-11-30_10h39.18.374,t1_Paradigm,2021.1.4,60.000461959926454,
F,left,Distractor,0,34,34,34,2580.1427072365914,2582.1433090614446,left,1,4,0.4575896337337326,R22N06,2022-11-30_10h39.18.374,t1_Paradigm,2021.1.4,60.000461959926454,
V,left,Distractor,0,35,35,35,2583.642823366972,2585.6442862248223,left,1,4,0.41263273991353344,R22N06,2022-11-30_10h39.18.374,t1_Paradigm,2021.1.4,60.000461959926454,
M,left,Distractor,0,36,36,36,2587.14281502612,2589.1426411513385,left,1,4,0.45033950492506847,R22N06,2022-11-30_10h39.18.374,t1_Paradigm,2021.1.4,60.000461959926454,
Z,right,Target,0,37,37,37,2590.642631527284,2592.644545432966,right,1,4,0.5321254490409046,R22N06,2022-11-30_10h39.18.374,t1_Paradigm,2021.1.4,60.000461959926454,
H,left,Pretarget,0,38,38,38,2594.142658474666,2596.144328249895,left,1,4,0.4084879760048352,R22N06,2022-11-30_10h39.18.374,t1_Paradigm,2021.1.4,60.000461959926454,
L,left,Distractor,0,39,39,39,2597.6427258431067,2599.655412285312,left,1,4,0.36952077930618543,R22N06,2022-11-30_10h39.18.374,t1_Paradigm,2021.1.4,60.000461959926454,
G,left,Distractor,0,40,40,40,2601.1424294219178,2603.1450519795762,left,1,4,0.8317395882040728,R22N06,2022-11-30_10h39.18.374,t1_Paradigm,2021.1.4,60.000461959926454,
K,left,Distractor,0,41,41,41,2604.6426713067485,2606.6445139943535,left,1,4,0.8042551840044325,R22N06,2022-11-30_10h39.18.374,t1_Paradigm,2021.1.4,60.000461959926454,
H,right,Target,0,42,42,42,2608.142779096277,2610.1442198187724,right,1,4,0.7287540749821346,R22N06,2022-11-30_10h39.18.374,t1_Paradigm,2021.1.4,60.000461959926454,
B,left,Distractor,0,43,43,43,2611.642582765344,2613.64352431969,left,1,4,0.5253722427878529,R22N06,2022-11-30_10h39.18.374,t1_Paradigm,2021.1.4,60.000461959926454,
Z,left,Distractor,0,44,44,44,2615.1426924796833,2617.142295968224,left,1,4,0.6584512441622792,R22N06,2022-11-30_10h39.18.374,t1_Paradigm,2021.1.4,60.000461959926454,
T,left,Pretarget,0,45,45,45,2618.642683818034,2620.6422513767175,left,1,4,0.9826369039219571,R22N06,2022-11-30_10h39.18.374,t1_Paradigm,2021.1.4,60.000461959926454,
H,right,Target,0,46,46,46,2622.1423601286515,2624.1440103349596,right,1,4,0.9208064581325743,R22N06,2022-11-30_10h39.18.374,t1_Paradigm,2021.1.4,60.000461959926454,
F,left,Distractor,0,47,47,47,2625.642406644969,2627.6439695930894,left,1,4,0.7007599161588587,R22N06,2022-11-30_10h39.18.374,t1_Paradigm,2021.1.4,60.000461959926454,
R,left,Distractor,0,48,48,48,2629.142560309192,2631.14339856524,left,1,4,1.2815751129382988,R22N06,2022-11-30_10h39.18.374,t1_Paradigm,2021.1.4,60.000461959926454,
T,right,Target,0,49,49,49,2632.6423944544804,2634.6442111571087,left,0,4,1.1885922110523097,R22N06,2022-11-30_10h39.18.374,t1_Paradigm,2021.1.4,60.000461959926454,
H,right,Target,0,50,50,50,2636.1427264847152,2638.1441620743863,right,1,4,1.176548656396335,R22N06,2022-11-30_10h39.18.374,t1_Paradigm,2021.1.4,60.000461959926454,
Y,left,Pretarget,0,51,51,51,2639.6427482992585,2641.6432859636843,left,1,4,0.797599180805264,R22N06,2022-11-30_10h39.18.374,t1_Paradigm,2021.1.4,60.000461959926454,
H,left,Distractor,0,52,52,52,2643.1425757077086,2645.142775888249,left,1,4,0.8664439658168703,R22N06,2022-11-30_10h39.18.374,t1_Paradigm,2021.1.4,60.000461959926454,
S,left,Distractor,0,53,53,53,2646.6426491713937,2648.6430251515267,left,1,4,0.933767186186742,R22N06,2022-11-30_10h39.18.374,t1_Paradigm,2021.1.4,60.000461959926454,
Q,left,Distractor,0,54,54,54,2650.142505772834,2652.1444873677683,left,1,4,0.8243313039420173,R22N06,2022-11-30_10h39.18.374,t1_Paradigm,2021.1.4,60.000461959926454,
Y,right,Target,0,55,55,55,2653.6423928504664,2655.6443407611805,right,1,4,0.9405996305576991,R22N06,2022-11-30_10h39.18.374,t1_Paradigm,2021.1.4,60.000461959926454,
R,left,Distractor,0,56,56,56,2657.142694725306,2659.1435114876076,left,1,4,0.8172617867530789,R22N06,2022-11-30_10h39.18.374,t1_Paradigm,2021.1.4,60.000461959926454,
H,left,Pretarget,0,57,57,57,2660.642553572354,2662.6438964501867,left,1,4,0.4848847646644572,R22N06,2022-11-30_10h39.18.374,t1_Paradigm,2021.1.4,60.000461959926454,
J,left,Distractor,0,58,58,58,2664.14276626418,2666.143822344893,left,1,4,0.5529878550732974,R22N06,2022-11-30_10h39.18.374,t1_Paradigm,2021.1.4,60.000461959926454,
V,left,Distractor,0,59,59,59,2667.642577311708,2669.643532018934,left,1,4,0.5253850748704281,R22N06,2022-11-30_10h39.18.374,t1_Paradigm,2021.1.4,60.000461959926454,
Y,left,Lure,0,60,60,60,2671.142616449579,2673.1444700444554,left,1,4,0.6724751105648465,R22N06,2022-11-30_10h39.18.374,t1_Paradigm,2021.1.4,60.000461959926454,
H,right,Target,0,61,61,61,2674.6427550361113,2676.6448068867176,right,1,4,0.9480704712477745,R22N06,2022-11-30_10h39.18.374,t1_Paradigm,2021.1.4,60.000461959926454,
L,left,Distractor,0,62,62,62,2678.1427957779815,2680.1556496789126,left,1,4,0.4774257936514914,R22N06,2022-11-30_10h39.18.374,t1_Paradigm,2021.1.4,60.000461959926454,
P,left,Distractor,0,63,63,63,2681.6427823042904,2683.643248750639,left,1,4,0.3656429228140041,R22N06,2022-11-30_10h39.18.374,t1_Paradigm,2021.1.4,60.000461959926454,
