Letter,CorrAnswer,Stimulus,nback_run.thisRepN,nback_run.thisTrialN,nback_run.thisN,nback_run.thisIndex,fixcross.started,nback_trial.started,trial_resp.keys,trial_resp.corr,currentlevel,trial_resp.rt,Participant,date,expName,psychopyVersion,frameRate,
H,left,Distractor,0,0,0,0,2063.5050712405355,2065.4419425083906,None,0,1,,R29L09,2022-12-02_09h15.02.680,t1_Paradigm,2021.1.4,60.02507153825378,
Q,left,Pretarget,0,1,1,1,2066.9440838628216,2068.9430088547815,left,1,1,0.5680822382564656,R29L09,2022-12-02_09h15.02.680,t1_Paradigm,2021.1.4,60.02507153825378,
Q,right,Target,0,2,2,2,2070.4403603121464,2072.4406310691847,right,1,1,0.8305218231980689,R29L09,2022-12-02_09h15.02.680,t1_Paradigm,2021.1.4,60.02507153825378,
T,left,Distractor,0,3,3,3,2073.940527129278,2075.9424875512777,left,1,1,0.7366320136352442,R29L09,2022-12-02_09h15.02.680,t1_Paradigm,2021.1.4,60.02507153825378,
Q,left,Lure,0,4,4,4,2077.440449815942,2079.440227820858,left,1,1,0.8069088594638743,R29L09,2022-12-02_09h15.02.680,t1_Paradigm,2021.1.4,60.02507153825378,
L,left,Distractor,0,5,5,5,2080.940605725802,2082.942008272832,left,1,1,0.6653414329630323,R29L09,2022-12-02_09h15.02.680,t1_Paradigm,2021.1.4,60.02507153825378,
V,left,Pretarget,0,6,6,6,2084.4404770841356,2086.4420596011914,left,1,1,0.7972251254832372,R29L09,2022-12-02_09h15.02.680,t1_Paradigm,2021.1.4,60.02507153825378,
V,right,Target,0,7,7,7,2087.9404697056743,2089.9404565528093,right,1,1,0.6108246347866952,R29L09,2022-12-02_09h15.02.680,t1_Paradigm,2021.1.4,60.02507153825378,
K,left,Distractor,0,8,8,8,2091.4403471592523,2093.4419867791003,left,1,1,0.5170288202352822,R29L09,2022-12-02_09h15.02.680,t1_Paradigm,2021.1.4,60.02507153825378,
G,left,Pretarget,0,9,9,9,2094.940274978784,2096.9424567542737,left,1,1,0.6648156382143497,R29L09,2022-12-02_09h15.02.680,t1_Paradigm,2021.1.4,60.02507153825378,
G,right,Target,0,10,10,10,2098.440748482768,2100.4406570541323,left,0,1,0.7504605115100276,R29L09,2022-12-02_09h15.02.680,t1_Paradigm,2021.1.4,60.02507153825378,
G,right,Target,0,11,11,11,2101.9406028385856,2103.940529695683,right,1,1,0.6426523794361856,R29L09,2022-12-02_09h15.02.680,t1_Paradigm,2021.1.4,60.02507153825378,
P,left,Pretarget,0,12,12,12,2105.4404822169745,2107.44210002225,left,1,1,0.4689941504911985,R29L09,2022-12-02_09h15.02.680,t1_Paradigm,2021.1.4,60.02507153825378,
P,right,Target,0,13,13,13,2108.9405444525764,2110.9405361117388,left,0,1,0.5706695076951291,R29L09,2022-12-02_09h15.02.680,t1_Paradigm,2021.1.4,60.02507153825378,
G,left,Lure,0,14,14,14,2112.44054862301,2114.440625294723,left,1,1,0.9745767496642657,R29L09,2022-12-02_09h15.02.680,t1_Paradigm,2021.1.4,60.02507153825378,
Y,left,Distractor,0,15,15,15,2115.9404751593247,2117.9419149194146,left,1,1,0.7213303922326304,R29L09,2022-12-02_09h15.02.680,t1_Paradigm,2021.1.4,60.02507153825378,
B,left,Distractor,0,16,16,16,2119.4406904175703,2121.4424529046228,left,1,1,0.8047652594395913,R29L09,2022-12-02_09h15.02.680,t1_Paradigm,2021.1.4,60.02507153825378,
T,left,Pretarget,0,17,17,17,2122.9403952795838,2124.9416855458694,left,1,1,0.6013276076409966,R29L09,2022-12-02_09h15.02.680,t1_Paradigm,2021.1.4,60.02507153825378,
T,right,Target,0,18,18,18,2126.440593214502,2128.4405425277655,right,1,1,0.7185313933587167,R29L09,2022-12-02_09h15.02.680,t1_Paradigm,2021.1.4,60.02507153825378,
S,left,Distractor,0,19,19,19,2129.940531620494,2131.9435644841287,left,1,1,0.6716156815818977,R29L09,2022-12-02_09h15.02.680,t1_Paradigm,2021.1.4,60.02507153825378,
T,left,Lure,0,20,20,20,2133.440488312219,2135.442662709247,left,1,1,0.7086834086803719,R29L09,2022-12-02_09h15.02.680,t1_Paradigm,2021.1.4,60.02507153825378,
J,left,Distractor,0,21,21,21,2136.940175209311,2138.9420801325177,left,1,1,0.6489997709286399,R29L09,2022-12-02_09h15.02.680,t1_Paradigm,2021.1.4,60.02507153825378,
P,left,Distractor,0,22,22,22,2140.440620803507,2142.4422504784598,left,1,1,0.6048811331856996,R29L09,2022-12-02_09h15.02.680,t1_Paradigm,2021.1.4,60.02507153825378,
F,left,Distractor,0,23,23,23,2143.940512051573,2145.9421080423053,left,1,1,0.48154553497442976,R29L09,2022-12-02_09h15.02.680,t1_Paradigm,2021.1.4,60.02507153825378,
L,left,Distractor,0,24,24,24,2147.4405495854153,2149.44307943125,left,1,1,0.6281726531742606,R29L09,2022-12-02_09h15.02.680,t1_Paradigm,2021.1.4,60.02507153825378,
W,left,Pretarget,0,25,25,25,2150.9405608134985,2152.9419967239664,left,1,1,0.5052284336125012,R29L09,2022-12-02_09h15.02.680,t1_Paradigm,2021.1.4,60.02507153825378,
W,right,Target,0,26,26,26,2154.4403086630045,2156.440549264633,right,1,1,0.5586403891211376,R29L09,2022-12-02_09h15.02.680,t1_Paradigm,2021.1.4,60.02507153825378,
V,left,Distractor,0,27,27,27,2157.94040522445,2159.942669125303,left,1,1,0.6565796843497083,R29L09,2022-12-02_09h15.02.680,t1_Paradigm,2021.1.4,60.02507153825378,
W,left,Lure,0,28,28,28,2161.4405595302815,2163.442006348021,left,1,1,1.1093511904473417,R29L09,2022-12-02_09h15.02.680,t1_Paradigm,2021.1.4,60.02507153825378,
R,left,Pretarget,0,29,29,29,2164.9404167733155,2166.9424670199223,left,1,1,0.6810899317497388,R29L09,2022-12-02_09h15.02.680,t1_Paradigm,2021.1.4,60.02507153825378,
R,right,Target,0,30,30,30,2168.4406557709444,2170.4405659463373,right,1,1,0.6066009535570629,R29L09,2022-12-02_09h15.02.680,t1_Paradigm,2021.1.4,60.02507153825378,
G,left,Distractor,0,31,31,31,2171.9406461468607,2173.942108363117,left,1,1,0.6413573011232074,R29L09,2022-12-02_09h15.02.680,t1_Paradigm,2021.1.4,60.02507153825378,
R,left,Lure,0,32,32,32,2175.440559209499,2177.4406904175703,left,1,1,0.8384295964206103,R29L09,2022-12-02_09h15.02.680,t1_Paradigm,2021.1.4,60.02507153825378,
S,left,Distractor,0,33,33,33,2178.9403898259334,2180.9398178356932,left,1,1,0.6353072931815404,R29L09,2022-12-02_09h15.02.680,t1_Paradigm,2021.1.4,60.02507153825378,
R,left,Lure,0,34,34,34,2182.44061952029,2184.4405444525764,left,1,1,0.798979913291987,R29L09,2022-12-02_09h15.02.680,t1_Paradigm,2021.1.4,60.02507153825378,
P,left,Pretarget,0,35,35,35,2185.9404600816197,2187.941685225058,left,1,1,0.609690278331982,R29L09,2022-12-02_09h15.02.680,t1_Paradigm,2021.1.4,60.02507153825378,
P,right,Target,0,36,36,36,2189.440504031518,2191.4403275903314,right,1,1,0.4549580936145503,R29L09,2022-12-02_09h15.02.680,t1_Paradigm,2021.1.4,60.02507153825378,
Y,left,Pretarget,0,37,37,37,2192.940703891247,2194.9416849042755,left,1,1,0.5374822034791578,R29L09,2022-12-02_09h15.02.680,t1_Paradigm,2021.1.4,60.02507153825378,
Y,right,Target,0,38,38,38,2196.440454307187,2198.4402698459453,right,1,1,0.526875200914219,R29L09,2022-12-02_09h15.02.680,t1_Paradigm,2021.1.4,60.02507153825378,
J,left,Distractor,0,39,39,39,2199.940580061637,2201.9415495257417,left,1,1,0.6416768200579099,R29L09,2022-12-02_09h15.02.680,t1_Paradigm,2021.1.4,60.02507153825378,
Y,left,Lure,0,40,40,40,2203.440545414982,2205.4419665685564,left,1,1,0.5171561786846723,R29L09,2022-12-02_09h15.02.680,t1_Paradigm,2021.1.4,60.02507153825378,
T,left,Distractor,0,41,41,41,2206.9405062771402,2208.941748743906,left,1,1,0.8735381847654935,R29L09,2022-12-02_09h15.02.680,t1_Paradigm,2021.1.4,60.02507153825378,
V,left,Distractor,0,42,42,42,2210.440588723286,2212.4420689044346,left,1,1,0.6051746671437286,R29L09,2022-12-02_09h15.02.680,t1_Paradigm,2021.1.4,60.02507153825378,
N,left,Pretarget,0,43,43,43,2213.9404972946795,2215.9421738067467,left,1,1,0.6411205491167493,R29L09,2022-12-02_09h15.02.680,t1_Paradigm,2021.1.4,60.02507153825378,
N,right,Target,0,44,44,44,2217.4405543974426,2219.440665394999,left,0,1,0.6146473133121617,R29L09,2022-12-02_09h15.02.680,t1_Paradigm,2021.1.4,60.02507153825378,
N,right,Target,0,45,45,45,2220.9402005526645,2222.9406172746676,right,1,1,0.4585882908431813,R29L09,2022-12-02_09h15.02.680,t1_Paradigm,2021.1.4,60.02507153825378,
X,left,Distractor,0,46,46,46,2224.4405236004386,2226.443371361209,left,1,1,0.6677936446503736,R29L09,2022-12-02_09h15.02.680,t1_Paradigm,2021.1.4,60.02507153825378,
Z,left,Distractor,0,47,47,47,2227.940575570392,2229.9420480522967,left,1,1,0.6094439022708684,R29L09,2022-12-02_09h15.02.680,t1_Paradigm,2021.1.4,60.02507153825378,
H,left,Pretarget,0,48,48,48,2231.4405627383094,2233.4420028192108,left,1,1,0.693173907493474,R29L09,2022-12-02_09h15.02.680,t1_Paradigm,2021.1.4,60.02507153825378,
H,right,Target,0,49,49,49,2234.9405733247695,2236.940559851093,right,1,1,0.4587162909156177,R29L09,2022-12-02_09h15.02.680,t1_Paradigm,2021.1.4,60.02507153825378,
K,left,Distractor,0,50,50,50,2238.4402785075945,2240.441961114935,left,1,1,0.7011663724842947,R29L09,2022-12-02_09h15.02.680,t1_Paradigm,2021.1.4,60.02507153825378,
V,left,Pretarget,0,51,51,51,2241.940446607943,2243.9418722527334,left,1,1,0.6095725439372472,R29L09,2022-12-02_09h15.02.680,t1_Paradigm,2021.1.4,60.02507153825378,
V,right,Target,0,52,52,52,2245.440573003987,2247.440540282172,right,1,1,0.4067251681408379,R29L09,2022-12-02_09h15.02.680,t1_Paradigm,2021.1.4,60.02507153825378,
R,left,Distractor,0,53,53,53,2248.9405268084665,2250.941862949461,left,1,1,0.5213378348271362,R29L09,2022-12-02_09h15.02.680,t1_Paradigm,2021.1.4,60.02507153825378,
V,left,Lure,0,54,54,54,2252.4403949587722,2254.440544131794,left,1,1,0.7667851709993556,R29L09,2022-12-02_09h15.02.680,t1_Paradigm,2021.1.4,60.02507153825378,
Y,left,Distractor,0,55,55,55,2255.9407103073027,2257.9424134459696,left,1,1,0.8166609243198764,R29L09,2022-12-02_09h15.02.680,t1_Paradigm,2021.1.4,60.02507153825378,
Q,left,Distractor,0,56,56,56,2259.4405608134985,2261.4419941575325,left,1,1,0.8052355554245878,R29L09,2022-12-02_09h15.02.680,t1_Paradigm,2021.1.4,60.02507153825378,
Z,left,Pretarget,0,57,57,57,2262.940502106707,2264.942031691404,left,1,1,0.7617181008972693,R29L09,2022-12-02_09h15.02.680,t1_Paradigm,2021.1.4,60.02507153825378,
Z,right,Target,0,58,58,58,2266.4407241017907,2268.44068496392,right,1,1,0.44661627506138757,R29L09,2022-12-02_09h15.02.680,t1_Paradigm,2021.1.4,60.02507153825378,
B,left,Distractor,0,59,59,59,2269.9403189286822,2271.941725966928,left,1,1,0.8493583636009134,R29L09,2022-12-02_09h15.02.680,t1_Paradigm,2021.1.4,60.02507153825378,
S,left,Pretarget,0,60,60,60,2273.440529054089,2275.442481776816,left,1,1,0.5807953070325311,R29L09,2022-12-02_09h15.02.680,t1_Paradigm,2021.1.4,60.02507153825378,
S,right,Target,0,61,61,61,2276.940462968836,2278.940359349741,right,1,1,0.41106722538825125,R29L09,2022-12-02_09h15.02.680,t1_Paradigm,2021.1.4,60.02507153825378,
T,left,Distractor,0,62,62,62,2280.4405005026783,2282.440683039109,left,1,1,0.5905380686454009,R29L09,2022-12-02_09h15.02.680,t1_Paradigm,2021.1.4,60.02507153825378,
D,left,Distractor,0,63,63,63,2283.940593214502,2285.942289937142,left,1,1,0.5928574682329781,R29L09,2022-12-02_09h15.02.680,t1_Paradigm,2021.1.4,60.02507153825378,
R,left,Distractor,0,0,0,0,2303.456015136733,2305.4593431383255,None,0,1,,R29L09,2022-12-02_09h15.02.680,t1_Paradigm,2021.1.4,60.02507153825378,
V,left,Distractor,0,1,1,1,2306.957072179852,2308.9583354987553,left,1,1,0.8090136424289085,R29L09,2022-12-02_09h15.02.680,t1_Paradigm,2021.1.4,60.02507153825378,
N,left,Pretarget,0,2,2,2,2310.4572508666315,2312.4591217848356,left,1,1,0.6840028153674211,R29L09,2022-12-02_09h15.02.680,t1_Paradigm,2021.1.4,60.02507153825378,
N,right,Target,0,3,3,3,2313.9571321698313,2315.95721172879,right,1,1,0.5779882881324738,R29L09,2022-12-02_09h15.02.680,t1_Paradigm,2021.1.4,60.02507153825378,
S,left,Distractor,0,4,4,4,2317.457020530681,2319.4591747171944,left,1,1,0.7561290856683627,R29L09,2022-12-02_09h15.02.680,t1_Paradigm,2021.1.4,60.02507153825378,
N,left,Lure,0,5,5,5,2320.9572672275535,2322.9587698648684,left,1,1,0.63240146721364,R29L09,2022-12-02_09h15.02.680,t1_Paradigm,2021.1.4,60.02507153825378,
Z,left,Distractor,0,6,6,6,2324.4565864853794,2326.4583133634005,left,1,1,0.6369071335648187,R29L09,2022-12-02_09h15.02.680,t1_Paradigm,2021.1.4,60.02507153825378,
L,left,Pretarget,0,7,7,7,2327.9569881296775,2329.9584051128186,left,1,1,0.7208446977601852,R29L09,2022-12-02_09h15.02.680,t1_Paradigm,2021.1.4,60.02507153825378,
L,right,Target,0,8,8,8,2331.457238676172,2333.4572069167334,right,1,1,0.5178378832933959,R29L09,2022-12-02_09h15.02.680,t1_Paradigm,2021.1.4,60.02507153825378,
H,left,Distractor,0,9,9,9,2334.957019889087,2336.957495638693,left,1,1,0.6336009464866947,R29L09,2022-12-02_09h15.02.680,t1_Paradigm,2021.1.4,60.02507153825378,
L,left,Lure,0,10,10,10,2338.4571799693513,2340.457792380679,left,1,1,0.7976110504532699,R29L09,2022-12-02_09h15.02.680,t1_Paradigm,2021.1.4,60.02507153825378,
X,left,Pretarget,0,11,11,11,2341.9570580645523,2343.9586999299936,left,1,1,0.5765260719053913,R29L09,2022-12-02_09h15.02.680,t1_Paradigm,2021.1.4,60.02507153825378,
X,right,Target,0,12,12,12,2345.45727011477,2347.4572797388246,right,1,1,0.677922331233276,R29L09,2022-12-02_09h15.02.680,t1_Paradigm,2021.1.4,60.02507153825378,
X,right,Target,0,13,13,13,2348.9572168615996,2350.957225523278,right,1,1,0.6339429215877317,R29L09,2022-12-02_09h15.02.680,t1_Paradigm,2021.1.4,60.02507153825378,
R,left,Distractor,0,14,14,14,2352.4571671372687,2354.459604912874,left,1,1,0.571650841506198,R29L09,2022-12-02_09h15.02.680,t1_Paradigm,2021.1.4,60.02507153825378,
T,left,Distractor,0,15,15,15,2355.957202746329,2357.9589771030587,left,1,1,0.6084808542218525,R29L09,2022-12-02_09h15.02.680,t1_Paradigm,2021.1.4,60.02507153825378,
V,left,Pretarget,0,16,16,16,2359.457281342853,2361.4573753378936,left,1,1,0.7259849107649643,R29L09,2022-12-02_09h15.02.680,t1_Paradigm,2021.1.4,60.02507153825378,
V,right,Target,0,17,17,17,2362.957236109738,2364.9573865659477,right,1,1,0.6980035839951597,R29L09,2022-12-02_09h15.02.680,t1_Paradigm,2021.1.4,60.02507153825378,
N,left,Distractor,0,18,18,18,2366.457177082135,2368.45744366874,left,1,1,0.7177377288462594,R29L09,2022-12-02_09h15.02.680,t1_Paradigm,2021.1.4,60.02507153825378,
B,left,Distractor,0,19,19,19,2369.957228731306,2371.9588045114942,left,1,1,0.7364491563930642,R29L09,2022-12-02_09h15.02.680,t1_Paradigm,2021.1.4,60.02507153825378,
V,left,Lure,0,20,20,20,2373.4572470170096,2375.458795208251,left,1,1,0.9324005689704791,R29L09,2022-12-02_09h15.02.680,t1_Paradigm,2021.1.4,60.02507153825378,
P,left,Distractor,0,21,21,21,2376.95716745808,2378.9576130522764,left,1,1,0.5855329133337364,R29L09,2022-12-02_09h15.02.680,t1_Paradigm,2021.1.4,60.02507153825378,
K,left,Pretarget,0,22,22,22,2380.4572736436094,2382.4575828968664,left,1,1,0.6376687178853899,R29L09,2022-12-02_09h15.02.680,t1_Paradigm,2021.1.4,60.02507153825378,
K,right,Target,0,23,23,23,2383.9564568813075,2385.9571100345056,right,1,1,0.7061535628454294,R29L09,2022-12-02_09h15.02.680,t1_Paradigm,2021.1.4,60.02507153825378,
J,left,Pretarget,0,24,24,24,2387.457353523321,2389.458646356041,left,1,1,1.02872173814103,R29L09,2022-12-02_09h15.02.680,t1_Paradigm,2021.1.4,60.02507153825378,
J,right,Target,0,25,25,25,2390.956977864,2392.957322726317,right,1,1,0.6664773933880497,R29L09,2022-12-02_09h15.02.680,t1_Paradigm,2021.1.4,60.02507153825378,
H,left,Distractor,0,26,26,26,2394.457254395471,2396.45775356362,left,1,1,0.5734957747336011,R29L09,2022-12-02_09h15.02.680,t1_Paradigm,2021.1.4,60.02507153825378,
J,left,Lure,0,27,27,27,2397.957085332717,2399.958419869712,left,1,1,1.0888763134425972,R29L09,2022-12-02_09h15.02.680,t1_Paradigm,2021.1.4,60.02507153825378,
V,left,Distractor,0,28,28,28,2401.4572081999504,2403.4576348668197,left,1,1,0.8057260619243607,R29L09,2022-12-02_09h15.02.680,t1_Paradigm,2021.1.4,60.02507153825378,
Z,left,Pretarget,0,29,29,29,2404.957172590919,2406.95677960827,left,1,1,0.8425294480402954,R29L09,2022-12-02_09h15.02.680,t1_Paradigm,2021.1.4,60.02507153825378,
Z,right,Target,0,30,30,30,2408.456986525649,2410.457203387923,right,1,1,0.6699869690055493,R29L09,2022-12-02_09h15.02.680,t1_Paradigm,2021.1.4,60.02507153825378,
T,left,Distractor,0,31,31,31,2411.957187027001,2413.958987047925,left,1,1,0.6563291378843132,R29L09,2022-12-02_09h15.02.680,t1_Paradigm,2021.1.4,60.02507153825378,
Z,left,Lure,0,32,32,32,2415.4572604907153,2417.4587823761394,left,1,1,0.7086016041284893,R29L09,2022-12-02_09h15.02.680,t1_Paradigm,2021.1.4,60.02507153825378,
F,left,Distractor,0,33,33,33,2418.9572697939584,2420.959496160969,left,1,1,0.6316199931607116,R29L09,2022-12-02_09h15.02.680,t1_Paradigm,2021.1.4,60.02507153825378,
Y,left,Pretarget,0,34,34,34,2422.457295778935,2424.458138205402,left,1,1,0.6051480405731127,R29L09,2022-12-02_09h15.02.680,t1_Paradigm,2021.1.4,60.02507153825378,
Y,right,Target,0,35,35,35,2425.973887987435,2427.9572377137665,right,1,1,0.4981858637765981,R29L09,2022-12-02_09h15.02.680,t1_Paradigm,2021.1.4,60.02507153825378,
Y,right,Target,0,36,36,36,2429.4569948665157,2431.457067047013,right,1,1,0.5500005453650374,R29L09,2022-12-02_09h15.02.680,t1_Paradigm,2021.1.4,60.02507153825378,
W,left,Distractor,0,37,37,37,2432.957215899194,2434.959258446557,left,1,1,0.5360055511700921,R29L09,2022-12-02_09h15.02.680,t1_Paradigm,2021.1.4,60.02507153825378,
Q,left,Distractor,0,38,38,38,2436.457048119686,2438.4589450228377,left,1,1,0.6043258246209007,R29L09,2022-12-02_09h15.02.680,t1_Paradigm,2021.1.4,60.02507153825378,
P,left,Pretarget,0,39,39,39,2439.9574584256334,2441.9591506570287,left,1,1,0.7520439909421839,R29L09,2022-12-02_09h15.02.680,t1_Paradigm,2021.1.4,60.02507153825378,
P,right,Target,0,40,40,40,2443.457304761396,2445.457319839101,right,1,1,0.4699097198608797,R29L09,2022-12-02_09h15.02.680,t1_Paradigm,2021.1.4,60.02507153825378,
J,left,Distractor,0,41,41,41,2446.957299628557,2448.957561082323,left,1,1,0.6175765578227583,R29L09,2022-12-02_09h15.02.680,t1_Paradigm,2021.1.4,60.02507153825378,
P,left,Lure,0,42,42,42,2450.457196651085,2452.458465102827,left,1,1,0.5728439047234133,R29L09,2022-12-02_09h15.02.680,t1_Paradigm,2021.1.4,60.02507153825378,
L,left,Distractor,0,43,43,43,2453.9571825357853,2455.9594499654486,left,1,1,0.5920840142352972,R29L09,2022-12-02_09h15.02.680,t1_Paradigm,2021.1.4,60.02507153825378,
Z,left,Distractor,0,44,44,44,2457.457250545849,2459.4590948374534,left,1,1,0.6283134853001684,R29L09,2022-12-02_09h15.02.680,t1_Paradigm,2021.1.4,60.02507153825378,
F,left,Pretarget,0,45,45,45,2460.957382716326,2462.9588150979835,left,1,1,0.5044957214558963,R29L09,2022-12-02_09h15.02.680,t1_Paradigm,2021.1.4,60.02507153825378,
F,right,Target,0,46,46,46,2464.4571113176935,2466.457229052088,right,1,1,0.526063571422128,R29L09,2022-12-02_09h15.02.680,t1_Paradigm,2021.1.4,60.02507153825378,
G,left,Pretarget,0,47,47,47,2467.9569358389126,2469.9590216945508,left,1,1,0.6722871205129195,R29L09,2022-12-02_09h15.02.680,t1_Paradigm,2021.1.4,60.02507153825378,
G,right,Target,0,48,48,48,2471.4571453227254,2473.457078275067,right,1,1,1.0465086138574407,R29L09,2022-12-02_09h15.02.680,t1_Paradigm,2021.1.4,60.02507153825378,
V,left,Distractor,0,49,49,49,2474.9572107663844,2476.957972350705,left,1,1,1.273426417290466,R29L09,2022-12-02_09h15.02.680,t1_Paradigm,2021.1.4,60.02507153825378,
G,left,Lure,0,50,50,50,2478.457175157324,2480.4584246817394,left,1,1,0.8608597626443952,R29L09,2022-12-02_09h15.02.680,t1_Paradigm,2021.1.4,60.02507153825378,
Q,left,Pretarget,0,51,51,51,2481.957434044685,2483.9593896546285,left,1,1,0.6879923109954689,R29L09,2022-12-02_09h15.02.680,t1_Paradigm,2021.1.4,60.02507153825378,
Q,right,Target,0,52,52,52,2485.4573275383445,2487.457285834069,right,1,1,0.758095923694782,R29L09,2022-12-02_09h15.02.680,t1_Paradigm,2021.1.4,60.02507153825378,
Y,left,Distractor,0,53,53,53,2488.9572319393046,2490.958991859952,left,1,1,0.9202396007021889,R29L09,2022-12-02_09h15.02.680,t1_Paradigm,2021.1.4,60.02507153825378,
V,left,Distractor,0,54,54,54,2492.4570314379525,2494.4574330822797,left,1,1,0.7499924611474853,R29L09,2022-12-02_09h15.02.680,t1_Paradigm,2021.1.4,60.02507153825378,
B,left,Distractor,0,55,55,55,2495.957251187443,2497.9573859243537,left,1,1,0.9777911872952245,R29L09,2022-12-02_09h15.02.680,t1_Paradigm,2021.1.4,60.02507153825378,
J,left,Pretarget,0,56,56,56,2499.4570410620363,2501.458965554193,left,1,1,1.0606030567432754,R29L09,2022-12-02_09h15.02.680,t1_Paradigm,2021.1.4,60.02507153825378,
J,right,Target,0,57,57,57,2502.957175157324,2504.95723290171,right,1,1,0.5700686452328227,R29L09,2022-12-02_09h15.02.680,t1_Paradigm,2021.1.4,60.02507153825378,
H,left,Distractor,0,58,58,58,2506.457299628557,2508.4568197085464,left,1,1,0.6384646280494053,R29L09,2022-12-02_09h15.02.680,t1_Paradigm,2021.1.4,60.02507153825378,
J,left,Lure,0,59,59,59,2509.9584031880077,2511.957471257716,left,1,1,0.6739020385721233,R29L09,2022-12-02_09h15.02.680,t1_Paradigm,2021.1.4,60.02507153825378,
D,left,Pretarget,0,60,60,60,2513.457304761396,2515.458547548973,left,1,1,1.0288481341849547,R29L09,2022-12-02_09h15.02.680,t1_Paradigm,2021.1.4,60.02507153825378,
D,right,Target,0,61,61,61,2516.9571020144504,2518.9570227763033,right,1,1,0.6984225516207516,R29L09,2022-12-02_09h15.02.680,t1_Paradigm,2021.1.4,60.02507153825378,
R,left,Distractor,0,62,62,62,2520.457075067068,2522.457762866892,left,1,1,0.5734749225666746,R29L09,2022-12-02_09h15.02.680,t1_Paradigm,2021.1.4,60.02507153825378,
F,left,Distractor,0,63,63,63,2523.957065763796,2525.973598623881,left,1,1,0.8978431187570095,R29L09,2022-12-02_09h15.02.680,t1_Paradigm,2021.1.4,60.02507153825378,
F,left,Distractor,0,0,0,0,2665.231469344464,2667.2239920877328,None,0,2,,R29L09,2022-12-02_09h15.02.680,t1_Paradigm,2021.1.4,60.02507153825378,
N,left,Pretarget,0,1,1,1,2668.723952308268,2670.724543867458,None,0,2,,R29L09,2022-12-02_09h15.02.680,t1_Paradigm,2021.1.4,60.02507153825378,
V,left,Distractor,0,2,2,2,2672.223725501128,2674.225965983409,left,1,2,0.9978102044551633,R29L09,2022-12-02_09h15.02.680,t1_Paradigm,2021.1.4,60.02507153825378,
N,right,Target,0,3,3,3,2675.723903225531,2677.724938774889,right,1,2,0.7305903465603478,R29L09,2022-12-02_09h15.02.680,t1_Paradigm,2021.1.4,60.02507153825378,
N,left,Lure,0,4,4,4,2679.2238483683614,2681.2239154160197,left,1,2,1.42353359729168,R29L09,2022-12-02_09h15.02.680,t1_Paradigm,2021.1.4,60.02507153825378,
X,left,Distractor,0,5,5,5,2682.723805060057,2684.724164037674,None,0,2,,R29L09,2022-12-02_09h15.02.680,t1_Paradigm,2021.1.4,60.02507153825378,
G,left,Pretarget,0,6,6,6,2686.224046624091,2688.225561772706,left,1,2,0.8378155810933094,R29L09,2022-12-02_09h15.02.680,t1_Paradigm,2021.1.4,60.02507153825378,
H,left,Pretarget,0,7,7,7,2689.723761110188,2691.725462965638,left,1,2,1.2420554949203506,R29L09,2022-12-02_09h15.02.680,t1_Paradigm,2021.1.4,60.02507153825378,
G,right,Target,0,8,8,8,2693.2239789348387,2695.2255508654343,right,1,2,0.7177993228542618,R29L09,2022-12-02_09h15.02.680,t1_Paradigm,2021.1.4,60.02507153825378,
H,right,Target,0,9,9,9,2696.7237842079194,2698.72611323162,right,1,2,0.8814732261525933,R29L09,2022-12-02_09h15.02.680,t1_Paradigm,2021.1.4,60.02507153825378,
T,left,Pretarget,0,10,10,10,2700.224096990045,2702.225981702737,left,1,2,0.69356624854845,R29L09,2022-12-02_09h15.02.680,t1_Paradigm,2021.1.4,60.02507153825378,
K,left,Distractor,0,11,11,11,2703.7237809999206,2705.7245441882405,left,1,2,0.666773493780056,R29L09,2022-12-02_09h15.02.680,t1_Paradigm,2021.1.4,60.02507153825378,
T,right,Target,0,12,12,12,2707.2238092304906,2709.226365061302,right,1,2,0.7652424334082752,R29L09,2022-12-02_09h15.02.680,t1_Paradigm,2021.1.4,60.02507153825378,
T,left,Lure,0,13,13,13,2710.7240232055483,2712.72405721058,left,1,2,1.2352634716080502,R29L09,2022-12-02_09h15.02.680,t1_Paradigm,2021.1.4,60.02507153825378,
J,left,Distractor,0,14,14,14,2714.2240193559264,2716.2258530610707,None,0,2,,R29L09,2022-12-02_09h15.02.680,t1_Paradigm,2021.1.4,60.02507153825378,
Q,left,Pretarget,0,15,15,15,2717.7240029950044,2719.724620539171,left,1,2,1.4187093744112644,R29L09,2022-12-02_09h15.02.680,t1_Paradigm,2021.1.4,60.02507153825378,
M,left,Distractor,0,16,16,16,2721.2238451603334,2723.2256047601986,left,1,2,1.0058703586983029,R29L09,2022-12-02_09h15.02.680,t1_Paradigm,2021.1.4,60.02507153825378,
Q,right,Target,0,17,17,17,2724.7238332906563,2726.72618220406,right,1,2,0.7531876506400295,R29L09,2022-12-02_09h15.02.680,t1_Paradigm,2021.1.4,60.02507153825378,
R,left,Distractor,0,18,18,18,2728.2240097318427,2730.225941923243,left,1,2,0.9333915268653072,R29L09,2022-12-02_09h15.02.680,t1_Paradigm,2021.1.4,60.02507153825378,
W,left,Distractor,0,19,19,19,2731.7238236666017,2733.7255155771854,left,1,2,0.9699167775106616,R29L09,2022-12-02_09h15.02.680,t1_Paradigm,2021.1.4,60.02507153825378,
C,left,Pretarget,0,20,20,20,2735.2239644987567,2737.2254270357953,left,1,2,0.6060812540526967,R29L09,2022-12-02_09h15.02.680,t1_Paradigm,2021.1.4,60.02507153825378,
T,left,Distractor,0,21,21,21,2738.7239436465898,2740.7262989760493,left,1,2,0.6573383814829867,R29L09,2022-12-02_09h15.02.680,t1_Paradigm,2021.1.4,60.02507153825378,
C,right,Target,0,22,22,22,2742.224256107904,2744.223327385669,right,1,2,0.7438442877610214,R29L09,2022-12-02_09h15.02.680,t1_Paradigm,2021.1.4,60.02507153825378,
F,left,Pretarget,0,23,23,23,2745.724169812136,2747.7243083986687,left,1,2,0.6030204806593247,R29L09,2022-12-02_09h15.02.680,t1_Paradigm,2021.1.4,60.02507153825378,
C,right,Target,0,24,24,24,2749.223793832003,2751.2246776419342,right,1,2,0.6228098034625873,R29L09,2022-12-02_09h15.02.680,t1_Paradigm,2021.1.4,60.02507153825378,
F,right,Target,0,25,25,25,2752.7239776516217,2754.7261000787257,right,1,2,0.6092215863754973,R29L09,2022-12-02_09h15.02.680,t1_Paradigm,2021.1.4,60.02507153825378,
H,left,Distractor,0,26,26,26,2756.2237194058835,2758.225338494405,left,1,2,0.48606275019119494,R29L09,2022-12-02_09h15.02.680,t1_Paradigm,2021.1.4,60.02507153825378,
H,left,Lure,0,27,27,27,2759.724124579021,2761.7240488697134,None,0,2,,R29L09,2022-12-02_09h15.02.680,t1_Paradigm,2021.1.4,60.02507153825378,
P,left,Distractor,0,28,28,28,2763.223698232963,2765.224633050442,left,1,2,0.8469356657005847,R29L09,2022-12-02_09h15.02.680,t1_Paradigm,2021.1.4,60.02507153825378,
G,left,Pretarget,0,29,29,29,2766.7239721980004,2768.7247203086445,left,1,2,0.7867474061495159,R29L09,2022-12-02_09h15.02.680,t1_Paradigm,2021.1.4,60.02507153825378,
K,left,Distractor,0,30,30,30,2770.2240783835005,2772.22332931048,left,1,2,0.6164739608066157,R29L09,2022-12-02_09h15.02.680,t1_Paradigm,2021.1.4,60.02507153825378,
G,right,Target,0,31,31,31,2773.7238836566103,2775.7263015424833,right,1,2,0.6010732115537394,R29L09,2022-12-02_09h15.02.680,t1_Paradigm,2021.1.4,60.02507153825378,
M,left,Pretarget,0,32,32,32,2777.224176228163,2779.225846003421,left,1,2,0.5576407695771195,R29L09,2022-12-02_09h15.02.680,t1_Paradigm,2021.1.4,60.02507153825378,
B,left,Distractor,0,33,33,33,2780.724065551418,2782.726015066146,left,1,2,0.7534667485451791,R29L09,2022-12-02_09h15.02.680,t1_Paradigm,2021.1.4,60.02507153825378,
M,right,Target,0,34,34,34,2784.2240232055483,2786.2258026951167,right,1,2,0.4376700652355794,R29L09,2022-12-02_09h15.02.680,t1_Paradigm,2021.1.4,60.02507153825378,
M,left,Lure,0,35,35,35,2787.723817250546,2789.724244559038,left,1,2,0.9232451961725019,R29L09,2022-12-02_09h15.02.680,t1_Paradigm,2021.1.4,60.02507153825378,
T,left,Distractor,0,36,36,36,2791.224030904792,2793.226047787961,left,1,2,0.669411449925974,R29L09,2022-12-02_09h15.02.680,t1_Paradigm,2021.1.4,60.02507153825378,
F,left,Distractor,0,37,37,37,2794.72400395741,2796.725681752694,left,1,2,0.6738757327839267,R29L09,2022-12-02_09h15.02.680,t1_Paradigm,2021.1.4,60.02507153825378,
X,left,Distractor,0,38,38,38,2798.224222102872,2800.225676299073,left,1,2,0.5177153368713334,R29L09,2022-12-02_09h15.02.680,t1_Paradigm,2021.1.4,60.02507153825378,
C,left,Distractor,0,39,39,39,2801.7240357168193,2803.725608930603,left,1,2,0.8098656929796562,R29L09,2022-12-02_09h15.02.680,t1_Paradigm,2021.1.4,60.02507153825378,
R,left,Distractor,0,40,40,40,2805.2240411704697,2807.22422883971,left,1,2,0.7349991306255106,R29L09,2022-12-02_09h15.02.680,t1_Paradigm,2021.1.4,60.02507153825378,
B,left,Pretarget,0,41,41,41,2808.72405175693,2810.7261478782457,left,1,2,0.7373698585724924,R29L09,2022-12-02_09h15.02.680,t1_Paradigm,2021.1.4,60.02507153825378,
H,left,Distractor,0,42,42,42,2812.2238098721136,2814.2253898227355,left,1,2,0.6461853735963814,R29L09,2022-12-02_09h15.02.680,t1_Paradigm,2021.1.4,60.02507153825378,
B,right,Target,0,43,43,43,2815.7242506542825,2817.7369310012145,right,1,2,0.5904553016589489,R29L09,2022-12-02_09h15.02.680,t1_Paradigm,2021.1.4,60.02507153825378,
W,left,Pretarget,0,44,44,44,2819.224190022651,2821.2245676068123,left,1,2,1.0868607134907506,R29L09,2022-12-02_09h15.02.680,t1_Paradigm,2021.1.4,60.02507153825378,
L,left,Pretarget,0,45,45,45,2822.723826553818,2824.725566905545,left,1,2,0.7059915577701759,R29L09,2022-12-02_09h15.02.680,t1_Paradigm,2021.1.4,60.02507153825378,
W,right,Target,0,46,46,46,2826.2241018020723,2828.2259085598344,right,1,2,0.7574424496851861,R29L09,2022-12-02_09h15.02.680,t1_Paradigm,2021.1.4,60.02507153825378,
L,right,Target,0,47,47,47,2829.7240363584424,2831.725882254046,right,1,2,0.5694681036111433,R29L09,2022-12-02_09h15.02.680,t1_Paradigm,2021.1.4,60.02507153825378,
W,right,Target,0,48,48,48,2833.2239773308393,2835.225882254046,right,1,2,0.7016231947636697,R29L09,2022-12-02_09h15.02.680,t1_Paradigm,2021.1.4,60.02507153825378,
X,left,Distractor,0,49,49,49,2836.724056568957,2838.724740198377,left,1,2,0.8186665794055443,R29L09,2022-12-02_09h15.02.680,t1_Paradigm,2021.1.4,60.02507153825378,
R,left,Distractor,0,50,50,50,2840.2241059725056,2842.224207025167,left,1,2,1.0633648425282445,R29L09,2022-12-02_09h15.02.680,t1_Paradigm,2021.1.4,60.02507153825378,
V,left,Pretarget,0,51,51,51,2843.724129070266,2845.72583702096,left,1,2,0.8417486155813094,R29L09,2022-12-02_09h15.02.680,t1_Paradigm,2021.1.4,60.02507153825378,
Z,left,Distractor,0,52,52,52,2847.223907075153,2849.22616103114,left,1,2,0.7811638445709832,R29L09,2022-12-02_09h15.02.680,t1_Paradigm,2021.1.4,60.02507153825378,
V,right,Target,0,53,53,53,2850.724208308384,2852.7246628850407,right,1,2,0.6749096781713888,R29L09,2022-12-02_09h15.02.680,t1_Paradigm,2021.1.4,60.02507153825378,
V,left,Lure,0,54,54,54,2854.2238130801124,2856.2242500126595,left,1,2,0.72709649024182,R29L09,2022-12-02_09h15.02.680,t1_Paradigm,2021.1.4,60.02507153825378,
N,left,Distractor,0,55,55,55,2857.724035396008,2859.7264378833934,left,1,2,0.809177572344197,R29L09,2022-12-02_09h15.02.680,t1_Paradigm,2021.1.4,60.02507153825378,
B,left,Distractor,0,56,56,56,2861.2240941028285,2863.2248213613057,None,0,2,,R29L09,2022-12-02_09h15.02.680,t1_Paradigm,2021.1.4,60.02507153825378,
V,left,Lure,0,57,57,57,2864.724064909824,2866.72627267029,None,0,2,,R29L09,2022-12-02_09h15.02.680,t1_Paradigm,2021.1.4,60.02507153825378,
J,left,Distractor,0,58,58,58,2868.223815325735,2870.225908880646,None,0,2,,R29L09,2022-12-02_09h15.02.680,t1_Paradigm,2021.1.4,60.02507153825378,
H,left,Distractor,0,59,59,59,2871.7241130301554,2873.736888013722,left,1,2,0.7825885269558057,R29L09,2022-12-02_09h15.02.680,t1_Paradigm,2021.1.4,60.02507153825378,
X,left,Pretarget,0,60,60,60,2875.223969310784,2877.225033090741,left,1,2,0.526611822337145,R29L09,2022-12-02_09h15.02.680,t1_Paradigm,2021.1.4,60.02507153825378,
P,left,Distractor,0,61,61,61,2878.7240260927647,2880.724114634155,left,1,2,0.5634614039736334,R29L09,2022-12-02_09h15.02.680,t1_Paradigm,2021.1.4,60.02507153825378,
X,right,Target,0,62,62,62,2882.2237835663254,2884.2261013619427,right,1,2,0.5174124996119644,R29L09,2022-12-02_09h15.02.680,t1_Paradigm,2021.1.4,60.02507153825378,
Q,left,Distractor,0,63,63,63,2885.724004599004,2887.724906694697,left,1,2,0.9545622237492353,R29L09,2022-12-02_09h15.02.680,t1_Paradigm,2021.1.4,60.02507153825378,
B,left,Pretarget,0,0,0,0,2900.165155367693,2902.158575073787,None,0,2,,R29L09,2022-12-02_09h15.02.680,t1_Paradigm,2021.1.4,60.02507153825378,
F,left,Distractor,0,1,1,1,2903.6575032737746,2905.6580874545034,None,0,2,,R29L09,2022-12-02_09h15.02.680,t1_Paradigm,2021.1.4,60.02507153825378,
B,right,Target,0,2,2,2,2907.1574278852786,2909.1590668635035,right,1,2,0.7683753872697707,R29L09,2022-12-02_09h15.02.680,t1_Paradigm,2021.1.4,60.02507153825378,
V,left,Distractor,0,3,3,3,2910.6572857699066,2912.6587707631115,left,1,2,0.5487786099256482,R29L09,2022-12-02_09h15.02.680,t1_Paradigm,2021.1.4,60.02507153825378,
G,left,Pretarget,0,4,4,4,2914.1573223413725,2916.158723284403,left,1,2,0.8568125225719996,R29L09,2022-12-02_09h15.02.680,t1_Paradigm,2021.1.4,60.02507153825378,
B,left,Lure,0,5,5,5,2917.6573303614277,2919.658908066427,left,1,2,0.9566731019585859,R29L09,2022-12-02_09h15.02.680,t1_Paradigm,2021.1.4,60.02507153825378,
G,right,Target,0,6,6,6,2921.157350892754,2923.158167655056,right,1,2,0.7693759692192543,R29L09,2022-12-02_09h15.02.680,t1_Paradigm,2021.1.4,60.02507153825378,
Y,left,Pretarget,0,7,7,7,2924.657323945372,2926.659561861248,left,1,2,0.7560286745720077,R29L09,2022-12-02_09h15.02.680,t1_Paradigm,2021.1.4,60.02507153825378,
P,left,Distractor,0,8,8,8,2928.15735025116,2930.1589619611914,left,1,2,0.7605683459260035,R29L09,2022-12-02_09h15.02.680,t1_Paradigm,2021.1.4,60.02507153825378,
Y,right,Target,0,9,9,9,2931.657092005422,2933.65903959531,right,1,2,0.716422439989401,R29L09,2022-12-02_09h15.02.680,t1_Paradigm,2021.1.4,60.02507153825378,
X,left,Distractor,0,10,10,10,2935.1574166571954,2937.158771725517,left,1,2,0.7047343341109809,R29L09,2022-12-02_09h15.02.680,t1_Paradigm,2021.1.4,60.02507153825378,
Y,right,Target,0,11,11,11,2938.657168677135,2940.67025515961,right,1,2,0.4412431597011164,R29L09,2022-12-02_09h15.02.680,t1_Paradigm,2021.1.4,60.02507153825378,
N,left,Distractor,0,12,12,12,2942.1574076747347,2944.1589593947865,left,1,2,0.5685294364811853,R29L09,2022-12-02_09h15.02.680,t1_Paradigm,2021.1.4,60.02507153825378,
Y,right,Target,0,13,13,13,2945.6574705519597,2947.6581673342444,right,1,2,0.5574332105752546,R29L09,2022-12-02_09h15.02.680,t1_Paradigm,2021.1.4,60.02507153825378,
Y,left,Lure,0,14,14,14,2949.1573537799704,2951.157387464191,left,1,2,1.0101142504718155,R29L09,2022-12-02_09h15.02.680,t1_Paradigm,2021.1.4,60.02507153825378,
K,left,Distractor,0,15,15,15,2952.657399333868,2954.6591066429683,left,1,2,0.5323830531851854,R29L09,2022-12-02_09h15.02.680,t1_Paradigm,2021.1.4,60.02507153825378,
T,left,Pretarget,0,16,16,16,2956.1574650983384,2958.1593905528716,left,1,2,0.5520876841910649,R29L09,2022-12-02_09h15.02.680,t1_Paradigm,2021.1.4,60.02507153825378,
J,left,Distractor,0,17,17,17,2959.6573788025416,2961.6579296198615,left,1,2,0.5576228046556935,R29L09,2022-12-02_09h15.02.680,t1_Paradigm,2021.1.4,60.02507153825378,
T,right,Target,0,18,18,18,2963.157185679651,2965.1577534994576,right,1,2,0.5299680544994771,R29L09,2022-12-02_09h15.02.680,t1_Paradigm,2021.1.4,60.02507153825378,
S,left,Pretarget,0,19,19,19,2966.657383614569,2968.6593911944947,left,1,2,0.7082041302637663,R29L09,2022-12-02_09h15.02.680,t1_Paradigm,2021.1.4,60.02507153825378,
R,left,Distractor,0,20,20,20,2970.15736789527,2972.1595541619754,left,1,2,0.6799918259785045,R29L09,2022-12-02_09h15.02.680,t1_Paradigm,2021.1.4,60.02507153825378,
S,right,Target,0,21,21,21,2973.6575793038937,2975.657989609841,right,1,2,0.8297040985198691,R29L09,2022-12-02_09h15.02.680,t1_Paradigm,2021.1.4,60.02507153825378,
Q,left,Distractor,0,22,22,22,2977.1574198652233,2979.157318170939,left,1,2,0.9622204129118472,R29L09,2022-12-02_09h15.02.680,t1_Paradigm,2021.1.4,60.02507153825378,
D,left,Distractor,0,23,23,23,2980.6575825119216,2982.658778783167,left,1,2,0.5968755152716767,R29L09,2022-12-02_09h15.02.680,t1_Paradigm,2021.1.4,60.02507153825378,
F,left,Distractor,0,24,24,24,2984.1573858601914,2986.1594364275807,left,1,2,0.5520790225709789,R29L09,2022-12-02_09h15.02.680,t1_Paradigm,2021.1.4,60.02507153825378,
Z,left,Distractor,0,25,25,25,2987.657261709741,2989.6592487583403,left,1,2,0.5883473106950987,R29L09,2022-12-02_09h15.02.680,t1_Paradigm,2021.1.4,60.02507153825378,
P,left,Distractor,0,26,26,26,2991.1573990130855,2993.176317999634,left,1,2,0.9431638022360858,R29L09,2022-12-02_09h15.02.680,t1_Paradigm,2021.1.4,60.02507153825378,
H,left,Distractor,0,27,27,27,2994.6574769680155,2996.657812206249,left,1,2,0.6298427491856273,R29L09,2022-12-02_09h15.02.680,t1_Paradigm,2021.1.4,60.02507153825378,
Z,left,Pretarget,0,28,28,28,2998.1572206470883,3000.1590598058538,left,1,2,0.5525156343064737,R29L09,2022-12-02_09h15.02.680,t1_Paradigm,2021.1.4,60.02507153825378,
J,left,Pretarget,0,29,29,29,3001.6572046069778,3003.657667845284,left,1,2,0.7820130079053342,R29L09,2022-12-02_09h15.02.680,t1_Paradigm,2021.1.4,60.02507153825378,
Z,right,Target,0,30,30,30,3005.1573040556395,3007.158980567736,right,1,2,0.8003596833732445,R29L09,2022-12-02_09h15.02.680,t1_Paradigm,2021.1.4,60.02507153825378,
J,right,Target,0,31,31,31,3008.6574474541994,3010.659416217066,right,1,2,0.7242333309550304,R29L09,2022-12-02_09h15.02.680,t1_Paradigm,2021.1.4,60.02507153825378,
V,left,Pretarget,0,32,32,32,3012.157359233621,3014.1589933998184,left,1,2,0.5525182007113472,R29L09,2022-12-02_09h15.02.680,t1_Paradigm,2021.1.4,60.02507153825378,
Z,left,Lure,0,33,33,33,3015.657554602134,3017.6573714240803,left,1,2,1.0861138860636856,R29L09,2022-12-02_09h15.02.680,t1_Paradigm,2021.1.4,60.02507153825378,
V,right,Target,0,34,34,34,3019.1575404868345,3021.158883043856,right,1,2,0.560727848787792,R29L09,2022-12-02_09h15.02.680,t1_Paradigm,2021.1.4,60.02507153825378,
X,left,Distractor,0,35,35,35,3022.6574070331408,3024.659448297287,left,1,2,0.7243927696545143,R29L09,2022-12-02_09h15.02.680,t1_Paradigm,2021.1.4,60.02507153825378,
S,left,Distractor,0,36,36,36,3026.1574227524397,3028.157721740048,left,1,2,0.9378048021462746,R29L09,2022-12-02_09h15.02.680,t1_Paradigm,2021.1.4,60.02507153825378,
Q,left,Distractor,0,37,37,37,3029.657485308853,3031.6574769680155,left,1,2,1.1180250392353628,R29L09,2022-12-02_09h15.02.680,t1_Paradigm,2021.1.4,60.02507153825378,
P,left,Distractor,0,38,38,38,3033.1575007073698,3035.1575385620235,left,1,2,1.1699308286479209,R29L09,2022-12-02_09h15.02.680,t1_Paradigm,2021.1.4,60.02507153825378,
S,left,Lure,0,39,39,39,3036.6571953037055,3038.6586719560437,left,1,2,1.0130511942552403,R29L09,2022-12-02_09h15.02.680,t1_Paradigm,2021.1.4,60.02507153825378,
K,left,Pretarget,0,40,40,40,3040.157493008126,3042.1591342319734,None,0,2,,R29L09,2022-12-02_09h15.02.680,t1_Paradigm,2021.1.4,60.02507153825378,
L,left,Distractor,0,41,41,41,3043.6571882460557,3045.658894913562,left,1,2,0.8766887827950995,R29L09,2022-12-02_09h15.02.680,t1_Paradigm,2021.1.4,60.02507153825378,
K,right,Target,0,42,42,42,3047.157394842652,3049.157740667375,right,1,2,0.4337944543513004,R29L09,2022-12-02_09h15.02.680,t1_Paradigm,2021.1.4,60.02507153825378,
B,left,Distractor,0,43,43,43,3050.6572350831702,3052.659226302174,left,1,2,0.7403918149357196,R29L09,2022-12-02_09h15.02.680,t1_Paradigm,2021.1.4,60.02507153825378,
N,left,Distractor,0,44,44,44,3054.157244065631,3056.157737459347,left,1,2,0.5697590711642988,R29L09,2022-12-02_09h15.02.680,t1_Paradigm,2021.1.4,60.02507153825378,
S,left,Pretarget,0,45,45,45,3057.657496216125,3059.6595641068416,left,1,2,0.6040069473092444,R29L09,2022-12-02_09h15.02.680,t1_Paradigm,2021.1.4,60.02507153825378,
Z,left,Distractor,0,46,46,46,3061.1573714240803,3063.158144878107,left,1,2,1.0415300851454958,R29L09,2022-12-02_09h15.02.680,t1_Paradigm,2021.1.4,60.02507153825378,
S,right,Target,0,47,47,47,3064.6574063915177,3066.6587110939145,None,0,2,,R29L09,2022-12-02_09h15.02.680,t1_Paradigm,2021.1.4,60.02507153825378,
C,left,Distractor,0,48,48,48,3068.157484988071,3070.1585923971143,left,1,2,1.3689654707850423,R29L09,2022-12-02_09h15.02.680,t1_Paradigm,2021.1.4,60.02507153825378,
T,left,Pretarget,0,49,49,49,3071.6572405368206,3073.6575562061334,left,1,2,1.1821341427857988,R29L09,2022-12-02_09h15.02.680,t1_Paradigm,2021.1.4,60.02507153825378,
S,left,Lure,0,50,50,50,3075.1573820105696,3077.158336717781,left,1,2,1.0572808295546565,R29L09,2022-12-02_09h15.02.680,t1_Paradigm,2021.1.4,60.02507153825378,
T,right,Target,0,51,51,51,3078.6571943413,3080.6579905722465,right,1,2,0.5334975198784377,R29L09,2022-12-02_09h15.02.680,t1_Paradigm,2021.1.4,60.02507153825378,
N,left,Pretarget,0,52,52,52,3082.1573473639437,3084.158953941136,left,1,2,0.9525902528839651,R29L09,2022-12-02_09h15.02.680,t1_Paradigm,2021.1.4,60.02507153825378,
B,left,Distractor,0,53,53,53,3085.657267804985,3087.65986501929,left,1,2,1.3078228248341475,R29L09,2022-12-02_09h15.02.680,t1_Paradigm,2021.1.4,60.02507153825378,
N,right,Target,0,54,54,54,3089.1574513038213,3091.1596327585285,right,1,2,0.7680481690913439,R29L09,2022-12-02_09h15.02.680,t1_Paradigm,2021.1.4,60.02507153825378,
N,left,Lure,0,55,55,55,3092.6572373287927,3094.6574593238765,left,1,2,1.0141993451979943,R29L09,2022-12-02_09h15.02.680,t1_Paradigm,2021.1.4,60.02507153825378,
X,left,Distractor,0,56,56,56,3096.157474722393,3098.159656818665,left,1,2,0.7121374855341855,R29L09,2022-12-02_09h15.02.680,t1_Paradigm,2021.1.4,60.02507153825378,
W,left,Distractor,0,57,57,57,3099.6571972285165,3101.6594069137936,left,1,2,0.7482986257236917,R29L09,2022-12-02_09h15.02.680,t1_Paradigm,2021.1.4,60.02507153825378,
S,left,Distractor,0,58,58,58,3103.157435905334,3105.158070131205,left,1,2,0.6895581463468261,R29L09,2022-12-02_09h15.02.680,t1_Paradigm,2021.1.4,60.02507153825378,
L,left,Distractor,0,59,59,59,3106.6575189930736,3108.6577958453563,left,1,2,1.2539136259292718,R29L09,2022-12-02_09h15.02.680,t1_Paradigm,2021.1.4,60.02507153825378,
K,left,Pretarget,0,60,60,60,3110.1575016697752,3112.158894913562,left,1,2,1.3846289569919463,R29L09,2022-12-02_09h15.02.680,t1_Paradigm,2021.1.4,60.02507153825378,
V,left,Pretarget,0,61,61,61,3113.6574009378965,3115.6590662219096,left,1,2,1.0045602026802953,R29L09,2022-12-02_09h15.02.680,t1_Paradigm,2021.1.4,60.02507153825378,
K,right,Target,0,62,62,62,3117.157340306294,3119.1589090288326,right,1,2,1.1366777600196656,R29L09,2022-12-02_09h15.02.680,t1_Paradigm,2021.1.4,60.02507153825378,
V,right,Target,0,63,63,63,3120.657257218525,3122.6589192945103,right,1,2,0.772944893251406,R29L09,2022-12-02_09h15.02.680,t1_Paradigm,2021.1.4,60.02507153825378,
R,left,Distractor,0,0,0,0,3210.434926885966,3212.4255674829765,None,0,3,,R29L09,2022-12-02_09h15.02.680,t1_Paradigm,2021.1.4,60.02507153825378,
P,left,Lure,0,1,1,1,3213.924129968509,3215.9262106913084,None,0,3,,R29L09,2022-12-02_09h15.02.680,t1_Paradigm,2021.1.4,60.02507153825378,
V,left,Distractor,0,2,2,2,3217.424180334434,3219.4265160949726,None,0,3,,R29L09,2022-12-02_09h15.02.680,t1_Paradigm,2021.1.4,60.02507153825378,
P,left,Pretarget,0,3,3,3,3220.924104945938,3222.9266155436344,left,1,3,1.1291697062551975,R29L09,2022-12-02_09h15.02.680,t1_Paradigm,2021.1.4,60.02507153825378,
Z,left,Distractor,0,4,4,4,3224.424101096316,3226.4258452976355,None,0,3,,R29L09,2022-12-02_09h15.02.680,t1_Paradigm,2021.1.4,60.02507153825378,
L,left,Pretarget,0,5,5,5,3227.924111041182,3229.9259383302706,left,1,3,1.0738185016962234,R29L09,2022-12-02_09h15.02.680,t1_Paradigm,2021.1.4,60.02507153825378,
P,right,Target,0,6,6,6,3231.4242586101755,3233.4246207957913,right,1,3,0.9831928540661465,R29L09,2022-12-02_09h15.02.680,t1_Paradigm,2021.1.4,60.02507153825378,
S,left,Distractor,0,7,7,7,3234.9239586601325,3236.9261532677046,left,1,3,1.2735925928282086,R29L09,2022-12-02_09h15.02.680,t1_Paradigm,2021.1.4,60.02507153825378,
L,right,Target,0,8,8,8,3238.4241873920837,3240.4243981591135,right,1,3,0.70319801257574,R29L09,2022-12-02_09h15.02.680,t1_Paradigm,2021.1.4,60.02507153825378,
D,left,Distractor,0,9,9,9,3241.924219151493,3243.92564960834,None,0,3,,R29L09,2022-12-02_09h15.02.680,t1_Paradigm,2021.1.4,60.02507153825378,
G,left,Distractor,0,10,10,10,3245.424116815615,3247.426323613676,left,1,3,1.0614329719101079,R29L09,2022-12-02_09h15.02.680,t1_Paradigm,2021.1.4,60.02507153825378,
M,left,Pretarget,0,11,11,11,3248.924034369469,3250.9262010672537,left,1,3,0.8575766733265482,R29L09,2022-12-02_09h15.02.680,t1_Paradigm,2021.1.4,60.02507153825378,
Y,left,Distractor,0,12,12,12,3252.4241999033547,3254.4248312420095,left,1,3,1.086939951608656,R29L09,2022-12-02_09h15.02.680,t1_Paradigm,2021.1.4,60.02507153825378,
V,left,Distractor,0,13,13,13,3255.9242027906002,3257.9260031323065,left,1,3,0.9941873856878374,R29L09,2022-12-02_09h15.02.680,t1_Paradigm,2021.1.4,60.02507153825378,
M,right,Target,0,14,14,14,3259.4239089358016,3261.425340675836,left,0,3,1.414703838643618,R29L09,2022-12-02_09h15.02.680,t1_Paradigm,2021.1.4,60.02507153825378,
S,left,Pretarget,0,15,15,15,3262.924189637706,3264.9259331974317,left,1,3,1.3857017194386572,R29L09,2022-12-02_09h15.02.680,t1_Paradigm,2021.1.4,60.02507153825378,
Q,left,Distractor,0,16,16,16,3266.4239063693967,3268.4259803553578,left,1,3,0.7982109505392145,R29L09,2022-12-02_09h15.02.680,t1_Paradigm,2021.1.4,60.02507153825378,
R,left,Pretarget,0,17,17,17,3269.924176484812,3271.926070821559,left,1,3,1.4577285410487093,R29L09,2022-12-02_09h15.02.680,t1_Paradigm,2021.1.4,60.02507153825378,
S,right,Target,0,18,18,18,3273.424059712823,3275.4261648165993,right,1,3,0.8375355208409019,R29L09,2022-12-02_09h15.02.680,t1_Paradigm,2021.1.4,60.02507153825378,
F,left,Distractor,0,19,19,19,3276.9242056778166,3278.926170591032,left,1,3,0.969487544207368,R29L09,2022-12-02_09h15.02.680,t1_Paradigm,2021.1.4,60.02507153825378,
R,right,Target,0,20,20,20,3280.4242448156583,3282.425375964085,right,1,3,1.2304440607549623,R29L09,2022-12-02_09h15.02.680,t1_Paradigm,2021.1.4,60.02507153825378,
P,left,Distractor,0,21,21,21,3283.924008063681,3285.926407022227,left,1,3,1.1532375674578361,R29L09,2022-12-02_09h15.02.680,t1_Paradigm,2021.1.4,60.02507153825378,
L,left,Distractor,0,22,22,22,3287.42398656992,3289.4248075026553,left,1,3,1.3348160808964167,R29L09,2022-12-02_09h15.02.680,t1_Paradigm,2021.1.4,60.02507153825378,
R,right,Target,0,23,23,23,3290.9242403244425,3292.926188235142,right,1,3,0.8415343197411858,R29L09,2022-12-02_09h15.02.680,t1_Paradigm,2021.1.4,60.02507153825378,
H,left,Pretarget,0,24,24,24,3294.42403629428,3296.426468616235,left,1,3,0.9573246511281468,R29L09,2022-12-02_09h15.02.680,t1_Paradigm,2021.1.4,60.02507153825378,
G,left,Pretarget,0,25,25,25,3297.9239134270465,3299.9250400842284,left,1,3,1.154647172166733,R29L09,2022-12-02_09h15.02.680,t1_Paradigm,2021.1.4,60.02507153825378,
T,left,Distractor,0,26,26,26,3301.424200544978,3303.426331633731,None,0,3,,R29L09,2022-12-02_09h15.02.680,t1_Paradigm,2021.1.4,60.02507153825378,
H,right,Target,0,27,27,27,3304.9239278631285,3306.923579792783,right,1,3,0.8922056624141987,R29L09,2022-12-02_09h15.02.680,t1_Paradigm,2021.1.4,60.02507153825378,
G,right,Target,0,28,28,28,3308.4241899584886,3310.4246942595055,left,0,3,1.2471286602667533,R29L09,2022-12-02_09h15.02.680,t1_Paradigm,2021.1.4,60.02507153825378,
D,left,Distractor,0,29,29,29,3311.9242153018713,3313.9261205458897,left,1,3,1.3297262338455766,R29L09,2022-12-02_09h15.02.680,t1_Paradigm,2021.1.4,60.02507153825378,
N,left,Pretarget,0,30,30,30,3315.4239843243267,3317.426007944334,left,1,3,1.0617800798499957,R29L09,2022-12-02_09h15.02.680,t1_Paradigm,2021.1.4,60.02507153825378,
V,left,Distractor,0,31,31,31,3318.9242303795763,3320.9257522650296,left,1,3,1.0983595460711513,R29L09,2022-12-02_09h15.02.680,t1_Paradigm,2021.1.4,60.02507153825378,
R,left,Distractor,0,32,32,32,3322.424121306831,3324.4261911223584,None,0,3,,R29L09,2022-12-02_09h15.02.680,t1_Paradigm,2021.1.4,60.02507153825378,
N,right,Target,0,33,33,33,3325.9242284547654,3327.9259623904363,None,0,3,,R29L09,2022-12-02_09h15.02.680,t1_Paradigm,2021.1.4,60.02507153825378,
Z,left,Distractor,0,34,34,34,3329.4241982993553,3331.4257310920802,left,1,3,0.7261379333795048,R29L09,2022-12-02_09h15.02.680,t1_Paradigm,2021.1.4,60.02507153825378,
N,left,Lure,0,35,35,35,3332.9242416076595,3334.924842149281,left,1,3,1.050768224929925,R29L09,2022-12-02_09h15.02.680,t1_Paradigm,2021.1.4,60.02507153825378,
Y,left,Pretarget,0,36,36,36,3336.423960264161,3338.4264269119594,left,1,3,1.4213691451295745,R29L09,2022-12-02_09h15.02.680,t1_Paradigm,2021.1.4,60.02507153825378,
Y,left,Lure,0,37,37,37,3339.924009346898,3341.9239127854235,None,0,3,,R29L09,2022-12-02_09h15.02.680,t1_Paradigm,2021.1.4,60.02507153825378,
B,left,Distractor,0,38,38,38,3343.42420792341,3345.424906309723,left,1,3,1.382810971175786,R29L09,2022-12-02_09h15.02.680,t1_Paradigm,2021.1.4,60.02507153825378,
Y,right,Target,0,39,39,39,3346.9242951816123,3348.926152305299,right,1,3,0.841712044144515,R29L09,2022-12-02_09h15.02.680,t1_Paradigm,2021.1.4,60.02507153825378,
J,left,Distractor,0,40,40,40,3350.4242618181743,3352.4371006414003,left,1,3,0.8825594623049255,R29L09,2022-12-02_09h15.02.680,t1_Paradigm,2021.1.4,60.02507153825378,
X,left,Distractor,0,41,41,41,3353.924262138986,3355.9249268410495,left,1,3,0.5629927120171487,R29L09,2022-12-02_09h15.02.680,t1_Paradigm,2021.1.4,60.02507153825378,
W,left,Pretarget,0,42,42,42,3357.4241578782967,3359.424593848409,left,1,3,1.1432558082742617,R29L09,2022-12-02_09h15.02.680,t1_Paradigm,2021.1.4,60.02507153825378,
S,left,Pretarget,0,43,43,43,3360.924249306903,3362.925383663329,left,1,3,0.73047229135409,R29L09,2022-12-02_09h15.02.680,t1_Paradigm,2021.1.4,60.02507153825378,
R,left,Distractor,0,44,44,44,3364.424204715411,3366.4243032016675,left,1,3,1.0074480637267698,R29L09,2022-12-02_09h15.02.680,t1_Paradigm,2021.1.4,60.02507153825378,
W,right,Target,0,45,45,45,3367.9242631013913,3369.9243240538053,right,1,3,1.171365455898922,R29L09,2022-12-02_09h15.02.680,t1_Paradigm,2021.1.4,60.02507153825378,
S,right,Target,0,46,46,46,3371.4241963745444,3373.4250978286145,left,0,3,1.2386450471531134,R29L09,2022-12-02_09h15.02.680,t1_Paradigm,2021.1.4,60.02507153825378,
D,left,Distractor,0,47,47,47,3374.924230700388,3376.9265725561418,left,1,3,0.841300134168705,R29L09,2022-12-02_09h15.02.680,t1_Paradigm,2021.1.4,60.02507153825378,
T,left,Distractor,0,48,48,48,3378.42437441973,3380.4250124952523,left,1,3,0.958843970176531,R29L09,2022-12-02_09h15.02.680,t1_Paradigm,2021.1.4,60.02507153825378,
S,right,Target,0,49,49,49,3381.924065166473,3383.9255774278427,right,1,3,0.9462739791488275,R29L09,2022-12-02_09h15.02.680,t1_Paradigm,2021.1.4,60.02507153825378,
K,left,Distractor,0,50,50,50,3385.4242467404983,3387.426085899264,left,1,3,0.8538245712697972,R29L09,2022-12-02_09h15.02.680,t1_Paradigm,2021.1.4,60.02507153825378,
S,left,Lure,0,51,51,51,3388.9242258883314,3390.926365638734,left,1,3,1.0492867605644278,R29L09,2022-12-02_09h15.02.680,t1_Paradigm,2021.1.4,60.02507153825378,
T,left,Pretarget,0,52,52,52,3392.424011271709,3394.4255950719526,right,0,3,0.7660684989532456,R29L09,2022-12-02_09h15.02.680,t1_Paradigm,2021.1.4,60.02507153825378,
V,left,Distractor,0,53,53,53,3395.9242592517694,3397.9248719838797,left,1,3,0.882989657955477,R29L09,2022-12-02_09h15.02.680,t1_Paradigm,2021.1.4,60.02507153825378,
B,left,Distractor,0,54,54,54,3399.424417407223,3401.4260862200754,left,1,3,0.6616178822878283,R29L09,2022-12-02_09h15.02.680,t1_Paradigm,2021.1.4,60.02507153825378,
T,right,Target,0,55,55,55,3402.9242817079066,3404.9245973772486,right,1,3,0.5551606481021736,R29L09,2022-12-02_09h15.02.680,t1_Paradigm,2021.1.4,60.02507153825378,
Y,left,Pretarget,0,56,56,56,3406.424552464945,3408.423496384232,left,1,3,0.6881764514546376,R29L09,2022-12-02_09h15.02.680,t1_Paradigm,2021.1.4,60.02507153825378,
T,left,Lure,0,57,57,57,3409.9242618181743,3411.9258125758206,left,1,3,0.8498565693444107,R29L09,2022-12-02_09h15.02.680,t1_Paradigm,2021.1.4,60.02507153825378,
P,left,Pretarget,0,58,58,58,3413.423960905755,3415.4263941901445,left,1,3,0.7092900455754716,R29L09,2022-12-02_09h15.02.680,t1_Paradigm,2021.1.4,60.02507153825378,
Y,right,Target,0,59,59,59,3416.9239756626484,3418.9370836388844,right,1,3,0.9266774584539235,R29L09,2022-12-02_09h15.02.680,t1_Paradigm,2021.1.4,60.02507153825378,
R,left,Distractor,0,60,60,60,3420.424287803151,3422.4235643942957,left,1,3,0.8007414379680995,R29L09,2022-12-02_09h15.02.680,t1_Paradigm,2021.1.4,60.02507153825378,
P,right,Target,0,61,61,61,3423.9242704798526,3425.924692655477,left,0,3,0.8510108155023772,R29L09,2022-12-02_09h15.02.680,t1_Paradigm,2021.1.4,60.02507153825378,
L,left,Distractor,0,62,62,62,3427.4244485250383,3429.426632866933,left,1,3,0.8051733197644353,R29L09,2022-12-02_09h15.02.680,t1_Paradigm,2021.1.4,60.02507153825378,
V,left,Distractor,0,63,63,63,3430.9239788706764,3432.9263508818403,left,1,3,0.6815185234299861,R29L09,2022-12-02_09h15.02.680,t1_Paradigm,2021.1.4,60.02507153825378,
H,left,Lure,0,0,0,0,3450.1563743709703,3452.1597206582956,None,0,3,,R29L09,2022-12-02_09h15.02.680,t1_Paradigm,2021.1.4,60.02507153825378,
B,left,Distractor,0,1,1,1,3453.657601760031,3455.6592718560714,None,0,3,,R29L09,2022-12-02_09h15.02.680,t1_Paradigm,2021.1.4,60.02507153825378,
T,left,Distractor,0,2,2,2,3457.1577297601034,3459.158366231597,None,0,3,,R29L09,2022-12-02_09h15.02.680,t1_Paradigm,2021.1.4,60.02507153825378,
R,left,Distractor,0,3,3,3,3460.657737459347,3462.6581314044015,left,1,3,0.7096916898735799,R29L09,2022-12-02_09h15.02.680,t1_Paradigm,2021.1.4,60.02507153825378,
H,left,Pretarget,0,4,4,4,3464.157210060599,3466.1582696701516,left,1,3,0.7456266645458527,R29L09,2022-12-02_09h15.02.680,t1_Paradigm,2021.1.4,60.02507153825378,
K,left,Distractor,0,5,5,5,3467.6575738502434,3469.6593045779155,left,1,3,0.8125970025430433,R29L09,2022-12-02_09h15.02.680,t1_Paradigm,2021.1.4,60.02507153825378,
G,left,Distractor,0,6,6,6,3471.1575462612673,3473.1572273839265,left,1,3,0.7544827289821114,R29L09,2022-12-02_09h15.02.680,t1_Paradigm,2021.1.4,60.02507153825378,
H,right,Target,0,7,7,7,3474.65763704828,3476.659181710682,left,0,3,1.0605379338667262,R29L09,2022-12-02_09h15.02.680,t1_Paradigm,2021.1.4,60.02507153825378,
Y,left,Pretarget,0,8,8,8,3478.1575318251853,3480.159380287223,left,1,3,0.7285279094649013,R29L09,2022-12-02_09h15.02.680,t1_Paradigm,2021.1.4,60.02507153825378,
S,left,Distractor,0,9,9,9,3481.6573342110496,3483.658924427349,left,1,3,0.716735542868264,R29L09,2022-12-02_09h15.02.680,t1_Paradigm,2021.1.4,60.02507153825378,
P,left,Distractor,0,10,10,10,3485.157517389074,3487.1578712338523,left,1,3,0.6419725996383931,R29L09,2022-12-02_09h15.02.680,t1_Paradigm,2021.1.4,60.02507153825378,
Y,right,Target,0,11,11,11,3488.657388105814,3490.659724828729,right,1,3,0.5000109072716441,R29L09,2022-12-02_09h15.02.680,t1_Paradigm,2021.1.4,60.02507153825378,
H,left,Lure,0,12,12,12,3492.1575988728146,3494.159341470164,left,1,3,0.6645968511293177,R29L09,2022-12-02_09h15.02.680,t1_Paradigm,2021.1.4,60.02507153825378,
Q,left,Distractor,0,13,13,13,3495.6577028127213,3497.6579196749954,left,1,3,1.1819557767885271,R29L09,2022-12-02_09h15.02.680,t1_Paradigm,2021.1.4,60.02507153825378,
V,left,Pretarget,0,14,14,14,3499.1574310933065,3501.1586594447726,left,1,3,0.7371225201350171,R29L09,2022-12-02_09h15.02.680,t1_Paradigm,2021.1.4,60.02507153825378,
G,left,Distractor,0,15,15,15,3502.6575876447605,3504.6592147533083,left,1,3,0.8365888336556964,R29L09,2022-12-02_09h15.02.680,t1_Paradigm,2021.1.4,60.02507153825378,
Z,left,Pretarget,0,16,16,16,3506.157618120953,3508.159067184315,left,1,3,1.0006704765255563,R29L09,2022-12-02_09h15.02.680,t1_Paradigm,2021.1.4,60.02507153825378,
V,right,Target,0,17,17,17,3509.6574304516835,3511.65913711919,right,1,3,1.0046782578865532,R29L09,2022-12-02_09h15.02.680,t1_Paradigm,2021.1.4,60.02507153825378,
N,left,Distractor,0,18,18,18,3513.157595344004,3515.159567635681,left,1,3,0.7522724020818714,R29L09,2022-12-02_09h15.02.680,t1_Paradigm,2021.1.4,60.02507153825378,
Z,right,Target,0,19,19,19,3516.6576386522793,3518.660078031913,left,0,3,1.1558322153287008,R29L09,2022-12-02_09h15.02.680,t1_Paradigm,2021.1.4,60.02507153825378,
R,left,Distractor,0,20,20,20,3520.1575805871107,3522.158110231452,left,1,3,1.097798783914186,R29L09,2022-12-02_09h15.02.680,t1_Paradigm,2021.1.4,60.02507153825378,
P,left,Distractor,0,21,21,21,3523.65764763474,3525.658188828005,left,1,3,0.9736688795383088,R29L09,2022-12-02_09h15.02.680,t1_Paradigm,2021.1.4,60.02507153825378,
Z,right,Target,0,22,22,22,3527.15769030145,3529.1591082469968,left,0,3,0.9127976322197355,R29L09,2022-12-02_09h15.02.680,t1_Paradigm,2021.1.4,60.02507153825378,
D,left,Pretarget,0,23,23,23,3530.657699925505,3532.6703728940047,left,1,3,1.0493345600843895,R29L09,2022-12-02_09h15.02.680,t1_Paradigm,2021.1.4,60.02507153825378,
K,left,Distractor,0,24,24,24,3534.157604326465,3536.1582369483076,left,1,3,0.7775824092677794,R29L09,2022-12-02_09h15.02.680,t1_Paradigm,2021.1.4,60.02507153825378,
W,left,Distractor,0,25,25,25,3537.657384897786,3539.657768897974,left,1,3,0.9741369299299549,R29L09,2022-12-02_09h15.02.680,t1_Paradigm,2021.1.4,60.02507153825378,
D,right,Target,0,26,26,26,3541.1576007976255,3543.1587778207613,right,1,3,1.0251079018053133,R29L09,2022-12-02_09h15.02.680,t1_Paradigm,2021.1.4,60.02507153825378,
G,left,Pretarget,0,27,27,27,3544.6573906722188,3546.6592051292246,left,1,3,0.8206314926210325,R29L09,2022-12-02_09h15.02.680,t1_Paradigm,2021.1.4,60.02507153825378,
V,left,Distractor,0,28,28,28,3548.1576649580675,3550.1592862921825,left,1,3,0.9044853274826892,R29L09,2022-12-02_09h15.02.680,t1_Paradigm,2021.1.4,60.02507153825378,
D,right,Target,0,29,29,29,3551.6574965369364,3553.659154121706,right,1,3,1.0525980804522987,R29L09,2022-12-02_09h15.02.680,t1_Paradigm,2021.1.4,60.02507153825378,
G,right,Target,0,30,30,30,3555.157411845168,3557.160187425441,right,1,3,1.0236418359272648,R29L09,2022-12-02_09h15.02.680,t1_Paradigm,2021.1.4,60.02507153825378,
B,left,Pretarget,0,31,31,31,3558.657706662343,3560.6592038460367,left,1,3,0.5967449487943668,R29L09,2022-12-02_09h15.02.680,t1_Paradigm,2021.1.4,60.02507153825378,
N,left,Distractor,0,32,32,32,3562.1575786623,3564.159209299658,left,1,3,0.6324823093600571,R29L09,2022-12-02_09h15.02.680,t1_Paradigm,2021.1.4,60.02507153825378,
F,left,Distractor,0,33,33,33,3565.6573656496475,3567.6592304726073,left,1,3,0.8766072989965323,R29L09,2022-12-02_09h15.02.680,t1_Paradigm,2021.1.4,60.02507153825378,
B,right,Target,0,34,34,34,3569.1576543716074,3571.1576867726108,left,0,3,1.2340983181784395,R29L09,2022-12-02_09h15.02.680,t1_Paradigm,2021.1.4,60.02507153825378,
Q,left,Pretarget,0,35,35,35,3572.657611063303,3574.6587470237573,left,1,3,1.397235198674025,R29L09,2022-12-02_09h15.02.680,t1_Paradigm,2021.1.4,60.02507153825378,
S,left,Pretarget,0,36,36,36,3576.1575594141614,3578.159460808558,None,0,3,,R29L09,2022-12-02_09h15.02.680,t1_Paradigm,2021.1.4,60.02507153825378,
W,left,Distractor,0,37,37,37,3579.6576107424917,3581.6592805177497,left,1,3,0.8126996592327487,R29L09,2022-12-02_09h15.02.680,t1_Paradigm,2021.1.4,60.02507153825378,
Q,right,Target,0,38,38,38,3583.1573951634637,3585.159335695702,right,1,3,0.5764862924406771,R29L09,2022-12-02_09h15.02.680,t1_Paradigm,2021.1.4,60.02507153825378,
S,right,Target,0,39,39,39,3586.65761234652,3588.659531064244,right,1,3,0.6924392705259379,R29L09,2022-12-02_09h15.02.680,t1_Paradigm,2021.1.4,60.02507153825378,
T,left,Distractor,0,40,40,40,3590.1576303114416,3592.157567113405,left,1,3,0.7941232894081622,R29L09,2022-12-02_09h15.02.680,t1_Paradigm,2021.1.4,60.02507153825378,
G,left,Distractor,0,41,41,41,3593.657646993146,3595.658073980827,left,1,3,0.5898544392257463,R29L09,2022-12-02_09h15.02.680,t1_Paradigm,2021.1.4,60.02507153825378,
D,left,Distractor,0,42,42,42,3597.157663995662,3599.1592147533083,left,1,3,0.8488649698847439,R29L09,2022-12-02_09h15.02.680,t1_Paradigm,2021.1.4,60.02507153825378,
S,left,Lure,0,43,43,43,3600.6576296698186,3602.6587053194817,None,0,3,,R29L09,2022-12-02_09h15.02.680,t1_Paradigm,2021.1.4,60.02507153825378,
Z,left,Pretarget,0,44,44,44,3604.157478572015,3606.1585041765065,left,1,3,0.6974854885193054,R29L09,2022-12-02_09h15.02.680,t1_Paradigm,2021.1.4,60.02507153825378,
J,left,Distractor,0,45,45,45,3607.6575786623,3609.6578327376046,left,1,3,0.6381303521920927,R29L09,2022-12-02_09h15.02.680,t1_Paradigm,2021.1.4,60.02507153825378,
M,left,Pretarget,0,46,46,46,3611.1577278352925,3613.159020026389,left,1,3,0.6728956821898464,R29L09,2022-12-02_09h15.02.680,t1_Paradigm,2021.1.4,60.02507153825378,
Z,right,Target,0,47,47,47,3614.6576277450076,3616.658679334505,right,1,3,0.5331478455045726,R29L09,2022-12-02_09h15.02.680,t1_Paradigm,2021.1.4,60.02507153825378,
P,left,Distractor,0,48,48,48,3618.157657579606,3620.1591303823225,left,1,3,0.5207369723648299,R29L09,2022-12-02_09h15.02.680,t1_Paradigm,2021.1.4,60.02507153825378,
M,right,Target,0,49,49,49,3621.657692867855,3623.6579610584595,right,1,3,0.5580465843377169,R29L09,2022-12-02_09h15.02.680,t1_Paradigm,2021.1.4,60.02507153825378,
K,left,Distractor,0,50,50,50,3625.157668486907,3627.1583607779467,left,1,3,0.8013775886211079,R29L09,2022-12-02_09h15.02.680,t1_Paradigm,2021.1.4,60.02507153825378,
Y,left,Distractor,0,51,51,51,3628.657735534536,3630.6577547826746,left,1,3,0.9180016848549712,R29L09,2022-12-02_09h15.02.680,t1_Paradigm,2021.1.4,60.02507153825378,
X,left,Distractor,0,52,52,52,3632.157559734973,3634.158279615018,left,1,3,0.8573264476144686,R29L09,2022-12-02_09h15.02.680,t1_Paradigm,2021.1.4,60.02507153825378,
F,left,Pretarget,0,53,53,53,3635.6576104217093,3637.659108567779,left,1,3,0.8928376426629256,R29L09,2022-12-02_09h15.02.680,t1_Paradigm,2021.1.4,60.02507153825378,
M,left,Lure,0,54,54,54,3639.1574846672593,3641.157937960699,left,1,3,0.8503961585811339,R29L09,2022-12-02_09h15.02.680,t1_Paradigm,2021.1.4,60.02507153825378,
V,left,Distractor,0,55,55,55,3642.65750423618,3644.6597453600843,left,1,3,0.6761088366329204,R29L09,2022-12-02_09h15.02.680,t1_Paradigm,2021.1.4,60.02507153825378,
F,right,Target,0,56,56,56,3646.1574933289085,3648.158944637893,left,0,3,0.632831342110876,R29L09,2022-12-02_09h15.02.680,t1_Paradigm,2021.1.4,60.02507153825378,
S,left,Distractor,0,57,57,57,3649.6578497401206,3651.6583062415884,left,1,3,0.8297406699275598,R29L09,2022-12-02_09h15.02.680,t1_Paradigm,2021.1.4,60.02507153825378,
D,left,Distractor,0,58,58,58,3653.1577024919097,3655.159398572927,left,1,3,0.8162409942597151,R29L09,2022-12-02_09h15.02.680,t1_Paradigm,2021.1.4,60.02507153825378,
F,right,Target,0,59,59,59,3656.6574310933065,3658.659031254472,left,0,3,0.6768935187137686,R29L09,2022-12-02_09h15.02.680,t1_Paradigm,2021.1.4,60.02507153825378,
V,left,Pretarget,0,60,60,60,3660.1576277450076,3662.1581089482643,left,1,3,0.553719604795333,R29L09,2022-12-02_09h15.02.680,t1_Paradigm,2021.1.4,60.02507153825378,
J,left,Distractor,0,61,61,61,3663.657731364103,3665.658237910713,left,1,3,0.7496694133733399,R29L09,2022-12-02_09h15.02.680,t1_Paradigm,2021.1.4,60.02507153825378,
V,left,Lure,0,62,62,62,3667.1576598252286,3669.1595422922983,left,1,3,0.9444027401623316,R29L09,2022-12-02_09h15.02.680,t1_Paradigm,2021.1.4,60.02507153825378,
V,right,Target,0,63,63,63,3670.657660787634,3672.657675223745,right,1,3,0.582258485694183,R29L09,2022-12-02_09h15.02.680,t1_Paradigm,2021.1.4,60.02507153825378,
R,left,Distractor,0,0,0,0,3760.081144019001,3762.0760695704375,None,0,4,,R29L09,2022-12-02_09h15.02.680,t1_Paradigm,2021.1.4,60.02507153825378,
F,left,Distractor,0,1,1,1,3763.574076426623,3765.5758742019243,None,0,4,,R29L09,2022-12-02_09h15.02.680,t1_Paradigm,2021.1.4,60.02507153825378,
P,left,Pretarget,0,2,2,2,3767.0744437450776,3769.074538381741,None,0,4,,R29L09,2022-12-02_09h15.02.680,t1_Paradigm,2021.1.4,60.02507153825378,
H,left,Distractor,0,3,3,3,3770.574217900372,3772.5750474947563,left,1,4,0.6007745447277557,R29L09,2022-12-02_09h15.02.680,t1_Paradigm,2021.1.4,60.02507153825378,
Z,left,Distractor,0,4,4,4,3774.0741396246303,3776.0759098109556,left,1,4,0.5400819842179772,R29L09,2022-12-02_09h15.02.680,t1_Paradigm,2021.1.4,60.02507153825378,
T,left,Distractor,0,5,5,5,3777.5744424618897,3779.575457479921,left,1,4,0.5285754523647483,R29L09,2022-12-02_09h15.02.680,t1_Paradigm,2021.1.4,60.02507153825378,
P,right,Target,0,6,6,6,3781.073968957906,3783.0751905725047,right,1,4,0.7088367521064356,R29L09,2022-12-02_09h15.02.680,t1_Paradigm,2021.1.4,60.02507153825378,
G,left,Distractor,0,7,7,7,3784.574265058298,3786.575747485069,left,1,4,0.7761824286135379,R29L09,2022-12-02_09h15.02.680,t1_Paradigm,2021.1.4,60.02507153825378,
L,left,Distractor,0,8,8,8,3788.0741187724925,3790.076501049334,left,1,4,0.6994000358099584,R29L09,2022-12-02_09h15.02.680,t1_Paradigm,2021.1.4,60.02507153825378,
P,left,Lure,0,9,9,9,3791.5743596949324,3793.5748412189714,left,1,4,0.6891305170720443,R29L09,2022-12-02_09h15.02.680,t1_Paradigm,2021.1.4,60.02507153825378,
Q,left,Pretarget,0,10,10,10,3795.074402040802,3797.076366633235,left,1,4,0.7236882880679332,R29L09,2022-12-02_09h15.02.680,t1_Paradigm,2021.1.4,60.02507153825378,
D,left,Distractor,0,11,11,11,3798.5745236248185,3800.5758167783206,left,1,4,0.8402389206166845,R29L09,2022-12-02_09h15.02.680,t1_Paradigm,2021.1.4,60.02507153825378,
M,left,Pretarget,0,12,12,12,3802.0742050682893,3804.076088818576,left,1,4,0.7157307905436028,R29L09,2022-12-02_09h15.02.680,t1_Paradigm,2021.1.4,60.02507153825378,
C,left,Distractor,0,13,13,13,3805.574396266369,3807.576022091729,None,0,4,,R29L09,2022-12-02_09h15.02.680,t1_Paradigm,2021.1.4,60.02507153825378,
Q,right,Target,0,14,14,14,3809.074289439246,3811.0738743212714,left,0,4,1.0781756366195623,R29L09,2022-12-02_09h15.02.680,t1_Paradigm,2021.1.4,60.02507153825378,
R,left,Distractor,0,15,15,15,3812.574131604575,3814.5749499709054,left,1,4,1.0811382445390336,R29L09,2022-12-02_09h15.02.680,t1_Paradigm,2021.1.4,60.02507153825378,
M,right,Target,0,16,16,16,3816.07450084787,3818.074977880693,right,1,4,0.7810926265083253,R29L09,2022-12-02_09h15.02.680,t1_Paradigm,2021.1.4,60.02507153825378,
S,left,Distractor,0,17,17,17,3819.5743558453105,3821.5755665526376,right,0,4,1.008401487750234,R29L09,2022-12-02_09h15.02.680,t1_Paradigm,2021.1.4,60.02507153825378,
Z,left,Distractor,0,18,18,18,3823.074005850154,3825.075816457538,left,1,4,0.9642453161068261,R29L09,2022-12-02_09h15.02.680,t1_Paradigm,2021.1.4,60.02507153825378,
L,left,Pretarget,0,19,19,19,3826.5740048877487,3828.575388507452,left,1,4,0.8406543594319373,R29L09,2022-12-02_09h15.02.680,t1_Paradigm,2021.1.4,60.02507153825378,
M,right,Target,0,20,20,20,3830.074429629807,3832.0752730186796,right,1,4,0.8926422741496935,R29L09,2022-12-02_09h15.02.680,t1_Paradigm,2021.1.4,60.02507153825378,
P,left,Distractor,0,21,21,21,3833.5744193641294,3835.5755187531176,left,1,4,0.9445971462700982,R29L09,2022-12-02_09h15.02.680,t1_Paradigm,2021.1.4,60.02507153825378,
F,left,Distractor,0,22,22,22,3837.073406270909,3839.074567253934,left,1,4,0.9172176443680655,R29L09,2022-12-02_09h15.02.680,t1_Paradigm,2021.1.4,60.02507153825378,
L,right,Target,0,23,23,23,3840.574425138562,3842.5762537108676,left,0,4,1.3357201014005113,R29L09,2022-12-02_09h15.02.680,t1_Paradigm,2021.1.4,60.02507153825378,
L,left,Lure,0,24,24,24,3844.074414552102,3846.074488657381,right,0,4,1.325528858404141,R29L09,2022-12-02_09h15.02.680,t1_Paradigm,2021.1.4,60.02507153825378,
V,left,Pretarget,0,25,25,25,3847.574426421779,3849.575509129063,left,1,4,0.7204433742444962,R29L09,2022-12-02_09h15.02.680,t1_Paradigm,2021.1.4,60.02507153825378,
Z,left,Distractor,0,26,26,26,3851.0741264717653,3853.0769976510783,left,1,4,0.9951908548246138,R29L09,2022-12-02_09h15.02.680,t1_Paradigm,2021.1.4,60.02507153825378,
H,left,Distractor,0,27,27,27,3854.5742175795604,3856.5758119662933,left,1,4,1.272235278855078,R29L09,2022-12-02_09h15.02.680,t1_Paradigm,2021.1.4,60.02507153825378,
X,left,Distractor,0,28,28,28,3858.0741678552295,3860.0748758655973,left,1,4,0.8450724467402324,R29L09,2022-12-02_09h15.02.680,t1_Paradigm,2021.1.4,60.02507153825378,
V,right,Target,0,29,29,29,3861.557609330979,3863.558032469009,right,1,4,0.7699903053580783,R29L09,2022-12-02_09h15.02.680,t1_Paradigm,2021.1.4,60.02507153825378,
C,left,Distractor,0,30,30,30,3865.0577568999724,3867.058775126032,left,1,4,0.7092509077046998,R29L09,2022-12-02_09h15.02.680,t1_Paradigm,2021.1.4,60.02507153825378,
S,left,Pretarget,0,31,31,31,3868.5577305941842,3870.5584501534468,left,1,4,0.6494771245343145,R29L09,2022-12-02_09h15.02.680,t1_Paradigm,2021.1.4,60.02507153825378,
D,left,Distractor,0,32,32,32,3872.057797321031,3874.059284239047,left,1,4,0.8613351914100349,R29L09,2022-12-02_09h15.02.680,t1_Paradigm,2021.1.4,60.02507153825378,
V,left,Distractor,0,33,33,33,3875.574122301332,3877.5764128287556,right,0,4,1.3279525187099352,R29L09,2022-12-02_09h15.02.680,t1_Paradigm,2021.1.4,60.02507153825378,
R,left,Distractor,0,34,34,34,3879.074384396692,3881.07588575079,left,1,4,0.7401194538979325,R29L09,2022-12-02_09h15.02.680,t1_Paradigm,2021.1.4,60.02507153825378,
S,right,Target,0,35,35,35,3882.5740315143194,3884.575262111408,left,0,4,0.7930014442536049,R29L09,2022-12-02_09h15.02.680,t1_Paradigm,2021.1.4,60.02507153825378,
Y,left,Distractor,0,36,36,36,3886.0743609781202,3888.075545058906,left,1,4,0.7806075736007188,R29L09,2022-12-02_09h15.02.680,t1_Paradigm,2021.1.4,60.02507153825378,
N,left,Pretarget,0,37,37,37,3889.5743965871807,3891.57638876859,left,1,4,0.5756242970528547,R29L09,2022-12-02_09h15.02.680,t1_Paradigm,2021.1.4,60.02507153825378,
Z,left,Pretarget,0,38,38,38,3893.0744123064796,3895.0760958762257,left,1,4,0.7879132012021728,R29L09,2022-12-02_09h15.02.680,t1_Paradigm,2021.1.4,60.02507153825378,
P,left,Pretarget,0,39,39,39,3896.574391454342,3898.5766040268354,left,1,4,0.7754728142463136,R29L09,2022-12-02_09h15.02.680,t1_Paradigm,2021.1.4,60.02507153825378,
M,left,Distractor,0,40,40,40,3900.057771015272,3902.070607913658,left,1,4,1.0572792255552486,R29L09,2022-12-02_09h15.02.680,t1_Paradigm,2021.1.4,60.02507153825378,
N,right,Target,0,41,41,41,3903.574244847754,3905.576281299873,right,1,4,0.959563850221457,R29L09,2022-12-02_09h15.02.680,t1_Paradigm,2021.1.4,60.02507153825378,
Z,right,Target,0,42,42,42,3907.074238431698,3909.0743747726374,left,0,4,1.0297665907710325,R29L09,2022-12-02_09h15.02.680,t1_Paradigm,2021.1.4,60.02507153825378,
P,right,Target,0,43,43,43,3910.5744947526255,3912.57461954467,right,1,4,0.96926554912352,R29L09,2022-12-02_09h15.02.680,t1_Paradigm,2021.1.4,60.02507153825378,
X,left,Pretarget,0,44,44,44,3914.0742515845923,3916.075881901168,left,1,4,0.7642203576979227,R29L09,2022-12-02_09h15.02.680,t1_Paradigm,2021.1.4,60.02507153825378,
Z,left,Lure,0,45,45,45,3917.574195765017,3919.5763104928483,left,1,4,1.0876739469531458,R29L09,2022-12-02_09h15.02.680,t1_Paradigm,2021.1.4,60.02507153825378,
R,left,Pretarget,0,46,46,46,3921.074358732527,3923.0743808678817,left,1,4,1.0778012604860123,R29L09,2022-12-02_09h15.02.680,t1_Paradigm,2021.1.4,60.02507153825378,
K,left,Distractor,0,47,47,47,3924.5742111635336,3926.5750070736685,left,1,4,0.8570771843660623,R29L09,2022-12-02_09h15.02.680,t1_Paradigm,2021.1.4,60.02507153825378,
X,right,Target,0,48,48,48,3928.074444707483,3930.0592611412867,right,1,4,0.55678230302874,R29L09,2022-12-02_09h15.02.680,t1_Paradigm,2021.1.4,60.02507153825378,
B,left,Distractor,0,49,49,49,3931.5577876969764,3933.5598610413435,left,1,4,0.6721879926335532,R29L09,2022-12-02_09h15.02.680,t1_Paradigm,2021.1.4,60.02507153825378,
R,right,Target,0,50,50,50,3935.057704930019,3937.059171637491,None,0,4,,R29L09,2022-12-02_09h15.02.680,t1_Paradigm,2021.1.4,60.02507153825378,
Y,left,Pretarget,0,51,51,51,3938.5743375595775,3940.575731124147,left,1,4,0.856356341886567,R29L09,2022-12-02_09h15.02.680,t1_Paradigm,2021.1.4,60.02507153825378,
W,left,Pretarget,0,52,52,52,3942.0743795846647,3944.059268519748,left,1,4,0.908532567525981,R29L09,2022-12-02_09h15.02.680,t1_Paradigm,2021.1.4,60.02507153825378,
Z,left,Distractor,0,53,53,53,3945.557722574129,3947.559413843119,left,1,4,0.8005540895101149,R29L09,2022-12-02_09h15.02.680,t1_Paradigm,2021.1.4,60.02507153825378,
Q,left,Distractor,0,54,54,54,3949.0743754142313,3951.075913981389,left,1,4,0.6600815607234836,R29L09,2022-12-02_09h15.02.680,t1_Paradigm,2021.1.4,60.02507153825378,
Y,right,Target,0,55,55,55,3952.5742836648133,3954.5755931792373,right,1,4,0.6003565395076293,R29L09,2022-12-02_09h15.02.680,t1_Paradigm,2021.1.4,60.02507153825378,
W,right,Target,0,56,56,56,3956.0744155145076,3958.0761658110714,right,1,4,0.7157153920270503,R29L09,2022-12-02_09h15.02.680,t1_Paradigm,2021.1.4,60.02507153825378,
H,left,Pretarget,0,57,57,57,3959.574228486832,3961.574910512223,left,1,4,0.7690497134171892,R29L09,2022-12-02_09h15.02.680,t1_Paradigm,2021.1.4,60.02507153825378,
M,left,Distractor,0,58,58,58,3963.0741441158752,3965.0755578909884,left,1,4,0.9484486969886348,R29L09,2022-12-02_09h15.02.680,t1_Paradigm,2021.1.4,60.02507153825378,
R,left,Pretarget,0,59,59,59,3966.5580109752773,3968.558758123516,left,1,4,0.6975461201218423,R29L09,2022-12-02_09h15.02.680,t1_Paradigm,2021.1.4,60.02507153825378,
J,left,Distractor,0,60,60,60,3970.0576853610983,3972.0704876128584,left,1,4,0.7540294355130754,R29L09,2022-12-02_09h15.02.680,t1_Paradigm,2021.1.4,60.02507153825378,
H,right,Target,0,61,61,61,3973.5744973190594,3975.5754183420504,right,1,4,0.9605288231105078,R29L09,2022-12-02_09h15.02.680,t1_Paradigm,2021.1.4,60.02507153825378,
Z,left,Distractor,0,62,62,62,3977.0742377901042,3979.0764234152157,left,1,4,0.6916363027412444,R29L09,2022-12-02_09h15.02.680,t1_Paradigm,2021.1.4,60.02507153825378,
R,right,Target,0,63,63,63,3980.574408456858,3982.574807534751,None,0,4,,R29L09,2022-12-02_09h15.02.680,t1_Paradigm,2021.1.4,60.02507153825378,
J,left,Pretarget,0,0,0,0,4006.013951044297,4008.0085403950943,None,0,4,,R29L09,2022-12-02_09h15.02.680,t1_Paradigm,2021.1.4,60.02507153825378,
G,left,Pretarget,0,1,1,1,4009.507764695474,4011.5086151419964,left,1,4,0.563589404016966,R29L09,2022-12-02_09h15.02.680,t1_Paradigm,2021.1.4,60.02507153825378,
Z,left,Distractor,0,2,2,2,4013.0077611666347,4015.0084630817582,left,1,4,0.3756567622185685,R29L09,2022-12-02_09h15.02.680,t1_Paradigm,2021.1.4,60.02507153825378,
F,left,Distractor,0,3,3,3,4016.5077406353084,4018.508314229548,left,1,4,0.5234371641709004,R29L09,2022-12-02_09h15.02.680,t1_Paradigm,2021.1.4,60.02507153825378,
J,right,Target,0,4,4,4,4020.007621296885,4022.0095210872823,right,1,4,0.4308443577028811,R29L09,2022-12-02_09h15.02.680,t1_Paradigm,2021.1.4,60.02507153825378,
G,right,Target,0,5,5,5,4023.5077518633625,4025.5073521438753,left,0,4,0.46852128810132854,R29L09,2022-12-02_09h15.02.680,t1_Paradigm,2021.1.4,60.02507153825378,
H,left,Distractor,0,6,6,6,4027.0077111214923,4029.0098855185497,left,1,4,0.5660762623883784,R29L09,2022-12-02_09h15.02.680,t1_Paradigm,2021.1.4,60.02507153825378,
P,left,Distractor,0,7,7,7,4030.5075080537354,4032.507927021361,left,1,4,1.3241914341924712,R29L09,2022-12-02_09h15.02.680,t1_Paradigm,2021.1.4,60.02507153825378,
G,left,Lure,0,8,8,8,4034.0076482442673,4036.0085554727702,left,1,4,0.799368404695997,R29L09,2022-12-02_09h15.02.680,t1_Paradigm,2021.1.4,60.02507153825378,
S,left,Distractor,0,9,9,9,4037.5078080037492,4039.5097379495564,left,1,4,1.266255526628811,R29L09,2022-12-02_09h15.02.680,t1_Paradigm,2021.1.4,60.02507153825378,
R,left,Pretarget,0,10,10,10,4041.00773903128,4043.0093520245573,left,1,4,0.8067535912268795,R29L09,2022-12-02_09h15.02.680,t1_Paradigm,2021.1.4,60.02507153825378,
T,left,Pretarget,0,11,11,11,4044.507535321929,4046.5086671119207,left,1,4,0.5872710194380488,R29L09,2022-12-02_09h15.02.680,t1_Paradigm,2021.1.4,60.02507153825378,
X,left,Distractor,0,12,12,12,4048.0076091064257,4050.0082949814387,left,1,4,1.0075061289244331,R29L09,2022-12-02_09h15.02.680,t1_Paradigm,2021.1.4,60.02507153825378,
F,left,Pretarget,0,13,13,13,4051.5076508107013,4053.509642029705,left,1,4,0.9625357614131644,R29L09,2022-12-02_09h15.02.680,t1_Paradigm,2021.1.4,60.02507153825378,
R,right,Target,0,14,14,14,4055.0078965451394,4057.009349137312,right,1,4,0.758959202299593,R29L09,2022-12-02_09h15.02.680,t1_Paradigm,2021.1.4,60.02507153825378,
T,right,Target,0,15,15,15,4058.50765048989,4060.5240604827413,right,1,4,0.5077884348283987,R29L09,2022-12-02_09h15.02.680,t1_Paradigm,2021.1.4,60.02507153825378,
C,left,Distractor,0,16,16,16,4062.0077492969576,4064.0085346206324,left,1,4,0.5754074347787537,R29L09,2022-12-02_09h15.02.680,t1_Paradigm,2021.1.4,60.02507153825378,
F,right,Target,0,17,17,17,4065.507653377106,4067.5098082052136,right,1,4,0.7862267442396842,R29L09,2022-12-02_09h15.02.680,t1_Paradigm,2021.1.4,60.02507153825378,
M,left,Distractor,0,18,18,18,4069.0076569059456,4071.0099535285844,left,1,4,1.0462571049574763,R29L09,2022-12-02_09h15.02.680,t1_Paradigm,2021.1.4,60.02507153825378,
N,left,Distractor,0,19,19,19,4072.5079019987897,4074.50833764812,left,1,4,0.6995925171067938,R29L09,2022-12-02_09h15.02.680,t1_Paradigm,2021.1.4,60.02507153825378,
R,left,Lure,0,20,20,20,4076.0076411866175,4078.01015820037,left,1,4,0.8301355773874093,R29L09,2022-12-02_09h15.02.680,t1_Paradigm,2021.1.4,60.02507153825378,
F,right,Target,0,21,21,21,4079.507904244412,4081.509216325241,right,1,4,0.7548808444407769,R29L09,2022-12-02_09h15.02.680,t1_Paradigm,2021.1.4,60.02507153825378,
P,left,Distractor,0,22,22,22,4083.0078933371406,4085.009706190118,left,1,4,0.7904276485205628,R29L09,2022-12-02_09h15.02.680,t1_Paradigm,2021.1.4,60.02507153825378,
L,left,Pretarget,0,23,23,23,4086.5076350914023,4088.5092185708345,left,1,4,0.7950744678091723,R29L09,2022-12-02_09h15.02.680,t1_Paradigm,2021.1.4,60.02507153825378,
T,left,Distractor,0,24,24,24,4090.0077669410675,4092.0095676035853,left,1,4,0.6864749167871196,R29L09,2022-12-02_09h15.02.680,t1_Paradigm,2021.1.4,60.02507153825378,
F,left,Distractor,0,25,25,25,4093.507371071202,4095.5093324556074,right,0,4,0.5307264308212325,R29L09,2022-12-02_09h15.02.680,t1_Paradigm,2021.1.4,60.02507153825378,
V,left,Distractor,0,26,26,26,4097.007576063799,4099.009347212501,left,1,4,0.8707603588700294,R29L09,2022-12-02_09h15.02.680,t1_Paradigm,2021.1.4,60.02507153825378,
L,right,Target,0,27,27,27,4100.507808645343,4102.509579473262,right,1,4,1.018493282084819,R29L09,2022-12-02_09h15.02.680,t1_Paradigm,2021.1.4,60.02507153825378,
S,left,Pretarget,0,28,28,28,4104.007691873383,4106.0098643456,left,1,4,1.0219585870217998,R29L09,2022-12-02_09h15.02.680,t1_Paradigm,2021.1.4,60.02507153825378,
W,left,Distractor,0,29,29,29,4107.5079077732225,4109.509352986963,left,1,4,0.8506354769924656,R29L09,2022-12-02_09h15.02.680,t1_Paradigm,2021.1.4,60.02507153825378,
Q,left,Distractor,0,30,30,30,4111.007981878531,4113.008820776158,right,0,4,1.1277447030588519,R29L09,2022-12-02_09h15.02.680,t1_Paradigm,2021.1.4,60.02507153825378,
L,right,Target,0,31,31,31,4114.50788082584,4116.507899111573,right,1,4,0.7000689083070029,R29L09,2022-12-02_09h15.02.680,t1_Paradigm,2021.1.4,60.02507153825378,
S,right,Target,0,32,32,32,4118.007689306949,4120.009567924397,None,0,4,,R29L09,2022-12-02_09h15.02.680,t1_Paradigm,2021.1.4,60.02507153825378,
Z,left,Pretarget,0,33,33,33,4121.507825006265,4123.509310961876,left,1,4,1.026774789846968,R29L09,2022-12-02_09h15.02.680,t1_Paradigm,2021.1.4,60.02507153825378,
F,left,Distractor,0,34,34,34,4125.007842650375,4127.007862219325,left,1,4,1.4324345740024,R29L09,2022-12-02_09h15.02.680,t1_Paradigm,2021.1.4,60.02507153825378,
V,left,Distractor,0,35,35,35,4128.50774448493,4130.509743403178,left,1,4,1.0822963403479662,R29L09,2022-12-02_09h15.02.680,t1_Paradigm,2021.1.4,60.02507153825378,
M,left,Distractor,0,36,36,36,4132.007838479971,4134.009211192402,left,1,4,0.8629789816623088,R29L09,2022-12-02_09h15.02.680,t1_Paradigm,2021.1.4,60.02507153825378,
Z,right,Target,0,37,37,37,4135.507566760527,4137.508650751028,left,0,4,1.1554430823307484,R29L09,2022-12-02_09h15.02.680,t1_Paradigm,2021.1.4,60.02507153825378,
H,left,Pretarget,0,38,38,38,4139.007552966039,4141.009870120033,left,1,4,0.7584446356340777,R29L09,2022-12-02_09h15.02.680,t1_Paradigm,2021.1.4,60.02507153825378,
L,left,Distractor,0,39,39,39,4142.507842971187,4144.508956475474,left,1,4,1.179306913370965,R29L09,2022-12-02_09h15.02.680,t1_Paradigm,2021.1.4,60.02507153825378,
G,left,Distractor,0,40,40,40,4146.007656905946,4148.007353427092,left,1,4,0.7207680260471534,R29L09,2022-12-02_09h15.02.680,t1_Paradigm,2021.1.4,60.02507153825378,
K,left,Distractor,0,41,41,41,4149.507743201713,4151.520565664017,left,1,4,0.8875055899843574,R29L09,2022-12-02_09h15.02.680,t1_Paradigm,2021.1.4,60.02507153825378,
H,right,Target,0,42,42,42,4153.007803833316,4155.0097039445245,right,1,4,1.206491367542185,R29L09,2022-12-02_09h15.02.680,t1_Paradigm,2021.1.4,60.02507153825378,
B,left,Distractor,0,43,43,43,4156.507893337141,4158.509645558515,left,1,4,0.8424832525197417,R29L09,2022-12-02_09h15.02.680,t1_Paradigm,2021.1.4,60.02507153825378,
Z,left,Distractor,0,44,44,44,4160.007581838232,4162.009665127465,left,1,4,0.8306559185148217,R29L09,2022-12-02_09h15.02.680,t1_Paradigm,2021.1.4,60.02507153825378,
T,left,Pretarget,0,45,45,45,4163.50794626947,4165.509220495645,left,1,4,0.8190181785903405,R29L09,2022-12-02_09h15.02.680,t1_Paradigm,2021.1.4,60.02507153825378,
H,right,Target,0,46,46,46,4167.008123993874,4169.009833869379,right,1,4,0.7743647636089008,R29L09,2022-12-02_09h15.02.680,t1_Paradigm,2021.1.4,60.02507153825378,
F,left,Distractor,0,47,47,47,4170.507634449779,4172.508711061819,right,0,4,0.7475697632471565,R29L09,2022-12-02_09h15.02.680,t1_Paradigm,2021.1.4,60.02507153825378,
R,left,Distractor,0,48,48,48,4174.0077374272805,4176.007373958419,left,1,4,0.7845614602265414,R29L09,2022-12-02_09h15.02.680,t1_Paradigm,2021.1.4,60.02507153825378,
T,right,Target,0,49,49,49,4177.507812174183,4179.5083944301,right,1,4,0.9958193062630016,R29L09,2022-12-02_09h15.02.680,t1_Paradigm,2021.1.4,60.02507153825378,
H,right,Target,0,50,50,50,4181.007679041271,4183.009724796662,right,1,4,0.7586197936034296,R29L09,2022-12-02_09h15.02.680,t1_Paradigm,2021.1.4,60.02507153825378,
Y,left,Pretarget,0,51,51,51,4184.507584404637,4186.508692776115,left,1,4,0.9234918930160347,R29L09,2022-12-02_09h15.02.680,t1_Paradigm,2021.1.4,60.02507153825378,
H,left,Distractor,0,52,52,52,4188.007776565151,4190.0094537188415,left,1,4,0.8468179313058499,R29L09,2022-12-02_09h15.02.680,t1_Paradigm,2021.1.4,60.02507153825378,
S,left,Distractor,0,53,53,53,4191.507966480014,4193.509770671371,left,1,4,0.674463763134554,R29L09,2022-12-02_09h15.02.680,t1_Paradigm,2021.1.4,60.02507153825378,
Q,left,Distractor,0,54,54,54,4195.007867672946,4197.01003789957,left,1,4,0.7741796607442666,R29L09,2022-12-02_09h15.02.680,t1_Paradigm,2021.1.4,60.02507153825378,
Y,right,Target,0,55,55,55,4198.507778169151,4200.509822962107,right,1,4,0.5060862585669383,R29L09,2022-12-02_09h15.02.680,t1_Paradigm,2021.1.4,60.02507153825378,
R,left,Distractor,0,56,56,56,4202.007598199154,4204.010051694058,left,1,4,0.8143524319748394,R29L09,2022-12-02_09h15.02.680,t1_Paradigm,2021.1.4,60.02507153825378,
H,left,Pretarget,0,57,57,57,4205.5076751916495,4207.509105327685,left,1,4,0.9952049701241776,R29L09,2022-12-02_09h15.02.680,t1_Paradigm,2021.1.4,60.02507153825378,
J,left,Distractor,0,58,58,58,4209.007651773107,4211.009797939536,left,1,4,0.9502483971300535,R29L09,2022-12-02_09h15.02.680,t1_Paradigm,2021.1.4,60.02507153825378,
V,left,Distractor,0,59,59,59,4212.507584725448,4214.508607442724,left,1,4,0.9555172517721076,R29L09,2022-12-02_09h15.02.680,t1_Paradigm,2021.1.4,60.02507153825378,
Y,left,Lure,0,60,60,60,4216.007795492478,4218.009218891646,left,1,4,1.1827629150357097,R29L09,2022-12-02_09h15.02.680,t1_Paradigm,2021.1.4,60.02507153825378,
H,right,Target,0,61,61,61,4219.507463141432,4221.508907392767,right,1,4,0.7393328470061533,R29L09,2022-12-02_09h15.02.680,t1_Paradigm,2021.1.4,60.02507153825378,
L,left,Distractor,0,62,62,62,4223.007743201713,4225.007401868206,left,1,4,1.0969143323309254,R29L09,2022-12-02_09h15.02.680,t1_Paradigm,2021.1.4,60.02507153825378,
P,left,Distractor,0,63,63,63,4226.507832705509,4228.508907071955,None,0,4,,R29L09,2022-12-02_09h15.02.680,t1_Paradigm,2021.1.4,60.02507153825378,
