Letter,CorrAnswer,Stimulus,finaln_nback_run.thisRepN,finaln_nback_run.thisTrialN,finaln_nback_run.thisN,finaln_nback_run.thisIndex,finaln_fixcross.started,finaln_nback_trial.started,finaln_trial_resp.keys,finaln_trial_resp.corr,finaln_level,finaln_money,finaln_trial_resp.rt,Participant,date,expName,psychopyVersion,frameRate,
F,left,Distractor,0,0,0,0,4530.4738222229935,4532.475677101087,None,0,1,3.0,,R29L09,2022-12-02_09h15.02.680,t1_Paradigm,2021.1.4,60.02507153825378,
T,left,Pretarget,0,1,1,1,4533.974433671916,4535.974233812158,left,1,1,3.0,0.5303449970670044,R29L09,2022-12-02_09h15.02.680,t1_Paradigm,2021.1.4,60.02507153825378,
B,left,Distractor,0,2,2,2,4537.474565521581,4539.475141361472,left,1,1,3.0,0.62935320509132,R29L09,2022-12-02_09h15.02.680,t1_Paradigm,2021.1.4,60.02507153825378,
T,right,Target,0,3,3,3,4540.974602413829,4542.974321391142,right,1,1,3.0,0.9859061987372115,R29L09,2022-12-02_09h15.02.680,t1_Paradigm,2021.1.4,60.02507153825378,
Z,left,Distractor,0,4,4,4,4544.474699937709,4546.475219316402,left,1,1,3.0,0.94117611204274,R29L09,2022-12-02_09h15.02.680,t1_Paradigm,2021.1.4,60.02507153825378,
T,right,Target,0,5,5,5,4547.974265250756,4549.974407045316,right,1,1,3.0,0.5941150127036963,R29L09,2022-12-02_09h15.02.680,t1_Paradigm,2021.1.4,60.02507153825378,
L,left,Distractor,0,6,6,6,4551.474652458972,4553.475840068568,left,1,1,3.0,0.9326068447553553,R29L09,2022-12-02_09h15.02.680,t1_Paradigm,2021.1.4,60.02507153825378,
T,right,Target,0,7,7,7,4554.974621341156,4556.974115115358,right,1,1,3.0,0.6983160453091841,R29L09,2022-12-02_09h15.02.680,t1_Paradigm,2021.1.4,60.02507153825378,
Z,left,Lure,0,8,8,8,4558.474542744632,4560.474920649576,left,1,1,3.0,0.7655507242598105,R29L09,2022-12-02_09h15.02.680,t1_Paradigm,2021.1.4,60.02507153825378,
J,left,Distractor,0,9,9,9,4561.974606584263,4563.974565200799,left,1,1,3.0,0.6418176522129215,R29L09,2022-12-02_09h15.02.680,t1_Paradigm,2021.1.4,60.02507153825378,
D,left,Pretarget,0,10,10,10,4565.474525742116,4567.476976349804,left,1,1,3.0,0.5632002709899098,R29L09,2022-12-02_09h15.02.680,t1_Paradigm,2021.1.4,60.02507153825378,
H,left,Distractor,0,11,11,11,4568.974611717102,4570.974144308362,left,1,1,3.0,0.7781463794526644,R29L09,2022-12-02_09h15.02.680,t1_Paradigm,2021.1.4,60.02507153825378,
D,right,Target,0,12,12,12,4572.47455653912,4574.476180760452,right,1,1,3.0,1.0840639602392912,R29L09,2022-12-02_09h15.02.680,t1_Paradigm,2021.1.4,60.02507153825378,
S,left,Distractor,0,13,13,13,4575.974627115618,4577.97465213816,left,1,1,3.0,0.9456978185044136,R29L09,2022-12-02_09h15.02.680,t1_Paradigm,2021.1.4,60.02507153825378,
R,left,Pretarget,0,14,14,14,4579.474581882503,4581.4766141641885,left,1,1,3.0,0.9480249173357151,R29L09,2022-12-02_09h15.02.680,t1_Paradigm,2021.1.4,60.02507153825378,
Z,left,Distractor,0,15,15,15,4582.974672669516,4584.9742729500285,left,1,1,3.0,0.7461242286954075,R29L09,2022-12-02_09h15.02.680,t1_Paradigm,2021.1.4,60.02507153825378,
R,right,Target,0,16,16,16,4586.474603376235,4588.476645602786,right,1,1,3.0,0.555433650733903,R29L09,2022-12-02_09h15.02.680,t1_Paradigm,2021.1.4,60.02507153825378,
T,left,Distractor,0,17,17,17,4589.97437400269,4591.974289631733,left,1,1,3.0,0.8501324592216406,R29L09,2022-12-02_09h15.02.680,t1_Paradigm,2021.1.4,60.02507153825378,
M,left,Distractor,0,18,18,18,4593.474389722018,4595.475778153748,left,1,1,3.0,0.9967249307665043,R29L09,2022-12-02_09h15.02.680,t1_Paradigm,2021.1.4,60.02507153825378,
R,left,Lure,0,19,19,19,4596.973846603942,4598.974604659452,left,1,1,3.0,0.6016349361161701,R29L09,2022-12-02_09h15.02.680,t1_Paradigm,2021.1.4,60.02507153825378,
J,left,Distractor,0,20,20,20,4600.474497190735,4602.476156700315,left,1,1,3.0,0.7645170997129753,R29L09,2022-12-02_09h15.02.680,t1_Paradigm,2021.1.4,60.02507153825378,
K,left,Distractor,0,21,21,21,4603.974471847352,4605.974738754769,left,1,1,3.0,0.6576883766392712,R29L09,2022-12-02_09h15.02.680,t1_Paradigm,2021.1.4,60.02507153825378,
Z,left,Distractor,0,22,22,22,4607.474417631805,4609.4767235577165,left,1,1,3.0,0.7077402503346093,R29L09,2022-12-02_09h15.02.680,t1_Paradigm,2021.1.4,60.02507153825378,
W,left,Pretarget,0,23,23,23,4610.974426614266,4612.974089771975,left,1,1,3.0,0.8743119595746975,R29L09,2022-12-02_09h15.02.680,t1_Paradigm,2021.1.4,60.02507153825378,
Q,left,Distractor,0,24,24,24,4614.474574183259,4616.474841090647,left,1,1,3.0,0.669409845926566,R29L09,2022-12-02_09h15.02.680,t1_Paradigm,2021.1.4,60.02507153825378,
W,right,Target,0,25,25,25,4617.974652779783,4619.974092980003,right,1,1,3.0,0.7542777363851201,R29L09,2022-12-02_09h15.02.680,t1_Paradigm,2021.1.4,60.02507153825378,
D,left,Pretarget,0,26,26,26,4621.474443295971,4623.487489998981,left,1,1,3.0,0.6647193975513801,R29L09,2022-12-02_09h15.02.680,t1_Paradigm,2021.1.4,60.02507153825378,
W,right,Target,0,27,27,27,4624.974698975275,4626.97399513534,right,1,1,3.0,0.8584380271204282,R29L09,2022-12-02_09h15.02.680,t1_Paradigm,2021.1.4,60.02507153825378,
D,right,Target,0,28,28,28,4628.474687747221,4630.475389341533,right,1,1,3.0,0.604695709538646,R29L09,2022-12-02_09h15.02.680,t1_Paradigm,2021.1.4,60.02507153825378,
L,left,Pretarget,0,29,29,29,4631.974317862332,4633.974334223225,left,1,1,3.0,0.6421275470638648,R29L09,2022-12-02_09h15.02.680,t1_Paradigm,2021.1.4,60.02507153825378,
P,left,Distractor,0,30,30,30,4635.474729130685,4637.476745051448,left,1,1,3.0,0.7394075938791502,R29L09,2022-12-02_09h15.02.680,t1_Paradigm,2021.1.4,60.02507153825378,
L,right,Target,0,31,31,31,4638.974480188219,4640.974017912318,right,1,1,3.0,0.8743870272883214,R29L09,2022-12-02_09h15.02.680,t1_Paradigm,2021.1.4,60.02507153825378,
R,left,Distractor,0,32,32,32,4642.474624869996,4644.490861629689,left,1,1,3.0,0.8296409004833549,R29L09,2022-12-02_09h15.02.680,t1_Paradigm,2021.1.4,60.02507153825378,
V,left,Distractor,0,33,33,33,4645.974604980263,4647.974408328533,left,1,1,3.0,0.6740149609104265,R29L09,2022-12-02_09h15.02.680,t1_Paradigm,2021.1.4,60.02507153825378,
L,left,Lure,0,34,34,34,4649.474633210833,4651.474854243541,left,1,1,3.0,0.9173834990942851,R29L09,2022-12-02_09h15.02.680,t1_Paradigm,2021.1.4,60.02507153825378,
H,left,Distractor,0,35,35,35,4652.973926483683,4654.974289310921,left,1,1,3.0,0.6020019338175189,R29L09,2022-12-02_09h15.02.680,t1_Paradigm,2021.1.4,60.02507153825378,
K,left,Pretarget,0,36,36,36,4656.474524458899,4658.475816008402,left,1,1,3.0,1.0046192302834243,R29L09,2022-12-02_09h15.02.680,t1_Paradigm,2021.1.4,60.02507153825378,
F,left,Distractor,0,37,37,37,4659.974659516622,4661.974092017597,left,1,1,3.0,1.0743722062034067,R29L09,2022-12-02_09h15.02.680,t1_Paradigm,2021.1.4,60.02507153825378,
K,right,Target,0,38,38,38,4663.474598885019,4665.475205521885,right,1,1,3.0,0.5653262269333936,R29L09,2022-12-02_09h15.02.680,t1_Paradigm,2021.1.4,60.02507153825378,
S,left,Pretarget,0,39,39,39,4666.974506173196,4668.974276478839,left,1,1,3.0,0.6341366861015558,R29L09,2022-12-02_09h15.02.680,t1_Paradigm,2021.1.4,60.02507153825378,
W,left,Distractor,0,40,40,40,4670.474686464004,4672.476181722857,left,1,1,3.0,0.7000644170620944,R29L09,2022-12-02_09h15.02.680,t1_Paradigm,2021.1.4,60.02507153825378,
S,right,Target,0,41,41,41,4673.974432388699,4675.974276158056,right,1,1,3.0,0.8663438755320385,R29L09,2022-12-02_09h15.02.680,t1_Paradigm,2021.1.4,60.02507153825378,
F,left,Pretarget,0,42,42,42,4677.474284819706,4679.474912308739,left,1,1,3.0,0.5975857712619472,R29L09,2022-12-02_09h15.02.680,t1_Paradigm,2021.1.4,60.02507153825378,
Y,left,Distractor,0,43,43,43,4680.974627757212,4682.97411736098,left,1,1,3.0,0.6663885312154889,R29L09,2022-12-02_09h15.02.680,t1_Paradigm,2021.1.4,60.02507153825378,
F,right,Target,0,44,44,44,4684.47462390759,4686.474729130685,right,1,1,3.0,0.6213748554000631,R29L09,2022-12-02_09h15.02.680,t1_Paradigm,2021.1.4,60.02507153825378,
F,left,Lure,0,45,45,45,4687.974686143192,4689.973818373372,left,1,1,3.0,1.458774035301758,R29L09,2022-12-02_09h15.02.680,t1_Paradigm,2021.1.4,60.02507153825378,
B,left,Pretarget,0,46,46,46,4691.47457065442,4693.474608509074,left,1,1,3.0,1.3016955035855062,R29L09,2022-12-02_09h15.02.680,t1_Paradigm,2021.1.4,60.02507153825378,
W,left,Distractor,0,47,47,47,4694.974765381339,4696.974155857228,left,1,1,3.0,0.6504690448346082,R29L09,2022-12-02_09h15.02.680,t1_Paradigm,2021.1.4,60.02507153825378,
B,right,Target,0,48,48,48,4698.4747249602515,4700.4751461734995,right,1,1,3.0,0.8933473973011132,R29L09,2022-12-02_09h15.02.680,t1_Paradigm,2021.1.4,60.02507153825378,
R,left,Pretarget,0,49,49,49,4701.97482922097,4703.974102924869,left,1,1,3.0,0.8022235439275391,R29L09,2022-12-02_09h15.02.680,t1_Paradigm,2021.1.4,60.02507153825378,
N,left,Distractor,0,50,50,50,4705.474603697046,4707.475451256352,left,1,1,3.0,0.7408460707811173,R29L09,2022-12-02_09h15.02.680,t1_Paradigm,2021.1.4,60.02507153825378,
R,right,Target,0,51,51,51,4708.974501040357,4710.974525100522,right,1,1,3.0,0.45794636572827585,R29L09,2022-12-02_09h15.02.680,t1_Paradigm,2021.1.4,60.02507153825378,
V,left,Distractor,0,52,52,52,4712.4746415517,4714.476198404591,left,1,1,3.0,0.7160811064823065,R29L09,2022-12-02_09h15.02.680,t1_Paradigm,2021.1.4,60.02507153825378,
G,left,Distractor,0,53,53,53,4715.974436879915,4717.974015345884,left,1,1,3.0,1.1863324806327,R29L09,2022-12-02_09h15.02.680,t1_Paradigm,2021.1.4,60.02507153825378,
H,left,Distractor,0,54,54,54,4719.474769551773,4721.474613641913,None,0,1,3.0,,R29L09,2022-12-02_09h15.02.680,t1_Paradigm,2021.1.4,60.02507153825378,
V,left,Lure,0,55,55,55,4722.974594072992,4724.9758169708075,left,1,1,3.0,0.8885735403746367,R29L09,2022-12-02_09h15.02.680,t1_Paradigm,2021.1.4,60.02507153825378,
L,left,Distractor,0,56,56,56,4726.4746162083175,4728.476056289219,left,1,1,3.0,0.8286457721551415,R29L09,2022-12-02_09h15.02.680,t1_Paradigm,2021.1.4,60.02507153825378,
K,left,Distractor,0,57,57,57,4729.974670744705,4731.974369832285,left,1,1,3.0,0.6900460864417255,R29L09,2022-12-02_09h15.02.680,t1_Paradigm,2021.1.4,60.02507153825378,
D,left,Pretarget,0,58,58,58,4733.474501040357,4735.475933101203,left,1,1,3.0,0.6925480224599596,R29L09,2022-12-02_09h15.02.680,t1_Paradigm,2021.1.4,60.02507153825378,
T,left,Pretarget,0,59,59,59,4736.974591827369,4738.97411736098,left,1,1,3.0,0.7783738281868864,R29L09,2022-12-02_09h15.02.680,t1_Paradigm,2021.1.4,60.02507153825378,
D,right,Target,0,60,60,60,4740.474612358696,4742.474839486647,right,1,1,3.0,0.7176523954549339,R29L09,2022-12-02_09h15.02.680,t1_Paradigm,2021.1.4,60.02507153825378,
T,right,Target,0,61,61,61,4743.974429180671,4745.974519646872,right,1,1,3.0,0.8177218170312699,R29L09,2022-12-02_09h15.02.680,t1_Paradigm,2021.1.4,60.02507153825378,
T,left,Lure,0,62,62,62,4747.474433671916,4749.474650854972,left,1,1,3.0,0.9016715717443731,R29L09,2022-12-02_09h15.02.680,t1_Paradigm,2021.1.4,60.02507153825378,
F,left,Distractor,0,63,63,63,4750.974699296086,4752.974339676875,left,1,1,3.0,0.5700545299332589,R29L09,2022-12-02_09h15.02.680,t1_Paradigm,2021.1.4,60.02507153825378,
