Currentstep,EDround.thisRepN,EDround.thisTrialN,EDround.thisN,EDround.thisIndex,question.started,EDclick.clicked_name,EDleftbutton.wasclicked,EDrightbutton.wasclicked,EDleftbutton.value,EDrightbutton.value,EDleftbutton.nback,EDrightbutton.nback,Participant,date,expName,psychopyVersion,frameRate,
,,,,,,,,,,,,,R31R02,2022-11-30_12h01.20.614,t1_Paradigm,2021.1.4,60.077168735194675,
0,0,0,0,0,2404.4669194804737,EDleftbutton,1,0,1.00,2.00,1,4,R31R02,2022-11-30_12h01.20.614,t1_Paradigm,2021.1.4,60.077168735194675,
1,0,1,1,1,2407.063610979385,EDrightbutton,0,1,0.50,2.00,1,4,R31R02,2022-11-30_12h01.20.614,t1_Paradigm,2021.1.4,60.077168735194675,
2,0,2,2,2,2409.898563189432,EDrightbutton,0,1,0.75,2.00,1,4,R31R02,2022-11-30_12h01.20.614,t1_Paradigm,2021.1.4,60.077168735194675,
3,0,3,3,3,2412.146383175568,EDrightbutton,0,1,0.88,2.00,1,4,R31R02,2022-11-30_12h01.20.614,t1_Paradigm,2021.1.4,60.077168735194675,
4,0,4,4,4,2414.083506834053,EDrightbutton,0,1,0.94,2.00,1,4,R31R02,2022-11-30_12h01.20.614,t1_Paradigm,2021.1.4,60.077168735194675,
5,0,5,5,5,2415.489421535196,EDrightbutton,0,1,0.97,2.00,1,4,R31R02,2022-11-30_12h01.20.614,t1_Paradigm,2021.1.4,60.077168735194675,
0,0,0,0,0,2417.458082973637,EDrightbutton,0,1,1.00,2.00,2,4,R31R02,2022-11-30_12h01.20.614,t1_Paradigm,2021.1.4,60.077168735194675,
1,0,1,1,1,2419.3739188151376,EDleftbutton,1,0,1.50,2.00,2,4,R31R02,2022-11-30_12h01.20.614,t1_Paradigm,2021.1.4,60.077168735194675,
2,0,2,2,2,2421.4880196279846,EDrightbutton,0,1,1.25,2.00,2,4,R31R02,2022-11-30_12h01.20.614,t1_Paradigm,2021.1.4,60.077168735194675,
3,0,3,3,3,2423.507284784777,EDrightbutton,0,1,1.38,2.00,2,4,R31R02,2022-11-30_12h01.20.614,t1_Paradigm,2021.1.4,60.077168735194675,
4,0,4,4,4,2425.1395693289523,EDrightbutton,0,1,1.44,2.00,2,4,R31R02,2022-11-30_12h01.20.614,t1_Paradigm,2021.1.4,60.077168735194675,
5,0,5,5,5,2426.372916627879,EDleftbutton,1,0,1.47,2.00,2,4,R31R02,2022-11-30_12h01.20.614,t1_Paradigm,2021.1.4,60.077168735194675,
0,0,0,0,0,2428.5552989847783,EDleftbutton,1,0,1.00,2.00,3,4,R31R02,2022-11-30_12h01.20.614,t1_Paradigm,2021.1.4,60.077168735194675,
1,0,1,1,1,2430.772083888587,EDrightbutton,0,1,0.50,2.00,3,4,R31R02,2022-11-30_12h01.20.614,t1_Paradigm,2021.1.4,60.077168735194675,
2,0,2,2,2,2432.2549437280104,EDrightbutton,0,1,0.75,2.00,3,4,R31R02,2022-11-30_12h01.20.614,t1_Paradigm,2021.1.4,60.077168735194675,
3,0,3,3,3,2433.387578267808,EDrightbutton,0,1,0.88,2.00,3,4,R31R02,2022-11-30_12h01.20.614,t1_Paradigm,2021.1.4,60.077168735194675,
4,0,4,4,4,2434.699700242054,EDrightbutton,0,1,0.94,2.00,3,4,R31R02,2022-11-30_12h01.20.614,t1_Paradigm,2021.1.4,60.077168735194675,
5,0,5,5,5,2435.803364384861,EDrightbutton,0,1,0.97,2.00,3,4,R31R02,2022-11-30_12h01.20.614,t1_Paradigm,2021.1.4,60.077168735194675,
0,0,0,0,0,2436.7159062255523,EDrightbutton,0,1,2.00,1.00,1,2,R31R02,2022-11-30_12h01.20.614,t1_Paradigm,2021.1.4,60.077168735194675,
1,0,1,1,1,2438.78759854252,EDleftbutton,1,0,2.00,0.50,1,2,R31R02,2022-11-30_12h01.20.614,t1_Paradigm,2021.1.4,60.077168735194675,
2,0,2,2,2,2440.859775271383,EDleftbutton,1,0,2.00,0.75,1,2,R31R02,2022-11-30_12h01.20.614,t1_Paradigm,2021.1.4,60.077168735194675,
3,0,3,3,3,2441.837605247303,EDleftbutton,1,0,2.00,0.88,1,2,R31R02,2022-11-30_12h01.20.614,t1_Paradigm,2021.1.4,60.077168735194675,
4,0,4,4,4,2442.7006116421835,EDleftbutton,1,0,2.00,0.94,1,2,R31R02,2022-11-30_12h01.20.614,t1_Paradigm,2021.1.4,60.077168735194675,
5,0,5,5,5,2443.553555743594,EDleftbutton,1,0,2.00,0.97,1,2,R31R02,2022-11-30_12h01.20.614,t1_Paradigm,2021.1.4,60.077168735194675,
0,0,0,0,0,2444.6171269434853,EDrightbutton,0,1,1.00,2.00,2,3,R31R02,2022-11-30_12h01.20.614,t1_Paradigm,2021.1.4,60.077168735194675,
1,0,1,1,1,2447.0368085661903,EDrightbutton,0,1,1.50,2.00,2,3,R31R02,2022-11-30_12h01.20.614,t1_Paradigm,2021.1.4,60.077168735194675,
2,0,2,2,2,2448.319453917007,EDleftbutton,1,0,1.75,2.00,2,3,R31R02,2022-11-30_12h01.20.614,t1_Paradigm,2021.1.4,60.077168735194675,
3,0,3,3,3,2449.657036708144,EDleftbutton,1,0,1.62,2.00,2,3,R31R02,2022-11-30_12h01.20.614,t1_Paradigm,2021.1.4,60.077168735194675,
4,0,4,4,4,2451.372750772949,EDrightbutton,0,1,1.56,2.00,2,3,R31R02,2022-11-30_12h01.20.614,t1_Paradigm,2021.1.4,60.077168735194675,
5,0,5,5,5,2452.8522980050475,EDrightbutton,0,1,1.59,2.00,2,3,R31R02,2022-11-30_12h01.20.614,t1_Paradigm,2021.1.4,60.077168735194675,
0,0,0,0,0,2454.1177781727165,EDrightbutton,0,1,1.00,2.00,1,3,R31R02,2022-11-30_12h01.20.614,t1_Paradigm,2021.1.4,60.077168735194675,
1,0,1,1,1,2457.216944984277,EDrightbutton,0,1,1.50,2.00,1,3,R31R02,2022-11-30_12h01.20.614,t1_Paradigm,2021.1.4,60.077168735194675,
2,0,2,2,2,2459.0327853811323,EDleftbutton,1,0,1.75,2.00,1,3,R31R02,2022-11-30_12h01.20.614,t1_Paradigm,2021.1.4,60.077168735194675,
3,0,3,3,3,2460.1331186308526,EDrightbutton,0,1,1.62,2.00,1,3,R31R02,2022-11-30_12h01.20.614,t1_Paradigm,2021.1.4,60.077168735194675,
4,0,4,4,4,2461.6784977585485,EDrightbutton,0,1,1.68,2.00,1,3,R31R02,2022-11-30_12h01.20.614,t1_Paradigm,2021.1.4,60.077168735194675,
5,0,5,5,5,2462.8326295994048,EDrightbutton,0,1,1.71,2.00,1,3,R31R02,2022-11-30_12h01.20.614,t1_Paradigm,2021.1.4,60.077168735194675,
