Letter,CorrAnswer,Stimulus,nback_run.thisRepN,nback_run.thisTrialN,nback_run.thisN,nback_run.thisIndex,fixcross.started,nback_trial.started,trial_resp.keys,trial_resp.corr,currentlevel,trial_resp.rt,Participant,date,expName,psychopyVersion,frameRate,
H,left,Distractor,0,0,0,0,280.68690086109564,282.68987855056184,None,0,1,,R31R02,2022-11-30_12h01.20.614,t1_Paradigm,2021.1.4,60.077168735194675,
Q,left,Pretarget,0,1,1,1,284.18999436029117,286.18934056462604,left,1,1,0.633840757451253,R31R02,2022-11-30_12h01.20.614,t1_Paradigm,2021.1.4,60.077168735194675,
Q,right,Target,0,2,2,2,287.68888438338763,289.68846541523817,right,1,1,0.7131550227059051,R31R02,2022-11-30_12h01.20.614,t1_Paradigm,2021.1.4,60.077168735194675,
T,left,Distractor,0,3,3,3,291.1882206428563,293.1879162012192,left,1,1,0.596212219883455,R31R02,2022-11-30_12h01.20.614,t1_Paradigm,2021.1.4,60.077168735194675,
Q,left,Lure,0,4,4,4,294.68759251144365,296.68734677665634,left,1,1,0.5120920113113243,R31R02,2022-11-30_12h01.20.614,t1_Paradigm,2021.1.4,60.077168735194675,
L,left,Distractor,0,5,5,5,298.18733234054525,300.187175468076,left,1,1,0.5576928135706112,R31R02,2022-11-30_12h01.20.614,t1_Paradigm,2021.1.4,60.077168735194675,
V,left,Pretarget,0,6,6,6,301.6866166300024,303.68665865514777,left,1,1,0.5466434106056113,R31R02,2022-11-30_12h01.20.614,t1_Paradigm,2021.1.4,60.077168735194675,
V,right,Target,0,7,7,7,305.1860205788398,307.18549927466665,right,1,1,0.4790647450136021,R31R02,2022-11-30_12h01.20.614,t1_Paradigm,2021.1.4,60.077168735194675,
K,left,Distractor,0,8,8,8,308.6854418510047,310.68508383532753,left,1,1,0.5249077532207593,R31R02,2022-11-30_12h01.20.614,t1_Paradigm,2021.1.4,60.077168735194675,
G,left,Pretarget,0,9,9,9,312.18484130856814,314.18600646351115,left,1,1,0.5290351990843192,R31R02,2022-11-30_12h01.20.614,t1_Paradigm,2021.1.4,60.077168735194675,
G,right,Target,0,10,10,10,315.6841349013266,317.68407266560826,right,1,1,0.5683421757130418,R31R02,2022-11-30_12h01.20.614,t1_Paradigm,2021.1.4,60.077168735194675,
G,right,Target,0,11,11,11,319.18380222906126,321.18325686469325,right,1,1,0.5419057982508093,R31R02,2022-11-30_12h01.20.614,t1_Paradigm,2021.1.4,60.077168735194675,
P,left,Pretarget,0,12,12,12,322.68316607756424,324.68450831552036,left,1,1,0.5295581072859932,R31R02,2022-11-30_12h01.20.614,t1_Paradigm,2021.1.4,60.077168735194675,
P,right,Target,0,13,13,13,326.1825504574226,328.18206572474446,right,1,1,0.5775880266155582,R31R02,2022-11-30_12h01.20.614,t1_Paradigm,2021.1.4,60.077168735194675,
G,left,Lure,0,14,14,14,329.6819329124701,331.6815806712548,left,1,1,0.43589755104039796,R31R02,2022-11-30_12h01.20.614,t1_Paradigm,2021.1.4,60.077168735194675,
Y,left,Distractor,0,15,15,15,333.18139460575185,335.1814950169646,left,1,1,0.4407179304980673,R31R02,2022-11-30_12h01.20.614,t1_Paradigm,2021.1.4,60.077168735194675,
B,left,Distractor,0,16,16,16,336.6808761887951,338.6804485589673,left,1,1,0.5359991813311353,R31R02,2022-11-30_12h01.20.614,t1_Paradigm,2021.1.4,60.077168735194675,
T,left,Pretarget,0,17,17,17,340.1803853608726,342.17987143516075,left,1,1,0.46420196190592833,R31R02,2022-11-30_12h01.20.614,t1_Paradigm,2021.1.4,60.077168735194675,
T,right,Target,0,18,18,18,343.6797203371534,345.67924554934143,right,1,1,0.6244797384133562,R31R02,2022-11-30_12h01.20.614,t1_Paradigm,2021.1.4,60.077168735194675,
S,left,Distractor,0,19,19,19,347.1790036642051,349.1788310724078,left,1,1,0.47056251447065733,R31R02,2022-11-30_12h01.20.614,t1_Paradigm,2021.1.4,60.077168735194675,
T,left,Lure,0,20,20,20,350.6784297483973,352.6783809864137,left,1,1,0.45975756307598203,R31R02,2022-11-30_12h01.20.614,t1_Paradigm,2021.1.4,60.077168735194675,
J,left,Distractor,0,21,21,21,354.1779572062078,356.17777563194977,left,1,1,0.9908895277767442,R31R02,2022-11-30_12h01.20.614,t1_Paradigm,2021.1.4,60.077168735194675,
P,left,Distractor,0,22,22,22,357.67726780148223,359.6769768335507,left,1,1,0.564921137120109,R31R02,2022-11-30_12h01.20.614,t1_Paradigm,2021.1.4,60.077168735194675,
F,left,Distractor,0,23,23,23,361.1767702366924,363.17901810031617,left,1,1,0.4697621120430995,R31R02,2022-11-30_12h01.20.614,t1_Paradigm,2021.1.4,60.077168735194675,
L,left,Distractor,0,24,24,24,364.6761552581738,366.67564229486743,left,1,1,0.44987042783759534,R31R02,2022-11-30_12h01.20.614,t1_Paradigm,2021.1.4,60.077168735194675,
W,left,Pretarget,0,25,25,25,368.1755261643266,370.17638366960455,left,1,1,0.5349594601721037,R31R02,2022-11-30_12h01.20.614,t1_Paradigm,2021.1.4,60.077168735194675,
W,right,Target,0,26,26,26,371.6750234666979,373.67468790721614,right,1,1,0.5291198909981176,R31R02,2022-11-30_12h01.20.614,t1_Paradigm,2021.1.4,60.077168735194675,
V,left,Distractor,0,27,27,27,375.17437544549466,377.17404758528573,left,1,1,0.6036891654075589,R31R02,2022-11-30_12h01.20.614,t1_Paradigm,2021.1.4,60.077168735194675,
W,left,Lure,0,28,28,28,378.67380088809296,380.673510240973,left,1,1,0.9396063495951239,R31R02,2022-11-30_12h01.20.614,t1_Paradigm,2021.1.4,60.077168735194675,
R,left,Pretarget,0,29,29,29,382.1733366867702,384.17391316901194,left,1,1,0.5854592385003343,R31R02,2022-11-30_12h01.20.614,t1_Paradigm,2021.1.4,60.077168735194675,
R,right,Target,0,30,30,30,385.6727156130073,387.67234925646335,right,1,1,0.6612616780039389,R31R02,2022-11-30_12h01.20.614,t1_Paradigm,2021.1.4,60.077168735194675,
G,left,Distractor,0,31,31,31,389.1722873415565,391.1715780470695,left,1,1,0.5082625909999479,R31R02,2022-11-30_12h01.20.614,t1_Paradigm,2021.1.4,60.077168735194675,
R,left,Lure,0,32,32,32,392.6713849239459,394.6710561013024,left,1,1,0.4974415994947776,R31R02,2022-11-30_12h01.20.614,t1_Paradigm,2021.1.4,60.077168735194675,
S,left,Distractor,0,33,33,33,396.17100733931875,398.17063007547404,left,1,1,1.2729596795979887,R31R02,2022-11-30_12h01.20.614,t1_Paradigm,2021.1.4,60.077168735194675,
R,left,Lure,0,34,34,34,399.6702550572809,401.67038883196074,left,1,1,0.49960862085572444,R31R02,2022-11-30_12h01.20.614,t1_Paradigm,2021.1.4,60.077168735194675,
P,left,Pretarget,0,35,35,35,403.1696792166622,405.16975588849164,left,1,1,0.5171622959314846,R31R02,2022-11-30_12h01.20.614,t1_Paradigm,2021.1.4,60.077168735194675,
P,right,Target,0,36,36,36,406.66917459422257,408.66872418741696,right,1,1,0.5153905033366755,R31R02,2022-11-30_12h01.20.614,t1_Paradigm,2021.1.4,60.077168735194675,
Y,left,Pretarget,0,37,37,37,410.1686093400931,412.16827217658283,left,1,1,0.5450653827865608,R31R02,2022-11-30_12h01.20.614,t1_Paradigm,2021.1.4,60.077168735194675,
Y,right,Target,0,38,38,38,413.6679924367345,415.6676639349025,right,1,1,0.5708579094789457,R31R02,2022-11-30_12h01.20.614,t1_Paradigm,2021.1.4,60.077168735194675,
J,left,Distractor,0,39,39,39,417.16734858599375,419.16697581339395,left,1,1,0.5319063820934389,R31R02,2022-11-30_12h01.20.614,t1_Paradigm,2021.1.4,60.077168735194675,
Y,left,Lure,0,40,40,40,420.66689978318755,422.66653438904905,left,1,1,0.6149807742913254,R31R02,2022-11-30_12h01.20.614,t1_Paradigm,2021.1.4,60.077168735194675,
T,left,Distractor,0,41,41,41,424.1664708701428,426.1658058464236,left,1,1,1.0851060348795727,R31R02,2022-11-30_12h01.20.614,t1_Paradigm,2021.1.4,60.077168735194675,
V,left,Distractor,0,42,42,42,427.6656476907665,429.6652194193157,left,1,1,0.7562949484563433,R31R02,2022-11-30_12h01.20.614,t1_Paradigm,2021.1.4,60.077168735194675,
N,left,Pretarget,0,43,43,43,431.1650307874079,433.1663672509312,left,1,1,0.4911189016420394,R31R02,2022-11-30_12h01.20.614,t1_Paradigm,2021.1.4,60.077168735194675,
N,right,Target,0,44,44,44,434.6812489613949,436.6807841184782,right,1,1,0.4938778037321754,R31R02,2022-11-30_12h01.20.614,t1_Paradigm,2021.1.4,60.077168735194675,
N,right,Target,0,45,45,45,438.18083769248915,440.18029746096,right,1,1,0.7441208116651978,R31R02,2022-11-30_12h01.20.614,t1_Paradigm,2021.1.4,60.077168735194675,
X,left,Distractor,0,46,46,46,441.6800712951517,443.68008059842396,left,1,1,0.4757896715600509,R31R02,2022-11-30_12h01.20.614,t1_Paradigm,2021.1.4,60.077168735194675,
Z,left,Distractor,0,47,47,47,445.17951213626657,447.17958367525716,left,1,1,0.38351722806692123,R31R02,2022-11-30_12h01.20.614,t1_Paradigm,2021.1.4,60.077168735194675,
H,left,Pretarget,0,48,48,48,448.67905563421664,450.6788573782251,left,1,1,0.4789976972679142,R31R02,2022-11-30_12h01.20.614,t1_Paradigm,2021.1.4,60.077168735194675,
H,right,Target,0,49,49,49,452.17841723709716,454.1780919432931,right,1,1,0.5864267790457234,R31R02,2022-11-30_12h01.20.614,t1_Paradigm,2021.1.4,60.077168735194675,
K,left,Distractor,0,50,50,50,455.67756614787504,457.6776755415485,left,1,1,0.6243186955398414,R31R02,2022-11-30_12h01.20.614,t1_Paradigm,2021.1.4,60.077168735194675,
V,left,Pretarget,0,51,51,51,459.17694635730004,461.176801354537,left,1,1,0.9887911581608932,R31R02,2022-11-30_12h01.20.614,t1_Paradigm,2021.1.4,60.077168735194675,
V,right,Target,0,52,52,52,462.6764927424665,464.6762210227025,right,1,1,0.6680241962021682,R31R02,2022-11-30_12h01.20.614,t1_Paradigm,2021.1.4,60.077168735194675,
R,left,Distractor,0,53,53,53,466.1759448116936,468.1755980240996,left,1,1,0.5395947365323082,R31R02,2022-11-30_12h01.20.614,t1_Paradigm,2021.1.4,60.077168735194675,
V,left,Lure,0,54,54,54,469.6752457828843,471.67507415349246,left,1,1,0.838678011088632,R31R02,2022-11-30_12h01.20.614,t1_Paradigm,2021.1.4,60.077168735194675,
Y,left,Distractor,0,55,55,55,473.17474083963316,475.17437801192864,left,1,1,0.7953279596986249,R31R02,2022-11-30_12h01.20.614,t1_Paradigm,2021.1.4,60.077168735194675,
Q,left,Distractor,0,56,56,56,476.6742301219492,478.67386248218827,left,1,1,0.8456192163284868,R31R02,2022-11-30_12h01.20.614,t1_Paradigm,2021.1.4,60.077168735194675,
Z,left,Pretarget,0,57,57,57,480.17363439156907,482.17323980439687,left,1,1,0.6395173589407932,R31R02,2022-11-30_12h01.20.614,t1_Paradigm,2021.1.4,60.077168735194675,
Z,right,Target,0,58,58,58,483.67309319763444,485.67253500115476,right,1,1,0.669828389887698,R31R02,2022-11-30_12h01.20.614,t1_Paradigm,2021.1.4,60.077168735194675,
B,left,Distractor,0,59,59,59,487.1725016376877,489.1720865191601,left,1,1,0.6753128306299914,R31R02,2022-11-30_12h01.20.614,t1_Paradigm,2021.1.4,60.077168735194675,
S,left,Pretarget,0,60,60,60,490.67186388216214,492.6719482532644,left,1,1,0.49254358586040325,R31R02,2022-11-30_12h01.20.614,t1_Paradigm,2021.1.4,60.077168735194675,
S,right,Target,0,61,61,61,494.17128964557196,496.1709778254735,right,1,1,0.5879374383657705,R31R02,2022-11-30_12h01.20.614,t1_Paradigm,2021.1.4,60.077168735194675,
T,left,Distractor,0,62,62,62,497.67069006556994,499.67034199478803,left,1,1,0.5896059325605165,R31R02,2022-11-30_12h01.20.614,t1_Paradigm,2021.1.4,60.077168735194675,
D,left,Distractor,0,63,63,63,501.17010845051846,503.1707917599706,left,1,1,1.0384157871012576,R31R02,2022-11-30_12h01.20.614,t1_Paradigm,2021.1.4,60.077168735194675,
R,left,Distractor,0,0,0,0,519.1386614576913,521.1501827612228,None,0,1,,R31R02,2022-11-30_12h01.20.614,t1_Paradigm,2021.1.4,60.077168735194675,
V,left,Distractor,0,1,1,1,522.64997712677,524.6495764443534,left,1,1,0.7300574685796164,R31R02,2022-11-30_12h01.20.614,t1_Paradigm,2021.1.4,60.077168735194675,
N,left,Pretarget,0,2,2,2,526.1493242935394,528.1490323632024,left,1,1,0.6581296825315803,R31R02,2022-11-30_12h01.20.614,t1_Paradigm,2021.1.4,60.077168735194675,
N,right,Target,0,3,3,3,529.6487365832145,531.6485582169844,right,1,1,0.5902914876351133,R31R02,2022-11-30_12h01.20.614,t1_Paradigm,2021.1.4,60.077168735194675,
S,left,Distractor,0,4,4,4,533.1482358103967,535.1477459448797,left,1,1,0.5229290429560933,R31R02,2022-11-30_12h01.20.614,t1_Paradigm,2021.1.4,60.077168735194675,
N,left,Lure,0,5,5,5,536.6476208318782,538.6472743650957,left,1,1,0.8914381643407978,R31R02,2022-11-30_12h01.20.614,t1_Paradigm,2021.1.4,60.077168735194675,
Z,left,Distractor,0,6,6,6,540.1472179038392,542.1466876172053,left,1,1,0.8234809517161921,R31R02,2022-11-30_12h01.20.614,t1_Paradigm,2021.1.4,60.077168735194675,
L,left,Pretarget,0,7,7,7,543.6464133310074,545.6460771299026,left,1,1,0.4666910690430086,R31R02,2022-11-30_12h01.20.614,t1_Paradigm,2021.1.4,60.077168735194675,
L,right,Target,0,8,8,8,547.1457768586988,549.1455202166399,right,1,1,0.45607699517859146,R31R02,2022-11-30_12h01.20.614,t1_Paradigm,2021.1.4,60.077168735194675,
H,left,Distractor,0,9,9,9,550.6455433144292,552.6450589025626,left,1,1,0.6246391773165669,R31R02,2022-11-30_12h01.20.614,t1_Paradigm,2021.1.4,60.077168735194675,
L,left,Lure,0,10,10,10,554.1450143109832,556.1443829715427,left,1,1,0.508490040054312,R31R02,2022-11-30_12h01.20.614,t1_Paradigm,2021.1.4,60.077168735194675,
X,left,Pretarget,0,11,11,11,557.6441372367553,559.6438347199291,left,1,1,0.5710359548975248,R31R02,2022-11-30_12h01.20.614,t1_Paradigm,2021.1.4,60.077168735194675,
X,right,Target,0,12,12,12,561.1434346791357,563.14322134541,right,1,1,0.5398215439345222,R31R02,2022-11-30_12h01.20.614,t1_Paradigm,2021.1.4,60.077168735194675,
X,right,Target,0,13,13,13,564.6427847331215,566.6426474296313,right,1,1,0.4762362287438009,R31R02,2022-11-30_12h01.20.614,t1_Paradigm,2021.1.4,60.077168735194675,
R,left,Distractor,0,14,14,14,568.1422704865981,570.1423250230437,left,1,1,0.5344057549664285,R31R02,2022-11-30_12h01.20.614,t1_Paradigm,2021.1.4,60.077168735194675,
T,left,Distractor,0,15,15,15,571.6419121501385,573.6413998284261,left,1,1,0.585208370903274,R31R02,2022-11-30_12h01.20.614,t1_Paradigm,2021.1.4,60.077168735194675,
V,left,Pretarget,0,16,16,16,575.1412545048515,577.14115088564,left,1,1,0.4519254891201854,R31R02,2022-11-30_12h01.20.614,t1_Paradigm,2021.1.4,60.077168735194675,
V,right,Target,0,17,17,17,578.6406719273946,580.6403360471013,right,1,1,0.6739856703788973,R31R02,2022-11-30_12h01.20.614,t1_Paradigm,2021.1.4,60.077168735194675,
N,left,Distractor,0,18,18,18,582.1400819714472,584.1397711137834,left,1,1,0.520412667596247,R31R02,2022-11-30_12h01.20.614,t1_Paradigm,2021.1.4,60.077168735194675,
B,left,Distractor,0,19,19,19,585.6396976499818,587.6391760249971,left,1,1,1.01523908454692,R31R02,2022-11-30_12h01.20.614,t1_Paradigm,2021.1.4,60.077168735194675,
V,left,Lure,0,20,20,20,589.1388719041715,591.1385507808009,left,1,1,0.8826757628994528,R31R02,2022-11-30_12h01.20.614,t1_Paradigm,2021.1.4,60.077168735194675,
P,left,Distractor,0,21,21,21,592.6382081636402,594.6379329150368,left,1,1,0.6436752810550388,R31R02,2022-11-30_12h01.20.614,t1_Paradigm,2021.1.4,60.077168735194675,
K,left,Pretarget,0,22,22,22,596.1376127540716,598.1374433703022,left,1,1,0.45326901026419364,R31R02,2022-11-30_12h01.20.614,t1_Paradigm,2021.1.4,60.077168735194675,
K,right,Target,0,23,23,23,599.6371687633218,601.6366538751754,right,1,1,0.4633560055226553,R31R02,2022-11-30_12h01.20.614,t1_Paradigm,2021.1.4,60.077168735194675,
J,left,Pretarget,0,24,24,24,603.1365364614467,605.1358262045542,left,1,1,0.48954183619935066,R31R02,2022-11-30_12h01.20.614,t1_Paradigm,2021.1.4,60.077168735194675,
J,right,Target,0,25,25,25,606.6359237285214,608.6357136028528,right,1,1,0.6498430313076824,R31R02,2022-11-30_12h01.20.614,t1_Paradigm,2021.1.4,60.077168735194675,
H,left,Distractor,0,26,26,26,610.1354040283768,612.1350845090055,left,1,1,0.46387185604544356,R31R02,2022-11-30_12h01.20.614,t1_Paradigm,2021.1.4,60.077168735194675,
J,left,Lure,0,27,27,27,613.6350075163937,615.634502252331,left,1,1,0.4774347471538931,R31R02,2022-11-30_12h01.20.614,t1_Paradigm,2021.1.4,60.077168735194675,
V,left,Distractor,0,28,28,28,617.1343941418745,619.1346026635438,left,1,1,0.39312045302358456,R31R02,2022-11-30_12h01.20.614,t1_Paradigm,2021.1.4,60.077168735194675,
Z,left,Pretarget,0,29,29,29,620.6336633536266,622.6334673432575,left,1,1,0.4645214812771883,R31R02,2022-11-30_12h01.20.614,t1_Paradigm,2021.1.4,60.077168735194675,
Z,right,Target,0,30,30,30,624.1331167060416,626.1328966354777,right,1,1,0.4130897714640014,R31R02,2022-11-30_12h01.20.614,t1_Paradigm,2021.1.4,60.077168735194675,
T,left,Distractor,0,31,31,31,627.6324494367,629.6327933370485,left,1,1,0.4997683805413544,R31R02,2022-11-30_12h01.20.614,t1_Paradigm,2021.1.4,60.077168735194675,
Z,left,Lure,0,32,32,32,631.1322450854641,633.1316005931003,left,1,1,0.6364617144863587,R31R02,2022-11-30_12h01.20.614,t1_Paradigm,2021.1.4,60.077168735194675,
F,left,Distractor,0,33,33,33,634.6313442718238,636.6309115091572,left,1,1,0.5487838053668384,R31R02,2022-11-30_12h01.20.614,t1_Paradigm,2021.1.4,60.077168735194675,
Y,left,Pretarget,0,34,34,34,638.1309990882582,640.1305660048092,left,1,1,0.6400178109761328,R31R02,2022-11-30_12h01.20.614,t1_Paradigm,2021.1.4,60.077168735194675,
Y,right,Target,0,35,35,35,641.63018970337,643.629734484537,right,1,1,0.4584429141250439,R31R02,2022-11-30_12h01.20.614,t1_Paradigm,2021.1.4,60.077168735194675,
Y,right,Target,0,36,36,36,645.1295875569631,647.1293203284149,right,1,1,0.4152811738313176,R31R02,2022-11-30_12h01.20.614,t1_Paradigm,2021.1.4,60.077168735194675,
W,left,Distractor,0,37,37,37,648.6290110747213,650.6285394949664,left,1,1,0.46583709260448813,R31R02,2022-11-30_12h01.20.614,t1_Paradigm,2021.1.4,60.077168735194675,
Q,left,Distractor,0,38,38,38,652.1286931593786,654.1280608575325,left,1,1,0.4670622376143001,R31R02,2022-11-30_12h01.20.614,t1_Paradigm,2021.1.4,60.077168735194675,
P,left,Pretarget,0,39,39,39,655.6278712631902,657.6274705808028,left,1,1,0.6120829646824859,R31R02,2022-11-30_12h01.20.614,t1_Paradigm,2021.1.4,60.077168735194675,
P,right,Target,0,40,40,40,659.1272017482261,661.1271568358643,right,1,1,0.4954221473017242,R31R02,2022-11-30_12h01.20.614,t1_Paradigm,2021.1.4,60.077168735194675,
J,left,Distractor,0,41,41,41,662.6267112411151,664.626858810283,left,1,1,0.4226731066883076,R31R02,2022-11-30_12h01.20.614,t1_Paradigm,2021.1.4,60.077168735194675,
P,left,Lure,0,42,42,42,666.1262980473984,668.1257789888186,left,1,1,0.5508536235429347,R31R02,2022-11-30_12h01.20.614,t1_Paradigm,2021.1.4,60.077168735194675,
L,left,Distractor,0,43,43,43,669.6255557102559,671.6252086018503,left,1,1,0.4382907382387202,R31R02,2022-11-30_12h01.20.614,t1_Paradigm,2021.1.4,60.077168735194675,
Z,left,Distractor,0,44,44,44,673.1251207019668,675.1245570518367,left,1,1,0.4360839373548515,R31R02,2022-11-30_12h01.20.614,t1_Paradigm,2021.1.4,60.077168735194675,
F,left,Pretarget,0,45,45,45,676.6244903249026,678.6240533918026,left,1,1,0.49916334688896313,R31R02,2022-11-30_12h01.20.614,t1_Paradigm,2021.1.4,60.077168735194675,
F,right,Target,0,46,46,46,680.1240607702639,682.1233720071323,right,1,1,0.6762011329410598,R31R02,2022-11-30_12h01.20.614,t1_Paradigm,2021.1.4,60.077168735194675,
G,left,Pretarget,0,47,47,47,683.6234939121059,685.6228738007485,left,1,1,0.4902880229637958,R31R02,2022-11-30_12h01.20.614,t1_Paradigm,2021.1.4,60.077168735194675,
G,right,Target,0,48,48,48,687.1226408980729,689.1229212795151,right,1,1,0.617318141827127,R31R02,2022-11-30_12h01.20.614,t1_Paradigm,2021.1.4,60.077168735194675,
V,left,Distractor,0,49,49,49,690.6220220699324,692.6216996633448,left,1,1,0.4812930396874435,R31R02,2022-11-30_12h01.20.614,t1_Paradigm,2021.1.4,60.077168735194675,
G,left,Lure,0,50,50,50,694.1213711615128,696.1211639230314,left,1,1,0.46658392099197954,R31R02,2022-11-30_12h01.20.614,t1_Paradigm,2021.1.4,60.077168735194675,
Q,left,Pretarget,0,51,51,51,697.6207532957487,699.6204642526282,left,1,1,0.5698271708097309,R31R02,2022-11-30_12h01.20.614,t1_Paradigm,2021.1.4,60.077168735194675,
Q,right,Target,0,52,52,52,701.1204969745013,703.1200157706335,right,1,1,0.5269689097476657,R31R02,2022-11-30_12h01.20.614,t1_Paradigm,2021.1.4,60.077168735194675,
Y,left,Distractor,0,53,53,53,704.6198114193976,706.6191730222781,left,1,1,0.4842678419081494,R31R02,2022-11-30_12h01.20.614,t1_Paradigm,2021.1.4,60.077168735194675,
V,left,Distractor,0,54,54,54,708.1194800303492,710.1188230266853,left,1,1,0.4733695369504858,R31R02,2022-11-30_12h01.20.614,t1_Paradigm,2021.1.4,60.077168735194675,
B,left,Distractor,0,55,55,55,711.6185740838991,713.6181644189928,left,1,1,0.5608353955321945,R31R02,2022-11-30_12h01.20.614,t1_Paradigm,2021.1.4,60.077168735194675,
J,left,Pretarget,0,56,56,56,715.1181461332599,717.1176293203316,left,1,1,0.5336015028879046,R31R02,2022-11-30_12h01.20.614,t1_Paradigm,2021.1.4,60.077168735194675,
J,right,Target,0,57,57,57,718.6172594349482,720.6170204370283,right,1,1,0.35381155158393085,R31R02,2022-11-30_12h01.20.614,t1_Paradigm,2021.1.4,60.077168735194675,
H,left,Distractor,0,58,58,58,722.1168273138755,724.1164596741437,left,1,1,0.47052433897624724,R31R02,2022-11-30_12h01.20.614,t1_Paradigm,2021.1.4,60.077168735194675,
J,left,Lure,0,59,59,59,725.6162588517473,727.615720545029,left,1,1,0.9248442984826397,R31R02,2022-11-30_12h01.20.614,t1_Paradigm,2021.1.4,60.077168735194675,
D,left,Pretarget,0,60,60,60,729.1155874119431,731.1153792110854,left,1,1,0.4498591997544281,R31R02,2022-11-30_12h01.20.614,t1_Paradigm,2021.1.4,60.077168735194675,
D,right,Target,0,61,61,61,732.6151716518216,734.6147228490154,right,1,1,0.4226070213189814,R31R02,2022-11-30_12h01.20.614,t1_Paradigm,2021.1.4,60.077168735194675,
R,left,Distractor,0,62,62,62,736.1145014952635,738.1140696950024,left,1,1,0.5790852122299839,R31R02,2022-11-30_12h01.20.614,t1_Paradigm,2021.1.4,60.077168735194675,
F,left,Distractor,0,63,63,63,739.6139853239001,741.6136247418181,left,1,1,0.5276512568234466,R31R02,2022-11-30_12h01.20.614,t1_Paradigm,2021.1.4,60.077168735194675,
F,left,Distractor,0,0,0,0,816.5114940353087,818.5175164619868,None,0,2,,R31R02,2022-11-30_12h01.20.614,t1_Paradigm,2021.1.4,60.077168735194675,
N,left,Pretarget,0,1,1,1,820.0172197195934,822.0169749472407,left,1,2,0.8943972472625319,R31R02,2022-11-30_12h01.20.614,t1_Paradigm,2021.1.4,60.077168735194675,
V,left,Distractor,0,2,2,2,823.5167029066652,825.516327246849,left,1,2,0.6192554685694631,R31R02,2022-11-30_12h01.20.614,t1_Paradigm,2021.1.4,60.077168735194675,
N,right,Target,0,3,3,3,827.0160510358401,829.0158072258637,right,1,2,0.519092564994935,R31R02,2022-11-30_12h01.20.614,t1_Paradigm,2021.1.4,60.077168735194675,
N,left,Lure,0,4,4,4,830.5156570902618,832.5151203875721,left,1,2,0.920400862058159,R31R02,2022-11-30_12h01.20.614,t1_Paradigm,2021.1.4,60.077168735194675,
X,left,Distractor,0,5,5,5,834.0149830840819,836.0146542614384,left,1,2,0.5921194206748623,R31R02,2022-11-30_12h01.20.614,t1_Paradigm,2021.1.4,60.077168735194675,
G,left,Pretarget,0,6,6,6,837.514106651448,839.5140710423584,left,1,2,0.6668725149647798,R31R02,2022-11-30_12h01.20.614,t1_Paradigm,2021.1.4,60.077168735194675,
H,left,Pretarget,0,7,7,7,841.0138169667334,843.0134352116729,left,1,2,0.5667384836706333,R31R02,2022-11-30_12h01.20.614,t1_Paradigm,2021.1.4,60.077168735194675,
G,right,Target,0,8,8,8,844.5132071210246,846.5124715207494,right,1,2,0.6218154730740935,R31R02,2022-11-30_12h01.20.614,t1_Paradigm,2021.1.4,60.077168735194675,
H,right,Target,0,9,9,9,848.0126466789516,850.0123557110201,right,1,2,0.6313458758522756,R31R02,2022-11-30_12h01.20.614,t1_Paradigm,2021.1.4,60.077168735194675,
T,left,Pretarget,0,10,10,10,851.5120406828937,853.5116335844214,left,1,2,0.996175070933532,R31R02,2022-11-30_12h01.20.614,t1_Paradigm,2021.1.4,60.077168735194675,
K,left,Distractor,0,11,11,11,855.0115261155588,857.0111347364145,left,1,2,0.8793416617845651,R31R02,2022-11-30_12h01.20.614,t1_Paradigm,2021.1.4,60.077168735194675,
T,right,Target,0,12,12,12,858.5107308459992,860.5105627454468,left,0,2,0.9010827728488948,R31R02,2022-11-30_12h01.20.614,t1_Paradigm,2021.1.4,60.077168735194675,
T,left,Lure,0,13,13,13,862.0103763591615,864.0100869952294,None,0,2,,R31R02,2022-11-30_12h01.20.614,t1_Paradigm,2021.1.4,60.077168735194675,
J,left,Distractor,0,14,14,14,865.5099814511777,867.5093719263095,left,1,2,0.8030252965399995,R31R02,2022-11-30_12h01.20.614,t1_Paradigm,2021.1.4,60.077168735194675,
Q,left,Pretarget,0,15,15,15,869.0091816903732,871.008825599507,left,1,2,0.878457529906882,R31R02,2022-11-30_12h01.20.614,t1_Paradigm,2021.1.4,60.077168735194675,
M,left,Distractor,0,16,16,16,872.5085458596877,874.5085474636871,None,0,2,,R31R02,2022-11-30_12h01.20.614,t1_Paradigm,2021.1.4,60.077168735194675,
Q,right,Target,0,17,17,17,876.0079263899243,878.0075109505851,right,1,2,1.265506473457208,R31R02,2022-11-30_12h01.20.614,t1_Paradigm,2021.1.4,60.077168735194675,
R,left,Distractor,0,18,18,18,879.5074769455241,881.5071256666852,left,1,2,0.9166927051264793,R31R02,2022-11-30_12h01.20.614,t1_Paradigm,2021.1.4,60.077168735194675,
W,left,Distractor,0,19,19,19,883.0068706286547,885.0065094049496,None,0,2,,R31R02,2022-11-30_12h01.20.614,t1_Paradigm,2021.1.4,60.077168735194675,
C,left,Pretarget,0,20,20,20,886.5064372243651,888.5054802703089,None,0,2,,R31R02,2022-11-30_12h01.20.614,t1_Paradigm,2021.1.4,60.077168735194675,
T,left,Distractor,0,21,21,21,890.0057994688686,892.0052621245559,None,0,2,,R31R02,2022-11-30_12h01.20.614,t1_Paradigm,2021.1.4,60.077168735194675,
C,right,Target,0,22,22,22,893.5051953976217,895.504767767794,right,1,2,0.850749491044553,R31R02,2022-11-30_12h01.20.614,t1_Paradigm,2021.1.4,60.077168735194675,
F,left,Pretarget,0,23,23,23,897.0043779926782,899.0042535212706,left,1,2,0.8567093611927703,R31R02,2022-11-30_12h01.20.614,t1_Paradigm,2021.1.4,60.077168735194675,
C,right,Target,0,24,24,24,900.5041476564365,902.5035131089389,right,1,2,1.1276483054098208,R31R02,2022-11-30_12h01.20.614,t1_Paradigm,2021.1.4,60.077168735194675,
F,right,Target,0,25,25,25,904.0033652189595,906.0030832334887,right,1,2,1.0195561247237492,R31R02,2022-11-30_12h01.20.614,t1_Paradigm,2021.1.4,60.077168735194675,
H,left,Distractor,0,26,26,26,907.5027544108743,909.5024534980475,left,1,2,0.48331954950117506,R31R02,2022-11-30_12h01.20.614,t1_Paradigm,2021.1.4,60.077168735194675,
H,left,Lure,0,27,27,27,911.0021346202993,913.0017644141335,None,0,2,,R31R02,2022-11-30_12h01.20.614,t1_Paradigm,2021.1.4,60.077168735194675,
P,left,Distractor,0,28,28,28,914.5016104289098,916.5016165241541,left,1,2,0.9554610542545561,R31R02,2022-11-30_12h01.20.614,t1_Paradigm,2021.1.4,60.077168735194675,
G,left,Pretarget,0,29,29,29,918.0009335354844,920.0007128232974,left,1,2,0.8481070402776822,R31R02,2022-11-30_12h01.20.614,t1_Paradigm,2021.1.4,60.077168735194675,
K,left,Distractor,0,30,30,30,921.5005607628846,923.5000911079114,left,1,2,0.8214862013119273,R31R02,2022-11-30_12h01.20.614,t1_Paradigm,2021.1.4,60.077168735194675,
G,right,Target,0,31,31,31,924.9998585260473,926.9993920791021,right,1,2,0.5138108714891132,R31R02,2022-11-30_12h01.20.614,t1_Paradigm,2021.1.4,60.077168735194675,
M,left,Pretarget,0,32,32,32,928.4993487707688,930.4990844294371,left,1,2,0.5725247996451799,R31R02,2022-11-30_12h01.20.614,t1_Paradigm,2021.1.4,60.077168735194675,
B,left,Distractor,0,33,33,33,931.9987206393271,933.9987479075498,left,1,2,1.136554426397197,R31R02,2022-11-30_12h01.20.614,t1_Paradigm,2021.1.4,60.077168735194675,
M,right,Target,0,34,34,34,935.4982769693888,937.4977976903319,right,1,2,0.6660005735757295,R31R02,2022-11-30_12h01.20.614,t1_Paradigm,2021.1.4,60.077168735194675,
M,left,Lure,0,35,35,35,938.997578902985,940.9973036543815,left,1,2,0.8671155550109688,R31R02,2022-11-30_12h01.20.614,t1_Paradigm,2021.1.4,60.077168735194675,
T,left,Distractor,0,36,36,36,942.496998250339,944.4966309313895,left,1,2,1.3300131336727645,R31R02,2022-11-30_12h01.20.614,t1_Paradigm,2021.1.4,60.077168735194675,
F,left,Distractor,0,37,37,37,945.9962780485512,947.9961032111605,left,1,2,0.8343712365895044,R31R02,2022-11-30_12h01.20.614,t1_Paradigm,2021.1.4,60.077168735194675,
X,left,Distractor,0,38,38,38,949.4958270001516,951.4954051447567,left,1,2,0.6608853765937965,R31R02,2022-11-30_12h01.20.614,t1_Paradigm,2021.1.4,60.077168735194675,
C,left,Distractor,0,39,39,39,952.9952200416883,954.994648371503,left,1,2,0.4960178776818793,R31R02,2022-11-30_12h01.20.614,t1_Paradigm,2021.1.4,60.077168735194675,
R,left,Distractor,0,40,40,40,956.4947195896821,958.4940738141013,left,1,2,1.0647854376002215,R31R02,2022-11-30_12h01.20.614,t1_Paradigm,2021.1.4,60.077168735194675,
B,left,Pretarget,0,41,41,41,959.9943250025099,961.9936073671561,left,1,2,0.5407477009575814,R31R02,2022-11-30_12h01.20.614,t1_Paradigm,2021.1.4,60.077168735194675,
H,left,Distractor,0,42,42,42,963.4935890814231,965.4930741932767,left,1,2,0.7098424153518863,R31R02,2022-11-30_12h01.20.614,t1_Paradigm,2021.1.4,60.077168735194675,
B,right,Target,0,43,43,43,966.9928422530356,968.992553851509,right,1,2,0.4265528929536231,R31R02,2022-11-30_12h01.20.614,t1_Paradigm,2021.1.4,60.077168735194675,
W,left,Pretarget,0,44,44,44,970.4925188840425,972.4924126983678,left,1,2,0.6031037007342093,R31R02,2022-11-30_12h01.20.614,t1_Paradigm,2021.1.4,60.077168735194675,
L,left,Pretarget,0,45,45,45,973.9918689380283,975.9914538195007,left,1,2,0.6622195944946725,R31R02,2022-11-30_12h01.20.614,t1_Paradigm,2021.1.4,60.077168735194675,
W,right,Target,0,46,46,46,977.4910887461738,979.4906136375503,right,1,2,0.5667493909422774,R31R02,2022-11-30_12h01.20.614,t1_Paradigm,2021.1.4,60.077168735194675,
L,right,Target,0,47,47,47,980.9906171663897,982.9902363737347,right,1,2,0.6577662132040132,R31R02,2022-11-30_12h01.20.614,t1_Paradigm,2021.1.4,60.077168735194675,
W,right,Target,0,48,48,48,984.4900827092933,986.4903335769195,right,1,2,0.9483065153181087,R31R02,2022-11-30_12h01.20.614,t1_Paradigm,2021.1.4,60.077168735194675,
X,left,Distractor,0,49,49,49,987.9894250640355,989.9896525130607,left,1,2,0.7426938818534836,R31R02,2022-11-30_12h01.20.614,t1_Paradigm,2021.1.4,60.077168735194675,
R,left,Distractor,0,50,50,50,991.4891389081313,993.4885399697523,left,1,2,0.8263874230033252,R31R02,2022-11-30_12h01.20.614,t1_Paradigm,2021.1.4,60.077168735194675,
V,left,Pretarget,0,51,51,51,994.9882089014864,996.988261513121,left,1,2,0.9053205747914035,R31R02,2022-11-30_12h01.20.614,t1_Paradigm,2021.1.4,60.077168735194675,
Z,left,Distractor,0,52,52,52,998.4877026750473,1000.4878582642705,left,1,2,1.4327950693841558,R31R02,2022-11-30_12h01.20.614,t1_Paradigm,2021.1.4,60.077168735194675,
V,right,Target,0,53,53,53,1001.9871630851121,1003.986711715901,right,1,2,0.5591470116341952,R31R02,2022-11-30_12h01.20.614,t1_Paradigm,2021.1.4,60.077168735194675,
V,left,Lure,0,54,54,54,1005.4865631842986,1007.4865904525213,None,0,2,,R31R02,2022-11-30_12h01.20.614,t1_Paradigm,2021.1.4,60.077168735194675,
N,left,Distractor,0,55,55,55,1008.9859703411639,1010.9856347816531,left,1,2,1.27626426689676,R31R02,2022-11-30_12h01.20.614,t1_Paradigm,2021.1.4,60.077168735194675,
B,left,Distractor,0,56,56,56,1012.4855010070023,1014.4849559634167,left,1,2,0.8010645512549672,R31R02,2022-11-30_12h01.20.614,t1_Paradigm,2021.1.4,60.077168735194675,
V,left,Lure,0,57,57,57,1015.9846255367738,1017.9870893005282,left,1,2,0.890356738877017,R31R02,2022-11-30_12h01.20.614,t1_Paradigm,2021.1.4,60.077168735194675,
J,left,Distractor,0,58,58,58,1019.5007907783147,1021.5005376650952,left,1,2,0.6624056599976029,R31R02,2022-11-30_12h01.20.614,t1_Paradigm,2021.1.4,60.077168735194675,
H,left,Distractor,0,59,59,59,1023.0002576044644,1025.0003297850199,left,1,2,0.6232254003698472,R31R02,2022-11-30_12h01.20.614,t1_Paradigm,2021.1.4,60.077168735194675,
X,left,Pretarget,0,60,60,60,1026.4996490419726,1028.4996958791453,left,1,2,0.6785696183505934,R31R02,2022-11-30_12h01.20.614,t1_Paradigm,2021.1.4,60.077168735194675,
P,left,Distractor,0,61,61,61,1029.9992095424677,1031.9987633060664,left,1,2,1.255345052020857,R31R02,2022-11-30_12h01.20.614,t1_Paradigm,2021.1.4,60.077168735194675,
X,right,Target,0,62,62,62,1033.4985066640074,1035.498165330093,right,1,2,0.5847005404066294,R31R02,2022-11-30_12h01.20.614,t1_Paradigm,2021.1.4,60.077168735194675,
Q,left,Distractor,0,63,63,63,1036.9980822422076,1038.9983667941124,left,1,2,0.4999095336825121,R31R02,2022-11-30_12h01.20.614,t1_Paradigm,2021.1.4,60.077168735194675,
B,left,Pretarget,0,0,0,0,1052.092202508531,1054.0952581530146,None,0,2,,R31R02,2022-11-30_12h01.20.614,t1_Paradigm,2021.1.4,60.077168735194675,
F,left,Distractor,0,1,1,1,1055.5948032549932,1057.5946152646793,None,0,2,,R31R02,2022-11-30_12h01.20.614,t1_Paradigm,2021.1.4,60.077168735194675,
B,right,Target,0,2,2,2,1059.0941882764455,1061.0940079854045,right,1,2,0.5225777641462628,R31R02,2022-11-30_12h01.20.614,t1_Paradigm,2021.1.4,60.077168735194675,
V,left,Distractor,0,3,3,3,1062.5937551929674,1064.5934279743524,left,1,2,0.8423627494485117,R31R02,2022-11-30_12h01.20.614,t1_Paradigm,2021.1.4,60.077168735194675,
G,left,Pretarget,0,4,4,4,1066.093165237049,1068.0928514921397,left,1,2,0.627852335863281,R31R02,2022-11-30_12h01.20.614,t1_Paradigm,2021.1.4,60.077168735194675,
B,left,Lure,0,5,5,5,1069.5926859580213,1071.5922256063204,left,1,2,0.5608379619952757,R31R02,2022-11-30_12h01.20.614,t1_Paradigm,2021.1.4,60.077168735194675,
G,right,Target,0,6,6,6,1073.0918996709224,1075.0914515097102,right,1,2,0.45303706999402493,R31R02,2022-11-30_12h01.20.614,t1_Paradigm,2021.1.4,60.077168735194675,
Y,left,Pretarget,0,7,7,7,1076.5914117301872,1078.5910142558278,left,1,2,0.5731279084866401,R31R02,2022-11-30_12h01.20.614,t1_Paradigm,2021.1.4,60.077168735194675,
P,left,Distractor,0,8,8,8,1080.0908179246471,1082.0905012924923,left,1,2,0.7834512068657205,R31R02,2022-11-30_12h01.20.614,t1_Paradigm,2021.1.4,60.077168735194675,
Y,right,Target,0,9,9,9,1083.5902853923617,1085.5897547849163,right,1,2,0.5402610434684902,R31R02,2022-11-30_12h01.20.614,t1_Paradigm,2021.1.4,60.077168735194675,
X,left,Distractor,0,10,10,10,1087.0896027245035,1089.0893419120112,left,1,2,0.611123123409925,R31R02,2022-11-30_12h01.20.614,t1_Paradigm,2021.1.4,60.077168735194675,
Y,right,Target,0,11,11,11,1090.5890098813397,1092.5886974196474,right,1,2,0.6541190087446012,R31R02,2022-11-30_12h01.20.614,t1_Paradigm,2021.1.4,60.077168735194675,
N,left,Distractor,0,12,12,12,1094.088510391739,1096.0881927972077,left,1,2,0.5990862901089713,R31R02,2022-11-30_12h01.20.614,t1_Paradigm,2021.1.4,60.077168735194675,
Y,right,Target,0,13,13,13,1097.5879085661145,1099.588542471989,left,0,2,1.464288257790031,R31R02,2022-11-30_12h01.20.614,t1_Paradigm,2021.1.4,60.077168735194675,
Y,left,Lure,0,14,14,14,1101.087091802765,1103.086929797486,None,0,2,,R31R02,2022-11-30_12h01.20.614,t1_Paradigm,2021.1.4,60.077168735194675,
K,left,Distractor,0,15,15,15,1104.5869012460462,1106.5865339270968,left,1,2,1.3833937190647703,R31R02,2022-11-30_12h01.20.614,t1_Paradigm,2021.1.4,60.077168735194675,
T,left,Pretarget,0,16,16,16,1108.0861229790025,1110.0859458959894,left,1,2,0.867660598596558,R31R02,2022-11-30_12h01.20.614,t1_Paradigm,2021.1.4,60.077168735194675,
J,left,Distractor,0,17,17,17,1111.5856578152743,1113.5851740450016,left,1,2,0.5887708834488876,R31R02,2022-11-30_12h01.20.614,t1_Paradigm,2021.1.4,60.077168735194675,
T,right,Target,0,18,18,18,1115.0850575936784,1117.0845895427337,right,1,2,1.1489588994008955,R31R02,2022-11-30_12h01.20.614,t1_Paradigm,2021.1.4,60.077168735194675,
S,left,Pretarget,0,19,19,19,1118.5844163093425,1120.5841089804599,left,1,2,1.1467992565012537,R31R02,2022-11-30_12h01.20.614,t1_Paradigm,2021.1.4,60.077168735194675,
R,left,Distractor,0,20,20,20,1122.0838362982904,1124.0841805194505,left,1,2,0.8301607028406579,R31R02,2022-11-30_12h01.20.614,t1_Paradigm,2021.1.4,60.077168735194675,
S,right,Target,0,21,21,21,1125.5833047284395,1127.583046482352,right,1,2,0.5759201740729623,R31R02,2022-11-30_12h01.20.614,t1_Paradigm,2021.1.4,60.077168735194675,
Q,left,Distractor,0,22,22,22,1129.0826974491647,1131.0823522655992,left,1,2,0.7041382248571608,R31R02,2022-11-30_12h01.20.614,t1_Paradigm,2021.1.4,60.077168735194675,
D,left,Distractor,0,23,23,23,1132.5821376486856,1134.5818563048088,left,1,2,0.9832720707345288,R31R02,2022-11-30_12h01.20.614,t1_Paradigm,2021.1.4,60.077168735194675,
F,left,Distractor,0,24,24,24,1136.0815355022496,1138.0811396318604,left,1,2,0.6918251805764157,R31R02,2022-11-30_12h01.20.614,t1_Paradigm,2021.1.4,60.077168735194675,
Z,left,Distractor,0,25,25,25,1139.5808255661686,1141.5808066388126,None,0,2,,R31R02,2022-11-30_12h01.20.614,t1_Paradigm,2021.1.4,60.077168735194675,
P,left,Distractor,0,26,26,26,1143.0805041219865,1145.0800934947038,left,1,2,1.3928038208687212,R31R02,2022-11-30_12h01.20.614,t1_Paradigm,2021.1.4,60.077168735194675,
H,left,Distractor,0,27,27,27,1146.5798962011177,1148.5794239797106,left,1,2,0.9423857830697671,R31R02,2022-11-30_12h01.20.614,t1_Paradigm,2021.1.4,60.077168735194675,
Z,left,Pretarget,0,28,28,28,1150.07928314741,1152.078901713132,left,1,2,1.0498719676979817,R31R02,2022-11-30_12h01.20.614,t1_Paradigm,2021.1.4,60.077168735194675,
J,left,Pretarget,0,29,29,29,1153.5786723392957,1155.5788805401826,left,1,2,0.7005933564214502,R31R02,2022-11-30_12h01.20.614,t1_Paradigm,2021.1.4,60.077168735194675,
Z,right,Target,0,30,30,30,1157.0780717968883,1159.0777878866065,right,1,2,0.8624549352389295,R31R02,2022-11-30_12h01.20.614,t1_Paradigm,2021.1.4,60.077168735194675,
J,right,Target,0,31,31,31,1160.577321118879,1162.5778915058472,None,0,2,,R31R02,2022-11-30_12h01.20.614,t1_Paradigm,2021.1.4,60.077168735194675,
V,left,Pretarget,0,32,32,32,1164.0935716938984,1166.0932316431717,None,0,2,,R31R02,2022-11-30_12h01.20.614,t1_Paradigm,2021.1.4,60.077168735194675,
Z,left,Lure,0,33,33,33,1167.5929640938411,1169.592698790104,right,0,2,1.0922650650609285,R31R02,2022-11-30_12h01.20.614,t1_Paradigm,2021.1.4,60.077168735194675,
V,right,Target,0,34,34,34,1171.0925059877627,1173.0918682322663,right,1,2,0.8418780167412478,R31R02,2022-11-30_12h01.20.614,t1_Paradigm,2021.1.4,60.077168735194675,
X,left,Distractor,0,35,35,35,1174.592023500707,1176.5914877604228,left,1,2,0.6194989577052183,R31R02,2022-11-30_12h01.20.614,t1_Paradigm,2021.1.4,60.077168735194675,
S,left,Distractor,0,36,36,36,1178.0911942260573,1180.0912134741957,left,1,2,0.8783109231153503,R31R02,2022-11-30_12h01.20.614,t1_Paradigm,2021.1.4,60.077168735194675,
Q,left,Distractor,0,37,37,37,1181.5907370823843,1183.5903774627077,left,1,2,0.5260257501795422,R31R02,2022-11-30_12h01.20.614,t1_Paradigm,2021.1.4,60.077168735194675,
P,left,Distractor,0,38,38,38,1185.0901185750263,1187.089748048078,left,1,2,0.7480368486722,R31R02,2022-11-30_12h01.20.614,t1_Paradigm,2021.1.4,60.077168735194675,
S,left,Lure,0,39,39,39,1188.5893903532124,1190.5890121269622,left,1,2,0.9537130010430701,R31R02,2022-11-30_12h01.20.614,t1_Paradigm,2021.1.4,60.077168735194675,
K,left,Pretarget,0,40,40,40,1192.089019826235,1194.0885283566895,left,1,2,0.5606294403260108,R31R02,2022-11-30_12h01.20.614,t1_Paradigm,2021.1.4,60.077168735194675,
L,left,Distractor,0,41,41,41,1195.5882855091477,1197.5880006364605,left,1,2,1.2230344587005675,R31R02,2022-11-30_12h01.20.614,t1_Paradigm,2021.1.4,60.077168735194675,
K,right,Target,0,42,42,42,1199.0877029316616,1201.0879961452156,right,1,2,0.4540658838523086,R31R02,2022-11-30_12h01.20.614,t1_Paradigm,2021.1.4,60.077168735194675,
B,left,Distractor,0,43,43,43,1202.58736031453,1204.586925947835,left,1,2,0.54227183398325,R31R02,2022-11-30_12h01.20.614,t1_Paradigm,2021.1.4,60.077168735194675,
N,left,Distractor,0,44,44,44,1206.0865528544527,1208.087493447587,left,1,2,0.6615683652926236,R31R02,2022-11-30_12h01.20.614,t1_Paradigm,2021.1.4,60.077168735194675,
S,left,Pretarget,0,45,45,45,1209.5860831994796,1211.5857389783487,left,1,2,0.9215884731675033,R31R02,2022-11-30_12h01.20.614,t1_Paradigm,2021.1.4,60.077168735194675,
Z,left,Distractor,0,46,46,46,1213.0853719801817,1215.0851355486957,left,1,2,0.7729311281873379,R31R02,2022-11-30_12h01.20.614,t1_Paradigm,2021.1.4,60.077168735194675,
S,right,Target,0,47,47,47,1216.5850524608395,1218.5844596176757,right,1,2,0.4853425305336714,R31R02,2022-11-30_12h01.20.614,t1_Paradigm,2021.1.4,60.077168735194675,
C,left,Distractor,0,48,48,48,1220.0841843690723,1222.0837888194947,left,1,2,0.7000236110761762,R31R02,2022-11-30_12h01.20.614,t1_Paradigm,2021.1.4,60.077168735194675,
T,left,Pretarget,0,49,49,49,1223.5838924387353,1225.5834471647686,left,1,2,0.8520387965836562,R31R02,2022-11-30_12h01.20.614,t1_Paradigm,2021.1.4,60.077168735194675,
S,left,Lure,0,50,50,50,1227.0831985427649,1229.083207846037,left,1,2,0.8497396045713685,R31R02,2022-11-30_12h01.20.614,t1_Paradigm,2021.1.4,60.077168735194675,
T,right,Target,0,51,51,51,1230.5824597344617,1232.5821944307245,right,1,2,0.5633322019712068,R31R02,2022-11-30_12h01.20.614,t1_Paradigm,2021.1.4,60.077168735194675,
N,left,Pretarget,0,52,52,52,1234.0823314134323,1236.0819275229878,None,0,2,,R31R02,2022-11-30_12h01.20.614,t1_Paradigm,2021.1.4,60.077168735194675,
B,left,Distractor,0,53,53,53,1237.581355531991,1239.5809657568752,left,1,2,0.6735054289456457,R31R02,2022-11-30_12h01.20.614,t1_Paradigm,2021.1.4,60.077168735194675,
N,right,Target,0,54,54,54,1241.0809352806245,1243.0806369342317,right,1,2,0.5528275218093768,R31R02,2022-11-30_12h01.20.614,t1_Paradigm,2021.1.4,60.077168735194675,
N,left,Lure,0,55,55,55,1244.5801961515099,1246.5798490431334,left,1,2,0.7468848466232885,R31R02,2022-11-30_12h01.20.614,t1_Paradigm,2021.1.4,60.077168735194675,
X,left,Distractor,0,56,56,56,1248.0799497751286,1250.0792853930034,left,1,2,0.9649484694818966,R31R02,2022-11-30_12h01.20.614,t1_Paradigm,2021.1.4,60.077168735194675,
W,left,Distractor,0,57,57,57,1251.5789636280388,1253.5787310461747,left,1,2,0.5509643004334066,R31R02,2022-11-30_12h01.20.614,t1_Paradigm,2021.1.4,60.077168735194675,
S,left,Distractor,0,58,58,58,1255.078336779814,1257.078151355934,None,0,2,,R31R02,2022-11-30_12h01.20.614,t1_Paradigm,2021.1.4,60.077168735194675,
L,left,Distractor,0,59,59,59,1258.578461572004,1260.5778857313853,left,1,2,0.5594344507262576,R31R02,2022-11-30_12h01.20.614,t1_Paradigm,2021.1.4,60.077168735194675,
K,left,Pretarget,0,60,60,60,1262.077552417526,1264.0768472934724,left,1,2,0.5212297517282423,R31R02,2022-11-30_12h01.20.614,t1_Paradigm,2021.1.4,60.077168735194675,
V,left,Pretarget,0,61,61,61,1265.576827403711,1267.5765021099069,left,1,2,0.8122916788270231,R31R02,2022-11-30_12h01.20.614,t1_Paradigm,2021.1.4,60.077168735194675,
K,right,Target,0,62,62,62,1269.0760837833514,1271.076968556852,right,1,2,0.6706201306078583,R31R02,2022-11-30_12h01.20.614,t1_Paradigm,2021.1.4,60.077168735194675,
V,right,Target,0,63,63,63,1272.5920748291246,1274.5918618162104,right,1,2,0.5309330671152566,R31R02,2022-11-30_12h01.20.614,t1_Paradigm,2021.1.4,60.077168735194675,
R,left,Distractor,0,0,0,0,1329.9602201603702,1331.9657507966913,left,1,3,1.0196562151249964,R31R02,2022-11-30_12h01.20.614,t1_Paradigm,2021.1.4,60.077168735194675,
P,left,Lure,0,1,1,1,1333.465293332236,1335.4651755976956,left,1,3,0.63463602703996,R31R02,2022-11-30_12h01.20.614,t1_Paradigm,2021.1.4,60.077168735194675,
V,left,Distractor,0,2,2,2,1336.9650305949326,1338.964706263534,left,1,3,1.0728430357994512,R31R02,2022-11-30_12h01.20.614,t1_Paradigm,2021.1.4,60.077168735194675,
P,left,Pretarget,0,3,3,3,1340.4642378917779,1342.464070753631,left,1,3,0.8265949822671246,R31R02,2022-11-30_12h01.20.614,t1_Paradigm,2021.1.4,60.077168735194675,
Z,left,Distractor,0,4,4,4,1343.9637464222324,1345.9632424413867,left,1,3,0.6740257707133424,R31R02,2022-11-30_12h01.20.614,t1_Paradigm,2021.1.4,60.077168735194675,
L,left,Pretarget,0,5,5,5,1347.463266180799,1349.4649953066546,left,1,3,0.6327140988141764,R31R02,2022-11-30_12h01.20.614,t1_Paradigm,2021.1.4,60.077168735194675,
P,right,Target,0,6,6,6,1350.9623733872431,1352.9621648655739,right,1,3,0.9105406742310151,R31R02,2022-11-30_12h01.20.614,t1_Paradigm,2021.1.4,60.077168735194675,
S,left,Distractor,0,7,7,7,1354.4619528150652,1356.4620201835933,None,0,3,,R31R02,2022-11-30_12h01.20.614,t1_Paradigm,2021.1.4,60.077168735194675,
L,right,Target,0,8,8,8,1357.9614366437308,1359.9613070394844,None,0,3,,R31R02,2022-11-30_12h01.20.614,t1_Paradigm,2021.1.4,60.077168735194675,
D,left,Distractor,0,9,9,9,1361.460771940794,1363.4605919705646,left,1,3,0.7209867758792825,R31R02,2022-11-30_12h01.20.614,t1_Paradigm,2021.1.4,60.077168735194675,
G,left,Distractor,0,10,10,10,1364.9602612231101,1366.959952931822,left,1,3,0.7724342049914412,R31R02,2022-11-30_12h01.20.614,t1_Paradigm,2021.1.4,60.077168735194675,
M,left,Pretarget,0,11,11,11,1368.4594553670613,1370.4591942337574,left,1,3,0.8358126025414094,R31R02,2022-11-30_12h01.20.614,t1_Paradigm,2021.1.4,60.077168735194675,
Y,left,Distractor,0,12,12,12,1371.9589995066053,1373.9587887393136,left,1,3,0.6093012855853885,R31R02,2022-11-30_12h01.20.614,t1_Paradigm,2021.1.4,60.077168735194675,
V,left,Distractor,0,13,13,13,1375.4587470349798,1377.4581128082937,left,1,3,0.7381368813221343,R31R02,2022-11-30_12h01.20.614,t1_Paradigm,2021.1.4,60.077168735194675,
M,right,Target,0,14,14,14,1378.9580698207428,1380.957502320991,right,1,3,0.4670494055317249,R31R02,2022-11-30_12h01.20.614,t1_Paradigm,2021.1.4,60.077168735194675,
S,left,Pretarget,0,15,15,15,1382.4572068618145,1384.456825748377,left,1,3,0.8118688610557001,R31R02,2022-11-30_12h01.20.614,t1_Paradigm,2021.1.4,60.077168735194675,
Q,left,Distractor,0,16,16,16,1385.9567757031764,1387.9570599342405,left,1,3,0.9352941214165185,R31R02,2022-11-30_12h01.20.614,t1_Paradigm,2021.1.4,60.077168735194675,
R,left,Pretarget,0,17,17,17,1389.4560814863944,1391.455984604021,left,1,3,0.7748729461454786,R31R02,2022-11-30_12h01.20.614,t1_Paradigm,2021.1.4,60.077168735194675,
S,right,Target,0,18,18,18,1392.9555393300543,1394.9567801944213,right,1,3,0.49445492756785825,R31R02,2022-11-30_12h01.20.614,t1_Paradigm,2021.1.4,60.077168735194675,
F,left,Distractor,0,19,19,19,1396.4550459356979,1398.4547222459223,left,1,3,0.6978318878973369,R31R02,2022-11-30_12h01.20.614,t1_Paradigm,2021.1.4,60.077168735194675,
R,right,Target,0,20,20,20,1399.9544720199192,1401.9542586861935,right,1,3,0.5812438927241601,R31R02,2022-11-30_12h01.20.614,t1_Paradigm,2021.1.4,60.077168735194675,
P,left,Distractor,0,21,21,21,1403.453856078966,1405.4541807311762,left,1,3,0.9374871278123464,R31R02,2022-11-30_12h01.20.614,t1_Paradigm,2021.1.4,60.077168735194675,
L,left,Distractor,0,22,22,22,1406.9533004489203,1408.9529584733828,None,0,3,,R31R02,2022-11-30_12h01.20.614,t1_Paradigm,2021.1.4,60.077168735194675,
R,right,Target,0,23,23,23,1410.4526004577056,1412.452615856222,None,0,3,,R31R02,2022-11-30_12h01.20.614,t1_Paradigm,2021.1.4,60.077168735194675,
H,left,Pretarget,0,24,24,24,1413.9521465220605,1415.9518276443123,left,1,3,0.6795515949779656,R31R02,2022-11-30_12h01.20.614,t1_Paradigm,2021.1.4,60.077168735194675,
G,left,Pretarget,0,25,25,25,1417.4514272827073,1419.4511132169864,left,1,3,0.5633796807669569,R31R02,2022-11-30_12h01.20.614,t1_Paradigm,2021.1.4,60.077168735194675,
T,left,Distractor,0,26,26,26,1420.9509438332461,1422.9505948000296,left,1,3,0.7246330179041252,R31R02,2022-11-30_12h01.20.614,t1_Paradigm,2021.1.4,60.077168735194675,
H,right,Target,0,27,27,27,1424.4506143689796,1426.4501905888028,left,0,3,0.8693303759791888,R31R02,2022-11-30_12h01.20.614,t1_Paradigm,2021.1.4,60.077168735194675,
G,right,Target,0,28,28,28,1427.9499913704058,1429.94943574036,right,1,3,0.7777704349718988,R31R02,2022-11-30_12h01.20.614,t1_Paradigm,2021.1.4,60.077168735194675,
D,left,Distractor,0,29,29,29,1431.4492631485627,1433.4493241010641,left,1,3,0.5920331247616559,R31R02,2022-11-30_12h01.20.614,t1_Paradigm,2021.1.4,60.077168735194675,
N,left,Pretarget,0,30,30,30,1434.9486555485055,1436.9490684214106,left,1,3,0.6633074360142928,R31R02,2022-11-30_12h01.20.614,t1_Paradigm,2021.1.4,60.077168735194675,
V,left,Distractor,0,31,31,31,1438.4480989560252,1440.4479039080616,left,1,3,0.9346063207194675,R31R02,2022-11-30_12h01.20.614,t1_Paradigm,2021.1.4,60.077168735194675,
R,left,Distractor,0,32,32,32,1441.9474839775066,1443.9475420427625,left,1,3,0.6798768888111226,R31R02,2022-11-30_12h01.20.614,t1_Paradigm,2021.1.4,60.077168735194675,
N,right,Target,0,33,33,33,1445.446999565611,1447.4465119457163,right,1,3,0.6698996080376673,R31R02,2022-11-30_12h01.20.614,t1_Paradigm,2021.1.4,60.077168735194675,
Z,left,Distractor,0,34,34,34,1448.9461863311008,1450.9459027416306,left,1,3,0.6313779561023694,R31R02,2022-11-30_12h01.20.614,t1_Paradigm,2021.1.4,60.077168735194675,
N,left,Lure,0,35,35,35,1452.445739773917,1454.4453878535132,None,0,3,,R31R02,2022-11-30_12h01.20.614,t1_Paradigm,2021.1.4,60.077168735194675,
Y,left,Pretarget,0,36,36,36,1455.9453503196128,1457.944763250911,None,0,3,,R31R02,2022-11-30_12h01.20.614,t1_Paradigm,2021.1.4,60.077168735194675,
Y,left,Lure,0,37,37,37,1459.4446256266092,1461.443978888623,left,1,3,0.9191330502799246,R31R02,2022-11-30_12h01.20.614,t1_Paradigm,2021.1.4,60.077168735194675,
B,left,Distractor,0,38,38,38,1462.9440064776281,1464.9438743069768,left,1,3,0.553522700938629,R31R02,2022-11-30_12h01.20.614,t1_Paradigm,2021.1.4,60.077168735194675,
Y,right,Target,0,39,39,39,1466.4433966319484,1468.44325066678,right,1,3,0.49458324859733693,R31R02,2022-11-30_12h01.20.614,t1_Paradigm,2021.1.4,60.077168735194675,
J,left,Distractor,0,40,40,40,1469.9432779350027,1471.94233573784,left,1,3,1.1128320386633277,R31R02,2022-11-30_12h01.20.614,t1_Paradigm,2021.1.4,60.077168735194675,
X,left,Distractor,0,41,41,41,1473.4422176824883,1475.4420521483698,left,1,3,0.7107974445971195,R31R02,2022-11-30_12h01.20.614,t1_Paradigm,2021.1.4,60.077168735194675,
W,left,Pretarget,0,42,42,42,1476.9416748845542,1478.9417239673494,left,1,3,1.304090361110866,R31R02,2022-11-30_12h01.20.614,t1_Paradigm,2021.1.4,60.077168735194675,
S,left,Pretarget,0,43,43,43,1480.4409951039124,1482.44144936034,left,1,3,1.0490548835368827,R31R02,2022-11-30_12h01.20.614,t1_Paradigm,2021.1.4,60.077168735194675,
R,left,Distractor,0,44,44,44,1483.9410307129729,1485.9400769669446,left,1,3,0.6523334216617513,R31R02,2022-11-30_12h01.20.614,t1_Paradigm,2021.1.4,60.077168735194675,
W,right,Target,0,45,45,45,1487.4399634028377,1489.439642921061,right,1,3,0.4546372332260944,R31R02,2022-11-30_12h01.20.614,t1_Paradigm,2021.1.4,60.077168735194675,
S,right,Target,0,46,46,46,1490.9394151512242,1492.9389961830748,right,1,3,0.4691468127130065,R31R02,2022-11-30_12h01.20.614,t1_Paradigm,2021.1.4,60.077168735194675,
D,left,Distractor,0,47,47,47,1494.4387947190553,1496.4382894550217,None,0,3,,R31R02,2022-11-30_12h01.20.614,t1_Paradigm,2021.1.4,60.077168735194675,
T,left,Distractor,0,48,48,48,1497.9380334545567,1499.93795389554,left,1,3,0.8568620632286184,R31R02,2022-11-30_12h01.20.614,t1_Paradigm,2021.1.4,60.077168735194675,
S,right,Target,0,49,49,49,1501.4375304361456,1503.4372455634584,right,1,3,0.7286959824559744,R31R02,2022-11-30_12h01.20.614,t1_Paradigm,2021.1.4,60.077168735194675,
K,left,Distractor,0,50,50,50,1504.9373786965152,1506.9369789765042,left,1,3,0.5714196347689722,R31R02,2022-11-30_12h01.20.614,t1_Paradigm,2021.1.4,60.077168735194675,
S,left,Lure,0,51,51,51,1508.4365908053878,1510.4361163383874,left,1,3,0.969423665344948,R31R02,2022-11-30_12h01.20.614,t1_Paradigm,2021.1.4,60.077168735194675,
T,left,Pretarget,0,52,52,52,1511.935888889362,1513.93584044819,left,1,3,0.6738676150271203,R31R02,2022-11-30_12h01.20.614,t1_Paradigm,2021.1.4,60.077168735194675,
V,left,Distractor,0,53,53,53,1515.4352655699768,1517.4348729076446,left,1,3,0.8839804669842124,R31R02,2022-11-30_12h01.20.614,t1_Paradigm,2021.1.4,60.077168735194675,
B,left,Distractor,0,54,54,54,1518.9347635139711,1520.9371236584848,left,1,3,1.4174815586593468,R31R02,2022-11-30_12h01.20.614,t1_Paradigm,2021.1.4,60.077168735194675,
T,right,Target,0,55,55,55,1522.4512274227163,1524.4507892063993,right,1,3,0.5043282682599965,R31R02,2022-11-30_12h01.20.614,t1_Paradigm,2021.1.4,60.077168735194675,
Y,left,Pretarget,0,56,56,56,1525.950256674114,1527.9498450844258,left,1,3,0.6698309562925715,R31R02,2022-11-30_12h01.20.614,t1_Paradigm,2021.1.4,60.077168735194675,
T,left,Lure,0,57,57,57,1529.4497273498855,1531.4508161538106,left,1,3,0.8624055316613521,R31R02,2022-11-30_12h01.20.614,t1_Paradigm,2021.1.4,60.077168735194675,
P,left,Pretarget,0,58,58,58,1532.9656150972005,1534.9653914978262,left,1,3,1.3342932815721724,R31R02,2022-11-30_12h01.20.614,t1_Paradigm,2021.1.4,60.077168735194675,
Y,right,Target,0,59,59,59,1536.4650052515208,1538.4647377021902,right,1,3,1.1614150216337293,R31R02,2022-11-30_12h01.20.614,t1_Paradigm,2021.1.4,60.077168735194675,
R,left,Distractor,0,60,60,60,1539.9649677176203,1541.9649930610321,left,1,3,0.702226883120602,R31R02,2022-11-30_12h01.20.614,t1_Paradigm,2021.1.4,60.077168735194675,
P,right,Target,0,61,61,61,1543.4639879865863,1545.4636055899027,left,0,3,0.8682698026823346,R31R02,2022-11-30_12h01.20.614,t1_Paradigm,2021.1.4,60.077168735194675,
L,left,Distractor,0,62,62,62,1546.9636463318311,1548.9638211692509,left,1,3,0.9719589680607896,R31R02,2022-11-30_12h01.20.614,t1_Paradigm,2021.1.4,60.077168735194675,
V,left,Distractor,0,63,63,63,1550.4631362557411,1552.4623291164753,left,1,3,1.0522234505333472,R31R02,2022-11-30_12h01.20.614,t1_Paradigm,2021.1.4,60.077168735194675,
H,left,Lure,0,0,0,0,1558.3212834540755,1560.327763986832,left,1,3,0.712740866583772,R31R02,2022-11-30_12h01.20.614,t1_Paradigm,2021.1.4,60.077168735194675,
B,left,Distractor,0,1,1,1,1561.8277258113085,1563.8271833341569,left,1,3,0.8003514071460813,R31R02,2022-11-30_12h01.20.614,t1_Paradigm,2021.1.4,60.077168735194675,
T,left,Distractor,0,2,2,2,1565.3269648676214,1567.3265972278605,left,1,3,0.8188511290063616,R31R02,2022-11-30_12h01.20.614,t1_Paradigm,2021.1.4,60.077168735194675,
R,left,Distractor,0,3,3,3,1568.8265314633318,1570.8261779388995,left,1,3,0.5517675901064649,R31R02,2022-11-30_12h01.20.614,t1_Paradigm,2021.1.4,60.077168735194675,
H,left,Pretarget,0,4,4,4,1572.3258250560903,1574.3255125943688,left,1,3,0.4968333578435704,R31R02,2022-11-30_12h01.20.614,t1_Paradigm,2021.1.4,60.077168735194675,
K,left,Distractor,0,5,5,5,1575.8252780876937,1577.8247593499545,left,1,3,0.8618274454202037,R31R02,2022-11-30_12h01.20.614,t1_Paradigm,2021.1.4,60.077168735194675,
G,left,Distractor,0,6,6,6,1579.3248280016996,1581.3243500058597,left,1,3,0.745693385892082,R31R02,2022-11-30_12h01.20.614,t1_Paradigm,2021.1.4,60.077168735194675,
H,right,Target,0,7,7,7,1582.8240664163895,1584.8236307665065,right,1,3,0.625969866378,R31R02,2022-11-30_12h01.20.614,t1_Paradigm,2021.1.4,60.077168735194675,
Y,left,Pretarget,0,8,8,8,1586.3235027662595,1588.323102725466,left,1,3,0.7704314345610328,R31R02,2022-11-30_12h01.20.614,t1_Paradigm,2021.1.4,60.077168735194675,
S,left,Distractor,0,9,9,9,1589.822921151208,1591.8226446193876,left,1,3,1.1676087568921503,R31R02,2022-11-30_12h01.20.614,t1_Paradigm,2021.1.4,60.077168735194675,
P,left,Distractor,0,10,10,10,1593.3221756060375,1595.3219677259622,left,1,3,1.1783809864136856,R31R02,2022-11-30_12h01.20.614,t1_Paradigm,2021.1.4,60.077168735194675,
Y,right,Target,0,11,11,11,1596.8216995350085,1598.823756521102,right,1,3,0.913680689787725,R31R02,2022-11-30_12h01.20.614,t1_Paradigm,2021.1.4,60.077168735194675,
H,left,Lure,0,12,12,12,1600.3211333184736,1602.3219282672508,left,1,3,0.8276080767682288,R31R02,2022-11-30_12h01.20.614,t1_Paradigm,2021.1.4,60.077168735194675,
Q,left,Distractor,0,13,13,13,1603.8206521146349,1605.8211830428918,left,1,3,1.0376294999732636,R31R02,2022-11-30_12h01.20.614,t1_Paradigm,2021.1.4,60.077168735194675,
V,left,Pretarget,0,14,14,14,1607.3204727859993,1609.31986646913,left,1,3,0.9668033499328885,R31R02,2022-11-30_12h01.20.614,t1_Paradigm,2021.1.4,60.077168735194675,
G,left,Distractor,0,15,15,15,1610.8195819172543,1612.8196197719371,None,0,3,,R31R02,2022-11-30_12h01.20.614,t1_Paradigm,2021.1.4,60.077168735194675,
Z,left,Pretarget,0,16,16,16,1614.3189098358562,1616.318536100851,None,0,3,,R31R02,2022-11-30_12h01.20.614,t1_Paradigm,2021.1.4,60.077168735194675,
V,right,Target,0,17,17,17,1617.818333674455,1619.8178219943366,right,1,3,0.8601140388927888,R31R02,2022-11-30_12h01.20.614,t1_Paradigm,2021.1.4,60.077168735194675,
N,left,Distractor,0,18,18,18,1621.31776553308,1623.317382815614,left,1,3,1.4088510070869233,R31R02,2022-11-30_12h01.20.614,t1_Paradigm,2021.1.4,60.077168735194675,
Z,right,Target,0,19,19,19,1624.8173632466642,1626.8167527593614,right,1,3,1.2397473102319054,R31R02,2022-11-30_12h01.20.614,t1_Paradigm,2021.1.4,60.077168735194675,
R,left,Distractor,0,20,20,20,1628.3170870356553,1630.3162061118055,left,1,3,1.3193576762569137,R31R02,2022-11-30_12h01.20.614,t1_Paradigm,2021.1.4,60.077168735194675,
P,left,Distractor,0,21,21,21,1631.816423295124,1633.8156139102357,left,1,3,0.8245639811793808,R31R02,2022-11-30_12h01.20.614,t1_Paradigm,2021.1.4,60.077168735194675,
Z,right,Target,0,22,22,22,1635.3154785315564,1637.3150544305681,None,0,3,,R31R02,2022-11-30_12h01.20.614,t1_Paradigm,2021.1.4,60.077168735194675,
D,left,Pretarget,0,23,23,23,1638.8146880740242,1640.8143797827652,left,1,3,1.1108437043440063,R31R02,2022-11-30_12h01.20.614,t1_Paradigm,2021.1.4,60.077168735194675,
K,left,Distractor,0,24,24,24,1642.3142331759736,1644.31391333582,left,1,3,0.7624293352128007,R31R02,2022-11-30_12h01.20.614,t1_Paradigm,2021.1.4,60.077168735194675,
W,left,Distractor,0,25,25,25,1645.813782127574,1647.8144526049437,left,1,3,1.1262807240709662,R31R02,2022-11-30_12h01.20.614,t1_Paradigm,2021.1.4,60.077168735194675,
D,right,Target,0,26,26,26,1649.313074757898,1651.3127812235325,right,1,3,0.7219944167300127,R31R02,2022-11-30_12h01.20.614,t1_Paradigm,2021.1.4,60.077168735194675,
G,left,Pretarget,0,27,27,27,1652.8125906668138,1654.8121893428033,left,1,3,1.0954580130637623,R31R02,2022-11-30_12h01.20.614,t1_Paradigm,2021.1.4,60.077168735194675,
V,left,Distractor,0,28,28,28,1656.312308039749,1658.311557682522,left,1,3,1.0322387335763779,R31R02,2022-11-30_12h01.20.614,t1_Paradigm,2021.1.4,60.077168735194675,
D,right,Target,0,29,29,29,1659.8114283990872,1661.8118281190982,right,1,3,0.46684569588978775,R31R02,2022-11-30_12h01.20.614,t1_Paradigm,2021.1.4,60.077168735194675,
G,right,Target,0,30,30,30,1663.3273543219257,1665.3270858101896,right,1,3,0.4821383544476703,R31R02,2022-11-30_12h01.20.614,t1_Paradigm,2021.1.4,60.077168735194675,
B,left,Pretarget,0,31,31,31,1666.8267114335904,1668.8265006662987,left,1,3,0.7574132661975455,R31R02,2022-11-30_12h01.20.614,t1_Paradigm,2021.1.4,60.077168735194675,
N,left,Distractor,0,32,32,32,1670.3266578595503,1672.3258933870238,left,1,3,0.6005950245889835,R31R02,2022-11-30_12h01.20.614,t1_Paradigm,2021.1.4,60.077168735194675,
F,left,Distractor,0,33,33,33,1673.8257740484842,1675.8253351905441,left,1,3,0.7986784217064269,R31R02,2022-11-30_12h01.20.614,t1_Paradigm,2021.1.4,60.077168735194675,
B,right,Target,0,34,34,34,1677.3249749292736,1679.3248093951552,right,1,3,0.6092634309025016,R31R02,2022-11-30_12h01.20.614,t1_Paradigm,2021.1.4,60.077168735194675,
Q,left,Pretarget,0,35,35,35,1680.824465815589,1682.8241841509298,left,1,3,0.5423494682181627,R31R02,2022-11-30_12h01.20.614,t1_Paradigm,2021.1.4,60.077168735194675,
S,left,Pretarget,0,36,36,36,1684.32407187004,1686.3235001998546,left,1,3,1.2293160938133951,R31R02,2022-11-30_12h01.20.614,t1_Paradigm,2021.1.4,60.077168735194675,
W,left,Distractor,0,37,37,37,1687.8233651419578,1689.8235669267888,left,1,3,1.0802651240665,R31R02,2022-11-30_12h01.20.614,t1_Paradigm,2021.1.4,60.077168735194675,
Q,right,Target,0,38,38,38,1691.3228242688347,1693.3223963181954,right,1,3,0.8302707381080836,R31R02,2022-11-30_12h01.20.614,t1_Paradigm,2021.1.4,60.077168735194675,
S,right,Target,0,39,39,39,1694.8222185935883,1696.822231425671,right,1,3,0.6729728966893163,R31R02,2022-11-30_12h01.20.614,t1_Paradigm,2021.1.4,60.077168735194675,
T,left,Distractor,0,40,40,40,1698.3216228632082,1700.3223754660285,left,1,3,0.75636873304029,R31R02,2022-11-30_12h01.20.614,t1_Paradigm,2021.1.4,60.077168735194675,
G,left,Distractor,0,41,41,41,1701.8208930373657,1703.8204763148096,left,1,3,0.608984653459629,R31R02,2022-11-30_12h01.20.614,t1_Paradigm,2021.1.4,60.077168735194675,
D,left,Distractor,0,42,42,42,1705.3205440041493,1707.3200262288155,left,1,3,0.9658601903938688,R31R02,2022-11-30_12h01.20.614,t1_Paradigm,2021.1.4,60.077168735194675,
S,left,Lure,0,43,43,43,1708.8200425897376,1710.8195370048925,left,1,3,0.5441530202515423,R31R02,2022-11-30_12h01.20.614,t1_Paradigm,2021.1.4,60.077168735194675,
Z,left,Pretarget,0,44,44,44,1712.3198007046012,1714.3202071614505,left,1,3,0.6798201067431364,R31R02,2022-11-30_12h01.20.614,t1_Paradigm,2021.1.4,60.077168735194675,
J,left,Distractor,0,45,45,45,1715.818589674891,1717.8183432985097,left,1,3,0.8340263738064095,R31R02,2022-11-30_12h01.20.614,t1_Paradigm,2021.1.4,60.077168735194675,
M,left,Pretarget,0,46,46,46,1719.3185899957025,1721.3184141958773,left,1,3,1.0922448544879444,R31R02,2022-11-30_12h01.20.614,t1_Paradigm,2021.1.4,60.077168735194675,
Z,right,Target,0,47,47,47,1722.8175980741507,1724.8185999405687,right,1,3,0.6290819721180014,R31R02,2022-11-30_12h01.20.614,t1_Paradigm,2021.1.4,60.077168735194675,
P,left,Distractor,0,48,48,48,1726.31695229857,1728.3172374920687,left,1,3,0.7421157956123352,R31R02,2022-11-30_12h01.20.614,t1_Paradigm,2021.1.4,60.077168735194675,
M,right,Target,0,49,49,49,1729.8164053301734,1731.8178126910643,left,0,3,1.195769768964965,R31R02,2022-11-30_12h01.20.614,t1_Paradigm,2021.1.4,60.077168735194675,
K,left,Distractor,0,50,50,50,1733.3161531793594,1735.3154329776007,left,1,3,0.8001152964425273,R31R02,2022-11-30_12h01.20.614,t1_Paradigm,2021.1.4,60.077168735194675,
Y,left,Distractor,0,51,51,51,1736.8152748219145,1738.8158865924343,left,1,3,0.5931196830933914,R31R02,2022-11-30_12h01.20.614,t1_Paradigm,2021.1.4,60.077168735194675,
X,left,Distractor,0,52,52,52,1740.3147005853243,1742.3151981501142,left,1,3,0.7586566969694104,R31R02,2022-11-30_12h01.20.614,t1_Paradigm,2021.1.4,60.077168735194675,
F,left,Pretarget,0,53,53,53,1743.8140990805114,1745.8140535265265,left,1,3,0.7006074717501178,R31R02,2022-11-30_12h01.20.614,t1_Paradigm,2021.1.4,60.077168735194675,
M,left,Lure,0,54,54,54,1747.313381765969,1749.3134885932086,left,1,3,1.3832455082738306,R31R02,2022-11-30_12h01.20.614,t1_Paradigm,2021.1.4,60.077168735194675,
V,left,Distractor,0,55,55,55,1750.812724120682,1752.8123978644726,left,1,3,1.4475420427916106,R31R02,2022-11-30_12h01.20.614,t1_Paradigm,2021.1.4,60.077168735194675,
F,right,Target,0,56,56,56,1754.312726687116,1756.3125415840186,left,0,3,0.8903843278822023,R31R02,2022-11-30_12h01.20.614,t1_Paradigm,2021.1.4,60.077168735194675,
S,left,Distractor,0,57,57,57,1757.812270185037,1759.8120783451013,left,1,3,0.7373910153401084,R31R02,2022-11-30_12h01.20.614,t1_Paradigm,2021.1.4,60.077168735194675,
D,left,Distractor,0,58,58,58,1761.3112259726913,1763.3127061557316,left,1,3,0.6772848040563986,R31R02,2022-11-30_12h01.20.614,t1_Paradigm,2021.1.4,60.077168735194675,
F,right,Target,0,59,59,59,1764.8271037751401,1766.8272818205587,left,0,3,0.5624580149888061,R31R02,2022-11-30_12h01.20.614,t1_Paradigm,2021.1.4,60.077168735194675,
V,left,Pretarget,0,60,60,60,1768.3271275145235,1770.3263607963745,right,0,3,0.9931316169386264,R31R02,2022-11-30_12h01.20.614,t1_Paradigm,2021.1.4,60.077168735194675,
J,left,Distractor,0,61,61,61,1771.826157407544,1773.8258035623003,left,1,3,0.9909873725555371,R31R02,2022-11-30_12h01.20.614,t1_Paradigm,2021.1.4,60.077168735194675,
V,left,Lure,0,62,62,62,1775.3254663988191,1777.325158107531,left,1,3,1.1811562494840473,R31R02,2022-11-30_12h01.20.614,t1_Paradigm,2021.1.4,60.077168735194675,
V,right,Target,0,63,63,63,1778.824998027063,1780.82476031236,right,1,3,0.6615792725642677,R31R02,2022-11-30_12h01.20.614,t1_Paradigm,2021.1.4,60.077168735194675,
R,left,Distractor,0,0,0,0,1825.6266781984305,1827.6331988314923,left,1,4,0.761195528524695,R31R02,2022-11-30_12h01.20.614,t1_Paradigm,2021.1.4,60.077168735194675,
F,left,Distractor,0,1,1,1,1829.1332812777546,1831.1342231541057,left,1,4,0.5054343955416698,R31R02,2022-11-30_12h01.20.614,t1_Paradigm,2021.1.4,60.077168735194675,
P,left,Pretarget,0,2,2,2,1832.6326204244688,1834.632521296473,left,1,4,0.553715503308922,R31R02,2022-11-30_12h01.20.614,t1_Paradigm,2021.1.4,60.077168735194675,
H,left,Distractor,0,3,3,3,1836.132521938067,1838.131808793958,left,1,4,0.8579229573369958,R31R02,2022-11-30_12h01.20.614,t1_Paradigm,2021.1.4,60.077168735194675,
Z,left,Distractor,0,4,4,4,1839.6314401917916,1841.6320872505894,left,1,4,0.4925641171867028,R31R02,2022-11-30_12h01.20.614,t1_Paradigm,2021.1.4,60.077168735194675,
T,left,Distractor,0,5,5,5,1843.1312762617017,1845.1307013834885,left,1,4,0.4588111955090426,R31R02,2022-11-30_12h01.20.614,t1_Paradigm,2021.1.4,60.077168735194675,
P,right,Target,0,6,6,6,1846.6303494630556,1848.6316936258227,right,1,4,0.7085348240798339,R31R02,2022-11-30_12h01.20.614,t1_Paradigm,2021.1.4,60.077168735194675,
G,left,Distractor,0,7,7,7,1850.1295721584174,1852.1311925322225,left,1,4,0.5722450597968418,R31R02,2022-11-30_12h01.20.614,t1_Paradigm,2021.1.4,60.077168735194675,
L,left,Distractor,0,8,8,8,1853.6291458118067,1855.6301175228145,left,1,4,0.5218639784143306,R31R02,2022-11-30_12h01.20.614,t1_Paradigm,2021.1.4,60.077168735194675,
P,left,Lure,0,9,9,9,1857.128645038989,1859.1282273540564,left,1,4,0.9740772274381015,R31R02,2022-11-30_12h01.20.614,t1_Paradigm,2021.1.4,60.077168735194675,
Q,left,Pretarget,0,10,10,10,1860.6278138395282,1862.6279752032424,left,1,4,1.2004615065816324,R31R02,2022-11-30_12h01.20.614,t1_Paradigm,2021.1.4,60.077168735194675,
D,left,Distractor,0,11,11,11,1864.1278427117795,1866.1270949209866,left,1,4,0.8727526977891102,R31R02,2022-11-30_12h01.20.614,t1_Paradigm,2021.1.4,60.077168735194675,
M,left,Pretarget,0,12,12,12,1867.6268703591777,1869.6270275524294,left,1,4,0.7849297859647777,R31R02,2022-11-30_12h01.20.614,t1_Paradigm,2021.1.4,60.077168735194675,
C,left,Distractor,0,13,13,13,1871.1261309092515,1873.1258774752205,left,1,4,1.0365634730260354,R31R02,2022-11-30_12h01.20.614,t1_Paradigm,2021.1.4,60.077168735194675,
Q,right,Target,0,14,14,14,1874.6257013546128,1876.6253176747414,right,1,4,0.8881236321758479,R31R02,2022-11-30_12h01.20.614,t1_Paradigm,2021.1.4,60.077168735194675,
R,left,Distractor,0,15,15,15,1878.1251919201168,1880.1270487254078,left,1,4,0.6886774657468777,R31R02,2022-11-30_12h01.20.614,t1_Paradigm,2021.1.4,60.077168735194675,
M,right,Target,0,16,16,16,1881.6245686007314,1883.6240684695367,right,1,4,1.2846914296387695,R31R02,2022-11-30_12h01.20.614,t1_Paradigm,2021.1.4,60.077168735194675,
S,left,Distractor,0,17,17,17,1885.123928278801,1887.123657842225,None,0,4,,R31R02,2022-11-30_12h01.20.614,t1_Paradigm,2021.1.4,60.077168735194675,
Z,left,Distractor,0,18,18,18,1888.623875346384,1890.6232565182145,left,1,4,1.3216270336415619,R31R02,2022-11-30_12h01.20.614,t1_Paradigm,2021.1.4,60.077168735194675,
L,left,Pretarget,0,19,19,19,1892.123184979253,1894.1246869768656,left,1,4,0.8572425351012498,R31R02,2022-11-30_12h01.20.614,t1_Paradigm,2021.1.4,60.077168735194675,
M,right,Target,0,20,20,20,1895.622343193303,1897.6220246363373,left,0,4,1.387297886365559,R31R02,2022-11-30_12h01.20.614,t1_Paradigm,2021.1.4,60.077168735194675,
P,left,Distractor,0,21,21,21,1899.121601818566,1901.121381106379,left,1,4,0.8353955591737758,R31R02,2022-11-30_12h01.20.614,t1_Paradigm,2021.1.4,60.077168735194675,
F,left,Distractor,0,22,22,22,1902.6208902784565,1904.6207869800273,left,1,4,1.0133447453554254,R31R02,2022-11-30_12h01.20.614,t1_Paradigm,2021.1.4,60.077168735194675,
L,right,Target,0,23,23,23,1906.1205316211854,1908.1206836815982,None,0,4,,R31R02,2022-11-30_12h01.20.614,t1_Paradigm,2021.1.4,60.077168735194675,
L,left,Lure,0,24,24,24,1909.6199015649327,1911.6196256747062,right,0,4,0.7366785128251649,R31R02,2022-11-30_12h01.20.614,t1_Paradigm,2021.1.4,60.077168735194675,
V,left,Pretarget,0,25,25,25,1913.1193568421586,1915.120361595822,left,1,4,0.6355916978791356,R31R02,2022-11-30_12h01.20.614,t1_Paradigm,2021.1.4,60.077168735194675,
Z,left,Distractor,0,26,26,26,1916.6187890216243,1918.6182933816453,right,0,4,0.7659231960133184,R31R02,2022-11-30_12h01.20.614,t1_Paradigm,2021.1.4,60.077168735194675,
H,left,Distractor,0,27,27,27,1920.1182372412004,1922.1177845887723,left,1,4,1.0860937859979458,R31R02,2022-11-30_12h01.20.614,t1_Paradigm,2021.1.4,60.077168735194675,
X,left,Distractor,0,28,28,28,1923.617615205003,1925.6180399476143,left,1,4,0.8431711719022132,R31R02,2022-11-30_12h01.20.614,t1_Paradigm,2021.1.4,60.077168735194675,
V,right,Target,0,29,29,29,1927.11699413124,1929.1165982608509,right,1,4,0.5283358494925778,R31R02,2022-11-30_12h01.20.614,t1_Paradigm,2021.1.4,60.077168735194675,
C,left,Distractor,0,30,30,30,1930.616505548911,1932.6159649965703,left,1,4,1.27675220760284,R31R02,2022-11-30_12h01.20.614,t1_Paradigm,2021.1.4,60.077168735194675,
S,left,Pretarget,0,31,31,31,1934.1158613773587,1936.115811973752,None,0,4,,R31R02,2022-11-30_12h01.20.614,t1_Paradigm,2021.1.4,60.077168735194675,
D,left,Distractor,0,32,32,32,1937.615538329148,1939.6153115217458,left,1,4,1.2157185560790822,R31R02,2022-11-30_12h01.20.614,t1_Paradigm,2021.1.4,60.077168735194675,
V,left,Distractor,0,33,33,33,1941.11457560063,1943.1142897655664,right,0,4,1.3246249336807523,R31R02,2022-11-30_12h01.20.614,t1_Paradigm,2021.1.4,60.077168735194675,
R,left,Distractor,0,34,34,34,1944.614139950747,1946.613646235608,left,1,4,1.1841881545551587,R31R02,2022-11-30_12h01.20.614,t1_Paradigm,2021.1.4,60.077168735194675,
S,right,Target,0,35,35,35,1948.1136125513294,1950.1131906959345,right,1,4,0.5262342718779109,R31R02,2022-11-30_12h01.20.614,t1_Paradigm,2021.1.4,60.077168735194675,
Y,left,Distractor,0,36,36,36,1951.6130947759666,1953.6126819030615,left,1,4,0.507820204278687,R31R02,2022-11-30_12h01.20.614,t1_Paradigm,2021.1.4,60.077168735194675,
N,left,Pretarget,0,37,37,37,1955.1123566092574,1957.1123771406128,left,1,4,0.5549829942465294,R31R02,2022-11-30_12h01.20.614,t1_Paradigm,2021.1.4,60.077168735194675,
Z,left,Pretarget,0,38,38,38,1958.6120377315092,1960.6112909031217,left,1,4,0.6840011266467627,R31R02,2022-11-30_12h01.20.614,t1_Paradigm,2021.1.4,60.077168735194675,
P,left,Pretarget,0,39,39,39,1962.111661430099,1964.110769919731,left,1,4,1.0576536756707355,R31R02,2022-11-30_12h01.20.614,t1_Paradigm,2021.1.4,60.077168735194675,
M,left,Distractor,0,40,40,40,1965.6105235433788,1967.6101982495748,left,1,4,0.9498181370145176,R31R02,2022-11-30_12h01.20.614,t1_Paradigm,2021.1.4,60.077168735194675,
N,right,Target,0,41,41,41,1969.1103406859038,1971.109750409174,right,1,4,0.6462548545387108,R31R02,2022-11-30_12h01.20.614,t1_Paradigm,2021.1.4,60.077168735194675,
Z,right,Target,0,42,42,42,1972.609713837679,1974.6089753501583,left,0,4,0.7999577823793516,R31R02,2022-11-30_12h01.20.614,t1_Paradigm,2021.1.4,60.077168735194675,
P,right,Target,0,43,43,43,1976.1088633900508,1978.1103063600312,left,0,4,1.105727865739027,R31R02,2022-11-30_12h01.20.614,t1_Paradigm,2021.1.4,60.077168735194675,
X,left,Pretarget,0,44,44,44,1979.6249904561264,1981.6246321196377,left,1,4,0.7385767016676255,R31R02,2022-11-30_12h01.20.614,t1_Paradigm,2021.1.4,60.077168735194675,
Z,left,Lure,0,45,45,45,1983.1241332716309,1985.1240482589637,left,1,4,0.9282547505863477,R31R02,2022-11-30_12h01.20.614,t1_Paradigm,2021.1.4,60.077168735194675,
R,left,Pretarget,0,46,46,46,1986.623834925238,1988.6233168290928,None,0,4,,R31R02,2022-11-30_12h01.20.614,t1_Paradigm,2021.1.4,60.077168735194675,
K,left,Distractor,0,47,47,47,1990.1234858920507,1992.1246468765603,left,1,4,0.6706984064367134,R31R02,2022-11-30_12h01.20.614,t1_Paradigm,2021.1.4,60.077168735194675,
X,right,Target,0,48,48,48,1993.6229745327437,1995.6222187218955,right,1,4,0.7441461550770327,R31R02,2022-11-30_12h01.20.614,t1_Paradigm,2021.1.4,60.077168735194675,
B,left,Distractor,0,49,49,49,1997.1225414492947,1999.1217080042115,left,1,4,1.2230187393724918,R31R02,2022-11-30_12h01.20.614,t1_Paradigm,2021.1.4,60.077168735194675,
R,right,Target,0,50,50,50,2000.6215408660646,2002.6211680934648,right,1,4,0.7077825420419686,R31R02,2022-11-30_12h01.20.614,t1_Paradigm,2021.1.4,60.077168735194675,
Y,left,Pretarget,0,51,51,51,2004.12131181304,2006.1204947288788,left,1,4,0.5431745724054053,R31R02,2022-11-30_12h01.20.614,t1_Paradigm,2021.1.4,60.077168735194675,
W,left,Pretarget,0,52,52,52,2007.6203372148157,2009.6200302067446,left,1,4,0.6068474666972179,R31R02,2022-11-30_12h01.20.614,t1_Paradigm,2021.1.4,60.077168735194675,
Z,left,Distractor,0,53,53,53,2011.1195640806109,2013.1200311691791,left,1,4,1.199818297434831,R31R02,2022-11-30_12h01.20.614,t1_Paradigm,2021.1.4,60.077168735194675,
Q,left,Distractor,0,54,54,54,2014.619265734218,2016.6189526309317,left,1,4,0.7953914785757661,R31R02,2022-11-30_12h01.20.614,t1_Paradigm,2021.1.4,60.077168735194675,
Y,right,Target,0,55,55,55,2018.1186193170433,2020.1205232803186,right,1,4,0.591265765047865,R31R02,2022-11-30_12h01.20.614,t1_Paradigm,2021.1.4,60.077168735194675,
W,right,Target,0,56,56,56,2021.6180036969308,2023.6178269347001,None,0,4,,R31R02,2022-11-30_12h01.20.614,t1_Paradigm,2021.1.4,60.077168735194675,
H,left,Pretarget,0,57,57,57,2025.117410853767,2027.1170323067345,left,1,4,0.6594651836203411,R31R02,2022-11-30_12h01.20.614,t1_Paradigm,2021.1.4,60.077168735194675,
M,left,Distractor,0,58,58,58,2028.6169687878282,2030.616465127794,left,1,4,0.6419727818283718,R31R02,2022-11-30_12h01.20.614,t1_Paradigm,2021.1.4,60.077168735194675,
R,left,Pretarget,0,59,59,59,2032.116228054685,2034.1159075729083,left,1,4,1.137814538902603,R31R02,2022-11-30_12h01.20.614,t1_Paradigm,2021.1.4,60.077168735194675,
J,left,Distractor,0,60,60,60,2035.616173839051,2037.615286819957,left,1,4,0.6145486532477662,R31R02,2022-11-30_12h01.20.614,t1_Paradigm,2021.1.4,60.077168735194675,
H,right,Target,0,61,61,61,2039.1153808150848,2041.1162700798304,left,0,4,1.2149704444454983,R31R02,2022-11-30_12h01.20.614,t1_Paradigm,2021.1.4,60.077168735194675,
Z,left,Distractor,0,62,62,62,2042.6313099459512,2044.63086563439,left,1,4,1.0593722150078975,R31R02,2022-11-30_12h01.20.614,t1_Paradigm,2021.1.4,60.077168735194675,
R,right,Target,0,63,63,63,2046.1305506062636,2048.1302375029773,left,0,4,1.1025063663255423,R31R02,2022-11-30_12h01.20.614,t1_Paradigm,2021.1.4,60.077168735194675,
J,left,Pretarget,0,0,0,0,2052.573621944437,2054.5791554679745,left,1,4,0.3863143056805711,R31R02,2022-11-30_12h01.20.614,t1_Paradigm,2021.1.4,60.077168735194675,
G,left,Pretarget,0,1,1,1,2056.0788314573874,2058.0786787553516,left,1,4,0.3640326423046645,R31R02,2022-11-30_12h01.20.614,t1_Paradigm,2021.1.4,60.077168735194675,
Z,left,Distractor,0,2,2,2,2059.578348007897,2061.578025280527,left,1,4,0.30940638048923574,R31R02,2022-11-30_12h01.20.614,t1_Paradigm,2021.1.4,60.077168735194675,
F,left,Distractor,0,3,3,3,2063.0781000275165,2065.079996933113,left,1,4,0.4111620688054245,R31R02,2022-11-30_12h01.20.614,t1_Paradigm,2021.1.4,60.077168735194675,
J,right,Target,0,4,4,4,2066.5776871546113,2068.5769929378293,right,1,4,0.587231993500609,R31R02,2022-11-30_12h01.20.614,t1_Paradigm,2021.1.4,60.077168735194675,
G,right,Target,0,5,5,5,2070.0766512831033,2072.076357748738,right,1,4,0.5367453680955805,R31R02,2022-11-30_12h01.20.614,t1_Paradigm,2021.1.4,60.077168735194675,
H,left,Distractor,0,6,6,6,2073.576094690652,2075.576365127199,left,1,4,1.4398123048304114,R31R02,2022-11-30_12h01.20.614,t1_Paradigm,2021.1.4,60.077168735194675,
P,left,Distractor,0,7,7,7,2077.0758194420487,2079.0750453454384,None,0,4,,R31R02,2022-11-30_12h01.20.614,t1_Paradigm,2021.1.4,60.077168735194675,
G,left,Lure,0,8,8,8,2080.574901946675,2082.574683159328,None,0,4,,R31R02,2022-11-30_12h01.20.614,t1_Paradigm,2021.1.4,60.077168735194675,
S,left,Distractor,0,9,9,9,2084.074698878656,2086.074254246283,left,1,4,1.395154341327725,R31R02,2022-11-30_12h01.20.614,t1_Paradigm,2021.1.4,60.077168735194675,
R,left,Pretarget,0,10,10,10,2087.573983809736,2089.573299217038,right,0,4,1.2593740115116816,R31R02,2022-11-30_12h01.20.614,t1_Paradigm,2021.1.4,60.077168735194675,
T,left,Pretarget,0,11,11,11,2091.0736071875144,2093.0747261468787,left,1,4,1.2553408815874718,R31R02,2022-11-30_12h01.20.614,t1_Paradigm,2021.1.4,60.077168735194675,
X,left,Distractor,0,12,12,12,2094.572567787167,2096.5728686999937,None,0,4,,R31R02,2022-11-30_12h01.20.614,t1_Paradigm,2021.1.4,60.077168735194675,
F,left,Pretarget,0,13,13,13,2098.071996437793,2100.072041350155,left,1,4,0.9233153534005396,R31R02,2022-11-30_12h01.20.614,t1_Paradigm,2021.1.4,60.077168735194675,
R,right,Target,0,14,14,14,2101.571417068364,2103.5711986017996,left,0,4,0.6691287194553297,R31R02,2022-11-30_12h01.20.614,t1_Paradigm,2021.1.4,60.077168735194675,
T,right,Target,0,15,15,15,2105.0708248667943,2107.07047455039,right,1,4,0.6837338981276844,R31R02,2022-11-30_12h01.20.614,t1_Paradigm,2021.1.4,60.077168735194675,
C,left,Distractor,0,16,16,16,2108.5702807856433,2110.5706596534874,left,1,4,1.2685281128797214,R31R02,2022-11-30_12h01.20.614,t1_Paradigm,2021.1.4,60.077168735194675,
F,right,Target,0,17,17,17,2112.069712965109,2114.0696388597135,left,0,4,0.9819481185113546,R31R02,2022-11-30_12h01.20.614,t1_Paradigm,2021.1.4,60.077168735194675,
M,left,Distractor,0,18,18,18,2115.569241385325,2117.5687989985745,left,1,4,0.37721377835259773,R31R02,2022-11-30_12h01.20.614,t1_Paradigm,2021.1.4,60.077168735194675,
N,left,Distractor,0,19,19,19,2119.0686074794503,2121.0681532229937,left,1,4,0.4815374912577681,R31R02,2022-11-30_12h01.20.614,t1_Paradigm,2021.1.4,60.077168735194675,
R,left,Lure,0,20,20,20,2122.56782087154,2124.5674724799464,left,1,4,0.6634623836434912,R31R02,2022-11-30_12h01.20.614,t1_Paradigm,2021.1.4,60.077168735194675,
F,right,Target,0,21,21,21,2126.067288018472,2128.066952458961,right,1,4,0.6532470673846547,R31R02,2022-11-30_12h01.20.614,t1_Paradigm,2021.1.4,60.077168735194675,
P,left,Distractor,0,22,22,22,2129.567001220974,2131.56632272352,left,1,4,0.725092086388031,R31R02,2022-11-30_12h01.20.614,t1_Paradigm,2021.1.4,60.077168735194675,
L,left,Pretarget,0,23,23,23,2133.0661459613184,2135.065893489693,left,1,4,0.8986818864068482,R31R02,2022-11-30_12h01.20.614,t1_Paradigm,2021.1.4,60.077168735194675,
T,left,Distractor,0,24,24,24,2136.565815213864,2138.5652592630067,left,1,4,1.2436848409706727,R31R02,2022-11-30_12h01.20.614,t1_Paradigm,2021.1.4,60.077168735194675,
F,left,Distractor,0,25,25,25,2140.065021869086,2142.064441858063,left,1,4,1.0916844123858027,R31R02,2022-11-30_12h01.20.614,t1_Paradigm,2021.1.4,60.077168735194675,
V,left,Distractor,0,26,26,26,2143.5645974472864,2145.5639705990616,left,1,4,1.0244432310864795,R31R02,2022-11-30_12h01.20.614,t1_Paradigm,2021.1.4,60.077168735194675,
L,right,Target,0,27,27,27,2147.064254830155,2149.063747320499,right,1,4,0.6555459385854192,R31R02,2022-11-30_12h01.20.614,t1_Paradigm,2021.1.4,60.077168735194675,
S,left,Pretarget,0,28,28,28,2150.5633142370207,2152.5628301459365,left,1,4,0.6214167154976167,R31R02,2022-11-30_12h01.20.614,t1_Paradigm,2021.1.4,60.077168735194675,
W,left,Distractor,0,29,29,29,2154.062733905157,2156.063690538431,left,1,4,1.107710104843136,R31R02,2022-11-30_12h01.20.614,t1_Paradigm,2021.1.4,60.077168735194675,
Q,left,Distractor,0,30,30,30,2157.57910285634,2159.5786566199677,left,1,4,1.0826509328035172,R31R02,2022-11-30_12h01.20.614,t1_Paradigm,2021.1.4,60.077168735194675,
L,right,Target,0,31,31,31,2161.078462213627,2163.078695437085,right,1,4,0.45234702370362356,R31R02,2022-11-30_12h01.20.614,t1_Paradigm,2021.1.4,60.077168735194675,
S,right,Target,0,32,32,32,2164.577689721016,2166.5787859034026,right,1,4,0.646102794125909,R31R02,2022-11-30_12h01.20.614,t1_Paradigm,2021.1.4,60.077168735194675,
Z,left,Pretarget,0,33,33,33,2168.076990050613,2170.0767016491154,left,1,4,0.7438753976894077,R31R02,2022-11-30_12h01.20.614,t1_Paradigm,2021.1.4,60.077168735194675,
F,left,Distractor,0,34,34,34,2171.576751052693,2173.576160775963,left,1,4,0.5589218082022853,R31R02,2022-11-30_12h01.20.614,t1_Paradigm,2021.1.4,60.077168735194675,
V,left,Distractor,0,35,35,35,2175.0758611463825,2177.0756064291345,left,1,4,0.647208279784536,R31R02,2022-11-30_12h01.20.614,t1_Paradigm,2021.1.4,60.077168735194675,
M,left,Distractor,0,36,36,36,2178.575643963035,2180.5752137667732,left,1,4,0.9552615150460042,R31R02,2022-11-30_12h01.20.614,t1_Paradigm,2021.1.4,60.077168735194675,
Z,right,Target,0,37,37,37,2182.0746295852878,2184.074369093607,None,0,4,,R31R02,2022-11-30_12h01.20.614,t1_Paradigm,2021.1.4,60.077168735194675,
H,left,Pretarget,0,38,38,38,2185.574215108383,2187.5737698344165,left,1,4,0.9977989735489246,R31R02,2022-11-30_12h01.20.614,t1_Paradigm,2021.1.4,60.077168735194675,
L,left,Distractor,0,39,39,39,2189.073974506464,2191.0738455438113,right,0,4,0.8117838483594824,R31R02,2022-11-30_12h01.20.614,t1_Paradigm,2021.1.4,60.077168735194675,
G,left,Distractor,0,40,40,40,2192.5730749760405,2194.57258799774,left,1,4,1.055209480895428,R31R02,2022-11-30_12h01.20.614,t1_Paradigm,2021.1.4,60.077168735194675,
K,left,Distractor,0,41,41,41,2196.072452298249,2198.0718870441196,left,1,4,0.5441985742363613,R31R02,2022-11-30_12h01.20.614,t1_Paradigm,2021.1.4,60.077168735194675,
H,right,Target,0,42,42,42,2199.571927786048,2201.571559504693,right,1,4,0.44043434102786705,R31R02,2022-11-30_12h01.20.614,t1_Paradigm,2021.1.4,60.077168735194675,
B,left,Distractor,0,43,43,43,2203.071260195895,2205.0708412277454,left,1,4,1.017822507652454,R31R02,2022-11-30_12h01.20.614,t1_Paradigm,2021.1.4,60.077168735194675,
Z,left,Distractor,0,44,44,44,2206.570688846521,2208.5709339396853,left,1,4,0.8239727420441341,R31R02,2022-11-30_12h01.20.614,t1_Paradigm,2021.1.4,60.077168735194675,
T,left,Pretarget,0,45,45,45,2210.069928544428,2212.070140274125,left,1,4,0.7695816285267938,R31R02,2022-11-30_12h01.20.614,t1_Paradigm,2021.1.4,60.077168735194675,
H,right,Target,0,46,46,46,2213.569643030147,2215.5692182875355,left,0,4,1.0743492038745899,R31R02,2022-11-30_12h01.20.614,t1_Paradigm,2021.1.4,60.077168735194675,
F,left,Distractor,0,47,47,47,2217.068995329755,2219.069472683972,left,1,4,1.1455468432686757,R31R02,2022-11-30_12h01.20.614,t1_Paradigm,2021.1.4,60.077168735194675,
R,left,Distractor,0,48,48,48,2220.56840409062,2222.5678571222234,None,0,4,,R31R02,2022-11-30_12h01.20.614,t1_Paradigm,2021.1.4,60.077168735194675,
T,right,Target,0,49,49,49,2224.0682170627115,2226.0673816928174,right,1,4,0.7926383509184234,R31R02,2022-11-30_12h01.20.614,t1_Paradigm,2021.1.4,60.077168735194675,
H,right,Target,0,50,50,50,2227.5671003489697,2229.567646675743,left,0,4,1.1082718301331624,R31R02,2022-11-30_12h01.20.614,t1_Paradigm,2021.1.4,60.077168735194675,
Y,left,Pretarget,0,51,51,51,2231.066998012946,2233.0664074154047,left,1,4,0.5530508003721479,R31R02,2022-11-30_12h01.20.614,t1_Paradigm,2021.1.4,60.077168735194675,
H,left,Distractor,0,52,52,52,2234.56584665252,2236.566680739197,left,1,4,0.9176204661780503,R31R02,2022-11-30_12h01.20.614,t1_Paradigm,2021.1.4,60.077168735194675,
S,left,Distractor,0,53,53,53,2238.0655896896496,2240.065837349248,left,1,4,1.1526243895932566,R31R02,2022-11-30_12h01.20.614,t1_Paradigm,2021.1.4,60.077168735194675,
Q,left,Distractor,0,54,54,54,2241.5650789719657,2243.5665136010502,left,1,4,0.8645462472341023,R31R02,2022-11-30_12h01.20.614,t1_Paradigm,2021.1.4,60.077168735194675,
Y,right,Target,0,55,55,55,2245.0646766855207,2247.080268011283,right,1,4,1.0079158034350257,R31R02,2022-11-30_12h01.20.614,t1_Paradigm,2021.1.4,60.077168735194675,
R,left,Distractor,0,56,56,56,2248.5803084323998,2250.580186527426,left,1,4,1.2302682358422317,R31R02,2022-11-30_12h01.20.614,t1_Paradigm,2021.1.4,60.077168735194675,
H,left,Pretarget,0,57,57,57,2252.062879549543,2254.0647302595607,right,0,4,1.076186119375052,R31R02,2022-11-30_12h01.20.614,t1_Paradigm,2021.1.4,60.077168735194675,
J,left,Distractor,0,58,58,58,2255.579291488277,2257.5788529511483,left,1,4,0.6074512171617243,R31R02,2022-11-30_12h01.20.614,t1_Paradigm,2021.1.4,60.077168735194675,
V,left,Distractor,0,59,59,59,2259.07861780285,2261.0789649112558,left,1,4,0.5892809595097788,R31R02,2022-11-30_12h01.20.614,t1_Paradigm,2021.1.4,60.077168735194675,
Y,left,Lure,0,60,60,60,2262.5780920074612,2264.577750352706,right,0,4,0.780306700093206,R31R02,2022-11-30_12h01.20.614,t1_Paradigm,2021.1.4,60.077168735194675,
H,right,Target,0,61,61,61,2266.0776114451874,2268.079052490357,right,1,4,1.1845981402439065,R31R02,2022-11-30_12h01.20.614,t1_Paradigm,2021.1.4,60.077168735194675,
L,left,Distractor,0,62,62,62,2269.576863975206,2271.576449819084,left,1,4,1.160899171110941,R31R02,2022-11-30_12h01.20.614,t1_Paradigm,2021.1.4,60.077168735194675,
P,left,Distractor,0,63,63,63,2273.076674060081,2275.076200555486,left,1,4,0.5962773427891079,R31R02,2022-11-30_12h01.20.614,t1_Paradigm,2021.1.4,60.077168735194675,
