Letter,CorrAnswer,Stimulus,finaln_nback_run.thisRepN,finaln_nback_run.thisTrialN,finaln_nback_run.thisN,finaln_nback_run.thisIndex,finaln_fixcross.started,finaln_nback_trial.started,finaln_trial_resp.keys,finaln_trial_resp.corr,finaln_level,finaln_money,finaln_trial_resp.rt,Participant,date,expName,psychopyVersion,frameRate,
T,left,Distractor,0,0,0,0,3278.9502467931015,3280.9550386149494,None,0,0,3.0,,S06I10,2022-12-01_09h11.58.489,t1_Paradigm,2021.1.4,60.34030131591606,
F,left,Distractor,0,1,1,1,3282.4531154060096,3284.4555640888866,left,1,0,3.0,0.6163655296841171,S06I10,2022-12-01_09h11.58.489,t1_Paradigm,2021.1.4,60.34030131591606,
G,left,Distractor,0,2,2,2,3285.9531574310968,3287.953950133233,left,1,0,3.0,0.81407942934311,S06I10,2022-12-01_09h11.58.489,t1_Paradigm,2021.1.4,60.34030131591606,
V,left,Distractor,0,3,3,3,3289.453318794578,3291.4552108857024,left,1,0,3.0,0.4327505641267635,S06I10,2022-12-01_09h11.58.489,t1_Paradigm,2021.1.4,60.34030131591606,
H,left,Distractor,0,4,4,4,3292.9531099523592,3294.954290825117,left,1,0,3.0,0.5176216626132373,S06I10,2022-12-01_09h11.58.489,t1_Paradigm,2021.1.4,60.34030131591606,
C,left,Pretarget,0,5,5,5,3296.4532286491594,3298.454923767771,left,1,0,3.0,0.48909529301454313,S06I10,2022-12-01_09h11.58.489,t1_Paradigm,2021.1.4,60.34030131591606,
C,right,Target,0,6,6,6,3299.9533290602267,3301.9532796567073,right,1,0,3.0,0.6705198214040138,S06I10,2022-12-01_09h11.58.489,t1_Paradigm,2021.1.4,60.34030131591606,
C,right,Target,0,7,7,7,3303.453199456155,3305.453306283278,right,1,0,3.0,0.5147816010867245,S06I10,2022-12-01_09h11.58.489,t1_Paradigm,2021.1.4,60.34030131591606,
W,left,Distractor,0,8,8,8,3306.9532681078417,3308.955131326773,left,1,0,3.0,0.4209209844993893,S06I10,2022-12-01_09h11.58.489,t1_Paradigm,2021.1.4,60.34030131591606,
R,left,Pretarget,0,9,9,9,3310.4522466737544,3312.454452188598,left,1,0,3.0,0.6655220445536543,S06I10,2022-12-01_09h11.58.489,t1_Paradigm,2021.1.4,60.34030131591606,
R,right,Target,0,10,10,10,3313.9532645790023,3315.953222553915,left,0,0,3.0,0.7987624094239436,S06I10,2022-12-01_09h11.58.489,t1_Paradigm,2021.1.4,60.34030131591606,
Z,left,Distractor,0,11,11,11,3317.4531417117687,3319.454748930584,left,1,0,3.0,0.7212386427854653,S06I10,2022-12-01_09h11.58.489,t1_Paradigm,2021.1.4,60.34030131591606,
R,left,Lure,0,12,12,12,3320.9532058722107,3322.9550739031693,left,1,0,3.0,0.48518407306983136,S06I10,2022-12-01_09h11.58.489,t1_Paradigm,2021.1.4,60.34030131591606,
H,left,Pretarget,0,13,13,13,3324.453273561463,3326.4551217027183,left,1,0,3.0,0.48895253604860045,S06I10,2022-12-01_09h11.58.489,t1_Paradigm,2021.1.4,60.34030131591606,
H,right,Target,0,14,14,14,3327.953261691786,3329.9533649900695,right,1,0,3.0,0.4467859794094693,S06I10,2022-12-01_09h11.58.489,t1_Paradigm,2021.1.4,60.34030131591606,
K,left,Distractor,0,15,15,15,3331.453073701734,3333.4546084192407,left,1,0,3.0,0.4493241660820786,S06I10,2022-12-01_09h11.58.489,t1_Paradigm,2021.1.4,60.34030131591606,
J,left,Distractor,0,16,16,16,3334.9532254411315,3336.955219226569,left,1,0,3.0,0.5167153965157922,S06I10,2022-12-01_09h11.58.489,t1_Paradigm,2021.1.4,60.34030131591606,
H,left,Lure,0,17,17,17,3338.4533354762825,3340.454771065939,left,1,0,3.0,0.8573107283154968,S06I10,2022-12-01_09h11.58.489,t1_Paradigm,2021.1.4,60.34030131591606,
S,left,Distractor,0,18,18,18,3341.9531920777226,3343.954529181123,left,1,0,3.0,0.4615371042746119,S06I10,2022-12-01_09h11.58.489,t1_Paradigm,2021.1.4,60.34030131591606,
T,left,Pretarget,0,19,19,19,3345.452306663763,3347.455550615181,left,1,0,3.0,0.5125241163186729,S06I10,2022-12-01_09h11.58.489,t1_Paradigm,2021.1.4,60.34030131591606,
T,right,Target,0,20,20,20,3348.9531879072892,3350.953354082798,right,1,0,3.0,0.6948863494035322,S06I10,2022-12-01_09h11.58.489,t1_Paradigm,2021.1.4,60.34030131591606,
X,left,Pretarget,0,21,21,21,3352.4532318571873,3354.455162123777,left,1,0,3.0,0.5368001781171188,S06I10,2022-12-01_09h11.58.489,t1_Paradigm,2021.1.4,60.34030131591606,
X,right,Target,0,22,22,22,3355.9532520677312,3357.953291847196,right,1,0,3.0,0.6546635330596473,S06I10,2022-12-01_09h11.58.489,t1_Paradigm,2021.1.4,60.34030131591606,
W,left,Distractor,0,23,23,23,3359.4532260827546,3361.4551730310486,left,1,0,3.0,0.46484970740857534,S06I10,2022-12-01_09h11.58.489,t1_Paradigm,2021.1.4,60.34030131591606,
K,left,Distractor,0,24,24,24,3362.953198814561,3364.9538208499434,left,1,0,3.0,0.550168324902188,S06I10,2022-12-01_09h11.58.489,t1_Paradigm,2021.1.4,60.34030131591606,
F,left,Pretarget,0,25,25,25,3366.453177962423,3368.455226925813,left,1,0,3.0,0.4728800270531792,S06I10,2022-12-01_09h11.58.489,t1_Paradigm,2021.1.4,60.34030131591606,
F,right,Target,0,26,26,26,3369.953234423592,3371.9533486291766,right,1,0,3.0,0.5907135474262759,S06I10,2022-12-01_09h11.58.489,t1_Paradigm,2021.1.4,60.34030131591606,
Z,left,Distractor,0,27,27,27,3373.453367877286,3375.454866023385,left,1,0,3.0,0.40112460404634476,S06I10,2022-12-01_09h11.58.489,t1_Paradigm,2021.1.4,60.34030131591606,
F,left,Lure,0,28,28,28,3376.9530669648666,3378.9547431561514,left,1,0,3.0,0.4854018977493979,S06I10,2022-12-01_09h11.58.489,t1_Paradigm,2021.1.4,60.34030131591606,
P,left,Distractor,0,29,29,29,3380.453126954875,3382.4543703840463,left,1,0,3.0,0.5536175896995701,S06I10,2022-12-01_09h11.58.489,t1_Paradigm,2021.1.4,60.34030131591606,
F,left,Lure,0,30,30,30,3383.9532103634265,3385.9551165698795,left,1,0,3.0,0.7651699320995249,S06I10,2022-12-01_09h11.58.489,t1_Paradigm,2021.1.4,60.34030131591606,
R,left,Distractor,0,31,31,31,3387.453195606533,3389.454968359263,left,1,0,3.0,0.497173732961528,S06I10,2022-12-01_09h11.58.489,t1_Paradigm,2021.1.4,60.34030131591606,
V,left,Distractor,0,32,32,32,3390.9531455613906,3392.9553655123455,left,1,0,3.0,0.6607821926590987,S06I10,2022-12-01_09h11.58.489,t1_Paradigm,2021.1.4,60.34030131591606,
M,left,Pretarget,0,33,33,33,3394.4533550452034,3396.454923767771,left,1,0,3.0,0.7132234008458909,S06I10,2022-12-01_09h11.58.489,t1_Paradigm,2021.1.4,60.34030131591606,
M,right,Target,0,34,34,34,3397.953261691786,3399.953427546512,left,0,0,3.0,0.8466989136941265,S06I10,2022-12-01_09h11.58.489,t1_Paradigm,2021.1.4,60.34030131591606,
M,right,Target,0,35,35,35,3401.4531676967454,3403.453361461259,right,1,0,3.0,0.6907380566990469,S06I10,2022-12-01_09h11.58.489,t1_Paradigm,2021.1.4,60.34030131591606,
D,left,Distractor,0,36,36,36,3404.953291205573,3406.954642745084,left,1,0,3.0,0.46942242138902657,S06I10,2022-12-01_09h11.58.489,t1_Paradigm,2021.1.4,60.34030131591606,
M,left,Lure,0,37,37,37,3408.4532065138046,3410.4551258731226,left,1,0,3.0,0.6168701514834538,S06I10,2022-12-01_09h11.58.489,t1_Paradigm,2021.1.4,60.34030131591606,
F,left,Distractor,0,38,38,38,3411.9534089399676,3413.954897461983,left,1,0,3.0,0.41325188806513324,S06I10,2022-12-01_09h11.58.489,t1_Paradigm,2021.1.4,60.34030131591606,
T,left,Pretarget,0,39,39,39,3415.453311416117,3417.4548089205928,left,1,0,3.0,0.48161033703945577,S06I10,2022-12-01_09h11.58.489,t1_Paradigm,2021.1.4,60.34030131591606,
T,right,Target,0,40,40,40,3418.9532273659424,3420.9534272257006,right,1,0,3.0,0.550567402766319,S06I10,2022-12-01_09h11.58.489,t1_Paradigm,2021.1.4,60.34030131591606,
Z,left,Distractor,0,41,41,41,3422.453274203057,3424.455184259132,left,1,0,3.0,0.5049047442153096,S06I10,2022-12-01_09h11.58.489,t1_Paradigm,2021.1.4,60.34030131591606,
S,left,Distractor,0,42,42,42,3425.953272919869,3427.9551861839427,left,1,0,3.0,0.4289923668256961,S06I10,2022-12-01_09h11.58.489,t1_Paradigm,2021.1.4,60.34030131591606,
D,left,Distractor,0,43,43,43,3429.453240198054,3431.4542321183253,left,1,0,3.0,0.4177691032818984,S06I10,2022-12-01_09h11.58.489,t1_Paradigm,2021.1.4,60.34030131591606,
Y,left,Pretarget,0,44,44,44,3432.9532902431674,3434.955361341912,left,1,0,3.0,0.3887336206389591,S06I10,2022-12-01_09h11.58.489,t1_Paradigm,2021.1.4,60.34030131591606,
Y,right,Target,0,45,45,45,3436.453399957507,3438.453330022632,right,1,0,3.0,0.7467876475711819,S06I10,2022-12-01_09h11.58.489,t1_Paradigm,2021.1.4,60.34030131591606,
Z,left,Pretarget,0,46,46,46,3439.953259125381,3441.954869231413,left,1,0,3.0,0.41328236428671516,S06I10,2022-12-01_09h11.58.489,t1_Paradigm,2021.1.4,60.34030131591606,
Z,right,Target,0,47,47,47,3443.4532154962653,3445.453452248272,left,0,0,3.0,0.4185608430125285,S06I10,2022-12-01_09h11.58.489,t1_Paradigm,2021.1.4,60.34030131591606,
H,left,Pretarget,0,48,48,48,3446.953337080282,3448.955218584946,left,1,0,3.0,0.7565721134305932,S06I10,2022-12-01_09h11.58.489,t1_Paradigm,2021.1.4,60.34030131591606,
H,right,Target,0,49,49,49,3450.4533412507153,3452.453323285794,right,1,0,3.0,0.6666897644172423,S06I10,2022-12-01_09h11.58.489,t1_Paradigm,2021.1.4,60.34030131591606,
Z,left,Lure,0,50,50,50,3453.9532228747266,3455.9548009005375,left,1,0,3.0,0.7490621348842978,S06I10,2022-12-01_09h11.58.489,t1_Paradigm,2021.1.4,60.34030131591606,
R,left,Distractor,0,51,51,51,3457.453164809529,3459.455270234117,left,1,0,3.0,0.5289171066542622,S06I10,2022-12-01_09h11.58.489,t1_Paradigm,2021.1.4,60.34030131591606,
H,left,Lure,0,52,52,52,3460.9533165489556,3462.955194845592,left,1,0,3.0,0.5328235145425424,S06I10,2022-12-01_09h11.58.489,t1_Paradigm,2021.1.4,60.34030131591606,
L,left,Distractor,0,53,53,53,3464.4533123785222,3466.4553177128255,left,1,0,3.0,0.47284794683218934,S06I10,2022-12-01_09h11.58.489,t1_Paradigm,2021.1.4,60.34030131591606,
N,left,Pretarget,0,54,54,54,3467.9533165489556,3469.9551528205047,left,1,0,3.0,0.4450055274355691,S06I10,2022-12-01_09h11.58.489,t1_Paradigm,2021.1.4,60.34030131591606,
N,right,Target,0,55,55,55,3471.453264899814,3473.4534310753224,right,1,0,3.0,0.7385847363620996,S06I10,2022-12-01_09h11.58.489,t1_Paradigm,2021.1.4,60.34030131591606,
W,left,Distractor,0,56,56,56,3474.953240198054,3476.9550726199814,left,1,0,3.0,0.5651353496359661,S06I10,2022-12-01_09h11.58.489,t1_Paradigm,2021.1.4,60.34030131591606,
R,left,Pretarget,0,57,57,57,3478.4533431755262,3480.455301672715,left,1,0,3.0,0.5847299455199391,S06I10,2022-12-01_09h11.58.489,t1_Paradigm,2021.1.4,60.34030131591606,
R,right,Target,0,58,58,58,3481.953234423592,3483.9532286491594,right,1,0,3.0,0.6867569019086659,S06I10,2022-12-01_09h11.58.489,t1_Paradigm,2021.1.4,60.34030131591606,
Q,left,Distractor,0,59,59,59,3485.4532751654624,3487.4554508457077,left,1,0,3.0,0.528757347172359,S06I10,2022-12-01_09h11.58.489,t1_Paradigm,2021.1.4,60.34030131591606,
R,left,Lure,0,60,60,60,3488.953323285794,3490.9551002089574,left,1,0,3.0,0.5008995292591862,S06I10,2022-12-01_09h11.58.489,t1_Paradigm,2021.1.4,60.34030131591606,
Z,left,Distractor,0,61,61,61,3492.453280619113,3494.4553241288813,left,1,0,3.0,0.5367129199148621,S06I10,2022-12-01_09h11.58.489,t1_Paradigm,2021.1.4,60.34030131591606,
K,left,Pretarget,0,62,62,62,3495.953335797094,3497.954800579755,left,1,0,3.0,0.42938021663576365,S06I10,2022-12-01_09h11.58.489,t1_Paradigm,2021.1.4,60.34030131591606,
K,right,Target,0,63,63,63,3499.4533040376846,3501.453337721905,left,0,0,3.0,0.5308428819989786,S06I10,2022-12-01_09h11.58.489,t1_Paradigm,2021.1.4,60.34030131591606,
