Letter,CorrAnswer,Stimulus,nback_run.thisRepN,nback_run.thisTrialN,nback_run.thisN,nback_run.thisIndex,fixcross.started,nback_trial.started,trial_resp.keys,trial_resp.corr,currentlevel,trial_resp.rt,Participant,date,expName,psychopyVersion,frameRate,
H,left,Distractor,0,0,0,0,585.2855713454192,587.2400408573449,None,0,1,,S06I10,2022-12-01_09h11.58.489,t1_Paradigm,2021.1.4,60.34030131591606,
Q,left,Pretarget,0,1,1,1,588.7401505716844,590.7390710724285,left,1,1,0.4117919174314011,S06I10,2022-12-01_09h11.58.489,t1_Paradigm,2021.1.4,60.34030131591606,
Q,right,Target,0,2,2,2,592.2357507700799,594.2358239129535,right,1,1,0.6429250612563919,S06I10,2022-12-01_09h11.58.489,t1_Paradigm,2021.1.4,60.34030131591606,
T,left,Distractor,0,3,3,3,595.7356596622558,597.7375761343574,left,1,1,0.48511285497806966,S06I10,2022-12-01_09h11.58.489,t1_Paradigm,2021.1.4,60.34030131591606,
Q,left,Lure,0,4,4,4,599.2357424292131,601.2378186607966,left,1,1,0.5049130850820802,S06I10,2022-12-01_09h11.58.489,t1_Paradigm,2021.1.4,60.34030131591606,
L,left,Distractor,0,5,5,5,602.7356946296932,604.737636124366,left,1,1,0.5411630874732509,S06I10,2022-12-01_09h11.58.489,t1_Paradigm,2021.1.4,60.34030131591606,
V,left,Pretarget,0,6,6,6,606.2357401835907,608.2375716431416,left,1,1,0.7051818531181198,S06I10,2022-12-01_09h11.58.489,t1_Paradigm,2021.1.4,60.34030131591606,
V,right,Target,0,7,7,7,609.7355720832711,611.7357029705599,right,1,1,0.43894397059921175,S06I10,2022-12-01_09h11.58.489,t1_Paradigm,2021.1.4,60.34030131591606,
K,left,Distractor,0,8,8,8,613.23548161707,615.2386123253382,left,1,1,0.5842391182377469,S06I10,2022-12-01_09h11.58.489,t1_Paradigm,2021.1.4,60.34030131591606,
G,left,Pretarget,0,9,9,9,616.7357084241812,618.738040976692,left,1,1,0.4608605325629469,S06I10,2022-12-01_09h11.58.489,t1_Paradigm,2021.1.4,60.34030131591606,
G,right,Target,0,10,10,10,620.2357151610486,622.2357530157024,right,1,1,0.49908314741333015,S06I10,2022-12-01_09h11.58.489,t1_Paradigm,2021.1.4,60.34030131591606,
G,right,Target,0,11,11,11,623.7358287250099,625.7357100282097,right,1,1,0.4229574366181623,S06I10,2022-12-01_09h11.58.489,t1_Paradigm,2021.1.4,60.34030131591606,
P,left,Pretarget,0,12,12,12,627.2357039329654,629.2381141195947,left,1,1,0.4726605983742047,S06I10,2022-12-01_09h11.58.489,t1_Paradigm,2021.1.4,60.34030131591606,
P,right,Target,0,13,13,13,630.735684043233,632.7357328051585,right,1,1,0.6389397360326257,S06I10,2022-12-01_09h11.58.489,t1_Paradigm,2021.1.4,60.34030131591606,
G,left,Lure,0,14,14,14,634.2356850056385,636.2375658686797,left,1,1,0.7371533171390183,S06I10,2022-12-01_09h11.58.489,t1_Paradigm,2021.1.4,60.34030131591606,
Y,left,Distractor,0,15,15,15,637.7357052161824,639.7380826809676,left,1,1,0.6607834758469835,S06I10,2022-12-01_09h11.58.489,t1_Paradigm,2021.1.4,60.34030131591606,
B,left,Distractor,0,16,16,16,641.2357507700799,643.2375931368733,left,1,1,0.4891841551871039,S06I10,2022-12-01_09h11.58.489,t1_Paradigm,2021.1.4,60.34030131591606,
T,left,Pretarget,0,17,17,17,644.7355964642484,646.737726590567,left,1,1,0.4291203668981325,S06I10,2022-12-01_09h11.58.489,t1_Paradigm,2021.1.4,60.34030131591606,
T,right,Target,0,18,18,18,648.2357328051585,650.2357616773515,left,0,1,0.4508919262443669,S06I10,2022-12-01_09h11.58.489,t1_Paradigm,2021.1.4,60.34030131591606,
S,left,Distractor,0,19,19,19,651.7356631910952,653.7372537282063,left,1,1,0.43745384458452463,S06I10,2022-12-01_09h11.58.489,t1_Paradigm,2021.1.4,60.34030131591606,
T,left,Lure,0,20,20,20,655.2356866096379,657.2379572473292,left,1,1,0.40855117404134944,S06I10,2022-12-01_09h11.58.489,t1_Paradigm,2021.1.4,60.34030131591606,
J,left,Distractor,0,21,21,21,658.752345224173,660.7381131571892,left,1,1,0.42872898824862204,S06I10,2022-12-01_09h11.58.489,t1_Paradigm,2021.1.4,60.34030131591606,
P,left,Distractor,0,22,22,22,662.235747562052,664.2379453776521,left,1,1,0.4167281002737582,S06I10,2022-12-01_09h11.58.489,t1_Paradigm,2021.1.4,60.34030131591606,
F,left,Distractor,0,23,23,23,665.7357061785879,667.7376948311576,left,1,1,0.5170025144470856,S06I10,2022-12-01_09h11.58.489,t1_Paradigm,2021.1.4,60.34030131591606,
L,left,Distractor,0,24,24,24,669.2357562237012,671.2377131168905,left,1,1,0.5052095062565058,S06I10,2022-12-01_09h11.58.489,t1_Paradigm,2021.1.4,60.34030131591606,
W,left,Pretarget,0,25,25,25,672.7357950407604,674.7380275029864,left,1,1,0.4771543950191699,S06I10,2022-12-01_09h11.58.489,t1_Paradigm,2021.1.4,60.34030131591606,
W,right,Target,0,26,26,26,676.235839953064,678.23576135654,right,1,1,0.6590241968224291,S06I10,2022-12-01_09h11.58.489,t1_Paradigm,2021.1.4,60.34030131591606,
V,left,Distractor,0,27,27,27,679.7357780382736,681.7378253976349,left,1,1,0.5971562171762343,S06I10,2022-12-01_09h11.58.489,t1_Paradigm,2021.1.4,60.34030131591606,
W,left,Lure,0,28,28,28,683.2357055369648,685.237695793563,left,1,1,0.47313763119746,S06I10,2022-12-01_09h11.58.489,t1_Paradigm,2021.1.4,60.34030131591606,
R,left,Pretarget,0,29,29,29,686.7356330356852,688.7387663103873,left,1,1,0.6359966970048845,S06I10,2022-12-01_09h11.58.489,t1_Paradigm,2021.1.4,60.34030131591606,
R,right,Target,0,30,30,30,690.235794078355,692.2358373866591,left,0,1,0.802862581826048,S06I10,2022-12-01_09h11.58.489,t1_Paradigm,2021.1.4,60.34030131591606,
G,left,Distractor,0,31,31,31,693.735730559536,695.7373621593288,left,1,1,0.5332851488492452,S06I10,2022-12-01_09h11.58.489,t1_Paradigm,2021.1.4,60.34030131591606,
R,left,Lure,0,32,32,32,697.2357584693236,699.2376839238859,left,1,1,0.9210521925706416,S06I10,2022-12-01_09h11.58.489,t1_Paradigm,2021.1.4,60.34030131591606,
S,left,Distractor,0,33,33,33,700.7357347299694,702.7382376284222,left,1,1,0.5085509815544356,S06I10,2022-12-01_09h11.58.489,t1_Paradigm,2021.1.4,60.34030131591606,
R,left,Lure,0,34,34,34,704.2356821184221,706.2379203550809,left,1,1,0.7527606629882939,S06I10,2022-12-01_09h11.58.489,t1_Paradigm,2021.1.4,60.34030131591606,
P,left,Pretarget,0,35,35,35,707.735715481831,709.7375414877315,left,1,1,0.6293021975725424,S06I10,2022-12-01_09h11.58.489,t1_Paradigm,2021.1.4,60.34030131591606,
P,right,Target,0,36,36,36,711.2358277626045,713.2356962337217,right,1,1,0.7151969757396728,S06I10,2022-12-01_09h11.58.489,t1_Paradigm,2021.1.4,60.34030131591606,
Y,left,Pretarget,0,37,37,37,714.7357340883755,716.7379039941588,left,1,1,0.44497473040246405,S06I10,2022-12-01_09h11.58.489,t1_Paradigm,2021.1.4,60.34030131591606,
Y,right,Target,0,38,38,38,718.2357430708362,720.2357825294894,right,1,1,0.8831458886270411,S06I10,2022-12-01_09h11.58.489,t1_Paradigm,2021.1.4,60.34030131591606,
J,left,Distractor,0,39,39,39,721.7357231811038,723.7379540393013,left,1,1,0.7248014715733007,S06I10,2022-12-01_09h11.58.489,t1_Paradigm,2021.1.4,60.34030131591606,
Y,left,Lure,0,40,40,40,725.2357081033988,727.2373948811437,left,1,1,0.7294393084011972,S06I10,2022-12-01_09h11.58.489,t1_Paradigm,2021.1.4,60.34030131591606,
T,left,Distractor,0,41,41,41,728.7358213465486,730.7378340592841,left,1,1,0.6369141911854967,S06I10,2022-12-01_09h11.58.489,t1_Paradigm,2021.1.4,60.34030131591606,
V,left,Distractor,0,42,42,42,732.2357668101904,734.2379248462967,left,1,1,0.4810348179307766,S06I10,2022-12-01_09h11.58.489,t1_Paradigm,2021.1.4,60.34030131591606,
N,left,Pretarget,0,43,43,43,735.7357385795913,737.7374583999626,left,1,1,0.5172386248304974,S06I10,2022-12-01_09h11.58.489,t1_Paradigm,2021.1.4,60.34030131591606,
N,right,Target,0,44,44,44,739.2357918327616,741.2357045745593,right,1,1,0.5390897431352641,S06I10,2022-12-01_09h11.58.489,t1_Paradigm,2021.1.4,60.34030131591606,
N,right,Target,0,45,45,45,742.7357270307257,744.7357972863829,right,1,1,0.5909865500580054,S06I10,2022-12-01_09h11.58.489,t1_Paradigm,2021.1.4,60.34030131591606,
X,left,Distractor,0,46,46,46,746.2354716722039,748.2384564154781,left,1,1,0.5605786757660098,S06I10,2022-12-01_09h11.58.489,t1_Paradigm,2021.1.4,60.34030131591606,
Z,left,Distractor,0,47,47,47,749.7357661685674,751.7376775078592,left,1,1,0.6451786964316852,S06I10,2022-12-01_09h11.58.489,t1_Paradigm,2021.1.4,60.34030131591606,
H,left,Pretarget,0,48,48,48,753.2357517324854,755.2372655978834,left,1,1,0.7296510378073435,S06I10,2022-12-01_09h11.58.489,t1_Paradigm,2021.1.4,60.34030131591606,
H,right,Target,0,49,49,49,756.7357899079507,758.7357109906152,right,1,1,0.8633835132059176,S06I10,2022-12-01_09h11.58.489,t1_Paradigm,2021.1.4,60.34030131591606,
K,left,Distractor,0,50,50,50,760.2357212562638,762.2368046051706,left,1,1,0.4981085504696239,S06I10,2022-12-01_09h11.58.489,t1_Paradigm,2021.1.4,60.34030131591606,
V,left,Pretarget,0,51,51,51,763.7357122738031,765.7378250768525,left,1,1,0.4209883529692888,S06I10,2022-12-01_09h11.58.489,t1_Paradigm,2021.1.4,60.34030131591606,
V,right,Target,0,52,52,52,767.235811722494,769.2357190106704,right,1,1,0.5709893474413548,S06I10,2022-12-01_09h11.58.489,t1_Paradigm,2021.1.4,60.34030131591606,
R,left,Distractor,0,53,53,53,770.7358130056818,772.7378796132107,left,1,1,0.5730524261307437,S06I10,2022-12-01_09h11.58.489,t1_Paradigm,2021.1.4,60.34030131591606,
V,left,Lure,0,54,54,54,774.235701045749,776.2380233325821,left,1,1,0.5926983503741212,S06I10,2022-12-01_09h11.58.489,t1_Paradigm,2021.1.4,60.34030131591606,
Y,left,Distractor,0,55,55,55,777.7358810157457,779.7375822296017,left,1,1,0.5331071036343928,S06I10,2022-12-01_09h11.58.489,t1_Paradigm,2021.1.4,60.34030131591606,
Q,left,Distractor,0,56,56,56,781.2358521435526,783.2378468913957,left,1,1,0.6008852214727085,S06I10,2022-12-01_09h11.58.489,t1_Paradigm,2021.1.4,60.34030131591606,
Z,left,Pretarget,0,57,57,57,784.7357494868629,786.7369518533524,left,1,1,0.5258752605877817,S06I10,2022-12-01_09h11.58.489,t1_Paradigm,2021.1.4,60.34030131591606,
Z,right,Target,0,58,58,58,788.2357741886226,790.2356006346527,left,0,1,0.4671867511351593,S06I10,2022-12-01_09h11.58.489,t1_Paradigm,2021.1.4,60.34030131591606,
B,left,Distractor,0,59,59,59,791.7355573263776,793.7377028512128,left,1,1,0.5972293600789271,S06I10,2022-12-01_09h11.58.489,t1_Paradigm,2021.1.4,60.34030131591606,
S,left,Pretarget,0,60,60,60,795.2357132362085,797.2371026303736,left,1,1,0.6336590116843581,S06I10,2022-12-01_09h11.58.489,t1_Paradigm,2021.1.4,60.34030131591606,
S,right,Target,0,61,61,61,798.7357421084307,800.7358184593322,left,0,1,0.7991162542020902,S06I10,2022-12-01_09h11.58.489,t1_Paradigm,2021.1.4,60.34030131591606,
T,left,Distractor,0,62,62,62,802.2357581485121,804.2368844849116,left,1,1,0.5460726437158883,S06I10,2022-12-01_09h11.58.489,t1_Paradigm,2021.1.4,60.34030131591606,
D,left,Distractor,0,63,63,63,805.7357664893789,807.7383980294981,left,1,1,0.5643336650391575,S06I10,2022-12-01_09h11.58.489,t1_Paradigm,2021.1.4,60.34030131591606,
R,left,Distractor,0,0,0,0,829.0992189750541,831.1043296742428,None,0,1,,S06I10,2022-12-01_09h11.58.489,t1_Paradigm,2021.1.4,60.34030131591606,
V,left,Distractor,0,1,1,1,832.6039514485165,834.6055981259851,left,1,1,0.577396087377565,S06I10,2022-12-01_09h11.58.489,t1_Paradigm,2021.1.4,60.34030131591606,
N,left,Pretarget,0,2,2,2,836.1024096733308,838.1037525511638,left,1,1,0.6952045851503499,S06I10,2022-12-01_09h11.58.489,t1_Paradigm,2021.1.4,60.34030131591606,
N,right,Target,0,3,3,3,839.6024879490433,841.6030252926867,left,0,1,0.5557833250786643,S06I10,2022-12-01_09h11.58.489,t1_Paradigm,2021.1.4,60.34030131591606,
S,left,Distractor,0,4,4,4,843.1025694328127,845.1033188266447,left,1,1,0.5752887379785534,S06I10,2022-12-01_09h11.58.489,t1_Paradigm,2021.1.4,60.34030131591606,
N,left,Lure,0,5,5,5,846.6034898142098,848.6031478391087,left,1,1,0.9158442903426476,S06I10,2022-12-01_09h11.58.489,t1_Paradigm,2021.1.4,60.34030131591606,
Z,left,Distractor,0,6,6,6,850.1026015130337,852.104570917465,left,1,1,0.6623230054392479,S06I10,2022-12-01_09h11.58.489,t1_Paradigm,2021.1.4,60.34030131591606,
L,left,Pretarget,0,7,7,7,853.6033913279243,855.6044801304524,left,1,1,0.6343330170202535,S06I10,2022-12-01_09h11.58.489,t1_Paradigm,2021.1.4,60.34030131591606,
L,right,Target,0,8,8,8,857.1024302046571,859.1024414327403,right,1,1,0.6562842255807482,S06I10,2022-12-01_09h11.58.489,t1_Paradigm,2021.1.4,60.34030131591606,
H,left,Distractor,0,9,9,9,860.6031677288411,862.6059782765515,left,1,1,0.513116958696628,S06I10,2022-12-01_09h11.58.489,t1_Paradigm,2021.1.4,60.34030131591606,
L,left,Lure,0,10,10,10,864.1025174628594,866.1045041906182,right,0,1,0.710775359562831,S06I10,2022-12-01_09h11.58.489,t1_Paradigm,2021.1.4,60.34030131591606,
X,left,Pretarget,0,11,11,11,867.6029110871023,869.60534052187,left,1,1,0.6014787054737099,S06I10,2022-12-01_09h11.58.489,t1_Paradigm,2021.1.4,60.34030131591606,
X,right,Target,0,12,12,12,871.1024792873941,873.1025607711344,right,1,1,0.6882374038686976,S06I10,2022-12-01_09h11.58.489,t1_Paradigm,2021.1.4,60.34030131591606,
X,right,Target,0,13,13,13,874.6041407217854,876.6025027059659,right,1,1,0.7243523485667538,S06I10,2022-12-01_09h11.58.489,t1_Paradigm,2021.1.4,60.34030131591606,
R,left,Distractor,0,14,14,14,878.1024170517921,880.1041185864306,left,1,1,0.6628170407493599,S06I10,2022-12-01_09h11.58.489,t1_Paradigm,2021.1.4,60.34030131591606,
T,left,Distractor,0,15,15,15,881.6033903655189,883.6044621655601,left,1,1,0.5704888960754033,S06I10,2022-12-01_09h11.58.489,t1_Paradigm,2021.1.4,60.34030131591606,
V,left,Pretarget,0,16,16,16,885.1024834578275,887.1039719798428,left,1,1,0.5426400606229436,S06I10,2022-12-01_09h11.58.489,t1_Paradigm,2021.1.4,60.34030131591606,
V,right,Target,0,17,17,17,888.6026015130337,890.6027445907821,right,1,1,0.6125354726973455,S06I10,2022-12-01_09h11.58.489,t1_Paradigm,2021.1.4,60.34030131591606,
N,left,Distractor,0,18,18,18,892.1025014227489,894.1045016242133,left,1,1,0.4704441762587521,S06I10,2022-12-01_09h11.58.489,t1_Paradigm,2021.1.4,60.34030131591606,
B,left,Distractor,0,19,19,19,895.6037220749713,897.6042433784751,left,1,1,0.5865681419090834,S06I10,2022-12-01_09h11.58.489,t1_Paradigm,2021.1.4,60.34030131591606,
V,left,Lure,0,20,20,20,899.1024439991743,901.1047422258416,left,1,1,0.9260486862040125,S06I10,2022-12-01_09h11.58.489,t1_Paradigm,2021.1.4,60.34030131591606,
P,left,Distractor,0,21,21,21,902.6039726214367,904.6045013034018,left,1,1,0.4983821947243996,S06I10,2022-12-01_09h11.58.489,t1_Paradigm,2021.1.4,60.34030131591606,
K,left,Pretarget,0,22,22,22,906.1024090317369,908.1043222958106,left,1,1,0.6307570353674237,S06I10,2022-12-01_09h11.58.489,t1_Paradigm,2021.1.4,60.34030131591606,
K,right,Target,0,23,23,23,909.6030756586115,911.6027914278966,right,1,1,0.7642033551819623,S06I10,2022-12-01_09h11.58.489,t1_Paradigm,2021.1.4,60.34030131591606,
J,left,Pretarget,0,24,24,24,913.1025193876703,915.104166706762,left,1,1,0.49491143616614863,S06I10,2022-12-01_09h11.58.489,t1_Paradigm,2021.1.4,60.34030131591606,
J,right,Target,0,25,25,25,916.6024658137176,918.6032322100655,right,1,1,0.6274951189989224,S06I10,2022-12-01_09h11.58.489,t1_Paradigm,2021.1.4,60.34030131591606,
H,left,Distractor,0,26,26,26,920.1024789665826,922.1043864562234,left,1,1,0.6306075415632222,S06I10,2022-12-01_09h11.58.489,t1_Paradigm,2021.1.4,60.34030131591606,
J,left,Lure,0,27,27,27,923.6028645707993,925.6188385935093,left,1,1,0.7003630838589743,S06I10,2022-12-01_09h11.58.489,t1_Paradigm,2021.1.4,60.34030131591606,
V,left,Distractor,0,28,28,28,927.1024112773302,929.1046892934828,left,1,1,0.574055574455997,S06I10,2022-12-01_09h11.58.489,t1_Paradigm,2021.1.4,60.34030131591606,
Z,left,Pretarget,0,29,29,29,930.6031571423518,932.6057418453565,left,1,1,0.4971198381972499,S06I10,2022-12-01_09h11.58.489,t1_Paradigm,2021.1.4,60.34030131591606,
Z,right,Target,0,30,30,30,934.102449131984,936.102576811245,left,0,1,0.6164993041602429,S06I10,2022-12-01_09h11.58.489,t1_Paradigm,2021.1.4,60.34030131591606,
T,left,Distractor,0,31,31,31,937.6033011825348,939.6043816441961,left,1,1,0.6344523554143962,S06I10,2022-12-01_09h11.58.489,t1_Paradigm,2021.1.4,60.34030131591606,
Z,left,Lure,0,32,32,32,941.1025177836709,943.1040951678879,right,0,1,0.7187639749608934,S06I10,2022-12-01_09h11.58.489,t1_Paradigm,2021.1.4,60.34030131591606,
F,left,Distractor,0,33,33,33,944.6026566909859,946.6053495043307,left,1,1,0.657645068335114,S06I10,2022-12-01_09h11.58.489,t1_Paradigm,2021.1.4,60.34030131591606,
Y,left,Pretarget,0,34,34,34,948.1026445004973,950.1152956544538,left,1,1,0.5713999742001761,S06I10,2022-12-01_09h11.58.489,t1_Paradigm,2021.1.4,60.34030131591606,
Y,right,Target,0,35,35,35,951.6033685509756,953.6028363402002,left,0,1,0.7641738414240535,S06I10,2022-12-01_09h11.58.489,t1_Paradigm,2021.1.4,60.34030131591606,
Y,right,Target,0,36,36,36,955.1024706257449,957.1025662247848,right,1,1,0.5284112016379368,S06I10,2022-12-01_09h11.58.489,t1_Paradigm,2021.1.4,60.34030131591606,
W,left,Distractor,0,37,37,37,958.6029527913779,960.6027134729666,left,1,1,0.6922522428794764,S06I10,2022-12-01_09h11.58.489,t1_Paradigm,2021.1.4,60.34030131591606,
Q,left,Distractor,0,38,38,38,962.1024712673388,964.1044711479917,left,1,1,0.5183088208432309,S06I10,2022-12-01_09h11.58.489,t1_Paradigm,2021.1.4,60.34030131591606,
P,left,Pretarget,0,39,39,39,965.6033210722671,967.6044830176979,left,1,1,0.6663436189119238,S06I10,2022-12-01_09h11.58.489,t1_Paradigm,2021.1.4,60.34030131591606,
P,right,Target,0,40,40,40,969.1024680593109,971.1025181044533,right,1,1,0.7682772218249738,S06I10,2022-12-01_09h11.58.489,t1_Paradigm,2021.1.4,60.34030131591606,
J,left,Distractor,0,41,41,41,972.6030172726314,974.604542686895,left,1,1,0.6103758325625677,S06I10,2022-12-01_09h11.58.489,t1_Paradigm,2021.1.4,60.34030131591606,
P,left,Lure,0,42,42,42,976.1025322197529,978.1045141354844,left,1,1,0.45433124620467424,S06I10,2022-12-01_09h11.58.489,t1_Paradigm,2021.1.4,60.34030131591606,
L,left,Distractor,0,43,43,43,979.603231889254,981.6039062154014,left,1,1,0.6669236292073037,S06I10,2022-12-01_09h11.58.489,t1_Paradigm,2021.1.4,60.34030131591606,
Z,left,Distractor,0,44,44,44,983.1025489014573,985.1045882407925,left,1,1,0.49441868404392153,S06I10,2022-12-01_09h11.58.489,t1_Paradigm,2021.1.4,60.34030131591606,
F,left,Pretarget,0,45,45,45,986.6031202501035,988.6046568924503,left,1,1,0.5305060397367924,S06I10,2022-12-01_09h11.58.489,t1_Paradigm,2021.1.4,60.34030131591606,
F,right,Target,0,46,46,46,990.1024972523155,992.1026441797148,left,0,1,0.4722794854314998,S06I10,2022-12-01_09h11.58.489,t1_Paradigm,2021.1.4,60.34030131591606,
G,left,Pretarget,0,47,47,47,993.6027696133533,995.604166706762,left,1,1,0.5067519230360631,S06I10,2022-12-01_09h11.58.489,t1_Paradigm,2021.1.4,60.34030131591606,
G,right,Target,0,48,48,48,997.1024423951458,999.1025553175132,right,1,1,0.4644220781046897,S06I10,2022-12-01_09h11.58.489,t1_Paradigm,2021.1.4,60.34030131591606,
V,left,Distractor,0,49,49,49,1000.6025367109978,1002.6048182559316,left,1,1,0.6741785700432956,S06I10,2022-12-01_09h11.58.489,t1_Paradigm,2021.1.4,60.34030131591606,
G,left,Lure,0,50,50,50,1004.1025116884266,1006.1043194085942,left,1,1,0.694696113729151,S06I10,2022-12-01_09h11.58.489,t1_Paradigm,2021.1.4,60.34030131591606,
Q,left,Pretarget,0,51,51,51,1007.6031186461041,1009.6049382359488,left,1,1,0.5220413539500441,S06I10,2022-12-01_09h11.58.489,t1_Paradigm,2021.1.4,60.34030131591606,
Q,right,Target,0,52,52,52,1011.1025274077256,1013.1024780041771,right,1,1,0.6724128749337979,S06I10,2022-12-01_09h11.58.489,t1_Paradigm,2021.1.4,60.34030131591606,
Y,left,Distractor,0,53,53,53,1014.6026137034933,1016.6038433381764,left,1,1,0.6591810690879356,S06I10,2022-12-01_09h11.58.489,t1_Paradigm,2021.1.4,60.34030131591606,
V,left,Distractor,0,54,54,54,1018.1025476182695,1020.1046248122293,left,1,1,0.5661397812073119,S06I10,2022-12-01_09h11.58.489,t1_Paradigm,2021.1.4,60.34030131591606,
B,left,Distractor,0,55,55,55,1021.6025360693748,1023.6029312976461,left,1,1,0.4759244395245332,S06I10,2022-12-01_09h11.58.489,t1_Paradigm,2021.1.4,60.34030131591606,
J,left,Pretarget,0,56,56,56,1025.1024465655792,1027.1045301755948,left,1,1,0.4624966235423926,S06I10,2022-12-01_09h11.58.489,t1_Paradigm,2021.1.4,60.34030131591606,
J,right,Target,0,57,57,57,1028.6030185558193,1030.602439828741,left,0,1,0.4044535680441186,S06I10,2022-12-01_09h11.58.489,t1_Paradigm,2021.1.4,60.34030131591606,
H,left,Distractor,0,58,58,58,1032.1026550869865,1034.1153768174117,left,1,1,0.45958149433135986,S06I10,2022-12-01_09h11.58.489,t1_Paradigm,2021.1.4,60.34030131591606,
J,left,Lure,0,59,59,59,1035.6027176434,1037.6047329225694,left,1,1,0.778394680324709,S06I10,2022-12-01_09h11.58.489,t1_Paradigm,2021.1.4,60.34030131591606,
D,left,Pretarget,0,60,60,60,1039.102561091946,1041.1037381150818,left,1,1,0.5273127750551794,S06I10,2022-12-01_09h11.58.489,t1_Paradigm,2021.1.4,60.34030131591606,
D,right,Target,0,61,61,61,1042.6025796984613,1044.603514195158,right,1,1,0.6273472291941289,S06I10,2022-12-01_09h11.58.489,t1_Paradigm,2021.1.4,60.34030131591606,
R,left,Distractor,0,62,62,62,1046.102499497938,1048.104477884859,left,1,1,0.5182475476176478,S06I10,2022-12-01_09h11.58.489,t1_Paradigm,2021.1.4,60.34030131591606,
F,left,Distractor,0,63,63,63,1049.6031164004817,1051.6046668373165,left,1,1,0.49035540386103094,S06I10,2022-12-01_09h11.58.489,t1_Paradigm,2021.1.4,60.34030131591606,
F,left,Distractor,0,0,0,0,1301.2959922827722,1303.2859396263084,None,0,2,,S06I10,2022-12-01_09h11.58.489,t1_Paradigm,2021.1.4,60.34030131591606,
N,left,Pretarget,0,1,1,1,1304.7859729897173,1306.7866463534592,left,1,2,1.3084208000509534,S06I10,2022-12-01_09h11.58.489,t1_Paradigm,2021.1.4,60.34030131591606,
V,left,Distractor,0,2,2,2,1308.285873220273,1310.287852248788,left,1,2,0.5754648583824746,S06I10,2022-12-01_09h11.58.489,t1_Paradigm,2021.1.4,60.34030131591606,
N,right,Target,0,3,3,3,1311.785809059831,1313.7879876272928,right,1,2,0.8193559832579922,S06I10,2022-12-01_09h11.58.489,t1_Paradigm,2021.1.4,60.34030131591606,
N,left,Lure,0,4,4,4,1315.2859842178004,1317.2858850899502,left,1,2,1.209215619484894,S06I10,2022-12-01_09h11.58.489,t1_Paradigm,2021.1.4,60.34030131591606,
X,left,Distractor,0,5,5,5,1318.785932247847,1320.7873627046938,left,1,2,0.9556349861668423,S06I10,2022-12-01_09h11.58.489,t1_Paradigm,2021.1.4,60.34030131591606,
G,left,Pretarget,0,6,6,6,1322.2859697817184,1324.287368158315,left,1,2,0.6397301925753709,S06I10,2022-12-01_09h11.58.489,t1_Paradigm,2021.1.4,60.34030131591606,
H,left,Pretarget,0,7,7,7,1325.7858700122451,1327.7879302037181,left,1,2,0.5311604761518538,S06I10,2022-12-01_09h11.58.489,t1_Paradigm,2021.1.4,60.34030131591606,
G,right,Target,0,8,8,8,1329.285917811765,1331.2877380432037,left,0,2,0.5352625733648892,S06I10,2022-12-01_09h11.58.489,t1_Paradigm,2021.1.4,60.34030131591606,
H,right,Target,0,9,9,9,1332.785934814281,1334.7881675972894,left,0,2,0.81096155315754,S06I10,2022-12-01_09h11.58.489,t1_Paradigm,2021.1.4,60.34030131591606,
T,left,Pretarget,0,10,10,10,1336.2858703330276,1338.2880071962136,left,1,2,0.8473347435647156,S06I10,2022-12-01_09h11.58.489,t1_Paradigm,2021.1.4,60.34030131591606,
K,left,Distractor,0,11,11,11,1339.7859787641792,1341.7875118776865,left,1,2,0.5314799950865563,S06I10,2022-12-01_09h11.58.489,t1_Paradigm,2021.1.4,60.34030131591606,
T,right,Target,0,12,12,12,1343.286047415837,1345.2880017425923,left,0,2,0.5190107359667309,S06I10,2022-12-01_09h11.58.489,t1_Paradigm,2021.1.4,60.34030131591606,
T,left,Lure,0,13,13,13,1346.7859761977452,1348.7858799571113,right,0,2,0.8930490512866527,S06I10,2022-12-01_09h11.58.489,t1_Paradigm,2021.1.4,60.34030131591606,
J,left,Distractor,0,14,14,14,1350.285949891986,1352.287557431584,left,1,2,0.5279861387680285,S06I10,2022-12-01_09h11.58.489,t1_Paradigm,2021.1.4,60.34030131591606,
Q,left,Pretarget,0,15,15,15,1353.7859797265846,1355.7850128288555,left,1,2,0.55035823979415,S06I10,2022-12-01_09h11.58.489,t1_Paradigm,2021.1.4,60.34030131591606,
M,left,Distractor,0,16,16,16,1357.286040999781,1359.2875696220726,left,1,2,0.48757693637162447,S06I10,2022-12-01_09h11.58.489,t1_Paradigm,2021.1.4,60.34030131591606,
Q,right,Target,0,17,17,17,1360.7858809195168,1362.7881563692354,right,1,2,0.6189046787912957,S06I10,2022-12-01_09h11.58.489,t1_Paradigm,2021.1.4,60.34030131591606,
R,left,Distractor,0,18,18,18,1364.285932247847,1366.2878105445125,left,1,2,0.5431947275355924,S06I10,2022-12-01_09h11.58.489,t1_Paradigm,2021.1.4,60.34030131591606,
W,left,Distractor,0,19,19,19,1367.7859697817184,1369.7881242890144,left,1,2,0.5149195460253395,S06I10,2022-12-01_09h11.58.489,t1_Paradigm,2021.1.4,60.34030131591606,
C,left,Pretarget,0,20,20,20,1371.2859534207964,1373.287765632209,left,1,2,0.775439771648962,S06I10,2022-12-01_09h11.58.489,t1_Paradigm,2021.1.4,60.34030131591606,
T,left,Distractor,0,21,21,21,1374.785986463423,1376.7881826749945,left,1,2,0.6988434440572746,S06I10,2022-12-01_09h11.58.489,t1_Paradigm,2021.1.4,60.34030131591606,
C,right,Target,0,22,22,22,1378.2859370599035,1380.2881682389125,left,0,2,0.6869266062567476,S06I10,2022-12-01_09h11.58.489,t1_Paradigm,2021.1.4,60.34030131591606,
F,left,Pretarget,0,23,23,23,1381.786059927108,1383.7881393667194,left,1,2,0.4988739844120573,S06I10,2022-12-01_09h11.58.489,t1_Paradigm,2021.1.4,60.34030131591606,
C,right,Target,0,24,24,24,1385.2859906338563,1387.287821451784,left,0,2,0.43930647705565207,S06I10,2022-12-01_09h11.58.489,t1_Paradigm,2021.1.4,60.34030131591606,
F,right,Target,0,25,25,25,1388.7859534207964,1390.7875391458801,right,1,2,0.5555946934327949,S06I10,2022-12-01_09h11.58.489,t1_Paradigm,2021.1.4,60.34030131591606,
H,left,Distractor,0,26,26,26,1392.285811626236,1394.2882526098692,left,1,2,0.49497752138995565,S06I10,2022-12-01_09h11.58.489,t1_Paradigm,2021.1.4,60.34030131591606,
H,left,Lure,0,27,27,27,1395.7858953555988,1397.7859351350635,right,0,2,0.6932197822025046,S06I10,2022-12-01_09h11.58.489,t1_Paradigm,2021.1.4,60.34030131591606,
P,left,Distractor,0,28,28,28,1399.2860519070528,1401.287514123309,left,1,2,0.6155401057330891,S06I10,2022-12-01_09h11.58.489,t1_Paradigm,2021.1.4,60.34030131591606,
G,left,Pretarget,0,29,29,29,1402.7859396263084,1404.7879632463155,left,1,2,0.4752552462159656,S06I10,2022-12-01_09h11.58.489,t1_Paradigm,2021.1.4,60.34030131591606,
K,left,Distractor,0,30,30,30,1406.2859919170733,1408.287778785074,left,1,2,0.5913833822996821,S06I10,2022-12-01_09h11.58.489,t1_Paradigm,2021.1.4,60.34030131591606,
G,right,Target,0,31,31,31,1409.785981972178,1411.7881425747473,left,0,2,0.8346553590381518,S06I10,2022-12-01_09h11.58.489,t1_Paradigm,2021.1.4,60.34030131591606,
M,left,Pretarget,0,32,32,32,1413.2859251901973,1415.2879549054778,left,1,2,0.5671069996897131,S06I10,2022-12-01_09h11.58.489,t1_Paradigm,2021.1.4,60.34030131591606,
B,left,Distractor,0,33,33,33,1416.7860150148044,1418.7878243390005,left,1,2,0.571319132053759,S06I10,2022-12-01_09h11.58.489,t1_Paradigm,2021.1.4,60.34030131591606,
M,right,Target,0,34,34,34,1420.2858536513231,1422.2850474755105,left,0,2,0.562020681478316,S06I10,2022-12-01_09h11.58.489,t1_Paradigm,2021.1.4,60.34030131591606,
M,left,Lure,0,35,35,35,1423.78598068899,1425.7860130899935,right,0,2,0.6610532705090009,S06I10,2022-12-01_09h11.58.489,t1_Paradigm,2021.1.4,60.34030131591606,
T,left,Distractor,0,36,36,36,1427.28582477913,1429.287561281235,left,1,2,0.5674743181734812,S06I10,2022-12-01_09h11.58.489,t1_Paradigm,2021.1.4,60.34030131591606,
F,left,Distractor,0,37,37,37,1430.7859444383357,1432.7878503239772,left,1,2,0.6192081576155033,S06I10,2022-12-01_09h11.58.489,t1_Paradigm,2021.1.4,60.34030131591606,
X,left,Distractor,0,38,38,38,1434.2860044283443,1436.2878041284566,left,1,2,0.6393356058979407,S06I10,2022-12-01_09h11.58.489,t1_Paradigm,2021.1.4,60.34030131591606,
C,left,Distractor,0,39,39,39,1437.7859704233124,1439.7878544944106,left,1,2,0.5633802410156932,S06I10,2022-12-01_09h11.58.489,t1_Paradigm,2021.1.4,60.34030131591606,
R,left,Distractor,0,40,40,40,1441.2860961777624,1443.2879683791543,left,1,2,0.615066922531696,S06I10,2022-12-01_09h11.58.489,t1_Paradigm,2021.1.4,60.34030131591606,
B,left,Pretarget,0,41,41,41,1444.7859280774428,1446.7879237876623,left,1,2,0.5072555824299343,S06I10,2022-12-01_09h11.58.489,t1_Paradigm,2021.1.4,60.34030131591606,
H,left,Distractor,0,42,42,42,1448.2859861426114,1450.2877075670112,left,1,2,0.5115046070131939,S06I10,2022-12-01_09h11.58.489,t1_Paradigm,2021.1.4,60.34030131591606,
B,right,Target,0,43,43,43,1451.785919736576,1453.7876607298967,left,0,2,0.49939560872735456,S06I10,2022-12-01_09h11.58.489,t1_Paradigm,2021.1.4,60.34030131591606,
W,left,Pretarget,0,44,44,44,1455.2858039269922,1457.2878978026856,left,1,2,0.5031858862494119,S06I10,2022-12-01_09h11.58.489,t1_Paradigm,2021.1.4,60.34030131591606,
L,left,Pretarget,0,45,45,45,1458.7858087390196,1460.786762804637,left,1,2,0.5084287559438962,S06I10,2022-12-01_09h11.58.489,t1_Paradigm,2021.1.4,60.34030131591606,
W,right,Target,0,46,46,46,1462.2859470047697,1464.2879302037181,right,1,2,0.5591485397599172,S06I10,2022-12-01_09h11.58.489,t1_Paradigm,2021.1.4,60.34030131591606,
L,right,Target,0,47,47,47,1465.7859338518756,1467.7877871259407,left,0,2,0.7073966712341644,S06I10,2022-12-01_09h11.58.489,t1_Paradigm,2021.1.4,60.34030131591606,
W,right,Target,0,48,48,48,1469.2859556664189,1471.2879597175051,left,0,2,0.6151314037560951,S06I10,2022-12-01_09h11.58.489,t1_Paradigm,2021.1.4,60.34030131591606,
X,left,Distractor,0,49,49,49,1472.7859636864741,1474.7877505545039,left,1,2,0.4273431229230482,S06I10,2022-12-01_09h11.58.489,t1_Paradigm,2021.1.4,60.34030131591606,
R,left,Distractor,0,50,50,50,1476.2861590549874,1478.2880992664432,left,1,2,0.49510552146239206,S06I10,2022-12-01_09h11.58.489,t1_Paradigm,2021.1.4,60.34030131591606,
V,left,Pretarget,0,51,51,51,1479.7859296814422,1481.7880909255764,left,1,2,0.6589850589807611,S06I10,2022-12-01_09h11.58.489,t1_Paradigm,2021.1.4,60.34030131591606,
Z,left,Distractor,0,52,52,52,1483.2859909546387,1485.2877457424765,left,1,2,0.6476511186629068,S06I10,2022-12-01_09h11.58.489,t1_Paradigm,2021.1.4,60.34030131591606,
V,right,Target,0,53,53,53,1486.7860307341325,1488.7880286899745,left,0,2,0.47524337653885596,S06I10,2022-12-01_09h11.58.489,t1_Paradigm,2021.1.4,60.34030131591606,
V,left,Lure,0,54,54,54,1490.2859415511193,1492.2857622227166,left,1,2,0.4814881113998126,S06I10,2022-12-01_09h11.58.489,t1_Paradigm,2021.1.4,60.34030131591606,
N,left,Distractor,0,55,55,55,1493.7858661626233,1495.787977361615,left,1,2,0.49911747325677425,S06I10,2022-12-01_09h11.58.489,t1_Paradigm,2021.1.4,60.34030131591606,
B,left,Distractor,0,56,56,56,1497.2859627240687,1499.2877024341724,left,1,2,0.7115481719956733,S06I10,2022-12-01_09h11.58.489,t1_Paradigm,2021.1.4,60.34030131591606,
V,left,Lure,0,57,57,57,1500.7860179020208,1502.7876122887537,right,0,2,0.9236044945719186,S06I10,2022-12-01_09h11.58.489,t1_Paradigm,2021.1.4,60.34030131591606,
J,left,Distractor,0,58,58,58,1504.2859922378557,1506.2875125192804,left,1,2,0.655632034788141,S06I10,2022-12-01_09h11.58.489,t1_Paradigm,2021.1.4,60.34030131591606,
H,left,Distractor,0,59,59,59,1507.7859242277918,1509.7877986748063,left,1,2,0.49931444579851814,S06I10,2022-12-01_09h11.58.489,t1_Paradigm,2021.1.4,60.34030131591606,
X,left,Pretarget,0,60,60,60,1511.2859319270647,1513.2880386348406,left,1,2,0.4390700458898209,S06I10,2022-12-01_09h11.58.489,t1_Paradigm,2021.1.4,60.34030131591606,
P,left,Distractor,0,61,61,61,1514.7860477366485,1516.788215076027,left,1,2,0.47497743158601224,S06I10,2022-12-01_09h11.58.489,t1_Paradigm,2021.1.4,60.34030131591606,
X,right,Target,0,62,62,62,1518.2860406789987,1520.287963567127,left,0,2,0.5112768374965526,S06I10,2022-12-01_09h11.58.489,t1_Paradigm,2021.1.4,60.34030131591606,
Q,left,Distractor,0,63,63,63,1521.7859906338563,1523.7881101737148,left,1,2,0.5470725840714294,S06I10,2022-12-01_09h11.58.489,t1_Paradigm,2021.1.4,60.34030131591606,
B,left,Pretarget,0,0,0,0,1535.638207665499,1537.638398863579,None,0,2,,S06I10,2022-12-01_09h11.58.489,t1_Paradigm,2021.1.4,60.34030131591606,
F,left,Distractor,0,1,1,1,1539.1359505015134,1541.1382968484832,None,0,2,,S06I10,2022-12-01_09h11.58.489,t1_Paradigm,2021.1.4,60.34030131591606,
B,right,Target,0,2,2,2,1542.635980977706,1544.6382910740504,right,1,2,0.7368379686085973,S06I10,2022-12-01_09h11.58.489,t1_Paradigm,2021.1.4,60.34030131591606,
V,left,Distractor,0,3,3,3,1546.1359399150242,1548.1381438258686,left,1,2,0.3571076605585404,S06I10,2022-12-01_09h11.58.489,t1_Paradigm,2021.1.4,60.34030131591606,
G,left,Pretarget,0,4,4,4,1549.63604193012,1551.6379080362676,left,1,2,0.5852162816154305,S06I10,2022-12-01_09h11.58.489,t1_Paradigm,2021.1.4,60.34030131591606,
B,left,Lure,0,5,5,5,1553.1360518749862,1555.1377559760585,right,0,2,0.8615071413805708,S06I10,2022-12-01_09h11.58.489,t1_Paradigm,2021.1.4,60.34030131591606,
G,right,Target,0,6,6,6,1556.636150040431,1558.6380110137688,right,1,2,0.9612531944003422,S06I10,2022-12-01_09h11.58.489,t1_Paradigm,2021.1.4,60.34030131591606,
Y,left,Pretarget,0,7,7,7,1560.1362084264401,1562.1380055601185,left,1,2,0.4690849375037942,S06I10,2022-12-01_09h11.58.489,t1_Paradigm,2021.1.4,60.34030131591606,
P,left,Distractor,0,8,8,8,1563.6359986218158,1565.638208948716,left,1,2,0.6329025602026377,S06I10,2022-12-01_09h11.58.489,t1_Paradigm,2021.1.4,60.34030131591606,
Y,right,Target,0,9,9,9,1567.1360435341194,1569.1377838858461,left,0,2,0.5091486359597184,S06I10,2022-12-01_09h11.58.489,t1_Paradigm,2021.1.4,60.34030131591606,
X,left,Distractor,0,10,10,10,1570.636058291013,1572.636558742408,left,1,2,0.5786995065573137,S06I10,2022-12-01_09h11.58.489,t1_Paradigm,2021.1.4,60.34030131591606,
Y,right,Target,0,11,11,11,1574.1360608574469,1576.1526315721858,right,1,2,0.7106659660348669,S06I10,2022-12-01_09h11.58.489,t1_Paradigm,2021.1.4,60.34030131591606,
N,left,Distractor,0,12,12,12,1577.6359617295675,1579.6380193546356,left,1,2,0.6651566509099212,S06I10,2022-12-01_09h11.58.489,t1_Paradigm,2021.1.4,60.34030131591606,
Y,right,Target,0,13,13,13,1581.1360031130607,1583.1379622518434,right,1,2,0.8773198006383609,S06I10,2022-12-01_09h11.58.489,t1_Paradigm,2021.1.4,60.34030131591606,
Y,left,Lure,0,14,14,14,1584.6359877145442,1586.6358359751175,left,1,2,0.8192536473507062,S06I10,2022-12-01_09h11.58.489,t1_Paradigm,2021.1.4,60.34030131591606,
K,left,Distractor,0,15,15,15,1588.1358475240122,1590.13719489309,left,1,2,0.8379859270644374,S06I10,2022-12-01_09h11.58.489,t1_Paradigm,2021.1.4,60.34030131591606,
T,left,Pretarget,0,16,16,16,1591.6360515541746,1593.6382638058858,left,1,2,0.5688617875275668,S06I10,2022-12-01_09h11.58.489,t1_Paradigm,2021.1.4,60.34030131591606,
J,left,Distractor,0,17,17,17,1595.1360823511786,1597.13823974572,left,1,2,0.49313643781351857,S06I10,2022-12-01_09h11.58.489,t1_Paradigm,2021.1.4,60.34030131591606,
T,right,Target,0,18,18,18,1598.636183403869,1600.637960006221,left,0,2,0.6572857699065935,S06I10,2022-12-01_09h11.58.489,t1_Paradigm,2021.1.4,60.34030131591606,
S,left,Pretarget,0,19,19,19,1602.1360560454195,1604.1379494197608,left,1,2,0.46945899282582104,S06I10,2022-12-01_09h11.58.489,t1_Paradigm,2021.1.4,60.34030131591606,
R,left,Distractor,0,20,20,20,1605.6361744214082,1607.6378400262329,left,1,2,0.5533580607734621,S06I10,2022-12-01_09h11.58.489,t1_Paradigm,2021.1.4,60.34030131591606,
S,right,Target,0,21,21,21,1609.135931253375,1611.1380732494,right,1,2,0.8291991559090093,S06I10,2022-12-01_09h11.58.489,t1_Paradigm,2021.1.4,60.34030131591606,
Q,left,Distractor,0,22,22,22,1612.6360704815015,1614.638286903617,left,1,2,0.6250384160375688,S06I10,2022-12-01_09h11.58.489,t1_Paradigm,2021.1.4,60.34030131591606,
D,left,Distractor,0,23,23,23,1616.1360172283603,1618.1378724272363,left,1,2,0.5171208904357627,S06I10,2022-12-01_09h11.58.489,t1_Paradigm,2021.1.4,60.34030131591606,
F,left,Distractor,0,24,24,24,1619.6359498598904,1621.6382211391756,left,1,2,0.5049384284357075,S06I10,2022-12-01_09h11.58.489,t1_Paradigm,2021.1.4,60.34030131591606,
Z,left,Distractor,0,25,25,25,1623.1360252484155,1625.1379256804066,left,1,2,0.5572465037403163,S06I10,2022-12-01_09h11.58.489,t1_Paradigm,2021.1.4,60.34030131591606,
P,left,Distractor,0,26,26,26,1626.6360598950414,1628.6378458006657,left,1,2,0.8333034987444989,S06I10,2022-12-01_09h11.58.489,t1_Paradigm,2021.1.4,60.34030131591606,
H,left,Distractor,0,27,27,27,1630.136026852415,1632.1379157355404,left,1,2,0.7255441285960842,S06I10,2022-12-01_09h11.58.489,t1_Paradigm,2021.1.4,60.34030131591606,
Z,left,Pretarget,0,28,28,28,1633.6360287772259,1635.6379603270325,left,1,2,0.7931416347855702,S06I10,2022-12-01_09h11.58.489,t1_Paradigm,2021.1.4,60.34030131591606,
J,left,Pretarget,0,29,29,29,1637.1357788723544,1639.1377861314686,left,1,2,0.6054916196735576,S06I10,2022-12-01_09h11.58.489,t1_Paradigm,2021.1.4,60.34030131591606,
Z,right,Target,0,30,30,30,1640.6361747422197,1642.638303906133,right,1,2,0.7049534419784322,S06I10,2022-12-01_09h11.58.489,t1_Paradigm,2021.1.4,60.34030131591606,
J,right,Target,0,31,31,31,1644.136021719576,1646.1382086279045,right,1,2,0.6929339474881999,S06I10,2022-12-01_09h11.58.489,t1_Paradigm,2021.1.4,60.34030131591606,
V,left,Pretarget,0,32,32,32,1647.6360326268477,1649.6376446576905,left,1,2,0.6014809510961641,S06I10,2022-12-01_09h11.58.489,t1_Paradigm,2021.1.4,60.34030131591606,
Z,left,Lure,0,33,33,33,1651.1362546219607,1653.1380110137688,right,0,2,0.733135590882739,S06I10,2022-12-01_09h11.58.489,t1_Paradigm,2021.1.4,60.34030131591606,
V,right,Target,0,34,34,34,1654.6359110428311,1656.6376250887697,left,0,2,0.6575507524830755,S06I10,2022-12-01_09h11.58.489,t1_Paradigm,2021.1.4,60.34030131591606,
X,left,Distractor,0,35,35,35,1658.1357981204637,1660.1379205475678,left,1,2,0.5009790881886147,S06I10,2022-12-01_09h11.58.489,t1_Paradigm,2021.1.4,60.34030131591606,
S,left,Distractor,0,36,36,36,1661.6360618198523,1663.6376700010733,left,1,2,0.48961531330132857,S06I10,2022-12-01_09h11.58.489,t1_Paradigm,2021.1.4,60.34030131591606,
Q,left,Distractor,0,37,37,37,1665.135929970158,1667.1377989635512,left,1,2,0.4615252345975023,S06I10,2022-12-01_09h11.58.489,t1_Paradigm,2021.1.4,60.34030131591606,
P,left,Distractor,0,38,38,38,1668.6360919752624,1670.6376353544474,left,1,2,0.5935500800842419,S06I10,2022-12-01_09h11.58.489,t1_Paradigm,2021.1.4,60.34030131591606,
S,left,Lure,0,39,39,39,1672.1360948624788,1674.1376440160966,right,0,2,0.7095223063370213,S06I10,2022-12-01_09h11.58.489,t1_Paradigm,2021.1.4,60.34030131591606,
K,left,Pretarget,0,40,40,40,1675.6350092679786,1677.637961931032,left,1,2,0.585181314178044,S06I10,2022-12-01_09h11.58.489,t1_Paradigm,2021.1.4,60.34030131591606,
L,left,Distractor,0,41,41,41,1679.1353445062123,1681.1378926377802,left,1,2,0.4935124179464765,S06I10,2022-12-01_09h11.58.489,t1_Paradigm,2021.1.4,60.34030131591606,
K,right,Target,0,42,42,42,1682.6360801055853,1684.637645620096,right,1,2,0.689654707792215,S06I10,2022-12-01_09h11.58.489,t1_Paradigm,2021.1.4,60.34030131591606,
B,left,Distractor,0,43,43,43,1686.1360297396313,1688.1378653695865,left,1,2,0.5010782160388771,S06I10,2022-12-01_09h11.58.489,t1_Paradigm,2021.1.4,60.34030131591606,
N,left,Distractor,0,44,44,44,1689.636055724608,1691.6378551039088,left,1,2,0.5373484290030319,S06I10,2022-12-01_09h11.58.489,t1_Paradigm,2021.1.4,60.34030131591606,
S,left,Pretarget,0,45,45,45,1693.1360935792618,1695.138271825912,left,1,2,0.5088066608586814,S06I10,2022-12-01_09h11.58.489,t1_Paradigm,2021.1.4,60.34030131591606,
Z,left,Distractor,0,46,46,46,1696.6360993536946,1698.637868898426,left,1,2,0.545943360455567,S06I10,2022-12-01_09h11.58.489,t1_Paradigm,2021.1.4,60.34030131591606,
S,right,Target,0,47,47,47,1700.1361660805414,1702.1375638155732,right,1,2,0.6781414391298313,S06I10,2022-12-01_09h11.58.489,t1_Paradigm,2021.1.4,60.34030131591606,
C,left,Distractor,0,48,48,48,1703.636114110588,1705.6377742617624,left,1,2,0.5214247722178698,S06I10,2022-12-01_09h11.58.489,t1_Paradigm,2021.1.4,60.34030131591606,
T,left,Pretarget,0,49,49,49,1707.1360053586832,1709.13515106251,left,1,2,0.4802373037673533,S06I10,2022-12-01_09h11.58.489,t1_Paradigm,2021.1.4,60.34030131591606,
S,left,Lure,0,50,50,50,1710.6358699801494,1712.637661339424,right,0,2,0.6736457176448312,S06I10,2022-12-01_09h11.58.489,t1_Paradigm,2021.1.4,60.34030131591606,
T,right,Target,0,51,51,51,1714.136020436359,1716.1377036852937,right,1,2,1.0778076765418518,S06I10,2022-12-01_09h11.58.489,t1_Paradigm,2021.1.4,60.34030131591606,
N,left,Pretarget,0,52,52,52,1717.6361798750295,1719.6378268733388,left,1,2,0.8255439361091703,S06I10,2022-12-01_09h11.58.489,t1_Paradigm,2021.1.4,60.34030131591606,
B,left,Distractor,0,53,53,53,1721.136041288497,1723.1380106929573,left,1,2,0.8453470534004737,S06I10,2022-12-01_09h11.58.489,t1_Paradigm,2021.1.4,60.34030131591606,
N,right,Target,0,54,54,54,1724.6360621406639,1726.638071324589,right,1,2,1.0250289844698273,S06I10,2022-12-01_09h11.58.489,t1_Paradigm,2021.1.4,60.34030131591606,
N,left,Lure,0,55,55,55,1728.1360332684708,1730.1360470629588,left,1,2,0.9031206350773573,S06I10,2022-12-01_09h11.58.489,t1_Paradigm,2021.1.4,60.34030131591606,
X,left,Distractor,0,56,56,56,1731.6362344114168,1733.6375182616466,left,1,2,0.6656259844603483,S06I10,2022-12-01_09h11.58.489,t1_Paradigm,2021.1.4,60.34030131591606,
W,left,Distractor,0,57,57,57,1735.1361728174088,1737.1377402567596,left,1,2,0.6214820033346768,S06I10,2022-12-01_09h11.58.489,t1_Paradigm,2021.1.4,60.34030131591606,
S,left,Distractor,0,58,58,58,1738.6360560454195,1740.6376058406313,left,1,2,0.48164466285379604,S06I10,2022-12-01_09h11.58.489,t1_Paradigm,2021.1.4,60.34030131591606,
L,left,Distractor,0,59,59,59,1742.1360862008005,1744.1380559260724,left,1,2,0.597273630759446,S06I10,2022-12-01_09h11.58.489,t1_Paradigm,2021.1.4,60.34030131591606,
K,left,Pretarget,0,60,60,60,1745.6361160354281,1747.6381143120525,left,1,2,0.5690728753397707,S06I10,2022-12-01_09h11.58.489,t1_Paradigm,2021.1.4,60.34030131591606,
V,left,Pretarget,0,61,61,61,1749.136193348735,1751.1380941015377,left,1,2,0.4933003676997032,S06I10,2022-12-01_09h11.58.489,t1_Paradigm,2021.1.4,60.34030131591606,
K,right,Target,0,62,62,62,1752.6359540303238,1754.637427474634,right,1,2,0.7538003827794455,S06I10,2022-12-01_09h11.58.489,t1_Paradigm,2021.1.4,60.34030131591606,
V,right,Target,0,63,63,63,1756.1362366570393,1758.1487922119268,left,0,2,0.5223887827014551,S06I10,2022-12-01_09h11.58.489,t1_Paradigm,2021.1.4,60.34030131591606,
R,left,Distractor,0,0,0,0,1906.999750415911,1909.0043102978088,None,0,3,,S06I10,2022-12-01_09h11.58.489,t1_Paradigm,2021.1.4,60.34030131591606,
P,left,Lure,0,1,1,1,1910.5028878610174,1912.5044549795857,None,0,3,,S06I10,2022-12-01_09h11.58.489,t1_Paradigm,2021.1.4,60.34030131591606,
V,left,Distractor,0,2,2,2,1914.0028362118755,1916.0049663382233,left,1,3,0.9543674968299456,S06I10,2022-12-01_09h11.58.489,t1_Paradigm,2021.1.4,60.34030131591606,
P,left,Pretarget,0,3,3,3,1917.5028275502264,1919.5043856863049,None,0,3,,S06I10,2022-12-01_09h11.58.489,t1_Paradigm,2021.1.4,60.34030131591606,
Z,left,Distractor,0,4,4,4,1921.002790016384,1923.0018757302023,left,1,3,0.5976412700547371,S06I10,2022-12-01_09h11.58.489,t1_Paradigm,2021.1.4,60.34030131591606,
L,left,Pretarget,0,5,5,5,1924.5027759010845,1926.5049085938372,left,1,3,1.1263710282219108,S06I10,2022-12-01_09h11.58.489,t1_Paradigm,2021.1.4,60.34030131591606,
P,right,Target,0,6,6,6,1928.0027836003283,1930.0049172554864,right,1,3,0.7141870905470569,S06I10,2022-12-01_09h11.58.489,t1_Paradigm,2021.1.4,60.34030131591606,
S,left,Distractor,0,7,7,7,1931.502728422347,1933.504603190173,left,1,3,0.5747908530465793,S06I10,2022-12-01_09h11.58.489,t1_Paradigm,2021.1.4,60.34030131591606,
L,right,Target,0,8,8,8,1935.0027842419222,1937.0047481927613,right,1,3,0.9466608665534295,S06I10,2022-12-01_09h11.58.489,t1_Paradigm,2021.1.4,60.34030131591606,
D,left,Distractor,0,9,9,9,1938.5028025276551,1940.504369325412,left,1,3,0.7591484755685087,S06I10,2022-12-01_09h11.58.489,t1_Paradigm,2021.1.4,60.34030131591606,
G,left,Distractor,0,10,10,10,1942.0019552891608,1944.0048964033485,left,1,3,0.6661614032636862,S06I10,2022-12-01_09h11.58.489,t1_Paradigm,2021.1.4,60.34030131591606,
M,left,Pretarget,0,11,11,11,1945.5029077507497,1947.5046558017202,left,1,3,0.6387321770598646,S06I10,2022-12-01_09h11.58.489,t1_Paradigm,2021.1.4,60.34030131591606,
Y,left,Distractor,0,12,12,12,1949.0028496855812,1951.004663500993,left,1,3,0.8506171912595164,S06I10,2022-12-01_09h11.58.489,t1_Paradigm,2021.1.4,60.34030131591606,
V,left,Distractor,0,13,13,13,1952.5027720514627,1954.5047254157835,left,1,3,0.75895021983888,S06I10,2022-12-01_09h11.58.489,t1_Paradigm,2021.1.4,60.34030131591606,
M,right,Target,0,14,14,14,1956.0028333246592,1958.00497275425,left,0,3,0.5384449307748582,S06I10,2022-12-01_09h11.58.489,t1_Paradigm,2021.1.4,60.34030131591606,
S,left,Pretarget,0,15,15,15,1959.5027232895081,1961.5044267489866,left,1,3,0.6070006730442401,S06I10,2022-12-01_09h11.58.489,t1_Paradigm,2021.1.4,60.34030131591606,
Q,left,Distractor,0,16,16,16,1963.0028586680419,1965.0048367341515,left,1,3,0.6267569532501511,S06I10,2022-12-01_09h11.58.489,t1_Paradigm,2021.1.4,60.34030131591606,
R,left,Pretarget,0,17,17,17,1966.5028467983648,1968.5049579973565,left,1,3,1.0785609199956525,S06I10,2022-12-01_09h11.58.489,t1_Paradigm,2021.1.4,60.34030131591606,
S,right,Target,0,18,18,18,1970.0028512895806,1972.0046541977208,right,1,3,0.6186172400193755,S06I10,2022-12-01_09h11.58.489,t1_Paradigm,2021.1.4,60.34030131591606,
F,left,Distractor,0,19,19,19,1973.5027890539495,1975.5048139572027,left,1,3,0.47866280676680617,S06I10,2022-12-01_09h11.58.489,t1_Paradigm,2021.1.4,60.34030131591606,
R,right,Target,0,20,20,20,1977.0028471191472,1979.0046756914526,left,0,3,0.7707028069416992,S06I10,2022-12-01_09h11.58.489,t1_Paradigm,2021.1.4,60.34030131591606,
P,left,Distractor,0,21,21,21,1980.5029549086757,1982.5047943882528,right,0,3,0.998519177257549,S06I10,2022-12-01_09h11.58.489,t1_Paradigm,2021.1.4,60.34030131591606,
L,left,Distractor,0,22,22,22,1984.0028009236557,1986.0042753303715,left,1,3,0.8270699919667095,S06I10,2022-12-01_09h11.58.489,t1_Paradigm,2021.1.4,60.34030131591606,
R,right,Target,0,23,23,23,1987.5028320414422,1989.5049175762979,left,0,3,0.8305404297425412,S06I10,2022-12-01_09h11.58.489,t1_Paradigm,2021.1.4,60.34030131591606,
H,left,Pretarget,0,24,24,24,1991.0029600415146,1993.0049008945643,left,1,3,0.7545430397731252,S06I10,2022-12-01_09h11.58.489,t1_Paradigm,2021.1.4,60.34030131591606,
G,left,Pretarget,0,25,25,25,1994.502826587821,1996.5050705989124,left,1,3,0.6624307949678041,S06I10,2022-12-01_09h11.58.489,t1_Paradigm,2021.1.4,60.34030131591606,
T,left,Distractor,0,26,26,26,1998.0027588985686,2000.004712583701,left,1,3,0.7787530163477641,S06I10,2022-12-01_09h11.58.489,t1_Paradigm,2021.1.4,60.34030131591606,
H,right,Target,0,27,27,27,2001.5028381366865,2003.504928804381,right,1,3,0.6384915754024405,S06I10,2022-12-01_09h11.58.489,t1_Paradigm,2021.1.4,60.34030131591606,
G,right,Target,0,28,28,28,2005.0028544976085,2007.0050718821294,right,1,3,1.0103176390693989,S06I10,2022-12-01_09h11.58.489,t1_Paradigm,2021.1.4,60.34030131591606,
D,left,Distractor,0,29,29,29,2008.502837174281,2010.5047902178194,left,1,3,0.5825154482154176,S06I10,2022-12-01_09h11.58.489,t1_Paradigm,2021.1.4,60.34030131591606,
N,left,Pretarget,0,30,30,30,2012.0028670088795,2014.004849566234,left,1,3,0.5066082036937587,S06I10,2022-12-01_09h11.58.489,t1_Paradigm,2021.1.4,60.34030131591606,
V,left,Distractor,0,31,31,31,2015.5028500063636,2017.5049047442153,left,1,3,0.6864255132677499,S06I10,2022-12-01_09h11.58.489,t1_Paradigm,2021.1.4,60.34030131591606,
R,left,Distractor,0,32,32,32,2019.0028458359593,2021.0040020069282,left,1,3,0.46733816975029185,S06I10,2022-12-01_09h11.58.489,t1_Paradigm,2021.1.4,60.34030131591606,
N,right,Target,0,33,33,33,2022.5029186580505,2024.5047635912488,left,0,3,0.45462285535177216,S06I10,2022-12-01_09h11.58.489,t1_Paradigm,2021.1.4,60.34030131591606,
Z,left,Distractor,0,34,34,34,2026.0017541461857,2028.0049361828133,left,1,3,0.5384243994485587,S06I10,2022-12-01_09h11.58.489,t1_Paradigm,2021.1.4,60.34030131591606,
N,left,Lure,0,35,35,35,2029.5028467983648,2031.5045781676017,left,1,3,0.5268026996054687,S06I10,2022-12-01_09h11.58.489,t1_Paradigm,2021.1.4,60.34030131591606,
Y,left,Pretarget,0,36,36,36,2033.0028897858283,2035.0049397116527,left,1,3,0.46637800888856873,S06I10,2022-12-01_09h11.58.489,t1_Paradigm,2021.1.4,60.34030131591606,
Y,left,Lure,0,37,37,37,2036.5028718209069,2038.5028763121518,left,1,3,0.6326411064364947,S06I10,2022-12-01_09h11.58.489,t1_Paradigm,2021.1.4,60.34030131591606,
B,left,Distractor,0,38,38,38,2040.002873745747,2042.0049195011088,left,1,3,0.6341941097052768,S06I10,2022-12-01_09h11.58.489,t1_Paradigm,2021.1.4,60.34030131591606,
Y,right,Target,0,39,39,39,2043.5028689336905,2045.5048075411469,right,1,3,0.7185634735797066,S06I10,2022-12-01_09h11.58.489,t1_Paradigm,2021.1.4,60.34030131591606,
J,left,Distractor,0,40,40,40,2047.0028731041239,2049.0045329345157,left,1,3,0.6426097127259709,S06I10,2022-12-01_09h11.58.489,t1_Paradigm,2021.1.4,60.34030131591606,
X,left,Distractor,0,41,41,41,2050.50288304899,2052.5043827990885,left,1,3,0.5029747984372079,S06I10,2022-12-01_09h11.58.489,t1_Paradigm,2021.1.4,60.34030131591606,
W,left,Pretarget,0,42,42,42,2054.002888823423,2056.0044851349667,right,0,3,0.9869000438193325,S06I10,2022-12-01_09h11.58.489,t1_Paradigm,2021.1.4,60.34030131591606,
S,left,Pretarget,0,43,43,43,2057.502952983865,2059.5048729847767,left,1,3,0.5906137779529672,S06I10,2022-12-01_09h11.58.489,t1_Paradigm,2021.1.4,60.34030131591606,
R,left,Distractor,0,44,44,44,2061.002702758182,2063.0046173054725,left,1,3,1.2349699376209173,S06I10,2022-12-01_09h11.58.489,t1_Paradigm,2021.1.4,60.34030131591606,
W,right,Target,0,45,45,45,2064.5029561918927,2066.504613776633,right,1,3,0.8708017423632555,S06I10,2022-12-01_09h11.58.489,t1_Paradigm,2021.1.4,60.34030131591606,
S,right,Target,0,46,46,46,2068.0028557808255,2070.0052127142844,left,0,3,1.242204988724552,S06I10,2022-12-01_09h11.58.489,t1_Paradigm,2021.1.4,60.34030131591606,
D,left,Distractor,0,47,47,47,2071.501896582369,2073.504850849451,left,1,3,0.6865657037997153,S06I10,2022-12-01_09h11.58.489,t1_Paradigm,2021.1.4,60.34030131591606,
T,left,Distractor,0,48,48,48,2075.002809585305,2077.004947090085,left,1,3,0.6266116298502311,S06I10,2022-12-01_09h11.58.489,t1_Paradigm,2021.1.4,60.34030131591606,
S,right,Target,0,49,49,49,2078.502933414944,2080.505149516248,right,1,3,0.7743615555809811,S06I10,2022-12-01_09h11.58.489,t1_Paradigm,2021.1.4,60.34030131591606,
K,left,Distractor,0,50,50,50,2082.0028432695253,2084.0047260574065,left,1,3,0.5548035952961072,S06I10,2022-12-01_09h11.58.489,t1_Paradigm,2021.1.4,60.34030131591606,
S,left,Lure,0,51,51,51,2085.502945926215,2087.5019235297514,left,1,3,0.8976153492112644,S06I10,2022-12-01_09h11.58.489,t1_Paradigm,2021.1.4,60.34030131591606,
T,left,Pretarget,0,52,52,52,2089.0027884123556,2091.0046047941723,left,1,3,0.7387541198986582,S06I10,2022-12-01_09h11.58.489,t1_Paradigm,2021.1.4,60.34030131591606,
V,left,Distractor,0,53,53,53,2092.502786808356,2094.504967300629,left,1,3,0.5183540539292153,S06I10,2022-12-01_09h11.58.489,t1_Paradigm,2021.1.4,60.34030131591606,
B,left,Distractor,0,54,54,54,2096.002853535203,2098.0046702378313,left,1,3,0.8111075181222986,S06I10,2022-12-01_09h11.58.489,t1_Paradigm,2021.1.4,60.34030131591606,
T,right,Target,0,55,55,55,2099.502693134127,2101.5047738569265,right,1,3,0.9107085685536731,S06I10,2022-12-01_09h11.58.489,t1_Paradigm,2021.1.4,60.34030131591606,
Y,left,Pretarget,0,56,56,56,2103.002886257018,2105.0044042928494,left,1,3,0.595169489417458,S06I10,2022-12-01_09h11.58.489,t1_Paradigm,2021.1.4,60.34030131591606,
T,left,Lure,0,57,57,57,2106.502889465046,2108.5022067980317,None,0,3,,S06I10,2022-12-01_09h11.58.489,t1_Paradigm,2021.1.4,60.34030131591606,
P,left,Pretarget,0,58,58,58,2110.0029549086757,2112.0044864181837,left,1,3,0.8109833676717244,S06I10,2022-12-01_09h11.58.489,t1_Paradigm,2021.1.4,60.34030131591606,
Y,right,Target,0,59,59,59,2113.5027941867884,2115.50486656875,left,0,3,0.8147406025964301,S06I10,2022-12-01_09h11.58.489,t1_Paradigm,2021.1.4,60.34030131591606,
R,left,Distractor,0,60,60,60,2117.002936622943,2119.0050843934005,left,1,3,1.0422679301409516,S06I10,2022-12-01_09h11.58.489,t1_Paradigm,2021.1.4,60.34030131591606,
P,right,Target,0,61,61,61,2120.50296100392,2122.504691089969,right,1,3,0.9027286148630083,S06I10,2022-12-01_09h11.58.489,t1_Paradigm,2021.1.4,60.34030131591606,
L,left,Distractor,0,62,62,62,2124.002905825939,2126.0044556211797,left,1,3,0.763112627872033,S06I10,2022-12-01_09h11.58.489,t1_Paradigm,2021.1.4,60.34030131591606,
V,left,Distractor,0,63,63,63,2127.502900693129,2129.5044065384427,left,1,3,0.5110272534366231,S06I10,2022-12-01_09h11.58.489,t1_Paradigm,2021.1.4,60.34030131591606,
H,left,Lure,0,0,0,0,2229.9165138044336,2231.9216463181656,None,0,3,,S06I10,2022-12-01_09h11.58.489,t1_Paradigm,2021.1.4,60.34030131591606,
B,left,Distractor,0,1,1,1,2233.419529986335,2235.421321666392,None,0,3,,S06I10,2022-12-01_09h11.58.489,t1_Paradigm,2021.1.4,60.34030131591606,
T,left,Distractor,0,2,2,2,2236.919731770875,2238.9213659371017,None,0,3,,S06I10,2022-12-01_09h11.58.489,t1_Paradigm,2021.1.4,60.34030131591606,
R,left,Distractor,0,3,3,3,2240.419508492574,2242.4212905485765,left,1,3,0.4423505687445868,S06I10,2022-12-01_09h11.58.489,t1_Paradigm,2021.1.4,60.34030131591606,
H,left,Pretarget,0,4,4,4,2243.9196849337604,2245.9216376565164,right,0,3,0.8458898506360129,S06I10,2022-12-01_09h11.58.489,t1_Paradigm,2021.1.4,60.34030131591606,
K,left,Distractor,0,5,5,5,2247.419539289607,2249.4213912804553,left,1,3,0.5942324262869079,S06I10,2022-12-01_09h11.58.489,t1_Paradigm,2021.1.4,60.34030131591606,
G,left,Distractor,0,6,6,6,2250.919501755736,2252.921363049856,left,1,3,0.5500544401293155,S06I10,2022-12-01_09h11.58.489,t1_Paradigm,2021.1.4,60.34030131591606,
H,right,Target,0,7,7,7,2254.4194818660035,2256.421842328302,left,0,3,0.8096202792949043,S06I10,2022-12-01_09h11.58.489,t1_Paradigm,2021.1.4,60.34030131591606,
Y,left,Pretarget,0,8,8,8,2257.919550838473,2259.9187552491203,left,1,3,0.5928459193673916,S06I10,2022-12-01_09h11.58.489,t1_Paradigm,2021.1.4,60.34030131591606,
S,left,Distractor,0,9,9,9,2261.4195774650434,2263.421735501179,left,1,3,0.7697468165133614,S06I10,2022-12-01_09h11.58.489,t1_Paradigm,2021.1.4,60.34030131591606,
P,left,Distractor,0,10,10,10,2264.919526136713,2266.9211157113896,left,1,3,0.8063092802476604,S06I10,2022-12-01_09h11.58.489,t1_Paradigm,2021.1.4,60.34030131591606,
Y,right,Target,0,11,11,11,2268.4195957507764,2270.4217387092067,left,0,3,1.1139713831653353,S06I10,2022-12-01_09h11.58.489,t1_Paradigm,2021.1.4,60.34030131591606,
H,left,Lure,0,12,12,12,2271.919596713182,2273.9217409548,left,1,3,0.9737458720919676,S06I10,2022-12-01_09h11.58.489,t1_Paradigm,2021.1.4,60.34030131591606,
Q,left,Distractor,0,13,13,13,2275.419853675703,2277.4214541576803,left,1,3,0.6580880960973445,S06I10,2022-12-01_09h11.58.489,t1_Paradigm,2021.1.4,60.34030131591606,
V,left,Pretarget,0,14,14,14,2278.918644251564,2280.921515430906,left,1,3,0.8058893502166029,S06I10,2022-12-01_09h11.58.489,t1_Paradigm,2021.1.4,60.34030131591606,
G,left,Distractor,0,15,15,15,2282.4196749888943,2284.420946969476,left,1,3,0.82646945034503,S06I10,2022-12-01_09h11.58.489,t1_Paradigm,2021.1.4,60.34030131591606,
Z,left,Pretarget,0,16,16,16,2285.919607299642,2287.9212690548447,left,1,3,1.0222944668785203,S06I10,2022-12-01_09h11.58.489,t1_Paradigm,2021.1.4,60.34030131591606,
V,right,Target,0,17,17,17,2289.4196743473003,2291.4208751097904,right,1,3,0.930838904081611,S06I10,2022-12-01_09h11.58.489,t1_Paradigm,2021.1.4,60.34030131591606,
N,left,Distractor,0,18,18,18,2292.919354507554,2294.921761165344,left,1,3,0.5816880994825624,S06I10,2022-12-01_09h11.58.489,t1_Paradigm,2021.1.4,60.34030131591606,
Z,right,Target,0,19,19,19,2296.419527419901,2298.4217909999425,left,0,3,0.553737569716759,S06I10,2022-12-01_09h11.58.489,t1_Paradigm,2021.1.4,60.34030131591606,
R,left,Distractor,0,20,20,20,2299.9196127532923,2301.92152665896,right,0,3,1.1179400266846642,S06I10,2022-12-01_09h11.58.489,t1_Paradigm,2021.1.4,60.34030131591606,
P,left,Distractor,0,21,21,21,2303.41962301897,2305.42152152615,left,1,3,0.5143430645402987,S06I10,2022-12-01_09h11.58.489,t1_Paradigm,2021.1.4,60.34030131591606,
Z,right,Target,0,22,22,22,2306.9196101868583,2308.9216979673365,left,0,3,0.6143018094007857,S06I10,2022-12-01_09h11.58.489,t1_Paradigm,2021.1.4,60.34030131591606,
D,left,Pretarget,0,23,23,23,2310.4195748986385,2312.4211044833355,left,1,3,0.6024622848781291,S06I10,2022-12-01_09h11.58.489,t1_Paradigm,2021.1.4,60.34030131591606,
K,left,Distractor,0,24,24,24,2313.9196390590514,2315.919928422605,left,1,3,0.6076682623242959,S06I10,2022-12-01_09h11.58.489,t1_Paradigm,2021.1.4,60.34030131591606,
W,left,Distractor,0,25,25,25,2317.4195976755873,2319.421837837057,left,1,3,0.6897772542142775,S06I10,2022-12-01_09h11.58.489,t1_Paradigm,2021.1.4,60.34030131591606,
D,right,Target,0,26,26,26,2320.919524853496,2322.9216928344977,right,1,3,0.7257375722692814,S06I10,2022-12-01_09h11.58.489,t1_Paradigm,2021.1.4,60.34030131591606,
G,left,Pretarget,0,27,27,27,2324.419643229485,2326.421679360792,right,0,3,1.0177936125837732,S06I10,2022-12-01_09h11.58.489,t1_Paradigm,2021.1.4,60.34030131591606,
V,left,Distractor,0,28,28,28,2327.9194568434323,2329.9212911901996,left,1,3,1.054222943377681,S06I10,2022-12-01_09h11.58.489,t1_Paradigm,2021.1.4,60.34030131591606,
D,right,Target,0,29,29,29,2331.4196294349968,2333.4216739071708,right,1,3,0.9301145327626728,S06I10,2022-12-01_09h11.58.489,t1_Paradigm,2021.1.4,60.34030131591606,
G,right,Target,0,30,30,30,2334.9195880515326,2336.921544944693,None,0,3,,S06I10,2022-12-01_09h11.58.489,t1_Paradigm,2021.1.4,60.34030131591606,
B,left,Pretarget,0,31,31,31,2338.419636171835,2340.421341235313,left,1,3,0.6982717745995615,S06I10,2022-12-01_09h11.58.489,t1_Paradigm,2021.1.4,60.34030131591606,
N,left,Distractor,0,32,32,32,2341.9195357607678,2343.921392884484,left,1,3,0.5423725116415881,S06I10,2022-12-01_09h11.58.489,t1_Paradigm,2021.1.4,60.34030131591606,
F,left,Distractor,0,33,33,33,2345.4195546880946,2347.421572533669,left,1,3,0.546113385586068,S06I10,2022-12-01_09h11.58.489,t1_Paradigm,2021.1.4,60.34030131591606,
B,right,Target,0,34,34,34,2348.919549555256,2350.9214541576803,left,0,3,0.5180281189677771,S06I10,2022-12-01_09h11.58.489,t1_Paradigm,2021.1.4,60.34030131591606,
Q,left,Pretarget,0,35,35,35,2352.41956270815,2354.421514147689,left,1,3,0.5380474569101352,S06I10,2022-12-01_09h11.58.489,t1_Paradigm,2021.1.4,60.34030131591606,
S,left,Pretarget,0,36,36,36,2355.9195874099096,2357.9208719017624,left,1,3,0.6387382722750772,S06I10,2022-12-01_09h11.58.489,t1_Paradigm,2021.1.4,60.34030131591606,
W,left,Distractor,0,37,37,37,2359.419448823377,2361.4211108993622,left,1,3,0.5785211405309383,S06I10,2022-12-01_09h11.58.489,t1_Paradigm,2021.1.4,60.34030131591606,
Q,right,Target,0,38,38,38,2362.9196044124255,2364.9207718114776,left,0,3,0.47074637189507484,S06I10,2022-12-01_09h11.58.489,t1_Paradigm,2021.1.4,60.34030131591606,
S,right,Target,0,39,39,39,2366.419626868592,2368.421197836753,right,1,3,0.7784158532740548,S06I10,2022-12-01_09h11.58.489,t1_Paradigm,2021.1.4,60.34030131591606,
T,left,Distractor,0,40,40,40,2369.9196554199734,2371.921087160008,left,1,3,0.7342000124626793,S06I10,2022-12-01_09h11.58.489,t1_Paradigm,2021.1.4,60.34030131591606,
G,left,Distractor,0,41,41,41,2373.419540572795,2375.421727160312,right,0,3,0.7378253976348788,S06I10,2022-12-01_09h11.58.489,t1_Paradigm,2021.1.4,60.34030131591606,
D,left,Distractor,0,42,42,42,2376.9197105979547,2378.9216180875956,left,1,3,0.5498738285095897,S06I10,2022-12-01_09h11.58.489,t1_Paradigm,2021.1.4,60.34030131591606,
S,left,Lure,0,43,43,43,2380.419641946297,2382.421414699027,left,1,3,1.4340841386874672,S06I10,2022-12-01_09h11.58.489,t1_Paradigm,2021.1.4,60.34030131591606,
Z,left,Pretarget,0,44,44,44,2383.9196345678356,2385.921785546321,left,1,3,0.5898393615207169,S06I10,2022-12-01_09h11.58.489,t1_Paradigm,2021.1.4,60.34030131591606,
J,left,Distractor,0,45,45,45,2387.4193949286127,2389.4214785386575,left,1,3,0.6581477653235197,S06I10,2022-12-01_09h11.58.489,t1_Paradigm,2021.1.4,60.34030131591606,
M,left,Pretarget,0,46,46,46,2390.9196467583242,2392.9186853142455,left,1,3,0.6809699517325498,S06I10,2022-12-01_09h11.58.489,t1_Paradigm,2021.1.4,60.34030131591606,
Z,right,Target,0,47,47,47,2394.4196496455406,2396.42167198236,right,1,3,0.9858070708578452,S06I10,2022-12-01_09h11.58.489,t1_Paradigm,2021.1.4,60.34030131591606,
P,left,Distractor,0,48,48,48,2397.9197391493362,2399.9218500275456,left,1,3,0.7174942400015425,S06I10,2022-12-01_09h11.58.489,t1_Paradigm,2021.1.4,60.34030131591606,
M,right,Target,0,49,49,49,2401.419575861044,2403.4218420074903,left,0,3,1.1537232619593851,S06I10,2022-12-01_09h11.58.489,t1_Paradigm,2021.1.4,60.34030131591606,
K,left,Distractor,0,50,50,50,2404.919604091643,2406.9215420574765,left,1,3,0.8379942679021042,S06I10,2022-12-01_09h11.58.489,t1_Paradigm,2021.1.4,60.34030131591606,
Y,left,Distractor,0,51,51,51,2408.419567520177,2410.4216427893552,left,1,3,0.7143131657794584,S06I10,2022-12-01_09h11.58.489,t1_Paradigm,2021.1.4,60.34030131591606,
X,left,Distractor,0,52,52,52,2411.9194905276527,2413.9215872905916,left,1,3,0.7819546218961477,S06I10,2022-12-01_09h11.58.489,t1_Paradigm,2021.1.4,60.34030131591606,
F,left,Pretarget,0,53,53,53,2415.4195976755873,2417.421560663992,left,1,3,0.6422741536807735,S06I10,2022-12-01_09h11.58.489,t1_Paradigm,2021.1.4,60.34030131591606,
M,left,Lure,0,54,54,54,2418.9195761818555,2420.921173455805,right,0,3,0.8863580806355458,S06I10,2022-12-01_09h11.58.489,t1_Paradigm,2021.1.4,60.34030131591606,
V,left,Distractor,0,55,55,55,2422.4195957507764,2424.421515430906,left,1,3,0.7142907096131239,S06I10,2022-12-01_09h11.58.489,t1_Paradigm,2021.1.4,60.34030131591606,
F,right,Target,0,56,56,56,2425.919518758252,2427.9217531452887,right,1,3,0.7976912510348484,S06I10,2022-12-01_09h11.58.489,t1_Paradigm,2021.1.4,60.34030131591606,
S,left,Distractor,0,57,57,57,2429.4195527632837,2431.421602689079,left,1,3,1.185917041846551,S06I10,2022-12-01_09h11.58.489,t1_Paradigm,2021.1.4,60.34030131591606,
D,left,Distractor,0,58,58,58,2432.919689745817,2434.9215622680204,left,1,3,0.8220407765184063,S06I10,2022-12-01_09h11.58.489,t1_Paradigm,2021.1.4,60.34030131591606,
F,right,Target,0,59,59,59,2436.419631680619,2438.4216219372174,right,1,3,1.017932840710273,S06I10,2022-12-01_09h11.58.489,t1_Paradigm,2021.1.4,60.34030131591606,
V,left,Pretarget,0,60,60,60,2439.919612432481,2441.921590177808,left,1,3,0.669946868729312,S06I10,2022-12-01_09h11.58.489,t1_Paradigm,2021.1.4,60.34030131591606,
J,left,Distractor,0,61,61,61,2443.4196114700753,2445.421505806822,left,1,3,0.6901195501559414,S06I10,2022-12-01_09h11.58.489,t1_Paradigm,2021.1.4,60.34030131591606,
V,left,Lure,0,62,62,62,2446.91897660261,2448.9188190887508,left,1,3,0.584722567058634,S06I10,2022-12-01_09h11.58.489,t1_Paradigm,2021.1.4,60.34030131591606,
V,right,Target,0,63,63,63,2450.419626868592,2452.4196653648396,left,0,3,0.9878316532995086,S06I10,2022-12-01_09h11.58.489,t1_Paradigm,2021.1.4,60.34030131591606,
R,left,Distractor,0,0,0,0,2517.8277911552286,2519.821205407701,None,0,4,,S06I10,2022-12-01_09h11.58.489,t1_Paradigm,2021.1.4,60.34030131591606,
F,left,Distractor,0,1,1,1,2521.3193938378827,2523.321553157235,None,0,4,,S06I10,2022-12-01_09h11.58.489,t1_Paradigm,2021.1.4,60.34030131591606,
P,left,Pretarget,0,2,2,2,2524.819761477178,2526.8218482952216,None,0,4,,S06I10,2022-12-01_09h11.58.489,t1_Paradigm,2021.1.4,60.34030131591606,
H,left,Distractor,0,3,3,3,2528.319589206396,2530.3217414680985,None,0,4,,S06I10,2022-12-01_09h11.58.489,t1_Paradigm,2021.1.4,60.34030131591606,
Z,left,Distractor,0,4,4,4,2531.819583431963,2533.821831613517,left,1,4,0.6098089751321822,S06I10,2022-12-01_09h11.58.489,t1_Paradigm,2021.1.4,60.34030131591606,
T,left,Distractor,0,5,5,5,2535.3197043743858,2537.321916626068,left,1,4,0.565663389977999,S06I10,2022-12-01_09h11.58.489,t1_Paradigm,2021.1.4,60.34030131591606,
P,right,Target,0,6,6,6,2538.819684805465,2540.821424194757,left,0,4,0.9061246265191585,S06I10,2022-12-01_09h11.58.489,t1_Paradigm,2021.1.4,60.34030131591606,
G,left,Distractor,0,7,7,7,2542.319598509668,2544.321842520789,left,1,4,0.6537896679947153,S06I10,2022-12-01_09h11.58.489,t1_Paradigm,2021.1.4,60.34030131591606,
L,left,Distractor,0,8,8,8,2545.819691542303,2547.821205407701,left,1,4,0.610317125741858,S06I10,2022-12-01_09h11.58.489,t1_Paradigm,2021.1.4,60.34030131591606,
P,left,Lure,0,9,9,9,2549.319724264118,2551.3217533377756,right,0,4,0.8698611504223663,S06I10,2022-12-01_09h11.58.489,t1_Paradigm,2021.1.4,60.34030131591606,
Q,left,Pretarget,0,10,10,10,2552.819651442027,2554.8214899591985,left,1,4,0.65009627272957,S06I10,2022-12-01_09h11.58.489,t1_Paradigm,2021.1.4,60.34030131591606,
D,left,Distractor,0,11,11,11,2556.319781046099,2558.3188160732097,left,1,4,0.6728212560992688,S06I10,2022-12-01_09h11.58.489,t1_Paradigm,2021.1.4,60.34030131591606,
M,left,Pretarget,0,12,12,12,2559.819529537199,2561.8217603954254,left,1,4,0.561972240335308,S06I10,2022-12-01_09h11.58.489,t1_Paradigm,2021.1.4,60.34030131591606,
C,left,Distractor,0,13,13,13,2563.318878629623,2565.3218980195525,left,1,4,0.5497041241906118,S06I10,2022-12-01_09h11.58.489,t1_Paradigm,2021.1.4,60.34030131591606,
Q,right,Target,0,14,14,14,2566.8196918630856,2568.821753658587,left,0,4,0.7780183794093318,S06I10,2022-12-01_09h11.58.489,t1_Paradigm,2021.1.4,60.34030131591606,
R,left,Distractor,0,15,15,15,2570.319599792885,2572.3199074421427,right,0,4,0.7999317333160434,S06I10,2022-12-01_09h11.58.489,t1_Paradigm,2021.1.4,60.34030131591606,
M,right,Target,0,16,16,16,2573.819634439511,2575.82191341804,right,1,4,1.1217691212659702,S06I10,2022-12-01_09h11.58.489,t1_Paradigm,2021.1.4,60.34030131591606,
S,left,Distractor,0,17,17,17,2577.3196896174923,2579.3216721748176,left,1,4,0.48591133157606237,S06I10,2022-12-01_09h11.58.489,t1_Paradigm,2021.1.4,60.34030131591606,
Z,left,Distractor,0,18,18,18,2580.8196283442667,2582.8208852471435,left,1,4,0.5068192915059626,S06I10,2022-12-01_09h11.58.489,t1_Paradigm,2021.1.4,60.34030131591606,
L,left,Pretarget,0,19,19,19,2584.3196995623584,2586.3216779492795,left,1,4,0.5900305596296676,S06I10,2022-12-01_09h11.58.489,t1_Paradigm,2021.1.4,60.34030131591606,
M,right,Target,0,20,20,20,2587.819697316736,2589.8216615883575,left,0,4,0.7221853299706709,S06I10,2022-12-01_09h11.58.489,t1_Paradigm,2021.1.4,60.34030131591606,
P,left,Distractor,0,21,21,21,2591.319702449575,2593.320856695733,right,0,4,0.7267978234158363,S06I10,2022-12-01_09h11.58.489,t1_Paradigm,2021.1.4,60.34030131591606,
F,left,Distractor,0,22,22,22,2594.8188369253476,2596.821275342547,left,1,4,0.50646159707685,S06I10,2022-12-01_09h11.58.489,t1_Paradigm,2021.1.4,60.34030131591606,
L,right,Target,0,23,23,23,2598.319682880625,2600.3216962349834,left,0,4,0.365714140876662,S06I10,2022-12-01_09h11.58.489,t1_Paradigm,2021.1.4,60.34030131591606,
L,left,Lure,0,24,24,24,2601.81957412872,2603.8196787102206,left,1,4,0.7559702885628212,S06I10,2022-12-01_09h11.58.489,t1_Paradigm,2021.1.4,60.34030131591606,
V,left,Pretarget,0,25,25,25,2605.3196039633185,2607.3217138791224,left,1,4,0.982233655609889,S06I10,2022-12-01_09h11.58.489,t1_Paradigm,2021.1.4,60.34030131591606,
Z,left,Distractor,0,26,26,26,2608.8197120736295,2610.8215396835294,left,1,4,0.6500520020199474,S06I10,2022-12-01_09h11.58.489,t1_Paradigm,2021.1.4,60.34030131591606,
H,left,Distractor,0,27,27,27,2612.3197925949644,2614.3216570971417,left,1,4,0.7981374868249986,S06I10,2022-12-01_09h11.58.489,t1_Paradigm,2021.1.4,60.34030131591606,
X,left,Distractor,0,28,28,28,2615.819697316736,2617.8215284554753,left,1,4,0.5941839851730037,S06I10,2022-12-01_09h11.58.489,t1_Paradigm,2021.1.4,60.34030131591606,
V,right,Target,0,29,29,29,2619.3197043743858,2621.3214578789775,left,0,4,0.5983297114726156,S06I10,2022-12-01_09h11.58.489,t1_Paradigm,2021.1.4,60.34030131591606,
C,left,Distractor,0,30,30,30,2622.8197139984404,2624.8214970168483,left,1,4,0.5541504420980345,S06I10,2022-12-01_09h11.58.489,t1_Paradigm,2021.1.4,60.34030131591606,
S,left,Pretarget,0,31,31,31,2626.3196649157326,2628.32137158321,left,1,4,0.5425874490756541,S06I10,2022-12-01_09h11.58.489,t1_Paradigm,2021.1.4,60.34030131591606,
D,left,Distractor,0,32,32,32,2629.8196315522946,2631.8215749717783,left,1,4,0.6901667080528568,S06I10,2022-12-01_09h11.58.489,t1_Paradigm,2021.1.4,60.34030131591606,
V,left,Distractor,0,33,33,33,2633.3197435122565,2635.321643623436,left,1,4,0.7581074725603685,S06I10,2022-12-01_09h11.58.489,t1_Paradigm,2021.1.4,60.34030131591606,
R,left,Distractor,0,34,34,34,2636.8196944295196,2638.8212121445395,left,1,4,0.4263807164388709,S06I10,2022-12-01_09h11.58.489,t1_Paradigm,2021.1.4,60.34030131591606,
S,right,Target,0,35,35,35,2640.319667802949,2642.3211560041527,right,1,4,0.6705124429427087,S06I10,2022-12-01_09h11.58.489,t1_Paradigm,2021.1.4,60.34030131591606,
Y,left,Distractor,0,36,36,36,2643.8196572164597,2645.821081578062,left,1,4,0.3545579249912407,S06I10,2022-12-01_09h11.58.489,t1_Paradigm,2021.1.4,60.34030131591606,
N,left,Pretarget,0,37,37,37,2647.3193110709253,2649.320148043771,left,1,4,0.4874797333322931,S06I10,2022-12-01_09h11.58.489,t1_Paradigm,2021.1.4,60.34030131591606,
Z,left,Pretarget,0,38,38,38,2650.8198063894815,2652.821631112165,left,1,4,0.40991233760723844,S06I10,2022-12-01_09h11.58.489,t1_Paradigm,2021.1.4,60.34030131591606,
P,left,Pretarget,0,39,39,39,2654.31964310116,2656.321797608485,left,1,4,0.557955155702075,S06I10,2022-12-01_09h11.58.489,t1_Paradigm,2021.1.4,60.34030131591606,
M,left,Distractor,0,40,40,40,2657.819659462082,2659.8215246058244,left,1,4,0.594234351097839,S06I10,2022-12-01_09h11.58.489,t1_Paradigm,2021.1.4,60.34030131591606,
N,right,Target,0,41,41,41,2661.319659462082,2663.3216458690586,left,0,4,0.7581453272432555,S06I10,2022-12-01_09h11.58.489,t1_Paradigm,2021.1.4,60.34030131591606,
Z,right,Target,0,42,42,42,2664.8197322841734,2666.8216962349834,left,0,4,0.6338951220968738,S06I10,2022-12-01_09h11.58.489,t1_Paradigm,2021.1.4,60.34030131591606,
P,right,Target,0,43,43,43,2668.3195327452268,2670.3219031523913,left,0,4,0.41389413399156183,S06I10,2022-12-01_09h11.58.489,t1_Paradigm,2021.1.4,60.34030131591606,
X,left,Pretarget,0,44,44,44,2671.819742549851,2673.821482259955,left,1,4,0.6100479727610946,S06I10,2022-12-01_09h11.58.489,t1_Paradigm,2021.1.4,60.34030131591606,
Z,left,Lure,0,45,45,45,2675.31964310116,2677.3213228212844,right,0,4,1.0147755058424082,S06I10,2022-12-01_09h11.58.489,t1_Paradigm,2021.1.4,60.34030131591606,
R,left,Pretarget,0,46,46,46,2678.819493607356,2680.8218948115245,left,1,4,0.6657716286426876,S06I10,2022-12-01_09h11.58.489,t1_Paradigm,2021.1.4,60.34030131591606,
K,left,Distractor,0,47,47,47,2682.3197874621546,2684.3219361950178,left,1,4,0.5898489855753724,S06I10,2022-12-01_09h11.58.489,t1_Paradigm,2021.1.4,60.34030131591606,
X,right,Target,0,48,48,48,2685.819741266634,2687.821829047083,left,0,4,0.5459764030820224,S06I10,2022-12-01_09h11.58.489,t1_Paradigm,2021.1.4,60.34030131591606,
B,left,Distractor,0,49,49,49,2689.3196896174923,2691.320250379649,left,1,4,0.5995301531802397,S06I10,2022-12-01_09h11.58.489,t1_Paradigm,2021.1.4,60.34030131591606,
R,right,Target,0,50,50,50,2692.8196899382747,2694.821587162267,right,1,4,0.6020840591518208,S06I10,2022-12-01_09h11.58.489,t1_Paradigm,2021.1.4,60.34030131591606,
Y,left,Pretarget,0,51,51,51,2696.3197428706335,2698.321491563227,left,1,4,0.5261607744905632,S06I10,2022-12-01_09h11.58.489,t1_Paradigm,2021.1.4,60.34030131591606,
W,left,Pretarget,0,52,52,52,2699.8197213769017,2701.821230109461,left,1,4,0.546609666547738,S06I10,2022-12-01_09h11.58.489,t1_Paradigm,2021.1.4,60.34030131591606,
Z,left,Distractor,0,53,53,53,2703.31981665513,2705.3203729260713,right,0,4,0.9672730469028465,S06I10,2022-12-01_09h11.58.489,t1_Paradigm,2021.1.4,60.34030131591606,
Q,left,Distractor,0,54,54,54,2706.819672294165,2708.820396986237,left,1,4,0.4913656098942738,S06I10,2022-12-01_09h11.58.489,t1_Paradigm,2021.1.4,60.34030131591606,
Y,right,Target,0,55,55,55,2710.319746399473,2712.321824235056,left,0,4,0.7178044556931127,S06I10,2022-12-01_09h11.58.489,t1_Paradigm,2021.1.4,60.34030131591606,
W,right,Target,0,56,56,56,2713.819822429592,2715.8217244655825,left,0,4,0.658073018421419,S06I10,2022-12-01_09h11.58.489,t1_Paradigm,2021.1.4,60.34030131591606,
H,left,Pretarget,0,57,57,57,2717.3198660586786,2719.321724144771,left,1,4,0.7422601667058188,S06I10,2022-12-01_09h11.58.489,t1_Paradigm,2021.1.4,60.34030131591606,
M,left,Distractor,0,58,58,58,2720.8197573067446,2722.8218213478394,right,0,4,0.9858237525622826,S06I10,2022-12-01_09h11.58.489,t1_Paradigm,2021.1.4,60.34030131591606,
R,left,Pretarget,0,59,59,59,2724.3198121639143,2726.3213837736985,left,1,4,0.6223654924833681,S06I10,2022-12-01_09h11.58.489,t1_Paradigm,2021.1.4,60.34030131591606,
J,left,Distractor,0,60,60,60,2727.8197480034723,2729.821627262514,left,1,4,0.5461829996784218,S06I10,2022-12-01_09h11.58.489,t1_Paradigm,2021.1.4,60.34030131591606,
H,right,Target,0,61,61,61,2731.3196084545343,2733.3220513629785,left,0,4,0.5655896054813638,S06I10,2022-12-01_09h11.58.489,t1_Paradigm,2021.1.4,60.34030131591606,
Z,left,Distractor,0,62,62,62,2734.8197524947172,2736.8216295081365,right,0,4,0.7782487153599504,S06I10,2022-12-01_09h11.58.489,t1_Paradigm,2021.1.4,60.34030131591606,
R,right,Target,0,63,63,63,2738.3195311412273,2740.318799070694,left,0,4,0.5129247981822118,S06I10,2022-12-01_09h11.58.489,t1_Paradigm,2021.1.4,60.34030131591606,
J,left,Pretarget,0,0,0,0,2747.4174694740504,2749.42140282935,left,1,4,0.7543216862832196,S06I10,2022-12-01_09h11.58.489,t1_Paradigm,2021.1.4,60.34030131591606,
G,left,Pretarget,0,1,1,1,2750.9197231092257,2752.9210528341937,left,1,4,0.35866419263766147,S06I10,2022-12-01_09h11.58.489,t1_Paradigm,2021.1.4,60.34030131591606,
Z,left,Distractor,0,2,2,2,2754.4198350691877,2756.4216546590324,left,1,4,0.8260331593919545,S06I10,2022-12-01_09h11.58.489,t1_Paradigm,2021.1.4,60.34030131591606,
F,left,Distractor,0,3,3,3,2757.9198270491324,2759.918814597506,left,1,4,0.6091907893714961,S06I10,2022-12-01_09h11.58.489,t1_Paradigm,2021.1.4,60.34030131591606,
J,right,Target,0,4,4,4,2761.418810747884,2763.4218118520803,right,1,4,1.2019609994313214,S06I10,2022-12-01_09h11.58.489,t1_Paradigm,2021.1.4,60.34030131591606,
G,right,Target,0,5,5,5,2764.9196900665993,2766.921756674128,left,0,4,0.8539480800973251,S06I10,2022-12-01_09h11.58.489,t1_Paradigm,2021.1.4,60.34030131591606,
H,left,Distractor,0,6,6,6,2768.419710277143,2770.422086779552,left,1,4,0.825577299518045,S06I10,2022-12-01_09h11.58.489,t1_Paradigm,2021.1.4,60.34030131591606,
P,left,Distractor,0,7,7,7,2771.9197673799354,2773.9216745487647,left,1,4,0.5900443541177083,S06I10,2022-12-01_09h11.58.489,t1_Paradigm,2021.1.4,60.34030131591606,
G,left,Lure,0,8,8,8,2775.4196692144615,2777.4217294059345,right,0,4,1.0259769548429176,S06I10,2022-12-01_09h11.58.489,t1_Paradigm,2021.1.4,60.34030131591606,
S,left,Distractor,0,9,9,9,2778.9197032194934,2780.9189310487127,left,1,4,0.6809410795394797,S06I10,2022-12-01_09h11.58.489,t1_Paradigm,2021.1.4,60.34030131591606,
R,left,Pretarget,0,10,10,10,2782.419790156884,2784.420631941757,right,0,4,0.859234578878386,S06I10,2022-12-01_09h11.58.489,t1_Paradigm,2021.1.4,60.34030131591606,
T,left,Pretarget,0,11,11,11,2785.919745565392,2787.9218657468446,left,1,4,0.5739452185225673,S06I10,2022-12-01_09h11.58.489,t1_Paradigm,2021.1.4,60.34030131591606,
X,left,Distractor,0,12,12,12,2789.419852392486,2791.4215375662316,left,1,4,0.5942827922408469,S06I10,2022-12-01_09h11.58.489,t1_Paradigm,2021.1.4,60.34030131591606,
F,left,Pretarget,0,13,13,13,2792.919667610462,2794.9190952994104,left,1,4,0.5208720300870482,S06I10,2022-12-01_09h11.58.489,t1_Paradigm,2021.1.4,60.34030131591606,
R,right,Target,0,14,14,14,2796.4196278309973,2798.421702137741,left,0,4,0.3460018105979543,S06I10,2022-12-01_09h11.58.489,t1_Paradigm,2021.1.4,60.34030131591606,
T,right,Target,0,15,15,15,2799.9198735654354,2801.9211837214534,right,1,4,0.7502965815947391,S06I10,2022-12-01_09h11.58.489,t1_Paradigm,2021.1.4,60.34030131591606,
C,left,Distractor,0,16,16,16,2803.4189413143613,2805.4201905179652,left,1,4,0.4675046660704538,S06I10,2022-12-01_09h11.58.489,t1_Paradigm,2021.1.4,60.34030131591606,
F,right,Target,0,17,17,17,2806.9196339262417,2808.9216748695762,left,0,4,0.45405567713896744,S06I10,2022-12-01_09h11.58.489,t1_Paradigm,2021.1.4,60.34030131591606,
M,left,Distractor,0,18,18,18,2810.4197654551244,2812.421993105323,left,1,4,0.5538216198910959,S06I10,2022-12-01_09h11.58.489,t1_Paradigm,2021.1.4,60.34030131591606,
N,left,Distractor,0,19,19,19,2813.9197510190133,2815.921761165344,left,1,4,0.7017810294346418,S06I10,2022-12-01_09h11.58.489,t1_Paradigm,2021.1.4,60.34030131591606,
R,left,Lure,0,20,20,20,2817.4197295252816,2819.4217884335376,right,0,4,0.9142893622629344,S06I10,2022-12-01_09h11.58.489,t1_Paradigm,2021.1.4,60.34030131591606,
F,right,Target,0,21,21,21,2820.9197946481,2822.921014337917,left,0,4,0.6947901087696664,S06I10,2022-12-01_09h11.58.489,t1_Paradigm,2021.1.4,60.34030131591606,
P,left,Distractor,0,22,22,22,2824.419714768388,2826.4211137865786,left,1,4,0.8428130371321458,S06I10,2022-12-01_09h11.58.489,t1_Paradigm,2021.1.4,60.34030131591606,
L,left,Pretarget,0,23,23,23,2827.9198453348654,2829.921649205382,left,1,4,0.7180906112189405,S06I10,2022-12-01_09h11.58.489,t1_Paradigm,2021.1.4,60.34030131591606,
T,left,Distractor,0,24,24,24,2831.4187732140417,2833.420717595931,left,1,4,0.4669894578109961,S06I10,2022-12-01_09h11.58.489,t1_Paradigm,2021.1.4,60.34030131591606,
F,left,Distractor,0,25,25,25,2834.9197359413083,2836.9218625388166,right,0,4,0.7417536200664472,S06I10,2022-12-01_09h11.58.489,t1_Paradigm,2021.1.4,60.34030131591606,
V,left,Distractor,0,26,26,26,2838.4196156405087,2840.4215330750158,left,1,4,0.5702091565763112,S06I10,2022-12-01_09h11.58.489,t1_Paradigm,2021.1.4,60.34030131591606,
L,right,Target,0,27,27,27,2841.9194918108697,2843.9218144185143,right,1,4,0.830071096192114,S06I10,2022-12-01_09h11.58.489,t1_Paradigm,2021.1.4,60.34030131591606,
S,left,Pretarget,0,28,28,28,2845.419814858644,2847.4216646038985,left,1,4,0.7061971919611096,S06I10,2022-12-01_09h11.58.489,t1_Paradigm,2021.1.4,60.34030131591606,
W,left,Distractor,0,29,29,29,2848.91973979093,2850.9216816064145,left,1,4,0.45412689523072913,S06I10,2022-12-01_09h11.58.489,t1_Paradigm,2021.1.4,60.34030131591606,
Q,left,Distractor,0,30,30,30,2852.419790156884,2854.4216854560364,left,1,4,0.5061302084650379,S06I10,2022-12-01_09h11.58.489,t1_Paradigm,2021.1.4,60.34030131591606,
L,right,Target,0,31,31,31,2855.919907891279,2857.9217149698234,left,0,4,0.5740039253141731,S06I10,2022-12-01_09h11.58.489,t1_Paradigm,2021.1.4,60.34030131591606,
S,right,Target,0,32,32,32,2859.4198042721837,2861.4218275714084,left,0,4,0.7859200573875569,S06I10,2022-12-01_09h11.58.489,t1_Paradigm,2021.1.4,60.34030131591606,
Z,left,Pretarget,0,33,33,33,2862.919805876183,2864.9214551200857,left,1,4,0.8543202105793171,S06I10,2022-12-01_09h11.58.489,t1_Paradigm,2021.1.4,60.34030131591606,
F,left,Distractor,0,34,34,34,2866.4197699463402,2868.4214426088147,left,1,4,0.6983137997158337,S06I10,2022-12-01_09h11.58.489,t1_Paradigm,2021.1.4,60.34030131591606,
V,left,Distractor,0,35,35,35,2869.919790798478,2871.9217261979065,left,1,4,0.7659976017021108,S06I10,2022-12-01_09h11.58.489,t1_Paradigm,2021.1.4,60.34030131591606,
M,left,Distractor,0,36,36,36,2873.419803951372,2875.421759882127,left,1,4,0.5940944813482929,S06I10,2022-12-01_09h11.58.489,t1_Paradigm,2021.1.4,60.34030131591606,
Z,right,Target,0,37,37,37,2876.919609224453,2878.9213011350657,right,1,4,0.6785568778868765,S06I10,2022-12-01_09h11.58.489,t1_Paradigm,2021.1.4,60.34030131591606,
H,left,Pretarget,0,38,38,38,2880.419797856128,2882.4211753806158,left,1,4,0.4265658192744013,S06I10,2022-12-01_09h11.58.489,t1_Paradigm,2021.1.4,60.34030131591606,
L,left,Distractor,0,39,39,39,2883.9198578461364,2885.921458648925,left,1,4,0.7660614413034637,S06I10,2022-12-01_09h11.58.489,t1_Paradigm,2021.1.4,60.34030131591606,
G,left,Distractor,0,40,40,40,2887.4195963923703,2889.421743521234,left,1,4,0.770029122417327,S06I10,2022-12-01_09h11.58.489,t1_Paradigm,2021.1.4,60.34030131591606,
K,left,Distractor,0,41,41,41,2890.9198020265612,2892.9214503080584,left,1,4,0.5662818965502083,S06I10,2022-12-01_09h11.58.489,t1_Paradigm,2021.1.4,60.34030131591606,
H,right,Target,0,42,42,42,2894.419866187003,2896.4218978270655,right,1,4,0.6818630649650004,S06I10,2022-12-01_09h11.58.489,t1_Paradigm,2021.1.4,60.34030131591606,
B,left,Distractor,0,43,43,43,2897.9197086731438,2899.9221714713203,left,1,4,0.49395031289895996,S06I10,2022-12-01_09h11.58.489,t1_Paradigm,2021.1.4,60.34030131591606,
Z,left,Distractor,0,44,44,44,2901.419758076663,2903.4218105688924,left,1,4,0.5620918995409738,S06I10,2022-12-01_09h11.58.489,t1_Paradigm,2021.1.4,60.34030131591606,
T,left,Pretarget,0,45,45,45,2904.91978759045,2906.921395130077,left,1,4,0.53447596647311,S06I10,2022-12-01_09h11.58.489,t1_Paradigm,2021.1.4,60.34030131591606,
H,right,Target,0,46,46,46,2908.419772512774,2910.4213710699114,left,0,4,0.8103869964834303,S06I10,2022-12-01_09h11.58.489,t1_Paradigm,2021.1.4,60.34030131591606,
F,left,Distractor,0,47,47,47,2911.919657665596,2913.9189262366563,right,0,4,0.7366519033384975,S06I10,2022-12-01_09h11.58.489,t1_Paradigm,2021.1.4,60.34030131591606,
R,left,Distractor,0,48,48,48,2915.4197705879633,2917.421756674128,left,1,4,0.6581468029180542,S06I10,2022-12-01_09h11.58.489,t1_Paradigm,2021.1.4,60.34030131591606,
T,right,Target,0,49,49,49,2918.9198828687076,2920.92167198236,left,0,4,0.5820939141849522,S06I10,2022-12-01_09h11.58.489,t1_Paradigm,2021.1.4,60.34030131591606,
H,right,Target,0,50,50,50,2922.4195184374403,2924.421659150248,right,1,4,1.0340990239055827,S06I10,2022-12-01_09h11.58.489,t1_Paradigm,2021.1.4,60.34030131591606,
Y,left,Pretarget,0,51,51,51,2925.9198155002377,2927.9216954009025,left,1,4,0.43010939995292574,S06I10,2022-12-01_09h11.58.489,t1_Paradigm,2021.1.4,60.34030131591606,
H,left,Distractor,0,52,52,52,2929.419822878699,2931.4188810035703,left,1,4,0.6610474960471038,S06I10,2022-12-01_09h11.58.489,t1_Paradigm,2021.1.4,60.34030131591606,
S,left,Distractor,0,53,53,53,2932.919891530357,2934.9217489748553,left,1,4,0.5021291639422998,S06I10,2022-12-01_09h11.58.489,t1_Paradigm,2021.1.4,60.34030131591606,
Q,left,Distractor,0,54,54,54,2936.419758718257,2938.4215773457254,left,1,4,0.618344237387646,S06I10,2022-12-01_09h11.58.489,t1_Paradigm,2021.1.4,60.34030131591606,
Y,right,Target,0,55,55,55,2939.9198126130213,2941.9218756917107,left,0,4,0.49440232312190346,S06I10,2022-12-01_09h11.58.489,t1_Paradigm,2021.1.4,60.34030131591606,
R,left,Distractor,0,56,56,56,2943.419655099162,2945.4216119923512,left,1,4,0.6100774865481071,S06I10,2022-12-01_09h11.58.489,t1_Paradigm,2021.1.4,60.34030131591606,
H,left,Pretarget,0,57,57,57,2946.919834106782,2948.919922968984,right,0,4,0.6639793069916777,S06I10,2022-12-01_09h11.58.489,t1_Paradigm,2021.1.4,60.34030131591606,
J,left,Distractor,0,58,58,58,2950.4198783774627,2952.42168256882,left,1,4,0.5381979131198023,S06I10,2022-12-01_09h11.58.489,t1_Paradigm,2021.1.4,60.34030131591606,
V,left,Distractor,0,59,59,59,2953.9197988185333,2955.9213627290737,left,1,4,0.5905316525895614,S06I10,2022-12-01_09h11.58.489,t1_Paradigm,2021.1.4,60.34030131591606,
Y,left,Lure,0,60,60,60,2957.4198546381085,2959.4215792705363,right,0,4,0.9623288440343458,S06I10,2022-12-01_09h11.58.489,t1_Paradigm,2021.1.4,60.34030131591606,
H,right,Target,0,61,61,61,2960.91982480351,2962.9217720726156,left,0,4,1.1901577255921438,S06I10,2022-12-01_09h11.58.489,t1_Paradigm,2021.1.4,60.34030131591606,
L,left,Distractor,0,62,62,62,2964.419826086727,2966.4218740877113,left,1,4,0.5699566852999851,S06I10,2022-12-01_09h11.58.489,t1_Paradigm,2021.1.4,60.34030131591606,
P,left,Distractor,0,63,63,63,2967.9199143073056,2969.92059697432,left,1,4,0.6233147460443433,S06I10,2022-12-01_09h11.58.489,t1_Paradigm,2021.1.4,60.34030131591606,
