Letter,CorrAnswer,Stimulus,nback_run.thisRepN,nback_run.thisTrialN,nback_run.thisN,nback_run.thisIndex,fixcross.started,nback_trial.started,trial_resp.keys,trial_resp.corr,currentlevel,trial_resp.rt,Participant,date,expName,psychopyVersion,frameRate,
H,left,Distractor,0,0,0,0,384.6053958264383,386.5513827049872,None,0,1,,S11I02,2023-01-26_10h34.00.904,t1_Paradigm,2021.1.4,59.979930923644176,
Q,left,Pretarget,0,1,1,1,388.0493210705754,390.0507739830791,left,1,1,0.6527911222510738,S11I02,2023-01-26_10h34.00.904,t1_Paradigm,2021.1.4,59.979930923644176,
Q,right,Target,0,2,2,2,391.5495695317659,393.5493401582935,None,0,1,,S11I02,2023-01-26_10h34.00.904,t1_Paradigm,2021.1.4,59.979930923644176,
T,left,Distractor,0,3,3,3,395.04936437885044,397.0509135319735,None,0,1,,S11I02,2023-01-26_10h34.00.904,t1_Paradigm,2021.1.4,59.979930923644176,
Q,left,Lure,0,4,4,4,398.5491662835848,400.54898663442873,None,0,1,,S11I02,2023-01-26_10h34.00.904,t1_Paradigm,2021.1.4,59.979930923644176,
L,left,Distractor,0,5,5,5,402.04912281490397,404.05074767732003,None,0,1,,S11I02,2023-01-26_10h34.00.904,t1_Paradigm,2021.1.4,59.979930923644176,
V,left,Pretarget,0,6,6,6,405.549565682144,407.5511270257557,None,0,1,,S11I02,2023-01-26_10h34.00.904,t1_Paradigm,2021.1.4,59.979930923644176,
V,right,Target,0,7,7,7,409.0496405894228,411.04921520588687,None,0,1,,S11I02,2023-01-26_10h34.00.904,t1_Paradigm,2021.1.4,59.979930923644176,
K,left,Distractor,0,8,8,8,412.5491678875842,414.5508562688192,None,0,1,,S11I02,2023-01-26_10h34.00.904,t1_Paradigm,2021.1.4,59.979930923644176,
G,left,Pretarget,0,9,9,9,416.0493977422593,418.05087343172636,None,0,1,,S11I02,2023-01-26_10h34.00.904,t1_Paradigm,2021.1.4,59.979930923644176,
G,right,Target,0,10,10,10,419.549339195888,421.5489304940711,None,0,1,,S11I02,2023-01-26_10h34.00.904,t1_Paradigm,2021.1.4,59.979930923644176,
G,right,Target,0,11,11,11,423.03292327345116,425.0328587922413,None,0,1,,S11I02,2023-01-26_10h34.00.904,t1_Paradigm,2021.1.4,59.979930923644176,
P,left,Pretarget,0,12,12,12,426.5327097796835,428.5341626922018,None,0,1,,S11I02,2023-01-26_10h34.00.904,t1_Paradigm,2021.1.4,59.979930923644176,
P,right,Target,0,13,13,13,430.04909971715824,432.04956199291337,None,0,1,,S11I02,2023-01-26_10h34.00.904,t1_Paradigm,2021.1.4,59.979930923644176,
G,left,Lure,0,14,14,14,433.5493991858675,435.5495149954222,left,1,1,0.89823677566892,S11I02,2023-01-26_10h34.00.904,t1_Paradigm,2021.1.4,59.979930923644176,
Y,left,Distractor,0,15,15,15,437.0493111257092,439.0511977626011,left,1,1,1.0763531350530684,S11I02,2023-01-26_10h34.00.904,t1_Paradigm,2021.1.4,59.979930923644176,
B,left,Distractor,0,16,16,16,440.54932957183337,442.5509335821116,left,1,1,0.8567349344230024,S11I02,2023-01-26_10h34.00.904,t1_Paradigm,2021.1.4,59.979930923644176,
T,left,Pretarget,0,17,17,17,444.0493399978877,446.0508801685646,left,1,1,0.7650712004251545,S11I02,2023-01-26_10h34.00.904,t1_Paradigm,2021.1.4,59.979930923644176,
T,right,Target,0,18,18,18,447.54950023851416,449.5495730605908,left,0,1,0.5461221928562736,S11I02,2023-01-26_10h34.00.904,t1_Paradigm,2021.1.4,59.979930923644176,
S,left,Distractor,0,19,19,19,451.04940383750363,453.05068929133995,left,1,1,0.8049427256046329,S11I02,2023-01-26_10h34.00.904,t1_Paradigm,2021.1.4,59.979930923644176,
T,left,Lure,0,20,20,20,454.54950569215,456.55179878525087,left,1,1,0.8718735834554536,S11I02,2023-01-26_10h34.00.904,t1_Paradigm,2021.1.4,59.979930923644176,
J,left,Distractor,0,21,21,21,458.04949398287863,460.05095780266856,left,1,1,0.9247494616138283,S11I02,2023-01-26_10h34.00.904,t1_Paradigm,2021.1.4,59.979930923644176,
P,left,Distractor,0,22,22,22,461.54945596783364,463.5503391358943,left,1,1,0.6253288622101536,S11I02,2023-01-26_10h34.00.904,t1_Paradigm,2021.1.4,59.979930923644176,
F,left,Distractor,0,23,23,23,465.04952381747717,467.0510152262286,left,1,1,0.7086045848409412,S11I02,2023-01-26_10h34.00.904,t1_Paradigm,2021.1.4,59.979930923644176,
L,left,Distractor,0,24,24,24,468.5491072559962,470.5494351156958,left,1,1,0.7464691723725991,S11I02,2023-01-26_10h34.00.904,t1_Paradigm,2021.1.4,59.979930923644176,
W,left,Pretarget,0,25,25,25,472.04935379237577,474.0508724693209,left,1,1,0.5887760343030095,S11I02,2023-01-26_10h34.00.904,t1_Paradigm,2021.1.4,59.979930923644176,
W,right,Target,0,26,26,26,475.54918841892504,477.54931802295323,right,1,1,0.6902992986870231,S11I02,2023-01-26_10h34.00.904,t1_Paradigm,2021.1.4,59.979930923644176,
V,left,Distractor,0,27,27,27,479.0493961382599,481.05011152684165,left,1,1,0.741517271817429,S11I02,2023-01-26_10h34.00.904,t1_Paradigm,2021.1.4,59.979930923644176,
W,left,Lure,0,28,28,28,482.54932058937266,484.55111579767254,left,1,1,0.744614294875646,S11I02,2023-01-26_10h34.00.904,t1_Paradigm,2021.1.4,59.979930923644176,
R,left,Pretarget,0,29,29,29,486.04920109060185,488.05067453444644,left,1,1,0.8450009575899458,S11I02,2023-01-26_10h34.00.904,t1_Paradigm,2021.1.4,59.979930923644176,
R,right,Target,0,30,30,30,489.54936229363375,491.54958589267335,right,1,1,0.5620166515582241,S11I02,2023-01-26_10h34.00.904,t1_Paradigm,2021.1.4,59.979930923644176,
G,left,Distractor,0,31,31,31,493.0492020530073,495.05109446434653,left,1,1,0.7564935950213112,S11I02,2023-01-26_10h34.00.904,t1_Paradigm,2021.1.4,59.979930923644176,
R,left,Lure,0,32,32,32,496.54919611816877,498.55103976758255,left,1,1,0.7126912822423037,S11I02,2023-01-26_10h34.00.904,t1_Paradigm,2021.1.4,59.979930923644176,
S,left,Distractor,0,33,33,33,500.0496280781372,502.0513084393169,left,1,1,0.6043298011936713,S11I02,2023-01-26_10h34.00.904,t1_Paradigm,2021.1.4,59.979930923644176,
R,left,Lure,0,34,34,34,503.54922434875334,505.56581687270955,right,0,1,0.59396404515428,S11I02,2023-01-26_10h34.00.904,t1_Paradigm,2021.1.4,59.979930923644176,
P,left,Pretarget,0,35,35,35,507.049318183359,509.0495623137249,left,1,1,0.7898031141521642,S11I02,2023-01-26_10h34.00.904,t1_Paradigm,2021.1.4,59.979930923644176,
P,right,Target,0,36,36,36,510.5491072559962,512.5491515266913,right,1,1,1.1623909633926814,S11I02,2023-01-26_10h34.00.904,t1_Paradigm,2021.1.4,59.979930923644176,
Y,left,Pretarget,0,37,37,37,514.0494747347548,516.0494962285011,left,1,1,0.6061076861806214,S11I02,2023-01-26_10h34.00.904,t1_Paradigm,2021.1.4,59.979930923644176,
Y,right,Target,0,38,38,38,517.5492291607807,519.5493449703208,right,1,1,0.6902954490797129,S11I02,2023-01-26_10h34.00.904,t1_Paradigm,2021.1.4,59.979930923644176,
J,left,Distractor,0,39,39,39,521.0493258826027,523.0519118679804,left,1,1,0.6118093011464225,S11I02,2023-01-26_10h34.00.904,t1_Paradigm,2021.1.4,59.979930923644176,
Y,left,Lure,0,40,40,40,524.5495733813877,526.5498486295546,right,0,1,0.7298506634397199,S11I02,2023-01-26_10h34.00.904,t1_Paradigm,2021.1.4,59.979930923644176,
T,left,Distractor,0,41,41,41,528.049482434013,530.0499129503733,left,1,1,0.8936422486003721,S11I02,2023-01-26_10h34.00.904,t1_Paradigm,2021.1.4,59.979930923644176,
V,left,Distractor,0,42,42,42,531.5490995567525,533.5513182237773,left,1,1,1.0723482421744848,S11I02,2023-01-26_10h34.00.904,t1_Paradigm,2021.1.4,59.979930923644176,
N,left,Pretarget,0,43,43,43,535.0494288600603,537.0510161886341,left,1,1,0.7405981739284471,S11I02,2023-01-26_10h34.00.904,t1_Paradigm,2021.1.4,59.979930923644176,
N,right,Target,0,44,44,44,538.5490822334395,540.5494816319988,left,0,1,0.6502144401310943,S11I02,2023-01-26_10h34.00.904,t1_Paradigm,2021.1.4,59.979930923644176,
N,right,Target,0,45,45,45,542.0494817924045,544.0495132310025,right,1,1,0.7020040825300384,S11I02,2023-01-26_10h34.00.904,t1_Paradigm,2021.1.4,59.979930923644176,
X,left,Distractor,0,46,46,46,545.5491855317086,547.5508986146888,left,1,1,0.865052048524376,S11I02,2023-01-26_10h34.00.904,t1_Paradigm,2021.1.4,59.979930923644176,
Z,left,Distractor,0,47,47,47,549.0493229953863,551.0506758176634,left,1,1,0.916859335033223,S11I02,2023-01-26_10h34.00.904,t1_Paradigm,2021.1.4,59.979930923644176,
H,left,Pretarget,0,48,48,48,552.5494858024322,554.5501479378727,left,1,1,0.6655442872142885,S11I02,2023-01-26_10h34.00.904,t1_Paradigm,2021.1.4,59.979930923644176,
H,right,Target,0,49,49,49,556.0495754666044,558.0491795968701,right,1,1,0.9104554843797814,S11I02,2023-01-26_10h34.00.904,t1_Paradigm,2021.1.4,59.979930923644176,
K,left,Distractor,0,50,50,50,559.5491951557633,561.5490264138789,left,1,1,1.0265851872245548,S11I02,2023-01-26_10h34.00.904,t1_Paradigm,2021.1.4,59.979930923644176,
V,left,Pretarget,0,51,51,51,563.0490509552474,565.0495337623288,left,1,1,0.5338733287499053,S11I02,2023-01-26_10h34.00.904,t1_Paradigm,2021.1.4,59.979930923644176,
V,right,Target,0,52,52,52,566.5491755868425,568.5493006996403,right,1,1,0.9062908320775023,S11I02,2023-01-26_10h34.00.904,t1_Paradigm,2021.1.4,59.979930923644176,
R,left,Distractor,0,53,53,53,570.0493560379982,572.0512510157423,left,1,1,0.636367660961696,S11I02,2023-01-26_10h34.00.904,t1_Paradigm,2021.1.4,59.979930923644176,
V,left,Lure,0,54,54,54,573.549263165798,575.5494986345147,left,1,1,0.40197812963742763,S11I02,2023-01-26_10h34.00.904,t1_Paradigm,2021.1.4,59.979930923644176,
Y,left,Distractor,0,55,55,55,577.0491674063815,579.0495058525557,left,1,1,0.6620683969231322,S11I02,2023-01-26_10h34.00.904,t1_Paradigm,2021.1.4,59.979930923644176,
Q,left,Distractor,0,56,56,56,580.5495005593257,582.5494874064316,left,1,1,0.6339144876401406,S11I02,2023-01-26_10h34.00.904,t1_Paradigm,2021.1.4,59.979930923644176,
Z,left,Pretarget,0,57,57,57,584.049240870052,586.0495356871543,left,1,1,0.5741160219185986,S11I02,2023-01-26_10h34.00.904,t1_Paradigm,2021.1.4,59.979930923644176,
Z,right,Target,0,58,58,58,587.5492006093991,589.5329016193136,right,1,1,0.6588273337401915,S11I02,2023-01-26_10h34.00.904,t1_Paradigm,2021.1.4,59.979930923644176,
B,left,Distractor,0,59,59,59,591.0328735491348,593.0343630330899,left,1,1,0.5170902483660029,S11I02,2023-01-26_10h34.00.904,t1_Paradigm,2021.1.4,59.979930923644176,
S,left,Pretarget,0,60,60,60,594.549113992849,596.5495406595728,left,1,1,0.6179305251862388,S11I02,2023-01-26_10h34.00.904,t1_Paradigm,2021.1.4,59.979930923644176,
S,right,Target,0,61,61,61,598.049514193408,600.0491747848282,right,1,1,0.7502770927821985,S11I02,2023-01-26_10h34.00.904,t1_Paradigm,2021.1.4,59.979930923644176,
T,left,Distractor,0,62,62,62,601.5495557372778,603.5513942538673,left,1,1,0.5443359670025529,S11I02,2023-01-26_10h34.00.904,t1_Paradigm,2021.1.4,59.979930923644176,
D,left,Distractor,0,63,63,63,605.0489264840435,607.0523529708007,left,1,1,0.5793069200008176,S11I02,2023-01-26_10h34.00.904,t1_Paradigm,2021.1.4,59.979930923644176,
R,left,Distractor,0,0,0,0,627.5906777488854,629.5829473817284,None,0,1,,S11I02,2023-01-26_10h34.00.904,t1_Paradigm,2021.1.4,59.979930923644176,
V,left,Distractor,0,1,1,1,631.082487511987,633.0843593919853,left,1,1,0.6592668325611157,S11I02,2023-01-26_10h34.00.904,t1_Paradigm,2021.1.4,59.979930923644176,
N,left,Pretarget,0,2,2,2,634.5824459681171,636.5840531864233,left,1,1,0.6476659885956906,S11I02,2023-01-26_10h34.00.904,t1_Paradigm,2021.1.4,59.979930923644176,
N,right,Target,0,3,3,3,638.0828965346009,640.0824339380342,right,1,1,0.6371914806513814,S11I02,2023-01-26_10h34.00.904,t1_Paradigm,2021.1.4,59.979930923644176,
S,left,Distractor,0,4,4,4,641.5826333165169,643.5844564346044,left,1,1,0.6871095638489351,S11I02,2023-01-26_10h34.00.904,t1_Paradigm,2021.1.4,59.979930923644176,
N,left,Lure,0,5,5,5,645.0825102889212,647.0833337878139,left,1,1,0.9964006009249715,S11I02,2023-01-26_10h34.00.904,t1_Paradigm,2021.1.4,59.979930923644176,
Z,left,Distractor,0,6,6,6,648.5827144794312,650.5828774468828,left,1,1,0.5206896474264795,S11I02,2023-01-26_10h34.00.904,t1_Paradigm,2021.1.4,59.979930923644176,
L,left,Pretarget,0,7,7,7,652.0829058378586,654.0825362738979,left,1,1,0.5890846458642045,S11I02,2023-01-26_10h34.00.904,t1_Paradigm,2021.1.4,59.979930923644176,
L,right,Target,0,8,8,8,655.5828928453848,657.5828681436251,right,1,1,0.6727187044016318,S11I02,2023-01-26_10h34.00.904,t1_Paradigm,2021.1.4,59.979930923644176,
H,left,Distractor,0,9,9,9,659.0823992914229,661.0828753616661,left,1,1,0.5649340254458366,S11I02,2023-01-26_10h34.00.904,t1_Paradigm,2021.1.4,59.979930923644176,
L,left,Lure,0,10,10,10,662.5827266699198,664.5829265295906,left,1,1,0.6648696404881775,S11I02,2023-01-26_10h34.00.904,t1_Paradigm,2021.1.4,59.979930923644176,
X,left,Pretarget,0,11,11,11,666.082786820305,668.082863491989,left,1,1,0.5406534802023089,S11I02,2023-01-26_10h34.00.904,t1_Paradigm,2021.1.4,59.979930923644176,
X,right,Target,0,12,12,12,669.5823997726256,671.5826583390735,right,1,1,0.41695477363828104,S11I02,2023-01-26_10h34.00.904,t1_Paradigm,2021.1.4,59.979930923644176,
X,right,Target,0,13,13,13,673.0829154619278,675.0826867300639,right,1,1,0.5809908099763561,S11I02,2023-01-26_10h34.00.904,t1_Paradigm,2021.1.4,59.979930923644176,
R,left,Distractor,0,14,14,14,676.5826567350741,678.5829271711991,left,1,1,0.47275027132127434,S11I02,2023-01-26_10h34.00.904,t1_Paradigm,2021.1.4,59.979930923644176,
T,left,Distractor,0,15,15,15,680.0828176172945,682.0844254772092,left,1,1,0.5233025801862823,S11I02,2023-01-26_10h34.00.904,t1_Paradigm,2021.1.4,59.979930923644176,
V,left,Pretarget,0,16,16,16,683.5825229606126,685.5830086549249,left,1,1,0.7206099601899041,S11I02,2023-01-26_10h34.00.904,t1_Paradigm,2021.1.4,59.979930923644176,
V,right,Target,0,17,17,17,687.0829058378586,689.0828201837139,left,0,1,0.5649840705737006,S11I02,2023-01-26_10h34.00.904,t1_Paradigm,2021.1.4,59.979930923644176,
N,left,Distractor,0,18,18,18,690.5825919330528,692.5827933967375,left,1,1,0.6167887906631222,S11I02,2023-01-26_10h34.00.904,t1_Paradigm,2021.1.4,59.979930923644176,
B,left,Distractor,0,19,19,19,694.0824887951894,696.0848521439475,left,1,1,0.6186558586341562,S11I02,2023-01-26_10h34.00.904,t1_Paradigm,2021.1.4,59.979930923644176,
V,left,Lure,0,20,20,20,697.5826503190328,699.5832659381704,left,1,1,0.8645669958204962,S11I02,2023-01-26_10h34.00.904,t1_Paradigm,2021.1.4,59.979930923644176,
P,left,Distractor,0,21,21,21,701.0824817375396,703.0838589407795,left,1,1,0.5798882133240113,S11I02,2023-01-26_10h34.00.904,t1_Paradigm,2021.1.4,59.979930923644176,
K,left,Pretarget,0,22,22,22,704.5828986198176,706.5837487452663,left,1,1,0.6322495249769418,S11I02,2023-01-26_10h34.00.904,t1_Paradigm,2021.1.4,59.979930923644176,
K,right,Target,0,23,23,23,708.0829270107934,710.0828904393711,right,1,1,0.7488049321400467,S11I02,2023-01-26_10h34.00.904,t1_Paradigm,2021.1.4,59.979930923644176,
J,left,Pretarget,0,24,24,24,711.5822416172014,713.5841333869321,left,1,1,0.6075715059705544,S11I02,2023-01-26_10h34.00.904,t1_Paradigm,2021.1.4,59.979930923644176,
J,right,Target,0,25,25,25,715.0827582689235,717.0828301285801,right,1,1,0.6129378827754408,S11I02,2023-01-26_10h34.00.904,t1_Paradigm,2021.1.4,59.979930923644176,
H,left,Distractor,0,26,26,26,718.5827574669092,720.5835042941035,left,1,1,0.6321754196978873,S11I02,2023-01-26_10h34.00.904,t1_Paradigm,2021.1.4,59.979930923644176,
J,left,Lure,0,27,27,27,722.0824743590929,724.0837514720915,left,1,1,0.539922051524627,S11I02,2023-01-26_10h34.00.904,t1_Paradigm,2021.1.4,59.979930923644176,
V,left,Distractor,0,28,28,28,725.5826718127646,727.5833053968236,left,1,1,0.49650117236888036,S11I02,2023-01-26_10h34.00.904,t1_Paradigm,2021.1.4,59.979930923644176,
Z,left,Pretarget,0,29,29,29,729.0828869105462,731.0826299480977,left,1,1,0.5490315467177425,S11I02,2023-01-26_10h34.00.904,t1_Paradigm,2021.1.4,59.979930923644176,
Z,right,Target,0,30,30,30,732.5827269907168,734.5825912914443,right,1,1,0.6009004272054881,S11I02,2023-01-26_10h34.00.904,t1_Paradigm,2021.1.4,59.979930923644176,
T,left,Distractor,0,31,31,31,736.0826601034933,738.083918609962,left,1,1,0.6517411371314665,S11I02,2023-01-26_10h34.00.904,t1_Paradigm,2021.1.4,59.979930923644176,
Z,left,Lure,0,32,32,32,739.5828893165599,741.5836961337336,left,1,1,0.5120167638233397,S11I02,2023-01-26_10h34.00.904,t1_Paradigm,2021.1.4,59.979930923644176,
F,left,Distractor,0,33,33,33,743.0828307701886,745.0825805445784,left,1,1,0.5490257722849492,S11I02,2023-01-26_10h34.00.904,t1_Paradigm,2021.1.4,59.979930923644176,
Y,left,Pretarget,0,34,34,34,746.5827555420983,748.5831838128506,left,1,1,0.6003085474221734,S11I02,2023-01-26_10h34.00.904,t1_Paradigm,2021.1.4,59.979930923644176,
Y,right,Target,0,35,35,35,750.0828840233298,752.0827935571433,right,1,1,0.5727824477653485,S11I02,2023-01-26_10h34.00.904,t1_Paradigm,2021.1.4,59.979930923644176,
Y,right,Target,0,36,36,36,753.5829502689448,755.5825245646265,right,1,1,0.4812287488603033,S11I02,2023-01-26_10h34.00.904,t1_Paradigm,2021.1.4,59.979930923644176,
W,left,Distractor,0,37,37,37,757.0824868703785,759.083572464544,left,1,1,0.4680405763356248,S11I02,2023-01-26_10h34.00.904,t1_Paradigm,2021.1.4,59.979930923644176,
Q,left,Distractor,0,38,38,38,760.5824989004614,762.5828909205738,left,1,1,0.5046780959819444,S11I02,2023-01-26_10h34.00.904,t1_Paradigm,2021.1.4,59.979930923644176,
P,left,Pretarget,0,39,39,39,764.0825750909426,766.082485587176,left,1,1,0.86104651405185,S11I02,2023-01-26_10h34.00.904,t1_Paradigm,2021.1.4,59.979930923644176,
P,right,Target,0,40,40,40,767.5825021084747,769.58256755209,right,1,1,0.5772107993398095,S11I02,2023-01-26_10h34.00.904,t1_Paradigm,2021.1.4,59.979930923644176,
J,left,Distractor,0,41,41,41,771.0824932864198,773.0852816978877,left,1,1,0.5464843783847755,S11I02,2023-01-26_10h34.00.904,t1_Paradigm,2021.1.4,59.979930923644176,
P,left,Lure,0,42,42,42,774.5825794217672,776.5848644948128,left,1,1,0.6949246227450203,S11I02,2023-01-26_10h34.00.904,t1_Paradigm,2021.1.4,59.979930923644176,
L,left,Distractor,0,43,43,43,778.0825122137467,780.0831698579568,left,1,1,0.6043622022116324,S11I02,2023-01-26_10h34.00.904,t1_Paradigm,2021.1.4,59.979930923644176,
Z,left,Distractor,0,44,44,44,781.5825248854235,783.5825576072384,left,1,1,0.7370998275146121,S11I02,2023-01-26_10h34.00.904,t1_Paradigm,2021.1.4,59.979930923644176,
F,left,Pretarget,0,45,45,45,785.0826594618848,787.0843356526311,left,1,1,0.5953313034988241,S11I02,2023-01-26_10h34.00.904,t1_Paradigm,2021.1.4,59.979930923644176,
F,right,Target,0,46,46,46,788.5822813966661,790.5828315721883,right,1,1,0.5686886927142041,S11I02,2023-01-26_10h34.00.904,t1_Paradigm,2021.1.4,59.979930923644176,
G,left,Pretarget,0,47,47,47,792.0825744493341,794.0842525648914,left,1,1,0.5713872796186479,S11I02,2023-01-26_10h34.00.904,t1_Paradigm,2021.1.4,59.979930923644176,
G,right,Target,0,48,48,48,795.5825492663716,797.5829088854807,left,0,1,0.4488437812688062,S11I02,2023-01-26_10h34.00.904,t1_Paradigm,2021.1.4,59.979930923644176,
V,left,Distractor,0,49,49,49,799.082878569694,801.0828144092811,left,1,1,0.6289224868378369,S11I02,2023-01-26_10h34.00.904,t1_Paradigm,2021.1.4,59.979930923644176,
G,left,Lure,0,50,50,50,802.5824741987017,804.5824706698768,right,0,1,0.6010043670830783,S11I02,2023-01-26_10h34.00.904,t1_Paradigm,2021.1.4,59.979930923644176,
Q,left,Pretarget,0,51,51,51,806.082909687495,808.0843436726864,left,1,1,0.6032249589188723,S11I02,2023-01-26_10h34.00.904,t1_Paradigm,2021.1.4,59.979930923644176,
Q,right,Target,0,52,52,52,809.5828569155565,811.582991010815,right,1,1,0.8326956323144259,S11I02,2023-01-26_10h34.00.904,t1_Paradigm,2021.1.4,59.979930923644176,
Y,left,Distractor,0,53,53,53,813.0828391110408,815.0845839534159,left,1,1,1.3313843539071968,S11I02,2023-01-26_10h34.00.904,t1_Paradigm,2021.1.4,59.979930923644176,
V,left,Distractor,0,54,54,54,816.5826676423312,818.5830128253438,left,1,1,1.0807625593151897,S11I02,2023-01-26_10h34.00.904,t1_Paradigm,2021.1.4,59.979930923644176,
B,left,Distractor,0,55,55,55,820.082577657362,822.0832134870288,left,1,1,1.0204017275827937,S11I02,2023-01-26_10h34.00.904,t1_Paradigm,2021.1.4,59.979930923644176,
J,left,Pretarget,0,56,56,56,823.5827279531222,825.5840259182442,left,1,1,0.655633107671747,S11I02,2023-01-26_10h34.00.904,t1_Paradigm,2021.1.4,59.979930923644176,
J,right,Target,0,57,57,57,827.0824676222546,829.0828413566487,right,1,1,0.5809404440660728,S11I02,2023-01-26_10h34.00.904,t1_Paradigm,2021.1.4,59.979930923644176,
H,left,Distractor,0,58,58,58,830.5827122338233,832.5850367655221,left,1,1,0.774766159360297,S11I02,2023-01-26_10h34.00.904,t1_Paradigm,2021.1.4,59.979930923644176,
J,left,Lure,0,59,59,59,834.0825244042207,836.0825353114924,left,1,1,0.5890830418647965,S11I02,2023-01-26_10h34.00.904,t1_Paradigm,2021.1.4,59.979930923644176,
D,left,Pretarget,0,60,60,60,837.5825444543443,839.584285767909,left,1,1,1.0713521517900517,S11I02,2023-01-26_10h34.00.904,t1_Paradigm,2021.1.4,59.979930923644176,
D,right,Target,0,61,61,61,841.0828416774457,843.0826491962216,right,1,1,0.5811226596269989,S11I02,2023-01-26_10h34.00.904,t1_Paradigm,2021.1.4,59.979930923644176,
R,left,Distractor,0,62,62,62,844.5824164543301,846.5833477426931,left,1,1,0.648446820807294,S11I02,2023-01-26_10h34.00.904,t1_Paradigm,2021.1.4,59.979930923644176,
F,left,Distractor,0,63,63,63,848.0827938779403,850.0838611863874,left,1,1,0.6357632698927773,S11I02,2023-01-26_10h34.00.904,t1_Paradigm,2021.1.4,59.979930923644176,
F,left,Distractor,0,0,0,0,1069.574165746235,1071.5658993188408,None,0,2,,S11I02,2023-01-26_10h34.00.904,t1_Paradigm,2021.1.4,59.979930923644176,
N,left,Pretarget,0,1,1,1,1073.0658606622019,1075.0670678403403,None,0,2,,S11I02,2023-01-26_10h34.00.904,t1_Paradigm,2021.1.4,59.979930923644176,
V,left,Distractor,0,2,2,2,1076.565954496793,1078.5657992285996,left,1,2,0.8419039345462807,S11I02,2023-01-26_10h34.00.904,t1_Paradigm,2021.1.4,59.979930923644176,
N,right,Target,0,3,3,3,1080.0659119905322,1082.0662228477158,right,1,2,1.0854401741089532,S11I02,2023-01-26_10h34.00.904,t1_Paradigm,2021.1.4,59.979930923644176,
N,left,Lure,0,4,4,4,1083.565686306276,1085.565863709824,None,0,2,,S11I02,2023-01-26_10h34.00.904,t1_Paradigm,2021.1.4,59.979930923644176,
X,left,Distractor,0,5,5,5,1087.0658500757272,1089.0681848730892,left,1,2,1.091628124966519,S11I02,2023-01-26_10h34.00.904,t1_Paradigm,2021.1.4,59.979930923644176,
G,left,Pretarget,0,6,6,6,1090.565834837631,1092.5667253841384,left,1,2,0.7768398238549707,S11I02,2023-01-26_10h34.00.904,t1_Paradigm,2021.1.4,59.979930923644176,
H,left,Pretarget,0,7,7,7,1094.0657631383656,1096.0661067173787,left,1,2,1.3576432854315499,S11I02,2023-01-26_10h34.00.904,t1_Paradigm,2021.1.4,59.979930923644176,
G,right,Target,0,8,8,8,1097.5662063264172,1099.5662201209052,right,1,2,1.2173212579073152,S11I02,2023-01-26_10h34.00.904,t1_Paradigm,2021.1.4,59.979930923644176,
H,right,Target,0,9,9,9,1101.0660261960584,1103.0788672607741,None,0,2,,S11I02,2023-01-26_10h34.00.904,t1_Paradigm,2021.1.4,59.979930923644176,
T,left,Pretarget,0,10,10,10,1104.565866276229,1106.56622364973,None,0,2,,S11I02,2023-01-26_10h34.00.904,t1_Paradigm,2021.1.4,59.979930923644176,
K,left,Distractor,0,11,11,11,1108.0658096546686,1110.0661904467124,left,1,2,0.6534192526742117,S11I02,2023-01-26_10h34.00.904,t1_Paradigm,2021.1.4,59.979930923644176,
T,right,Target,0,12,12,12,1111.565743088242,1113.5664257550234,right,1,2,0.80114795807458,S11I02,2023-01-26_10h34.00.904,t1_Paradigm,2021.1.4,59.979930923644176,
T,left,Lure,0,13,13,13,1115.0659119905322,1117.0662241309328,left,1,2,1.189611017878633,S11I02,2023-01-26_10h34.00.904,t1_Paradigm,2021.1.4,59.979930923644176,
J,left,Distractor,0,14,14,14,1118.5662111384445,1120.566133825152,None,0,2,,S11I02,2023-01-26_10h34.00.904,t1_Paradigm,2021.1.4,59.979930923644176,
Q,left,Pretarget,0,15,15,15,1122.0657567223243,1124.0675355697313,left,1,2,0.9241973612661241,S11I02,2023-01-26_10h34.00.904,t1_Paradigm,2021.1.4,59.979930923644176,
M,left,Distractor,0,16,16,16,1125.565846386511,1127.5676156098489,left,1,2,0.7360376518918201,S11I02,2023-01-26_10h34.00.904,t1_Paradigm,2021.1.4,59.979930923644176,
Q,right,Target,0,17,17,17,1129.06588504315,1131.0670662363264,right,1,2,1.0927448369329795,S11I02,2023-01-26_10h34.00.904,t1_Paradigm,2021.1.4,59.979930923644176,
R,left,Distractor,0,18,18,18,1132.56574629627,1134.5671440308215,left,1,2,0.7446171820920426,S11I02,2023-01-26_10h34.00.904,t1_Paradigm,2021.1.4,59.979930923644176,
W,left,Distractor,0,19,19,19,1136.0660027775011,1138.0670813140168,left,1,2,0.7646878419618588,S11I02,2023-01-26_10h34.00.904,t1_Paradigm,2021.1.4,59.979930923644176,
C,left,Pretarget,0,20,20,20,1139.566271128424,1141.5679819657962,left,1,2,0.863716870371718,S11I02,2023-01-26_10h34.00.904,t1_Paradigm,2021.1.4,59.979930923644176,
T,left,Distractor,0,21,21,21,1143.0658876095695,1145.0678791487298,left,1,2,0.8677397281571757,S11I02,2023-01-26_10h34.00.904,t1_Paradigm,2021.1.4,59.979930923644176,
C,right,Target,0,22,22,22,1146.566016732395,1148.5660921208764,right,1,2,0.47355291806161404,S11I02,2023-01-26_10h34.00.904,t1_Paradigm,2021.1.4,59.979930923644176,
F,left,Pretarget,0,23,23,23,1150.0662764216686,1152.0661711985886,left,1,2,0.9577141185291111,S11I02,2023-01-26_10h34.00.904,t1_Paradigm,2021.1.4,59.979930923644176,
C,right,Target,0,24,24,24,1153.566032130897,1155.5661251634883,right,1,2,0.7375476671732031,S11I02,2023-01-26_10h34.00.904,t1_Paradigm,2021.1.4,59.979930923644176,
F,right,Target,0,25,25,25,1157.0662129028497,1159.067303950651,right,1,2,0.9646508213918423,S11I02,2023-01-26_10h34.00.904,t1_Paradigm,2021.1.4,59.979930923644176,
H,left,Distractor,0,26,26,26,1160.5660196196113,1162.5657321809704,left,1,2,0.6178820840723347,S11I02,2023-01-26_10h34.00.904,t1_Paradigm,2021.1.4,59.979930923644176,
H,left,Lure,0,27,27,27,1164.0660322913027,1166.0659068576933,left,1,2,0.9578081135405228,S11I02,2023-01-26_10h34.00.904,t1_Paradigm,2021.1.4,59.979930923644176,
P,left,Distractor,0,28,28,28,1167.565786396517,1169.5660850632412,left,1,2,0.897747552517103,S11I02,2023-01-26_10h34.00.904,t1_Paradigm,2021.1.4,59.979930923644176,
G,left,Pretarget,0,29,29,29,1171.0662141860666,1173.0677582063654,left,1,2,1.0440307238604873,S11I02,2023-01-26_10h34.00.904,t1_Paradigm,2021.1.4,59.979930923644176,
K,left,Distractor,0,30,30,30,1174.5660645319003,1176.566196702348,left,1,2,0.8415292377321748,S11I02,2023-01-26_10h34.00.904,t1_Paradigm,2021.1.4,59.979930923644176,
G,right,Target,0,31,31,31,1178.0658933840023,1180.066187880293,right,1,2,0.6055016911122948,S11I02,2023-01-26_10h34.00.904,t1_Paradigm,2021.1.4,59.979930923644176,
M,left,Pretarget,0,32,32,32,1181.5657504666888,1183.567464832886,left,1,2,0.496398836519802,S11I02,2023-01-26_10h34.00.904,t1_Paradigm,2021.1.4,59.979930923644176,
B,left,Distractor,0,33,33,33,1185.0660162511922,1187.0660557098454,left,1,2,0.709578539870563,S11I02,2023-01-26_10h34.00.904,t1_Paradigm,2021.1.4,59.979930923644176,
M,right,Target,0,34,34,34,1188.5658810331224,1190.5679030484898,right,1,2,0.615706725322525,S11I02,2023-01-26_10h34.00.904,t1_Paradigm,2021.1.4,59.979930923644176,
M,left,Lure,0,35,35,35,1192.0659222561953,1194.0662834793038,right,0,2,1.4213661227258854,S11I02,2023-01-26_10h34.00.904,t1_Paradigm,2021.1.4,59.979930923644176,
T,left,Distractor,0,36,36,36,1195.5661694341834,1197.5674744569405,left,1,2,0.7841467322868994,S11I02,2023-01-26_10h34.00.904,t1_Paradigm,2021.1.4,59.979930923644176,
F,left,Distractor,0,37,37,37,1199.0659998902847,1201.0659617148485,left,1,2,0.5978775094408775,S11I02,2023-01-26_10h34.00.904,t1_Paradigm,2021.1.4,59.979930923644176,
X,left,Distractor,0,38,38,38,1202.5658598601876,1204.5660703063477,left,1,2,0.6175712268886855,S11I02,2023-01-26_10h34.00.904,t1_Paradigm,2021.1.4,59.979930923644176,
C,left,Distractor,0,39,39,39,1206.0829077626695,1208.0667685320223,left,1,2,0.5250349112757249,S11I02,2023-01-26_10h34.00.904,t1_Paradigm,2021.1.4,59.979930923644176,
R,left,Distractor,0,40,40,40,1209.565803399033,1211.567883800366,left,1,2,0.607886854399112,S11I02,2023-01-26_10h34.00.904,t1_Paradigm,2021.1.4,59.979930923644176,
B,left,Pretarget,0,41,41,41,1213.0659286722366,1215.0666626673337,left,1,2,0.7090482540806988,S11I02,2023-01-26_10h34.00.904,t1_Paradigm,2021.1.4,59.979930923644176,
H,left,Distractor,0,42,42,42,1216.5660687023337,1218.5679341662908,left,1,2,0.5997060811641859,S11I02,2023-01-26_10h34.00.904,t1_Paradigm,2021.1.4,59.979930923644176,
B,right,Target,0,43,43,43,1220.066232471785,1222.067366186253,right,1,2,0.732347786630271,S11I02,2023-01-26_10h34.00.904,t1_Paradigm,2021.1.4,59.979930923644176,
W,left,Pretarget,0,44,44,44,1223.5656442812033,1225.5661139354197,left,1,2,0.5137080322747352,S11I02,2023-01-26_10h34.00.904,t1_Paradigm,2021.1.4,59.979930923644176,
L,left,Pretarget,0,45,45,45,1227.0658452636999,1229.0677120108594,left,1,2,0.61209577738191,S11I02,2023-01-26_10h34.00.904,t1_Paradigm,2021.1.4,59.979930923644176,
W,right,Target,0,46,46,46,1230.5662191584997,1232.566227499352,right,1,2,0.6013655901915627,S11I02,2023-01-26_10h34.00.904,t1_Paradigm,2021.1.4,59.979930923644176,
L,right,Target,0,47,47,47,1234.066007589543,1236.0660034191096,right,1,2,1.1335531041258946,S11I02,2023-01-26_10h34.00.904,t1_Paradigm,2021.1.4,59.979930923644176,
W,right,Target,0,48,48,48,1237.5659779153502,1239.5685796200269,right,1,2,0.6711855913745239,S11I02,2023-01-26_10h34.00.904,t1_Paradigm,2021.1.4,59.979930923644176,
X,left,Distractor,0,49,49,49,1241.0659953990544,1243.0676321311475,left,1,2,0.5641050729318522,S11I02,2023-01-26_10h34.00.904,t1_Paradigm,2021.1.4,59.979930923644176,
R,left,Distractor,0,50,50,50,1244.5659740657284,1246.5660359805188,left,1,2,0.5538047605077736,S11I02,2023-01-26_10h34.00.904,t1_Paradigm,2021.1.4,59.979930923644176,
V,left,Pretarget,0,51,51,51,1248.0660598802788,1250.0668240307714,left,1,2,0.5249364250485087,S11I02,2023-01-26_10h34.00.904,t1_Paradigm,2021.1.4,59.979930923644176,
Z,left,Distractor,0,52,52,52,1251.5661505068565,1253.5665203916287,left,1,2,0.7531011132814456,S11I02,2023-01-26_10h34.00.904,t1_Paradigm,2021.1.4,59.979930923644176,
V,right,Target,0,53,53,53,1255.0659155193425,1257.066171840197,left,0,2,0.8212888736015884,S11I02,2023-01-26_10h34.00.904,t1_Paradigm,2021.1.4,59.979930923644176,
V,left,Lure,0,54,54,54,1258.5658085318573,1260.56622364973,left,1,2,1.2415276979008922,S11I02,2023-01-26_10h34.00.904,t1_Paradigm,2021.1.4,59.979930923644176,
N,left,Distractor,0,55,55,55,1262.065933484264,1264.0662289429602,left,1,2,0.5095087333465926,S11I02,2023-01-26_10h34.00.904,t1_Paradigm,2021.1.4,59.979930923644176,
B,left,Distractor,0,56,56,56,1265.5656458852172,1267.565791208559,left,1,2,0.5940108822396724,S11I02,2023-01-26_10h34.00.904,t1_Paradigm,2021.1.4,59.979930923644176,
V,left,Lure,0,57,57,57,1269.0661051133648,1271.0659533739963,left,1,2,0.8056026154372375,S11I02,2023-01-26_10h34.00.904,t1_Paradigm,2021.1.4,59.979930923644176,
J,left,Distractor,0,58,58,58,1272.5657921709644,1274.5673843115655,left,1,2,0.6003088682191446,S11I02,2023-01-26_10h34.00.904,t1_Paradigm,2021.1.4,59.979930923644176,
H,left,Distractor,0,59,59,59,1276.0657246421324,1278.0658205619402,left,1,2,0.5739116710028611,S11I02,2023-01-26_10h34.00.904,t1_Paradigm,2021.1.4,59.979930923644176,
X,left,Pretarget,0,60,60,60,1279.5657713188266,1281.5682225673372,left,1,2,0.6235435987618985,S11I02,2023-01-26_10h34.00.904,t1_Paradigm,2021.1.4,59.979930923644176,
P,left,Distractor,0,61,61,61,1283.0658750982839,1285.0656935243314,left,1,2,0.6300616549415281,S11I02,2023-01-26_10h34.00.904,t1_Paradigm,2021.1.4,59.979930923644176,
X,right,Target,0,62,62,62,1286.5662198000937,1288.5669448127446,right,1,2,0.9207282078423304,S11I02,2023-01-26_10h34.00.904,t1_Paradigm,2021.1.4,59.979930923644176,
Q,left,Distractor,0,63,63,63,1290.066216752486,1292.0669773741538,left,1,2,0.7005835710151587,S11I02,2023-01-26_10h34.00.904,t1_Paradigm,2021.1.4,59.979930923644176,
B,left,Pretarget,0,0,0,0,1300.6927906474739,1302.6849784757942,None,0,2,,S11I02,2023-01-26_10h34.00.904,t1_Paradigm,2021.1.4,59.979930923644176,
F,left,Distractor,0,1,1,1,1304.1828667962545,1306.182931598276,None,0,2,,S11I02,2023-01-26_10h34.00.904,t1_Paradigm,2021.1.4,59.979930923644176,
B,right,Target,0,2,2,2,1307.6828464253194,1309.6828778639174,right,1,2,0.6047959265706595,S11I02,2023-01-26_10h34.00.904,t1_Paradigm,2021.1.4,59.979930923644176,
V,left,Distractor,0,3,3,3,1311.1825450317847,1313.184541382987,left,1,2,0.5912333780433983,S11I02,2023-01-26_10h34.00.904,t1_Paradigm,2021.1.4,59.979930923644176,
G,left,Pretarget,0,4,4,4,1314.6829173225706,1316.685013443217,left,1,2,0.7067747299006442,S11I02,2023-01-26_10h34.00.904,t1_Paradigm,2021.1.4,59.979930923644176,
B,left,Lure,0,5,5,5,1318.1825953977095,1320.182806806275,left,1,2,0.7608029290568084,S11I02,2023-01-26_10h34.00.904,t1_Paradigm,2021.1.4,59.979930923644176,
G,right,Target,0,6,6,6,1321.682696610762,1323.6851841099124,right,1,2,0.8105570823972812,S11I02,2023-01-26_10h34.00.904,t1_Paradigm,2021.1.4,59.979930923644176,
Y,left,Pretarget,0,7,7,7,1325.182219096896,1327.1823820643476,left,1,2,0.6413384888292057,S11I02,2023-01-26_10h34.00.904,t1_Paradigm,2021.1.4,59.979930923644176,
P,left,Distractor,0,8,8,8,1328.6825987661286,1330.684350666168,left,1,2,0.7074573966820026,S11I02,2023-01-26_10h34.00.904,t1_Paradigm,2021.1.4,59.979930923644176,
Y,right,Target,0,9,9,9,1332.1828751371067,1334.1834792073787,right,1,2,0.8082688013237203,S11I02,2023-01-26_10h34.00.904,t1_Paradigm,2021.1.4,59.979930923644176,
X,left,Distractor,0,10,10,10,1335.682510866376,1337.6830937637133,left,1,2,0.5886040843761293,S11I02,2023-01-26_10h34.00.904,t1_Paradigm,2021.1.4,59.979930923644176,
Y,right,Target,0,11,11,11,1339.1822409114393,1341.1838603202195,right,1,2,0.671728388449992,S11I02,2023-01-26_10h34.00.904,t1_Paradigm,2021.1.4,59.979930923644176,
N,left,Distractor,0,12,12,12,1342.6825974829262,1344.6828031170444,left,1,2,0.6929735046433052,S11I02,2023-01-26_10h34.00.904,t1_Paradigm,2021.1.4,59.979930923644176,
Y,right,Target,0,13,13,13,1346.1828667962545,1348.1828879691893,right,1,2,1.288809429781395,S11I02,2023-01-26_10h34.00.904,t1_Paradigm,2021.1.4,59.979930923644176,
Y,left,Lure,0,14,14,14,1349.682815949127,1351.6826699841913,left,1,2,1.1333763422007905,S11I02,2023-01-26_10h34.00.904,t1_Paradigm,2021.1.4,59.979930923644176,
K,left,Distractor,0,15,15,15,1353.1828651922406,1355.1820259740634,left,1,2,0.6894263962894911,S11I02,2023-01-26_10h34.00.904,t1_Paradigm,2021.1.4,59.979930923644176,
T,left,Pretarget,0,16,16,16,1356.6829304754647,1358.684529032107,left,1,2,0.915158121730201,S11I02,2023-01-26_10h34.00.904,t1_Paradigm,2021.1.4,59.979930923644176,
J,left,Distractor,0,17,17,17,1360.1828084102744,1362.1828324704402,left,1,2,0.6330107882386073,S11I02,2023-01-26_10h34.00.904,t1_Paradigm,2021.1.4,59.979930923644176,
T,right,Target,0,18,18,18,1363.68260518217,1365.6827957385976,right,1,2,0.5409341820050031,S11I02,2023-01-26_10h34.00.904,t1_Paradigm,2021.1.4,59.979930923644176,
S,left,Pretarget,0,19,19,19,1367.182552731043,1369.18279172857,left,1,2,0.9608813972299686,S11I02,2023-01-26_10h34.00.904,t1_Paradigm,2021.1.4,59.979930923644176,
R,left,Distractor,0,20,20,20,1370.6827139340749,1372.684321793975,None,0,2,,S11I02,2023-01-26_10h34.00.904,t1_Paradigm,2021.1.4,59.979930923644176,
S,right,Target,0,21,21,21,1374.1826691821916,1376.1829460343579,right,1,2,1.0167311104596592,S11I02,2023-01-26_10h34.00.904,t1_Paradigm,2021.1.4,59.979930923644176,
Q,left,Distractor,0,22,22,22,1377.6828387260757,1379.6828335932369,left,1,2,0.5569300141505664,S11I02,2023-01-26_10h34.00.904,t1_Paradigm,2021.1.4,59.979930923644176,
D,left,Distractor,0,23,23,23,1381.1826868263015,1383.1834172925883,left,1,2,0.9443029885587748,S11I02,2023-01-26_10h34.00.904,t1_Paradigm,2021.1.4,59.979930923644176,
F,left,Distractor,0,24,24,24,1384.6828679190658,1386.684956661251,left,1,2,0.6270817246404476,S11I02,2023-01-26_10h34.00.904,t1_Paradigm,2021.1.4,59.979930923644176,
Z,left,Distractor,0,25,25,25,1388.1829017636774,1390.1853000798583,left,1,2,0.5503664040734293,S11I02,2023-01-26_10h34.00.904,t1_Paradigm,2021.1.4,59.979930923644176,
P,left,Distractor,0,26,26,26,1391.6824159089592,1393.6840779844206,left,1,2,0.9716250581113854,S11I02,2023-01-26_10h34.00.904,t1_Paradigm,2021.1.4,59.979930923644176,
H,left,Distractor,0,27,27,27,1395.1829174829763,1397.1824969114823,left,1,2,1.009338868665509,S11I02,2023-01-26_10h34.00.904,t1_Paradigm,2021.1.4,59.979930923644176,
Z,left,Pretarget,0,28,28,28,1398.682663247353,1400.6837023252156,left,1,2,1.3480317350185942,S11I02,2023-01-26_10h34.00.904,t1_Paradigm,2021.1.4,59.979930923644176,
J,left,Pretarget,0,29,29,29,1402.1827471370925,1404.1828510769556,left,1,2,0.6650188134372002,S11I02,2023-01-26_10h34.00.904,t1_Paradigm,2021.1.4,59.979930923644176,
Z,right,Target,0,30,30,30,1405.682547437813,1407.6851263655408,right,1,2,0.6665073349722661,S11I02,2023-01-26_10h34.00.904,t1_Paradigm,2021.1.4,59.979930923644176,
J,right,Target,0,31,31,31,1409.182822846371,1411.1840345157398,right,1,2,0.7995923889102414,S11I02,2023-01-26_10h34.00.904,t1_Paradigm,2021.1.4,59.979930923644176,
V,left,Pretarget,0,32,32,32,1412.6826677385834,1414.6828977536497,left,1,2,0.8367550615366781,S11I02,2023-01-26_10h34.00.904,t1_Paradigm,2021.1.4,59.979930923644176,
Z,left,Lure,0,33,33,33,1416.1826727110165,1418.1833261847933,None,0,2,,S11I02,2023-01-26_10h34.00.904,t1_Paradigm,2021.1.4,59.979930923644176,
V,right,Target,0,34,34,34,1419.6829692925094,1421.6827296533738,right,1,2,0.8131225364486454,S11I02,2023-01-26_10h34.00.904,t1_Paradigm,2021.1.4,59.979930923644176,
X,left,Distractor,0,35,35,35,1423.1828311872232,1425.184136209995,left,1,2,0.719451543976902,S11I02,2023-01-26_10h34.00.904,t1_Paradigm,2021.1.4,59.979930923644176,
S,left,Distractor,0,36,36,36,1426.6825451921904,1428.6827566007414,left,1,2,0.6930549883545609,S11I02,2023-01-26_10h34.00.904,t1_Paradigm,2021.1.4,59.979930923644176,
Q,left,Distractor,0,37,37,37,1430.1827285305626,1432.1837470770988,left,1,2,0.6480448558286298,S11I02,2023-01-26_10h34.00.904,t1_Paradigm,2021.1.4,59.979930923644176,
P,left,Distractor,0,38,38,38,1433.6824114177289,1435.6826314879436,left,1,2,0.7010063881316455,S11I02,2023-01-26_10h34.00.904,t1_Paradigm,2021.1.4,59.979930923644176,
S,left,Lure,0,39,39,39,1437.1827545155393,1439.182764139594,left,1,2,1.072959049299243,S11I02,2023-01-26_10h34.00.904,t1_Paradigm,2021.1.4,59.979930923644176,
K,left,Pretarget,0,40,40,40,1440.68283327244,1442.6830186960287,left,1,2,0.5968871934892377,S11I02,2023-01-26_10h34.00.904,t1_Paradigm,2021.1.4,59.979930923644176,
L,left,Distractor,0,41,41,41,1444.1828132223163,1446.183501021922,left,1,2,0.7763643952057464,S11I02,2023-01-26_10h34.00.904,t1_Paradigm,2021.1.4,59.979930923644176,
K,right,Target,0,42,42,42,1447.6825666859368,1449.6818445605022,right,1,2,0.9099303314142162,S11I02,2023-01-26_10h34.00.904,t1_Paradigm,2021.1.4,59.979930923644176,
B,left,Distractor,0,43,43,43,1451.1825135931867,1453.1843065558787,left,1,2,0.6554967668052996,S11I02,2023-01-26_10h34.00.904,t1_Paradigm,2021.1.4,59.979930923644176,
N,left,Distractor,0,44,44,44,1454.6827524303226,1456.6840407713753,left,1,2,0.7558022665907629,S11I02,2023-01-26_10h34.00.904,t1_Paradigm,2021.1.4,59.979930923644176,
S,left,Pretarget,0,45,45,45,1458.1827711972437,1460.1852586963796,left,1,2,0.7105502493213862,S11I02,2023-01-26_10h34.00.904,t1_Paradigm,2021.1.4,59.979930923644176,
Z,left,Distractor,0,46,46,46,1461.6826520192699,1463.6846807714755,left,1,2,0.8588936114538228,S11I02,2023-01-26_10h34.00.904,t1_Paradigm,2021.1.4,59.979930923644176,
S,right,Target,0,47,47,47,1465.1824997986987,1467.1824863250076,right,1,2,1.1850909169006627,S11I02,2023-01-26_10h34.00.904,t1_Paradigm,2021.1.4,59.979930923644176,
C,left,Distractor,0,48,48,48,1468.6829391371139,1470.6847067564522,left,1,2,1.2189968070597388,S11I02,2023-01-26_10h34.00.904,t1_Paradigm,2021.1.4,59.979930923644176,
T,left,Pretarget,0,49,49,49,1472.1824879290216,1474.1827663852164,left,1,2,1.1131350156356348,S11I02,2023-01-26_10h34.00.904,t1_Paradigm,2021.1.4,59.979930923644176,
S,left,Lure,0,50,50,50,1475.6824515179906,1477.6829856534168,right,0,2,1.3727594783413224,S11I02,2023-01-26_10h34.00.904,t1_Paradigm,2021.1.4,59.979930923644176,
T,right,Target,0,51,51,51,1479.1825126307813,1481.184341844113,right,1,2,0.6871637793956324,S11I02,2023-01-26_10h34.00.904,t1_Paradigm,2021.1.4,59.979930923644176,
N,left,Pretarget,0,52,52,52,1482.6824691621005,1484.682933362681,left,1,2,0.7408724596898537,S11I02,2023-01-26_10h34.00.904,t1_Paradigm,2021.1.4,59.979930923644176,
B,left,Distractor,0,53,53,53,1486.1827160192915,1488.1836492324655,left,1,2,0.6642261115484871,S11I02,2023-01-26_10h34.00.904,t1_Paradigm,2021.1.4,59.979930923644176,
N,right,Target,0,54,54,54,1489.6825015631184,1491.684305433082,right,1,2,0.49156691593816504,S11I02,2023-01-26_10h34.00.904,t1_Paradigm,2021.1.4,59.979930923644176,
N,left,Lure,0,55,55,55,1493.18262908193,1495.1829171621794,left,1,2,0.8329375170578714,S11I02,2023-01-26_10h34.00.904,t1_Paradigm,2021.1.4,59.979930923644176,
X,left,Distractor,0,56,56,56,1496.6827318989817,1498.683281112113,left,1,2,0.8204201416228898,S11I02,2023-01-26_10h34.00.904,t1_Paradigm,2021.1.4,59.979930923644176,
W,left,Distractor,0,57,57,57,1500.1825719791668,1502.1844467463816,left,1,2,0.6954160915047396,S11I02,2023-01-26_10h34.00.904,t1_Paradigm,2021.1.4,59.979930923644176,
S,left,Distractor,0,58,58,58,1503.6828846007702,1505.682727728563,left,1,2,0.8931446846108884,S11I02,2023-01-26_10h34.00.904,t1_Paradigm,2021.1.4,59.979930923644176,
L,left,Distractor,0,59,59,59,1507.1829508463852,1509.1825780743966,left,1,2,0.6091867443319643,S11I02,2023-01-26_10h34.00.904,t1_Paradigm,2021.1.4,59.979930923644176,
K,left,Pretarget,0,60,60,60,1510.6827254829404,1512.6828932624194,left,1,2,0.6447078728378983,S11I02,2023-01-26_10h34.00.904,t1_Paradigm,2021.1.4,59.979930923644176,
V,left,Pretarget,0,61,61,61,1514.1825273876748,1516.1844881298457,left,1,2,0.7437028962449403,S11I02,2023-01-26_10h34.00.904,t1_Paradigm,2021.1.4,59.979930923644176,
K,right,Target,0,62,62,62,1517.6826430368237,1519.6828236483707,right,1,2,0.4769989737542346,S11I02,2023-01-26_10h34.00.904,t1_Paradigm,2021.1.4,59.979930923644176,
V,right,Target,0,63,63,63,1521.1824186357844,1523.1844560496393,right,1,2,1.2634317414922407,S11I02,2023-01-26_10h34.00.904,t1_Paradigm,2021.1.4,59.979930923644176,
R,left,Distractor,0,0,0,0,1641.715730560929,1643.7182087568071,None,0,3,,S11I02,2023-01-26_10h34.00.904,t1_Paradigm,2021.1.4,59.979930923644176,
P,left,Lure,0,1,1,1,1645.2157098691969,1647.2181867818726,None,0,3,,S11I02,2023-01-26_10h34.00.904,t1_Paradigm,2021.1.4,59.979930923644176,
V,left,Distractor,0,2,2,2,1648.716011262717,1650.717760596337,None,0,3,,S11I02,2023-01-26_10h34.00.904,t1_Paradigm,2021.1.4,59.979930923644176,
P,left,Pretarget,0,3,3,3,1652.2158924055548,1654.2157021699386,left,1,3,1.1601520858384902,S11I02,2023-01-26_10h34.00.904,t1_Paradigm,2021.1.4,59.979930923644176,
Z,left,Distractor,0,4,4,4,1655.715893849163,1657.7176402955665,None,0,3,,S11I02,2023-01-26_10h34.00.904,t1_Paradigm,2021.1.4,59.979930923644176,
L,left,Pretarget,0,5,5,5,1659.2161086261476,1661.2157073027774,left,1,3,0.8161720807838719,S11I02,2023-01-26_10h34.00.904,t1_Paradigm,2021.1.4,59.979930923644176,
P,right,Target,0,6,6,6,1662.7163339895924,1664.7161488868005,right,1,3,0.9317868963262299,S11I02,2023-01-26_10h34.00.904,t1_Paradigm,2021.1.4,59.979930923644176,
S,left,Distractor,0,7,7,7,1666.2162683855713,1668.215869307809,left,1,3,1.0320834136655321,S11I02,2023-01-26_10h34.00.904,t1_Paradigm,2021.1.4,59.979930923644176,
L,right,Target,0,8,8,8,1669.7162181800522,1671.7156936686806,right,1,3,0.5880160542146768,S11I02,2023-01-26_10h34.00.904,t1_Paradigm,2021.1.4,59.979930923644176,
D,left,Distractor,0,9,9,9,1673.2330488995358,1675.218262491151,left,1,3,0.8138623059785459,S11I02,2023-01-26_10h34.00.904,t1_Paradigm,2021.1.4,59.979930923644176,
G,left,Distractor,0,10,10,10,1676.7161450371786,1678.7162316537288,left,1,3,0.915693861170439,S11I02,2023-01-26_10h34.00.904,t1_Paradigm,2021.1.4,59.979930923644176,
M,left,Pretarget,0,11,11,11,1680.2160868116043,1682.217079052367,left,1,3,0.6149204394896515,S11I02,2023-01-26_10h34.00.904,t1_Paradigm,2021.1.4,59.979930923644176,
Y,left,Distractor,0,12,12,12,1683.7158723554312,1685.718181167831,left,1,3,0.6654743523540674,S11I02,2023-01-26_10h34.00.904,t1_Paradigm,2021.1.4,59.979930923644176,
V,left,Distractor,0,13,13,13,1687.2158648165787,1689.215992174999,left,1,3,0.6399125236930558,S11I02,2023-01-26_10h34.00.904,t1_Paradigm,2021.1.4,59.979930923644176,
M,right,Target,0,14,14,14,1690.7162813780596,1692.71685689695,right,1,3,0.675026875192998,S11I02,2023-01-26_10h34.00.904,t1_Paradigm,2021.1.4,59.979930923644176,
S,left,Pretarget,0,15,15,15,1694.2158603253483,1696.2163280547538,left,1,3,0.6956409737322247,S11I02,2023-01-26_10h34.00.904,t1_Paradigm,2021.1.4,59.979930923644176,
Q,left,Distractor,0,16,16,16,1697.7158685058093,1699.7182475738518,left,1,3,1.3375633223186014,S11I02,2023-01-26_10h34.00.904,t1_Paradigm,2021.1.4,59.979930923644176,
R,left,Pretarget,0,17,17,17,1701.2161939594953,1703.215972926875,left,1,3,1.3438834436383331,S11I02,2023-01-26_10h34.00.904,t1_Paradigm,2021.1.4,59.979930923644176,
S,right,Target,0,18,18,18,1704.7158572777407,1706.7169964458444,left,0,3,1.0588107162038796,S11I02,2023-01-26_10h34.00.904,t1_Paradigm,2021.1.4,59.979930923644176,
F,left,Distractor,0,19,19,19,1708.2159222401533,1710.2161528968281,left,1,3,1.3515823721972993,S11I02,2023-01-26_10h34.00.904,t1_Paradigm,2021.1.4,59.979930923644176,
R,right,Target,0,20,20,20,1711.7161674933304,1713.7161729469663,left,0,3,1.4515301776991691,S11I02,2023-01-26_10h34.00.904,t1_Paradigm,2021.1.4,59.979930923644176,
P,left,Distractor,0,21,21,21,1715.2161962051032,1717.2162273229042,left,1,3,1.3274320725759026,S11I02,2023-01-26_10h34.00.904,t1_Paradigm,2021.1.4,59.979930923644176,
L,left,Distractor,0,22,22,22,1718.71587748827,1720.7161238642439,left,1,3,1.0115158314292785,S11I02,2023-01-26_10h34.00.904,t1_Paradigm,2021.1.4,59.979930923644176,
R,right,Target,0,23,23,23,1722.215794881733,1724.2181543808547,right,1,3,1.3814955599373206,S11I02,2023-01-26_10h34.00.904,t1_Paradigm,2021.1.4,59.979930923644176,
H,left,Pretarget,0,24,24,24,1725.715803062194,1727.7174641752354,left,1,3,1.1304948981123744,S11I02,2023-01-26_10h34.00.904,t1_Paradigm,2021.1.4,59.979930923644176,
G,left,Pretarget,0,25,25,25,1729.216206470781,1731.2170623706625,left,1,3,1.2628658466710476,S11I02,2023-01-26_10h34.00.904,t1_Paradigm,2021.1.4,59.979930923644176,
T,left,Distractor,0,26,26,26,1732.716132525893,1734.7158454080636,left,1,3,0.9000335879827617,S11I02,2023-01-26_10h34.00.904,t1_Paradigm,2021.1.4,59.979930923644176,
H,right,Target,0,27,27,27,1736.2158250371285,1738.2175551226246,right,1,3,0.6624774195370264,S11I02,2023-01-26_10h34.00.904,t1_Paradigm,2021.1.4,59.979930923644176,
G,right,Target,0,28,28,28,1739.7159095684765,1741.7181763558037,right,1,3,1.0017948875029106,S11I02,2023-01-26_10h34.00.904,t1_Paradigm,2021.1.4,59.979930923644176,
D,left,Distractor,0,29,29,29,1743.216170540938,1745.2179638244415,left,1,3,0.6218590671633137,S11I02,2023-01-26_10h34.00.904,t1_Paradigm,2021.1.4,59.979930923644176,
N,left,Pretarget,0,30,30,30,1746.7157889468945,1748.7164427414828,left,1,3,0.7074137676099781,S11I02,2023-01-26_10h34.00.904,t1_Paradigm,2021.1.4,59.979930923644176,
V,left,Distractor,0,31,31,31,1750.2162067915779,1752.2162404757983,left,1,3,0.5996569984417874,S11I02,2023-01-26_10h34.00.904,t1_Paradigm,2021.1.4,59.979930923644176,
R,left,Distractor,0,32,32,32,1753.715923042153,1755.7179501903593,left,1,3,0.7299433752341429,S11I02,2023-01-26_10h34.00.904,t1_Paradigm,2021.1.4,59.979930923644176,
N,right,Target,0,33,33,33,1757.2162706311792,1759.2169279545924,right,1,3,0.6551480549678672,S11I02,2023-01-26_10h34.00.904,t1_Paradigm,2021.1.4,59.979930923644176,
Z,left,Distractor,0,34,34,34,1760.7161588316667,1762.716163322897,left,1,3,0.6596694391482743,S11I02,2023-01-26_10h34.00.904,t1_Paradigm,2021.1.4,59.979930923644176,
N,left,Lure,0,35,35,35,1764.2158612877683,1766.2180071327166,left,1,3,0.6779888405872043,S11I02,2023-01-26_10h34.00.904,t1_Paradigm,2021.1.4,59.979930923644176,
Y,left,Pretarget,0,36,36,36,1767.7157809268392,1769.7180810775899,left,1,3,0.95368709032482,S11I02,2023-01-26_10h34.00.904,t1_Paradigm,2021.1.4,59.979930923644176,
Y,left,Lure,0,37,37,37,1771.2159665108338,1773.216291804114,left,1,3,0.735409200671711,S11I02,2023-01-26_10h34.00.904,t1_Paradigm,2021.1.4,59.979930923644176,
B,left,Distractor,0,38,38,38,1774.7161729469663,1776.7170089571155,left,1,3,0.78687547458685,S11I02,2023-01-26_10h34.00.904,t1_Paradigm,2021.1.4,59.979930923644176,
Y,right,Target,0,39,39,39,1778.2162860296812,1780.2184710124857,right,1,3,0.5493189853586955,S11I02,2023-01-26_10h34.00.904,t1_Paradigm,2021.1.4,59.979930923644176,
J,left,Distractor,0,40,40,40,1781.7160504005733,1783.715746280228,left,1,3,1.3241005432064412,S11I02,2023-01-26_10h34.00.904,t1_Paradigm,2021.1.4,59.979930923644176,
X,left,Distractor,0,41,41,41,1785.2162314933375,1787.2166029821092,left,1,3,0.7829915240872651,S11I02,2023-01-26_10h34.00.904,t1_Paradigm,2021.1.4,59.979930923644176,
W,left,Pretarget,0,42,42,42,1788.7158547113213,1790.7176646765147,left,1,3,0.8021828655182617,S11I02,2023-01-26_10h34.00.904,t1_Paradigm,2021.1.4,59.979930923644176,
S,left,Pretarget,0,43,43,43,1792.2159876837686,1794.2169751125039,left,1,3,0.8548325782176107,S11I02,2023-01-26_10h34.00.904,t1_Paradigm,2021.1.4,59.979930923644176,
R,left,Distractor,0,44,44,44,1795.7162765660178,1797.7177670123783,None,0,3,,S11I02,2023-01-26_10h34.00.904,t1_Paradigm,2021.1.4,59.979930923644176,
W,right,Target,0,45,45,45,1799.2162019795505,1801.217121719048,right,1,3,1.1186730215413263,S11I02,2023-01-26_10h34.00.904,t1_Paradigm,2021.1.4,59.979930923644176,
S,right,Target,0,46,46,46,1802.7159082852595,1804.717852666523,right,1,3,0.8179066575103207,S11I02,2023-01-26_10h34.00.904,t1_Paradigm,2021.1.4,59.979930923644176,
D,left,Distractor,0,47,47,47,1806.2161038141203,1808.216139423137,left,1,3,0.6318177253997419,S11I02,2023-01-26_10h34.00.904,t1_Paradigm,2021.1.4,59.979930923644176,
T,left,Distractor,0,48,48,48,1809.715758470702,1811.7166576788732,left,1,3,0.5711213347240118,S11I02,2023-01-26_10h34.00.904,t1_Paradigm,2021.1.4,59.979930923644176,
S,right,Target,0,49,49,49,1813.2160463905457,1815.2161487264093,right,1,3,0.6874399899534183,S11I02,2023-01-26_10h34.00.904,t1_Paradigm,2021.1.4,59.979930923644176,
K,left,Distractor,0,50,50,50,1816.715836104806,1818.7169970874384,left,1,3,0.6588911733560963,S11I02,2023-01-26_10h34.00.904,t1_Paradigm,2021.1.4,59.979930923644176,
S,left,Lure,0,51,51,51,1820.216352114905,1822.2170334984694,left,1,3,1.2228429029200925,S11I02,2023-01-26_10h34.00.904,t1_Paradigm,2021.1.4,59.979930923644176,
T,left,Pretarget,0,52,52,52,1823.716225558499,1825.7166336187074,right,0,3,0.8109978644206421,S11I02,2023-01-26_10h34.00.904,t1_Paradigm,2021.1.4,59.979930923644176,
V,left,Distractor,0,53,53,53,1827.215270691173,1829.21621513243,left,1,3,1.2797089170344407,S11I02,2023-01-26_10h34.00.904,t1_Paradigm,2021.1.4,59.979930923644176,
B,left,Distractor,0,54,54,54,1830.7158672225924,1832.7182616891514,left,1,3,1.0094973448722158,S11I02,2023-01-26_10h34.00.904,t1_Paradigm,2021.1.4,59.979930923644176,
T,right,Target,0,55,55,55,1834.2160441449378,1836.2160576186143,left,0,3,1.463962219771929,S11I02,2023-01-26_10h34.00.904,t1_Paradigm,2021.1.4,59.979930923644176,
Y,left,Pretarget,0,56,56,56,1837.7161508116114,1839.7153465608571,left,1,3,1.004426747575053,S11I02,2023-01-26_10h34.00.904,t1_Paradigm,2021.1.4,59.979930923644176,
T,left,Lure,0,57,57,57,1841.21532939795,1843.215360194954,left,1,3,1.3764782157668378,S11I02,2023-01-26_10h34.00.904,t1_Paradigm,2021.1.4,59.979930923644176,
P,left,Pretarget,0,58,58,58,1844.7157818892592,1846.7172229320859,left,1,3,1.0906897789682262,S11I02,2023-01-26_10h34.00.904,t1_Paradigm,2021.1.4,59.979930923644176,
Y,right,Target,0,59,59,59,1848.2162003755366,1850.2179570876033,right,1,3,0.48581301025114954,S11I02,2023-01-26_10h34.00.904,t1_Paradigm,2021.1.4,59.979930923644176,
R,left,Distractor,0,60,60,60,1851.716180967007,1853.7163769770705,left,1,3,0.6833375732676359,S11I02,2023-01-26_10h34.00.904,t1_Paradigm,2021.1.4,59.979930923644176,
P,right,Target,0,61,61,61,1855.216206470781,1857.218549608995,right,1,3,0.9092316245514667,S11I02,2023-01-26_10h34.00.904,t1_Paradigm,2021.1.4,59.979930923644176,
L,left,Distractor,0,62,62,62,1858.7162181800522,1860.716556305415,left,1,3,1.2992993362277048,S11I02,2023-01-26_10h34.00.904,t1_Paradigm,2021.1.4,59.979930923644176,
V,left,Distractor,0,63,63,63,1862.2158497388882,1864.2176423807832,left,1,3,1.2062622486264445,S11I02,2023-01-26_10h34.00.904,t1_Paradigm,2021.1.4,59.979930923644176,
H,left,Lure,0,0,0,0,1885.623195528533,1887.6178041291714,None,0,3,,S11I02,2023-01-26_10h34.00.904,t1_Paradigm,2021.1.4,59.979930923644176,
B,left,Distractor,0,1,1,1,1889.1158778732206,1891.1165521991497,None,0,3,,S11I02,2023-01-26_10h34.00.904,t1_Paradigm,2021.1.4,59.979930923644176,
T,left,Distractor,0,2,2,2,1892.615992880761,1894.6168170212477,None,0,3,,S11I02,2023-01-26_10h34.00.904,t1_Paradigm,2021.1.4,59.979930923644176,
R,left,Distractor,0,3,3,3,1896.1161550461984,1898.115684429591,left,1,3,0.6040754051646218,S11I02,2023-01-26_10h34.00.904,t1_Paradigm,2021.1.4,59.979930923644176,
H,left,Pretarget,0,4,4,4,1899.6159864647198,1901.6169023545954,left,1,3,0.6549472328770207,S11I02,2023-01-26_10h34.00.904,t1_Paradigm,2021.1.4,59.979930923644176,
K,left,Distractor,0,5,5,5,1903.116080940934,1905.11572934188,left,1,3,0.7559370034578023,S11I02,2023-01-26_10h34.00.904,t1_Paradigm,2021.1.4,59.979930923644176,
G,left,Distractor,0,6,6,6,1906.6160589659848,1908.618434826014,left,1,3,0.6614797251531854,S11I02,2023-01-26_10h34.00.904,t1_Paradigm,2021.1.4,59.979930923644176,
H,right,Target,0,7,7,7,1910.1157585348556,1912.1160132516961,right,1,3,0.6036946131207515,S11I02,2023-01-26_10h34.00.904,t1_Paradigm,2021.1.4,59.979930923644176,
Y,left,Pretarget,0,8,8,8,1913.6162405399518,1915.6167554272542,left,1,3,0.5910906211356632,S11I02,2023-01-26_10h34.00.904,t1_Paradigm,2021.1.4,59.979930923644176,
S,left,Distractor,0,9,9,9,1917.1158149960247,1919.1181587758474,left,1,3,0.6737109451496508,S11I02,2023-01-26_10h34.00.904,t1_Paradigm,2021.1.4,59.979930923644176,
P,left,Distractor,0,10,10,10,1920.616222895842,1922.6186151167785,left,1,3,0.8691589564550668,S11I02,2023-01-26_10h34.00.904,t1_Paradigm,2021.1.4,59.979930923644176,
Y,right,Target,0,11,11,11,1924.1159850211116,1926.1182216530578,right,1,3,0.6015439561451785,S11I02,2023-01-26_10h34.00.904,t1_Paradigm,2021.1.4,59.979930923644176,
H,left,Lure,0,12,12,12,1927.6161362792773,1929.6179892319633,left,1,3,0.9738020208606031,S11I02,2023-01-26_10h34.00.904,t1_Paradigm,2021.1.4,59.979930923644176,
Q,left,Distractor,0,13,13,13,1931.1157633468974,1933.116151838185,left,1,3,0.7714590109681012,S11I02,2023-01-26_10h34.00.904,t1_Paradigm,2021.1.4,59.979930923644176,
V,left,Pretarget,0,14,14,14,1934.6163056627702,1936.6287133239093,left,1,3,1.0512564693781314,S11I02,2023-01-26_10h34.00.904,t1_Paradigm,2021.1.4,59.979930923644176,
G,left,Distractor,0,15,15,15,1938.116245512385,1940.117494715596,None,0,3,,S11I02,2023-01-26_10h34.00.904,t1_Paradigm,2021.1.4,59.979930923644176,
Z,left,Pretarget,0,16,16,16,1941.6151090711064,1943.6167855826498,left,1,3,1.3590801578538958,S11I02,2023-01-26_10h34.00.904,t1_Paradigm,2021.1.4,59.979930923644176,
V,right,Target,0,17,17,17,1945.1158550962864,1947.118069272081,left,0,3,1.2656908295757603,S11I02,2023-01-26_10h34.00.904,t1_Paradigm,2021.1.4,59.979930923644176,
N,left,Distractor,0,18,18,18,1948.6161738131195,1950.6159752366511,left,1,3,1.287852798050153,S11I02,2023-01-26_10h34.00.904,t1_Paradigm,2021.1.4,59.979930923644176,
Z,right,Target,0,19,19,19,1952.1162220938277,1954.1181096931396,right,1,3,1.3057378335070098,S11I02,2023-01-26_10h34.00.904,t1_Paradigm,2021.1.4,59.979930923644176,
R,left,Distractor,0,20,20,20,1955.6157840386295,1957.618599076668,left,1,3,1.1011745525611332,S11I02,2023-01-26_10h34.00.904,t1_Paradigm,2021.1.4,59.979930923644176,
P,left,Distractor,0,21,21,21,1959.1157710461412,1961.1161957880686,left,1,3,0.7874442566244397,S11I02,2023-01-26_10h34.00.904,t1_Paradigm,2021.1.4,59.979930923644176,
Z,right,Target,0,22,22,22,1962.6162530512374,1964.6168144548283,right,1,3,0.42301664930710103,S11I02,2023-01-26_10h34.00.904,t1_Paradigm,2021.1.4,59.979930923644176,
D,left,Pretarget,0,23,23,23,1966.1157819534128,1968.117432479994,left,1,3,0.9863668750040233,S11I02,2023-01-26_10h34.00.904,t1_Paradigm,2021.1.4,59.979930923644176,
K,left,Distractor,0,24,24,24,1969.6163149660279,1971.616232840708,left,1,3,0.5595538541674614,S11I02,2023-01-26_10h34.00.904,t1_Paradigm,2021.1.4,59.979930923644176,
W,left,Distractor,0,25,25,25,1973.1158445098117,1975.1162355675187,left,1,3,1.1076630949537503,S11I02,2023-01-26_10h34.00.904,t1_Paradigm,2021.1.4,59.979930923644176,
D,right,Target,0,26,26,26,1976.616162585051,1978.6171577130299,left,0,3,0.9346032175817527,S11I02,2023-01-26_10h34.00.904,t1_Paradigm,2021.1.4,59.979930923644176,
G,left,Pretarget,0,27,27,27,1980.1162862542405,1982.1172120889823,right,0,3,1.4504878918087343,S11I02,2023-01-26_10h34.00.904,t1_Paradigm,2021.1.4,59.979930923644176,
V,left,Distractor,0,28,28,28,1983.6160150161013,1985.6180890014075,left,1,3,1.3256933254306205,S11I02,2023-01-26_10h34.00.904,t1_Paradigm,2021.1.4,59.979930923644176,
D,right,Target,0,29,29,29,1987.1162779133883,1989.117356449904,right,1,3,1.4103481760976138,S11I02,2023-01-26_10h34.00.904,t1_Paradigm,2021.1.4,59.979930923644176,
G,right,Target,0,30,30,30,1990.6158212516602,1992.6169177530974,None,0,3,,S11I02,2023-01-26_10h34.00.904,t1_Paradigm,2021.1.4,59.979930923644176,
B,left,Pretarget,0,31,31,31,1994.1161563294154,1996.1157527604228,left,1,3,1.1001627428777283,S11I02,2023-01-26_10h34.00.904,t1_Paradigm,2021.1.4,59.979930923644176,
N,left,Distractor,0,32,32,32,1997.6162559384538,1999.6174804399052,left,1,3,0.6384317014017142,S11I02,2023-01-26_10h34.00.904,t1_Paradigm,2021.1.4,59.979930923644176,
F,left,Distractor,0,33,33,33,2001.1162233770447,2003.117389171719,left,1,3,0.4663242853275733,S11I02,2023-01-26_10h34.00.904,t1_Paradigm,2021.1.4,59.979930923644176,
B,right,Target,0,34,34,34,2004.6159899935446,2006.6183260741236,left,0,3,0.517491892533144,S11I02,2023-01-26_10h34.00.904,t1_Paradigm,2021.1.4,59.979930923644176,
Q,left,Pretarget,0,35,35,35,2008.116214715381,2010.1175194173557,left,1,3,0.5862773070693947,S11I02,2023-01-26_10h34.00.904,t1_Paradigm,2021.1.4,59.979930923644176,
S,left,Pretarget,0,36,36,36,2011.6162155173952,2013.6160711564735,left,1,3,1.4078635641635628,S11I02,2023-01-26_10h34.00.904,t1_Paradigm,2021.1.4,59.979930923644176,
W,left,Distractor,0,37,37,37,2015.115985983517,2017.116696880883,left,1,3,1.0749788190441905,S11I02,2023-01-26_10h34.00.904,t1_Paradigm,2021.1.4,59.979930923644176,
Q,right,Target,0,38,38,38,2018.6160894421773,2020.6178814424784,right,1,3,0.8060411518526962,S11I02,2023-01-26_10h34.00.904,t1_Paradigm,2021.1.4,59.979930923644176,
S,right,Target,0,39,39,39,2022.1162031665153,2024.1181019938813,None,0,3,,S11I02,2023-01-26_10h34.00.904,t1_Paradigm,2021.1.4,59.979930923644176,
T,left,Distractor,0,40,40,40,2025.6160772517032,2027.616400940984,left,1,3,0.7993899628054351,S11I02,2023-01-26_10h34.00.904,t1_Paradigm,2021.1.4,59.979930923644176,
G,left,Distractor,0,41,41,41,2029.1160100436682,2031.118048419943,left,1,3,1.1377639519341756,S11I02,2023-01-26_10h34.00.904,t1_Paradigm,2021.1.4,59.979930923644176,
D,left,Distractor,0,42,42,42,2032.6162302742887,2034.618287257079,left,1,3,0.9978528718347661,S11I02,2023-01-26_10h34.00.904,t1_Paradigm,2021.1.4,59.979930923644176,
S,left,Lure,0,43,43,43,2036.1161720487144,2038.1183150064462,left,1,3,0.6814422747120261,S11I02,2023-01-26_10h34.00.904,t1_Paradigm,2021.1.4,59.979930923644176,
Z,left,Pretarget,0,44,44,44,2039.6158661639492,2041.6180357482663,left,1,3,1.0537895224260865,S11I02,2023-01-26_10h34.00.904,t1_Paradigm,2021.1.4,59.979930923644176,
J,left,Distractor,0,45,45,45,2043.1161662742816,2045.1159259935375,left,1,3,0.9800525281316368,S11I02,2023-01-26_10h34.00.904,t1_Paradigm,2021.1.4,59.979930923644176,
M,left,Pretarget,0,46,46,46,2046.6157875674544,2048.6160095624655,left,1,3,0.6958713096100837,S11I02,2023-01-26_10h34.00.904,t1_Paradigm,2021.1.4,59.979930923644176,
Z,right,Target,0,47,47,47,2050.1160418030777,2052.116083186542,right,1,3,0.6675929291377543,S11I02,2023-01-26_10h34.00.904,t1_Paradigm,2021.1.4,59.979930923644176,
P,left,Distractor,0,48,48,48,2053.6160127704934,2055.618353021491,left,1,3,1.1653808385599405,S11I02,2023-01-26_10h34.00.904,t1_Paradigm,2021.1.4,59.979930923644176,
M,right,Target,0,49,49,49,2057.116229793086,2059.1178636379627,left,0,3,0.9461100665357662,S11I02,2023-01-26_10h34.00.904,t1_Paradigm,2021.1.4,59.979930923644176,
K,left,Distractor,0,50,50,50,2060.6163473670313,2062.61702875061,left,1,3,0.7267436955298763,S11I02,2023-01-26_10h34.00.904,t1_Paradigm,2021.1.4,59.979930923644176,
Y,left,Distractor,0,51,51,51,2064.115915407063,2066.1176448509505,left,1,3,0.6660639865440316,S11I02,2023-01-26_10h34.00.904,t1_Paradigm,2021.1.4,59.979930923644176,
X,left,Distractor,0,52,52,52,2067.6157994371315,2069.6171897932363,left,1,3,1.3106108167412458,S11I02,2023-01-26_10h34.00.904,t1_Paradigm,2021.1.4,59.979930923644176,
F,left,Pretarget,0,53,53,53,2071.1163738332107,2073.11818315681,left,1,3,0.817391449410934,S11I02,2023-01-26_10h34.00.904,t1_Paradigm,2021.1.4,59.979930923644176,
M,left,Lure,0,54,54,54,2074.616232840708,2076.6183180540684,left,1,3,0.6296808629122097,S11I02,2023-01-26_10h34.00.904,t1_Paradigm,2021.1.4,59.979930923644176,
V,left,Distractor,0,55,55,55,2078.116217602612,2080.1174841291213,left,1,3,0.5702888533705845,S11I02,2023-01-26_10h34.00.904,t1_Paradigm,2021.1.4,59.979930923644176,
F,right,Target,0,56,56,56,2081.616375597616,2083.617626404841,left,0,3,0.6542036137107061,S11I02,2023-01-26_10h34.00.904,t1_Paradigm,2021.1.4,59.979930923644176,
S,left,Distractor,0,57,57,57,2085.1162253018556,2087.117800119144,left,1,3,1.2499631879618391,S11I02,2023-01-26_10h34.00.904,t1_Paradigm,2021.1.4,59.979930923644176,
D,left,Distractor,0,58,58,58,2088.6161789459584,2090.616885672891,left,1,3,0.8549560870160349,S11I02,2023-01-26_10h34.00.904,t1_Paradigm,2021.1.4,59.979930923644176,
F,right,Target,0,59,59,59,2092.115977642665,2094.1161130211403,left,0,3,0.7637690648552962,S11I02,2023-01-26_10h34.00.904,t1_Paradigm,2021.1.4,59.979930923644176,
V,left,Pretarget,0,60,60,60,2095.6162081389484,2097.6166579034325,left,1,3,0.975242422093288,S11I02,2023-01-26_10h34.00.904,t1_Paradigm,2021.1.4,59.979930923644176,
J,left,Distractor,0,61,61,61,2099.1162082993396,2101.116894494946,left,1,3,0.610899827312096,S11I02,2023-01-26_10h34.00.904,t1_Paradigm,2021.1.4,59.979930923644176,
V,left,Lure,0,62,62,62,2102.615781151413,2104.6159489308775,right,0,3,0.6320740462542744,S11I02,2023-01-26_10h34.00.904,t1_Paradigm,2021.1.4,59.979930923644176,
V,right,Target,0,63,63,63,2106.1161476677516,2108.1159381840116,right,1,3,0.7960497718013357,S11I02,2023-01-26_10h34.00.904,t1_Paradigm,2021.1.4,59.979930923644176,
R,left,Distractor,0,0,0,0,2258.6938387077826,2260.682412700946,None,0,4,,S11I02,2023-01-26_10h34.00.904,t1_Paradigm,2021.1.4,59.979930923644176,
F,left,Distractor,0,1,1,1,2262.1826383851876,2264.1826396684046,None,0,4,,S11I02,2023-01-26_10h34.00.904,t1_Paradigm,2021.1.4,59.979930923644176,
P,left,Pretarget,0,2,2,2,2265.6828082498832,2267.684143748833,None,0,4,,S11I02,2023-01-26_10h34.00.904,t1_Paradigm,2021.1.4,59.979930923644176,
H,left,Distractor,0,3,3,3,2269.182803919044,2271.184328691219,None,0,4,,S11I02,2023-01-26_10h34.00.904,t1_Paradigm,2021.1.4,59.979930923644176,
Z,left,Distractor,0,4,4,4,2272.6828364804533,2274.685011839203,left,1,4,0.6588003863726044,S11I02,2023-01-26_10h34.00.904,t1_Paradigm,2021.1.4,59.979930923644176,
T,left,Distractor,0,5,5,5,2276.182734625807,2278.182794936598,left,1,4,0.7131465003476478,S11I02,2023-01-26_10h34.00.904,t1_Paradigm,2021.1.4,59.979930923644176,
P,right,Target,0,6,6,6,2279.6829394579254,2281.684706756452,right,1,4,0.9712006369954906,S11I02,2023-01-26_10h34.00.904,t1_Paradigm,2021.1.4,59.979930923644176,
G,left,Distractor,0,7,7,7,2283.1825206508365,2285.1828161095327,left,1,4,1.0251133473939262,S11I02,2023-01-26_10h34.00.904,t1_Paradigm,2021.1.4,59.979930923644176,
L,left,Distractor,0,8,8,8,2286.682503167118,2288.6836853226996,left,1,4,0.7082693466945784,S11I02,2023-01-26_10h34.00.904,t1_Paradigm,2021.1.4,59.979930923644176,
P,left,Lure,0,9,9,9,2290.1826348563627,2292.1828199591546,left,1,4,1.289030783198541,S11I02,2023-01-26_10h34.00.904,t1_Paradigm,2021.1.4,59.979930923644176,
Q,left,Pretarget,0,10,10,10,2293.682661322542,2295.683497653503,None,0,4,,S11I02,2023-01-26_10h34.00.904,t1_Paradigm,2021.1.4,59.979930923644176,
D,left,Distractor,0,11,11,11,2297.182572299964,2299.184408570931,left,1,4,1.3116585562529508,S11I02,2023-01-26_10h34.00.904,t1_Paradigm,2021.1.4,59.979930923644176,
M,left,Pretarget,0,12,12,12,2300.682872731093,2302.6828130619106,left,1,4,0.8371150014427258,S11I02,2023-01-26_10h34.00.904,t1_Paradigm,2021.1.4,59.979930923644176,
C,left,Distractor,0,13,13,13,2304.182901122069,2306.184615809063,left,1,4,0.6953487230639439,S11I02,2023-01-26_10h34.00.904,t1_Paradigm,2021.1.4,59.979930923644176,
Q,right,Target,0,14,14,14,2307.682907377719,2309.6841331623727,right,1,4,0.8918441530840937,S11I02,2023-01-26_10h34.00.904,t1_Paradigm,2021.1.4,59.979930923644176,
R,left,Distractor,0,15,15,15,2311.1828119390993,2313.182848510536,None,0,4,,S11I02,2023-01-26_10h34.00.904,t1_Paradigm,2021.1.4,59.979930923644176,
M,right,Target,0,16,16,16,2314.682661643339,2316.684333022058,right,1,4,0.8514510037493892,S11I02,2023-01-26_10h34.00.904,t1_Paradigm,2021.1.4,59.979930923644176,
S,left,Distractor,0,17,17,17,2318.182658595717,2320.1844050421205,left,1,4,1.0476243484881707,S11I02,2023-01-26_10h34.00.904,t1_Paradigm,2021.1.4,59.979930923644176,
Z,left,Distractor,0,18,18,18,2321.682905773705,2323.6991964229383,None,0,4,,S11I02,2023-01-26_10h34.00.904,t1_Paradigm,2021.1.4,59.979930923644176,
L,left,Pretarget,0,19,19,19,2325.1828943852306,2327.181786334928,left,1,4,1.1061886887036962,S11I02,2023-01-26_10h34.00.904,t1_Paradigm,2021.1.4,59.979930923644176,
M,right,Target,0,20,20,20,2328.6827681496216,2330.683596460527,left,0,4,1.2523130630288506,S11I02,2023-01-26_10h34.00.904,t1_Paradigm,2021.1.4,59.979930923644176,
P,left,Distractor,0,21,21,21,2332.1826380643906,2334.1841278691427,left,1,4,0.9517346889915643,S11I02,2023-01-26_10h34.00.904,t1_Paradigm,2021.1.4,59.979930923644176,
F,left,Distractor,0,22,22,22,2335.682892300014,2337.6827601295663,left,1,4,0.8773532033956144,S11I02,2023-01-26_10h34.00.904,t1_Paradigm,2021.1.4,59.979930923644176,
L,right,Target,0,23,23,23,2339.1825286708918,2341.1848098943155,right,1,4,0.9589408656029264,S11I02,2023-01-26_10h34.00.904,t1_Paradigm,2021.1.4,59.979930923644176,
L,left,Lure,0,24,24,24,2342.682388319983,2344.6826539440954,left,1,4,1.3334862489718944,S11I02,2023-01-26_10h34.00.904,t1_Paradigm,2021.1.4,59.979930923644176,
V,left,Pretarget,0,25,25,25,2346.1828908564057,2348.183661743751,left,1,4,0.600059605028946,S11I02,2023-01-26_10h34.00.904,t1_Paradigm,2021.1.4,59.979930923644176,
Z,left,Distractor,0,26,26,26,2349.682424570623,2351.6824136633513,left,1,4,0.9734375897241989,S11I02,2023-01-26_10h34.00.904,t1_Paradigm,2021.1.4,59.979930923644176,
H,left,Distractor,0,27,27,27,2353.182810655897,2355.1847399594553,left,1,4,1.0231785901851254,S11I02,2023-01-26_10h34.00.904,t1_Paradigm,2021.1.4,59.979930923644176,
X,left,Distractor,0,28,28,28,2356.682488731036,2358.6834171321825,left,1,4,0.7724611965822987,S11I02,2023-01-26_10h34.00.904,t1_Paradigm,2021.1.4,59.979930923644176,
V,right,Target,0,29,29,29,2360.182908821327,2362.184975748969,right,1,4,0.7431087708246196,S11I02,2023-01-26_10h34.00.904,t1_Paradigm,2021.1.4,59.979930923644176,
C,left,Distractor,0,30,30,30,2363.682720670913,2365.68450657597,left,1,4,0.8114684810425388,S11I02,2023-01-26_10h34.00.904,t1_Paradigm,2021.1.4,59.979930923644176,
S,left,Pretarget,0,31,31,31,2367.1825241796614,2369.1827339841984,left,1,4,1.23341974671348,S11I02,2023-01-26_10h34.00.904,t1_Paradigm,2021.1.4,59.979930923644176,
D,left,Distractor,0,32,32,32,2370.682884921567,2372.682772320055,left,1,4,0.8690306356293149,S11I02,2023-01-26_10h34.00.904,t1_Paradigm,2021.1.4,59.979930923644176,
V,left,Distractor,0,33,33,33,2374.182871287485,2376.1841631573625,right,0,4,0.7277317658445099,S11I02,2023-01-26_10h34.00.904,t1_Paradigm,2021.1.4,59.979930923644176,
R,left,Distractor,0,34,34,34,2377.682635979174,2379.6841074982076,left,1,4,0.6676545231312048,S11I02,2023-01-26_10h34.00.904,t1_Paradigm,2021.1.4,59.979930923644176,
S,right,Target,0,35,35,35,2381.1825482398126,2383.1832090920507,right,1,4,0.7045688949583564,S11I02,2023-01-26_10h34.00.904,t1_Paradigm,2021.1.4,59.979930923644176,
Y,left,Distractor,0,36,36,36,2384.6824900142383,2386.682585934046,left,1,4,0.8052859838062432,S11I02,2023-01-26_10h34.00.904,t1_Paradigm,2021.1.4,59.979930923644176,
N,left,Pretarget,0,37,37,37,2388.182912670949,2390.183083979253,left,1,4,0.8728064758324763,S11I02,2023-01-26_10h34.00.904,t1_Paradigm,2021.1.4,59.979930923644176,
Z,left,Pretarget,0,38,38,38,2391.68256540272,2393.6840571322828,left,1,4,0.8760680703417165,S11I02,2023-01-26_10h34.00.904,t1_Paradigm,2021.1.4,59.979930923644176,
P,left,Pretarget,0,39,39,39,2395.182734946604,2397.1828183551406,left,1,4,1.0411444677592954,S11I02,2023-01-26_10h34.00.904,t1_Paradigm,2021.1.4,59.979930923644176,
M,left,Distractor,0,40,40,40,2398.682667417772,2400.68278643534,left,1,4,0.7730761741258902,S11I02,2023-01-26_10h34.00.904,t1_Paradigm,2021.1.4,59.979930923644176,
N,right,Target,0,41,41,41,2402.1828998388664,2404.183973884152,right,1,4,0.8076592774159508,S11I02,2023-01-26_10h34.00.904,t1_Paradigm,2021.1.4,59.979930923644176,
Z,right,Target,0,42,42,42,2405.6828319892375,2407.68491495699,right,1,4,1.0189363037934527,S11I02,2023-01-26_10h34.00.904,t1_Paradigm,2021.1.4,59.979930923644176,
P,right,Target,0,43,43,43,2409.1825479190156,2411.182819317546,right,1,4,0.8168996598542435,S11I02,2023-01-26_10h34.00.904,t1_Paradigm,2021.1.4,59.979930923644176,
X,left,Pretarget,0,44,44,44,2412.6829272674368,2414.6829186057876,None,0,4,,S11I02,2023-01-26_10h34.00.904,t1_Paradigm,2021.1.4,59.979930923644176,
Z,left,Lure,0,45,45,45,2416.1826537836896,2418.182535086933,left,1,4,1.2893310539366212,S11I02,2023-01-26_10h34.00.904,t1_Paradigm,2021.1.4,59.979930923644176,
R,left,Pretarget,0,46,46,46,2419.6828926208254,2421.683850535759,None,0,4,,S11I02,2023-01-26_10h34.00.904,t1_Paradigm,2021.1.4,59.979930923644176,
K,left,Distractor,0,47,47,47,2423.182803919044,2425.1851075986197,left,1,4,1.3587378620431991,S11I02,2023-01-26_10h34.00.904,t1_Paradigm,2021.1.4,59.979930923644176,
X,right,Target,0,48,48,48,2426.682818194735,2428.682879788743,right,1,4,1.077334147747024,S11I02,2023-01-26_10h34.00.904,t1_Paradigm,2021.1.4,59.979930923644176,
B,left,Distractor,0,49,49,49,2430.1830483702215,2432.1847043504386,left,1,4,0.5830439431447303,S11I02,2023-01-26_10h34.00.904,t1_Paradigm,2021.1.4,59.979930923644176,
R,right,Target,0,50,50,50,2433.682358485399,2435.6831595281255,right,1,4,0.47699352011841256,S11I02,2023-01-26_10h34.00.904,t1_Paradigm,2021.1.4,59.979930923644176,
Y,left,Pretarget,0,51,51,51,2437.1826403099985,2439.183068901548,left,1,4,1.1048349040356698,S11I02,2023-01-26_10h34.00.904,t1_Paradigm,2021.1.4,59.979930923644176,
W,left,Pretarget,0,52,52,52,2440.6829086609214,2442.682781302501,left,1,4,0.85303929472866,S11I02,2023-01-26_10h34.00.904,t1_Paradigm,2021.1.4,59.979930923644176,
Z,left,Distractor,0,53,53,53,2444.1824407711247,2446.1827718388377,left,1,4,1.2091998330579372,S11I02,2023-01-26_10h34.00.904,t1_Paradigm,2021.1.4,59.979930923644176,
Q,left,Distractor,0,54,54,54,2447.6828823551477,2449.683684360294,left,1,4,1.020177166137728,S11I02,2023-01-26_10h34.00.904,t1_Paradigm,2021.1.4,59.979930923644176,
Y,right,Target,0,55,55,55,2451.1828305456147,2453.1842805709166,right,1,4,0.8957492765039206,S11I02,2023-01-26_10h34.00.904,t1_Paradigm,2021.1.4,59.979930923644176,
W,right,Target,0,56,56,56,2454.682872731093,2456.684996119904,left,0,4,1.0909717639733572,S11I02,2023-01-26_10h34.00.904,t1_Paradigm,2021.1.4,59.979930923644176,
H,left,Pretarget,0,57,57,57,2458.1824911370495,2460.182815788721,left,1,4,0.6009639460244216,S11I02,2023-01-26_10h34.00.904,t1_Paradigm,2021.1.4,59.979930923644176,
M,left,Distractor,0,58,58,58,2461.682905452908,2463.683085422861,left,1,4,0.5408183724648552,S11I02,2023-01-26_10h34.00.904,t1_Paradigm,2021.1.4,59.979930923644176,
R,left,Pretarget,0,59,59,59,2465.182505893943,2467.1826204202807,left,1,4,0.6733035265497165,S11I02,2023-01-26_10h34.00.904,t1_Paradigm,2021.1.4,59.979930923644176,
J,left,Distractor,0,60,60,60,2468.6825435881765,2470.6833545757836,left,1,4,0.9487464178528171,S11I02,2023-01-26_10h34.00.904,t1_Paradigm,2021.1.4,59.979930923644176,
H,right,Target,0,61,61,61,2472.1828337536426,2474.1841041297885,right,1,4,0.5676723918149946,S11I02,2023-01-26_10h34.00.904,t1_Paradigm,2021.1.4,59.979930923644176,
Z,left,Distractor,0,62,62,62,2475.6826712673937,2477.6845476386225,left,1,4,1.1475156928354409,S11I02,2023-01-26_10h34.00.904,t1_Paradigm,2021.1.4,59.979930923644176,
R,right,Target,0,63,63,63,2479.1828744954983,2481.1840630671213,right,1,4,1.1198638387868414,S11I02,2023-01-26_10h34.00.904,t1_Paradigm,2021.1.4,59.979930923644176,
J,left,Pretarget,0,0,0,0,2493.8333876023535,2495.832797968178,None,0,4,,S11I02,2023-01-26_10h34.00.904,t1_Paradigm,2021.1.4,59.979930923644176,
G,left,Pretarget,0,1,1,1,2497.3329001436214,2499.332517747578,None,0,4,,S11I02,2023-01-26_10h34.00.904,t1_Paradigm,2021.1.4,59.979930923644176,
Z,left,Distractor,0,2,2,2,2500.8327610759297,2502.833700063551,None,0,4,,S11I02,2023-01-26_10h34.00.904,t1_Paradigm,2021.1.4,59.979930923644176,
F,left,Distractor,0,3,3,3,2504.332873196254,2506.332774389215,None,0,4,,S11I02,2023-01-26_10h34.00.904,t1_Paradigm,2021.1.4,59.979930923644176,
J,right,Target,0,4,4,4,2507.832901908041,2509.834298680187,right,1,4,0.5976965770823881,S11I02,2023-01-26_10h34.00.904,t1_Paradigm,2021.1.4,59.979930923644176,
G,right,Target,0,5,5,5,2511.3328234719374,2513.3326848854485,left,0,4,0.7792724658502266,S11I02,2023-01-26_10h34.00.904,t1_Paradigm,2021.1.4,59.979930923644176,
H,left,Distractor,0,6,6,6,2514.832581747585,2516.8345434521616,left,1,4,1.0853140988911036,S11I02,2023-01-26_10h34.00.904,t1_Paradigm,2021.1.4,59.979930923644176,
P,left,Distractor,0,7,7,7,2518.332493687427,2520.3323464392743,None,0,4,,S11I02,2023-01-26_10h34.00.904,t1_Paradigm,2021.1.4,59.979930923644176,
G,left,Lure,0,8,8,8,2521.8329304594226,2523.832748243847,left,1,4,0.5835145597666269,S11I02,2023-01-26_10h34.00.904,t1_Paradigm,2021.1.4,59.979930923644176,
S,left,Distractor,0,9,9,9,2525.3328270007623,2527.333313978277,left,1,4,0.6986574754846515,S11I02,2023-01-26_10h34.00.904,t1_Paradigm,2021.1.4,59.979930923644176,
R,left,Pretarget,0,10,10,10,2528.8327315621427,2530.8342322741664,left,1,4,1.2138723150128499,S11I02,2023-01-26_10h34.00.904,t1_Paradigm,2021.1.4,59.979930923644176,
T,left,Pretarget,0,11,11,11,2532.33298740178,2534.3326653165277,left,1,4,1.0275013978971401,S11I02,2023-01-26_10h34.00.904,t1_Paradigm,2021.1.4,59.979930923644176,
X,left,Distractor,0,12,12,12,2535.8326279430767,2537.8341421287914,left,1,4,0.6138839280465618,S11I02,2023-01-26_10h34.00.904,t1_Paradigm,2021.1.4,59.979930923644176,
F,left,Pretarget,0,13,13,13,2539.3324446047045,2541.3345420085534,left,1,4,1.0013037395547144,S11I02,2023-01-26_10h34.00.904,t1_Paradigm,2021.1.4,59.979930923644176,
R,right,Target,0,14,14,14,2542.8328233115317,2544.834904354473,right,1,4,0.6370374956604792,S11I02,2023-01-26_10h34.00.904,t1_Paradigm,2021.1.4,59.979930923644176,
T,right,Target,0,15,15,15,2546.3324997826567,2548.3348175775172,right,1,4,0.7209942810586654,S11I02,2023-01-26_10h34.00.904,t1_Paradigm,2021.1.4,59.979930923644176,
C,left,Distractor,0,16,16,16,2549.8326706097578,2551.834904033676,left,1,4,0.6929715798178222,S11I02,2023-01-26_10h34.00.904,t1_Paradigm,2021.1.4,59.979930923644176,
F,right,Target,0,17,17,17,2553.332886669945,2555.333835281621,right,1,4,0.714048274923698,S11I02,2023-01-26_10h34.00.904,t1_Paradigm,2021.1.4,59.979930923644176,
M,left,Distractor,0,18,18,18,2556.8324168553227,2558.8347638431733,left,1,4,0.749053553736303,S11I02,2023-01-26_10h34.00.904,t1_Paradigm,2021.1.4,59.979930923644176,
N,left,Distractor,0,19,19,19,2560.3326383691456,2562.3325206347945,left,1,4,0.8674340037978254,S11I02,2023-01-26_10h34.00.904,t1_Paradigm,2021.1.4,59.979930923644176,
R,left,Lure,0,20,20,20,2563.832874639862,2565.8340914420696,left,1,4,0.6299622063088464,S11I02,2023-01-26_10h34.00.904,t1_Paradigm,2021.1.4,59.979930923644176,
F,right,Target,0,21,21,21,2567.332722740088,2569.3341981087433,right,1,4,0.6015417105227243,S11I02,2023-01-26_10h34.00.904,t1_Paradigm,2021.1.4,59.979930923644176,
P,left,Distractor,0,22,22,22,2570.832860524577,2572.8327578679164,right,0,4,1.423193090435234,S11I02,2023-01-26_10h34.00.904,t1_Paradigm,2021.1.4,59.979930923644176,
L,left,Pretarget,0,23,23,23,2574.332938639869,2576.333153256448,left,1,4,0.7707564544543857,S11I02,2023-01-26_10h34.00.904,t1_Paradigm,2021.1.4,59.979930923644176,
T,left,Distractor,0,24,24,24,2577.83245791799,2579.833775772844,right,0,4,1.3020498930563917,S11I02,2023-01-26_10h34.00.904,t1_Paradigm,2021.1.4,59.979930923644176,
F,left,Distractor,0,25,25,25,2581.3326489556202,2583.3327763140405,right,0,4,1.1312917704344727,S11I02,2023-01-26_10h34.00.904,t1_Paradigm,2021.1.4,59.979930923644176,
V,left,Distractor,0,26,26,26,2584.832500584671,2586.833961838027,left,1,4,0.5420752749196254,S11I02,2023-01-26_10h34.00.904,t1_Paradigm,2021.1.4,59.979930923644176,
L,right,Target,0,27,27,27,2588.3328876323503,2590.334423632594,left,0,4,0.9617915126582375,S11I02,2023-01-26_10h34.00.904,t1_Paradigm,2021.1.4,59.979930923644176,
S,left,Pretarget,0,28,28,28,2591.832889717567,2593.8330292664614,left,1,4,0.902825849072542,S11I02,2023-01-26_10h34.00.904,t1_Paradigm,2021.1.4,59.979930923644176,
W,left,Distractor,0,29,29,29,2595.332867742618,2597.334307502242,left,1,4,1.2259463420050452,S11I02,2023-01-26_10h34.00.904,t1_Paradigm,2021.1.4,59.979930923644176,
Q,left,Distractor,0,30,30,30,2598.832943291505,2600.832744715037,left,1,4,1.0072498056833865,S11I02,2023-01-26_10h34.00.904,t1_Paradigm,2021.1.4,59.979930923644176,
L,right,Target,0,31,31,31,2602.332877687484,2604.332827963168,left,0,4,1.1231289621064207,S11I02,2023-01-26_10h34.00.904,t1_Paradigm,2021.1.4,59.979930923644176,
S,right,Target,0,32,32,32,2605.8328367852228,2607.8341074821656,right,1,4,0.741861813221476,S11I02,2023-01-26_10h34.00.904,t1_Paradigm,2021.1.4,59.979930923644176,
Z,left,Pretarget,0,33,33,33,2609.332509406726,2611.3342670811835,left,1,4,0.5056677703396417,S11I02,2023-01-26_10h34.00.904,t1_Paradigm,2021.1.4,59.979930923644176,
F,left,Distractor,0,34,34,34,2612.8329208353534,2614.834516825591,left,1,4,0.5257355429785093,S11I02,2023-01-26_10h34.00.904,t1_Paradigm,2021.1.4,59.979930923644176,
V,left,Distractor,0,35,35,35,2616.3328411160473,2618.345736075513,left,1,4,0.5980090382799972,S11I02,2023-01-26_10h34.00.904,t1_Paradigm,2021.1.4,59.979930923644176,
M,left,Distractor,0,36,36,36,2619.8324688252615,2621.8339913518284,left,1,4,0.82198597646493,S11I02,2023-01-26_10h34.00.904,t1_Paradigm,2021.1.4,59.979930923644176,
Z,right,Target,0,37,37,37,2623.3325126147392,2625.3457668725023,right,1,4,0.8781754190567881,S11I02,2023-01-26_10h34.00.904,t1_Paradigm,2021.1.4,59.979930923644176,
H,left,Pretarget,0,38,38,38,2626.8329044744605,2628.834310870676,left,1,4,1.4216185939440038,S11I02,2023-01-26_10h34.00.904,t1_Paradigm,2021.1.4,59.979930923644176,
L,left,Distractor,0,39,39,39,2630.332985476969,2632.332770218796,right,0,4,1.2351090903393924,S11I02,2023-01-26_10h34.00.904,t1_Paradigm,2021.1.4,59.979930923644176,
G,left,Distractor,0,40,40,40,2633.8328951711883,2635.83491622415,left,1,4,0.9489183677505935,S11I02,2023-01-26_10h34.00.904,t1_Paradigm,2021.1.4,59.979930923644176,
K,left,Distractor,0,41,41,41,2637.3326399731595,2639.3342510410876,left,1,4,0.6174012017872883,S11I02,2023-01-26_10h34.00.904,t1_Paradigm,2021.1.4,59.979930923644176,
H,right,Target,0,42,42,42,2640.8328008553945,2642.834653487269,right,1,4,0.4134679761045845,S11I02,2023-01-26_10h34.00.904,t1_Paradigm,2021.1.4,59.979930923644176,
B,left,Distractor,0,43,43,43,2644.3327544994972,2646.3329277325975,left,1,4,0.7709505396924214,S11I02,2023-01-26_10h34.00.904,t1_Paradigm,2021.1.4,59.979930923644176,
Z,left,Distractor,0,44,44,44,2647.832453747571,2649.845718270997,left,1,4,0.5865548008441692,S11I02,2023-01-26_10h34.00.904,t1_Paradigm,2021.1.4,59.979930923644176,
T,left,Pretarget,0,45,45,45,2651.332660183689,2653.3347267905338,left,1,4,0.6651336605718825,S11I02,2023-01-26_10h34.00.904,t1_Paradigm,2021.1.4,59.979930923644176,
H,right,Target,0,46,46,46,2654.832518549578,2656.834149828035,right,1,4,0.6058779919258086,S11I02,2023-01-26_10h34.00.904,t1_Paradigm,2021.1.4,59.979930923644176,
F,left,Distractor,0,47,47,47,2658.3329373566667,2660.3330538078153,left,1,4,0.9310439187684096,S11I02,2023-01-26_10h34.00.904,t1_Paradigm,2021.1.4,59.979930923644176,
R,left,Distractor,0,48,48,48,2661.8326606648916,2663.8326333967125,left,1,4,0.9512332753802184,S11I02,2023-01-26_10h34.00.904,t1_Paradigm,2021.1.4,59.979930923644176,
T,right,Target,0,49,49,49,2665.332937998275,2667.333270990799,right,1,4,0.5864300088578602,S11I02,2023-01-26_10h34.00.904,t1_Paradigm,2021.1.4,59.979930923644176,
H,right,Target,0,50,50,50,2668.832720654871,2670.8338309507963,right,1,4,0.7823197645921027,S11I02,2023-01-26_10h34.00.904,t1_Paradigm,2021.1.4,59.979930923644176,
Y,left,Pretarget,0,51,51,51,2672.3328908403637,2674.3345423293504,left,1,4,0.9774463322246447,S11I02,2023-01-26_10h34.00.904,t1_Paradigm,2021.1.4,59.979930923644176,
H,left,Distractor,0,52,52,52,2675.832848975697,2677.8334982790548,None,0,4,,S11I02,2023-01-26_10h34.00.904,t1_Paradigm,2021.1.4,59.979930923644176,
S,left,Distractor,0,53,53,53,2679.332828283965,2681.3336880334828,left,1,4,0.9542128848988796,S11I02,2023-01-26_10h34.00.904,t1_Paradigm,2021.1.4,59.979930923644176,
Q,left,Distractor,0,54,54,54,2682.832756584714,2684.8325114919426,left,1,4,1.2316065734921722,S11I02,2023-01-26_10h34.00.904,t1_Paradigm,2021.1.4,59.979930923644176,
Y,right,Target,0,55,55,55,2686.3328892363643,2688.3349311414495,left,0,4,1.1210119893366937,S11I02,2023-01-26_10h34.00.904,t1_Paradigm,2021.1.4,59.979930923644176,
R,left,Distractor,0,56,56,56,2689.832895492,2691.834981988577,left,1,4,1.2369671758642653,S11I02,2023-01-26_10h34.00.904,t1_Paradigm,2021.1.4,59.979930923644176,
H,left,Pretarget,0,57,57,57,2693.3328388704394,2695.3328003741917,right,0,4,1.0031069679098437,S11I02,2023-01-26_10h34.00.904,t1_Paradigm,2021.1.4,59.979930923644176,
J,left,Distractor,0,58,58,58,2696.8325551210146,2698.834272374428,left,1,4,0.7816531379066873,S11I02,2023-01-26_10h34.00.904,t1_Paradigm,2021.1.4,59.979930923644176,
V,left,Distractor,0,59,59,59,2700.3324234317697,2702.3329976674577,left,1,4,0.6908786672138376,S11I02,2023-01-26_10h34.00.904,t1_Paradigm,2021.1.4,59.979930923644176,
Y,left,Lure,0,60,60,60,2703.8328383892367,2705.8335053367045,left,1,4,1.206486168448464,S11I02,2023-01-26_10h34.00.904,t1_Paradigm,2021.1.4,59.979930923644176,
H,right,Target,0,61,61,61,2707.332945376722,2709.3348746802803,left,0,4,1.2089544194750488,S11I02,2023-01-26_10h34.00.904,t1_Paradigm,2021.1.4,59.979930923644176,
L,left,Distractor,0,62,62,62,2710.832483261358,2712.834466138869,left,1,4,1.1654732295573922,S11I02,2023-01-26_10h34.00.904,t1_Paradigm,2021.1.4,59.979930923644176,
P,left,Distractor,0,63,63,63,2714.3326621085,2716.333695091118,None,0,4,,S11I02,2023-01-26_10h34.00.904,t1_Paradigm,2021.1.4,59.979930923644176,
