Letter,CorrAnswer,Stimulus,nback_run.thisRepN,nback_run.thisTrialN,nback_run.thisN,nback_run.thisIndex,fixcross.started,nback_trial.started,trial_resp.keys,trial_resp.corr,currentlevel,trial_resp.rt,Participant,date,expName,psychopyVersion,frameRate,
H,left,Distractor,0,0,0,0,339.03474896910484,340.99520689493875,None,0,1,,S13G10,2022-11-29_16h10.48.458,t1_Paradigm,2021.1.4,59.96929570584077,
Q,left,Pretarget,0,1,1,1,342.4824765028461,344.4860643541979,None,0,1,,S13G10,2022-11-29_16h10.48.458,t1_Paradigm,2021.1.4,59.96929570584077,
Q,right,Target,0,2,2,2,345.98227343507824,347.9824951093724,None,0,1,,S13G10,2022-11-29_16h10.48.458,t1_Paradigm,2021.1.4,59.96929570584077,
T,left,Distractor,0,3,3,3,349.48252301916,351.48452257901954,None,0,1,,S13G10,2022-11-29_16h10.48.458,t1_Paradigm,2021.1.4,59.96929570584077,
Q,left,Lure,0,4,4,4,352.9825470793221,354.9826404327505,None,0,1,,S13G10,2022-11-29_16h10.48.458,t1_Paradigm,2021.1.4,59.96929570584077,
L,left,Distractor,0,5,5,5,356.48237833738676,358.4845700577389,None,0,1,,S13G10,2022-11-29_16h10.48.458,t1_Paradigm,2021.1.4,59.96929570584077,
V,left,Pretarget,0,6,6,6,359.98250858306346,361.9852456670851,None,0,1,,S13G10,2022-11-29_16h10.48.458,t1_Paradigm,2021.1.4,59.96929570584077,
V,right,Target,0,7,7,7,363.4825355304456,365.48253649285107,None,0,1,,S13G10,2022-11-29_16h10.48.458,t1_Paradigm,2021.1.4,59.96929570584077,
K,left,Distractor,0,8,8,8,366.98252622718064,368.9841023281915,None,0,1,,S13G10,2022-11-29_16h10.48.458,t1_Paradigm,2021.1.4,59.96929570584077,
G,left,Pretarget,0,9,9,9,370.48208512421115,372.4847067194569,None,0,1,,S13G10,2022-11-29_16h10.48.458,t1_Paradigm,2021.1.4,59.96929570584077,
G,right,Target,0,10,10,10,373.98249831739304,375.9825063374483,None,0,1,,S13G10,2022-11-29_16h10.48.458,t1_Paradigm,2021.1.4,59.96929570584077,
G,right,Target,0,11,11,11,377.4824822772862,379.4825676106593,None,0,1,,S13G10,2022-11-29_16h10.48.458,t1_Paradigm,2021.1.4,59.96929570584077,
P,left,Pretarget,0,12,12,12,380.98251243268896,382.98448985719733,None,0,1,,S13G10,2022-11-29_16h10.48.458,t1_Paradigm,2021.1.4,59.96929570584077,
P,right,Target,0,13,13,13,384.4825762723194,386.48253488884075,left,0,1,0.737507161909889,S13G10,2022-11-29_16h10.48.458,t1_Paradigm,2021.1.4,59.96929570584077,
G,left,Lure,0,14,14,14,387.9825005630082,389.9845145589643,None,0,1,,S13G10,2022-11-29_16h10.48.458,t1_Paradigm,2021.1.4,59.96929570584077,
Y,left,Distractor,0,15,15,15,391.48225803657624,393.4852177572975,None,0,1,,S13G10,2022-11-29_16h10.48.458,t1_Paradigm,2021.1.4,59.96929570584077,
B,left,Distractor,0,16,16,16,394.9824450642336,396.9845546592369,None,0,1,,S13G10,2022-11-29_16h10.48.458,t1_Paradigm,2021.1.4,59.96929570584077,
T,left,Pretarget,0,17,17,17,398.48257434750485,400.48357909986953,None,0,1,,S13G10,2022-11-29_16h10.48.458,t1_Paradigm,2021.1.4,59.96929570584077,
T,right,Target,0,18,18,18,401.9826760417891,403.9825291144007,None,0,1,,S13G10,2022-11-29_16h10.48.458,t1_Paradigm,2021.1.4,59.96929570584077,
S,left,Distractor,0,19,19,19,405.482538417662,407.4851330655292,None,0,1,,S13G10,2022-11-29_16h10.48.458,t1_Paradigm,2021.1.4,59.96929570584077,
T,left,Lure,0,20,20,20,408.9824155504357,410.9841696966432,None,0,1,,S13G10,2022-11-29_16h10.48.458,t1_Paradigm,2021.1.4,59.96929570584077,
J,left,Distractor,0,21,21,21,412.48262984627945,414.4851946595445,left,1,1,0.8144239708490204,S13G10,2022-11-29_16h10.48.458,t1_Paradigm,2021.1.4,59.96929570584077,
P,left,Distractor,0,22,22,22,415.98258300916496,417.98453797752154,right,0,1,1.1710744883348525,S13G10,2022-11-29_16h10.48.458,t1_Paradigm,2021.1.4,59.96929570584077,
F,left,Distractor,0,23,23,23,419.4820629888636,421.48448857399126,None,0,1,,S13G10,2022-11-29_16h10.48.458,t1_Paradigm,2021.1.4,59.96929570584077,
L,left,Distractor,0,24,24,24,422.98234048272934,424.98320921497725,None,0,1,,S13G10,2022-11-29_16h10.48.458,t1_Paradigm,2021.1.4,59.96929570584077,
W,left,Pretarget,0,25,25,25,426.48259295403113,428.48415109011694,None,0,1,,S13G10,2022-11-29_16h10.48.458,t1_Paradigm,2021.1.4,59.96929570584077,
W,right,Target,0,26,26,26,429.9825050542386,431.98254900413303,None,0,1,,S13G10,2022-11-29_16h10.48.458,t1_Paradigm,2021.1.4,59.96929570584077,
V,left,Distractor,0,27,27,27,433.48252398156546,435.4844378872476,left,1,1,0.9511739113404474,S13G10,2022-11-29_16h10.48.458,t1_Paradigm,2021.1.4,59.96929570584077,
W,left,Lure,0,28,28,28,436.98251852792964,438.9827796608879,None,0,1,,S13G10,2022-11-29_16h10.48.458,t1_Paradigm,2021.1.4,59.96929570584077,
R,left,Pretarget,0,29,29,29,440.48258557558074,442.48560400309725,None,0,1,,S13G10,2022-11-29_16h10.48.458,t1_Paradigm,2021.1.4,59.96929570584077,
R,right,Target,0,30,30,30,443.98257274349453,445.9825332848304,left,0,1,0.6292120521502511,S13G10,2022-11-29_16h10.48.458,t1_Paradigm,2021.1.4,59.96929570584077,
G,left,Distractor,0,31,31,31,447.48255766579314,449.4843714812014,None,0,1,,S13G10,2022-11-29_16h10.48.458,t1_Paradigm,2021.1.4,59.96929570584077,
R,left,Lure,0,32,32,32,450.9825294352013,452.983860764165,left,1,1,1.3078263536408485,S13G10,2022-11-29_16h10.48.458,t1_Paradigm,2021.1.4,59.96929570584077,
S,left,Distractor,0,33,33,33,454.48258332996556,456.48469324576945,left,1,1,0.9750508952602104,S13G10,2022-11-29_16h10.48.458,t1_Paradigm,2021.1.4,59.96929570584077,
R,left,Lure,0,34,34,34,457.9823722421461,459.98498549653596,left,1,1,0.722767585892143,S13G10,2022-11-29_16h10.48.458,t1_Paradigm,2021.1.4,59.96929570584077,
P,left,Pretarget,0,35,35,35,461.48252622718064,463.48451006773394,left,1,1,0.8552168526366586,S13G10,2022-11-29_16h10.48.458,t1_Paradigm,2021.1.4,59.96929570584077,
P,right,Target,0,36,36,36,464.982441856213,466.98253007680614,right,1,1,1.0850687126148841,S13G10,2022-11-29_16h10.48.458,t1_Paradigm,2021.1.4,59.96929570584077,
Y,left,Pretarget,0,37,37,37,468.4826721921636,470.48415750616186,None,0,1,,S13G10,2022-11-29_16h10.48.458,t1_Paradigm,2021.1.4,59.96929570584077,
Y,right,Target,0,38,38,38,471.9825371344559,473.9825599114083,right,1,1,0.933322875182057,S13G10,2022-11-29_16h10.48.458,t1_Paradigm,2021.1.4,59.96929570584077,
J,left,Distractor,0,39,39,39,475.4825114702835,477.4841141978686,left,1,1,1.0957543117401656,S13G10,2022-11-29_16h10.48.458,t1_Paradigm,2021.1.4,59.96929570584077,
Y,left,Lure,0,40,40,40,478.98254002167596,480.9833048140208,left,1,1,0.9084507629631844,S13G10,2022-11-29_16h10.48.458,t1_Paradigm,2021.1.4,59.96929570584077,
T,left,Distractor,0,41,41,41,482.48256151541864,484.48400704994856,left,1,1,0.8319644705188693,S13G10,2022-11-29_16h10.48.458,t1_Paradigm,2021.1.4,59.96929570584077,
V,left,Distractor,0,42,42,42,485.9825454753118,487.9844170351098,left,1,1,0.8832055578350264,S13G10,2022-11-29_16h10.48.458,t1_Paradigm,2021.1.4,59.96929570584077,
N,left,Pretarget,0,43,43,43,489.4825737059,491.4853771959715,left,1,1,0.7582255277666263,S13G10,2022-11-29_16h10.48.458,t1_Paradigm,2021.1.4,59.96929570584077,
N,right,Target,0,44,44,44,492.9823411243342,494.98258589638135,left,0,1,0.6048990980962117,S13G10,2022-11-29_16h10.48.458,t1_Paradigm,2021.1.4,59.96929570584077,
N,right,Target,0,45,45,45,496.4825846131753,498.4825785179346,right,1,1,0.6571407673473004,S13G10,2022-11-29_16h10.48.458,t1_Paradigm,2021.1.4,59.96929570584077,
X,left,Distractor,0,46,46,46,499.9825252647752,501.98522064451754,left,1,1,0.6903845327178715,S13G10,2022-11-29_16h10.48.458,t1_Paradigm,2021.1.4,59.96929570584077,
Z,left,Distractor,0,47,47,47,503.4826352999153,505.48445745617937,left,1,1,0.9192143170148483,S13G10,2022-11-29_16h10.48.458,t1_Paradigm,2021.1.4,59.96929570584077,
H,left,Pretarget,0,48,48,48,506.9824864477123,508.9845921930864,None,0,1,,S13G10,2022-11-29_16h10.48.458,t1_Paradigm,2021.1.4,59.96929570584077,
H,right,Target,0,49,49,49,510.4825685730648,512.4826199014133,right,1,1,0.9449718431933434,S13G10,2022-11-29_16h10.48.458,t1_Paradigm,2021.1.4,59.96929570584077,
K,left,Distractor,0,50,50,50,513.9825518913531,515.9835043529638,left,1,1,0.5325123364491446,S13G10,2022-11-29_16h10.48.458,t1_Paradigm,2021.1.4,59.96929570584077,
V,left,Pretarget,0,51,51,51,517.4824809940765,519.4845973259216,left,1,1,0.8071911653642019,S13G10,2022-11-29_16h10.48.458,t1_Paradigm,2021.1.4,59.96929570584077,
V,right,Target,0,52,52,52,520.9825592698035,522.9824607835399,right,1,1,0.5732044863543706,S13G10,2022-11-29_16h10.48.458,t1_Paradigm,2021.1.4,59.96929570584077,
R,left,Distractor,0,53,53,53,524.4826308086849,526.4844946692319,left,1,1,0.6232608512909792,S13G10,2022-11-29_16h10.48.458,t1_Paradigm,2021.1.4,59.96929570584077,
V,left,Lure,0,54,54,54,527.9826077109283,529.9836942678448,left,1,1,1.0121263216242369,S13G10,2022-11-29_16h10.48.458,t1_Paradigm,2021.1.4,59.96929570584077,
Y,left,Distractor,0,55,55,55,531.4824973549876,533.4844212055359,left,1,1,0.7114365328234271,S13G10,2022-11-29_16h10.48.458,t1_Paradigm,2021.1.4,59.96929570584077,
Q,left,Distractor,0,56,56,56,534.982504733438,536.984365706765,left,1,1,0.7311713192611933,S13G10,2022-11-29_16h10.48.458,t1_Paradigm,2021.1.4,59.96929570584077,
Z,left,Pretarget,0,57,57,57,538.4825637610338,540.484483441156,left,1,1,0.6552948717217078,S13G10,2022-11-29_16h10.48.458,t1_Paradigm,2021.1.4,59.96929570584077,
Z,right,Target,0,58,58,58,541.9825672898587,543.9825457961124,right,1,1,0.9010966942623782,S13G10,2022-11-29_16h10.48.458,t1_Paradigm,2021.1.4,59.96929570584077,
B,left,Distractor,0,59,59,59,545.4826150893787,547.4849335265862,left,1,1,0.4868657179904403,S13G10,2022-11-29_16h10.48.458,t1_Paradigm,2021.1.4,59.96929570584077,
S,left,Pretarget,0,60,60,60,548.9826458863863,550.9841684134335,left,1,1,0.635489188007341,S13G10,2022-11-29_16h10.48.458,t1_Paradigm,2021.1.4,59.96929570584077,
S,right,Target,0,61,61,61,552.4825701770787,554.4826410743553,right,1,1,0.7370708709713654,S13G10,2022-11-29_16h10.48.458,t1_Paradigm,2021.1.4,59.96929570584077,
T,left,Distractor,0,62,62,62,555.9825990492718,557.9843714812014,left,1,1,0.8832860791735584,S13G10,2022-11-29_16h10.48.458,t1_Paradigm,2021.1.4,59.96929570584077,
D,left,Distractor,0,63,63,63,559.4826356207159,561.4850188599594,left,1,1,0.9186968631329364,S13G10,2022-11-29_16h10.48.458,t1_Paradigm,2021.1.4,59.96929570584077,
R,left,Distractor,0,0,0,0,589.1078591396217,591.1013969009218,None,0,1,,S13G10,2022-11-29_16h10.48.458,t1_Paradigm,2021.1.4,59.96929570584077,
V,left,Distractor,0,1,1,1,592.5992414312132,594.6007912264467,left,1,1,0.7310863066886668,S13G10,2022-11-29_16h10.48.458,t1_Paradigm,2021.1.4,59.96929570584077,
N,left,Pretarget,0,2,2,2,596.099393812241,598.1014655525869,left,1,1,0.5742586422493332,S13G10,2022-11-29_16h10.48.458,t1_Paradigm,2021.1.4,59.96929570584077,
N,right,Target,0,3,3,3,599.5993142533043,601.5992953259774,right,1,1,0.6283449239163019,S13G10,2022-11-29_16h10.48.458,t1_Paradigm,2021.1.4,59.96929570584077,
S,left,Distractor,0,4,4,4,603.0993190653389,605.1012150060997,left,1,1,0.5984047791826015,S13G10,2022-11-29_16h10.48.458,t1_Paradigm,2021.1.4,59.96929570584077,
N,left,Lure,0,5,5,5,606.5989482180412,608.5999462335603,left,1,1,1.0516751326358644,S13G10,2022-11-29_16h10.48.458,t1_Paradigm,2021.1.4,59.96929570584077,
Z,left,Distractor,0,6,6,6,610.0993216317547,612.1011591865245,left,1,1,0.6386372195920558,S13G10,2022-11-29_16h10.48.458,t1_Paradigm,2021.1.4,59.96929570584077,
L,left,Pretarget,0,7,7,7,613.5993533911678,615.6008698229743,left,1,1,0.5469939875256387,S13G10,2022-11-29_16h10.48.458,t1_Paradigm,2021.1.4,59.96929570584077,
L,right,Target,0,8,8,8,617.0991596266649,619.099266774585,right,1,1,0.6485808033285139,S13G10,2022-11-29_16h10.48.458,t1_Paradigm,2021.1.4,59.96929570584077,
H,left,Distractor,0,9,9,9,620.5992626041589,622.6011668857755,left,1,1,0.698514621839422,S13G10,2022-11-29_16h10.48.458,t1_Paradigm,2021.1.4,59.96929570584077,
L,left,Lure,0,10,10,10,624.099244960038,626.1012381038563,left,1,1,0.606581384621677,S13G10,2022-11-29_16h10.48.458,t1_Paradigm,2021.1.4,59.96929570584077,
X,left,Pretarget,0,11,11,11,627.599242072818,629.6012291213956,left,1,1,0.6424746550255804,S13G10,2022-11-29_16h10.48.458,t1_Paradigm,2021.1.4,59.96929570584077,
X,right,Target,0,12,12,12,631.0993960578562,633.0992491304678,right,1,1,0.776575090483675,S13G10,2022-11-29_16h10.48.458,t1_Paradigm,2021.1.4,59.96929570584077,
X,right,Target,0,13,13,13,634.5992645289698,636.5992853811113,right,1,1,0.7645729192918225,S13G10,2022-11-29_16h10.48.458,t1_Paradigm,2021.1.4,59.96929570584077,
R,left,Distractor,0,14,14,14,638.099272549025,640.099226674316,left,1,1,0.5288134875481774,S13G10,2022-11-29_16h10.48.458,t1_Paradigm,2021.1.4,59.96929570584077,
T,left,Distractor,0,15,15,15,641.5991968397138,643.6008727101944,left,1,1,1.1069528735206404,S13G10,2022-11-29_16h10.48.458,t1_Paradigm,2021.1.4,59.96929570584077,
V,left,Pretarget,0,16,16,16,645.0992857019119,647.101416149053,left,1,1,0.6624263037265337,S13G10,2022-11-29_16h10.48.458,t1_Paradigm,2021.1.4,59.96929570584077,
V,right,Target,0,17,17,17,648.5992789650663,650.5993412006865,right,1,1,0.5724717742232315,S13G10,2022-11-29_16h10.48.458,t1_Paradigm,2021.1.4,59.96929570584077,
N,left,Distractor,0,18,18,18,652.0991644386959,654.1007796775702,left,1,1,0.46306187696245615,S13G10,2022-11-29_16h10.48.458,t1_Paradigm,2021.1.4,59.96929570584077,
B,left,Distractor,0,19,19,19,655.5990906541992,657.601153732885,left,1,1,0.8025340804197185,S13G10,2022-11-29_16h10.48.458,t1_Paradigm,2021.1.4,59.96929570584077,
V,left,Lure,0,20,20,20,659.0993290102051,661.1010988757189,left,1,1,0.934589081305603,S13G10,2022-11-29_16h10.48.458,t1_Paradigm,2021.1.4,59.96929570584077,
P,left,Distractor,0,21,21,21,662.5991176015814,664.6009211513228,left,1,1,0.6507763733061438,S13G10,2022-11-29_16h10.48.458,t1_Paradigm,2021.1.4,59.96929570584077,
K,left,Pretarget,0,22,22,22,666.099173100356,668.100852820462,left,1,1,0.5268235517542053,S13G10,2022-11-29_16h10.48.458,t1_Paradigm,2021.1.4,59.96929570584077,
K,right,Target,0,23,23,23,669.5991756667718,671.5993023836236,right,1,1,0.5966374800882477,S13G10,2022-11-29_16h10.48.458,t1_Paradigm,2021.1.4,59.96929570584077,
J,left,Pretarget,0,24,24,24,673.0990746140924,675.1014376427993,left,1,1,0.4543636472117214,S13G10,2022-11-29_16h10.48.458,t1_Paradigm,2021.1.4,59.96929570584077,
J,right,Target,0,25,25,25,676.5993415214871,678.5993665440583,right,1,1,0.4283353640130372,S13G10,2022-11-29_16h10.48.458,t1_Paradigm,2021.1.4,59.96929570584077,
H,left,Distractor,0,26,26,26,680.099286664321,682.1011110662002,left,1,1,0.4627667389722774,S13G10,2022-11-29_16h10.48.458,t1_Paradigm,2021.1.4,59.96929570584077,
J,left,Lure,0,27,27,27,683.5992776818603,685.6010562090305,left,1,1,1.0110583712375956,S13G10,2022-11-29_16h10.48.458,t1_Paradigm,2021.1.4,59.96929570584077,
V,left,Distractor,0,28,28,28,687.0993087996685,689.1012345750314,left,1,1,0.7745604529191041,S13G10,2022-11-29_16h10.48.458,t1_Paradigm,2021.1.4,59.96929570584077,
Z,left,Pretarget,0,29,29,29,690.5992876267264,692.6010594170511,left,1,1,0.506794910539611,S13G10,2022-11-29_16h10.48.458,t1_Paradigm,2021.1.4,59.96929570584077,
Z,right,Target,0,30,30,30,694.0992552257085,696.099337351061,right,1,1,0.6404641878907569,S13G10,2022-11-29_16h10.48.458,t1_Paradigm,2021.1.4,59.96929570584077,
T,left,Distractor,0,31,31,31,697.5992010101436,699.6013070763183,left,1,1,0.5144489292615617,S13G10,2022-11-29_16h10.48.458,t1_Paradigm,2021.1.4,59.96929570584077,
Z,left,Lure,0,32,32,32,701.0992645289698,703.1010385649133,left,1,1,1.2067322899565625,S13G10,2022-11-29_16h10.48.458,t1_Paradigm,2021.1.4,59.96929570584077,
F,left,Distractor,0,33,33,33,704.5994560478575,706.5995224539074,left,1,1,0.6042164311038505,S13G10,2022-11-29_16h10.48.458,t1_Paradigm,2021.1.4,59.96929570584077,
Y,left,Pretarget,0,34,34,34,708.09904894992,710.1014482292703,left,1,1,0.46238851323141716,S13G10,2022-11-29_16h10.48.458,t1_Paradigm,2021.1.4,59.96929570584077,
Y,right,Target,0,35,35,35,711.5994682383425,713.5994881280749,right,1,1,0.9644086044281721,S13G10,2022-11-29_16h10.48.458,t1_Paradigm,2021.1.4,59.96929570584077,
Y,right,Target,0,36,36,36,715.0993511455526,717.0993299726106,right,1,1,0.45642351787682856,S13G10,2022-11-29_16h10.48.458,t1_Paradigm,2021.1.4,59.96929570584077,
W,left,Distractor,0,37,37,37,718.599285060307,720.6002811510116,left,1,1,0.4116376116144238,S13G10,2022-11-29_16h10.48.458,t1_Paradigm,2021.1.4,59.96929570584077,
Q,left,Distractor,0,38,38,38,722.0992898723416,724.101300660277,left,1,1,0.6065695149409294,S13G10,2022-11-29_16h10.48.458,t1_Paradigm,2021.1.4,59.96929570584077,
P,left,Pretarget,0,39,39,39,725.5992882683313,727.6005628153107,left,1,1,0.5633394991527894,S13G10,2022-11-29_16h10.48.458,t1_Paradigm,2021.1.4,59.96929570584077,
P,right,Target,0,40,40,40,729.099259075334,731.0993604488176,right,1,1,0.6329275827629317,S13G10,2022-11-29_16h10.48.458,t1_Paradigm,2021.1.4,59.96929570584077,
J,left,Distractor,0,41,41,41,732.5989690701826,734.600900619982,left,1,1,0.44281733589377836,S13G10,2022-11-29_16h10.48.458,t1_Paradigm,2021.1.4,59.96929570584077,
P,left,Lure,0,42,42,42,736.099312649294,738.1013138131639,left,1,1,0.7183985812844185,S13G10,2022-11-29_16h10.48.458,t1_Paradigm,2021.1.4,59.96929570584077,
L,left,Distractor,0,43,43,43,739.5990309849985,741.6012021740135,left,1,1,0.6746668309169763,S13G10,2022-11-29_16h10.48.458,t1_Paradigm,2021.1.4,59.96929570584077,
Z,left,Distractor,0,44,44,44,743.0993678272644,745.1012685800597,left,1,1,0.8065816412599816,S13G10,2022-11-29_16h10.48.458,t1_Paradigm,2021.1.4,59.96929570584077,
F,left,Pretarget,0,45,45,45,746.5990723684772,748.5999500831858,left,1,1,0.6997355948624318,S13G10,2022-11-29_16h10.48.458,t1_Paradigm,2021.1.4,59.96929570584077,
F,right,Target,0,46,46,46,750.0993617320237,752.0993646192437,right,1,1,0.46453115085387253,S13G10,2022-11-29_16h10.48.458,t1_Paradigm,2021.1.4,59.96929570584077,
G,left,Pretarget,0,47,47,47,753.5993229149644,755.5998544841423,left,1,1,0.5480555218709924,S13G10,2022-11-29_16h10.48.458,t1_Paradigm,2021.1.4,59.96929570584077,
G,right,Target,0,48,48,48,757.0990723684772,759.0990742932881,None,0,1,,S13G10,2022-11-29_16h10.48.458,t1_Paradigm,2021.1.4,59.96929570584077,
V,left,Distractor,0,49,49,49,760.5994464237956,762.6121027105874,left,1,1,0.6236188665025111,S13G10,2022-11-29_16h10.48.458,t1_Paradigm,2021.1.4,59.96929570584077,
G,left,Lure,0,50,50,50,764.0992719074202,766.1012846201666,left,1,1,0.9745902233626111,S13G10,2022-11-29_16h10.48.458,t1_Paradigm,2021.1.4,59.96929570584077,
Q,left,Pretarget,0,51,51,51,767.5993264437857,769.5988234260003,left,1,1,0.5650625275484344,S13G10,2022-11-29_16h10.48.458,t1_Paradigm,2021.1.4,59.96929570584077,
Q,right,Target,0,52,52,52,771.09938611299,773.0992789650663,left,0,1,0.5683298975418438,S13G10,2022-11-29_16h10.48.458,t1_Paradigm,2021.1.4,59.96929570584077,
Y,left,Distractor,0,53,53,53,774.599294363572,776.6011591865245,left,1,1,0.5546415902026638,S13G10,2022-11-29_16h10.48.458,t1_Paradigm,2021.1.4,59.96929570584077,
V,left,Distractor,0,54,54,54,778.0992767194512,780.1011559785002,left,1,1,0.6706972249958199,S13G10,2022-11-29_16h10.48.458,t1_Paradigm,2021.1.4,59.96929570584077,
B,left,Distractor,0,55,55,55,781.5992812106815,783.5999635568769,left,1,1,0.5959631539481052,S13G10,2022-11-29_16h10.48.458,t1_Paradigm,2021.1.4,59.96929570584077,
J,left,Pretarget,0,56,56,56,785.0992218622814,787.1015736629124,left,1,1,0.7743195305010886,S13G10,2022-11-29_16h10.48.458,t1_Paradigm,2021.1.4,59.96929570584077,
J,right,Target,0,57,57,57,788.5993829049658,790.599406323523,right,1,1,0.6363476545848243,S13G10,2022-11-29_16h10.48.458,t1_Paradigm,2021.1.4,59.96929570584077,
H,left,Distractor,0,58,58,58,792.0992818522864,794.100921792924,left,1,1,0.9749867348327825,S13G10,2022-11-29_16h10.48.458,t1_Paradigm,2021.1.4,59.96929570584077,
J,left,Lure,0,59,59,59,795.5993822633609,797.6012304046017,left,1,1,0.6265817952444195,S13G10,2022-11-29_16h10.48.458,t1_Paradigm,2021.1.4,59.96929570584077,
D,left,Pretarget,0,60,60,60,799.0993845089761,801.1007212915756,left,1,1,0.5350370494415984,S13G10,2022-11-29_16h10.48.458,t1_Paradigm,2021.1.4,59.96929570584077,
D,right,Target,0,61,61,61,802.5991015614745,804.5993639776389,right,1,1,0.4283828427287517,S13G10,2022-11-29_16h10.48.458,t1_Paradigm,2021.1.4,59.96929570584077,
R,left,Distractor,0,62,62,62,806.0992863435167,808.1008415923861,left,1,1,0.4631199421528436,S13G10,2022-11-29_16h10.48.458,t1_Paradigm,2021.1.4,59.96929570584077,
F,left,Distractor,0,63,63,63,809.5993646192437,811.601199607594,left,1,1,1.0424700354742527,S13G10,2022-11-29_16h10.48.458,t1_Paradigm,2021.1.4,59.96929570584077,
F,left,Distractor,0,0,0,0,953.4603026575896,955.4493235244881,None,0,2,,S13G10,2022-11-29_16h10.48.458,t1_Paradigm,2021.1.4,59.96929570584077,
N,left,Pretarget,0,1,1,1,956.9494133490916,958.9496353441864,None,0,2,,S13G10,2022-11-29_16h10.48.458,t1_Paradigm,2021.1.4,59.96929570584077,
V,left,Distractor,0,2,2,2,960.4492837450198,962.4513330292139,left,1,2,0.6245716489174811,S13G10,2022-11-29_16h10.48.458,t1_Paradigm,2021.1.4,59.96929570584077,
N,right,Target,0,3,3,3,963.9494322764185,965.9510741418708,None,0,2,,S13G10,2022-11-29_16h10.48.458,t1_Paradigm,2021.1.4,59.96929570584077,
N,left,Lure,0,4,4,4,967.4494043666309,969.4493847976992,left,1,2,0.7146156822200282,S13G10,2022-11-29_16h10.48.458,t1_Paradigm,2021.1.4,59.96929570584077,
X,left,Distractor,0,5,5,5,970.9493575295164,972.9512249188847,None,0,2,,S13G10,2022-11-29_16h10.48.458,t1_Paradigm,2021.1.4,59.96929570584077,
G,left,Pretarget,0,6,6,6,974.4494175195214,976.4513766583077,left,1,2,0.624578706563625,S13G10,2022-11-29_16h10.48.458,t1_Paradigm,2021.1.4,59.96929570584077,
H,left,Pretarget,0,7,7,7,977.9493815896785,979.9495769581918,None,0,2,,S13G10,2022-11-29_16h10.48.458,t1_Paradigm,2021.1.4,59.96929570584077,
G,right,Target,0,8,8,8,981.449425539573,983.4509942621335,right,1,2,0.504914368277241,S13G10,2022-11-29_16h10.48.458,t1_Paradigm,2021.1.4,59.96929570584077,
H,right,Target,0,9,9,9,984.9495528980297,986.9501781414401,None,0,2,,S13G10,2022-11-29_16h10.48.458,t1_Paradigm,2021.1.4,59.96929570584077,
T,left,Pretarget,0,10,10,10,988.4493248076942,990.4514080969202,left,1,2,0.688560451639205,S13G10,2022-11-29_16h10.48.458,t1_Paradigm,2021.1.4,59.96929570584077,
K,left,Distractor,0,11,11,11,991.9493629831522,993.9505249285758,None,0,2,,S13G10,2022-11-29_16h10.48.458,t1_Paradigm,2021.1.4,59.96929570584077,
T,right,Target,0,12,12,12,995.4495490484042,997.4508040264518,right,1,2,0.7930293540412094,S13G10,2022-11-29_16h10.48.458,t1_Paradigm,2021.1.4,59.96929570584077,
T,left,Lure,0,13,13,13,998.949436126044,1000.9494011586103,None,0,2,,S13G10,2022-11-29_16h10.48.458,t1_Paradigm,2021.1.4,59.96929570584077,
J,left,Distractor,0,14,14,14,1002.4493466222411,1004.4512262020944,left,1,2,0.48087698327799444,S13G10,2022-11-29_16h10.48.458,t1_Paradigm,2021.1.4,59.96929570584077,
Q,left,Pretarget,0,15,15,15,1005.9493607375371,1007.948869910233,None,0,2,,S13G10,2022-11-29_16h10.48.458,t1_Paradigm,2021.1.4,59.96929570584077,
M,left,Distractor,0,16,16,16,1009.4494146323013,1011.451041099248,left,1,2,0.7768487347238988,S13G10,2022-11-29_16h10.48.458,t1_Paradigm,2021.1.4,59.96929570584077,
Q,right,Target,0,17,17,17,1012.9495201762111,1014.9510353248115,None,0,2,,S13G10,2022-11-29_16h10.48.458,t1_Paradigm,2021.1.4,59.96929570584077,
R,left,Distractor,0,18,18,18,1016.4491284767755,1018.4500244772062,left,1,2,0.6100431607228529,S13G10,2022-11-29_16h10.48.458,t1_Paradigm,2021.1.4,59.96929570584077,
W,left,Distractor,0,19,19,19,1019.9493652287674,1021.9515861421169,None,0,2,,S13G10,2022-11-29_16h10.48.458,t1_Paradigm,2021.1.4,59.96929570584077,
C,left,Pretarget,0,20,20,20,1023.4489985518994,1025.4518533703158,left,1,2,0.6804900317147258,S13G10,2022-11-29_16h10.48.458,t1_Paradigm,2021.1.4,59.96929570584077,
T,left,Distractor,0,21,21,21,1026.9494627526255,1028.949701429432,None,0,2,,S13G10,2022-11-29_16h10.48.458,t1_Paradigm,2021.1.4,59.96929570584077,
C,right,Target,0,22,22,22,1030.4494268227827,1032.4498287878887,right,1,2,0.49834434005606454,S13G10,2022-11-29_16h10.48.458,t1_Paradigm,2021.1.4,59.96929570584077,
F,left,Pretarget,0,23,23,23,1033.9495917150925,1035.950616036389,None,0,2,,S13G10,2022-11-29_16h10.48.458,t1_Paradigm,2021.1.4,59.96929570584077,
C,right,Target,0,24,24,24,1037.4494916248186,1039.4514199665973,right,1,2,0.4725855306678568,S13G10,2022-11-29_16h10.48.458,t1_Paradigm,2021.1.4,59.96929570584077,
F,right,Target,0,25,25,25,1040.9494614694158,1042.9508569588106,None,0,2,,S13G10,2022-11-29_16h10.48.458,t1_Paradigm,2021.1.4,59.96929570584077,
H,left,Distractor,0,26,26,26,1044.449274762559,1046.4508566380064,left,1,2,0.41704120318900095,S13G10,2022-11-29_16h10.48.458,t1_Paradigm,2021.1.4,59.96929570584077,
H,left,Lure,0,27,27,27,1047.9493809480737,1049.9494605070104,None,0,2,,S13G10,2022-11-29_16h10.48.458,t1_Paradigm,2021.1.4,59.96929570584077,
P,left,Distractor,0,28,28,28,1051.4494069330503,1053.4512582823118,left,1,2,0.5686128450470278,S13G10,2022-11-29_16h10.48.458,t1_Paradigm,2021.1.4,59.96929570584077,
G,left,Pretarget,0,29,29,29,1054.9493815896785,1056.9509512746445,None,0,2,,S13G10,2022-11-29_16h10.48.458,t1_Paradigm,2021.1.4,59.96929570584077,
K,left,Distractor,0,30,30,30,1058.4494675646565,1060.4512990241856,left,1,2,0.6247163306907169,S13G10,2022-11-29_16h10.48.458,t1_Paradigm,2021.1.4,59.96929570584077,
G,right,Target,0,31,31,31,1061.949323203684,1063.9509089287603,None,0,2,,S13G10,2022-11-29_16h10.48.458,t1_Paradigm,2021.1.4,59.96929570584077,
M,left,Pretarget,0,32,32,32,1065.449388968129,1067.4510722170598,left,1,2,0.7928397599644086,S13G10,2022-11-29_16h10.48.458,t1_Paradigm,2021.1.4,59.96929570584077,
B,left,Distractor,0,33,33,33,1068.9494200859372,1070.9506612694931,None,0,2,,S13G10,2022-11-29_16h10.48.458,t1_Paradigm,2021.1.4,59.96929570584077,
M,right,Target,0,34,34,34,1072.449471414282,1074.4511527383984,right,1,2,0.5927455082892266,S13G10,2022-11-29_16h10.48.458,t1_Paradigm,2021.1.4,59.96929570584077,
M,left,Lure,0,35,35,35,1075.9493215996736,1077.9493655495717,None,0,2,,S13G10,2022-11-29_16h10.48.458,t1_Paradigm,2021.1.4,59.96929570584077,
T,left,Distractor,0,36,36,36,1079.44944735412,1081.4514321570823,left,1,2,0.4566147159675893,S13G10,2022-11-29_16h10.48.458,t1_Paradigm,2021.1.4,59.96929570584077,
F,left,Distractor,0,37,37,37,1082.9493899305344,1084.9506946329166,None,0,2,,S13G10,2022-11-29_16h10.48.458,t1_Paradigm,2021.1.4,59.96929570584077,
X,left,Distractor,0,38,38,38,1086.4494877751931,1088.4487261908653,left,1,2,0.7552115914804745,S13G10,2022-11-29_16h10.48.458,t1_Paradigm,2021.1.4,59.96929570584077,
C,left,Distractor,0,39,39,39,1089.9493020307418,1091.9503279560486,None,0,2,,S13G10,2022-11-29_16h10.48.458,t1_Paradigm,2021.1.4,59.96929570584077,
R,left,Distractor,0,40,40,40,1093.4494576197903,1095.4513795455277,left,1,2,0.6325442241795827,S13G10,2022-11-29_16h10.48.458,t1_Paradigm,2021.1.4,59.96929570584077,
B,left,Pretarget,0,41,41,41,1096.9493722864172,1098.95190726508,None,0,2,,S13G10,2022-11-29_16h10.48.458,t1_Paradigm,2021.1.4,59.96929570584077,
H,left,Distractor,0,42,42,42,1100.4494245771675,1102.4513031946117,left,1,2,0.6567471430935257,S13G10,2022-11-29_16h10.48.458,t1_Paradigm,2021.1.4,59.96929570584077,
B,right,Target,0,43,43,43,1103.9493770984482,1105.9513173099076,None,0,2,,S13G10,2022-11-29_16h10.48.458,t1_Paradigm,2021.1.4,59.96929570584077,
W,left,Pretarget,0,44,44,44,1107.4661024398301,1109.4498528480508,left,1,2,0.5701119535369799,S13G10,2022-11-29_16h10.48.458,t1_Paradigm,2021.1.4,59.96929570584077,
L,left,Pretarget,0,45,45,45,1110.9485147822452,1112.9514603876705,None,0,2,,S13G10,2022-11-29_16h10.48.458,t1_Paradigm,2021.1.4,59.96929570584077,
W,right,Target,0,46,46,46,1114.449200015657,1116.4514921470836,right,1,2,0.4484198248028406,S13G10,2022-11-29_16h10.48.458,t1_Paradigm,2021.1.4,59.96929570584077,
L,right,Target,0,47,47,47,1117.9494852087773,1119.9485029125644,None,0,2,,S13G10,2022-11-29_16h10.48.458,t1_Paradigm,2021.1.4,59.96929570584077,
W,right,Target,0,48,48,48,1121.449482642358,1123.4511196957792,right,1,2,0.6167796852678293,S13G10,2022-11-29_16h10.48.458,t1_Paradigm,2021.1.4,59.96929570584077,
X,left,Distractor,0,49,49,49,1124.9494518453503,1126.9517292198798,None,0,2,,S13G10,2022-11-29_16h10.48.458,t1_Paradigm,2021.1.4,59.96929570584077,
R,left,Distractor,0,50,50,50,1128.4494871335883,1130.451419324996,left,1,2,0.5126418506952177,S13G10,2022-11-29_16h10.48.458,t1_Paradigm,2021.1.4,59.96929570584077,
V,left,Pretarget,0,51,51,51,1131.949255514428,1133.9509147031968,None,0,2,,S13G10,2022-11-29_16h10.48.458,t1_Paradigm,2021.1.4,59.96929570584077,
Z,left,Distractor,0,52,52,52,1135.4494797551379,1137.4500767679565,left,1,2,0.873988590992667,S13G10,2022-11-29_16h10.48.458,t1_Paradigm,2021.1.4,59.96929570584077,
V,right,Target,0,53,53,53,1138.9495015696848,1140.9509779012224,None,0,2,,S13G10,2022-11-29_16h10.48.458,t1_Paradigm,2021.1.4,59.96929570584077,
V,left,Lure,0,54,54,54,1142.4495689381401,1144.4493430934199,left,1,2,0.6427322591589473,S13G10,2022-11-29_16h10.48.458,t1_Paradigm,2021.1.4,59.96929570584077,
N,left,Distractor,0,55,55,55,1145.9494563365806,1147.9509268936781,None,0,2,,S13G10,2022-11-29_16h10.48.458,t1_Paradigm,2021.1.4,59.96929570584077,
B,left,Distractor,0,56,56,56,1149.4493629831522,1151.450603845904,left,1,2,0.7933376449145726,S13G10,2022-11-29_16h10.48.458,t1_Paradigm,2021.1.4,59.96929570584077,
V,left,Lure,0,57,57,57,1152.9494001962048,1154.9510552145439,None,0,2,,S13G10,2022-11-29_16h10.48.458,t1_Paradigm,2021.1.4,59.96929570584077,
J,left,Distractor,0,58,58,58,1156.4493957049744,1158.4513673550464,left,1,2,0.7046374518540688,S13G10,2022-11-29_16h10.48.458,t1_Paradigm,2021.1.4,59.96929570584077,
H,left,Distractor,0,59,59,59,1159.949446712515,1161.9504867531177,None,0,2,,S13G10,2022-11-29_16h10.48.458,t1_Paradigm,2021.1.4,59.96929570584077,
X,left,Pretarget,0,60,60,60,1163.4495509732187,1165.4622823277168,left,1,2,0.5895984391063394,S13G10,2022-11-29_16h10.48.458,t1_Paradigm,2021.1.4,59.96929570584077,
P,left,Distractor,0,61,61,61,1166.9492205469942,1168.9506105827495,None,0,2,,S13G10,2022-11-29_16h10.48.458,t1_Paradigm,2021.1.4,59.96929570584077,
X,right,Target,0,62,62,62,1170.4492959355011,1172.4512691895834,right,1,2,0.46483815851752297,S13G10,2022-11-29_16h10.48.458,t1_Paradigm,2021.1.4,59.96929570584077,
Q,left,Distractor,0,63,63,63,1173.9494428628896,1175.9510856907473,None,0,2,,S13G10,2022-11-29_16h10.48.458,t1_Paradigm,2021.1.4,59.96929570584077,
B,left,Pretarget,0,0,0,0,1350.9915532791456,1352.9845918722858,left,1,2,0.8434321853128495,S13G10,2022-11-29_16h10.48.458,t1_Paradigm,2021.1.4,59.96929570584077,
F,left,Distractor,0,1,1,1,1354.4827953801941,1356.4848773862068,left,1,2,0.8793581775353232,S13G10,2022-11-29_16h10.48.458,t1_Paradigm,2021.1.4,59.96929570584077,
B,right,Target,0,2,2,2,1357.9828717311066,1359.9848161129958,right,1,2,0.8032639053271851,S13G10,2022-11-29_16h10.48.458,t1_Paradigm,2021.1.4,59.96929570584077,
V,left,Distractor,0,3,3,3,1361.4829583476894,1363.4847355916536,left,1,2,0.5513241750741145,S13G10,2022-11-29_16h10.48.458,t1_Paradigm,2021.1.4,59.96929570584077,
G,left,Pretarget,0,4,4,4,1364.9829933151268,1366.9846759224529,left,1,2,0.8593054761586245,S13G10,2022-11-29_16h10.48.458,t1_Paradigm,2021.1.4,59.96929570584077,
B,left,Lure,0,5,5,5,1368.4829012449045,1370.4851827898638,left,1,2,0.9588680303313595,S13G10,2022-11-29_16h10.48.458,t1_Paradigm,2021.1.4,59.96929570584077,
G,right,Target,0,6,6,6,1371.9829022073136,1373.9846778472638,right,1,2,0.6115069809748093,S13G10,2022-11-29_16h10.48.458,t1_Paradigm,2021.1.4,59.96929570584077,
Y,left,Pretarget,0,7,7,7,1375.4827305781582,1377.4843541578848,left,1,2,0.4397969835627009,S13G10,2022-11-29_16h10.48.458,t1_Paradigm,2021.1.4,59.96929570584077,
P,left,Distractor,0,8,8,8,1378.9829047737294,1380.9845536968278,left,1,2,1.067465335723682,S13G10,2022-11-29_16h10.48.458,t1_Paradigm,2021.1.4,59.96929570584077,
Y,right,Target,0,9,9,9,1382.4828155907308,1384.4845684537286,left,0,2,1.0074785399374377,S13G10,2022-11-29_16h10.48.458,t1_Paradigm,2021.1.4,59.96929570584077,
X,left,Distractor,0,10,10,10,1385.9828627486459,1387.9847946192494,left,1,2,0.8353450836766569,S13G10,2022-11-29_16h10.48.458,t1_Paradigm,2021.1.4,59.96929570584077,
Y,right,Target,0,11,11,11,1389.4828005130294,1391.4847875616033,left,0,2,0.8873493593273452,S13G10,2022-11-29_16h10.48.458,t1_Paradigm,2021.1.4,59.96929570584077,
N,left,Distractor,0,12,12,12,1392.982996843948,1394.9851847146747,left,1,2,0.7147141684836242,S13G10,2022-11-29_16h10.48.458,t1_Paradigm,2021.1.4,59.96929570584077,
Y,right,Target,0,13,13,13,1396.4828675606805,1398.4845472807865,left,0,2,0.7675416224774381,S13G10,2022-11-29_16h10.48.458,t1_Paradigm,2021.1.4,59.96929570584077,
Y,left,Lure,0,14,14,14,1399.9829987687626,1401.9829140769907,left,1,2,0.8370892850180098,S13G10,2022-11-29_16h10.48.458,t1_Paradigm,2021.1.4,59.96929570584077,
K,left,Distractor,0,15,15,15,1403.4828813551721,1405.4848138673806,left,1,2,0.9192980463776621,S13G10,2022-11-29_16h10.48.458,t1_Paradigm,2021.1.4,59.96929570584077,
T,left,Pretarget,0,16,16,16,1406.9828547285942,1408.985000253433,left,1,2,0.6670044713428069,S13G10,2022-11-29_16h10.48.458,t1_Paradigm,2021.1.4,59.96929570584077,
J,left,Distractor,0,17,17,17,1410.4829477612184,1412.4850358624753,left,1,2,0.6550587613310199,S13G10,2022-11-29_16h10.48.458,t1_Paradigm,2021.1.4,59.96929570584077,
T,right,Target,0,18,18,18,1413.9820684424994,1415.9840057667388,right,1,2,0.4680554833757924,S13G10,2022-11-29_16h10.48.458,t1_Paradigm,2021.1.4,59.96929570584077,
S,left,Pretarget,0,19,19,19,1417.482921455441,1419.4848315114978,left,1,2,0.5353145433073223,S13G10,2022-11-29_16h10.48.458,t1_Paradigm,2021.1.4,59.96929570584077,
R,left,Distractor,0,20,20,20,1420.982862107041,1422.9842717117317,left,1,2,1.051772656490357,S13G10,2022-11-29_16h10.48.458,t1_Paradigm,2021.1.4,59.96929570584077,
S,right,Target,0,21,21,21,1424.4828463877348,1426.4846967745907,right,1,2,0.9115240476530744,S13G10,2022-11-29_16h10.48.458,t1_Paradigm,2021.1.4,59.96929570584077,
Q,left,Distractor,0,22,22,22,1427.9828941872584,1429.9853191307811,left,1,2,0.5950206372035609,S13G10,2022-11-29_16h10.48.458,t1_Paradigm,2021.1.4,59.96929570584077,
D,left,Distractor,0,23,23,23,1431.4824700868048,1433.4840182780245,left,1,2,0.7281541749543976,S13G10,2022-11-29_16h10.48.458,t1_Paradigm,2021.1.4,59.96929570584077,
F,left,Distractor,0,24,24,24,1434.9828646734604,1436.9850843036002,left,1,2,1.2111365828022826,S13G10,2022-11-29_16h10.48.458,t1_Paradigm,2021.1.4,59.96929570584077,
Z,left,Distractor,0,25,25,25,1438.4829111897743,1440.4841478820963,left,1,2,1.1199386241314642,S13G10,2022-11-29_16h10.48.458,t1_Paradigm,2021.1.4,59.96929570584077,
P,left,Distractor,0,26,26,26,1441.9829224178466,1443.984275240553,left,1,2,0.9479283558939642,S13G10,2022-11-29_16h10.48.458,t1_Paradigm,2021.1.4,59.96929570584077,
H,left,Distractor,0,27,27,27,1445.4829204930356,1447.4844837619567,left,1,2,0.9357144552814134,S13G10,2022-11-29_16h10.48.458,t1_Paradigm,2021.1.4,59.96929570584077,
Z,left,Pretarget,0,28,28,28,1448.9830465682826,1450.9842200625826,left,1,2,0.6838773817144101,S13G10,2022-11-29_16h10.48.458,t1_Paradigm,2021.1.4,59.96929570584077,
J,left,Pretarget,0,29,29,29,1452.482929154692,1454.4849328849814,left,1,2,0.6711736162033048,S13G10,2022-11-29_16h10.48.458,t1_Paradigm,2021.1.4,59.96929570584077,
Z,right,Target,0,30,30,30,1455.9828374052777,1457.9848234914462,right,1,2,0.8033152336756757,S13G10,2022-11-29_16h10.48.458,t1_Paradigm,2021.1.4,59.96929570584077,
J,right,Target,0,31,31,31,1459.4827568839355,1461.484888935087,left,0,2,0.5992157670407323,S13G10,2022-11-29_16h10.48.458,t1_Paradigm,2021.1.4,59.96929570584077,
V,left,Pretarget,0,32,32,32,1462.9828595406252,1464.985271010457,left,1,2,0.6507693156563619,S13G10,2022-11-29_16h10.48.458,t1_Paradigm,2021.1.4,59.96929570584077,
Z,left,Lure,0,33,33,33,1466.4828794303576,1468.4849614363739,left,1,2,0.719151824756409,S13G10,2022-11-29_16h10.48.458,t1_Paradigm,2021.1.4,59.96929570584077,
V,right,Target,0,34,34,34,1469.9828986784887,1471.9846778472638,right,1,2,0.499416140068206,S13G10,2022-11-29_16h10.48.458,t1_Paradigm,2021.1.4,59.96929570584077,
X,left,Distractor,0,35,35,35,1473.482879109557,1475.4847654262521,left,1,2,0.6955298785505875,S13G10,2022-11-29_16h10.48.458,t1_Paradigm,2021.1.4,59.96929570584077,
S,left,Distractor,0,36,36,36,1476.9828264980024,1478.9850288048256,left,1,2,0.8112833177074208,S13G10,2022-11-29_16h10.48.458,t1_Paradigm,2021.1.4,59.96929570584077,
Q,left,Distractor,0,37,37,37,1480.4829304379018,1482.4846910001543,left,1,2,0.7034020427418,S13G10,2022-11-29_16h10.48.458,t1_Paradigm,2021.1.4,59.96929570584077,
P,left,Distractor,0,38,38,38,1483.9828457461335,1485.9851266494843,left,1,2,1.1710892452356347,S13G10,2022-11-29_16h10.48.458,t1_Paradigm,2021.1.4,59.96929570584077,
S,left,Lure,0,39,39,39,1487.482824893992,1489.4847035114362,left,1,2,0.9194100063323276,S13G10,2022-11-29_16h10.48.458,t1_Paradigm,2021.1.4,59.96929570584077,
K,left,Pretarget,0,40,40,40,1490.9828730143163,1492.9849296769607,left,1,2,0.555600147057703,S13G10,2022-11-29_16h10.48.458,t1_Paradigm,2021.1.4,59.96929570584077,
L,left,Distractor,0,41,41,41,1494.4829034905197,1496.4848327947075,left,1,2,0.6073343072894204,S13G10,2022-11-29_16h10.48.458,t1_Paradigm,2021.1.4,59.96929570584077,
K,right,Target,0,42,42,42,1497.982941345177,1499.9848546092544,right,1,2,1.0592617829024675,S13G10,2022-11-29_16h10.48.458,t1_Paradigm,2021.1.4,59.96929570584077,
B,left,Distractor,0,43,43,43,1501.4828797511618,1503.4848645541206,left,1,2,0.7114445528750366,S13G10,2022-11-29_16h10.48.458,t1_Paradigm,2021.1.4,59.96929570584077,
N,left,Distractor,0,44,44,44,1504.9828880920177,1506.9848773862068,left,1,2,0.7312518405997253,S13G10,2022-11-29_16h10.48.458,t1_Paradigm,2021.1.4,59.96929570584077,
S,left,Pretarget,0,45,45,45,1508.4820260966153,1510.4843259272966,left,1,2,0.7358887150112423,S13G10,2022-11-29_16h10.48.458,t1_Paradigm,2021.1.4,59.96929570584077,
Z,left,Distractor,0,46,46,46,1511.983016733684,1513.985177336228,left,1,2,0.6749622897077643,S13G10,2022-11-29_16h10.48.458,t1_Paradigm,2021.1.4,59.96929570584077,
S,right,Target,0,47,47,47,1515.482897395279,1517.4848703285606,right,1,2,1.3192507601379475,S13G10,2022-11-29_16h10.48.458,t1_Paradigm,2021.1.4,59.96929570584077,
C,left,Distractor,0,48,48,48,1518.9828765431412,1520.9844256967663,left,1,2,1.0996892710281827,S13G10,2022-11-29_16h10.48.458,t1_Paradigm,2021.1.4,59.96929570584077,
T,left,Pretarget,0,49,49,49,1522.4829451948026,1524.4995640298657,None,0,2,,S13G10,2022-11-29_16h10.48.458,t1_Paradigm,2021.1.4,59.96929570584077,
S,left,Lure,0,50,50,50,1525.9829070193446,1527.9848667997358,left,1,2,0.8032882862935367,S13G10,2022-11-29_16h10.48.458,t1_Paradigm,2021.1.4,59.96929570584077,
T,right,Target,0,51,51,51,1529.4828980368839,1531.4842094761116,right,1,2,1.0159069750734488,S13G10,2022-11-29_16h10.48.458,t1_Paradigm,2021.1.4,59.96929570584077,
N,left,Pretarget,0,52,52,52,1532.9829285130909,1534.9848045641156,left,1,2,0.7795178086889791,S13G10,2022-11-29_16h10.48.458,t1_Paradigm,2021.1.4,59.96929570584077,
B,left,Distractor,0,53,53,53,1536.482919209826,1538.4956996470537,left,1,2,1.0765084277918504,S13G10,2022-11-29_16h10.48.458,t1_Paradigm,2021.1.4,59.96929570584077,
N,right,Target,0,54,54,54,1539.9829522524487,1541.9851131757932,right,1,2,0.9631687040819088,S13G10,2022-11-29_16h10.48.458,t1_Paradigm,2021.1.4,59.96929570584077,
N,left,Lure,0,55,55,55,1543.4829458364075,1545.4829541772633,None,0,2,,S13G10,2022-11-29_16h10.48.458,t1_Paradigm,2021.1.4,59.96929570584077,
X,left,Distractor,0,56,56,56,1546.9830533051281,1548.9845431103568,left,1,2,0.7797824704721279,S13G10,2022-11-29_16h10.48.458,t1_Paradigm,2021.1.4,59.96929570584077,
W,left,Distractor,0,57,57,57,1550.4830658164137,1552.4849498874937,left,1,2,1.4551906751803472,S13G10,2022-11-29_16h10.48.458,t1_Paradigm,2021.1.4,59.96929570584077,
S,left,Distractor,0,58,58,58,1553.9829801622363,1555.9850425993209,left,1,2,1.0112162058976537,S13G10,2022-11-29_16h10.48.458,t1_Paradigm,2021.1.4,59.96929570584077,
L,left,Distractor,0,59,59,59,1557.48280083383,1559.4848728949764,left,1,2,1.0794498627910798,S13G10,2022-11-29_16h10.48.458,t1_Paradigm,2021.1.4,59.96929570584077,
K,left,Pretarget,0,60,60,60,1560.9829747086005,1562.984287431038,left,1,2,0.9559054223900603,S13G10,2022-11-29_16h10.48.458,t1_Paradigm,2021.1.4,59.96929570584077,
V,left,Pretarget,0,61,61,61,1564.482661284892,1566.4849601531641,left,1,2,0.6872628069031634,S13G10,2022-11-29_16h10.48.458,t1_Paradigm,2021.1.4,59.96929570584077,
K,right,Target,0,62,62,62,1567.9829150393998,1569.9819436504586,right,1,2,0.8382281326812517,S13G10,2022-11-29_16h10.48.458,t1_Paradigm,2021.1.4,59.96929570584077,
V,right,Target,0,63,63,63,1571.4828929040486,1573.484811942566,left,0,2,1.2554631003731629,S13G10,2022-11-29_16h10.48.458,t1_Paradigm,2021.1.4,59.96929570584077,
R,left,Distractor,0,0,0,0,1746.226741362243,1748.2183514233693,left,1,3,0.3460380612523295,S13G10,2022-11-29_16h10.48.458,t1_Paradigm,2021.1.4,59.96929570584077,
P,left,Lure,0,1,1,1,1749.7161981992758,1751.7183190223514,left,1,3,0.6699606632391806,S13G10,2022-11-29_16h10.48.458,t1_Paradigm,2021.1.4,59.96929570584077,
V,left,Distractor,0,2,2,2,1753.2160394022067,1755.2178512928003,None,0,3,,S13G10,2022-11-29_16h10.48.458,t1_Paradigm,2021.1.4,59.96929570584077,
P,left,Pretarget,0,3,3,3,1756.7162860990647,1758.7184819898466,left,1,3,1.2698023152952373,S13G10,2022-11-29_16h10.48.458,t1_Paradigm,2021.1.4,59.96929570584077,
Z,left,Distractor,0,4,4,4,1760.2162899486902,1762.218268014807,left,1,3,0.8099805401434423,S13G10,2022-11-29_16h10.48.458,t1_Paradigm,2021.1.4,59.96929570584077,
L,left,Pretarget,0,5,5,5,1763.7164763347464,1765.718882671743,left,1,3,0.7334945684997365,S13G10,2022-11-29_16h10.48.458,t1_Paradigm,2021.1.4,59.96929570584077,
P,right,Target,0,6,6,6,1767.2163213873027,1769.2182266313284,right,1,3,1.0741360958272708,S13G10,2022-11-29_16h10.48.458,t1_Paradigm,2021.1.4,59.96929570584077,
S,left,Distractor,0,7,7,7,1770.7163563547401,1772.7182429922395,left,1,3,0.8221318843352492,S13G10,2022-11-29_16h10.48.458,t1_Paradigm,2021.1.4,59.96929570584077,
L,right,Target,0,8,8,8,1774.2161773471344,1776.2180171475193,left,0,3,0.8743161299971689,S13G10,2022-11-29_16h10.48.458,t1_Paradigm,2021.1.4,59.96929570584077,
D,left,Distractor,0,9,9,9,1777.7162373371393,1779.718527543755,left,1,3,0.6538467707759992,S13G10,2022-11-29_16h10.48.458,t1_Paradigm,2021.1.4,59.96929570584077,
G,left,Distractor,0,10,10,10,1781.2163300489628,1783.218289829354,left,1,3,0.8339524814982724,S13G10,2022-11-29_16h10.48.458,t1_Paradigm,2021.1.4,59.96929570584077,
M,left,Pretarget,0,11,11,11,1784.716429497632,1786.718511182844,left,1,3,1.045898448148364,S13G10,2022-11-29_16h10.48.458,t1_Paradigm,2021.1.4,59.96929570584077,
Y,left,Distractor,0,12,12,12,1788.2163804149022,1790.2182548619166,left,1,3,0.7781819884985453,S13G10,2022-11-29_16h10.48.458,t1_Paradigm,2021.1.4,59.96929570584077,
V,left,Distractor,0,13,13,13,1791.7162783998137,1793.7183100398906,left,1,3,0.7499568521088804,S13G10,2022-11-29_16h10.48.458,t1_Paradigm,2021.1.4,59.96929570584077,
M,right,Target,0,14,14,14,1795.2162668509372,1797.2172639040473,right,1,3,0.4349599286033481,S13G10,2022-11-29_16h10.48.458,t1_Paradigm,2021.1.4,59.96929570584077,
S,left,Pretarget,0,15,15,15,1798.7163605251662,1800.7181236538345,left,1,3,0.2942150388189475,S13G10,2022-11-29_16h10.48.458,t1_Paradigm,2021.1.4,59.96929570584077,
Q,left,Distractor,0,16,16,16,1802.21628545746,1804.2182830925085,left,1,3,0.378143620560877,S13G10,2022-11-29_16h10.48.458,t1_Paradigm,2021.1.4,59.96929570584077,
R,left,Pretarget,0,17,17,17,1805.7163393522242,1807.718456967279,left,1,3,0.9100496409228072,S13G10,2022-11-29_16h10.48.458,t1_Paradigm,2021.1.4,59.96929570584077,
S,right,Target,0,18,18,18,1809.2162078233378,1811.2181489972063,None,0,3,,S13G10,2022-11-29_16h10.48.458,t1_Paradigm,2021.1.4,59.96929570584077,
F,left,Distractor,0,19,19,19,1812.7162649261227,1814.7292416942728,left,1,3,1.0671888042597857,S13G10,2022-11-29_16h10.48.458,t1_Paradigm,2021.1.4,59.96929570584077,
R,right,Target,0,20,20,20,1816.2164763347464,1818.2184877642867,right,1,3,1.2737959813748603,S13G10,2022-11-29_16h10.48.458,t1_Paradigm,2021.1.4,59.96929570584077,
P,left,Distractor,0,21,21,21,1819.7163547507262,1821.7183527065754,left,1,3,0.7178769569763972,S13G10,2022-11-29_16h10.48.458,t1_Paradigm,2021.1.4,59.96929570584077,
L,left,Distractor,0,22,22,22,1823.2164221191815,1825.2181759445884,left,1,3,0.5942032333005045,S13G10,2022-11-29_16h10.48.458,t1_Paradigm,2021.1.4,59.96929570584077,
R,right,Target,0,23,23,23,1826.7163592419565,1828.718780656658,right,1,3,1.1254698949633166,S13G10,2022-11-29_16h10.48.458,t1_Paradigm,2021.1.4,59.96929570584077,
H,left,Pretarget,0,24,24,24,1830.216239903555,1832.2187197042476,left,1,3,0.4735517867738963,S13G10,2022-11-29_16h10.48.458,t1_Paradigm,2021.1.4,59.96929570584077,
G,left,Pretarget,0,25,25,25,1833.7163900389642,1835.7182750724533,left,1,3,0.846153550028248,S13G10,2022-11-29_16h10.48.458,t1_Paradigm,2021.1.4,59.96929570584077,
T,left,Distractor,0,26,26,26,1837.2163662996063,1839.218028054791,left,1,3,1.0582913563739567,S13G10,2022-11-29_16h10.48.458,t1_Paradigm,2021.1.4,59.96929570584077,
H,right,Target,0,27,27,27,1840.7161985200764,1842.7180424908875,right,1,3,0.8062743127957219,S13G10,2022-11-29_16h10.48.458,t1_Paradigm,2021.1.4,59.96929570584077,
G,right,Target,0,28,28,28,1844.2163810565035,1846.2170348513064,left,0,3,1.0351477261865512,S13G10,2022-11-29_16h10.48.458,t1_Paradigm,2021.1.4,59.96929570584077,
D,left,Distractor,0,29,29,29,1847.7161571365978,1849.7178060596962,left,1,3,1.0864908285875572,S13G10,2022-11-29_16h10.48.458,t1_Paradigm,2021.1.4,59.96929570584077,
N,left,Pretarget,0,30,30,30,1851.216382981318,1853.2183206263617,left,1,3,0.6100559928090661,S13G10,2022-11-29_16h10.48.458,t1_Paradigm,2021.1.4,59.96929570584077,
V,left,Distractor,0,31,31,31,1854.7162803246283,1856.7178535384155,left,1,3,0.8544562307179149,S13G10,2022-11-29_16h10.48.458,t1_Paradigm,2021.1.4,59.96929570584077,
R,left,Distractor,0,32,32,32,1858.2164814675816,1860.2183613682355,left,1,3,0.9858936874479696,S13G10,2022-11-29_16h10.48.458,t1_Paradigm,2021.1.4,59.96929570584077,
N,right,Target,0,33,33,33,1861.7163021391752,1863.7183799747618,right,1,3,0.8780400014657062,S13G10,2022-11-29_16h10.48.458,t1_Paradigm,2021.1.4,59.96929570584077,
Z,left,Distractor,0,34,34,34,1865.2162251466543,1867.2182224608987,left,1,3,0.5304322552437952,S13G10,2022-11-29_16h10.48.458,t1_Paradigm,2021.1.4,59.96929570584077,
N,left,Lure,0,35,35,35,1868.71634480586,1870.7181182001987,left,1,3,1.0782446090815938,S13G10,2022-11-29_16h10.48.458,t1_Paradigm,2021.1.4,59.96929570584077,
Y,left,Pretarget,0,36,36,36,1872.2163197832924,1874.2183931276486,left,1,3,0.8739879493878107,S13G10,2022-11-29_16h10.48.458,t1_Paradigm,2021.1.4,59.96929570584077,
Y,left,Lure,0,37,37,37,1875.7164712019112,1877.7163958134042,left,1,3,1.039977723496122,S13G10,2022-11-29_16h10.48.458,t1_Paradigm,2021.1.4,59.96929570584077,
B,left,Distractor,0,38,38,38,1879.216308234416,1881.2178156837617,left,1,3,0.8024808272602968,S13G10,2022-11-29_16h10.48.458,t1_Paradigm,2021.1.4,59.96929570584077,
Y,right,Target,0,39,39,39,1882.7163127256463,1884.7184678745507,right,1,3,0.7421626428476884,S13G10,2022-11-29_16h10.48.458,t1_Paradigm,2021.1.4,59.96929570584077,
J,left,Distractor,0,40,40,40,1886.2164054374698,1888.2180829119607,left,1,3,0.6984081155242166,S13G10,2022-11-29_16h10.48.458,t1_Paradigm,2021.1.4,59.96929570584077,
X,left,Distractor,0,41,41,41,1889.7164086454904,1891.7181072929234,left,1,3,0.7341717818562756,S13G10,2022-11-29_16h10.48.458,t1_Paradigm,2021.1.4,59.96929570584077,
W,left,Pretarget,0,42,42,42,1893.216052875894,1895.2174650470006,left,1,3,1.0431953691586386,S13G10,2022-11-29_16h10.48.458,t1_Paradigm,2021.1.4,59.96929570584077,
S,left,Pretarget,0,43,43,43,1896.716364695596,1898.718028054791,left,1,3,0.7582290565915173,S13G10,2022-11-29_16h10.48.458,t1_Paradigm,2021.1.4,59.96929570584077,
R,left,Distractor,0,44,44,44,1900.216318820887,1902.2171131270334,left,1,3,0.8435229723218072,S13G10,2022-11-29_16h10.48.458,t1_Paradigm,2021.1.4,59.96929570584077,
W,right,Target,0,45,45,45,1903.7163602043656,1905.7180614182143,right,1,3,1.006374018106726,S13G10,2022-11-29_16h10.48.458,t1_Paradigm,2021.1.4,59.96929570584077,
S,right,Target,0,46,46,46,1907.2163932469884,1909.2181746613787,left,0,3,0.9782502551970538,S13G10,2022-11-29_16h10.48.458,t1_Paradigm,2021.1.4,59.96929570584077,
D,left,Distractor,0,47,47,47,1910.7163403146296,1912.7186417493213,left,1,3,0.5656306681739807,S13G10,2022-11-29_16h10.48.458,t1_Paradigm,2021.1.4,59.96929570584077,
T,left,Distractor,0,48,48,48,1914.2164359136732,1916.2187027017317,left,1,3,0.7138897069344239,S13G10,2022-11-29_16h10.48.458,t1_Paradigm,2021.1.4,59.96929570584077,
S,right,Target,0,49,49,49,1917.7163290865537,1919.7184858394721,right,1,3,0.653833938686148,S13G10,2022-11-29_16h10.48.458,t1_Paradigm,2021.1.4,59.96929570584077,
K,left,Distractor,0,50,50,50,1921.2161555325874,1923.2182279145381,left,1,3,0.3546285014745081,S13G10,2022-11-29_16h10.48.458,t1_Paradigm,2021.1.4,59.96929570584077,
S,left,Lure,0,51,51,51,1924.7162565852668,1926.717564174869,left,1,3,0.806842132613383,S13G10,2022-11-29_16h10.48.458,t1_Paradigm,2021.1.4,59.96929570584077,
T,left,Pretarget,0,52,52,52,1928.2163210665021,1930.218229839349,left,1,3,1.0020778355865332,S13G10,2022-11-29_16h10.48.458,t1_Paradigm,2021.1.4,59.96929570584077,
V,left,Distractor,0,53,53,53,1931.716429497632,1933.7181663205229,left,1,3,0.7181570172579086,S13G10,2022-11-29_16h10.48.458,t1_Paradigm,2021.1.4,59.96929570584077,
B,left,Distractor,0,54,54,54,1935.2165103397747,1937.2183713131017,left,1,3,0.6740441539259336,S13G10,2022-11-29_16h10.48.458,t1_Paradigm,2021.1.4,59.96929570584077,
T,right,Target,0,55,55,55,1938.7163146504572,1940.7183915236383,right,1,3,0.8540343758759263,S13G10,2022-11-29_16h10.48.458,t1_Paradigm,2021.1.4,59.96929570584077,
Y,left,Pretarget,0,56,56,56,1942.2163563547401,1944.2185785512956,left,1,3,0.6657405108344392,S13G10,2022-11-29_16h10.48.458,t1_Paradigm,2021.1.4,59.96929570584077,
T,left,Lure,0,57,57,57,1945.7163207456979,1947.7182231025035,left,1,3,0.7660393059668422,S13G10,2022-11-29_16h10.48.458,t1_Paradigm,2021.1.4,59.96929570584077,
P,left,Pretarget,0,58,58,58,1949.2162726253737,1951.218353989785,left,1,3,0.674114730401925,S13G10,2022-11-29_16h10.48.458,t1_Paradigm,2021.1.4,59.96929570584077,
Y,right,Target,0,59,59,59,1952.716410570305,1954.7184871226818,right,1,3,0.9818743571959203,S13G10,2022-11-29_16h10.48.458,t1_Paradigm,2021.1.4,59.96929570584077,
R,left,Distractor,0,60,60,60,1956.216318179282,1958.218494180328,left,1,3,0.44191299460362643,S13G10,2022-11-29_16h10.48.458,t1_Paradigm,2021.1.4,59.96929570584077,
P,right,Target,0,61,61,61,1959.7163650163966,1961.718650090177,left,0,3,0.6058101762318984,S13G10,2022-11-29_16h10.48.458,t1_Paradigm,2021.1.4,59.96929570584077,
L,left,Distractor,0,62,62,62,1963.2163518635098,1965.216666570428,left,1,3,0.6758050369789999,S13G10,2022-11-29_16h10.48.458,t1_Paradigm,2021.1.4,59.96929570584077,
V,left,Distractor,0,63,63,63,1966.7162437531806,1968.7180566061834,left,1,3,0.7262514973444922,S13G10,2022-11-29_16h10.48.458,t1_Paradigm,2021.1.4,59.96929570584077,
H,left,Lure,0,0,0,0,2018.8640571977412,2020.8677252496345,left,1,3,0.40062030305489316,S13G10,2022-11-29_16h10.48.458,t1_Paradigm,2021.1.4,59.96929570584077,
B,left,Distractor,0,1,1,1,2022.3661347125271,2024.3684698314464,left,1,3,0.38792455759539735,S13G10,2022-11-29_16h10.48.458,t1_Paradigm,2021.1.4,59.96929570584077,
T,left,Distractor,0,2,2,2,2025.866427925699,2027.868372628389,left,1,3,0.4399371741055802,S13G10,2022-11-29_16h10.48.458,t1_Paradigm,2021.1.4,59.96929570584077,
R,left,Distractor,0,3,3,3,2029.3663676148935,2031.368346001811,right,0,3,0.7961854056811717,S13G10,2022-11-29_16h10.48.458,t1_Paradigm,2021.1.4,59.96929570584077,
H,left,Pretarget,0,4,4,4,2032.8661456197988,2034.8679790041424,right,0,3,1.2163403146296332,S13G10,2022-11-29_16h10.48.458,t1_Paradigm,2021.1.4,59.96929570584077,
K,left,Distractor,0,5,5,5,2036.366298963232,2038.3685891698478,left,1,3,0.5799461437345599,S13G10,2022-11-29_16h10.48.458,t1_Paradigm,2021.1.4,59.96929570584077,
G,left,Distractor,0,6,6,6,2039.8663801261791,2041.8679613600216,left,1,3,0.6648012021105387,S13G10,2022-11-29_16h10.48.458,t1_Paradigm,2021.1.4,59.96929570584077,
H,right,Target,0,7,7,7,2043.3662646373996,2045.3686119468002,right,1,3,0.7640067034844833,S13G10,2022-11-29_16h10.48.458,t1_Paradigm,2021.1.4,59.96929570584077,
Y,left,Pretarget,0,8,8,8,2046.866385579815,2048.868368457963,left,1,3,0.3679757961181167,S13G10,2022-11-29_16h10.48.458,t1_Paradigm,2021.1.4,59.96929570584077,
S,left,Distractor,0,9,9,9,2050.365458461576,2052.3678288687297,left,1,3,0.4046290468395455,S13G10,2022-11-29_16h10.48.458,t1_Paradigm,2021.1.4,59.96929570584077,
P,left,Distractor,0,10,10,10,2053.8663846174095,2055.867981891359,left,1,3,0.6324187905374856,S13G10,2022-11-29_16h10.48.458,t1_Paradigm,2021.1.4,59.96929570584077,
Y,right,Target,0,11,11,11,2057.3663005672424,2059.3684021421905,right,1,3,1.164427467592759,S13G10,2022-11-29_16h10.48.458,t1_Paradigm,2021.1.4,59.96929570584077,
H,left,Lure,0,12,12,12,2060.866329118635,2062.8670396954185,left,1,3,0.6734638228226686,S13G10,2022-11-29_16h10.48.458,t1_Paradigm,2021.1.4,59.96929570584077,
Q,left,Distractor,0,13,13,13,2064.3663451587418,2066.367814432633,left,1,3,0.43655880656297086,S13G10,2022-11-29_16h10.48.458,t1_Paradigm,2021.1.4,59.96929570584077,
V,left,Pretarget,0,14,14,14,2067.8664195848432,2069.8684140118676,left,1,3,0.6478827378305141,S13G10,2022-11-29_16h10.48.458,t1_Paradigm,2021.1.4,59.96929570584077,
G,left,Distractor,0,15,15,15,2071.3662364068114,2073.3683476058213,left,1,3,0.8443358849945071,S13G10,2022-11-29_16h10.48.458,t1_Paradigm,2021.1.4,59.96929570584077,
Z,left,Pretarget,0,16,16,16,2074.8661427325824,2076.8683174504185,left,1,3,0.6082100971834734,S13G10,2022-11-29_16h10.48.458,t1_Paradigm,2021.1.4,59.96929570584077,
V,right,Target,0,17,17,17,2078.366154281459,2080.368462452996,right,1,3,0.8359173947283125,S13G10,2022-11-29_16h10.48.458,t1_Paradigm,2021.1.4,59.96929570584077,
N,left,Distractor,0,18,18,18,2081.866456156291,2083.868450904116,left,1,3,1.1121238835294207,S13G10,2022-11-29_16h10.48.458,t1_Paradigm,2021.1.4,59.96929570584077,
Z,right,Target,0,19,19,19,2085.366522883138,2087.3678500416718,left,0,3,0.9886580396560021,S13G10,2022-11-29_16h10.48.458,t1_Paradigm,2021.1.4,59.96929570584077,
R,left,Distractor,0,20,20,20,2088.866473800408,2090.868374874004,left,1,3,0.9600168228644179,S13G10,2022-11-29_16h10.48.458,t1_Paradigm,2021.1.4,59.96929570584077,
P,left,Distractor,0,21,21,21,2092.366417339228,2094.3678230942933,left,1,3,0.8365567534310685,S13G10,2022-11-29_16h10.48.458,t1_Paradigm,2021.1.4,59.96929570584077,
Z,right,Target,0,22,22,22,2095.86638910864,2097.868041239759,None,0,3,,S13G10,2022-11-29_16h10.48.458,t1_Paradigm,2021.1.4,59.96929570584077,
D,left,Pretarget,0,23,23,23,2099.3663650484777,2101.3678593449367,left,1,3,1.1648422647886036,S13G10,2022-11-29_16h10.48.458,t1_Paradigm,2021.1.4,59.96929570584077,
K,left,Distractor,0,24,24,24,2102.8663952038805,2104.8681920167764,left,1,3,0.5443759211011638,S13G10,2022-11-29_16h10.48.458,t1_Paradigm,2021.1.4,59.96929570584077,
W,left,Distractor,0,25,25,25,2106.366475083618,2108.3682911446413,left,1,3,0.8201044146881031,S13G10,2022-11-29_16h10.48.458,t1_Paradigm,2021.1.4,59.96929570584077,
D,right,Target,0,26,26,26,2109.866378522169,2111.868311355178,right,1,3,1.2242153660372423,S13G10,2022-11-29_16h10.48.458,t1_Paradigm,2021.1.4,59.96929570584077,
G,left,Pretarget,0,27,27,27,2113.366409639977,2115.3670467530646,left,1,3,0.42957173553077155,S13G10,2022-11-29_16h10.48.458,t1_Paradigm,2021.1.4,59.96929570584077,
V,left,Distractor,0,28,28,28,2116.866412527197,2118.8680803776224,left,1,3,0.3843351022369461,S13G10,2022-11-29_16h10.48.458,t1_Paradigm,2021.1.4,59.96929570584077,
D,right,Target,0,29,29,29,2120.366352537192,2122.368542653534,right,1,3,0.9479742306029948,S13G10,2022-11-29_16h10.48.458,t1_Paradigm,2021.1.4,59.96929570584077,
G,right,Target,0,30,30,30,2123.866290943177,2125.86784041761,left,0,3,0.6164861512916104,S13G10,2022-11-29_16h10.48.458,t1_Paradigm,2021.1.4,59.96929570584077,
B,left,Pretarget,0,31,31,31,2127.366545018489,2129.366418622438,left,1,3,0.6060838204721222,S13G10,2022-11-29_16h10.48.458,t1_Paradigm,2021.1.4,59.96929570584077,
N,left,Distractor,0,32,32,32,2130.866516146296,2132.8666836050215,left,1,3,0.8338122909553931,S13G10,2022-11-29_16h10.48.458,t1_Paradigm,2021.1.4,59.96929570584077,
F,left,Distractor,0,33,33,33,2134.366197268948,2136.3677204376,left,1,3,0.7247693913705007,S13G10,2022-11-29_16h10.48.458,t1_Paradigm,2021.1.4,59.96929570584077,
B,right,Target,0,34,34,34,2137.8665434144787,2139.8686728992107,right,1,3,1.3677538010233548,S13G10,2022-11-29_16h10.48.458,t1_Paradigm,2021.1.4,59.96929570584077,
Q,left,Pretarget,0,35,35,35,2141.3663775597597,2143.3677817108146,left,1,3,0.6527236424153671,S13G10,2022-11-29_16h10.48.458,t1_Paradigm,2021.1.4,59.96929570584077,
S,left,Pretarget,0,36,36,36,2144.8663316850543,2146.8682228137804,left,1,3,0.4646039729414042,S13G10,2022-11-29_16h10.48.458,t1_Paradigm,2021.1.4,59.96929570584077,
W,left,Distractor,0,37,37,37,2148.366382692595,2150.3678702522084,left,1,3,0.6928251955432643,S13G10,2022-11-29_16h10.48.458,t1_Paradigm,2021.1.4,59.96929570584077,
Q,right,Target,0,38,38,38,2151.8661626223147,2153.86700408638,right,1,3,1.097581921643723,S13G10,2022-11-29_16h10.48.458,t1_Paradigm,2021.1.4,59.96929570584077,
S,right,Target,0,39,39,39,2155.366453269071,2157.367716908775,left,0,3,0.8928703644887719,S13G10,2022-11-29_16h10.48.458,t1_Paradigm,2021.1.4,59.96929570584077,
T,left,Distractor,0,40,40,40,2158.8665100510516,2160.867529239513,left,1,3,0.4653264194057556,S13G10,2022-11-29_16h10.48.458,t1_Paradigm,2021.1.4,59.96929570584077,
G,left,Distractor,0,41,41,41,2162.366426000888,2164.3684239567374,left,1,3,0.6760331273144402,S13G10,2022-11-29_16h10.48.458,t1_Paradigm,2021.1.4,59.96929570584077,
D,left,Distractor,0,42,42,42,2165.8663117953183,2167.867817961458,left,1,3,0.7288471076135465,S13G10,2022-11-29_16h10.48.458,t1_Paradigm,2021.1.4,59.96929570584077,
S,left,Lure,0,43,43,43,2169.366446211425,2171.3678269439188,right,0,3,0.7650120974503807,S13G10,2022-11-29_16h10.48.458,t1_Paradigm,2021.1.4,59.96929570584077,
Z,left,Pretarget,0,44,44,44,2172.866315965748,2174.8671096302896,left,1,3,0.7212533997007995,S13G10,2022-11-29_16h10.48.458,t1_Paradigm,2021.1.4,59.96929570584077,
J,left,Distractor,0,45,45,45,2176.366426642493,2178.3671814899717,left,1,3,0.5332055899125407,S13G10,2022-11-29_16h10.48.458,t1_Paradigm,2021.1.4,59.96929570584077,
M,left,Pretarget,0,46,46,46,2179.8663804469797,2181.8684310143835,left,1,3,0.7283104056041338,S13G10,2022-11-29_16h10.48.458,t1_Paradigm,2021.1.4,59.96929570584077,
Z,right,Target,0,47,47,47,2183.366592818009,2185.3665995548545,right,1,3,0.9739422029997513,S13G10,2022-11-29_16h10.48.458,t1_Paradigm,2021.1.4,59.96929570584077,
P,left,Distractor,0,48,48,48,2186.8663765973542,2188.86799825227,left,1,3,0.7203650985211425,S13G10,2022-11-29_16h10.48.458,t1_Paradigm,2021.1.4,59.96929570584077,
M,right,Target,0,49,49,49,2190.3665665122317,2192.3685635056754,left,0,3,0.4039219988808327,S13G10,2022-11-29_16h10.48.458,t1_Paradigm,2021.1.4,59.96929570584077,
K,left,Distractor,0,50,50,50,2193.8663980911006,2195.86844673369,left,1,3,0.6319943692797096,S13G10,2022-11-29_16h10.48.458,t1_Paradigm,2021.1.4,59.96929570584077,
Y,left,Distractor,0,51,51,51,2197.3664680259717,2199.3683097511675,left,1,3,0.7645164581153949,S13G10,2022-11-29_16h10.48.458,t1_Paradigm,2021.1.4,59.96929570584077,
X,left,Distractor,0,52,52,52,2200.8664304921185,2202.8677573298482,left,1,3,0.6408061629954318,S13G10,2022-11-29_16h10.48.458,t1_Paradigm,2021.1.4,59.96929570584077,
F,left,Pretarget,0,53,53,53,2204.3664654595523,2206.3678089789973,left,1,3,0.9486232133749581,S13G10,2022-11-29_16h10.48.458,t1_Paradigm,2021.1.4,59.96929570584077,
M,left,Lure,0,54,54,54,2207.8661921361127,2209.868165710999,right,0,3,0.9842832606082084,S13G10,2022-11-29_16h10.48.458,t1_Paradigm,2021.1.4,59.96929570584077,
V,left,Distractor,0,55,55,55,2211.3663916750556,2213.3671259912007,left,1,3,0.7333389794512186,S13G10,2022-11-29_16h10.48.458,t1_Paradigm,2021.1.4,59.96929570584077,
F,right,Target,0,56,56,56,2214.866409639977,2216.8683780820284,left,0,3,1.4081700610768166,S13G10,2022-11-29_16h10.48.458,t1_Paradigm,2021.1.4,59.96929570584077,
S,left,Distractor,0,57,57,57,2218.3661138603857,2220.3678330391594,left,1,3,0.9326337921447703,S13G10,2022-11-29_16h10.48.458,t1_Paradigm,2021.1.4,59.96929570584077,
D,left,Distractor,0,58,58,58,2221.8664080359667,2223.8673098108375,left,1,3,0.7932154192931193,S13G10,2022-11-29_16h10.48.458,t1_Paradigm,2021.1.4,59.96929570584077,
F,right,Target,0,59,59,59,2225.366470913188,2227.3678647985726,right,1,3,0.7967333357701136,S13G10,2022-11-29_16h10.48.458,t1_Paradigm,2021.1.4,59.96929570584077,
V,left,Pretarget,0,60,60,60,2228.8662761862797,2230.8685795457823,left,1,3,0.8318961396580562,S13G10,2022-11-29_16h10.48.458,t1_Paradigm,2021.1.4,59.96929570584077,
J,left,Distractor,0,61,61,61,2232.3664760460233,2234.3671997756974,left,1,3,0.5332752039794286,S13G10,2022-11-29_16h10.48.458,t1_Paradigm,2021.1.4,59.96929570584077,
V,left,Lure,0,62,62,62,2235.8665017101957,2237.8675969287688,left,1,3,0.8089565396476246,S13G10,2022-11-29_16h10.48.458,t1_Paradigm,2021.1.4,59.96929570584077,
V,right,Target,0,63,63,63,2239.366183153652,2241.366216517079,left,0,3,1.2782506401636056,S13G10,2022-11-29_16h10.48.458,t1_Paradigm,2021.1.4,59.96929570584077,
R,left,Distractor,0,0,0,0,2413.1965750519885,2415.201378101916,left,1,4,0.5793093514475913,S13G10,2022-11-29_16h10.48.458,t1_Paradigm,2021.1.4,59.96929570584077,
F,left,Distractor,0,1,1,1,2416.6996614895615,2418.712761445742,left,1,4,0.45981632151597296,S13G10,2022-11-29_16h10.48.458,t1_Paradigm,2021.1.4,59.96929570584077,
P,left,Pretarget,0,2,2,2,2420.1998286274866,2422.201103174466,left,1,4,0.5233774949592771,S13G10,2022-11-29_16h10.48.458,t1_Paradigm,2021.1.4,59.96929570584077,
H,left,Distractor,0,3,3,3,2423.699833760322,2425.7016597662114,left,1,4,0.7189757043670397,S13G10,2022-11-29_16h10.48.458,t1_Paradigm,2021.1.4,59.96929570584077,
Z,left,Distractor,0,4,4,4,2427.1998745021956,2429.201867646014,left,1,4,0.8506540835223859,S13G10,2022-11-29_16h10.48.458,t1_Paradigm,2021.1.4,59.96929570584077,
T,left,Distractor,0,5,5,5,2430.6998421011776,2432.700243424679,left,1,4,0.8882533798096119,S13G10,2022-11-29_16h10.48.458,t1_Paradigm,2021.1.4,59.96929570584077,
P,right,Target,0,6,6,6,2434.1995646073083,2436.2013367184372,None,0,4,,S13G10,2022-11-29_16h10.48.458,t1_Paradigm,2021.1.4,59.96929570584077,
G,left,Distractor,0,7,7,7,2437.6998728981853,2439.7002665224354,left,1,4,1.2165157934141462,S13G10,2022-11-29_16h10.48.458,t1_Paradigm,2021.1.4,59.96929570584077,
L,left,Distractor,0,8,8,8,2441.1996996650196,2443.2020928491293,left,1,4,0.7225959567367681,S13G10,2022-11-29_16h10.48.458,t1_Paradigm,2021.1.4,59.96929570584077,
P,left,Lure,0,9,9,9,2444.6998886174915,2446.702238814112,left,1,4,1.0303790020880115,S13G10,2022-11-29_16h10.48.458,t1_Paradigm,2021.1.4,59.96929570584077,
Q,left,Pretarget,0,10,10,10,2448.200105158947,2450.2013171495055,left,1,4,0.6992425219395955,S13G10,2022-11-29_16h10.48.458,t1_Paradigm,2021.1.4,59.96929570584077,
D,left,Distractor,0,11,11,11,2451.6996807376927,2453.7016924880336,left,1,4,0.879114367897273,S13G10,2022-11-29_16h10.48.458,t1_Paradigm,2021.1.4,59.96929570584077,
M,left,Pretarget,0,12,12,12,2455.199774732726,2457.200745159258,left,1,4,1.012217750238051,S13G10,2022-11-29_16h10.48.458,t1_Paradigm,2021.1.4,59.96929570584077,
C,left,Distractor,0,13,13,13,2458.6998674445495,2460.7004384723914,left,1,4,0.648253264320374,S13G10,2022-11-29_16h10.48.458,t1_Paradigm,2021.1.4,59.96929570584077,
Q,right,Target,0,14,14,14,2462.1998154745997,2464.2006367281283,left,0,4,1.1322930360911414,S13G10,2022-11-29_16h10.48.458,t1_Paradigm,2021.1.4,59.96929570584077,
R,left,Distractor,0,15,15,15,2465.6996104820173,2467.702064297737,left,1,4,1.0064651259199309,S13G10,2022-11-29_16h10.48.458,t1_Paradigm,2021.1.4,59.96929570584077,
M,right,Target,0,16,16,16,2469.199832477112,2471.2016815807583,right,1,4,0.8829004749786691,S13G10,2022-11-29_16h10.48.458,t1_Paradigm,2021.1.4,59.96929570584077,
S,left,Distractor,0,17,17,17,2472.6998498004286,2474.7001744522167,left,1,4,0.5844178050319897,S13G10,2022-11-29_16h10.48.458,t1_Paradigm,2021.1.4,59.96929570584077,
Z,left,Distractor,0,18,18,18,2476.1998132289846,2478.201859946759,left,1,4,0.3949526913056616,S13G10,2022-11-29_16h10.48.458,t1_Paradigm,2021.1.4,59.96929570584077,
L,left,Pretarget,0,19,19,19,2479.699587705065,2481.7022153955513,left,1,4,0.5585906647866068,S13G10,2022-11-29_16h10.48.458,t1_Paradigm,2021.1.4,59.96929570584077,
M,right,Target,0,20,20,20,2483.199707685075,2485.201779425417,right,1,4,0.8988260565784003,S13G10,2022-11-29_16h10.48.458,t1_Paradigm,2021.1.4,59.96929570584077,
P,left,Distractor,0,21,21,21,2486.6997538805845,2488.7005414498853,left,1,4,0.45610239491725224,S13G10,2022-11-29_16h10.48.458,t1_Paradigm,2021.1.4,59.96929570584077,
F,left,Distractor,0,22,22,22,2490.1989428927263,2492.2013723274795,left,1,4,0.4431901080024545,S13G10,2022-11-29_16h10.48.458,t1_Paradigm,2021.1.4,59.96929570584077,
L,right,Target,0,23,23,23,2493.69980841695,2495.70054209149,left,0,4,0.4643229502507893,S13G10,2022-11-29_16h10.48.458,t1_Paradigm,2021.1.4,59.96929570584077,
L,left,Lure,0,24,24,24,2497.1999790837,2499.200070833118,left,1,4,0.9329096820001723,S13G10,2022-11-29_16h10.48.458,t1_Paradigm,2021.1.4,59.96929570584077,
V,left,Pretarget,0,25,25,25,2500.6999287177605,2502.701690563219,left,1,4,0.71102975568283,S13G10,2022-11-29_16h10.48.458,t1_Paradigm,2021.1.4,59.96929570584077,
Z,left,Distractor,0,26,26,26,2504.1997019106348,2506.2017502324234,left,1,4,0.6828556268374086,S13G10,2022-11-29_16h10.48.458,t1_Paradigm,2021.1.4,59.96929570584077,
H,left,Distractor,0,27,27,27,2507.6998725773847,2509.7002039660147,left,1,4,0.5125372691909433,S13G10,2022-11-29_16h10.48.458,t1_Paradigm,2021.1.4,59.96929570584077,
X,left,Distractor,0,28,28,28,2511.19986904856,2513.2015352949747,left,1,4,0.6592705728835426,S13G10,2022-11-29_16h10.48.458,t1_Paradigm,2021.1.4,59.96929570584077,
V,right,Target,0,29,29,29,2514.699938021022,2516.698993900267,right,1,4,0.4896380902500823,S13G10,2022-11-29_16h10.48.458,t1_Paradigm,2021.1.4,59.96929570584077,
C,left,Distractor,0,30,30,30,2518.1997320660375,2520.201888818956,left,1,4,0.3789552500238642,S13G10,2022-11-29_16h10.48.458,t1_Paradigm,2021.1.4,59.96929570584077,
S,left,Pretarget,0,31,31,31,2521.699704797855,2523.7015866233196,left,1,4,0.43143110484743374,S13G10,2022-11-29_16h10.48.458,t1_Paradigm,2021.1.4,59.96929570584077,
D,left,Distractor,0,32,32,32,2525.199503975702,2527.201772367771,left,1,4,0.6268377953711024,S13G10,2022-11-29_16h10.48.458,t1_Paradigm,2021.1.4,59.96929570584077,
V,left,Distractor,0,33,33,33,2528.699929680166,2530.7006931893084,right,0,4,0.8878106728334387,S13G10,2022-11-29_16h10.48.458,t1_Paradigm,2021.1.4,59.96929570584077,
R,left,Distractor,0,34,34,34,2532.1998700109652,2534.2017136609757,left,1,4,0.3470431344176177,S13G10,2022-11-29_16h10.48.458,t1_Paradigm,2021.1.4,59.96929570584077,
S,right,Target,0,35,35,35,2535.6996756048575,2537.7019404681014,left,0,4,0.49478022806579247,S13G10,2022-11-29_16h10.48.458,t1_Paradigm,2021.1.4,59.96929570584077,
Y,left,Distractor,0,36,36,36,2539.199841459573,2541.201611645891,left,1,4,0.579111737315543,S13G10,2022-11-29_16h10.48.458,t1_Paradigm,2021.1.4,59.96929570584077,
N,left,Pretarget,0,37,37,37,2542.6999675348234,2544.7019269944103,left,1,4,0.6468266571173444,S13G10,2022-11-29_16h10.48.458,t1_Paradigm,2021.1.4,59.96929570584077,
Z,left,Pretarget,0,38,38,38,2546.1996236349078,2548.20175889408,left,1,4,1.0667987088345399,S13G10,2022-11-29_16h10.48.458,t1_Paradigm,2021.1.4,59.96929570584077,
P,left,Pretarget,0,39,39,39,2549.699888938292,2551.7018426234426,left,1,4,0.7507755392180115,S13G10,2022-11-29_16h10.48.458,t1_Paradigm,2021.1.4,59.96929570584077,
M,left,Distractor,0,40,40,40,2553.199954381933,2555.201877270076,left,1,4,0.8987423272119486,S13G10,2022-11-29_16h10.48.458,t1_Paradigm,2021.1.4,59.96929570584077,
N,right,Target,0,41,41,41,2556.700066662688,2558.701669390277,right,1,4,0.726922615460353,S13G10,2022-11-29_16h10.48.458,t1_Paradigm,2021.1.4,59.96929570584077,
Z,right,Target,0,42,42,42,2560.1997869232073,2562.2021935810044,left,0,4,0.9065740703299525,S13G10,2022-11-29_16h10.48.458,t1_Paradigm,2021.1.4,59.96929570584077,
P,right,Target,0,43,43,43,2563.6999168480797,2565.7013745730947,right,1,4,1.311339458090515,S13G10,2022-11-29_16h10.48.458,t1_Paradigm,2021.1.4,59.96929570584077,
X,left,Pretarget,0,44,44,44,2567.1995832138346,2569.2019484881566,left,1,4,0.9310993954168225,S13G10,2022-11-29_16h10.48.458,t1_Paradigm,2021.1.4,59.96929570584077,
Z,left,Lure,0,45,45,45,2570.6998568580784,2572.700408637793,left,1,4,1.0963975200684217,S13G10,2022-11-29_16h10.48.458,t1_Paradigm,2021.1.4,59.96929570584077,
R,left,Pretarget,0,46,46,46,2574.1999534195274,2576.1990898201148,left,1,4,0.8936986756634724,S13G10,2022-11-29_16h10.48.458,t1_Paradigm,2021.1.4,59.96929570584077,
K,left,Distractor,0,47,47,47,2577.699855254068,2579.702212508335,left,1,4,0.7503533635790518,S13G10,2022-11-29_16h10.48.458,t1_Paradigm,2021.1.4,59.96929570584077,
X,right,Target,0,48,48,48,2581.1999450786716,2583.202114984477,right,1,4,0.9144949964465923,S13G10,2022-11-29_16h10.48.458,t1_Paradigm,2021.1.4,59.96929570584077,
B,left,Distractor,0,49,49,49,2584.6997882064134,2586.7004660613784,left,1,4,0.9359576233182452,S13G10,2022-11-29_16h10.48.458,t1_Paradigm,2021.1.4,59.96929570584077,
R,right,Target,0,50,50,50,2588.199941229046,2590.201869570825,left,0,4,1.242783395024162,S13G10,2022-11-29_16h10.48.458,t1_Paradigm,2021.1.4,59.96929570584077,
Y,left,Pretarget,0,51,51,51,2591.699774091121,2593.699909469633,left,1,4,1.0086796232244524,S13G10,2022-11-29_16h10.48.458,t1_Paradigm,2021.1.4,59.96929570584077,
W,left,Pretarget,0,52,52,52,2595.1998250986617,2597.201835244996,left,1,4,0.9949714261529152,S13G10,2022-11-29_16h10.48.458,t1_Paradigm,2021.1.4,59.96929570584077,
Z,left,Distractor,0,53,53,53,2598.6999146024646,2600.70176049809,left,1,4,1.0630350579012884,S13G10,2022-11-29_16h10.48.458,t1_Paradigm,2021.1.4,59.96929570584077,
Q,left,Distractor,0,54,54,54,2602.1996756048575,2604.2023905535316,left,1,4,0.7944206730026053,S13G10,2022-11-29_16h10.48.458,t1_Paradigm,2021.1.4,59.96929570584077,
Y,right,Target,0,55,55,55,2605.699917810489,2607.7022753855563,right,1,4,0.9582658846811682,S13G10,2022-11-29_16h10.48.458,t1_Paradigm,2021.1.4,59.96929570584077,
W,right,Target,0,56,56,56,2609.1999665724143,2611.2017274554673,left,0,4,1.2190093885947135,S13G10,2022-11-29_16h10.48.458,t1_Paradigm,2021.1.4,59.96929570584077,
H,left,Pretarget,0,57,57,57,2612.6999479658916,2614.7015112348126,left,1,4,0.999127738930838,S13G10,2022-11-29_16h10.48.458,t1_Paradigm,2021.1.4,59.96929570584077,
M,left,Distractor,0,58,58,58,2616.199802963314,2618.198943213527,left,1,4,0.7819190128539049,S13G10,2022-11-29_16h10.48.458,t1_Paradigm,2021.1.4,59.96929570584077,
R,left,Pretarget,0,59,59,59,2619.6998828430515,2621.702106002016,left,1,4,0.6385894200720941,S13G10,2022-11-29_16h10.48.458,t1_Paradigm,2021.1.4,59.96929570584077,
J,left,Distractor,0,60,60,60,2623.1996438454444,2625.2018644379896,left,1,4,0.8028122158902988,S13G10,2022-11-29_16h10.48.458,t1_Paradigm,2021.1.4,59.96929570584077,
H,right,Target,0,61,61,61,2626.6998745021956,2628.7022044882797,right,1,4,1.190548462622246,S13G10,2022-11-29_16h10.48.458,t1_Paradigm,2021.1.4,59.96929570584077,
Z,left,Distractor,0,62,62,62,2630.199679454483,2632.2019302024346,left,1,4,0.554763815827755,S13G10,2022-11-29_16h10.48.458,t1_Paradigm,2021.1.4,59.96929570584077,
R,right,Target,0,63,63,63,2633.699839534762,2635.7018301121607,left,0,4,0.46299899973746506,S13G10,2022-11-29_16h10.48.458,t1_Paradigm,2021.1.4,59.96929570584077,
J,left,Pretarget,0,0,0,0,2672.9786169320687,2674.9679621299474,left,1,4,0.49286953040063963,S13G10,2022-11-29_16h10.48.458,t1_Paradigm,2021.1.4,59.96929570584077,
G,left,Pretarget,0,1,1,1,2676.466460455038,2678.4684128569825,left,1,4,0.4162629371494404,S13G10,2022-11-29_16h10.48.458,t1_Paradigm,2021.1.4,59.96929570584077,
Z,left,Distractor,0,2,2,2,2679.9665736982024,2681.9677366060278,left,1,4,0.5168482086082804,S13G10,2022-11-29_16h10.48.458,t1_Paradigm,2021.1.4,59.96929570584077,
F,left,Distractor,0,3,3,3,2683.466523973868,2685.4678803253955,left,1,4,0.6328339085339394,S13G10,2022-11-29_16h10.48.458,t1_Paradigm,2021.1.4,59.96929570584077,
J,right,Target,0,4,4,4,2686.9666490867094,2688.9684981903556,right,1,4,0.4761720988099114,S13G10,2022-11-29_16h10.48.458,t1_Paradigm,2021.1.4,59.96929570584077,
G,right,Target,0,5,5,5,2690.4663225101103,2692.4684888870943,left,0,4,0.6243162903992925,S13G10,2022-11-29_16h10.48.458,t1_Paradigm,2021.1.4,59.96929570584077,
H,left,Distractor,0,6,6,6,2693.966566319752,2695.968238340607,left,1,4,0.48446611783947446,S13G10,2022-11-29_16h10.48.458,t1_Paradigm,2021.1.4,59.96929570584077,
P,left,Distractor,0,7,7,7,2697.4666032120003,2699.468184125042,left,1,4,0.4244966453734378,S13G10,2022-11-29_16h10.48.458,t1_Paradigm,2021.1.4,59.96929570584077,
G,left,Lure,0,8,8,8,2700.966655823555,2702.969061198146,left,1,4,1.3876759359263815,S13G10,2022-11-29_16h10.48.458,t1_Paradigm,2021.1.4,59.96929570584077,
S,left,Distractor,0,9,9,9,2704.4665923047287,2706.479327829653,left,1,4,0.645502385807049,S13G10,2022-11-29_16h10.48.458,t1_Paradigm,2021.1.4,59.96929570584077,
R,left,Pretarget,0,10,10,10,2707.9664845152,2709.9681100197413,left,1,4,0.4045289565619896,S13G10,2022-11-29_16h10.48.458,t1_Paradigm,2021.1.4,59.96929570584077,
T,left,Pretarget,0,11,11,11,2711.466492856056,2713.468788837112,left,1,4,0.4560366304758645,S13G10,2022-11-29_16h10.48.458,t1_Paradigm,2021.1.4,59.96929570584077,
X,left,Distractor,0,12,12,12,2714.9665714525872,2716.967243212308,left,1,4,0.6214107852392772,S13G10,2022-11-29_16h10.48.458,t1_Paradigm,2021.1.4,59.96929570584077,
F,left,Pretarget,0,13,13,13,2718.466447302151,2720.466798901318,left,1,4,0.8663137201292557,S13G10,2022-11-29_16h10.48.458,t1_Paradigm,2021.1.4,59.96929570584077,
R,right,Target,0,14,14,14,2721.9665736982024,2723.967279142151,right,1,4,0.7893904951451987,S13G10,2022-11-29_16h10.48.458,t1_Paradigm,2021.1.4,59.96929570584077,
T,right,Target,0,15,15,15,2725.4666429914687,2727.4683233531796,left,0,4,0.36046549676393624,S13G10,2022-11-29_16h10.48.458,t1_Paradigm,2021.1.4,59.96929570584077,
C,left,Distractor,0,16,16,16,2728.966331492571,2730.968122531027,left,1,4,0.5086542798526352,S13G10,2022-11-29_16h10.48.458,t1_Paradigm,2021.1.4,59.96929570584077,
F,right,Target,0,17,17,17,2732.4665749814085,2734.468616887156,left,0,4,1.0082619388158491,S13G10,2022-11-29_16h10.48.458,t1_Paradigm,2021.1.4,59.96929570584077,
M,left,Distractor,0,18,18,18,2735.9665868510892,2737.9684442955913,left,1,4,0.7080392379502882,S13G10,2022-11-29_16h10.48.458,t1_Paradigm,2021.1.4,59.96929570584077,
N,left,Distractor,0,19,19,19,2739.466652936335,2741.468287102536,left,1,4,0.8405731964630831,S13G10,2022-11-29_16h10.48.458,t1_Paradigm,2021.1.4,59.96929570584077,
R,left,Lure,0,20,20,20,2742.9666109112513,2744.9683470925374,right,0,4,1.3084910557154217,S13G10,2022-11-29_16h10.48.458,t1_Paradigm,2021.1.4,59.96929570584077,
F,right,Target,0,21,21,21,2746.4665884550996,2748.4667267208315,left,0,4,1.1060636099355179,S13G10,2022-11-29_16h10.48.458,t1_Paradigm,2021.1.4,59.96929570584077,
P,left,Distractor,0,22,22,22,2749.9666231017327,2751.9681985611387,left,1,4,0.6447533127648057,S13G10,2022-11-29_16h10.48.458,t1_Paradigm,2021.1.4,59.96929570584077,
L,left,Pretarget,0,23,23,23,2753.466582359859,2755.4689973585155,left,1,4,0.8238273237475369,S13G10,2022-11-29_16h10.48.458,t1_Paradigm,2021.1.4,59.96929570584077,
T,left,Distractor,0,24,24,24,2756.966502159321,2758.9688642256187,right,0,4,1.0678528647295025,S13G10,2022-11-29_16h10.48.458,t1_Paradigm,2021.1.4,59.96929570584077,
F,left,Distractor,0,25,25,25,2760.4666385002383,2762.468576145282,left,1,4,0.7681829059911252,S13G10,2022-11-29_16h10.48.458,t1_Paradigm,2021.1.4,59.96929570584077,
V,left,Distractor,0,26,26,26,2763.9666080240313,2765.9672887662164,left,1,4,0.4214519120796467,S13G10,2022-11-29_16h10.48.458,t1_Paradigm,2021.1.4,59.96929570584077,
L,right,Target,0,27,27,27,2767.466587492694,2769.4689357645,left,0,4,0.487866299925372,S13G10,2022-11-29_16h10.48.458,t1_Paradigm,2021.1.4,59.96929570584077,
S,left,Pretarget,0,28,28,28,2770.966615081681,2772.9681157941814,left,1,4,0.9886862702442158,S13G10,2022-11-29_16h10.48.458,t1_Paradigm,2021.1.4,59.96929570584077,
W,left,Distractor,0,29,29,29,2774.4665923047287,2776.468743924808,left,1,4,0.6880632082938973,S13G10,2022-11-29_16h10.48.458,t1_Paradigm,2021.1.4,59.96929570584077,
Q,left,Distractor,0,30,30,30,2777.9665967959554,2779.9690560653107,left,1,4,0.643944249717606,S13G10,2022-11-29_16h10.48.458,t1_Paradigm,2021.1.4,59.96929570584077,
L,right,Target,0,31,31,31,2781.466739873722,2783.467239683483,right,1,4,0.953465721970133,S13G10,2022-11-29_16h10.48.458,t1_Paradigm,2021.1.4,59.96929570584077,
S,right,Target,0,32,32,32,2784.9664694374987,2786.968677839566,right,1,4,1.1160492187482305,S13G10,2022-11-29_16h10.48.458,t1_Paradigm,2021.1.4,59.96929570584077,
Z,left,Pretarget,0,33,33,33,2788.466599362375,2790.468640947318,left,1,4,0.49626842928046244,S13G10,2022-11-29_16h10.48.458,t1_Paradigm,2021.1.4,59.96929570584077,
F,left,Distractor,0,34,34,34,2791.966657748366,2793.96893416049,left,1,4,0.45192555080211605,S13G10,2022-11-29_16h10.48.458,t1_Paradigm,2021.1.4,59.96929570584077,
V,left,Distractor,0,35,35,35,2795.4665108209774,2797.4673757036,left,1,4,0.3935806204681285,S13G10,2022-11-29_16h10.48.458,t1_Paradigm,2021.1.4,59.96929570584077,
M,left,Distractor,0,36,36,36,2798.9665935879348,2800.9688478647113,left,1,4,0.5240361017895339,S13G10,2022-11-29_16h10.48.458,t1_Paradigm,2021.1.4,59.96929570584077,
Z,right,Target,0,37,37,37,2802.4666837333425,2804.468664365875,right,1,4,0.5282745399199484,S13G10,2022-11-29_16h10.48.458,t1_Paradigm,2021.1.4,59.96929570584077,
H,left,Pretarget,0,38,38,38,2805.9665983999694,2807.967808144909,left,1,4,0.46933323837583885,S13G10,2022-11-29_16h10.48.458,t1_Paradigm,2021.1.4,59.96929570584077,
L,left,Distractor,0,39,39,39,2809.4666866205625,2811.468399062487,left,1,4,0.3763785670817015,S13G10,2022-11-29_16h10.48.458,t1_Paradigm,2021.1.4,59.96929570584077,
G,left,Distractor,0,40,40,40,2812.9665631117314,2814.967222039366,left,1,4,0.3498395668393641,S13G10,2022-11-29_16h10.48.458,t1_Paradigm,2021.1.4,59.96929570584077,
K,left,Distractor,0,41,41,41,2816.4666131568665,2818.468642230524,left,1,4,0.6242107464895525,S13G10,2022-11-29_16h10.48.458,t1_Paradigm,2021.1.4,59.96929570584077,
H,right,Target,0,42,42,42,2819.966307432409,2821.967662821531,left,0,4,1.013226031427621,S13G10,2022-11-29_16h10.48.458,t1_Paradigm,2021.1.4,59.96929570584077,
B,left,Distractor,0,43,43,43,2823.4663776880807,2825.4682681752092,left,1,4,0.5525605465954868,S13G10,2022-11-29_16h10.48.458,t1_Paradigm,2021.1.4,59.96929570584077,
Z,left,Distractor,0,44,44,44,2826.9665659989514,2828.968955654236,left,1,4,0.8442428523667331,S13G10,2022-11-29_16h10.48.458,t1_Paradigm,2021.1.4,59.96929570584077,
T,left,Pretarget,0,45,45,45,2830.4665868510892,2832.4676137388014,left,1,4,0.6892870685296657,S13G10,2022-11-29_16h10.48.458,t1_Paradigm,2021.1.4,59.96929570584077,
H,right,Target,0,46,46,46,2833.9666067408252,2835.9682739496457,right,1,4,0.5648783871110936,S13G10,2022-11-29_16h10.48.458,t1_Paradigm,2021.1.4,59.96929570584077,
F,left,Distractor,0,47,47,47,2837.4666189313066,2839.4689331980844,left,1,4,0.5358175610926992,S13G10,2022-11-29_16h10.48.458,t1_Paradigm,2021.1.4,59.96929570584077,
R,left,Distractor,0,48,48,48,2840.9665858886838,2842.9685222505177,left,1,4,0.5403652525055804,S13G10,2022-11-29_16h10.48.458,t1_Paradigm,2021.1.4,59.96929570584077,
T,right,Target,0,49,49,49,2844.4666972070336,2846.4683839847858,left,0,4,0.4485398048127536,S13G10,2022-11-29_16h10.48.458,t1_Paradigm,2021.1.4,59.96929570584077,
H,right,Target,0,50,50,50,2847.9667260792266,2849.968721147856,right,1,4,0.5159891004259407,S13G10,2022-11-29_16h10.48.458,t1_Paradigm,2021.1.4,59.96929570584077,
Y,left,Pretarget,0,51,51,51,2851.4666458786887,2853.4678597940583,left,1,4,0.5529500004195143,S13G10,2022-11-29_16h10.48.458,t1_Paradigm,2021.1.4,59.96929570584077,
H,left,Distractor,0,52,52,52,2854.9666243849424,2856.968445578801,left,1,4,0.764186994296324,S13G10,2022-11-29_16h10.48.458,t1_Paradigm,2021.1.4,59.96929570584077,
S,left,Distractor,0,53,53,53,2858.466460455038,2860.468863584014,left,1,4,0.39989689418507623,S13G10,2022-11-29_16h10.48.458,t1_Paradigm,2021.1.4,59.96929570584077,
Q,left,Distractor,0,54,54,54,2861.9665425803905,2863.9689485965864,left,1,4,0.723799285638961,S13G10,2022-11-29_16h10.48.458,t1_Paradigm,2021.1.4,59.96929570584077,
Y,right,Target,0,55,55,55,2865.4666885453735,2867.468058370596,left,0,4,0.4247609863523394,S13G10,2022-11-29_16h10.48.458,t1_Paradigm,2021.1.4,59.96929570584077,
R,left,Distractor,0,56,56,56,2868.9666295177776,2870.9688568471684,left,1,4,0.33193495672094286,S13G10,2022-11-29_16h10.48.458,t1_Paradigm,2021.1.4,59.96929570584077,
H,left,Pretarget,0,57,57,57,2872.4667347408867,2874.467251553164,left,1,4,0.41754871220109635,S13G10,2022-11-29_16h10.48.458,t1_Paradigm,2021.1.4,59.96929570584077,
J,left,Distractor,0,58,58,58,2875.966625668152,2877.9672550819887,left,1,4,0.6776236644182063,S13G10,2022-11-29_16h10.48.458,t1_Paradigm,2021.1.4,59.96929570584077,
V,left,Distractor,0,59,59,59,2879.4664912520457,2881.468645117744,left,1,4,0.7600762354268227,S13G10,2022-11-29_16h10.48.458,t1_Paradigm,2021.1.4,59.96929570584077,
Y,left,Lure,0,60,60,60,2882.966207342135,2884.968040084874,left,1,4,1.0847350783660659,S13G10,2022-11-29_16h10.48.458,t1_Paradigm,2021.1.4,59.96929570584077,
H,right,Target,0,61,61,61,2886.466630480183,2888.468470922173,right,1,4,1.200312717945053,S13G10,2022-11-29_16h10.48.458,t1_Paradigm,2021.1.4,59.96929570584077,
L,left,Distractor,0,62,62,62,2889.9666429914687,2891.9685142304625,left,1,4,0.4522582226381928,S13G10,2022-11-29_16h10.48.458,t1_Paradigm,2021.1.4,59.96929570584077,
P,left,Distractor,0,63,63,63,2893.4665907007147,2895.468605017475,left,1,4,0.42427015904831933,S13G10,2022-11-29_16h10.48.458,t1_Paradigm,2021.1.4,59.96929570584077,
