Letter,CorrAnswer,Stimulus,nback_run.thisRepN,nback_run.thisTrialN,nback_run.thisN,nback_run.thisIndex,fixcross.started,nback_trial.started,trial_resp.keys,trial_resp.corr,currentlevel,trial_resp.rt,Participant,date,expName,psychopyVersion,frameRate,
H,left,Distractor,0,0,0,0,95.12443807540694,97.069382382615,None,0,1,,S15I11,2022-10-10_15h41.45.368,t1_Paradigm,2021.1.4,59.9431757116503,
Q,left,Pretarget,0,1,1,1,98.57078765513143,100.57113155472325,left,1,1,0.470394640811719,S15I11,2022-10-10_15h41.45.368,t1_Paradigm,2021.1.4,59.9431757116503,
Q,right,Target,0,2,2,2,102.06800357624888,104.0680096715223,left,0,1,1.0213865761761554,S15I11,2022-10-10_15h41.45.368,t1_Paradigm,2021.1.4,59.9431757116503,
T,left,Distractor,0,3,3,3,105.56780387711478,107.56972259300528,left,1,1,0.47987722273683175,S15I11,2022-10-10_15h41.45.368,t1_Paradigm,2021.1.4,59.9431757116503,
Q,left,Lure,0,4,4,4,109.06796475924784,111.06885017233435,left,1,1,0.7247539369855076,S15I11,2022-10-10_15h41.45.368,t1_Paradigm,2021.1.4,59.9431757116503,
L,left,Distractor,0,5,5,5,112.56773233832791,114.56951118458528,left,1,1,0.5518863309407607,S15I11,2022-10-10_15h41.45.368,t1_Paradigm,2021.1.4,59.9431757116503,
V,left,Pretarget,0,6,6,6,116.06700876972172,118.07020203134743,left,1,1,0.5393266176688485,S15I11,2022-10-10_15h41.45.368,t1_Paradigm,2021.1.4,59.9431757116503,
V,right,Target,0,7,7,7,119.5679318770417,121.5679905837751,right,1,1,0.38540043612010777,S15I11,2022-10-10_15h41.45.368,t1_Paradigm,2021.1.4,59.9431757116503,
K,left,Distractor,0,8,8,8,123.06801384192659,125.06953283870826,left,1,1,0.5801117609371431,S15I11,2022-10-10_15h41.45.368,t1_Paradigm,2021.1.4,59.9431757116503,
G,left,Pretarget,0,9,9,9,126.56773137592245,128.56944060814567,left,1,1,0.9040629233350046,S15I11,2022-10-10_15h41.45.368,t1_Paradigm,2021.1.4,59.9431757116503,
G,right,Target,0,10,10,10,130.06799395219423,132.06807800231036,right,1,1,0.39752417959971353,S15I11,2022-10-10_15h41.45.368,t1_Paradigm,2021.1.4,59.9431757116503,
G,right,Target,0,11,11,11,133.5680242679664,135.56802105996758,right,1,1,0.43353771622059867,S15I11,2022-10-10_15h41.45.368,t1_Paradigm,2021.1.4,59.9431757116503,
P,left,Pretarget,0,12,12,12,137.06812804739457,139.06948920962168,left,1,1,0.5482099417131394,S15I11,2022-10-10_15h41.45.368,t1_Paradigm,2021.1.4,59.9431757116503,
P,right,Target,0,13,13,13,140.5679819221259,142.56798545096535,right,1,1,0.4255876046954654,S15I11,2022-10-10_15h41.45.368,t1_Paradigm,2021.1.4,59.9431757116503,
G,left,Lure,0,14,14,14,144.06820888945367,146.0676702631754,left,1,1,0.41386101383250207,S15I11,2022-10-10_15h41.45.368,t1_Paradigm,2021.1.4,59.9431757116503,
Y,left,Distractor,0,15,15,15,147.56795946601778,149.56909574614838,left,1,1,0.7044035507715307,S15I11,2022-10-10_15h41.45.368,t1_Paradigm,2021.1.4,59.9431757116503,
B,left,Distractor,0,16,16,16,151.06789257883793,153.0694041971583,left,1,1,0.9159325918299146,S15I11,2022-10-10_15h41.45.368,t1_Paradigm,2021.1.4,59.9431757116503,
T,left,Pretarget,0,17,17,17,154.56776056886883,156.56947012193268,left,1,1,0.504020449181553,S15I11,2022-10-10_15h41.45.368,t1_Paradigm,2021.1.4,59.9431757116503,
T,right,Target,0,18,18,18,158.06828171148663,160.06768566166284,right,1,1,0.36589279636973515,S15I11,2022-10-10_15h41.45.368,t1_Paradigm,2021.1.4,59.9431757116503,
S,left,Distractor,0,19,19,19,161.56803068402223,163.569321911491,left,1,1,0.6881430673529394,S15I11,2022-10-10_15h41.45.368,t1_Paradigm,2021.1.4,59.9431757116503,
T,left,Lure,0,20,20,20,165.06791022291873,167.0692280769581,left,1,1,0.6923128498019651,S15I11,2022-10-10_15h41.45.368,t1_Paradigm,2021.1.4,59.9431757116503,
J,left,Distractor,0,21,21,21,168.5680098318844,170.5693382723839,left,1,1,0.4880024919984862,S15I11,2022-10-10_15h41.45.368,t1_Paradigm,2021.1.4,59.9431757116503,
P,left,Distractor,0,22,22,22,172.06800550105982,174.06965859304182,left,1,1,0.5238290010602213,S15I11,2022-10-10_15h41.45.368,t1_Paradigm,2021.1.4,59.9431757116503,
F,left,Distractor,0,23,23,23,175.56808329554042,177.5704450387857,left,1,1,0.463126233255025,S15I11,2022-10-10_15h41.45.368,t1_Paradigm,2021.1.4,59.9431757116503,
L,left,Distractor,0,24,24,24,179.0679406991112,181.06846521014813,left,1,1,0.4529080527718179,S15I11,2022-10-10_15h41.45.368,t1_Paradigm,2021.1.4,59.9431757116503,
W,left,Pretarget,0,25,25,25,182.56811505492078,184.5692853400833,left,1,1,0.44023060519248247,S15I11,2022-10-10_15h41.45.368,t1_Paradigm,2021.1.4,59.9431757116503,
W,right,Target,0,26,26,26,186.06798721535597,188.0680112754926,right,1,1,0.3816220319131389,S15I11,2022-10-10_15h41.45.368,t1_Paradigm,2021.1.4,59.9431757116503,
V,left,Distractor,0,27,27,27,189.5679787141271,191.56868544057943,left,1,1,0.4810779840336181,S15I11,2022-10-10_15h41.45.368,t1_Paradigm,2021.1.4,59.9431757116503,
W,left,Lure,0,28,28,28,193.06778318539727,195.06962234241655,left,1,1,0.41975735186133534,S15I11,2022-10-10_15h41.45.368,t1_Paradigm,2021.1.4,59.9431757116503,
R,left,Pretarget,0,29,29,29,196.56794310512487,198.56968153035268,left,1,1,0.4875421413453296,S15I11,2022-10-10_15h41.45.368,t1_Paradigm,2021.1.4,59.9431757116503,
R,right,Target,0,30,30,30,200.06788263400085,202.06826984178042,right,1,1,0.5732716239290312,S15I11,2022-10-10_15h41.45.368,t1_Paradigm,2021.1.4,59.9431757116503,
G,left,Distractor,0,31,31,31,203.56793957628543,205.56927411200013,left,1,1,0.44828626047819853,S15I11,2022-10-10_15h41.45.368,t1_Paradigm,2021.1.4,59.9431757116503,
R,left,Lure,0,32,32,32,207.06795064394828,209.0702013897244,left,1,1,0.691247146052774,S15I11,2022-10-10_15h41.45.368,t1_Paradigm,2021.1.4,59.9431757116503,
S,left,Distractor,0,33,33,33,210.5677730801399,212.5696276356466,left,1,1,0.4718449860229157,S15I11,2022-10-10_15h41.45.368,t1_Paradigm,2021.1.4,59.9431757116503,
R,left,Lure,0,34,34,34,214.06792786705773,216.0698655102169,left,1,1,0.4595226661185734,S15I11,2022-10-10_15h41.45.368,t1_Paradigm,2021.1.4,59.9431757116503,
P,left,Pretarget,0,35,35,35,217.5680698218639,219.56999270815868,left,1,1,0.6395082236267626,S15I11,2022-10-10_15h41.45.368,t1_Paradigm,2021.1.4,59.9431757116503,
P,right,Target,0,36,36,36,221.067934603896,223.06807832309278,right,1,1,0.35752628406044096,S15I11,2022-10-10_15h41.45.368,t1_Paradigm,2021.1.4,59.9431757116503,
Y,left,Pretarget,0,37,37,37,224.56786354625365,226.5681580423843,left,1,1,0.6496301636216231,S15I11,2022-10-10_15h41.45.368,t1_Paradigm,2021.1.4,59.9431757116503,
Y,right,Target,0,38,38,38,228.06803693965776,230.06795321038226,right,1,1,0.3976470467168838,S15I11,2022-10-10_15h41.45.368,t1_Paradigm,2021.1.4,59.9431757116503,
J,left,Distractor,0,39,39,39,231.56790492968867,233.56958881864557,left,1,1,0.43185029848245904,S15I11,2022-10-10_15h41.45.368,t1_Paradigm,2021.1.4,59.9431757116503,
Y,left,Lure,0,40,40,40,235.06794037832879,237.06948856805684,left,1,1,0.4841339424601756,S15I11,2022-10-10_15h41.45.368,t1_Paradigm,2021.1.4,59.9431757116503,
T,left,Distractor,0,41,41,41,238.56758059904678,240.5698390440666,left,1,1,0.4556746478774585,S15I11,2022-10-10_15h41.45.368,t1_Paradigm,2021.1.4,59.9431757116503,
V,left,Distractor,0,42,42,42,242.0678126991843,244.06908307451522,left,1,1,0.4284437035676092,S15I11,2022-10-10_15h41.45.368,t1_Paradigm,2021.1.4,59.9431757116503,
N,left,Pretarget,0,43,43,43,245.56763000250794,247.5707344020484,left,1,1,0.6067793772090226,S15I11,2022-10-10_15h41.45.368,t1_Paradigm,2021.1.4,59.9431757116503,
N,right,Target,0,44,44,44,249.0679596264381,251.0679333206499,left,0,1,0.5014139341656119,S15I11,2022-10-10_15h41.45.368,t1_Paradigm,2021.1.4,59.9431757116503,
N,right,Target,0,45,45,45,252.56784558139043,254.5679010800668,right,1,1,0.5214775234926492,S15I11,2022-10-10_15h41.45.368,t1_Paradigm,2021.1.4,59.9431757116503,
X,left,Distractor,0,46,46,46,256.06790926051326,258.0701763671823,left,1,1,0.5232598985894583,S15I11,2022-10-10_15h41.45.368,t1_Paradigm,2021.1.4,59.9431757116503,
Z,left,Distractor,0,47,47,47,259.56778110016603,261.5693767686025,left,1,1,0.5760962842032313,S15I11,2022-10-10_15h41.45.368,t1_Paradigm,2021.1.4,59.9431757116503,
H,left,Pretarget,0,48,48,48,263.0679082981078,265.0698032746441,left,1,1,0.4356678404728882,S15I11,2022-10-10_15h41.45.368,t1_Paradigm,2021.1.4,59.9431757116503,
H,right,Target,0,49,49,49,266.56784622295527,268.5677515864372,right,1,1,0.36159212671918795,S15I11,2022-10-10_15h41.45.368,t1_Paradigm,2021.1.4,59.9431757116503,
K,left,Distractor,0,50,50,50,270.06789707008284,272.06884568114765,left,1,1,0.47668588592205197,S15I11,2022-10-10_15h41.45.368,t1_Paradigm,2021.1.4,59.9431757116503,
V,left,Pretarget,0,51,51,51,273.5678102931706,275.56904217228293,left,1,1,0.43235203257063404,S15I11,2022-10-10_15h41.45.368,t1_Paradigm,2021.1.4,59.9431757116503,
V,right,Target,0,52,52,52,277.0679374911124,279.06762118043844,right,1,1,0.45378384174546227,S15I11,2022-10-10_15h41.45.368,t1_Paradigm,2021.1.4,59.9431757116503,
R,left,Distractor,0,53,53,53,280.56752894993406,282.56945953547256,left,1,1,0.4240448686759919,S15I11,2022-10-10_15h41.45.368,t1_Paradigm,2021.1.4,59.9431757116503,
V,left,Lure,0,54,54,54,284.06788263400085,286.0692659315537,left,1,1,0.588132128061261,S15I11,2022-10-10_15h41.45.368,t1_Paradigm,2021.1.4,59.9431757116503,
Y,left,Distractor,0,55,55,55,287.56763032334857,289.56971778097795,left,1,1,0.5918037052033469,S15I11,2022-10-10_15h41.45.368,t1_Paradigm,2021.1.4,59.9431757116503,
Q,left,Distractor,0,56,56,56,291.0676401077653,293.0696123975795,left,1,1,0.4197705048136413,S15I11,2022-10-10_15h41.45.368,t1_Paradigm,2021.1.4,59.9431757116503,
Z,left,Pretarget,0,57,57,57,294.56775319040753,296.56847595697036,left,1,1,0.408969106443692,S15I11,2022-10-10_15h41.45.368,t1_Paradigm,2021.1.4,59.9431757116503,
Z,right,Target,0,58,58,58,298.06792818784015,300.0679246590007,right,1,1,0.4135517608956434,S15I11,2022-10-10_15h41.45.368,t1_Paradigm,2021.1.4,59.9431757116503,
B,left,Distractor,0,59,59,59,301.5674856416881,303.569545189559,left,1,1,0.46395197726087645,S15I11,2022-10-10_15h41.45.368,t1_Paradigm,2021.1.4,59.9431757116503,
S,left,Pretarget,0,60,60,60,305.0678832755657,307.06925502431113,left,1,1,0.9802649117773399,S15I11,2022-10-10_15h41.45.368,t1_Paradigm,2021.1.4,59.9431757116503,
S,right,Target,0,61,61,61,308.56779168662615,310.56798128056107,left,0,1,0.5054018219816498,S15I11,2022-10-10_15h41.45.368,t1_Paradigm,2021.1.4,59.9431757116503,
T,left,Distractor,0,62,62,62,312.06783002248267,314.0677684285329,left,1,1,0.4615270360955037,S15I11,2022-10-10_15h41.45.368,t1_Paradigm,2021.1.4,59.9431757116503,
D,left,Distractor,0,63,63,63,315.5678670750931,317.5707693694276,left,1,1,0.47871848643990234,S15I11,2022-10-10_15h41.45.368,t1_Paradigm,2021.1.4,59.9431757116503,
R,left,Distractor,0,0,0,0,434.62913894536905,436.61875523102935,None,0,1,,S15I11,2022-10-10_15h41.45.368,t1_Paradigm,2021.1.4,59.9431757116503,
V,left,Distractor,0,1,1,1,438.11776411370374,440.1180688755121,left,1,1,0.6351215791073628,S15I11,2022-10-10_15h41.45.368,t1_Paradigm,2021.1.4,59.9431757116503,
N,left,Pretarget,0,2,2,2,441.6176176677109,443.61829135159496,left,1,1,0.4631900728563778,S15I11,2022-10-10_15h41.45.368,t1_Paradigm,2021.1.4,59.9431757116503,
N,right,Target,0,3,3,3,445.11769642453874,447.1175283243647,right,1,1,0.5799038813565858,S15I11,2022-10-10_15h41.45.368,t1_Paradigm,2021.1.4,59.9431757116503,
S,left,Distractor,0,4,4,4,448.61773764755344,450.61943180212984,left,1,1,0.5178091543493792,S15I11,2022-10-10_15h41.45.368,t1_Paradigm,2021.1.4,59.9431757116503,
N,left,Lure,0,5,5,5,452.1176431714557,454.118930228462,left,1,1,0.42642682237783447,S15I11,2022-10-10_15h41.45.368,t1_Paradigm,2021.1.4,59.9431757116503,
Z,left,Distractor,0,6,6,6,455.617839662591,457.6192861581221,left,1,1,0.47814585512969643,S15I11,2022-10-10_15h41.45.368,t1_Paradigm,2021.1.4,59.9431757116503,
L,left,Pretarget,0,7,7,7,459.1172758532921,461.11739583319286,left,1,1,0.48382693505845964,S15I11,2022-10-10_15h41.45.368,t1_Paradigm,2021.1.4,59.9431757116503,
L,right,Target,0,8,8,8,462.617537787999,464.6178149608313,right,1,1,0.42386329476721585,S15I11,2022-10-10_15h41.45.368,t1_Paradigm,2021.1.4,59.9431757116503,
H,left,Distractor,0,9,9,9,466.1176608155365,468.11803005845286,left,1,1,0.3959859347669408,S15I11,2022-10-10_15h41.45.368,t1_Paradigm,2021.1.4,59.9431757116503,
L,left,Lure,0,10,10,10,469.61780694080517,471.6193567345035,left,1,1,0.43012663011904806,S15I11,2022-10-10_15h41.45.368,t1_Paradigm,2021.1.4,59.9431757116503,
X,left,Pretarget,0,11,11,11,473.1176357929944,475.11910602787975,left,1,1,0.4181260744808242,S15I11,2022-10-10_15h41.45.368,t1_Paradigm,2021.1.4,59.9431757116503,
X,right,Target,0,12,12,12,476.6176356325741,478.61776555731194,right,1,1,0.4235822723712772,S15I11,2022-10-10_15h41.45.368,t1_Paradigm,2021.1.4,59.9431757116503,
X,right,Target,0,13,13,13,480.11753217398655,482.11757901107194,right,1,1,0.3638929175795056,S15I11,2022-10-10_15h41.45.368,t1_Paradigm,2021.1.4,59.9431757116503,
R,left,Distractor,0,14,14,14,483.6177411763929,485.61968876444735,left,1,1,0.3980082696652971,S15I11,2022-10-10_15h41.45.368,t1_Paradigm,2021.1.4,59.9431757116503,
T,left,Distractor,0,15,15,15,487.11772337189177,489.11830145685235,left,1,1,0.37098071369109675,S15I11,2022-10-10_15h41.45.368,t1_Paradigm,2021.1.4,59.9431757116503,
V,left,Pretarget,0,16,16,16,490.6178149608313,492.6202139170491,left,1,1,0.4373757895664312,S15I11,2022-10-10_15h41.45.368,t1_Paradigm,2021.1.4,59.9431757116503,
V,right,Target,0,17,17,17,494.1177987603587,496.11748212890234,right,1,1,0.4117684233933687,S15I11,2022-10-10_15h41.45.368,t1_Paradigm,2021.1.4,59.9431757116503,
N,left,Distractor,0,18,18,18,497.6177748605842,499.61989439843455,left,1,1,0.3978061644593254,S15I11,2022-10-10_15h41.45.368,t1_Paradigm,2021.1.4,59.9431757116503,
B,left,Distractor,0,19,19,19,501.11770861502737,503.11804866499733,left,1,1,0.4032309237518348,S15I11,2022-10-10_15h41.45.368,t1_Paradigm,2021.1.4,59.9431757116503,
V,left,Lure,0,20,20,20,504.6177912214771,506.63040162145626,left,1,1,0.3950636294321157,S15I11,2022-10-10_15h41.45.368,t1_Paradigm,2021.1.4,59.9431757116503,
P,left,Distractor,0,21,21,21,508.11777437938144,510.1180146599654,left,1,1,0.395755599020049,S15I11,2022-10-10_15h41.45.368,t1_Paradigm,2021.1.4,59.9431757116503,
K,left,Pretarget,0,22,22,22,511.617414279317,513.6193349200184,left,1,1,0.39830565289594233,S15I11,2022-10-10_15h41.45.368,t1_Paradigm,2021.1.4,59.9431757116503,
K,right,Target,0,23,23,23,515.1177730961936,517.1177904194919,right,1,1,0.45149171259254217,S15I11,2022-10-10_15h41.45.368,t1_Paradigm,2021.1.4,59.9431757116503,
J,left,Pretarget,0,24,24,24,518.617598740384,520.6195748797618,left,1,1,0.4382977740606293,S15I11,2022-10-10_15h41.45.368,t1_Paradigm,2021.1.4,59.9431757116503,
J,right,Target,0,25,25,25,522.1177115022438,524.1177538480842,left,0,1,0.5236111765843816,S15I11,2022-10-10_15h41.45.368,t1_Paradigm,2021.1.4,59.9431757116503,
H,left,Distractor,0,26,26,26,525.6174973669695,527.6194164036424,left,1,1,0.4300512417103164,S15I11,2022-10-10_15h41.45.368,t1_Paradigm,2021.1.4,59.9431757116503,
J,left,Lure,0,27,27,27,529.1174676928204,531.1190591907944,left,1,1,0.4820750361541286,S15I11,2022-10-10_15h41.45.368,t1_Paradigm,2021.1.4,59.9431757116503,
V,left,Distractor,0,28,28,28,532.6179230710259,534.6181784293149,left,1,1,0.40712192945647985,S15I11,2022-10-10_15h41.45.368,t1_Paradigm,2021.1.4,59.9431757116503,
Z,left,Pretarget,0,29,29,29,536.1175440436346,538.1171138483915,left,1,1,0.46023709181463346,S15I11,2022-10-10_15h41.45.368,t1_Paradigm,2021.1.4,59.9431757116503,
Z,right,Target,0,30,30,30,539.6176994721754,541.6176741287927,right,1,1,0.5756811665487476,S15I11,2022-10-10_15h41.45.368,t1_Paradigm,2021.1.4,59.9431757116503,
T,left,Distractor,0,31,31,31,543.1175353819854,545.1176245649112,left,1,1,0.41971500602085143,S15I11,2022-10-10_15h41.45.368,t1_Paradigm,2021.1.4,59.9431757116503,
Z,left,Lure,0,32,32,32,546.6175018582144,548.6184132562485,left,1,1,0.47069202415877953,S15I11,2022-10-10_15h41.45.368,t1_Paradigm,2021.1.4,59.9431757116503,
F,left,Distractor,0,33,33,33,550.1174474823056,552.1181067301077,left,1,1,0.4271736490773037,S15I11,2022-10-10_15h41.45.368,t1_Paradigm,2021.1.4,59.9431757116503,
Y,left,Pretarget,0,34,34,34,553.6174425098579,555.6186050957767,left,1,1,0.41472493327455595,S15I11,2022-10-10_15h41.45.368,t1_Paradigm,2021.1.4,59.9431757116503,
Y,right,Target,0,35,35,35,557.1175498180673,559.1178751111729,right,1,1,0.6275166504201479,S15I11,2022-10-10_15h41.45.368,t1_Paradigm,2021.1.4,59.9431757116503,
Y,right,Target,0,36,36,36,560.6177431012038,562.6176577678998,right,1,1,0.40769841033034027,S15I11,2022-10-10_15h41.45.368,t1_Paradigm,2021.1.4,59.9431757116503,
W,left,Distractor,0,37,37,37,564.117382680357,566.1190277521964,left,1,1,0.5222596384119242,S15I11,2022-10-10_15h41.45.368,t1_Paradigm,2021.1.4,59.9431757116503,
Q,left,Distractor,0,38,38,38,567.617443151481,569.6196653458755,left,1,1,0.44573684816714376,S15I11,2022-10-10_15h41.45.368,t1_Paradigm,2021.1.4,59.9431757116503,
P,left,Pretarget,0,39,39,39,571.1174959233613,573.1173287855927,left,1,1,0.5320636637625284,S15I11,2022-10-10_15h41.45.368,t1_Paradigm,2021.1.4,59.9431757116503,
P,right,Target,0,40,40,40,574.6176478230627,576.6171970964642,right,1,1,0.6481932921451516,S15I11,2022-10-10_15h41.45.368,t1_Paradigm,2021.1.4,59.9431757116503,
J,left,Distractor,0,41,41,41,578.1173464297317,580.1196109699667,left,1,1,0.4576976243988611,S15I11,2022-10-10_15h41.45.368,t1_Paradigm,2021.1.4,59.9431757116503,
P,left,Lure,0,42,42,42,581.617246820766,583.6194295565365,left,1,1,0.4459889983991161,S15I11,2022-10-10_15h41.45.368,t1_Paradigm,2021.1.4,59.9431757116503,
L,left,Distractor,0,43,43,43,585.1174314421951,587.1184483841062,left,1,1,0.5947977488394827,S15I11,2022-10-10_15h41.45.368,t1_Paradigm,2021.1.4,59.9431757116503,
Z,left,Distractor,0,44,44,44,588.6176500686561,590.6195097570308,left,1,1,0.5337369662011042,S15I11,2022-10-10_15h41.45.368,t1_Paradigm,2021.1.4,59.9431757116503,
F,left,Pretarget,0,45,45,45,592.117535061203,594.1191608849913,left,1,1,0.4580771329347044,S15I11,2022-10-10_15h41.45.368,t1_Paradigm,2021.1.4,59.9431757116503,
F,right,Target,0,46,46,46,595.617428073776,597.6174348106142,right,1,1,0.6078829355537891,S15I11,2022-10-10_15h41.45.368,t1_Paradigm,2021.1.4,59.9431757116503,
G,left,Pretarget,0,47,47,47,599.1177730961936,601.1178754319553,left,1,1,0.515421746938955,S15I11,2022-10-10_15h41.45.368,t1_Paradigm,2021.1.4,59.9431757116503,
G,right,Target,0,48,48,48,602.617304565094,604.6174425098579,right,1,1,0.5676797268679366,S15I11,2022-10-10_15h41.45.368,t1_Paradigm,2021.1.4,59.9431757116503,
V,left,Distractor,0,49,49,49,606.117474750441,608.1191435616929,left,1,1,0.5381592197227292,S15I11,2022-10-10_15h41.45.368,t1_Paradigm,2021.1.4,59.9431757116503,
G,left,Lure,0,50,50,50,609.6176568054943,611.6181598228286,left,1,1,0.7509939243318513,S15I11,2022-10-10_15h41.45.368,t1_Paradigm,2021.1.4,59.9431757116503,
Q,left,Pretarget,0,51,51,51,613.1175215875264,615.1191624890198,left,1,1,0.5945141600095667,S15I11,2022-10-10_15h41.45.368,t1_Paradigm,2021.1.4,59.9431757116503,
Q,right,Target,0,52,52,52,616.6176154220593,618.6177976375329,right,1,1,0.5998182978364639,S15I11,2022-10-10_15h41.45.368,t1_Paradigm,2021.1.4,59.9431757116503,
Y,left,Distractor,0,53,53,53,620.117574519827,622.119690528838,left,1,1,0.4735862984089181,S15I11,2022-10-10_15h41.45.368,t1_Paradigm,2021.1.4,59.9431757116503,
V,left,Distractor,0,54,54,54,623.61748710135,625.6182493265369,left,1,1,0.7349108443595469,S15I11,2022-10-10_15h41.45.368,t1_Paradigm,2021.1.4,59.9431757116503,
B,left,Distractor,0,55,55,55,627.1177079734043,629.117671722779,left,1,1,0.6114351744181477,S15I11,2022-10-10_15h41.45.368,t1_Paradigm,2021.1.4,59.9431757116503,
J,left,Pretarget,0,56,56,56,630.6173927856144,632.6194006843725,left,1,1,0.5338014474255033,S15I11,2022-10-10_15h41.45.368,t1_Paradigm,2021.1.4,59.9431757116503,
J,right,Target,0,57,57,57,634.1176608155365,636.1176919332938,right,1,1,0.4275505912373774,S15I11,2022-10-10_15h41.45.368,t1_Paradigm,2021.1.4,59.9431757116503,
H,left,Distractor,0,58,58,58,637.6173533269903,639.6196178672253,left,1,1,0.4619976523681544,S15I11,2022-10-10_15h41.45.368,t1_Paradigm,2021.1.4,59.9431757116503,
J,left,Lure,0,59,59,59,641.1176563242916,643.1195323735592,left,1,1,0.4495492573478259,S15I11,2022-10-10_15h41.45.368,t1_Paradigm,2021.1.4,59.9431757116503,
D,left,Pretarget,0,60,60,60,644.6175612065708,646.6196252456866,left,1,1,0.5014652624959126,S15I11,2022-10-10_15h41.45.368,t1_Paradigm,2021.1.4,59.9431757116503,
D,right,Target,0,61,61,61,648.1174016076257,650.1175164547167,right,1,1,0.8277691856492311,S15I11,2022-10-10_15h41.45.368,t1_Paradigm,2021.1.4,59.9431757116503,
R,left,Distractor,0,62,62,62,651.6174229409662,653.6181280634482,left,1,1,0.4152042111963965,S15I11,2022-10-10_15h41.45.368,t1_Paradigm,2021.1.4,59.9431757116503,
F,left,Distractor,0,63,63,63,655.1172129761544,657.117744544812,left,1,1,0.4834323488175869,S15I11,2022-10-10_15h41.45.368,t1_Paradigm,2021.1.4,59.9431757116503,
F,left,Distractor,0,0,0,0,771.8431959049776,773.8341839394416,None,0,2,,S15I11,2022-10-10_15h41.45.368,t1_Paradigm,2021.1.4,59.9431757116503,
N,left,Pretarget,0,1,1,1,775.3339608217357,777.3355154275196,None,0,2,,S15I11,2022-10-10_15h41.45.368,t1_Paradigm,2021.1.4,59.9431757116503,
V,left,Distractor,0,2,2,2,778.8339394883951,780.8345249517588,left,1,2,0.7025287847500294,S15I11,2022-10-10_15h41.45.368,t1_Paradigm,2021.1.4,59.9431757116503,
N,right,Target,0,3,3,3,782.3340679695248,784.3349245105055,None,0,2,,S15I11,2022-10-10_15h41.45.368,t1_Paradigm,2021.1.4,59.9431757116503,
N,left,Lure,0,4,4,4,785.8340873780544,787.8342208316317,left,1,2,0.48705003125360236,S15I11,2022-10-10_15h41.45.368,t1_Paradigm,2021.1.4,59.9431757116503,
X,left,Distractor,0,5,5,5,789.3342511474038,791.3356453522574,None,0,2,,S15I11,2022-10-10_15h41.45.368,t1_Paradigm,2021.1.4,59.9431757116503,
G,left,Pretarget,0,6,6,6,792.8341322903289,794.8357703045476,left,1,2,0.4615308857173659,S15I11,2022-10-10_15h41.45.368,t1_Paradigm,2021.1.4,59.9431757116503,
H,left,Pretarget,0,7,7,7,796.3339255335159,798.3340512878494,None,0,2,,S15I11,2022-10-10_15h41.45.368,t1_Paradigm,2021.1.4,59.9431757116503,
G,right,Target,0,8,8,8,799.8343607012066,801.8356997281662,right,1,2,0.5818148980033584,S15I11,2022-10-10_15h41.45.368,t1_Paradigm,2021.1.4,59.9431757116503,
H,right,Target,0,9,9,9,803.3342646210804,805.3342999093002,None,0,2,,S15I11,2022-10-10_15h41.45.368,t1_Paradigm,2021.1.4,59.9431757116503,
T,left,Pretarget,0,10,10,10,806.8339484708849,808.8356804800569,left,1,2,0.4776447626645677,S15I11,2022-10-10_15h41.45.368,t1_Paradigm,2021.1.4,59.9431757116503,
K,left,Distractor,0,11,11,11,810.3340390973608,812.335357592965,None,0,2,,S15I11,2022-10-10_15h41.45.368,t1_Paradigm,2021.1.4,59.9431757116503,
T,right,Target,0,12,12,12,813.8338438894716,815.8349169716239,right,1,2,0.45422430272446945,S15I11,2022-10-10_15h41.45.368,t1_Paradigm,2021.1.4,59.9431757116503,
T,left,Lure,0,13,13,13,817.3339560097083,819.3340904256911,None,0,2,,S15I11,2022-10-10_15h41.45.368,t1_Paradigm,2021.1.4,59.9431757116503,
J,left,Distractor,0,14,14,14,820.8339789470192,822.8353481293307,left,1,2,0.47836432117037475,S15I11,2022-10-10_15h41.45.368,t1_Paradigm,2021.1.4,59.9431757116503,
Q,left,Pretarget,0,15,15,15,824.3340535334428,826.3348930719076,None,0,2,,S15I11,2022-10-10_15h41.45.368,t1_Paradigm,2021.1.4,59.9431757116503,
M,left,Distractor,0,16,16,16,827.8341807313845,829.8356188861071,left,1,2,0.6779887264128774,S15I11,2022-10-10_15h41.45.368,t1_Paradigm,2021.1.4,59.9431757116503,
Q,right,Target,0,17,17,17,831.3340573830646,833.3365381438052,None,0,2,,S15I11,2022-10-10_15h41.45.368,t1_Paradigm,2021.1.4,59.9431757116503,
R,left,Distractor,0,18,18,18,834.8339410924236,836.8363204797497,left,1,2,0.4449524875963107,S15I11,2022-10-10_15h41.45.368,t1_Paradigm,2021.1.4,59.9431757116503,
W,left,Distractor,0,19,19,19,838.3340163204703,840.3350037485361,None,0,2,,S15I11,2022-10-10_15h41.45.368,t1_Paradigm,2021.1.4,59.9431757116503,
C,left,Pretarget,0,20,20,20,841.8341406311374,843.8361998582259,left,1,2,0.4528320226818323,S15I11,2022-10-10_15h41.45.368,t1_Paradigm,2021.1.4,59.9431757116503,
T,left,Distractor,0,21,21,21,845.333827047376,847.3344192475779,None,0,2,,S15I11,2022-10-10_15h41.45.368,t1_Paradigm,2021.1.4,59.9431757116503,
C,right,Target,0,22,22,22,848.8341059845407,850.8359210814233,right,1,2,0.3972973727504723,S15I11,2022-10-10_15h41.45.368,t1_Paradigm,2021.1.4,59.9431757116503,
F,left,Pretarget,0,23,23,23,852.3341266762582,854.3354268861585,None,0,2,,S15I11,2022-10-10_15h41.45.368,t1_Paradigm,2021.1.4,59.9431757116503,
C,right,Target,0,24,24,24,855.8339840798872,857.8342015835224,right,1,2,0.4709659888758324,S15I11,2022-10-10_15h41.45.368,t1_Paradigm,2021.1.4,59.9431757116503,
F,right,Target,0,25,25,25,859.3341173730441,861.3361952066189,None,0,2,,S15I11,2022-10-10_15h41.45.368,t1_Paradigm,2021.1.4,59.9431757116503,
H,left,Distractor,0,26,26,26,862.8342278892524,864.8363358782372,left,1,2,0.5408055142033845,S15I11,2022-10-10_15h41.45.368,t1_Paradigm,2021.1.4,59.9431757116503,
H,left,Lure,0,27,27,27,866.3340326813632,868.3341658140998,None,0,2,,S15I11,2022-10-10_15h41.45.368,t1_Paradigm,2021.1.4,59.9431757116503,
P,left,Distractor,0,28,28,28,869.8341242702445,871.8360997680575,left,1,2,0.48500684433383867,S15I11,2022-10-10_15h41.45.368,t1_Paradigm,2021.1.4,59.9431757116503,
G,left,Pretarget,0,29,29,29,873.3339839194668,875.3345090720686,None,0,2,,S15I11,2022-10-10_15h41.45.368,t1_Paradigm,2021.1.4,59.9431757116503,
K,left,Distractor,0,30,30,30,876.8340607514838,878.8358238784713,left,1,2,0.42944556777365506,S15I11,2022-10-10_15h41.45.368,t1_Paradigm,2021.1.4,59.9431757116503,
G,right,Target,0,31,31,31,880.3341404707753,882.3340827264474,None,0,2,,S15I11,2022-10-10_15h41.45.368,t1_Paradigm,2021.1.4,59.9431757116503,
M,left,Pretarget,0,32,32,32,883.8341387063265,885.8356692519737,left,1,2,0.4534678519703448,S15I11,2022-10-10_15h41.45.368,t1_Paradigm,2021.1.4,59.9431757116503,
B,left,Distractor,0,33,33,33,887.3340227364679,889.3469087051926,None,0,2,,S15I11,2022-10-10_15h41.45.368,t1_Paradigm,2021.1.4,59.9431757116503,
M,right,Target,0,34,34,34,890.8339699645876,892.8348204102949,right,1,2,0.4942648648866452,S15I11,2022-10-10_15h41.45.368,t1_Paradigm,2021.1.4,59.9431757116503,
M,left,Lure,0,35,35,35,894.3341658140998,896.3338052328327,None,0,2,,S15I11,2022-10-10_15h41.45.368,t1_Paradigm,2021.1.4,59.9431757116503,
T,left,Distractor,0,36,36,36,897.8339112578542,899.8353574326029,left,1,2,0.4536914508789778,S15I11,2022-10-10_15h41.45.368,t1_Paradigm,2021.1.4,59.9431757116503,
F,left,Distractor,0,37,37,37,901.3339980347664,903.3349485706422,None,0,2,,S15I11,2022-10-10_15h41.45.368,t1_Paradigm,2021.1.4,59.9431757116503,
X,left,Distractor,0,38,38,38,904.8339491124498,906.8354649012326,left,1,2,0.47776057210285217,S15I11,2022-10-10_15h41.45.368,t1_Paradigm,2021.1.4,59.9431757116503,
C,left,Distractor,0,39,39,39,908.3341077489895,910.3343887713854,None,0,2,,S15I11,2022-10-10_15h41.45.368,t1_Paradigm,2021.1.4,59.9431757116503,
R,left,Distractor,0,40,40,40,911.833700490999,913.8360327204573,left,1,2,0.805117046169471,S15I11,2022-10-10_15h41.45.368,t1_Paradigm,2021.1.4,59.9431757116503,
B,left,Pretarget,0,41,41,41,915.3338341049966,917.3357178534498,None,0,2,,S15I11,2022-10-10_15h41.45.368,t1_Paradigm,2021.1.4,59.9431757116503,
H,left,Distractor,0,42,42,42,918.8338923305273,920.8470189006766,left,1,2,0.5141953214770183,S15I11,2022-10-10_15h41.45.368,t1_Paradigm,2021.1.4,59.9431757116503,
B,right,Target,0,43,43,43,922.3331572131137,924.3356860940694,None,0,2,,S15I11,2022-10-10_15h41.45.368,t1_Paradigm,2021.1.4,59.9431757116503,
W,left,Pretarget,0,44,44,44,925.8340937941102,927.8352162797819,left,1,2,0.40588587988168,S15I11,2022-10-10_15h41.45.368,t1_Paradigm,2021.1.4,59.9431757116503,
L,left,Pretarget,0,45,45,45,929.3341090321774,931.333909814246,None,0,2,,S15I11,2022-10-10_15h41.45.368,t1_Paradigm,2021.1.4,59.9431757116503,
W,right,Target,0,46,46,46,932.8338685911731,934.8356987657608,right,1,2,0.41356555541278794,S15I11,2022-10-10_15h41.45.368,t1_Paradigm,2021.1.4,59.9431757116503,
L,right,Target,0,47,47,47,936.3342270872672,938.3356844900991,None,0,2,,S15I11,2022-10-10_15h41.45.368,t1_Paradigm,2021.1.4,59.9431757116503,
W,right,Target,0,48,48,48,939.8340809619986,941.8356676479452,right,1,2,0.38951087021268904,S15I11,2022-10-10_15h41.45.368,t1_Paradigm,2021.1.4,59.9431757116503,
X,left,Distractor,0,49,49,49,943.3331209624885,945.3354788561119,None,0,2,,S15I11,2022-10-10_15h41.45.368,t1_Paradigm,2021.1.4,59.9431757116503,
R,left,Distractor,0,50,50,50,946.8342349469312,948.8356102244579,left,1,2,0.39815936726517975,S15I11,2022-10-10_15h41.45.368,t1_Paradigm,2021.1.4,59.9431757116503,
V,left,Pretarget,0,51,51,51,950.334116089798,952.3345065056928,None,0,2,,S15I11,2022-10-10_15h41.45.368,t1_Paradigm,2021.1.4,59.9431757116503,
Z,left,Distractor,0,52,52,52,953.8341268366785,955.8346067562816,left,1,2,0.4384607414249331,S15I11,2022-10-10_15h41.45.368,t1_Paradigm,2021.1.4,59.9431757116503,
V,right,Target,0,53,53,53,957.3338530323235,959.3357428759919,None,0,2,,S15I11,2022-10-10_15h41.45.368,t1_Paradigm,2021.1.4,59.9431757116503,
V,left,Lure,0,54,54,54,960.8341643704916,962.8340126312105,left,1,2,0.4311647448921576,S15I11,2022-10-10_15h41.45.368,t1_Paradigm,2021.1.4,59.9431757116503,
N,left,Distractor,0,55,55,55,964.3339893731172,966.334755447926,None,0,2,,S15I11,2022-10-10_15h41.45.368,t1_Paradigm,2021.1.4,59.9431757116503,
B,left,Distractor,0,56,56,56,967.8339369219611,969.8468623493682,left,1,2,0.44220514059998095,S15I11,2022-10-10_15h41.45.368,t1_Paradigm,2021.1.4,59.9431757116503,
V,left,Lure,0,57,57,57,971.3340846512583,973.3342803403502,None,0,2,,S15I11,2022-10-10_15h41.45.368,t1_Paradigm,2021.1.4,59.9431757116503,
J,left,Distractor,0,58,58,58,974.8343526811805,976.8343359995051,left,1,2,0.44683559448458254,S15I11,2022-10-10_15h41.45.368,t1_Paradigm,2021.1.4,59.9431757116503,
H,left,Distractor,0,59,59,59,978.3340432678233,980.3361352166976,None,0,2,,S15I11,2022-10-10_15h41.45.368,t1_Paradigm,2021.1.4,59.9431757116503,
X,left,Pretarget,0,60,60,60,981.8341637289268,983.8341778441682,left,1,2,0.43887393415207043,S15I11,2022-10-10_15h41.45.368,t1_Paradigm,2021.1.4,59.9431757116503,
P,left,Distractor,0,61,61,61,985.3340525710373,987.3354817433283,None,0,2,,S15I11,2022-10-10_15h41.45.368,t1_Paradigm,2021.1.4,59.9431757116503,
X,right,Target,0,62,62,62,988.8340495234588,990.8360959184356,right,1,2,0.5570165941026062,S15I11,2022-10-10_15h41.45.368,t1_Paradigm,2021.1.4,59.9431757116503,
Q,left,Distractor,0,63,63,63,992.3340166412527,994.334864520526,None,0,2,,S15I11,2022-10-10_15h41.45.368,t1_Paradigm,2021.1.4,59.9431757116503,
B,left,Pretarget,0,0,0,0,1008.4734165942064,1010.4686626315815,None,0,2,,S15I11,2022-10-10_15h41.45.368,t1_Paradigm,2021.1.4,59.9431757116503,
F,left,Distractor,0,1,1,1,1011.9670969581348,1013.9688751628273,None,0,2,,S15I11,2022-10-10_15h41.45.368,t1_Paradigm,2021.1.4,59.9431757116503,
B,right,Target,0,2,2,2,1015.4670685671736,1017.4685846767388,right,1,2,0.43641883763484657,S15I11,2022-10-10_15h41.45.368,t1_Paradigm,2021.1.4,59.9431757116503,
V,left,Distractor,0,3,3,3,1018.9674414993497,1020.9696348215803,None,0,2,,S15I11,2022-10-10_15h41.45.368,t1_Paradigm,2021.1.4,59.9431757116503,
G,left,Pretarget,0,4,4,4,1022.4675722261309,1024.4673646673327,None,0,2,,S15I11,2022-10-10_15h41.45.368,t1_Paradigm,2021.1.4,59.9431757116503,
B,left,Lure,0,5,5,5,1025.967322802695,1027.969560395577,left,1,2,0.8796819826820865,S15I11,2022-10-10_15h41.45.368,t1_Paradigm,2021.1.4,59.9431757116503,
G,right,Target,0,6,6,6,1029.4674467925797,1031.4685529173585,None,0,2,,S15I11,2022-10-10_15h41.45.368,t1_Paradigm,2021.1.4,59.9431757116503,
Y,left,Pretarget,0,7,7,7,1032.967502772517,1034.969244726526,left,1,2,0.9837212308775634,S15I11,2022-10-10_15h41.45.368,t1_Paradigm,2021.1.4,59.9431757116503,
P,left,Distractor,0,8,8,8,1036.4673967474955,1038.4697533578728,left,1,2,1.1633680216618814,S15I11,2022-10-10_15h41.45.368,t1_Paradigm,2021.1.4,59.9431757116503,
Y,right,Target,0,9,9,9,1039.9674350832938,1041.968362200656,right,1,2,1.1206737865577452,S15I11,2022-10-10_15h41.45.368,t1_Paradigm,2021.1.4,59.9431757116503,
X,left,Distractor,0,10,10,10,1043.4672944116755,1045.4685278948164,None,0,2,,S15I11,2022-10-10_15h41.45.368,t1_Paradigm,2021.1.4,59.9431757116503,
Y,right,Target,0,11,11,11,1046.9673962662928,1048.9690192028647,None,0,2,,S15I11,2022-10-10_15h41.45.368,t1_Paradigm,2021.1.4,59.9431757116503,
N,left,Distractor,0,12,12,12,1050.4673633840866,1052.4675510532106,left,1,2,0.8614633248071186,S15I11,2022-10-10_15h41.45.368,t1_Paradigm,2021.1.4,59.9431757116503,
Y,right,Target,0,13,13,13,1053.9674225720228,1055.9690410173498,right,1,2,1.0400630183285102,S15I11,2022-10-10_15h41.45.368,t1_Paradigm,2021.1.4,59.9431757116503,
Y,left,Lure,0,14,14,14,1057.4673871234409,1059.4671218203148,None,0,2,,S15I11,2022-10-10_15h41.45.368,t1_Paradigm,2021.1.4,59.9431757116503,
K,left,Distractor,0,15,15,15,1060.9673664317233,1062.967458822648,left,1,2,1.0335096780909225,S15I11,2022-10-10_15h41.45.368,t1_Paradigm,2021.1.4,59.9431757116503,
T,left,Pretarget,0,16,16,16,1064.467383273819,1066.4664446075913,left,1,2,1.0705388733185828,S15I11,2022-10-10_15h41.45.368,t1_Paradigm,2021.1.4,59.9431757116503,
J,left,Distractor,0,17,17,17,1067.96742738405,1069.9687814886565,left,1,2,0.6882774833356962,S15I11,2022-10-10_15h41.45.368,t1_Paradigm,2021.1.4,59.9431757116503,
T,right,Target,0,18,18,18,1071.4673685169546,1073.469210561132,left,0,2,0.8997327399556525,S15I11,2022-10-10_15h41.45.368,t1_Paradigm,2021.1.4,59.9431757116503,
S,left,Pretarget,0,19,19,19,1074.9674880155944,1076.9683836943586,left,1,2,1.2247114307247102,S15I11,2022-10-10_15h41.45.368,t1_Paradigm,2021.1.4,59.9431757116503,
R,left,Distractor,0,20,20,20,1078.4675115945283,1080.4684168974054,left,1,2,0.6204692753963172,S15I11,2022-10-10_15h41.45.368,t1_Paradigm,2021.1.4,59.9431757116503,
S,right,Target,0,21,21,21,1081.9670488378615,1083.9689611376962,right,1,2,0.528313169372268,S15I11,2022-10-10_15h41.45.368,t1_Paradigm,2021.1.4,59.9431757116503,
Q,left,Distractor,0,22,22,22,1085.4673999554943,1087.4673617801163,left,1,2,1.2056400814908557,S15I11,2022-10-10_15h41.45.368,t1_Paradigm,2021.1.4,59.9431757116503,
D,left,Distractor,0,23,23,23,1088.9672766071744,1090.9674652387039,left,1,2,1.001471838913858,S15I11,2022-10-10_15h41.45.368,t1_Paradigm,2021.1.4,59.9431757116503,
F,left,Distractor,0,24,24,24,1092.4672883164603,1094.4690530474763,left,1,2,0.4921652167686261,S15I11,2022-10-10_15h41.45.368,t1_Paradigm,2021.1.4,59.9431757116503,
Z,left,Distractor,0,25,25,25,1095.9672381109558,1097.967696536798,left,1,2,0.673349290038459,S15I11,2022-10-10_15h41.45.368,t1_Paradigm,2021.1.4,59.9431757116503,
P,left,Distractor,0,26,26,26,1099.4672729179729,1101.4672700307565,left,1,2,0.4537081325543113,S15I11,2022-10-10_15h41.45.368,t1_Paradigm,2021.1.4,59.9431757116503,
H,left,Distractor,0,27,27,27,1102.967189028277,1104.9698888966814,left,1,2,0.6150644057779573,S15I11,2022-10-10_15h41.45.368,t1_Paradigm,2021.1.4,59.9431757116503,
Z,left,Pretarget,0,28,28,28,1106.4673742913874,1108.467866401421,left,1,2,0.5571654461673461,S15I11,2022-10-10_15h41.45.368,t1_Paradigm,2021.1.4,59.9431757116503,
J,left,Pretarget,0,29,29,29,1109.9672945720959,1111.9680632133386,left,1,2,0.7049219665350392,S15I11,2022-10-10_15h41.45.368,t1_Paradigm,2021.1.4,59.9431757116503,
Z,right,Target,0,30,30,30,1113.4673511936562,1115.4675096697174,right,1,2,0.4374364211107604,S15I11,2022-10-10_15h41.45.368,t1_Paradigm,2021.1.4,59.9431757116503,
J,right,Target,0,31,31,31,1116.967589389009,1118.969234781689,right,1,2,0.91975077544339,S15I11,2022-10-10_15h41.45.368,t1_Paradigm,2021.1.4,59.9431757116503,
V,left,Pretarget,0,32,32,32,1120.4673588929,1122.4674092587666,left,1,2,0.4460175497806631,S15I11,2022-10-10_15h41.45.368,t1_Paradigm,2021.1.4,59.9431757116503,
Z,left,Lure,0,33,33,33,1123.9670834844583,1125.9801641799277,left,1,2,0.46901262644678354,S15I11,2022-10-10_15h41.45.368,t1_Paradigm,2021.1.4,59.9431757116503,
V,right,Target,0,34,34,34,1127.4671128378832,1129.469297819247,right,1,2,0.8196702221175656,S15I11,2022-10-10_15h41.45.368,t1_Paradigm,2021.1.4,59.9431757116503,
X,left,Distractor,0,35,35,35,1130.9671980107669,1132.9681254489115,left,1,2,0.728956762002781,S15I11,2022-10-10_15h41.45.368,t1_Paradigm,2021.1.4,59.9431757116503,
S,left,Distractor,0,36,36,36,1134.4669594945735,1136.4683613986708,left,1,2,0.7489026170806028,S15I11,2022-10-10_15h41.45.368,t1_Paradigm,2021.1.4,59.9431757116503,
Q,left,Distractor,0,37,37,37,1137.9673305019387,1139.9689816690516,left,1,2,0.6241119803744368,S15I11,2022-10-10_15h41.45.368,t1_Paradigm,2021.1.4,59.9431757116503,
P,left,Distractor,0,38,38,38,1141.4672575194854,1143.4697613779572,left,1,2,0.8352188462158665,S15I11,2022-10-10_15h41.45.368,t1_Paradigm,2021.1.4,59.9431757116503,
S,left,Lure,0,39,39,39,1144.9670866925153,1146.968845969881,left,1,2,0.7600697295274585,S15I11,2022-10-10_15h41.45.368,t1_Paradigm,2021.1.4,59.9431757116503,
K,left,Pretarget,0,40,40,40,1148.4671388228307,1150.4679180504754,left,1,2,0.5890650197979994,S15I11,2022-10-10_15h41.45.368,t1_Paradigm,2021.1.4,59.9431757116503,
L,left,Distractor,0,41,41,41,1151.967315745016,1153.9692331776605,left,1,2,0.6398392911069095,S15I11,2022-10-10_15h41.45.368,t1_Paradigm,2021.1.4,59.9431757116503,
K,right,Target,0,42,42,42,1155.467072096013,1157.4683979700785,right,1,2,0.42059592792065814,S15I11,2022-10-10_15h41.45.368,t1_Paradigm,2021.1.4,59.9431757116503,
B,left,Distractor,0,43,43,43,1158.9669901311281,1160.9664341815514,left,1,2,0.5225121094845235,S15I11,2022-10-10_15h41.45.368,t1_Paradigm,2021.1.4,59.9431757116503,
N,left,Distractor,0,44,44,44,1162.467339965573,1164.4680476544308,left,1,2,0.5729678245261312,S15I11,2022-10-10_15h41.45.368,t1_Paradigm,2021.1.4,59.9431757116503,
S,left,Pretarget,0,45,45,45,1165.9672416397952,1167.9800101950532,left,1,2,0.6450439803302288,S15I11,2022-10-10_15h41.45.368,t1_Paradigm,2021.1.4,59.9431757116503,
Z,left,Distractor,0,46,46,46,1169.4672658603522,1171.4690636339365,left,1,2,0.5317463907413185,S15I11,2022-10-10_15h41.45.368,t1_Paradigm,2021.1.4,59.9431757116503,
S,right,Target,0,47,47,47,1172.9670908629196,1174.9690560950548,right,1,2,0.44001855520764366,S15I11,2022-10-10_15h41.45.368,t1_Paradigm,2021.1.4,59.9431757116503,
C,left,Distractor,0,48,48,48,1176.467213248834,1178.468622210552,left,1,2,0.6683017936884426,S15I11,2022-10-10_15h41.45.368,t1_Paradigm,2021.1.4,59.9431757116503,
T,left,Pretarget,0,49,49,49,1179.9669166675303,1181.9692796939635,left,1,2,1.007773349643685,S15I11,2022-10-10_15h41.45.368,t1_Paradigm,2021.1.4,59.9431757116503,
S,left,Lure,0,50,50,50,1183.467246612243,1185.4674496797961,left,1,2,0.8854448671336286,S15I11,2022-10-10_15h41.45.368,t1_Paradigm,2021.1.4,59.9431757116503,
T,right,Target,0,51,51,51,1186.967286231229,1188.9679727472248,right,1,2,0.4730572961852886,S15I11,2022-10-10_15h41.45.368,t1_Paradigm,2021.1.4,59.9431757116503,
N,left,Pretarget,0,52,52,52,1190.4673062813818,1192.468694390962,left,1,2,0.5563284741365351,S15I11,2022-10-10_15h41.45.368,t1_Paradigm,2021.1.4,59.9431757116503,
B,left,Distractor,0,53,53,53,1193.9672419605777,1195.9688851076644,left,1,2,0.48022497189231217,S15I11,2022-10-10_15h41.45.368,t1_Paradigm,2021.1.4,59.9431757116503,
N,right,Target,0,54,54,54,1197.4672360257828,1199.4684492983506,right,1,2,0.4526603937265463,S15I11,2022-10-10_15h41.45.368,t1_Paradigm,2021.1.4,59.9431757116503,
N,left,Lure,0,55,55,55,1200.9674687674851,1202.9671880658716,None,0,2,,S15I11,2022-10-10_15h41.45.368,t1_Paradigm,2021.1.4,59.9431757116503,
X,left,Distractor,0,56,56,56,1204.4672488578362,1206.468844205432,left,1,2,1.4360816748812795,S15I11,2022-10-10_15h41.45.368,t1_Paradigm,2021.1.4,59.9431757116503,
W,left,Distractor,0,57,57,57,1207.9670562163228,1209.969516445708,left,1,2,0.6714790152618662,S15I11,2022-10-10_15h41.45.368,t1_Paradigm,2021.1.4,59.9431757116503,
S,left,Distractor,0,58,58,58,1211.4673341911403,1213.468395724427,left,1,2,0.4844390250509605,S15I11,2022-10-10_15h41.45.368,t1_Paradigm,2021.1.4,59.9431757116503,
L,left,Distractor,0,59,59,59,1214.9673009881517,1216.9680112434435,left,1,2,0.5368978268816136,S15I11,2022-10-10_15h41.45.368,t1_Paradigm,2021.1.4,59.9431757116503,
K,left,Pretarget,0,60,60,60,1218.467242762621,1220.4688477342715,left,1,2,0.7479729332844727,S15I11,2022-10-10_15h41.45.368,t1_Paradigm,2021.1.4,59.9431757116503,
V,left,Pretarget,0,61,61,61,1221.967276286392,1223.9675005268655,left,1,2,0.7853787498897873,S15I11,2022-10-10_15h41.45.368,t1_Paradigm,2021.1.4,59.9431757116503,
K,right,Target,0,62,62,62,1225.4672023415915,1227.4688721151906,right,1,2,0.5802657458698377,S15I11,2022-10-10_15h41.45.368,t1_Paradigm,2021.1.4,59.9431757116503,
V,right,Target,0,63,63,63,1228.9671822914388,1230.9686566967866,right,1,2,0.9522595517919399,S15I11,2022-10-10_15h41.45.368,t1_Paradigm,2021.1.4,59.9431757116503,
R,left,Distractor,0,0,0,0,1343.6482799085788,1345.6508306040778,None,0,3,,S15I11,2022-10-10_15h41.45.368,t1_Paradigm,2021.1.4,59.9431757116503,
P,left,Lure,0,1,1,1,1347.1502764188917,1349.1508413509582,None,0,3,,S15I11,2022-10-10_15h41.45.368,t1_Paradigm,2021.1.4,59.9431757116503,
V,left,Distractor,0,2,2,2,1350.6504337721854,1352.651707355515,None,0,3,,S15I11,2022-10-10_15h41.45.368,t1_Paradigm,2021.1.4,59.9431757116503,
P,left,Pretarget,0,3,3,3,1354.1505657821544,1356.1529012196115,left,1,3,1.1120926578878425,S15I11,2022-10-10_15h41.45.368,t1_Paradigm,2021.1.4,59.9431757116503,
Z,left,Distractor,0,4,4,4,1357.650499215757,1359.65205189673,left,1,3,1.052825478313025,S15I11,2022-10-10_15h41.45.368,t1_Paradigm,2021.1.4,59.9431757116503,
L,left,Pretarget,0,5,5,5,1361.1505545540713,1363.152047245123,left,1,3,0.7048584477743134,S15I11,2022-10-10_15h41.45.368,t1_Paradigm,2021.1.4,59.9431757116503,
P,right,Target,0,6,6,6,1364.6503083386924,1366.6526399265276,right,1,3,1.3964074684190564,S15I11,2022-10-10_15h41.45.368,t1_Paradigm,2021.1.4,59.9431757116503,
S,left,Distractor,0,7,7,7,1368.1504246293334,1370.1520639267983,right,0,3,1.3367816324462183,S15I11,2022-10-10_15h41.45.368,t1_Paradigm,2021.1.4,59.9431757116503,
L,right,Target,0,8,8,8,1371.6505643385462,1373.6503952759667,left,0,3,1.1828204834018834,S15I11,2022-10-10_15h41.45.368,t1_Paradigm,2021.1.4,59.9431757116503,
D,left,Distractor,0,9,9,9,1375.150536589208,1377.152016448148,left,1,3,1.4090496277203783,S15I11,2022-10-10_15h41.45.368,t1_Paradigm,2021.1.4,59.9431757116503,
G,left,Distractor,0,10,10,10,1378.6505078774062,1380.6500905142166,left,1,3,0.7748651108122431,S15I11,2022-10-10_15h41.45.368,t1_Paradigm,2021.1.4,59.9431757116503,
M,left,Pretarget,0,11,11,11,1382.1504887897172,1384.1511589447618,left,1,3,0.7138017617398873,S15I11,2022-10-10_15h41.45.368,t1_Paradigm,2021.1.4,59.9431757116503,
Y,left,Distractor,0,12,12,12,1385.650462323567,1387.652912608115,left,1,3,0.8441255887737498,S15I11,2022-10-10_15h41.45.368,t1_Paradigm,2021.1.4,59.9431757116503,
V,left,Distractor,0,13,13,13,1389.1501991056139,1391.1520344130113,left,1,3,0.6408591202343814,S15I11,2022-10-10_15h41.45.368,t1_Paradigm,2021.1.4,59.9431757116503,
M,right,Target,0,14,14,14,1392.650336248451,1394.6516653305152,right,1,3,0.452964513853658,S15I11,2022-10-10_15h41.45.368,t1_Paradigm,2021.1.4,59.9431757116503,
S,left,Pretarget,0,15,15,15,1396.1503957571695,1398.1505702733994,left,1,3,1.2743837477173656,S15I11,2022-10-10_15h41.45.368,t1_Paradigm,2021.1.4,59.9431757116503,
Q,left,Distractor,0,16,16,16,1399.650524238299,1401.651682332973,left,1,3,0.9252935898839496,S15I11,2022-10-10_15h41.45.368,t1_Paradigm,2021.1.4,59.9431757116503,
R,left,Pretarget,0,17,17,17,1403.1504554263083,1405.1507678873022,left,1,3,0.5621558397542685,S15I11,2022-10-10_15h41.45.368,t1_Paradigm,2021.1.4,59.9431757116503,
S,right,Target,0,18,18,18,1406.6501803387073,1408.6526748939068,right,1,3,0.6921402584412135,S15I11,2022-10-10_15h41.45.368,t1_Paradigm,2021.1.4,59.9431757116503,
F,left,Distractor,0,19,19,19,1410.150465691986,1412.1516401475528,left,1,3,0.8572909759823233,S15I11,2022-10-10_15h41.45.368,t1_Paradigm,2021.1.4,59.9431757116503,
R,right,Target,0,20,20,20,1413.6501068751095,1415.6517814607942,right,1,3,1.3251759838312864,S15I11,2022-10-10_15h41.45.368,t1_Paradigm,2021.1.4,59.9431757116503,
P,left,Distractor,0,21,21,21,1417.1505965791293,1419.152266031946,left,1,3,1.376485352695454,S15I11,2022-10-10_15h41.45.368,t1_Paradigm,2021.1.4,59.9431757116503,
L,left,Distractor,0,22,22,22,1420.650258935173,1422.6519704130478,left,1,3,0.7888706780504435,S15I11,2022-10-10_15h41.45.368,t1_Paradigm,2021.1.4,59.9431757116503,
R,right,Target,0,23,23,23,1424.150390303519,1426.1503755466547,left,0,3,0.93832263618242,S15I11,2022-10-10_15h41.45.368,t1_Paradigm,2021.1.4,59.9431757116503,
H,left,Pretarget,0,24,24,24,1427.6505027445965,1429.6520300821867,left,1,3,1.1651574543793686,S15I11,2022-10-10_15h41.45.368,t1_Paradigm,2021.1.4,59.9431757116503,
G,left,Pretarget,0,25,25,25,1431.1504727496067,1433.151646884391,left,1,3,0.6572328466572799,S15I11,2022-10-10_15h41.45.368,t1_Paradigm,2021.1.4,59.9431757116503,
T,left,Distractor,0,26,26,26,1434.6505088398117,1436.6504693811876,right,0,3,1.2383435845258646,S15I11,2022-10-10_15h41.45.368,t1_Paradigm,2021.1.4,59.9431757116503,
H,right,Target,0,27,27,27,1438.1505237570964,1440.1523632349563,right,1,3,1.1925536115886644,S15I11,2022-10-10_15h41.45.368,t1_Paradigm,2021.1.4,59.9431757116503,
G,right,Target,0,28,28,28,1441.6505669049802,1443.650570754602,left,0,3,0.47849328350275755,S15I11,2022-10-10_15h41.45.368,t1_Paradigm,2021.1.4,59.9431757116503,
D,left,Distractor,0,29,29,29,1445.1504304037662,1447.1523564980598,left,1,3,1.1205156312207691,S15I11,2022-10-10_15h41.45.368,t1_Paradigm,2021.1.4,59.9431757116503,
N,left,Pretarget,0,30,30,30,1448.6504539827001,1450.651152368344,left,1,3,0.4694858092116192,S15I11,2022-10-10_15h41.45.368,t1_Paradigm,2021.1.4,59.9431757116503,
V,left,Distractor,0,31,31,31,1452.1503707346274,1454.1506825540564,left,1,3,0.6020825172890909,S15I11,2022-10-10_15h41.45.368,t1_Paradigm,2021.1.4,59.9431757116503,
R,left,Distractor,0,32,32,32,1455.6503243787447,1457.6506506342557,right,0,3,0.8942309882258996,S15I11,2022-10-10_15h41.45.368,t1_Paradigm,2021.1.4,59.9431757116503,
N,right,Target,0,33,33,33,1459.1504737120122,1461.166850646492,left,0,3,0.9300395324244164,S15I11,2022-10-10_15h41.45.368,t1_Paradigm,2021.1.4,59.9431757116503,
Z,left,Distractor,0,34,34,34,1462.650263426418,1464.6522713251761,left,1,3,0.6446407323819585,S15I11,2022-10-10_15h41.45.368,t1_Paradigm,2021.1.4,59.9431757116503,
N,left,Lure,0,35,35,35,1466.1502218825626,1468.1505625741556,left,1,3,1.0022119287750684,S15I11,2022-10-10_15h41.45.368,t1_Paradigm,2021.1.4,59.9431757116503,
Y,left,Pretarget,0,36,36,36,1469.6505813410622,1471.6520146836992,left,1,3,1.1651394894579425,S15I11,2022-10-10_15h41.45.368,t1_Paradigm,2021.1.4,59.9431757116503,
Y,left,Lure,0,37,37,37,1473.1504024940077,1475.1504326494178,left,1,3,1.18630984518677,S15I11,2022-10-10_15h41.45.368,t1_Paradigm,2021.1.4,59.9431757116503,
B,left,Distractor,0,38,38,38,1476.650446604297,1478.6523877762957,left,1,3,1.0925166872912087,S15I11,2022-10-10_15h41.45.368,t1_Paradigm,2021.1.4,59.9431757116503,
Y,right,Target,0,39,39,39,1480.150452539092,1482.15208349569,right,1,3,0.5686754958005622,S15I11,2022-10-10_15h41.45.368,t1_Paradigm,2021.1.4,59.9431757116503,
J,left,Distractor,0,40,40,40,1483.6505049901898,1485.6519643178326,left,1,3,0.6049190472112969,S15I11,2022-10-10_15h41.45.368,t1_Paradigm,2021.1.4,59.9431757116503,
X,left,Distractor,0,41,41,41,1487.1504993761773,1489.151988859172,left,1,3,0.6248745264019817,S15I11,2022-10-10_15h41.45.368,t1_Paradigm,2021.1.4,59.9431757116503,
W,left,Pretarget,0,42,42,42,1490.650474834838,1492.650671807176,left,1,3,0.6142806868883781,S15I11,2022-10-10_15h41.45.368,t1_Paradigm,2021.1.4,59.9431757116503,
S,left,Pretarget,0,43,43,43,1494.1502321482403,1496.1510694410536,left,1,3,0.5217716987826861,S15I11,2022-10-10_15h41.45.368,t1_Paradigm,2021.1.4,59.9431757116503,
R,left,Distractor,0,44,44,44,1497.6504186945385,1499.651935766451,left,1,3,0.540853955259081,S15I11,2022-10-10_15h41.45.368,t1_Paradigm,2021.1.4,59.9431757116503,
W,right,Target,0,45,45,45,1501.1505330603686,1503.1517601274536,right,1,3,0.43294038315070793,S15I11,2022-10-10_15h41.45.368,t1_Paradigm,2021.1.4,59.9431757116503,
S,right,Target,0,46,46,46,1504.6505373911932,1506.6523836058332,left,0,3,0.38836817402625456,S15I11,2022-10-10_15h41.45.368,t1_Paradigm,2021.1.4,59.9431757116503,
D,left,Distractor,0,47,47,47,1508.15042238374,1510.1505401179893,left,1,3,0.6181389706907794,S15I11,2022-10-10_15h41.45.368,t1_Paradigm,2021.1.4,59.9431757116503,
T,left,Distractor,0,48,48,48,1511.6504385842127,1513.6518995158258,left,1,3,0.6528962472802959,S15I11,2022-10-10_15h41.45.368,t1_Paradigm,2021.1.4,59.9431757116503,
S,right,Target,0,49,49,49,1515.150490072905,1517.1518977514352,left,0,3,0.5449826751137152,S15I11,2022-10-10_15h41.45.368,t1_Paradigm,2021.1.4,59.9431757116503,
K,left,Distractor,0,50,50,50,1518.6504520578892,1520.6509582832223,left,1,3,0.6139637345913798,S15I11,2022-10-10_15h41.45.368,t1_Paradigm,2021.1.4,59.9431757116503,
S,left,Lure,0,51,51,51,1522.1504377822275,1524.1519471549545,left,1,3,0.536816343141254,S15I11,2022-10-10_15h41.45.368,t1_Paradigm,2021.1.4,59.9431757116503,
T,left,Pretarget,0,52,52,52,1525.650192529196,1527.651950202533,right,0,3,0.556895972636994,S15I11,2022-10-10_15h41.45.368,t1_Paradigm,2021.1.4,59.9431757116503,
V,left,Distractor,0,53,53,53,1529.1500845793635,1531.1506238472648,left,1,3,0.7381406773929484,S15I11,2022-10-10_15h41.45.368,t1_Paradigm,2021.1.4,59.9431757116503,
B,left,Distractor,0,54,54,54,1532.6503827646957,1534.6524394253502,left,1,3,0.884248597023543,S15I11,2022-10-10_15h41.45.368,t1_Paradigm,2021.1.4,59.9431757116503,
T,right,Target,0,55,55,55,1536.1501368700992,1538.1519949543872,right,1,3,0.6007511896314099,S15I11,2022-10-10_15h41.45.368,t1_Paradigm,2021.1.4,59.9431757116503,
Y,left,Pretarget,0,56,56,56,1539.650317321124,1541.651696769055,left,1,3,1.3092484928201884,S15I11,2022-10-10_15h41.45.368,t1_Paradigm,2021.1.4,59.9431757116503,
T,left,Lure,0,57,57,57,1543.150338975247,1545.1524033351452,left,1,3,0.7523547657765448,S15I11,2022-10-10_15h41.45.368,t1_Paradigm,2021.1.4,59.9431757116503,
P,left,Pretarget,0,58,58,58,1546.649824890308,1548.6511212505866,left,1,3,1.0616812133812346,S15I11,2022-10-10_15h41.45.368,t1_Paradigm,2021.1.4,59.9431757116503,
Y,right,Target,0,59,59,59,1550.1504502934986,1552.1518130597542,right,1,3,1.2889449436333962,S15I11,2022-10-10_15h41.45.368,t1_Paradigm,2021.1.4,59.9431757116503,
R,left,Distractor,0,60,60,60,1553.650555676897,1555.6522543227184,left,1,3,0.8127001603133976,S15I11,2022-10-10_15h41.45.368,t1_Paradigm,2021.1.4,59.9431757116503,
P,right,Target,0,61,61,61,1557.1499132711906,1559.150652077864,left,0,3,0.8661624303204007,S15I11,2022-10-10_15h41.45.368,t1_Paradigm,2021.1.4,59.9431757116503,
L,left,Distractor,0,62,62,62,1560.6501402385184,1562.6510282180388,right,0,3,0.5655476777465083,S15I11,2022-10-10_15h41.45.368,t1_Paradigm,2021.1.4,59.9431757116503,
V,left,Distractor,0,63,63,63,1564.1504958473379,1566.152424828906,left,1,3,0.40835477091604844,S15I11,2022-10-10_15h41.45.368,t1_Paradigm,2021.1.4,59.9431757116503,
H,left,Lure,0,0,0,0,1576.423826402519,1578.4172942352598,None,0,3,,S15I11,2022-10-10_15h41.45.368,t1_Paradigm,2021.1.4,59.9431757116503,
B,left,Distractor,0,1,1,1,1579.916802606429,1581.919453071314,None,0,3,,S15I11,2022-10-10_15h41.45.368,t1_Paradigm,2021.1.4,59.9431757116503,
T,left,Distractor,0,2,2,2,1583.4171097741928,1585.4176018842263,left,1,3,0.9031200867029838,S15I11,2022-10-10_15h41.45.368,t1_Paradigm,2021.1.4,59.9431757116503,
R,left,Distractor,0,3,3,3,1586.917198475916,1588.9192015626468,left,1,3,0.7776775807142258,S15I11,2022-10-10_15h41.45.368,t1_Paradigm,2021.1.4,59.9431757116503,
H,left,Pretarget,0,4,4,4,1590.4168614735827,1592.4177764004562,right,0,3,0.6549153741216287,S15I11,2022-10-10_15h41.45.368,t1_Paradigm,2021.1.4,59.9431757116503,
K,left,Distractor,0,5,5,5,1593.9166630576365,1595.9162399199558,left,1,3,0.4844755964586511,S15I11,2022-10-10_15h41.45.368,t1_Paradigm,2021.1.4,59.9431757116503,
G,left,Distractor,0,6,6,6,1597.4170302153216,1599.417516871763,left,1,3,0.5993377366685309,S15I11,2022-10-10_15h41.45.368,t1_Paradigm,2021.1.4,59.9431757116503,
H,right,Target,0,7,7,7,1600.917009523604,1602.9174695534748,left,0,3,1.1155104807694443,S15I11,2022-10-10_15h41.45.368,t1_Paradigm,2021.1.4,59.9431757116503,
Y,left,Pretarget,0,8,8,8,1604.417091488489,1606.4176897839643,left,1,3,0.5911149436724372,S15I11,2022-10-10_15h41.45.368,t1_Paradigm,2021.1.4,59.9431757116503,
S,left,Distractor,0,9,9,9,1607.9168022856466,1609.918845793407,left,1,3,0.4178623753832653,S15I11,2022-10-10_15h41.45.368,t1_Paradigm,2021.1.4,59.9431757116503,
P,left,Distractor,0,10,10,10,1611.4169984559412,1613.4187561292783,left,1,3,0.7258234902983531,S15I11,2022-10-10_15h41.45.368,t1_Paradigm,2021.1.4,59.9431757116503,
Y,right,Target,0,11,11,11,1614.9168799196486,1616.9192022042698,left,0,3,1.2576564975897782,S15I11,2022-10-10_15h41.45.368,t1_Paradigm,2021.1.4,59.9431757116503,
H,left,Lure,0,12,12,12,1618.417075769219,1620.4188514074194,right,0,3,0.8940022565075196,S15I11,2022-10-10_15h41.45.368,t1_Paradigm,2021.1.4,59.9431757116503,
Q,left,Distractor,0,13,13,13,1621.9171115385834,1623.9182715581264,left,1,3,0.5785978970234282,S15I11,2022-10-10_15h41.45.368,t1_Paradigm,2021.1.4,59.9431757116503,
V,left,Pretarget,0,14,14,14,1625.4167767819017,1627.4185803298606,left,1,3,0.4541351197985932,S15I11,2022-10-10_15h41.45.368,t1_Paradigm,2021.1.4,59.9431757116503,
G,left,Distractor,0,15,15,15,1628.9167012330145,1630.9181464453577,left,1,3,0.5226924000889994,S15I11,2022-10-10_15h41.45.368,t1_Paradigm,2021.1.4,59.9431757116503,
Z,left,Pretarget,0,16,16,16,1632.4171668768977,1634.4189566304558,left,1,3,0.5898445683415048,S15I11,2022-10-10_15h41.45.368,t1_Paradigm,2021.1.4,59.9431757116503,
V,right,Target,0,17,17,17,1635.9170018243603,1637.9188345653238,left,0,3,0.993987531750463,S15I11,2022-10-10_15h41.45.368,t1_Paradigm,2021.1.4,59.9431757116503,
N,left,Distractor,0,18,18,18,1639.416767157847,1641.418500450207,right,0,3,1.014442499319557,S15I11,2022-10-10_15h41.45.368,t1_Paradigm,2021.1.4,59.9431757116503,
Z,right,Target,0,19,19,19,1642.9170550775016,1644.918693412561,left,0,3,0.7781786731793545,S15I11,2022-10-10_15h41.45.368,t1_Paradigm,2021.1.4,59.9431757116503,
R,left,Distractor,0,20,20,20,1646.4171710473602,1648.4184982046136,left,1,3,0.6541791338240728,S15I11,2022-10-10_15h41.45.368,t1_Paradigm,2021.1.4,59.9431757116503,
P,left,Distractor,0,21,21,21,1649.9168937141658,1651.917742876627,left,1,3,0.7389930479112081,S15I11,2022-10-10_15h41.45.368,t1_Paradigm,2021.1.4,59.9431757116503,
Z,right,Target,0,22,22,22,1653.4170510674594,1655.4174863955704,left,0,3,0.935168833239004,S15I11,2022-10-10_15h41.45.368,t1_Paradigm,2021.1.4,59.9431757116503,
D,left,Pretarget,0,23,23,23,1656.91676924302,1658.918448640732,left,1,3,0.9543389893951826,S15I11,2022-10-10_15h41.45.368,t1_Paradigm,2021.1.4,59.9431757116503,
K,left,Distractor,0,24,24,24,1660.4170635787304,1662.4190227156505,left,1,3,0.7496488022152334,S15I11,2022-10-10_15h41.45.368,t1_Paradigm,2021.1.4,59.9431757116503,
W,left,Distractor,0,25,25,25,1663.9170470574172,1665.9191476679407,right,0,3,0.5617054339963943,S15I11,2022-10-10_15h41.45.368,t1_Paradigm,2021.1.4,59.9431757116503,
D,right,Target,0,26,26,26,1667.4171633481164,1669.4192321992596,left,0,3,0.4854370395769365,S15I11,2022-10-10_15h41.45.368,t1_Paradigm,2021.1.4,59.9431757116503,
G,left,Pretarget,0,27,27,27,1670.917040962202,1672.917059889529,left,1,3,0.6998504101065919,S15I11,2022-10-10_15h41.45.368,t1_Paradigm,2021.1.4,59.9431757116503,
V,left,Distractor,0,28,28,28,1674.4167507969541,1676.4165923208348,right,0,3,0.7359248989960179,S15I11,2022-10-10_15h41.45.368,t1_Paradigm,2021.1.4,59.9431757116503,
D,right,Target,0,29,29,29,1677.9168674083776,1679.9172292728908,right,1,3,1.1075812213821337,S15I11,2022-10-10_15h41.45.368,t1_Paradigm,2021.1.4,59.9431757116503,
G,right,Target,0,30,30,30,1681.4170408017817,1683.419118956197,left,0,3,0.30954138486413285,S15I11,2022-10-10_15h41.45.368,t1_Paradigm,2021.1.4,59.9431757116503,
B,left,Pretarget,0,31,31,31,1684.9168523307308,1686.9189099537907,left,1,3,0.9059232532745227,S15I11,2022-10-10_15h41.45.368,t1_Paradigm,2021.1.4,59.9431757116503,
N,left,Distractor,0,32,32,32,1688.4169747166452,1690.418396831199,left,1,3,0.8786008804454468,S15I11,2022-10-10_15h41.45.368,t1_Paradigm,2021.1.4,59.9431757116503,
F,left,Distractor,0,33,33,33,1691.916880882054,1693.9175914581865,left,1,3,0.7551723684300669,S15I11,2022-10-10_15h41.45.368,t1_Paradigm,2021.1.4,59.9431757116503,
B,right,Target,0,34,34,34,1695.416933333152,1697.4185206607217,left,0,3,0.822219313646201,S15I11,2022-10-10_15h41.45.368,t1_Paradigm,2021.1.4,59.9431757116503,
Q,left,Pretarget,0,35,35,35,1698.9167150275316,1700.9177306861966,left,1,3,0.6189140279893763,S15I11,2022-10-10_15h41.45.368,t1_Paradigm,2021.1.4,59.9431757116503,
S,left,Pretarget,0,36,36,36,1702.41694905248,1704.4184988462366,left,1,3,0.6222609536489472,S15I11,2022-10-10_15h41.45.368,t1_Paradigm,2021.1.4,59.9431757116503,
W,left,Distractor,0,37,37,37,1705.9167564109666,1707.917522164993,left,1,3,0.9153118402464315,S15I11,2022-10-10_15h41.45.368,t1_Paradigm,2021.1.4,59.9431757116503,
Q,right,Target,0,38,38,38,1709.4166478195111,1711.4190721191117,right,1,3,0.9015674057882279,S15I11,2022-10-10_15h41.45.368,t1_Paradigm,2021.1.4,59.9431757116503,
S,right,Target,0,39,39,39,1712.916968140169,1714.9188923096517,left,0,3,0.7619454578962177,S15I11,2022-10-10_15h41.45.368,t1_Paradigm,2021.1.4,59.9431757116503,
T,left,Distractor,0,40,40,40,1716.4169131226372,1718.4186066356488,left,1,3,0.8462335777585395,S15I11,2022-10-10_15h41.45.368,t1_Paradigm,2021.1.4,59.9431757116503,
G,left,Distractor,0,41,41,41,1719.9161744763842,1721.9184688512469,right,0,3,0.8821210391470231,S15I11,2022-10-10_15h41.45.368,t1_Paradigm,2021.1.4,59.9431757116503,
D,left,Distractor,0,42,42,42,1723.416694335814,1725.4173484507482,left,1,3,0.5352482637390494,S15I11,2022-10-10_15h41.45.368,t1_Paradigm,2021.1.4,59.9431757116503,
S,left,Lure,0,43,43,43,1726.9169164910563,1728.9181769215502,left,1,3,0.6344552736845799,S15I11,2022-10-10_15h41.45.368,t1_Paradigm,2021.1.4,59.9431757116503,
Z,left,Pretarget,0,44,44,44,1730.4162134538055,1732.4186399989994,right,0,3,1.4381386563763954,S15I11,2022-10-10_15h41.45.368,t1_Paradigm,2021.1.4,59.9431757116503,
J,left,Distractor,0,45,45,45,1733.9168699748116,1735.9176305960282,left,1,3,0.41900924197398126,S15I11,2022-10-10_15h41.45.368,t1_Paradigm,2021.1.4,59.9431757116503,
M,left,Pretarget,0,46,46,46,1737.4170950173284,1739.417863016948,left,1,3,0.6635597007116303,S15I11,2022-10-10_15h41.45.368,t1_Paradigm,2021.1.4,59.9431757116503,
Z,right,Target,0,47,47,47,1740.9169553081156,1742.918338926509,left,0,3,0.8263146700337529,S15I11,2022-10-10_15h41.45.368,t1_Paradigm,2021.1.4,59.9431757116503,
P,left,Distractor,0,48,48,48,1744.4169721502112,1746.4179701647372,left,1,3,1.2468573448713869,S15I11,2022-10-10_15h41.45.368,t1_Paradigm,2021.1.4,59.9431757116503,
M,right,Target,0,49,49,49,1747.9169290023274,1749.918507026683,right,1,3,0.7541923188255168,S15I11,2022-10-10_15h41.45.368,t1_Paradigm,2021.1.4,59.9431757116503,
K,left,Distractor,0,50,50,50,1751.417142816761,1753.4172611926915,left,1,3,0.3273792509571649,S15I11,2022-10-10_15h41.45.368,t1_Paradigm,2021.1.4,59.9431757116503,
Y,left,Distractor,0,51,51,51,1754.9169196991134,1756.917488801584,left,1,3,0.8434512632666156,S15I11,2022-10-10_15h41.45.368,t1_Paradigm,2021.1.4,59.9431757116503,
X,left,Distractor,0,52,52,52,1758.41689259134,1760.4194541941397,left,1,3,0.6372741595259868,S15I11,2022-10-10_15h41.45.368,t1_Paradigm,2021.1.4,59.9431757116503,
F,left,Pretarget,0,53,53,53,1761.9171298242873,1763.9187261343468,right,0,3,0.8338227165513672,S15I11,2022-10-10_15h41.45.368,t1_Paradigm,2021.1.4,59.9431757116503,
M,left,Lure,0,54,54,54,1765.4165515789646,1767.4193149661296,left,1,3,1.1574659091420472,S15I11,2022-10-10_15h41.45.368,t1_Paradigm,2021.1.4,59.9431757116503,
V,left,Distractor,0,55,55,55,1768.9160702158115,1770.917297603679,left,1,3,0.6673214232432656,S15I11,2022-10-10_15h41.45.368,t1_Paradigm,2021.1.4,59.9431757116503,
F,right,Target,0,56,56,56,1772.4170578042977,1774.4187991167419,left,0,3,0.7017177976667881,S15I11,2022-10-10_15h41.45.368,t1_Paradigm,2021.1.4,59.9431757116503,
S,left,Distractor,0,57,57,57,1775.9167005914496,1777.9170316589298,right,0,3,0.9477878948091529,S15I11,2022-10-10_15h41.45.368,t1_Paradigm,2021.1.4,59.9431757116503,
D,left,Distractor,0,58,58,58,1779.4169038194232,1781.418681703275,left,1,3,0.5659329607151449,S15I11,2022-10-10_15h41.45.368,t1_Paradigm,2021.1.4,59.9431757116503,
F,right,Target,0,59,59,59,1782.9168080600793,1784.9182073977427,left,0,3,0.8745719300350174,S15I11,2022-10-10_15h41.45.368,t1_Paradigm,2021.1.4,59.9431757116503,
V,left,Pretarget,0,60,60,60,1786.417035027349,1788.4188414625823,left,1,3,0.6856003918801434,S15I11,2022-10-10_15h41.45.368,t1_Paradigm,2021.1.4,59.9431757116503,
J,left,Distractor,0,61,61,61,1789.917057323095,1791.9183690818609,left,1,3,1.1224157405667938,S15I11,2022-10-10_15h41.45.368,t1_Paradigm,2021.1.4,59.9431757116503,
V,left,Lure,0,62,62,62,1793.41692948353,1795.418265302491,right,0,3,0.45441261341329664,S15I11,2022-10-10_15h41.45.368,t1_Paradigm,2021.1.4,59.9431757116503,
V,right,Target,0,63,63,63,1796.9169604409253,1798.9170229972806,right,1,3,0.7797724167467095,S15I11,2022-10-10_15h41.45.368,t1_Paradigm,2021.1.4,59.9431757116503,
R,left,Distractor,0,0,0,0,1900.3898714514798,1902.3856650976231,None,0,4,,S15I11,2022-10-10_15h41.45.368,t1_Paradigm,2021.1.4,59.9431757116503,
F,left,Distractor,0,1,1,1,1903.8835566274356,1905.8848459300934,None,0,4,,S15I11,2022-10-10_15h41.45.368,t1_Paradigm,2021.1.4,59.9431757116503,
P,left,Pretarget,0,2,2,2,1907.3834429031704,1909.3851678547217,None,0,4,,S15I11,2022-10-10_15h41.45.368,t1_Paradigm,2021.1.4,59.9431757116503,
H,left,Distractor,0,3,3,3,1910.8834385723458,1912.8841218802845,left,1,4,0.5885000877315179,S15I11,2022-10-10_15h41.45.368,t1_Paradigm,2021.1.4,59.9431757116503,
Z,left,Distractor,0,4,4,4,1914.3835442765849,1916.3840078352368,left,1,4,0.8968018942978233,S15I11,2022-10-10_15h41.45.368,t1_Paradigm,2021.1.4,59.9431757116503,
T,left,Distractor,0,5,5,5,1917.8834831638378,1919.8834395347512,left,1,4,0.8211449482478201,S15I11,2022-10-10_15h41.45.368,t1_Paradigm,2021.1.4,59.9431757116503,
P,right,Target,0,6,6,6,1921.3832446476445,1923.3853590526269,right,1,4,1.3992010109359398,S15I11,2022-10-10_15h41.45.368,t1_Paradigm,2021.1.4,59.9431757116503,
G,left,Distractor,0,7,7,7,1924.883544436947,1926.88425148424,left,1,4,0.5724224613513798,S15I11,2022-10-10_15h41.45.368,t1_Paradigm,2021.1.4,59.9431757116503,
L,left,Distractor,0,8,8,8,1928.3836353842635,1930.3855095087201,left,1,4,0.5911932192975655,S15I11,2022-10-10_15h41.45.368,t1_Paradigm,2021.1.4,59.9431757116503,
P,left,Lure,0,9,9,9,1931.8835052991635,1933.8846062910743,right,0,4,0.9641414107754827,S15I11,2022-10-10_15h41.45.368,t1_Paradigm,2021.1.4,59.9431757116503,
Q,left,Pretarget,0,10,10,10,1935.3832754446194,1937.3838272237917,left,1,4,0.6168461392517202,S15I11,2022-10-10_15h41.45.368,t1_Paradigm,2021.1.4,59.9431757116503,
D,left,Distractor,0,11,11,11,1938.8832438456593,1940.8847320454079,left,1,4,0.5239483393379487,S15I11,2022-10-10_15h41.45.368,t1_Paradigm,2021.1.4,59.9431757116503,
M,left,Pretarget,0,12,12,12,1942.383438091143,1944.3845663512475,left,1,4,0.7198825608938932,S15I11,2022-10-10_15h41.45.368,t1_Paradigm,2021.1.4,59.9431757116503,
C,left,Distractor,0,13,13,13,1945.8835142815951,1947.8847875441425,left,1,4,0.7878476409241557,S15I11,2022-10-10_15h41.45.368,t1_Paradigm,2021.1.4,59.9431757116503,
Q,right,Target,0,14,14,14,1949.3832597253495,1951.384200957953,left,0,4,0.5203168623847887,S15I11,2022-10-10_15h41.45.368,t1_Paradigm,2021.1.4,59.9431757116503,
R,left,Distractor,0,15,15,15,1952.8834651989164,1954.8846537697827,left,1,4,0.7159350941074081,S15I11,2022-10-10_15h41.45.368,t1_Paradigm,2021.1.4,59.9431757116503,
M,right,Target,0,16,16,16,1956.3834233342786,1958.3843895894242,right,1,4,0.720048094575759,S15I11,2022-10-10_15h41.45.368,t1_Paradigm,2021.1.4,59.9431757116503,
S,left,Distractor,0,17,17,17,1959.8835001662956,1961.8961997491424,left,1,4,0.536582799453754,S15I11,2022-10-10_15h41.45.368,t1_Paradigm,2021.1.4,59.9431757116503,
Z,left,Distractor,0,18,18,18,1963.3833607779234,1965.3833720059483,left,1,4,0.489184325968381,S15I11,2022-10-10_15h41.45.368,t1_Paradigm,2021.1.4,59.9431757116503,
L,left,Pretarget,0,19,19,19,1966.883233900764,1968.8844317749026,left,1,4,0.6361272929352708,S15I11,2022-10-10_15h41.45.368,t1_Paradigm,2021.1.4,59.9431757116503,
M,right,Target,0,20,20,20,1970.383457660093,1972.3856317342143,right,1,4,0.9112729449407198,S15I11,2022-10-10_15h41.45.368,t1_Paradigm,2021.1.4,59.9431757116503,
P,left,Distractor,0,21,21,21,1973.8834122666158,1975.8855879447656,left,1,4,0.46693126403260976,S15I11,2022-10-10_15h41.45.368,t1_Paradigm,2021.1.4,59.9431757116503,
F,left,Distractor,0,22,22,22,1977.3835189332021,1979.3841971083311,left,1,4,0.5682703230413608,S15I11,2022-10-10_15h41.45.368,t1_Paradigm,2021.1.4,59.9431757116503,
L,right,Target,0,23,23,23,1980.8832284471137,1982.8844125267933,left,0,4,0.5561963037471287,S15I11,2022-10-10_15h41.45.368,t1_Paradigm,2021.1.4,59.9431757116503,
L,left,Lure,0,24,24,24,1984.3830149535206,1986.383212888264,left,1,4,1.2173724467284046,S15I11,2022-10-10_15h41.45.368,t1_Paradigm,2021.1.4,59.9431757116503,
V,left,Pretarget,0,25,25,25,1987.8831280361628,1989.8855956440093,left,1,4,0.7710770826088265,S15I11,2022-10-10_15h41.45.368,t1_Paradigm,2021.1.4,59.9431757116503,
Z,left,Distractor,0,26,26,26,1991.3833620611113,1993.385160797101,right,0,4,0.9353985273046419,S15I11,2022-10-10_15h41.45.368,t1_Paradigm,2021.1.4,59.9431757116503,
H,left,Distractor,0,27,27,27,1994.8834777101874,1996.885489779408,left,1,4,0.9391801395686343,S15I11,2022-10-10_15h41.45.368,t1_Paradigm,2021.1.4,59.9431757116503,
X,left,Distractor,0,28,28,28,1998.383224116289,2000.3830733394716,left,1,4,0.8976561896270141,S15I11,2022-10-10_15h41.45.368,t1_Paradigm,2021.1.4,59.9431757116503,
V,right,Target,0,29,29,29,2001.883386923233,2003.8841051986092,right,1,4,1.0285731792682782,S15I11,2022-10-10_15h41.45.368,t1_Paradigm,2021.1.4,59.9431757116503,
C,left,Distractor,0,30,30,30,2005.3832603669143,2007.3842590230634,left,1,4,1.1124465023167431,S15I11,2022-10-10_15h41.45.368,t1_Paradigm,2021.1.4,59.9431757116503,
S,left,Pretarget,0,31,31,31,2008.8833628630964,2010.884714401327,left,1,4,0.6362350823474117,S15I11,2022-10-10_15h41.45.368,t1_Paradigm,2021.1.4,59.9431757116503,
D,left,Distractor,0,32,32,32,2012.3834807578241,2014.3856471327017,left,1,4,0.7347629547002725,S15I11,2022-10-10_15h41.45.368,t1_Paradigm,2021.1.4,59.9431757116503,
V,left,Distractor,0,33,33,33,2015.8834029633435,2017.8838107024785,right,0,4,0.9166826265281998,S15I11,2022-10-10_15h41.45.368,t1_Paradigm,2021.1.4,59.9431757116503,
R,left,Distractor,0,34,34,34,2019.3831824120716,2021.3845531984116,left,1,4,0.6641512593487278,S15I11,2022-10-10_15h41.45.368,t1_Paradigm,2021.1.4,59.9431757116503,
S,right,Target,0,35,35,35,2022.8831764772185,2024.8857647065888,left,0,4,1.1629602824687026,S15I11,2022-10-10_15h41.45.368,t1_Paradigm,2021.1.4,59.9431757116503,
Y,left,Distractor,0,36,36,36,2026.3833925373037,2028.3857401652494,left,1,4,0.7666182576795109,S15I11,2022-10-10_15h41.45.368,t1_Paradigm,2021.1.4,59.9431757116503,
N,left,Pretarget,0,37,37,37,2029.883252828091,2031.8854657192715,left,1,4,0.4990271683782339,S15I11,2022-10-10_15h41.45.368,t1_Paradigm,2021.1.4,59.9431757116503,
Z,left,Pretarget,0,38,38,38,2033.3833963869256,2035.384145138436,left,1,4,0.5682815510663204,S15I11,2022-10-10_15h41.45.368,t1_Paradigm,2021.1.4,59.9431757116503,
P,left,Pretarget,0,39,39,39,2036.8833676751237,2038.8850608672947,left,1,4,0.7154683273984119,S15I11,2022-10-10_15h41.45.368,t1_Paradigm,2021.1.4,59.9431757116503,
M,left,Distractor,0,40,40,40,2040.3833129784325,2042.3854289874434,left,1,4,0.8792537122499198,S15I11,2022-10-10_15h41.45.368,t1_Paradigm,2021.1.4,59.9431757116503,
N,right,Target,0,41,41,41,2043.8833997553447,2045.8856829021242,right,1,4,0.6909629156580195,S15I11,2022-10-10_15h41.45.368,t1_Paradigm,2021.1.4,59.9431757116503,
Z,right,Target,0,42,42,42,2047.3833357553813,2049.3852669824846,left,0,4,0.7437030606670305,S15I11,2022-10-10_15h41.45.368,t1_Paradigm,2021.1.4,59.9431757116503,
P,right,Target,0,43,43,43,2050.8835277552716,2052.885681618878,left,0,4,0.379011667217128,S15I11,2022-10-10_15h41.45.368,t1_Paradigm,2021.1.4,59.9431757116503,
X,left,Pretarget,0,44,44,44,2054.3834599056863,2056.383919935557,left,1,4,0.5767844041693024,S15I11,2022-10-10_15h41.45.368,t1_Paradigm,2021.1.4,59.9431757116503,
Z,left,Lure,0,45,45,45,2057.8834626324824,2059.884260787512,left,1,4,0.4042712841765024,S15I11,2022-10-10_15h41.45.368,t1_Paradigm,2021.1.4,59.9431757116503,
R,left,Pretarget,0,46,46,46,2061.3833360761637,2063.3845143813523,left,1,4,0.9359676297754049,S15I11,2022-10-10_15h41.45.368,t1_Paradigm,2021.1.4,59.9431757116503,
K,left,Distractor,0,47,47,47,2064.883107184025,2066.884569398884,left,1,4,0.8121349074644968,S15I11,2022-10-10_15h41.45.368,t1_Paradigm,2021.1.4,59.9431757116503,
X,right,Target,0,48,48,48,2068.383349229058,2070.385852766689,right,1,4,0.7504184058052488,S15I11,2022-10-10_15h41.45.368,t1_Paradigm,2021.1.4,59.9431757116503,
B,left,Distractor,0,49,49,49,2071.883557589841,2073.8830279459944,left,1,4,0.5498309534741566,S15I11,2022-10-10_15h41.45.368,t1_Paradigm,2021.1.4,59.9431757116503,
R,right,Target,0,50,50,50,2075.3834108230076,2077.3856371878646,left,0,4,0.9028749940916896,S15I11,2022-10-10_15h41.45.368,t1_Paradigm,2021.1.4,59.9431757116503,
Y,left,Pretarget,0,51,51,51,2078.883210803033,2080.88455464202,left,1,4,0.8439488270087168,S15I11,2022-10-10_15h41.45.368,t1_Paradigm,2021.1.4,59.9431757116503,
W,left,Pretarget,0,52,52,52,2082.3834063317627,2084.3858562955284,left,1,4,0.718582030152902,S15I11,2022-10-10_15h41.45.368,t1_Paradigm,2021.1.4,59.9431757116503,
Z,left,Distractor,0,53,53,53,2085.883230692765,2087.885339323315,right,0,4,0.707253233587835,S15I11,2022-10-10_15h41.45.368,t1_Paradigm,2021.1.4,59.9431757116503,
Q,left,Distractor,0,54,54,54,2089.383130121394,2091.383376176411,left,1,4,0.3773380439961329,S15I11,2022-10-10_15h41.45.368,t1_Paradigm,2021.1.4,59.9431757116503,
Y,right,Target,0,55,55,55,2092.8833558054757,2094.8839136799215,left,0,4,0.4927032014820725,S15I11,2022-10-10_15h41.45.368,t1_Paradigm,2021.1.4,59.9431757116503,
W,right,Target,0,56,56,56,2096.3833149032434,2098.3850382507662,left,0,4,0.9434528994024731,S15I11,2022-10-10_15h41.45.368,t1_Paradigm,2021.1.4,59.9431757116503,
H,left,Pretarget,0,57,57,57,2099.883366391936,2101.885351192963,left,1,4,1.3151762693887576,S15I11,2022-10-10_15h41.45.368,t1_Paradigm,2021.1.4,59.9431757116503,
M,left,Distractor,0,58,58,58,2103.3833501914633,2105.384014572075,right,0,4,0.7923670973978005,S15I11,2022-10-10_15h41.45.368,t1_Paradigm,2021.1.4,59.9431757116503,
R,left,Pretarget,0,59,59,59,2106.883351955854,2108.884942812205,left,1,4,0.5076580213499255,S15I11,2022-10-10_15h41.45.368,t1_Paradigm,2021.1.4,59.9431757116503,
J,left,Distractor,0,60,60,60,2110.3833575698663,2112.3851755539654,left,1,4,0.5433112974860705,S15I11,2022-10-10_15h41.45.368,t1_Paradigm,2021.1.4,59.9431757116503,
H,right,Target,0,61,61,61,2113.8834257402923,2115.8852241554414,right,1,4,0.9314443237381056,S15I11,2022-10-10_15h41.45.368,t1_Paradigm,2021.1.4,59.9431757116503,
Z,left,Distractor,0,62,62,62,2117.3834737001453,2119.38458624098,left,1,4,0.583807077491656,S15I11,2022-10-10_15h41.45.368,t1_Paradigm,2021.1.4,59.9431757116503,
R,right,Target,0,63,63,63,2120.8833359157434,2122.8837776599103,right,1,4,0.8928409538348205,S15I11,2022-10-10_15h41.45.368,t1_Paradigm,2021.1.4,59.9431757116503,
J,left,Pretarget,0,0,0,0,2130.7586065522046,2132.751132510719,None,0,4,,S15I11,2022-10-10_15h41.45.368,t1_Paradigm,2021.1.4,59.9431757116503,
G,left,Pretarget,0,1,1,1,2134.250110917201,2136.251582435274,None,0,4,,S15I11,2022-10-10_15h41.45.368,t1_Paradigm,2021.1.4,59.9431757116503,
Z,left,Distractor,0,2,2,2,2137.749850907305,2139.751277833944,None,0,4,,S15I11,2022-10-10_15h41.45.368,t1_Paradigm,2021.1.4,59.9431757116503,
F,left,Distractor,0,3,3,3,2141.249885714322,2143.2522243597778,left,1,4,0.700317176815588,S15I11,2022-10-10_15h41.45.368,t1_Paradigm,2021.1.4,59.9431757116503,
J,right,Target,0,4,4,4,2144.7499583759345,2146.750667668821,left,0,4,1.0100253786658868,S15I11,2022-10-10_15h41.45.368,t1_Paradigm,2021.1.4,59.9431757116503,
G,right,Target,0,5,5,5,2148.25000152376,2150.2506758492673,right,1,4,0.5979717623558827,S15I11,2022-10-10_15h41.45.368,t1_Paradigm,2021.1.4,59.9431757116503,
H,left,Distractor,0,6,6,6,2151.749847057683,2153.7516685706214,left,1,4,1.2889234499889426,S15I11,2022-10-10_15h41.45.368,t1_Paradigm,2021.1.4,59.9431757116503,
P,left,Distractor,0,7,7,7,2155.2498157795053,2157.2509879894787,left,1,4,0.589523445640225,S15I11,2022-10-10_15h41.45.368,t1_Paradigm,2021.1.4,59.9431757116503,
G,left,Lure,0,8,8,8,2158.7499740952044,2160.7510936936596,left,1,4,1.057497636473272,S15I11,2022-10-10_15h41.45.368,t1_Paradigm,2021.1.4,59.9431757116503,
S,left,Distractor,0,9,9,9,2162.2501474886085,2164.25147977873,left,1,4,0.7251016861991957,S15I11,2022-10-10_15h41.45.368,t1_Paradigm,2021.1.4,59.9431757116503,
R,left,Pretarget,0,10,10,10,2165.75005782448,2167.7500324811554,left,1,4,0.6664478798047639,S15I11,2022-10-10_15h41.45.368,t1_Paradigm,2021.1.4,59.9431757116503,
T,left,Pretarget,0,11,11,11,2169.2500278295483,2171.251260671066,left,1,4,0.7652927043964155,S15I11,2022-10-10_15h41.45.368,t1_Paradigm,2021.1.4,59.9431757116503,
X,left,Distractor,0,12,12,12,2172.749942335824,2174.751542495447,left,1,4,0.49690859293332323,S15I11,2022-10-10_15h41.45.368,t1_Paradigm,2021.1.4,59.9431757116503,
F,left,Pretarget,0,13,13,13,2176.2497076693107,2178.251124651055,left,1,4,1.1254457141039893,S15I11,2022-10-10_15h41.45.368,t1_Paradigm,2021.1.4,59.9431757116503,
R,right,Target,0,14,14,14,2179.7498505865224,2181.7503170323907,left,0,4,1.1302773107308894,S15I11,2022-10-10_15h41.45.368,t1_Paradigm,2021.1.4,59.9431757116503,
T,right,Target,0,15,15,15,2183.249740711879,2185.249340351147,right,1,4,0.6231373843620531,S15I11,2022-10-10_15h41.45.368,t1_Paradigm,2021.1.4,59.9431757116503,
C,left,Distractor,0,16,16,16,2186.7500555788865,2188.751537041855,left,1,4,0.44879729783860967,S15I11,2022-10-10_15h41.45.368,t1_Paradigm,2021.1.4,59.9431757116503,
F,right,Target,0,17,17,17,2190.2500464360346,2192.2514521897538,left,0,4,0.2929456635029055,S15I11,2022-10-10_15h41.45.368,t1_Paradigm,2021.1.4,59.9431757116503,
M,left,Distractor,0,18,18,18,2193.7499044812284,2195.751223939238,left,1,4,0.2973178719403222,S15I11,2022-10-10_15h41.45.368,t1_Paradigm,2021.1.4,59.9431757116503,
N,left,Distractor,0,19,19,19,2197.249725634174,2199.25144962332,left,1,4,0.5730685563175939,S15I11,2022-10-10_15h41.45.368,t1_Paradigm,2021.1.4,59.9431757116503,
R,left,Lure,0,20,20,20,2200.749792521354,2202.751850786037,left,1,4,0.8325189778697677,S15I11,2022-10-10_15h41.45.368,t1_Paradigm,2021.1.4,59.9431757116503,
F,right,Target,0,21,21,21,2204.249778887315,2206.2512115883874,left,0,4,0.2931891521438956,S15I11,2022-10-10_15h41.45.368,t1_Paradigm,2021.1.4,59.9431757116503,
P,left,Distractor,0,22,22,22,2207.7499314285815,2209.7513265958405,right,0,4,0.6329969084472395,S15I11,2022-10-10_15h41.45.368,t1_Paradigm,2021.1.4,59.9431757116503,
L,left,Pretarget,0,23,23,23,2211.249453273427,2213.25125938782,left,1,4,0.5093916346086189,S15I11,2022-10-10_15h41.45.368,t1_Paradigm,2021.1.4,59.9431757116503,
T,left,Distractor,0,24,24,24,2214.7498736842535,2216.75073279161,left,1,4,0.38548256136709824,S15I11,2022-10-10_15h41.45.368,t1_Paradigm,2021.1.4,59.9431757116503,
F,left,Distractor,0,25,25,25,2218.2499700852204,2220.2512834479567,right,0,4,0.46911015023943037,S15I11,2022-10-10_15h41.45.368,t1_Paradigm,2021.1.4,59.9431757116503,
V,left,Distractor,0,26,26,26,2221.7497363810544,2223.7500344059663,left,1,4,0.3466055475291796,S15I11,2022-10-10_15h41.45.368,t1_Paradigm,2021.1.4,59.9431757116503,
L,right,Target,0,27,27,27,2225.2499418546213,2227.2518538336735,left,0,4,0.4287115731276572,S15I11,2022-10-10_15h41.45.368,t1_Paradigm,2021.1.4,59.9431757116503,
S,left,Pretarget,0,28,28,28,2228.7495945866103,2230.750637513469,left,1,4,0.44966025481699035,S15I11,2022-10-10_15h41.45.368,t1_Paradigm,2021.1.4,59.9431757116503,
W,left,Distractor,0,29,29,29,2232.2499017544324,2234.2515407310566,left,1,4,0.7090648016892374,S15I11,2022-10-10_15h41.45.368,t1_Paradigm,2021.1.4,59.9431757116503,
Q,left,Distractor,0,30,30,30,2235.749929824553,2237.751105242525,right,0,4,0.9213557471521199,S15I11,2022-10-10_15h41.45.368,t1_Paradigm,2021.1.4,59.9431757116503,
L,right,Target,0,31,31,31,2239.249712481338,2241.2501946464763,left,0,4,0.8623875549528748,S15I11,2022-10-10_15h41.45.368,t1_Paradigm,2021.1.4,59.9431757116503,
S,right,Target,0,32,32,32,2242.7499137845007,2244.750581693952,None,0,4,,S15I11,2022-10-10_15h41.45.368,t1_Paradigm,2021.1.4,59.9431757116503,
Z,left,Pretarget,0,33,33,33,2246.2498388772365,2248.250184380857,left,1,4,0.6624330446938984,S15I11,2022-10-10_15h41.45.368,t1_Paradigm,2021.1.4,59.9431757116503,
F,left,Distractor,0,34,34,34,2249.7498460952775,2251.7518956983113,left,1,4,0.6164775379002094,S15I11,2022-10-10_15h41.45.368,t1_Paradigm,2021.1.4,59.9431757116503,
V,left,Distractor,0,35,35,35,2253.2499347970006,2255.2506912477547,None,0,4,,S15I11,2022-10-10_15h41.45.368,t1_Paradigm,2021.1.4,59.9431757116503,
M,left,Distractor,0,36,36,36,2256.749844491249,2258.751899547933,right,0,4,0.7686527830082923,S15I11,2022-10-10_15h41.45.368,t1_Paradigm,2021.1.4,59.9431757116503,
Z,right,Target,0,37,37,37,2260.249929664191,2262.251447056944,right,1,4,0.9651253100601025,S15I11,2022-10-10_15h41.45.368,t1_Paradigm,2021.1.4,59.9431757116503,
H,left,Pretarget,0,38,38,38,2263.749632441264,2265.751762244734,left,1,4,0.3607894805027172,S15I11,2022-10-10_15h41.45.368,t1_Paradigm,2021.1.4,59.9431757116503,
L,left,Distractor,0,39,39,39,2267.249972972437,2269.251457643404,left,1,4,0.6209581774310209,S15I11,2022-10-10_15h41.45.368,t1_Paradigm,2021.1.4,59.9431757116503,
G,left,Distractor,0,40,40,40,2270.7499320702045,2272.7501652931096,left,1,4,0.5143967850599438,S15I11,2022-10-10_15h41.45.368,t1_Paradigm,2021.1.4,59.9431757116503,
K,left,Distractor,0,41,41,41,2274.249859408592,2276.2501940049115,left,1,4,0.5982697873259895,S15I11,2022-10-10_15h41.45.368,t1_Paradigm,2021.1.4,59.9431757116503,
H,right,Target,0,42,42,42,2277.7498525113333,2279.750990716275,right,1,4,0.8895447147660889,S15I11,2022-10-10_15h41.45.368,t1_Paradigm,2021.1.4,59.9431757116503,
B,left,Distractor,0,43,43,43,2281.2497192181763,2283.250536300475,left,1,4,0.701825266238302,S15I11,2022-10-10_15h41.45.368,t1_Paradigm,2021.1.4,59.9431757116503,
Z,left,Distractor,0,44,44,44,2284.749715208134,2286.751491167175,left,1,4,0.7209498686133884,S15I11,2022-10-10_15h41.45.368,t1_Paradigm,2021.1.4,59.9431757116503,
T,left,Pretarget,0,45,45,45,2288.2499142657034,2290.2515814728686,left,1,4,1.0130017782212235,S15I11,2022-10-10_15h41.45.368,t1_Paradigm,2021.1.4,59.9431757116503,
H,right,Target,0,46,46,46,2291.749780972488,2293.7626178585924,left,0,4,0.9897134886705317,S15I11,2022-10-10_15h41.45.368,t1_Paradigm,2021.1.4,59.9431757116503,
F,left,Distractor,0,47,47,47,2295.2496727018734,2297.262647853524,left,1,4,0.961726735229604,S15I11,2022-10-10_15h41.45.368,t1_Paradigm,2021.1.4,59.9431757116503,
R,left,Distractor,0,48,48,48,2298.7499083308503,2300.7513561095693,right,0,4,0.961554785433691,S15I11,2022-10-10_15h41.45.368,t1_Paradigm,2021.1.4,59.9431757116503,
T,right,Target,0,49,49,49,2302.249977142841,2304.251951357408,right,1,4,0.8204715851461515,S15I11,2022-10-10_15h41.45.368,t1_Paradigm,2021.1.4,59.9431757116503,
H,right,Target,0,50,50,50,2305.7497909173835,2307.7515886909678,left,0,4,0.6327200564555824,S15I11,2022-10-10_15h41.45.368,t1_Paradigm,2021.1.4,59.9431757116503,
Y,left,Pretarget,0,51,51,51,2309.2498658245895,2311.2501048219856,left,1,4,0.7665014857775532,S15I11,2022-10-10_15h41.45.368,t1_Paradigm,2021.1.4,59.9431757116503,
H,left,Distractor,0,52,52,52,2312.7499667168013,2314.7503831175854,left,1,4,0.5779623885755427,S15I11,2022-10-10_15h41.45.368,t1_Paradigm,2021.1.4,59.9431757116503,
S,left,Distractor,0,53,53,53,2316.249661794631,2318.250499729067,left,1,4,0.6623775459011085,S15I11,2022-10-10_15h41.45.368,t1_Paradigm,2021.1.4,59.9431757116503,
Q,left,Distractor,0,54,54,54,2319.7499105764437,2321.7511934630456,left,1,4,0.6973811982315965,S15I11,2022-10-10_15h41.45.368,t1_Paradigm,2021.1.4,59.9431757116503,
Y,right,Target,0,55,55,55,2323.249963989947,2325.2514127311297,left,0,4,0.9407924896804616,S15I11,2022-10-10_15h41.45.368,t1_Paradigm,2021.1.4,59.9431757116503,
R,left,Distractor,0,56,56,56,2326.7498255639803,2328.7517198988935,right,0,4,0.6568202954367734,S15I11,2022-10-10_15h41.45.368,t1_Paradigm,2021.1.4,59.9431757116503,
H,left,Pretarget,0,57,57,57,2330.249880581512,2332.251372951723,left,1,4,0.8687644541496411,S15I11,2022-10-10_15h41.45.368,t1_Paradigm,2021.1.4,59.9431757116503,
J,left,Distractor,0,58,58,58,2333.749924370961,2335.751101713744,left,1,4,0.3775901942863129,S15I11,2022-10-10_15h41.45.368,t1_Paradigm,2021.1.4,59.9431757116503,
V,left,Distractor,0,59,59,59,2337.2499360801885,2339.2625150415697,right,0,4,1.0098986618686467,S15I11,2022-10-10_15h41.45.368,t1_Paradigm,2021.1.4,59.9431757116503,
Y,left,Lure,0,60,60,60,2340.749857002578,2342.7514446509304,left,1,4,0.8812442877679132,S15I11,2022-10-10_15h41.45.368,t1_Paradigm,2021.1.4,59.9431757116503,
H,right,Target,0,61,61,61,2344.24975835596,2346.249357995286,left,0,4,0.35913574701407924,S15I11,2022-10-10_15h41.45.368,t1_Paradigm,2021.1.4,59.9431757116503,
L,left,Distractor,0,62,62,62,2347.7497225865955,2349.751454274985,left,1,4,0.29713886452373117,S15I11,2022-10-10_15h41.45.368,t1_Paradigm,2021.1.4,59.9431757116503,
P,left,Distractor,0,63,63,63,2351.250066967332,2353.2512391773053,left,1,4,0.02925327914999798,S15I11,2022-10-10_15h41.45.368,t1_Paradigm,2021.1.4,59.9431757116503,
