Letter,CorrAnswer,Stimulus,nback_run.thisRepN,nback_run.thisTrialN,nback_run.thisN,nback_run.thisIndex,fixcross.started,nback_trial.started,trial_resp.keys,trial_resp.corr,currentlevel,trial_resp.rt,Participant,date,expName,psychopyVersion,frameRate,
H,left,Distractor,0,0,0,0,227.05646759609476,228.98922938830083,None,0,1,,S19N02,2023-01-23_14h41.45.126,t1_Paradigm,2021.1.4,59.99468798659717,
Q,left,Pretarget,0,1,1,1,230.49244061791637,232.4917550637017,left,1,1,0.5261960627308326,S19N02,2023-01-23_14h41.45.126,t1_Paradigm,2021.1.4,59.99468798659717,
Q,right,Target,0,2,2,2,233.98794778367414,235.9878983801416,right,1,1,0.7259454520840336,S19N02,2023-01-23_14h41.45.126,t1_Paradigm,2021.1.4,59.99468798659717,
T,left,Distractor,0,3,3,3,237.48791345784298,239.48942122799212,left,1,1,0.4244488458500655,S19N02,2023-01-23_14h41.45.126,t1_Paradigm,2021.1.4,59.99468798659717,
Q,left,Lure,0,4,4,4,240.98786790393638,242.98800167843683,left,1,1,0.541870777040458,S19N02,2023-01-23_14h41.45.126,t1_Paradigm,2021.1.4,59.99468798659717,
L,left,Distractor,0,5,5,5,244.48778674099003,246.48956398495307,left,1,1,0.6562255187850496,S19N02,2023-01-23_14h41.45.126,t1_Paradigm,2021.1.4,59.99468798659717,
V,left,Pretarget,0,6,6,6,247.98795419971725,249.9871072820165,left,1,1,0.5828471576608081,S19N02,2023-01-23_14h41.45.126,t1_Paradigm,2021.1.4,59.99468798659717,
V,right,Target,0,7,7,7,251.48789998415236,253.48786982874935,right,1,1,0.6821986240154274,S19N02,2023-01-23_14h41.45.126,t1_Paradigm,2021.1.4,59.99468798659717,
K,left,Distractor,0,8,8,8,254.98795002928932,256.9900997245593,left,1,1,0.5717730671187837,S19N02,2023-01-23_14h41.45.126,t1_Paradigm,2021.1.4,59.99468798659717,
G,left,Pretarget,0,9,9,9,258.4879121746344,260.48951778944206,left,1,1,0.5762559564941512,S19N02,2023-01-23_14h41.45.126,t1_Paradigm,2021.1.4,59.99468798659717,
G,right,Target,0,10,10,10,261.98796350297994,263.98760035493547,right,1,1,0.5181420037174576,S19N02,2023-01-23_14h41.45.126,t1_Paradigm,2021.1.4,59.99468798659717,
G,right,Target,0,11,11,11,265.4879355931921,267.4879763350664,right,1,1,0.64997661352254,S19N02,2023-01-23_14h41.45.126,t1_Paradigm,2021.1.4,59.99468798659717,
P,left,Pretarget,0,12,12,12,268.9879872423396,270.9895142606183,left,1,1,0.6043155589688922,S19N02,2023-01-23_14h41.45.126,t1_Paradigm,2021.1.4,59.99468798659717,
P,right,Target,0,13,13,13,272.48776236002595,274.48787752800126,right,1,1,0.6578292087799582,S19N02,2023-01-23_14h41.45.126,t1_Paradigm,2021.1.4,59.99468798659717,
G,left,Lure,0,14,14,14,275.9878120843607,277.9894776891722,left,1,1,0.6762464607500078,S19N02,2023-01-23_14h41.45.126,t1_Paradigm,2021.1.4,59.99468798659717,
Y,left,Distractor,0,15,15,15,279.48771071087845,281.48987163422385,left,1,1,0.7758664385123666,S19N02,2023-01-23_14h41.45.126,t1_Paradigm,2021.1.4,59.99468798659717,
B,left,Distractor,0,16,16,16,282.98774214949003,284.9895668721724,left,1,1,0.6521956020590096,S19N02,2023-01-23_14h41.45.126,t1_Paradigm,2021.1.4,59.99468798659717,
T,left,Pretarget,0,17,17,17,286.48802349298376,288.4880334378506,left,1,1,0.5939385715191747,S19N02,2023-01-23_14h41.45.126,t1_Paradigm,2021.1.4,59.99468798659717,
T,right,Target,0,18,18,18,289.9880267010053,291.9880497987608,right,1,1,0.6459098045481824,S19N02,2023-01-23_14h41.45.126,t1_Paradigm,2021.1.4,59.99468798659717,
S,left,Distractor,0,19,19,19,293.4878662999256,295.4912712940454,left,1,1,0.534527294810232,S19N02,2023-01-23_14h41.45.126,t1_Paradigm,2021.1.4,59.99468798659717,
T,left,Lure,0,20,20,20,296.9880129065125,298.9892925863262,left,1,1,0.7325010442111761,S19N02,2023-01-23_14h41.45.126,t1_Paradigm,2021.1.4,59.99468798659717,
J,left,Distractor,0,21,21,21,300.4880193225556,302.4903887673049,left,1,1,0.5754013395414859,S19N02,2023-01-23_14h41.45.126,t1_Paradigm,2021.1.4,59.99468798659717,
P,left,Distractor,0,22,22,22,303.9879509916957,305.9892104609735,left,1,1,0.6126920241524658,S19N02,2023-01-23_14h41.45.126,t1_Paradigm,2021.1.4,59.99468798659717,
F,left,Distractor,0,23,23,23,307.48833082145234,309.4898905615514,left,1,1,0.5039237312114437,S19N02,2023-01-23_14h41.45.126,t1_Paradigm,2021.1.4,59.99468798659717,
L,left,Distractor,0,24,24,24,310.9879445756526,312.99023253665314,left,1,1,0.6035652027180731,S19N02,2023-01-23_14h41.45.126,t1_Paradigm,2021.1.4,59.99468798659717,
W,left,Pretarget,0,25,25,25,314.4879442548504,316.4893795237115,left,1,1,0.5927435834757944,S19N02,2023-01-23_14h41.45.126,t1_Paradigm,2021.1.4,59.99468798659717,
W,right,Target,0,26,26,26,317.98787079115596,319.98779379863754,right,1,1,0.5339180915095767,S19N02,2023-01-23_14h41.45.126,t1_Paradigm,2021.1.4,59.99468798659717,
V,left,Distractor,0,27,27,27,321.48786694153,323.49007791001236,left,1,1,0.647693464554095,S19N02,2023-01-23_14h41.45.126,t1_Paradigm,2021.1.4,59.99468798659717,
W,left,Lure,0,28,28,28,324.9879744102534,326.9898543109073,left,1,1,0.6679431384588952,S19N02,2023-01-23_14h41.45.126,t1_Paradigm,2021.1.4,59.99468798659717,
R,left,Pretarget,0,29,29,29,328.4879830719117,330.49031081238013,left,1,1,0.5595023845226024,S19N02,2023-01-23_14h41.45.126,t1_Paradigm,2021.1.4,59.99468798659717,
R,right,Target,0,30,30,30,331.987941688433,333.98773252542514,right,1,1,0.7421555851976791,S19N02,2023-01-23_14h41.45.126,t1_Paradigm,2021.1.4,59.99468798659717,
G,left,Distractor,0,31,31,31,335.4879047961847,337.48902054609516,left,1,1,0.5207863759171687,S19N02,2023-01-23_14h41.45.126,t1_Paradigm,2021.1.4,59.99468798659717,
R,left,Lure,0,32,32,32,338.98787752800126,340.9897003258709,left,1,1,0.6521182887386203,S19N02,2023-01-23_14h41.45.126,t1_Paradigm,2021.1.4,59.99468798659717,
S,left,Distractor,0,33,33,33,342.4880831621854,344.4896069724425,left,1,1,0.5442812844662512,S19N02,2023-01-23_14h41.45.126,t1_Paradigm,2021.1.4,59.99468798659717,
R,left,Lure,0,34,34,34,345.98792468591864,347.98958002506106,left,1,1,1.0602241893809605,S19N02,2023-01-23_14h41.45.126,t1_Paradigm,2021.1.4,59.99468798659717,
P,left,Pretarget,0,35,35,35,349.48787207436453,351.49010357418524,left,1,1,0.6479664671919636,S19N02,2023-01-23_14h41.45.126,t1_Paradigm,2021.1.4,59.99468798659717,
P,right,Target,0,36,36,36,352.98791762827113,354.98790030495456,right,1,1,0.6379292092290143,S19N02,2023-01-23_14h41.45.126,t1_Paradigm,2021.1.4,59.99468798659717,
Y,left,Pretarget,0,37,37,37,356.4879205154905,358.4899296994147,left,1,1,0.4799039903298308,S19N02,2023-01-23_14h41.45.126,t1_Paradigm,2021.1.4,59.99468798659717,
Y,right,Target,0,38,38,38,359.98774054547926,361.9879368764007,right,1,1,0.5980637664868027,S19N02,2023-01-23_14h41.45.126,t1_Paradigm,2021.1.4,59.99468798659717,
J,left,Distractor,0,39,39,39,363.48807000929673,365.48974235095375,left,1,1,0.48809471106301316,S19N02,2023-01-23_14h41.45.126,t1_Paradigm,2021.1.4,59.99468798659717,
Y,left,Lure,0,40,40,40,366.98769434996825,368.98807097170334,left,1,1,0.6377370487357439,S19N02,2023-01-23_14h41.45.126,t1_Paradigm,2021.1.4,59.99468798659717,
T,left,Distractor,0,41,41,41,370.487989808757,372.4896175589138,left,1,1,0.560138856006688,S19N02,2023-01-23_14h41.45.126,t1_Paradigm,2021.1.4,59.99468798659717,
V,left,Distractor,0,42,42,42,373.9879894879548,375.98947287713986,left,1,1,0.48434998745665325,S19N02,2023-01-23_14h41.45.126,t1_Paradigm,2021.1.4,59.99468798659717,
N,left,Pretarget,0,43,43,43,377.4878733575731,379.489430852057,left,1,1,0.632328324328455,S19N02,2023-01-23_14h41.45.126,t1_Paradigm,2021.1.4,59.99468798659717,
N,right,Target,0,44,44,44,380.98793430998353,382.9879959039981,right,1,1,0.5419330126594559,S19N02,2023-01-23_14h41.45.126,t1_Paradigm,2021.1.4,59.99468798659717,
N,right,Target,0,45,45,45,384.48797023982524,386.4879602949584,right,1,1,0.4338470659113227,S19N02,2023-01-23_14h41.45.126,t1_Paradigm,2021.1.4,59.99468798659717,
X,left,Distractor,0,46,46,46,387.98790158816314,389.99045934378,left,1,1,0.4353182646143523,S19N02,2023-01-23_14h41.45.126,t1_Paradigm,2021.1.4,59.99468798659717,
Z,left,Distractor,0,47,47,47,391.48792436511644,393.48988189989313,left,1,1,0.5839433386395285,S19N02,2023-01-23_14h41.45.126,t1_Paradigm,2021.1.4,59.99468798659717,
H,left,Pretarget,0,48,48,48,394.9879657485951,396.99004486739,left,1,1,0.5878593705990625,S19N02,2023-01-23_14h41.45.126,t1_Paradigm,2021.1.4,59.99468798659717,
H,right,Target,0,49,49,49,398.4877366958533,400.4879949415915,right,1,1,0.5140033350592148,S19N02,2023-01-23_14h41.45.126,t1_Paradigm,2021.1.4,59.99468798659717,
K,left,Distractor,0,50,50,50,401.9879195530841,403.98988574951886,left,1,1,0.5481164742816418,S19N02,2023-01-23_14h41.45.126,t1_Paradigm,2021.1.4,59.99468798659717,
V,left,Pretarget,0,51,51,51,405.48793142276395,407.4894706315247,left,1,1,0.7607813585714212,S19N02,2023-01-23_14h41.45.126,t1_Paradigm,2021.1.4,59.99468798659717,
V,right,Target,0,52,52,52,408.9876734978279,410.9877110316804,right,1,1,0.46201381630748983,S19N02,2023-01-23_14h41.45.126,t1_Paradigm,2021.1.4,59.99468798659717,
R,left,Distractor,0,53,53,53,412.488050119563,414.48891500218474,left,1,1,0.5291060591187033,S19N02,2023-01-23_14h41.45.126,t1_Paradigm,2021.1.4,59.99468798659717,
V,left,Lure,0,54,54,54,415.98796189896916,417.98981741865896,right,0,1,0.6281758611771693,S19N02,2023-01-23_14h41.45.126,t1_Paradigm,2021.1.4,59.99468798659717,
Y,left,Distractor,0,55,55,55,419.4879654277929,421.4887578091266,left,1,1,0.889113450400373,S19N02,2023-01-23_14h41.45.126,t1_Paradigm,2021.1.4,59.99468798659717,
Q,left,Distractor,0,56,56,56,422.98790158816314,424.98944913777996,left,1,1,0.5724794734740044,S19N02,2023-01-23_14h41.45.126,t1_Paradigm,2021.1.4,59.99468798659717,
Z,left,Pretarget,0,57,57,57,426.4880453075307,428.4880369666744,left,1,1,0.9460792522486372,S19N02,2023-01-23_14h41.45.126,t1_Paradigm,2021.1.4,59.99468798659717,
Z,right,Target,0,58,58,58,429.98770269082434,431.98798435512026,right,1,1,0.6940644542867176,S19N02,2023-01-23_14h41.45.126,t1_Paradigm,2021.1.4,59.99468798659717,
B,left,Distractor,0,59,59,59,433.48785507185016,435.4878586006739,left,1,1,0.9219924637156964,S19N02,2023-01-23_14h41.45.126,t1_Paradigm,2021.1.4,59.99468798659717,
S,left,Pretarget,0,60,60,60,436.987987883944,438.9899601756199,left,1,1,0.9240176877478916,S19N02,2023-01-23_14h41.45.126,t1_Paradigm,2021.1.4,59.99468798659717,
S,right,Target,0,61,61,61,440.4879336683791,442.48803664587217,right,1,1,0.6738086851410117,S19N02,2023-01-23_14h41.45.126,t1_Paradigm,2021.1.4,59.99468798659717,
T,left,Distractor,0,62,62,62,443.987621527878,445.98971027073776,left,1,1,0.5963214899593368,S19N02,2023-01-23_14h41.45.126,t1_Paradigm,2021.1.4,59.99468798659717,
D,left,Distractor,0,63,63,63,447.487728354997,449.49011640627145,left,1,1,0.6480258155913816,S19N02,2023-01-23_14h41.45.126,t1_Paradigm,2021.1.4,59.99468798659717,
R,left,Distractor,0,0,0,0,462.7195833036592,464.72324397709986,None,0,1,,S19N02,2023-01-23_14h41.45.126,t1_Paradigm,2021.1.4,59.99468798659717,
V,left,Distractor,0,1,1,1,466.2213230137695,468.22391060398695,left,1,1,0.9377130527338977,S19N02,2023-01-23_14h41.45.126,t1_Paradigm,2021.1.4,59.99468798659717,
N,left,Pretarget,0,2,2,2,469.72107342968957,471.7232317866178,left,1,1,0.862792916431772,S19N02,2023-01-23_14h41.45.126,t1_Paradigm,2021.1.4,59.99468798659717,
N,right,Target,0,3,3,3,473.22133520425155,475.22111834199177,right,1,1,0.6610211902659557,S19N02,2023-01-23_14h41.45.126,t1_Paradigm,2021.1.4,59.99468798659717,
S,left,Distractor,0,4,4,4,476.72131050248527,478.7231647389665,left,1,1,0.8388200126653373,S19N02,2023-01-23_14h41.45.126,t1_Paradigm,2021.1.4,59.99468798659717,
N,left,Lure,0,5,5,5,480.2213772293344,482.2232949846432,left,1,1,1.066592753849136,S19N02,2023-01-23_14h41.45.126,t1_Paradigm,2021.1.4,59.99468798659717,
Z,left,Distractor,0,6,6,6,483.7213374498667,485.72286831777114,left,1,1,0.49508499011608365,S19N02,2023-01-23_14h41.45.126,t1_Paradigm,2021.1.4,59.99468798659717,
L,left,Pretarget,0,7,7,7,487.2213021616292,489.22225590644894,left,1,1,0.483548944464701,S19N02,2023-01-23_14h41.45.126,t1_Paradigm,2021.1.4,59.99468798659717,
L,right,Target,0,8,8,8,490.7210763169089,492.72135573558967,right,1,1,0.5844409027886286,S19N02,2023-01-23_14h41.45.126,t1_Paradigm,2021.1.4,59.99468798659717,
H,left,Distractor,0,9,9,9,494.2211234748263,496.2233325184959,left,1,1,0.45876890246518087,S19N02,2023-01-23_14h41.45.126,t1_Paradigm,2021.1.4,59.99468798659717,
L,left,Lure,0,10,10,10,497.72092072786154,499.7229552551564,left,1,1,1.0230435399105318,S19N02,2023-01-23_14h41.45.126,t1_Paradigm,2021.1.4,59.99468798659717,
X,left,Pretarget,0,11,11,11,501.2212450588447,503.234201616458,left,1,1,0.6637797680343738,S19N02,2023-01-23_14h41.45.126,t1_Paradigm,2021.1.4,59.99468798659717,
X,right,Target,0,12,12,12,504.72132140975873,506.7211173795854,right,1,1,0.6331781292487904,S19N02,2023-01-23_14h41.45.126,t1_Paradigm,2021.1.4,59.99468798659717,
X,right,Target,0,13,13,13,508.2212219610892,510.2215318559752,right,1,1,0.5563896411697442,S19N02,2023-01-23_14h41.45.126,t1_Paradigm,2021.1.4,59.99468798659717,
R,left,Distractor,0,14,14,14,511.7211780111934,513.7232876061935,left,1,1,0.4627991399936491,S19N02,2023-01-23_14h41.45.126,t1_Paradigm,2021.1.4,59.99468798659717,
T,left,Distractor,0,15,15,15,515.2213467531292,517.2236494710294,left,1,1,0.8182184187917301,S19N02,2023-01-23_14h41.45.126,t1_Paradigm,2021.1.4,59.99468798659717,
V,left,Pretarget,0,16,16,16,518.7214522970396,520.7225866534752,left,1,1,0.48728949764313256,S19N02,2023-01-23_14h41.45.126,t1_Paradigm,2021.1.4,59.99468798659717,
V,right,Target,0,17,17,17,522.2212970287947,524.2213336002408,right,1,1,0.4285384317779517,S19N02,2023-01-23_14h41.45.126,t1_Paradigm,2021.1.4,59.99468798659717,
N,left,Distractor,0,18,18,18,525.7211305324738,527.7235054308599,left,1,1,0.41434036980786004,S19N02,2023-01-23_14h41.45.126,t1_Paradigm,2021.1.4,59.99468798659717,
B,left,Distractor,0,19,19,19,529.2214109135612,531.2204440158528,left,1,1,0.6618203084449306,S19N02,2023-01-23_14h41.45.126,t1_Paradigm,2021.1.4,59.99468798659717,
V,left,Lure,0,20,20,20,532.7213740213128,534.7232446187043,left,1,1,0.9026298077817501,S19N02,2023-01-23_14h41.45.126,t1_Paradigm,2021.1.4,59.99468798659717,
P,left,Distractor,0,21,21,21,536.2213547731833,538.2233713355572,left,1,1,0.6184918063920577,S19N02,2023-01-23_14h41.45.126,t1_Paradigm,2021.1.4,59.99468798659717,
K,left,Pretarget,0,22,22,22,539.7212424924276,541.7232997966755,left,1,1,0.5746256399199865,S19N02,2023-01-23_14h41.45.126,t1_Paradigm,2021.1.4,59.99468798659717,
K,right,Target,0,23,23,23,543.2212726478303,545.2212245275066,right,1,1,0.8046340513526502,S19N02,2023-01-23_14h41.45.126,t1_Paradigm,2021.1.4,59.99468798659717,
J,left,Pretarget,0,24,24,24,546.7214144423849,548.723342784165,left,1,1,0.9025136774000657,S19N02,2023-01-23_14h41.45.126,t1_Paradigm,2021.1.4,59.99468798659717,
J,right,Target,0,25,25,25,550.2203991035503,552.2214484474139,right,1,1,0.65241888036212,S19N02,2023-01-23_14h41.45.126,t1_Paradigm,2021.1.4,59.99468798659717,
H,left,Distractor,0,26,26,26,553.7215007381658,555.7230662527036,left,1,1,0.5588312664049226,S19N02,2023-01-23_14h41.45.126,t1_Paradigm,2021.1.4,59.99468798659717,
J,left,Lure,0,27,27,27,557.221344186712,559.2234223431005,left,1,1,0.8189004441826455,S19N02,2023-01-23_14h41.45.126,t1_Paradigm,2021.1.4,59.99468798659717,
V,left,Distractor,0,28,28,28,560.7211443269666,562.7232035560278,left,1,1,0.7266823346440106,S19N02,2023-01-23_14h41.45.126,t1_Paradigm,2021.1.4,59.99468798659717,
Z,left,Pretarget,0,29,29,29,564.2211549134379,566.2206348931377,left,1,1,0.5093690270648494,S19N02,2023-01-23_14h41.45.126,t1_Paradigm,2021.1.4,59.99468798659717,
Z,right,Target,0,30,30,30,567.7213406578883,569.7211545926357,right,1,1,0.608802618772188,S19N02,2023-01-23_14h41.45.126,t1_Paradigm,2021.1.4,59.99468798659717,
T,left,Distractor,0,31,31,31,571.2211417605495,573.2227759267494,left,1,1,0.9792976742483006,S19N02,2023-01-23_14h41.45.126,t1_Paradigm,2021.1.4,59.99468798659717,
Z,left,Lure,0,32,32,32,574.7212610989527,576.7214340113167,left,1,1,0.7131059872590413,S19N02,2023-01-23_14h41.45.126,t1_Paradigm,2021.1.4,59.99468798659717,
F,left,Distractor,0,33,33,33,578.2213220513629,580.2231143730276,left,1,1,0.6987151231912776,S19N02,2023-01-23_14h41.45.126,t1_Paradigm,2021.1.4,59.99468798659717,
Y,left,Pretarget,0,34,34,34,581.7210490487253,583.7219235554119,left,1,1,0.9280363763984951,S19N02,2023-01-23_14h41.45.126,t1_Paradigm,2021.1.4,59.99468798659717,
Y,right,Target,0,35,35,35,585.2204613391693,587.2214744323887,right,1,1,0.6924411953600611,S19N02,2023-01-23_14h41.45.126,t1_Paradigm,2021.1.4,59.99468798659717,
Y,right,Target,0,36,36,36,588.7211962969166,590.721376266928,right,1,1,0.6005050709197803,S19N02,2023-01-23_14h41.45.126,t1_Paradigm,2021.1.4,59.99468798659717,
W,left,Distractor,0,37,37,37,592.2213072944637,594.223312628762,left,1,1,0.4906685067878698,S19N02,2023-01-23_14h41.45.126,t1_Paradigm,2021.1.4,59.99468798659717,
Q,left,Distractor,0,38,38,38,595.7213749837192,597.7221368888479,left,1,1,0.6078787085530166,S19N02,2023-01-23_14h41.45.126,t1_Paradigm,2021.1.4,59.99468798659717,
P,left,Pretarget,0,39,39,39,599.2213028032334,601.2231066737756,left,1,1,0.45079440238714596,S19N02,2023-01-23_14h41.45.126,t1_Paradigm,2021.1.4,59.99468798659717,
P,right,Target,0,40,40,40,602.7213788333452,604.7213672844675,right,1,1,0.4725659617358815,S19N02,2023-01-23_14h41.45.126,t1_Paradigm,2021.1.4,59.99468798659717,
J,left,Distractor,0,41,41,41,606.2211998257403,608.2231968191825,left,1,1,0.5707747307988029,S19N02,2023-01-23_14h41.45.126,t1_Paradigm,2021.1.4,59.99468798659717,
P,left,Lure,0,42,42,42,609.7211626126898,611.7233662027227,left,1,1,0.8787047035370961,S19N02,2023-01-23_14h41.45.126,t1_Paradigm,2021.1.4,59.99468798659717,
L,left,Distractor,0,43,43,43,613.2214099511546,615.223543927119,left,1,1,0.6422863441578102,S19N02,2023-01-23_14h41.45.126,t1_Paradigm,2021.1.4,59.99468798659717,
Z,left,Distractor,0,44,44,44,616.7211436853624,618.7233020422907,left,1,1,0.5986360775391404,S19N02,2023-01-23_14h41.45.126,t1_Paradigm,2021.1.4,59.99468798659717,
F,left,Pretarget,0,45,45,45,620.221467053939,622.222143304891,left,1,1,0.4918750437093422,S19N02,2023-01-23_14h41.45.126,t1_Paradigm,2021.1.4,59.99468798659717,
F,right,Target,0,46,46,46,623.7214923973097,625.7214923973097,right,1,1,0.8004315430648603,S19N02,2023-01-23_14h41.45.126,t1_Paradigm,2021.1.4,59.99468798659717,
G,left,Pretarget,0,47,47,47,627.2204578103456,629.2214269536692,left,1,1,0.8044685174384085,S19N02,2023-01-23_14h41.45.126,t1_Paradigm,2021.1.4,59.99468798659717,
G,right,Target,0,48,48,48,630.7213711340933,632.7213801165537,None,0,1,,S19N02,2023-01-23_14h41.45.126,t1_Paradigm,2021.1.4,59.99468798659717,
V,left,Distractor,0,49,49,49,634.2214795652233,636.223262583625,left,1,1,0.8268232951131722,S19N02,2023-01-23_14h41.45.126,t1_Paradigm,2021.1.4,59.99468798659717,
G,left,Lure,0,50,50,50,637.7214814900362,639.7228311047206,right,0,1,0.6871559797843929,S19N02,2023-01-23_14h41.45.126,t1_Paradigm,2021.1.4,59.99468798659717,
Q,left,Pretarget,0,51,51,51,641.2212293395389,643.2226780820906,left,1,1,0.4991383254000539,S19N02,2023-01-23_14h41.45.126,t1_Paradigm,2021.1.4,59.99468798659717,
Q,right,Target,0,52,52,52,644.7213390538775,646.7214478058095,right,1,1,0.6646465754688506,S19N02,2023-01-23_14h41.45.126,t1_Paradigm,2021.1.4,59.99468798659717,
Y,left,Distractor,0,53,53,53,648.2216066028784,650.2224323476366,left,1,1,0.5236052644918345,S19N02,2023-01-23_14h41.45.126,t1_Paradigm,2021.1.4,59.99468798659717,
V,left,Distractor,0,54,54,54,651.7210484071211,653.7214468434031,left,1,1,0.4806139255083508,S19N02,2023-01-23_14h41.45.126,t1_Paradigm,2021.1.4,59.99468798659717,
B,left,Distractor,0,55,55,55,655.2214163671979,657.2231746838333,left,1,1,0.6909100066534393,S19N02,2023-01-23_14h41.45.126,t1_Paradigm,2021.1.4,59.99468798659717,
J,left,Pretarget,0,56,56,56,658.7216313046447,660.723812117724,left,1,1,0.7742524828483965,S19N02,2023-01-23_14h41.45.126,t1_Paradigm,2021.1.4,59.99468798659717,
J,right,Target,0,57,57,57,662.2214327281081,664.2213890990142,right,1,1,0.4608733646307428,S19N02,2023-01-23_14h41.45.126,t1_Paradigm,2021.1.4,59.99468798659717,
H,left,Distractor,0,58,58,58,665.7213316754278,667.7214988133528,left,1,1,0.4965507351823817,S19N02,2023-01-23_14h41.45.126,t1_Paradigm,2021.1.4,59.99468798659717,
J,left,Lure,0,59,59,59,669.2215084374177,671.2231586437254,left,1,1,0.770875077714436,S19N02,2023-01-23_14h41.45.126,t1_Paradigm,2021.1.4,59.99468798659717,
D,left,Pretarget,0,60,60,60,672.7213425827013,674.7232959470496,left,1,1,0.5986588544924416,S19N02,2023-01-23_14h41.45.126,t1_Paradigm,2021.1.4,59.99468798659717,
D,right,Target,0,61,61,61,676.2213361666579,678.221449089018,right,1,1,0.6845007003112187,S19N02,2023-01-23_14h41.45.126,t1_Paradigm,2021.1.4,59.99468798659717,
R,left,Distractor,0,62,62,62,679.7211818608193,681.7218985328434,left,1,1,0.44822477709067243,S19N02,2023-01-23_14h41.45.126,t1_Paradigm,2021.1.4,59.99468798659717,
F,left,Distractor,0,63,63,63,683.2214465226009,685.2222713049525,left,1,1,0.6276221566504319,S19N02,2023-01-23_14h41.45.126,t1_Paradigm,2021.1.4,59.99468798659717,
F,left,Distractor,0,0,0,0,836.4683397140882,838.4714460413975,None,0,2,,S19N02,2023-01-23_14h41.45.126,t1_Paradigm,2021.1.4,59.99468798659717,
N,left,Pretarget,0,1,1,1,839.9713780313398,841.9713575000017,None,0,2,,S19N02,2023-01-23_14h41.45.126,t1_Paradigm,2021.1.4,59.99468798659717,
V,left,Distractor,0,2,2,2,843.4714117155665,845.4734160874584,left,1,2,0.6006179932799114,S19N02,2023-01-23_14h41.45.126,t1_Paradigm,2021.1.4,59.99468798659717,
N,right,Target,0,3,3,3,846.9714733095811,848.9734404684225,right,1,2,0.7485908765147542,S19N02,2023-01-23_14h41.45.126,t1_Paradigm,2021.1.4,59.99468798659717,
N,left,Lure,0,4,4,4,850.4712497104761,852.4715730790526,left,1,2,0.83445261206748,S19N02,2023-01-23_14h41.45.126,t1_Paradigm,2021.1.4,59.99468798659717,
X,left,Distractor,0,5,5,5,853.9715608885706,855.9735193857537,left,1,2,0.8685250094156345,S19N02,2023-01-23_14h41.45.126,t1_Paradigm,2021.1.4,59.99468798659717,
G,left,Pretarget,0,6,6,6,857.4714980113474,859.4734176914692,left,1,2,1.288752419650109,S19N02,2023-01-23_14h41.45.126,t1_Paradigm,2021.1.4,59.99468798659717,
H,left,Pretarget,0,7,7,7,860.971318041336,862.9727606886468,left,1,2,0.7332915007316387,S19N02,2023-01-23_14h41.45.126,t1_Paradigm,2021.1.4,59.99468798659717,
G,right,Target,0,8,8,8,864.4714755551963,866.4705173191462,right,1,2,0.5157456115866808,S19N02,2023-01-23_14h41.45.126,t1_Paradigm,2021.1.4,59.99468798659717,
H,right,Target,0,9,9,9,867.9714563070668,869.9714822920416,right,1,2,0.694672374378797,S19N02,2023-01-23_14h41.45.126,t1_Paradigm,2021.1.4,59.99468798659717,
T,left,Pretarget,0,10,10,10,871.4714040163146,873.473248307929,left,1,2,1.1289448239533613,S19N02,2023-01-23_14h41.45.126,t1_Paradigm,2021.1.4,59.99468798659717,
K,left,Distractor,0,11,11,11,874.9713186829404,876.9724260919945,left,1,2,0.6057373541393645,S19N02,2023-01-23_14h41.45.126,t1_Paradigm,2021.1.4,59.99468798659717,
T,right,Target,0,12,12,12,878.4712612593537,880.4732935410334,right,1,2,0.6568959952983278,S19N02,2023-01-23_14h41.45.126,t1_Paradigm,2021.1.4,59.99468798659717,
T,left,Lure,0,13,13,13,881.9715085978187,883.9715445276606,left,1,2,0.8225184509362862,S19N02,2023-01-23_14h41.45.126,t1_Paradigm,2021.1.4,59.99468798659717,
J,left,Distractor,0,14,14,14,885.4714518158364,887.4737638369991,left,1,2,0.6322692967310104,S19N02,2023-01-23_14h41.45.126,t1_Paradigm,2021.1.4,59.99468798659717,
Q,left,Pretarget,0,15,15,15,888.9714258308616,890.9732611400154,left,1,2,1.0208332130325743,S19N02,2023-01-23_14h41.45.126,t1_Paradigm,2021.1.4,59.99468798659717,
M,left,Distractor,0,16,16,16,892.4715130890488,894.4734090298109,left,1,2,0.864735373506619,S19N02,2023-01-23_14h41.45.126,t1_Paradigm,2021.1.4,59.99468798659717,
Q,right,Target,0,17,17,17,895.971595535204,897.9721056106373,right,1,2,0.4699632938168179,S19N02,2023-01-23_14h41.45.126,t1_Paradigm,2021.1.4,59.99468798659717,
R,left,Distractor,0,18,18,18,899.4712586929365,901.4729794757195,left,1,2,1.1132768464890432,S19N02,2023-01-23_14h41.45.126,t1_Paradigm,2021.1.4,59.99468798659717,
W,left,Distractor,0,19,19,19,902.9714931993151,904.9721656006411,left,1,2,0.7980142987937597,S19N02,2023-01-23_14h41.45.126,t1_Paradigm,2021.1.4,59.99468798659717,
C,left,Pretarget,0,20,20,20,906.471006221637,908.4730587138529,left,1,2,0.625155508846774,S19N02,2023-01-23_14h41.45.126,t1_Paradigm,2021.1.4,59.99468798659717,
T,left,Distractor,0,21,21,21,909.9715243171245,911.9842043432764,left,1,2,0.44186808230256247,S19N02,2023-01-23_14h41.45.126,t1_Paradigm,2021.1.4,59.99468798659717,
C,right,Target,0,22,22,22,913.4715041065883,915.4732117364829,right,1,2,0.4409470593027436,S19N02,2023-01-23_14h41.45.126,t1_Paradigm,2021.1.4,59.99468798659717,
F,left,Pretarget,0,23,23,23,916.9715997056319,918.9720080867808,left,1,2,0.5421553285559639,S19N02,2023-01-23_14h41.45.126,t1_Paradigm,2021.1.4,59.99468798659717,
C,right,Target,0,24,24,24,920.4711383921267,922.4732364382492,right,1,2,0.46480094546814144,S19N02,2023-01-23_14h41.45.126,t1_Paradigm,2021.1.4,59.99468798659717,
F,right,Target,0,25,25,25,923.9715952144018,925.9714267932679,right,1,2,0.4706584720963747,S19N02,2023-01-23_14h41.45.126,t1_Paradigm,2021.1.4,59.99468798659717,
H,left,Distractor,0,26,26,26,927.4714890288869,929.473230343008,left,1,2,0.7768683036558741,S19N02,2023-01-23_14h41.45.126,t1_Paradigm,2021.1.4,59.99468798659717,
H,left,Lure,0,27,27,27,930.9713286278072,932.971205439778,left,1,2,0.7348544488522748,S19N02,2023-01-23_14h41.45.126,t1_Paradigm,2021.1.4,59.99468798659717,
P,left,Distractor,0,28,28,28,934.4714136403795,936.4728116961901,left,1,2,0.7212874047297646,S19N02,2023-01-23_14h41.45.126,t1_Paradigm,2021.1.4,59.99468798659717,
G,left,Pretarget,0,29,29,29,937.9715785326894,939.9728363979564,left,1,2,0.6293958717894839,S19N02,2023-01-23_14h41.45.126,t1_Paradigm,2021.1.4,59.99468798659717,
K,left,Distractor,0,30,30,30,941.4711906828786,943.4733984433396,left,1,2,0.6968483754258159,S19N02,2023-01-23_14h41.45.126,t1_Paradigm,2021.1.4,59.99468798659717,
G,right,Target,0,31,31,31,944.9714431541781,946.9715528685167,right,1,2,0.6226208509854132,S19N02,2023-01-23_14h41.45.126,t1_Paradigm,2021.1.4,59.99468798659717,
M,left,Pretarget,0,32,32,32,948.4714784424157,950.4732993154723,left,1,2,0.6569004865286843,S19N02,2023-01-23_14h41.45.126,t1_Paradigm,2021.1.4,59.99468798659717,
B,left,Distractor,0,33,33,33,951.9713780313398,953.9714081867428,left,1,2,0.7588443551333057,S19N02,2023-01-23_14h41.45.126,t1_Paradigm,2021.1.4,59.99468798659717,
M,right,Target,0,34,34,34,955.4715018609734,957.4730298416584,right,1,2,0.4093076255314827,S19N02,2023-01-23_14h41.45.126,t1_Paradigm,2021.1.4,59.99468798659717,
M,left,Lure,0,35,35,35,958.971436738135,960.9716513547796,left,1,2,0.6224604499059296,S19N02,2023-01-23_14h41.45.126,t1_Paradigm,2021.1.4,59.99468798659717,
T,left,Distractor,0,36,36,36,962.4715025025776,964.4731360271733,left,1,2,0.5291099087444309,S19N02,2023-01-23_14h41.45.126,t1_Paradigm,2021.1.4,59.99468798659717,
F,left,Distractor,0,37,37,37,965.9715082770165,967.9731565585114,left,1,2,0.5971093800628751,S19N02,2023-01-23_14h41.45.126,t1_Paradigm,2021.1.4,59.99468798659717,
X,left,Distractor,0,38,38,38,969.471471063966,971.4734362979943,left,1,2,0.5207273483199515,S19N02,2023-01-23_14h41.45.126,t1_Paradigm,2021.1.4,59.99468798659717,
C,left,Distractor,0,39,39,39,972.9711521866195,974.9728492300428,left,1,2,0.5413600600027166,S19N02,2023-01-23_14h41.45.126,t1_Paradigm,2021.1.4,59.99468798659717,
R,left,Distractor,0,40,40,40,976.4712099310084,978.4714402669588,left,1,2,0.4987584956431874,S19N02,2023-01-23_14h41.45.126,t1_Paradigm,2021.1.4,59.99468798659717,
B,left,Pretarget,0,41,41,41,979.9714800464264,981.9728569292945,left,1,2,0.5171946749408107,S19N02,2023-01-23_14h41.45.126,t1_Paradigm,2021.1.4,59.99468798659717,
H,left,Distractor,0,42,42,42,983.4714354549262,985.4733577014654,left,1,2,0.47278282399565796,S19N02,2023-01-23_14h41.45.126,t1_Paradigm,2021.1.4,59.99468798659717,
B,right,Target,0,43,43,43,986.9712814698898,988.9842765237622,right,1,2,0.40201611325096565,S19N02,2023-01-23_14h41.45.126,t1_Paradigm,2021.1.4,59.99468798659717,
W,left,Pretarget,0,44,44,44,990.4715477356822,992.4728492300428,left,1,2,0.49736236464559624,S19N02,2023-01-23_14h41.45.126,t1_Paradigm,2021.1.4,59.99468798659717,
L,left,Pretarget,0,45,45,45,993.9712914147567,995.9730683379175,left,1,2,0.645157202682185,S19N02,2023-01-23_14h41.45.126,t1_Paradigm,2021.1.4,59.99468798659717,
W,right,Target,0,46,46,46,997.4715066730057,999.4730275960433,right,1,2,0.5051414962085801,S19N02,2023-01-23_14h41.45.126,t1_Paradigm,2021.1.4,59.99468798659717,
L,right,Target,0,47,47,47,1000.9714559862646,1002.9736143431928,right,1,2,0.41267733141353347,S19N02,2023-01-23_14h41.45.126,t1_Paradigm,2021.1.4,59.99468798659717,
W,right,Target,0,48,48,48,1004.4715089186209,1006.4730343328888,right,1,2,0.5611484204021053,S19N02,2023-01-23_14h41.45.126,t1_Paradigm,2021.1.4,59.99468798659717,
X,left,Distractor,0,49,49,49,1007.9715442068584,1009.970466953207,left,1,2,0.6797371090465276,S19N02,2023-01-23_14h41.45.126,t1_Paradigm,2021.1.4,59.99468798659717,
R,left,Distractor,0,50,50,50,1011.4715993848297,1013.4734318067642,left,1,2,0.7449048597036381,S19N02,2023-01-23_14h41.45.126,t1_Paradigm,2021.1.4,59.99468798659717,
V,left,Pretarget,0,51,51,51,1014.9712192342708,1016.9737102630386,left,1,2,0.5725266313911561,S19N02,2023-01-23_14h41.45.126,t1_Paradigm,2021.1.4,59.99468798659717,
Z,left,Distractor,0,52,52,52,1018.4716792645675,1020.4732438166989,left,1,2,0.4327993260587846,S19N02,2023-01-23_14h41.45.126,t1_Paradigm,2021.1.4,59.99468798659717,
V,right,Target,0,53,53,53,1021.9715018609734,1023.9845161629753,right,1,2,0.44161240298149096,S19N02,2023-01-23_14h41.45.126,t1_Paradigm,2021.1.4,59.99468798659717,
V,left,Lure,0,54,54,54,1025.471492878513,1027.4715204674985,left,1,2,0.714663160940745,S19N02,2023-01-23_14h41.45.126,t1_Paradigm,2021.1.4,59.99468798659717,
N,left,Distractor,0,55,55,55,1028.9712051189758,1030.9734125586347,left,1,2,0.49272709424462846,S19N02,2023-01-23_14h41.45.126,t1_Paradigm,2021.1.4,59.99468798659717,
B,left,Distractor,0,56,56,56,1032.4714999361604,1034.4737060926104,left,1,2,0.5604532421230033,S19N02,2023-01-23_14h41.45.126,t1_Paradigm,2021.1.4,59.99468798659717,
V,left,Lure,0,57,57,57,1035.971619916168,1037.973397480933,left,1,2,0.8207857984734801,S19N02,2023-01-23_14h41.45.126,t1_Paradigm,2021.1.4,59.99468798659717,
J,left,Distractor,0,58,58,58,1039.471305850854,1041.4715214299051,left,1,2,0.44273873936299424,S19N02,2023-01-23_14h41.45.126,t1_Paradigm,2021.1.4,59.99468798659717,
H,left,Distractor,0,59,59,59,1042.9714989737538,1044.973199866803,left,1,2,0.4451434723496277,S19N02,2023-01-23_14h41.45.126,t1_Paradigm,2021.1.4,59.99468798659717,
X,left,Pretarget,0,60,60,60,1046.471509239423,1048.4732787841342,left,1,2,0.44874191017152043,S19N02,2023-01-23_14h41.45.126,t1_Paradigm,2021.1.4,59.99468798659717,
P,left,Distractor,0,61,61,61,1049.9714800464264,1051.9732649896414,left,1,2,0.6768851778494991,S19N02,2023-01-23_14h41.45.126,t1_Paradigm,2021.1.4,59.99468798659717,
X,right,Target,0,62,62,62,1053.4715278459482,1055.47393482455,right,1,2,0.4563519789965085,S19N02,2023-01-23_14h41.45.126,t1_Paradigm,2021.1.4,59.99468798659717,
Q,left,Distractor,0,63,63,63,1056.9714421917718,1058.9733647591129,left,1,2,0.5409048417386657,S19N02,2023-01-23_14h41.45.126,t1_Paradigm,2021.1.4,59.99468798659717,
B,left,Pretarget,0,0,0,0,1078.5687366746804,1080.5730950928178,None,0,2,,S19N02,2023-01-23_14h41.45.126,t1_Paradigm,2021.1.4,59.99468798659717,
F,left,Distractor,0,1,1,1,1082.0716700896257,1084.073283082883,None,0,2,,S19N02,2023-01-23_14h41.45.126,t1_Paradigm,2021.1.4,59.99468798659717,
B,right,Target,0,2,2,2,1085.5715128965676,1087.5728795137666,None,0,2,,S19N02,2023-01-23_14h41.45.126,t1_Paradigm,2021.1.4,59.99468798659717,
V,left,Distractor,0,3,3,3,1089.071519954215,1091.073496095517,left,1,2,0.6647299840303731,S19N02,2023-01-23_14h41.45.126,t1_Paradigm,2021.1.4,59.99468798659717,
G,left,Pretarget,0,4,4,4,1092.5715385607405,1094.572967092756,left,1,2,0.6050588575722031,S19N02,2023-01-23_14h41.45.126,t1_Paradigm,2021.1.4,59.99468798659717,
B,left,Lure,0,5,5,5,1096.0715305406864,1098.0729337293315,left,1,2,0.5292783298782524,S19N02,2023-01-23_14h41.45.126,t1_Paradigm,2021.1.4,59.99468798659717,
G,right,Target,0,6,6,6,1099.5715353527187,1101.5725028920315,None,0,2,,S19N02,2023-01-23_14h41.45.126,t1_Paradigm,2021.1.4,59.99468798659717,
Y,left,Pretarget,0,7,7,7,1103.0714439241033,1105.0737046169206,left,1,2,1.112635883774601,S19N02,2023-01-23_14h41.45.126,t1_Paradigm,2021.1.4,59.99468798659717,
P,left,Distractor,0,8,8,8,1106.5713662899807,1108.572164124951,left,1,2,0.5260587594066237,S19N02,2023-01-23_14h41.45.126,t1_Paradigm,2021.1.4,59.99468798659717,
Y,right,Target,0,9,9,9,1110.0715395231468,1112.073011363454,right,1,2,0.6892392690074303,S19N02,2023-01-23_14h41.45.126,t1_Paradigm,2021.1.4,59.99468798659717,
X,left,Distractor,0,10,10,10,1113.5713900293406,1115.5735095692075,left,1,2,1.3166711899771144,S19N02,2023-01-23_14h41.45.126,t1_Paradigm,2021.1.4,59.99468798659717,
Y,right,Target,0,11,11,11,1117.0716360845968,1119.0712241746241,left,0,2,0.747119677811952,S19N02,2023-01-23_14h41.45.126,t1_Paradigm,2021.1.4,59.99468798659717,
N,left,Distractor,0,12,12,12,1120.5715375983339,1122.5844498852491,left,1,2,0.9937671348454842,S19N02,2023-01-23_14h41.45.126,t1_Paradigm,2021.1.4,59.99468798659717,
Y,right,Target,0,13,13,13,1124.0716473126724,1126.072801879644,right,1,2,0.4173661757752143,S19N02,2023-01-23_14h41.45.126,t1_Paradigm,2021.1.4,59.99468798659717,
Y,left,Lure,0,14,14,14,1127.5716277437407,1129.571678751284,left,1,2,0.4704515547034589,S19N02,2023-01-23_14h41.45.126,t1_Paradigm,2021.1.4,59.99468798659717,
K,left,Distractor,0,15,15,15,1131.0714958940532,1133.073290782135,left,1,2,0.48900546839377057,S19N02,2023-01-23_14h41.45.126,t1_Paradigm,2021.1.4,59.99468798659717,
T,left,Pretarget,0,16,16,16,1134.57150134769,1136.5729994937742,left,1,2,0.46131799642353144,S19N02,2023-01-23_14h41.45.126,t1_Paradigm,2021.1.4,59.99468798659717,
J,left,Distractor,0,17,17,17,1138.0715494680137,1140.0732757044334,left,1,2,0.5130550438761929,S19N02,2023-01-23_14h41.45.126,t1_Paradigm,2021.1.4,59.99468798659717,
T,right,Target,0,18,18,18,1141.5715430519706,1143.5726280048736,right,1,2,0.4375369323486211,S19N02,2023-01-23_14h41.45.126,t1_Paradigm,2021.1.4,59.99468798659717,
S,left,Pretarget,0,19,19,19,1145.0716315933666,1147.0730463308894,left,1,2,0.48925922290163726,S19N02,2023-01-23_14h41.45.126,t1_Paradigm,2021.1.4,59.99468798659717,
R,left,Distractor,0,20,20,20,1148.5714894780099,1150.5721843354872,left,1,2,0.4462338788894158,S19N02,2023-01-23_14h41.45.126,t1_Paradigm,2021.1.4,59.99468798659717,
S,right,Target,0,21,21,21,1152.0716630319782,1154.0733889475957,right,1,2,0.56087188894071,S19N02,2023-01-23_14h41.45.126,t1_Paradigm,2021.1.4,59.99468798659717,
Q,left,Distractor,0,22,22,22,1155.5715677537369,1157.5733061806386,left,1,2,0.6130147511248651,S19N02,2023-01-23_14h41.45.126,t1_Paradigm,2021.1.4,59.99468798659717,
D,left,Distractor,0,23,23,23,1159.0714644554416,1161.0736096594812,None,0,2,,S19N02,2023-01-23_14h41.45.126,t1_Paradigm,2021.1.4,59.99468798659717,
F,left,Distractor,0,24,24,24,1162.5716232525103,1164.5732651179621,None,0,2,,S19N02,2023-01-23_14h41.45.126,t1_Paradigm,2021.1.4,59.99468798659717,
Z,left,Distractor,0,25,25,25,1166.0715905306902,1168.0729141603997,None,0,2,,S19N02,2023-01-23_14h41.45.126,t1_Paradigm,2021.1.4,59.99468798659717,
P,left,Distractor,0,26,26,26,1169.5715738489778,1171.5731807469942,left,1,2,0.7571232515479096,S19N02,2023-01-23_14h41.45.126,t1_Paradigm,2021.1.4,59.99468798659717,
H,left,Distractor,0,27,27,27,1173.0714638138372,1175.0733347320308,left,1,2,0.5368742834082241,S19N02,2023-01-23_14h41.45.126,t1_Paradigm,2021.1.4,59.99468798659717,
Z,left,Pretarget,0,28,28,28,1176.5715674329347,1178.5732612683362,left,1,2,0.7169431018874093,S19N02,2023-01-23_14h41.45.126,t1_Paradigm,2021.1.4,59.99468798659717,
J,left,Pretarget,0,29,29,29,1180.0715279742692,1182.0728628320544,left,1,2,0.737352214465318,S19N02,2023-01-23_14h41.45.126,t1_Paradigm,2021.1.4,59.99468798659717,
Z,right,Target,0,30,30,30,1183.57152957828,1185.5735137396357,right,1,2,0.8686915057362512,S19N02,2023-01-23_14h41.45.126,t1_Paradigm,2021.1.4,59.99468798659717,
J,right,Target,0,31,31,31,1187.0715523552333,1189.0735012283515,left,0,2,0.568746940349456,S19N02,2023-01-23_14h41.45.126,t1_Paradigm,2021.1.4,59.99468798659717,
V,left,Pretarget,0,32,32,32,1190.5715250870496,1192.572715583863,None,0,2,,S19N02,2023-01-23_14h41.45.126,t1_Paradigm,2021.1.4,59.99468798659717,
Z,left,Lure,0,33,33,33,1194.0715655081217,1196.0730280451664,left,1,2,1.3932052819434375,S19N02,2023-01-23_14h41.45.126,t1_Paradigm,2021.1.4,59.99468798659717,
V,right,Target,0,34,34,34,1197.5715606960894,1199.5722533079515,right,1,2,0.6779938701122319,S19N02,2023-01-23_14h41.45.126,t1_Paradigm,2021.1.4,59.99468798659717,
X,left,Distractor,0,35,35,35,1201.0707211568383,1203.0729439950005,None,0,2,,S19N02,2023-01-23_14h41.45.126,t1_Paradigm,2021.1.4,59.99468798659717,
S,left,Distractor,0,36,36,36,1204.5713277937216,1206.5842647824031,left,1,2,0.9300670540671945,S19N02,2023-01-23_14h41.45.126,t1_Paradigm,2021.1.4,59.99468798659717,
Q,left,Distractor,0,37,37,37,1208.0714756835173,1210.0733283159875,left,1,2,0.6409992858943951,S19N02,2023-01-23_14h41.45.126,t1_Paradigm,2021.1.4,59.99468798659717,
P,left,Distractor,0,38,38,38,1211.5715225206322,1213.5732946317607,left,1,2,0.9649959931812191,S19N02,2023-01-23_14h41.45.126,t1_Paradigm,2021.1.4,59.99468798659717,
S,left,Lure,0,39,39,39,1215.0716501998918,1217.0715767361971,right,0,2,0.8747504961202139,S19N02,2023-01-23_14h41.45.126,t1_Paradigm,2021.1.4,59.99468798659717,
K,left,Pretarget,0,40,40,40,1218.5713736684306,1220.5731060000912,left,1,2,0.5092512926721611,S19N02,2023-01-23_14h41.45.126,t1_Paradigm,2021.1.4,59.99468798659717,
L,left,Distractor,0,41,41,41,1222.07129635511,1224.073302972617,left,1,2,0.992917650727577,S19N02,2023-01-23_14h41.45.126,t1_Paradigm,2021.1.4,59.99468798659717,
K,right,Target,0,42,42,42,1225.5715286158734,1227.573242661811,right,1,2,0.6772079048218984,S19N02,2023-01-23_14h41.45.126,t1_Paradigm,2021.1.4,59.99468798659717,
B,left,Distractor,0,43,43,43,1229.0716373678056,1231.072962601526,left,1,2,1.3373035808581335,S19N02,2023-01-23_14h41.45.126,t1_Paradigm,2021.1.4,59.99468798659717,
N,left,Distractor,0,44,44,44,1232.5713412674122,1234.5731595740517,left,1,2,1.0850449732547531,S19N02,2023-01-23_14h41.45.126,t1_Paradigm,2021.1.4,59.99468798659717,
S,left,Pretarget,0,45,45,45,1236.0716437838487,1238.0738884365578,left,1,2,0.4163287015917376,S19N02,2023-01-23_14h41.45.126,t1_Paradigm,2021.1.4,59.99468798659717,
Z,left,Distractor,0,46,46,46,1239.5717111523022,1241.5731236442098,left,1,2,0.6292345083033979,S19N02,2023-01-23_14h41.45.126,t1_Paradigm,2021.1.4,59.99468798659717,
S,right,Target,0,47,47,47,1243.0712854478365,1245.084385083213,right,1,2,0.4299528484984876,S19N02,2023-01-23_14h41.45.126,t1_Paradigm,2021.1.4,59.99468798659717,
C,left,Distractor,0,48,48,48,1246.5715655081217,1248.573577258463,left,1,2,1.1486667783060511,S19N02,2023-01-23_14h41.45.126,t1_Paradigm,2021.1.4,59.99468798659717,
T,left,Pretarget,0,49,49,49,1250.0715873226686,1252.0731515539978,left,1,2,0.5292154526550803,S19N02,2023-01-23_14h41.45.126,t1_Paradigm,2021.1.4,59.99468798659717,
S,left,Lure,0,50,50,50,1253.5713842549017,1255.5731698397208,left,1,2,0.9814053444356432,S19N02,2023-01-23_14h41.45.126,t1_Paradigm,2021.1.4,59.99468798659717,
T,right,Target,0,51,51,51,1257.0715356735209,1259.073089959983,right,1,2,0.7771769153332571,S19N02,2023-01-23_14h41.45.126,t1_Paradigm,2021.1.4,59.99468798659717,
N,left,Pretarget,0,52,52,52,1260.5715728865716,1262.572915122806,left,1,2,0.7655603483399318,S19N02,2023-01-23_14h41.45.126,t1_Paradigm,2021.1.4,59.99468798659717,
B,left,Distractor,0,53,53,53,1264.0715424103664,1266.0733729074877,left,1,2,0.4008621878838312,S19N02,2023-01-23_14h41.45.126,t1_Paradigm,2021.1.4,59.99468798659717,
N,right,Target,0,54,54,54,1267.5713133576246,1269.573128456242,right,1,2,0.5971905430087645,S19N02,2023-01-23_14h41.45.126,t1_Paradigm,2021.1.4,59.99468798659717,
N,left,Lure,0,55,55,55,1271.0715533176399,1273.0715372775317,left,1,2,0.6666727619076482,S19N02,2023-01-23_14h41.45.126,t1_Paradigm,2021.1.4,59.99468798659717,
X,left,Distractor,0,56,56,56,1274.571578019406,1276.5730745614796,left,1,2,1.053199905299607,S19N02,2023-01-23_14h41.45.126,t1_Paradigm,2021.1.4,59.99468798659717,
W,left,Distractor,0,57,57,57,1278.0715908514921,1280.0732939901563,left,1,2,0.8972060056730697,S19N02,2023-01-23_14h41.45.126,t1_Paradigm,2021.1.4,59.99468798659717,
S,left,Distractor,0,58,58,58,1281.5717117939066,1283.5734049877037,left,1,2,1.0450646833396604,S19N02,2023-01-23_14h41.45.126,t1_Paradigm,2021.1.4,59.99468798659717,
L,left,Distractor,0,59,59,59,1285.0715905306902,1287.0843934240688,left,1,2,0.5258691653302776,S19N02,2023-01-23_14h41.45.126,t1_Paradigm,2021.1.4,59.99468798659717,
K,left,Pretarget,0,60,60,60,1288.5716453878595,1290.5735650679812,left,1,2,0.7166556631527783,S19N02,2023-01-23_14h41.45.126,t1_Paradigm,2021.1.4,59.99468798659717,
V,left,Pretarget,0,61,61,61,1292.071378480463,1294.0733405064698,left,1,2,0.8488989749089342,S19N02,2023-01-23_14h41.45.126,t1_Paradigm,2021.1.4,59.99468798659717,
K,right,Target,0,62,62,62,1295.5713768764522,1297.573393118024,right,1,2,0.6130080142797851,S19N02,2023-01-23_14h41.45.126,t1_Paradigm,2021.1.4,59.99468798659717,
V,right,Target,0,63,63,63,1299.0715584504742,1301.0732724964118,left,0,2,0.6651239290818012,S19N02,2023-01-23_14h41.45.126,t1_Paradigm,2021.1.4,59.99468798659717,
R,left,Distractor,0,0,0,0,1399.7301040104762,1401.7235958970687,None,0,3,,S19N02,2023-01-23_14h41.45.126,t1_Paradigm,2021.1.4,59.99468798659717,
P,left,Lure,0,1,1,1,1403.2216110941085,1405.2235436063165,None,0,3,,S19N02,2023-01-23_14h41.45.126,t1_Paradigm,2021.1.4,59.99468798659717,
V,left,Distractor,0,2,2,2,1406.721565861004,1408.7223322573627,left,1,3,0.999928461118543,S19N02,2023-01-23_14h41.45.126,t1_Paradigm,2021.1.4,59.99468798659717,
P,left,Pretarget,0,3,3,3,1410.2215466128746,1412.2238730701342,None,0,3,,S19N02,2023-01-23_14h41.45.126,t1_Paradigm,2021.1.4,59.99468798659717,
Z,left,Distractor,0,4,4,4,1413.721612056515,1415.7223746032478,left,1,3,0.8159391194494674,S19N02,2023-01-23_14h41.45.126,t1_Paradigm,2021.1.4,59.99468798659717,
L,left,Pretarget,0,5,5,5,1417.2214166879999,1419.2237598269721,left,1,3,0.8664843868796197,S19N02,2023-01-23_14h41.45.126,t1_Paradigm,2021.1.4,59.99468798659717,
P,right,Target,0,6,6,6,1420.7214423521727,1422.7219187433793,right,1,3,1.1124645754211997,S19N02,2023-01-23_14h41.45.126,t1_Paradigm,2021.1.4,59.99468798659717,
S,left,Distractor,0,7,7,7,1424.2216194349649,1426.223468217809,left,1,3,1.0347252297424347,S19N02,2023-01-23_14h41.45.126,t1_Paradigm,2021.1.4,59.99468798659717,
L,right,Target,0,8,8,8,1427.721736527753,1429.7233758267876,left,0,3,0.8790540570889789,S19N02,2023-01-23_14h41.45.126,t1_Paradigm,2021.1.4,59.99468798659717,
D,left,Distractor,0,9,9,9,1431.221604036461,1433.223608087551,left,1,3,0.7228538816739274,S19N02,2023-01-23_14h41.45.126,t1_Paradigm,2021.1.4,59.99468798659717,
G,left,Distractor,0,10,10,10,1434.7214109135612,1436.723439987219,left,1,3,1.4150108463213655,S19N02,2023-01-23_14h41.45.126,t1_Paradigm,2021.1.4,59.99468798659717,
M,left,Pretarget,0,11,11,11,1438.2215177406802,1440.223536227867,None,0,3,,S19N02,2023-01-23_14h41.45.126,t1_Paradigm,2021.1.4,59.99468798659717,
Y,left,Distractor,0,12,12,12,1441.7217487182352,1443.7235394358886,left,1,3,0.9110771702426064,S19N02,2023-01-23_14h41.45.126,t1_Paradigm,2021.1.4,59.99468798659717,
V,left,Distractor,0,13,13,13,1445.221482773245,1447.2223524678989,right,0,3,1.155987483582976,S19N02,2023-01-23_14h41.45.126,t1_Paradigm,2021.1.4,59.99468798659717,
M,right,Target,0,14,14,14,1448.7217406981808,1450.7231814206789,None,0,3,,S19N02,2023-01-23_14h41.45.126,t1_Paradigm,2021.1.4,59.99468798659717,
S,left,Pretarget,0,15,15,15,1452.2216576104215,1454.224088007581,None,0,3,,S19N02,2023-01-23_14h41.45.126,t1_Paradigm,2021.1.4,59.99468798659717,
Q,left,Distractor,0,16,16,16,1455.7216021116483,1457.7235715161046,left,1,3,0.7667591860094944,S19N02,2023-01-23_14h41.45.126,t1_Paradigm,2021.1.4,59.99468798659717,
R,left,Pretarget,0,17,17,17,1459.2216486279613,1461.2229398566528,left,1,3,1.2514165019347274,S19N02,2023-01-23_14h41.45.126,t1_Paradigm,2021.1.4,59.99468798659717,
S,right,Target,0,18,18,18,1462.7214237456474,1464.7235272454068,right,1,3,0.5507172173875006,S19N02,2023-01-23_14h41.45.126,t1_Paradigm,2021.1.4,59.99468798659717,
F,left,Distractor,0,19,19,19,1466.2213592644134,1468.223807305692,left,1,3,0.5224824569336306,S19N02,2023-01-23_14h41.45.126,t1_Paradigm,2021.1.4,59.99468798659717,
R,right,Target,0,20,20,20,1469.7217243372706,1471.7237617517849,right,1,3,0.55854126125314,S19N02,2023-01-23_14h41.45.126,t1_Paradigm,2021.1.4,59.99468798659717,
P,left,Distractor,0,21,21,21,1473.2213720964996,1475.223423305507,left,1,3,1.026924604434953,S19N02,2023-01-23_14h41.45.126,t1_Paradigm,2021.1.4,59.99468798659717,
L,left,Distractor,0,22,22,22,1476.7214218208346,1478.7231188642577,left,1,3,0.8712643390545054,S19N02,2023-01-23_14h41.45.126,t1_Paradigm,2021.1.4,59.99468798659717,
R,right,Target,0,23,23,23,1480.2217811192531,1482.223479766687,left,0,3,1.2750057263187955,S19N02,2023-01-23_14h41.45.126,t1_Paradigm,2021.1.4,59.99468798659717,
H,left,Pretarget,0,24,24,24,1483.7216335502599,1485.722539495558,None,0,3,,S19N02,2023-01-23_14h41.45.126,t1_Paradigm,2021.1.4,59.99468798659717,
G,left,Pretarget,0,25,25,25,1487.2216877658248,1489.2243116066861,left,1,3,0.9788010725060303,S19N02,2023-01-23_14h41.45.126,t1_Paradigm,2021.1.4,59.99468798659717,
T,left,Distractor,0,26,26,26,1490.7216595352347,1492.7216688384974,left,1,3,1.3846632828458496,S19N02,2023-01-23_14h41.45.126,t1_Paradigm,2021.1.4,59.99468798659717,
H,right,Target,0,27,27,27,1494.221646061544,1496.222088447722,left,0,3,1.4362553277219376,S19N02,2023-01-23_14h41.45.126,t1_Paradigm,2021.1.4,59.99468798659717,
G,right,Target,0,28,28,28,1497.721615585339,1499.7240087694477,right,1,3,0.558451757450257,S19N02,2023-01-23_14h41.45.126,t1_Paradigm,2021.1.4,59.99468798659717,
D,left,Distractor,0,29,29,29,1501.2215767682774,1503.2237046490009,left,1,3,0.4826089941375358,S19N02,2023-01-23_14h41.45.126,t1_Paradigm,2021.1.4,59.99468798659717,
N,left,Pretarget,0,30,30,30,1504.7217544926739,1506.7235458519317,left,1,3,0.5028612344594876,S19N02,2023-01-23_14h41.45.126,t1_Paradigm,2021.1.4,59.99468798659717,
V,left,Distractor,0,31,31,31,1508.2216627432563,1510.223336688924,left,1,3,0.5231083419466813,S19N02,2023-01-23_14h41.45.126,t1_Paradigm,2021.1.4,59.99468798659717,
R,left,Distractor,0,32,32,32,1511.7215632945868,1513.7235946138599,left,1,3,0.8468772797004931,S19N02,2023-01-23_14h41.45.126,t1_Paradigm,2021.1.4,59.99468798659717,
N,right,Target,0,33,33,33,1515.221436898536,1517.2235975010794,None,0,3,,S19N02,2023-01-23_14h41.45.126,t1_Paradigm,2021.1.4,59.99468798659717,
Z,left,Distractor,0,34,34,34,1518.7216858410115,1520.7226354154036,left,1,3,0.7277531722520507,S19N02,2023-01-23_14h41.45.126,t1_Paradigm,2021.1.4,59.99468798659717,
N,left,Lure,0,35,35,35,1522.2217840064727,1524.223517942144,right,0,3,0.8909994462951545,S19N02,2023-01-23_14h41.45.126,t1_Paradigm,2021.1.4,59.99468798659717,
Y,left,Pretarget,0,36,36,36,1525.721497209342,1527.7236700023677,left,1,3,0.4789710976506285,S19N02,2023-01-23_14h41.45.126,t1_Paradigm,2021.1.4,59.99468798659717,
Y,left,Lure,0,37,37,37,1529.221704447537,1531.2216021116483,left,1,3,1.3488495713763768,S19N02,2023-01-23_14h41.45.126,t1_Paradigm,2021.1.4,59.99468798659717,
B,left,Distractor,0,38,38,38,1532.7214715451692,1534.7237408996448,left,1,3,0.5344438862484822,S19N02,2023-01-23_14h41.45.126,t1_Paradigm,2021.1.4,59.99468798659717,
Y,right,Target,0,39,39,39,1536.2214635251153,1538.2237447492707,right,1,3,1.1948109609115818,S19N02,2023-01-23_14h41.45.126,t1_Paradigm,2021.1.4,59.99468798659717,
J,left,Distractor,0,40,40,40,1539.7217945929438,1541.7224567286007,left,1,3,0.9279282660709214,S19N02,2023-01-23_14h41.45.126,t1_Paradigm,2021.1.4,59.99468798659717,
X,left,Distractor,0,41,41,41,1543.2214811692343,1545.2236177116156,left,1,3,0.9312379819489252,S19N02,2023-01-23_14h41.45.126,t1_Paradigm,2021.1.4,59.99468798659717,
W,left,Pretarget,0,42,42,42,1546.7217188836344,1548.7231711550098,left,1,3,1.1913357111188816,S19N02,2023-01-23_14h41.45.126,t1_Paradigm,2021.1.4,59.99468798659717,
S,left,Pretarget,0,43,43,43,1550.22171086358,1552.2235124885074,left,1,3,0.618887034652289,S19N02,2023-01-23_14h41.45.126,t1_Paradigm,2021.1.4,59.99468798659717,
R,left,Distractor,0,44,44,44,1553.721465129126,1555.7236254108675,left,1,3,1.1507561627695395,S19N02,2023-01-23_14h41.45.126,t1_Paradigm,2021.1.4,59.99468798659717,
W,right,Target,0,45,45,45,1557.2213797957515,1559.222380377687,left,0,3,1.0921446458437458,S19N02,2023-01-23_14h41.45.126,t1_Paradigm,2021.1.4,59.99468798659717,
S,right,Target,0,46,46,46,1560.7217920265266,1562.721575805871,right,1,3,0.44060444259639553,S19N02,2023-01-23_14h41.45.126,t1_Paradigm,2021.1.4,59.99468798659717,
D,left,Distractor,0,47,47,47,1564.2217676455625,1566.2242936417651,left,1,3,0.7140029500965284,S19N02,2023-01-23_14h41.45.126,t1_Paradigm,2021.1.4,59.99468798659717,
T,left,Distractor,0,48,48,48,1567.721672367321,1569.7237306339757,left,1,3,1.1826493510493492,S19N02,2023-01-23_14h41.45.126,t1_Paradigm,2021.1.4,59.99468798659717,
S,right,Target,0,49,49,49,1571.2216162269433,1573.2236860424755,None,0,3,,S19N02,2023-01-23_14h41.45.126,t1_Paradigm,2021.1.4,59.99468798659717,
K,left,Distractor,0,50,50,50,1574.7216524775872,1576.7236744935976,left,1,3,0.7108459360460984,S19N02,2023-01-23_14h41.45.126,t1_Paradigm,2021.1.4,59.99468798659717,
S,left,Lure,0,51,51,51,1578.2214577506766,1580.2234967692016,None,0,3,,S19N02,2023-01-23_14h41.45.126,t1_Paradigm,2021.1.4,59.99468798659717,
T,left,Pretarget,0,52,52,52,1581.72167814176,1583.7230819720094,right,0,3,1.2634716054803903,S19N02,2023-01-23_14h41.45.126,t1_Paradigm,2021.1.4,59.99468798659717,
V,left,Distractor,0,53,53,53,1585.2215982620223,1587.2229350446205,left,1,3,0.5795983941925442,S19N02,2023-01-23_14h41.45.126,t1_Paradigm,2021.1.4,59.99468798659717,
B,left,Distractor,0,54,54,54,1588.7212582117331,1590.7239818220664,left,1,3,0.8225360950550566,S19N02,2023-01-23_14h41.45.126,t1_Paradigm,2021.1.4,59.99468798659717,
T,right,Target,0,55,55,55,1592.2218372596308,1594.223202272819,right,1,3,0.8752910477592195,S19N02,2023-01-23_14h41.45.126,t1_Paradigm,2021.1.4,59.99468798659717,
Y,left,Pretarget,0,56,56,56,1595.721511003835,1597.7221343224305,left,1,3,0.6563756541959265,S19N02,2023-01-23_14h41.45.126,t1_Paradigm,2021.1.4,59.99468798659717,
T,left,Lure,0,57,57,57,1599.2215677858171,1601.222920287721,left,1,3,0.9476470124013758,S19N02,2023-01-23_14h41.45.126,t1_Paradigm,2021.1.4,59.99468798659717,
P,left,Pretarget,0,58,58,58,1602.7216637056626,1604.7218199363142,left,1,3,1.016708659669348,S19N02,2023-01-23_14h41.45.126,t1_Paradigm,2021.1.4,59.99468798659717,
Y,right,Target,0,59,59,59,1606.2217076555585,1608.2236760976084,None,0,3,,S19N02,2023-01-23_14h41.45.126,t1_Paradigm,2021.1.4,59.99468798659717,
R,left,Distractor,0,60,60,60,1609.7214022519029,1611.7236350349322,left,1,3,1.0068366148184396,S19N02,2023-01-23_14h41.45.126,t1_Paradigm,2021.1.4,59.99468798659717,
P,right,Target,0,61,61,61,1613.2216072444826,1615.2224121371005,right,1,3,0.8679539815721,S19N02,2023-01-23_14h41.45.126,t1_Paradigm,2021.1.4,59.99468798659717,
L,left,Distractor,0,62,62,62,1616.7216775001557,1618.7221718562832,left,1,3,0.8882055802891955,S19N02,2023-01-23_14h41.45.126,t1_Paradigm,2021.1.4,59.99468798659717,
V,left,Distractor,0,63,63,63,1620.2216338710618,1622.2230681775163,left,1,3,0.683285180929488,S19N02,2023-01-23_14h41.45.126,t1_Paradigm,2021.1.4,59.99468798659717,
H,left,Lure,0,0,0,0,1630.4367689319788,1632.4402021566889,None,0,3,,S19N02,2023-01-23_14h41.45.126,t1_Paradigm,2021.1.4,59.99468798659717,
B,left,Distractor,0,1,1,1,1633.938058877462,1635.9390899356022,None,0,3,,S19N02,2023-01-23_14h41.45.126,t1_Paradigm,2021.1.4,59.99468798659717,
T,left,Distractor,0,2,2,2,1637.4380938448971,1639.43922627652,left,1,3,0.8593045137508852,S19N02,2023-01-23_14h41.45.126,t1_Paradigm,2021.1.4,59.99468798659717,
R,left,Distractor,0,3,3,3,1640.9384704666322,1642.9397472592268,left,1,3,1.150604744150769,S19N02,2023-01-23_14h41.45.126,t1_Paradigm,2021.1.4,59.99468798659717,
H,left,Pretarget,0,4,4,4,1644.4381570429227,1646.4396988181006,right,0,3,1.186741503394387,S19N02,2023-01-23_14h41.45.126,t1_Paradigm,2021.1.4,59.99468798659717,
K,left,Distractor,0,5,5,5,1647.93840470219,1649.9393359908586,left,1,3,0.7591981999148629,S19N02,2023-01-23_14h41.45.126,t1_Paradigm,2021.1.4,59.99468798659717,
G,left,Distractor,0,6,6,6,1651.4381955391818,1653.4403307983548,left,1,3,0.6980314937895855,S19N02,2023-01-23_14h41.45.126,t1_Paradigm,2021.1.4,59.99468798659717,
H,right,Target,0,7,7,7,1654.9383912284989,1656.9401505075411,right,1,3,0.9102366685851848,S19N02,2023-01-23_14h41.45.126,t1_Paradigm,2021.1.4,59.99468798659717,
Y,left,Pretarget,0,8,8,8,1658.4383982861464,1660.4390831987566,left,1,3,0.5156211403491398,S19N02,2023-01-23_14h41.45.126,t1_Paradigm,2021.1.4,59.99468798659717,
S,left,Distractor,0,9,9,9,1661.9381717998222,1663.9401636604298,left,1,3,0.5503274427642282,S19N02,2023-01-23_14h41.45.126,t1_Paradigm,2021.1.4,59.99468798659717,
P,left,Distractor,0,10,10,10,1665.4383774340063,1667.4389888829219,left,1,3,0.8116034782651695,S19N02,2023-01-23_14h41.45.126,t1_Paradigm,2021.1.4,59.99468798659717,
Y,right,Target,0,11,11,11,1668.9384640505891,1670.9396798907733,right,1,3,0.7988256074550009,S19N02,2023-01-23_14h41.45.126,t1_Paradigm,2021.1.4,59.99468798659717,
H,left,Lure,0,12,12,12,1672.4383982861464,1674.4401511491455,left,1,3,0.8181770353135107,S19N02,2023-01-23_14h41.45.126,t1_Paradigm,2021.1.4,59.99468798659717,
Q,left,Distractor,0,13,13,13,1675.9384589177548,1677.9400353395658,left,1,3,0.5343845378492915,S19N02,2023-01-23_14h41.45.126,t1_Paradigm,2021.1.4,59.99468798659717,
V,left,Pretarget,0,14,14,14,1679.4383822460386,1681.4406281819565,left,1,3,0.8419311520069641,S19N02,2023-01-23_14h41.45.126,t1_Paradigm,2021.1.4,59.99468798659717,
G,left,Distractor,0,15,15,15,1682.9382770229304,1684.9387421860615,left,1,3,0.7516705772450223,S19N02,2023-01-23_14h41.45.126,t1_Paradigm,2021.1.4,59.99468798659717,
Z,left,Pretarget,0,16,16,16,1686.438304611916,1688.439952572609,left,1,3,0.5149176212134989,S19N02,2023-01-23_14h41.45.126,t1_Paradigm,2021.1.4,59.99468798659717,
V,right,Target,0,17,17,17,1689.9384140054522,1691.9402181967966,right,1,3,0.6624529303030613,S19N02,2023-01-23_14h41.45.126,t1_Paradigm,2021.1.4,59.99468798659717,
N,left,Distractor,0,18,18,18,1693.438354657053,1695.4390434192892,left,1,3,0.6353852481051945,S19N02,2023-01-23_14h41.45.126,t1_Paradigm,2021.1.4,59.99468798659717,
Z,right,Target,0,19,19,19,1696.9381753286457,1698.9407696557087,right,1,3,1.4377842708131539,S19N02,2023-01-23_14h41.45.126,t1_Paradigm,2021.1.4,59.99468798659717,
R,left,Distractor,0,20,20,20,1700.4384772034778,1702.4387806823206,left,1,3,0.7075814532722688,S19N02,2023-01-23_14h41.45.126,t1_Paradigm,2021.1.4,59.99468798659717,
P,left,Distractor,0,21,21,21,1703.9384124014414,1705.9405412445712,left,1,3,1.3179604938554803,S19N02,2023-01-23_14h41.45.126,t1_Paradigm,2021.1.4,59.99468798659717,
Z,right,Target,0,22,22,22,1707.4383103863547,1709.4389073991733,None,0,3,,S19N02,2023-01-23_14h41.45.126,t1_Paradigm,2021.1.4,59.99468798659717,
D,left,Pretarget,0,23,23,23,1710.9383569026681,1712.940283319635,left,1,3,0.7341875011629782,S19N02,2023-01-23_14h41.45.126,t1_Paradigm,2021.1.4,59.99468798659717,
K,left,Distractor,0,24,24,24,1714.4384127222438,1716.4403064173907,left,1,3,0.8821074520415095,S19N02,2023-01-23_14h41.45.126,t1_Paradigm,2021.1.4,59.99468798659717,
W,left,Distractor,0,25,25,25,1717.9384521809093,1719.9405726831828,left,1,3,0.5818914880283046,S19N02,2023-01-23_14h41.45.126,t1_Paradigm,2021.1.4,59.99468798659717,
D,right,Target,0,26,26,26,1721.4383485618118,1723.4394171538047,left,0,3,1.0510264706695125,S19N02,2023-01-23_14h41.45.126,t1_Paradigm,2021.1.4,59.99468798659717,
G,left,Pretarget,0,27,27,27,1724.9385805017732,1726.9384444816574,left,1,3,0.7519997202607556,S19N02,2023-01-23_14h41.45.126,t1_Paradigm,2021.1.4,59.99468798659717,
V,left,Distractor,0,28,28,28,1728.4384030981792,1730.4400318107423,left,1,3,0.6905173448103596,S19N02,2023-01-23_14h41.45.126,t1_Paradigm,2021.1.4,59.99468798659717,
D,right,Target,0,29,29,29,1731.9382038800381,1733.9404770841393,right,1,3,1.1741163344117922,S19N02,2023-01-23_14h41.45.126,t1_Paradigm,2021.1.4,59.99468798659717,
G,right,Target,0,30,30,30,1735.438511850111,1737.4386950281441,right,1,3,0.6837384743803341,S19N02,2023-01-23_14h41.45.126,t1_Paradigm,2021.1.4,59.99468798659717,
B,left,Pretarget,0,31,31,31,1738.9381788574697,1740.9546039280299,left,1,3,0.5280804546150648,S19N02,2023-01-23_14h41.45.126,t1_Paradigm,2021.1.4,59.99468798659717,
N,left,Distractor,0,32,32,32,1742.4385612536435,1744.4389760508357,left,1,3,0.707423618609937,S19N02,2023-01-23_14h41.45.126,t1_Paradigm,2021.1.4,59.99468798659717,
F,left,Distractor,0,33,33,33,1745.9384229879129,1747.939639469701,left,1,3,1.0310212480098926,S19N02,2023-01-23_14h41.45.126,t1_Paradigm,2021.1.4,59.99468798659717,
B,right,Target,0,34,34,34,1749.438514095726,1751.4393385572757,left,0,3,0.5392212720062162,S19N02,2023-01-23_14h41.45.126,t1_Paradigm,2021.1.4,59.99468798659717,
Q,left,Pretarget,0,35,35,35,1752.9383617147005,1754.9405406029668,left,1,3,0.605904812866811,S19N02,2023-01-23_14h41.45.126,t1_Paradigm,2021.1.4,59.99468798659717,
S,left,Pretarget,0,36,36,36,1756.4384197798913,1758.440076402242,left,1,3,0.9625434606723502,S19N02,2023-01-23_14h41.45.126,t1_Paradigm,2021.1.4,59.99468798659717,
W,left,Distractor,0,37,37,37,1759.9381868775235,1761.9398797505187,left,1,3,0.6787779105898153,S19N02,2023-01-23_14h41.45.126,t1_Paradigm,2021.1.4,59.99468798659717,
Q,right,Target,0,38,38,38,1763.4381252835087,1765.4403086630055,right,1,3,0.8582574155025213,S19N02,2023-01-23_14h41.45.126,t1_Paradigm,2021.1.4,59.99468798659717,
S,right,Target,0,39,39,39,1766.9381522308904,1768.940186437383,left,0,3,0.8784416457660882,S19N02,2023-01-23_14h41.45.126,t1_Paradigm,2021.1.4,59.99468798659717,
T,left,Distractor,0,40,40,40,1770.4383678099416,1772.440315720653,left,1,3,0.8821815573405729,S19N02,2023-01-23_14h41.45.126,t1_Paradigm,2021.1.4,59.99468798659717,
G,left,Distractor,0,41,41,41,1773.938237564265,1775.9403240615093,left,1,3,0.982172382398403,S19N02,2023-01-23_14h41.45.126,t1_Paradigm,2021.1.4,59.99468798659717,
D,left,Distractor,0,42,42,42,1777.4383482410099,1779.4406692446328,right,0,3,1.3219432526643686,S19N02,2023-01-23_14h41.45.126,t1_Paradigm,2021.1.4,59.99468798659717,
S,left,Lure,0,43,43,43,1780.9383783964126,1782.951367996648,left,1,3,1.043128963109666,S19N02,2023-01-23_14h41.45.126,t1_Paradigm,2021.1.4,59.99468798659717,
Z,left,Pretarget,0,44,44,44,1784.4384502560965,1786.4403086630055,left,1,3,0.7060740039255506,S19N02,2023-01-23_14h41.45.126,t1_Paradigm,2021.1.4,59.99468798659717,
J,left,Distractor,0,45,45,45,1787.9383819252366,1789.9402602218797,left,1,3,0.8702566994716108,S19N02,2023-01-23_14h41.45.126,t1_Paradigm,2021.1.4,59.99468798659717,
M,left,Pretarget,0,46,46,46,1791.438521794978,1793.4383475994055,left,1,3,0.7166688160409649,S19N02,2023-01-23_14h41.45.126,t1_Paradigm,2021.1.4,59.99468798659717,
Z,right,Target,0,47,47,47,1794.9384627673808,1796.9402416153544,right,1,3,0.830423657747815,S19N02,2023-01-23_14h41.45.126,t1_Paradigm,2021.1.4,59.99468798659717,
P,left,Distractor,0,48,48,48,1798.438415609463,1800.4399403821267,left,1,3,0.6585494096279945,S19N02,2023-01-23_14h41.45.126,t1_Paradigm,2021.1.4,59.99468798659717,
M,right,Target,0,49,49,49,1801.9383764716,1803.940564983931,right,1,3,0.837971170151377,S19N02,2023-01-23_14h41.45.126,t1_Paradigm,2021.1.4,59.99468798659717,
K,left,Distractor,0,50,50,50,1805.4383706971607,1807.4399714999363,left,1,3,0.7466513066592597,S19N02,2023-01-23_14h41.45.126,t1_Paradigm,2021.1.4,59.99468798659717,
Y,left,Distractor,0,51,51,51,1808.938439669625,1810.9399217756013,left,1,3,0.5109659802142232,S19N02,2023-01-23_14h41.45.126,t1_Paradigm,2021.1.4,59.99468798659717,
X,left,Distractor,0,52,52,52,1812.4381320203543,1814.4400757606381,left,1,3,0.8664539106744087,S19N02,2023-01-23_14h41.45.126,t1_Paradigm,2021.1.4,59.99468798659717,
F,left,Pretarget,0,53,53,53,1815.9385262862083,1817.9403952795888,left,1,3,0.5340958159058573,S19N02,2023-01-23_14h41.45.126,t1_Paradigm,2021.1.4,59.99468798659717,
M,left,Lure,0,54,54,54,1819.4385121709133,1821.440584873665,left,1,3,0.8418868813091649,S19N02,2023-01-23_14h41.45.126,t1_Paradigm,2021.1.4,59.99468798659717,
V,left,Distractor,0,55,55,55,1822.9384338951863,1824.9403461968582,left,1,3,0.4945239071389551,S19N02,2023-01-23_14h41.45.126,t1_Paradigm,2021.1.4,59.99468798659717,
F,right,Target,0,56,56,56,1826.438453464118,1828.439489975895,left,0,3,0.5152381025704926,S19N02,2023-01-23_14h41.45.126,t1_Paradigm,2021.1.4,59.99468798659717,
S,left,Distractor,0,57,57,57,1829.9384322911756,1831.940262467495,left,1,3,1.046412373210842,S19N02,2023-01-23_14h41.45.126,t1_Paradigm,2021.1.4,59.99468798659717,
D,left,Distractor,0,58,58,58,1833.43832899288,1835.4408893149143,left,1,3,0.873771407930235,S19N02,2023-01-23_14h41.45.126,t1_Paradigm,2021.1.4,59.99468798659717,
F,right,Target,0,59,59,59,1836.9385051132658,1838.9404061868622,right,1,3,0.5741271133647388,S19N02,2023-01-23_14h41.45.126,t1_Paradigm,2021.1.4,59.99468798659717,
V,left,Pretarget,0,60,60,60,1840.4381002609402,1842.4405588886898,left,1,3,0.5461217264546576,S19N02,2023-01-23_14h41.45.126,t1_Paradigm,2021.1.4,59.99468798659717,
J,left,Distractor,0,61,61,61,1843.9384409528338,1845.95130736504,left,1,3,0.5232068282098226,S19N02,2023-01-23_14h41.45.126,t1_Paradigm,2021.1.4,59.99468798659717,
V,left,Lure,0,62,62,62,1847.4384069478047,1849.4410022372745,left,1,3,0.5216169327077296,S19N02,2023-01-23_14h41.45.126,t1_Paradigm,2021.1.4,59.99468798659717,
V,right,Target,0,63,63,63,1850.9384377448123,1852.9384236295173,left,0,3,0.89644570455539,S19N02,2023-01-23_14h41.45.126,t1_Paradigm,2021.1.4,59.99468798659717,
R,left,Distractor,0,0,0,0,1953.5362012404776,1955.539991517991,None,0,4,,S19N02,2023-01-23_14h41.45.126,t1_Paradigm,2021.1.4,59.99468798659717,
F,left,Distractor,0,1,1,1,1957.0384369107264,1959.0408345860656,left,1,4,0.3940441795903098,S19N02,2023-01-23_14h41.45.126,t1_Paradigm,2021.1.4,59.99468798659717,
P,left,Pretarget,0,2,2,2,1960.538432419496,1962.539518655608,left,1,4,0.47915010525548496,S19N02,2023-01-23_14h41.45.126,t1_Paradigm,2021.1.4,59.99468798659717,
H,left,Distractor,0,3,3,3,1964.0385020335648,1966.0406979243457,left,1,4,0.6259042610868164,S19N02,2023-01-23_14h41.45.126,t1_Paradigm,2021.1.4,59.99468798659717,
Z,left,Distractor,0,4,4,4,1967.5384798982159,1969.5387711865765,left,1,4,0.5357710447819954,S19N02,2023-01-23_14h41.45.126,t1_Paradigm,2021.1.4,59.99468798659717,
T,left,Distractor,0,5,5,5,1971.0384372315289,1973.040813092321,left,1,4,0.5697539383277217,S19N02,2023-01-23_14h41.45.126,t1_Paradigm,2021.1.4,59.99468798659717,
P,right,Target,0,6,6,6,1974.5552453398673,1976.5403007712725,right,1,4,0.8464509336304218,S19N02,2023-01-23_14h41.45.126,t1_Paradigm,2021.1.4,59.99468798659717,
G,left,Distractor,0,7,7,7,1978.0386370912738,1980.0389646302788,left,1,4,0.5797754769846506,S19N02,2023-01-23_14h41.45.126,t1_Paradigm,2021.1.4,59.99468798659717,
L,left,Distractor,0,8,8,8,1981.5385639483816,1983.5402260243695,left,1,4,0.5023171539974101,S19N02,2023-01-23_14h41.45.126,t1_Paradigm,2021.1.4,59.99468798659717,
P,left,Lure,0,9,9,9,1985.0384834270399,1987.0398827660588,right,0,4,0.8908416116332774,S19N02,2023-01-23_14h41.45.126,t1_Paradigm,2021.1.4,59.99468798659717,
Q,left,Pretarget,0,10,10,10,1988.538232880553,1990.5385767804682,left,1,4,0.5920682949299589,S19N02,2023-01-23_14h41.45.126,t1_Paradigm,2021.1.4,59.99468798659717,
D,left,Distractor,0,11,11,11,1992.038421833025,1994.0403803302079,left,1,4,0.8821985598551692,S19N02,2023-01-23_14h41.45.126,t1_Paradigm,2021.1.4,59.99468798659717,
M,left,Pretarget,0,12,12,12,1995.538524810518,1997.5402581045855,left,1,4,0.6147573484545319,S19N02,2023-01-23_14h41.45.126,t1_Paradigm,2021.1.4,59.99468798659717,
C,left,Distractor,0,13,13,13,1999.0384487804063,2001.0513559344872,left,1,4,0.6551687964724806,S19N02,2023-01-23_14h41.45.126,t1_Paradigm,2021.1.4,59.99468798659717,
Q,right,Target,0,14,14,14,2002.5383782039312,2004.5390964799662,left,0,4,0.6074023173464411,S19N02,2023-01-23_14h41.45.126,t1_Paradigm,2021.1.4,59.99468798659717,
R,left,Distractor,0,15,15,15,2006.0384455723847,2008.0397050416627,left,1,4,0.707033202382263,S19N02,2023-01-23_14h41.45.126,t1_Paradigm,2021.1.4,59.99468798659717,
M,right,Target,0,16,16,16,2009.5384686701404,2011.5390647205522,left,0,4,0.8555254643133594,S19N02,2023-01-23_14h41.45.126,t1_Paradigm,2021.1.4,59.99468798659717,
S,left,Distractor,0,17,17,17,2013.0384337027049,2015.040044450347,left,1,4,0.7149082537903269,S19N02,2023-01-23_14h41.45.126,t1_Paradigm,2021.1.4,59.99468798659717,
Z,left,Distractor,0,18,18,18,2016.5382569407152,2018.540340229938,None,0,4,,S19N02,2023-01-23_14h41.45.126,t1_Paradigm,2021.1.4,59.99468798659717,
L,left,Pretarget,0,19,19,19,2020.0383708254817,2022.051425869358,left,1,4,0.6151929977872896,S19N02,2023-01-23_14h41.45.126,t1_Paradigm,2021.1.4,59.99468798659717,
M,right,Target,0,20,20,20,2023.5386245799896,2025.5404332625644,right,1,4,0.486172464523861,S19N02,2023-01-23_14h41.45.126,t1_Paradigm,2021.1.4,59.99468798659717,
P,left,Distractor,0,21,21,21,2027.0385232065073,2029.051492596207,left,1,4,0.7672734318712173,S19N02,2023-01-23_14h41.45.126,t1_Paradigm,2021.1.4,59.99468798659717,
F,left,Distractor,0,22,22,22,2030.5381921386788,2032.5400874378365,left,1,4,0.8945911472719672,S19N02,2023-01-23_14h41.45.126,t1_Paradigm,2021.1.4,59.99468798659717,
L,right,Target,0,23,23,23,2034.0381860434377,2036.0403444003664,left,0,4,0.9945803683194754,S19N02,2023-01-23_14h41.45.126,t1_Paradigm,2021.1.4,59.99468798659717,
L,left,Lure,0,24,24,24,2037.5386056526622,2039.5385280185396,left,1,4,1.1762079644909136,S19N02,2023-01-23_14h41.45.126,t1_Paradigm,2021.1.4,59.99468798659717,
V,left,Pretarget,0,25,25,25,2041.0384491012087,2043.0402917888123,left,1,4,1.338440503710899,S19N02,2023-01-23_14h41.45.126,t1_Paradigm,2021.1.4,59.99468798659717,
Z,left,Distractor,0,26,26,26,2044.5384510260214,2046.5389803495846,left,1,4,1.0397451419321442,S19N02,2023-01-23_14h41.45.126,t1_Paradigm,2021.1.4,59.99468798659717,
H,left,Distractor,0,27,27,27,2048.0385896125545,2050.039142996279,left,1,4,0.6596940317322151,S19N02,2023-01-23_14h41.45.126,t1_Paradigm,2021.1.4,59.99468798659717,
X,left,Distractor,0,28,28,28,2051.538532188968,2053.5405099342806,left,1,4,0.6302447143029895,S19N02,2023-01-23_14h41.45.126,t1_Paradigm,2021.1.4,59.99468798659717,
V,right,Target,0,29,29,29,2055.0384930511045,2057.0392924900857,right,1,4,1.0353453403167805,S19N02,2023-01-23_14h41.45.126,t1_Paradigm,2021.1.4,59.99468798659717,
C,left,Distractor,0,30,30,30,2058.5386345248567,2060.539033923545,left,1,4,0.751490607233336,S19N02,2023-01-23_14h41.45.126,t1_Paradigm,2021.1.4,59.99468798659717,
S,left,Pretarget,0,31,31,31,2062.0383403492765,2064.0401464654337,left,1,4,0.5626440000692128,S19N02,2023-01-23_14h41.45.126,t1_Paradigm,2021.1.4,59.99468798659717,
D,left,Distractor,0,32,32,32,2065.538492088698,2067.540490365349,left,1,4,0.5660589390558926,S19N02,2023-01-23_14h41.45.126,t1_Paradigm,2021.1.4,59.99468798659717,
V,left,Distractor,0,33,33,33,2069.0382957577763,2071.0388969410233,right,0,4,0.9558428659693163,S19N02,2023-01-23_14h41.45.126,t1_Paradigm,2021.1.4,59.99468798659717,
R,left,Distractor,0,34,34,34,2072.53851614886,2074.554952126694,left,1,4,0.975734845466377,S19N02,2023-01-23_14h41.45.126,t1_Paradigm,2021.1.4,59.99468798659717,
S,right,Target,0,35,35,35,2076.0381321486752,2078.0401156684266,left,0,4,0.8665065222285193,S19N02,2023-01-23_14h41.45.126,t1_Paradigm,2021.1.4,59.99468798659717,
Y,left,Distractor,0,36,36,36,2079.5384917678957,2081.540418184863,left,1,4,1.1262526522318694,S19N02,2023-01-23_14h41.45.126,t1_Paradigm,2021.1.4,59.99468798659717,
N,left,Pretarget,0,37,37,37,2083.0385472666694,2085.039096800768,left,1,4,0.7159694673337071,S19N02,2023-01-23_14h41.45.126,t1_Paradigm,2021.1.4,59.99468798659717,
Z,left,Pretarget,0,38,38,38,2086.5384292114745,2088.5390846102864,left,1,4,0.4636938572161853,S19N02,2023-01-23_14h41.45.126,t1_Paradigm,2021.1.4,59.99468798659717,
P,left,Pretarget,0,39,39,39,2090.0384991463457,2092.0400207109874,left,1,4,1.0104924762267729,S19N02,2023-01-23_14h41.45.126,t1_Paradigm,2021.1.4,59.99468798659717,
M,left,Distractor,0,40,40,40,2093.5383884696002,2095.540406315183,left,1,4,0.8063628541899561,S19N02,2023-01-23_14h41.45.126,t1_Paradigm,2021.1.4,59.99468798659717,
N,right,Target,0,41,41,41,2097.0383140434997,2099.0398702547745,right,1,4,1.2268048810692562,S19N02,2023-01-23_14h41.45.126,t1_Paradigm,2021.1.4,59.99468798659717,
Z,right,Target,0,42,42,42,2100.538535076187,2102.539470856086,right,1,4,0.8793755008523476,S19N02,2023-01-23_14h41.45.126,t1_Paradigm,2021.1.4,59.99468798659717,
P,right,Target,0,43,43,43,2104.0385013919604,2106.040261312607,left,0,4,0.8344102661822035,S19N02,2023-01-23_14h41.45.126,t1_Paradigm,2021.1.4,59.99468798659717,
X,left,Pretarget,0,44,44,44,2107.538431777892,2109.540857363019,None,0,4,,S19N02,2023-01-23_14h41.45.126,t1_Paradigm,2021.1.4,59.99468798659717,
Z,left,Lure,0,45,45,45,2111.0382954369743,2113.039489141809,left,1,4,1.0831477492843078,S19N02,2023-01-23_14h41.45.126,t1_Paradigm,2021.1.4,59.99468798659717,
R,left,Pretarget,0,46,46,46,2114.538546625065,2116.5405939844463,left,1,4,1.006105827499141,S19N02,2023-01-23_14h41.45.126,t1_Paradigm,2021.1.4,59.99468798659717,
K,left,Distractor,0,47,47,47,2118.038506845597,2120.0391936830206,left,1,4,0.7235583632159432,S19N02,2023-01-23_14h41.45.126,t1_Paradigm,2021.1.4,59.99468798659717,
X,right,Target,0,48,48,48,2121.538346123715,2123.5406183654104,right,1,4,0.72629223921831,S19N02,2023-01-23_14h41.45.126,t1_Paradigm,2021.1.4,59.99468798659717,
B,left,Distractor,0,49,49,49,2125.0385498330866,2127.0401920193403,left,1,4,0.6985598549463248,S19N02,2023-01-23_14h41.45.126,t1_Paradigm,2021.1.4,59.99468798659717,
R,right,Target,0,50,50,50,2128.5385844797197,2130.540428450532,left,0,4,1.0862383572875842,S19N02,2023-01-23_14h41.45.126,t1_Paradigm,2021.1.4,59.99468798659717,
Y,left,Pretarget,0,51,51,51,2132.038530264155,2134.0392260840385,left,1,4,0.7075561099013612,S19N02,2023-01-23_14h41.45.126,t1_Paradigm,2021.1.4,59.99468798659717,
W,left,Pretarget,0,52,52,52,2135.538550474691,2137.539257201848,left,1,4,0.6795247380168803,S19N02,2023-01-23_14h41.45.126,t1_Paradigm,2021.1.4,59.99468798659717,
Z,left,Distractor,0,53,53,53,2139.038069271452,2141.0408807815766,left,1,4,0.8739022952108826,S19N02,2023-01-23_14h41.45.126,t1_Paradigm,2021.1.4,59.99468798659717,
Q,left,Distractor,0,54,54,54,2142.5384009808845,2144.5404191472694,left,1,4,1.070220384667664,S19N02,2023-01-23_14h41.45.126,t1_Paradigm,2021.1.4,59.99468798659717,
Y,right,Target,0,55,55,55,2146.0382274269164,2148.040278315121,right,1,4,0.8664205472496178,S19N02,2023-01-23_14h41.45.126,t1_Paradigm,2021.1.4,59.99468798659717,
W,right,Target,0,56,56,56,2149.538599236619,2151.5392876780534,left,0,4,1.2553938071068842,S19N02,2023-01-23_14h41.45.126,t1_Paradigm,2021.1.4,59.99468798659717,
H,left,Pretarget,0,57,57,57,2153.03854437945,2155.040463417967,left,1,4,0.8423026409077465,S19N02,2023-01-23_14h41.45.126,t1_Paradigm,2021.1.4,59.99468798659717,
M,left,Distractor,0,58,58,58,2156.5385155072554,2158.5408384356915,left,1,4,0.8141621962886347,S19N02,2023-01-23_14h41.45.126,t1_Paradigm,2021.1.4,59.99468798659717,
R,left,Pretarget,0,59,59,59,2160.03861720154,2162.0407091524216,left,1,4,0.9461328262095776,S19N02,2023-01-23_14h41.45.126,t1_Paradigm,2021.1.4,59.99468798659717,
J,left,Distractor,0,60,60,60,2163.5384250410466,2165.539063437344,left,1,4,0.6636806401670583,S19N02,2023-01-23_14h41.45.126,t1_Paradigm,2021.1.4,59.99468798659717,
H,right,Target,0,61,61,61,2167.038305061039,2169.040492931766,right,1,4,0.4423897066135396,S19N02,2023-01-23_14h41.45.126,t1_Paradigm,2021.1.4,59.99468798659717,
Z,left,Distractor,0,62,62,62,2170.5384853518526,2172.5405115382914,left,1,4,0.7020296511018387,S19N02,2023-01-23_14h41.45.126,t1_Paradigm,2021.1.4,59.99468798659717,
R,right,Target,0,63,63,63,2174.038474765381,2176.040436149784,right,1,4,0.45025096352947,S19N02,2023-01-23_14h41.45.126,t1_Paradigm,2021.1.4,59.99468798659717,
J,left,Pretarget,0,0,0,0,2200.620630594389,2202.6237163903597,left,1,4,1.179118923284932,S19N02,2023-01-23_14h41.45.126,t1_Paradigm,2021.1.4,59.99468798659717,
G,left,Pretarget,0,1,1,1,2204.1216571612986,2206.1236073176256,left,1,4,0.39906345017607237,S19N02,2023-01-23_14h41.45.126,t1_Paradigm,2021.1.4,59.99468798659717,
Z,left,Distractor,0,2,2,2,2207.6216273266978,2209.6237080495034,left,1,4,0.6271598807388727,S19N02,2023-01-23_14h41.45.126,t1_Paradigm,2021.1.4,59.99468798659717,
F,left,Distractor,0,3,3,3,2211.121892950886,2213.123642285061,left,1,4,0.8551693739159418,S19N02,2023-01-23_14h41.45.126,t1_Paradigm,2021.1.4,59.99468798659717,
J,right,Target,0,4,4,4,2214.6216767302303,2216.6238485608496,left,0,4,1.338958599198122,S19N02,2023-01-23_14h41.45.126,t1_Paradigm,2021.1.4,59.99468798659717,
G,right,Target,0,5,5,5,2218.121891346875,2220.1237847212196,right,1,4,1.3112335933756185,S19N02,2023-01-23_14h41.45.126,t1_Paradigm,2021.1.4,59.99468798659717,
H,left,Distractor,0,6,6,6,2221.62184900099,2223.623661853993,left,1,4,0.5472846342822777,S19N02,2023-01-23_14h41.45.126,t1_Paradigm,2021.1.4,59.99468798659717,
P,left,Distractor,0,7,7,7,2225.122006194048,2227.123437292481,left,1,4,0.5352882375318586,S19N02,2023-01-23_14h41.45.126,t1_Paradigm,2021.1.4,59.99468798659717,
G,left,Lure,0,8,8,8,2228.621829111256,2230.6220337830337,left,1,4,0.6205693211759353,S19N02,2023-01-23_14h41.45.126,t1_Paradigm,2021.1.4,59.99468798659717,
S,left,Distractor,0,9,9,9,2232.12163951718,2234.123852089673,left,1,4,0.5589900634740843,S19N02,2023-01-23_14h41.45.126,t1_Paradigm,2021.1.4,59.99468798659717,
R,left,Pretarget,0,10,10,10,2235.6216632565397,2237.623885453098,left,1,4,0.5312474135325829,S19N02,2023-01-23_14h41.45.126,t1_Paradigm,2021.1.4,59.99468798659717,
T,left,Pretarget,0,11,11,11,2239.121867286713,2241.124232881836,left,1,4,0.6146838847603249,S19N02,2023-01-23_14h41.45.126,t1_Paradigm,2021.1.4,59.99468798659717,
X,left,Distractor,0,12,12,12,2242.621810504731,2244.622622134194,left,1,4,0.5239533348349141,S19N02,2023-01-23_14h41.45.126,t1_Paradigm,2021.1.4,59.99468798659717,
F,left,Pretarget,0,13,13,13,2246.1215798479784,2248.134903724064,left,1,4,0.8519690515740876,S19N02,2023-01-23_14h41.45.126,t1_Paradigm,2021.1.4,59.99468798659717,
R,right,Target,0,14,14,14,2249.6219654521738,2251.623992601019,right,1,4,1.2187110425879837,S19N02,2023-01-23_14h41.45.126,t1_Paradigm,2021.1.4,59.99468798659717,
T,right,Target,0,15,15,15,2253.121638233971,2255.1220209509474,right,1,4,0.6808214203451826,S19N02,2023-01-23_14h41.45.126,t1_Paradigm,2021.1.4,59.99468798659717,
C,left,Distractor,0,16,16,16,2256.621864720296,2258.624282926973,left,1,4,0.4745866945377202,S19N02,2023-01-23_14h41.45.126,t1_Paradigm,2021.1.4,59.99468798659717,
F,right,Target,0,17,17,17,2260.121913161422,2262.1229913774796,right,1,4,0.9277755642428929,S19N02,2023-01-23_14h41.45.126,t1_Paradigm,2021.1.4,59.99468798659717,
M,left,Distractor,0,18,18,18,2263.621882685217,2265.624135037178,left,1,4,0.8025799551264754,S19N02,2023-01-23_14h41.45.126,t1_Paradigm,2021.1.4,59.99468798659717,
N,left,Distractor,0,19,19,19,2267.1218627954827,2269.1233291821536,left,1,4,0.48742904658229236,S19N02,2023-01-23_14h41.45.126,t1_Paradigm,2021.1.4,59.99468798659717,
R,left,Lure,0,20,20,20,2270.6220068356524,2272.623832841544,left,1,4,0.682854022826632,S19N02,2023-01-23_14h41.45.126,t1_Paradigm,2021.1.4,59.99468798659717,
F,right,Target,0,21,21,21,2274.1217652716264,2276.120935035638,left,0,4,0.6738362741266428,S19N02,2023-01-23_14h41.45.126,t1_Paradigm,2021.1.4,59.99468798659717,
P,left,Distractor,0,22,22,22,2277.6218496425945,2279.6225303847764,left,1,4,0.6922054057731657,S19N02,2023-01-23_14h41.45.126,t1_Paradigm,2021.1.4,59.99468798659717,
L,left,Pretarget,0,23,23,23,2281.1220167805195,2283.122699126712,left,1,4,0.6801862320694454,S19N02,2023-01-23_14h41.45.126,t1_Paradigm,2021.1.4,59.99468798659717,
T,left,Distractor,0,24,24,24,2284.6218903844688,2286.622742435004,left,1,4,1.099929231043916,S19N02,2023-01-23_14h41.45.126,t1_Paradigm,2021.1.4,59.99468798659717,
F,left,Distractor,0,25,25,25,2288.1218615122743,2290.122704259547,right,0,4,0.9123433763656976,S19N02,2023-01-23_14h41.45.126,t1_Paradigm,2021.1.4,59.99468798659717,
V,left,Distractor,0,26,26,26,2291.6219192566627,2293.6225489913018,left,1,4,0.5803811514615518,S19N02,2023-01-23_14h41.45.126,t1_Paradigm,2021.1.4,59.99468798659717,
L,right,Target,0,27,27,27,2295.1218319984755,2297.123696821428,left,0,4,0.6149905716247304,S19N02,2023-01-23_14h41.45.126,t1_Paradigm,2021.1.4,59.99468798659717,
S,left,Pretarget,0,28,28,28,2298.6217918982056,2300.6235226258555,left,1,4,0.6351510625290757,S19N02,2023-01-23_14h41.45.126,t1_Paradigm,2021.1.4,59.99468798659717,
W,left,Distractor,0,29,29,29,2302.1219988155985,2304.1347231124482,left,1,4,0.612097898553202,S19N02,2023-01-23_14h41.45.126,t1_Paradigm,2021.1.4,59.99468798659717,
Q,left,Distractor,0,30,30,30,2305.6219513368787,2307.624284530984,left,1,4,0.5785224237497459,S19N02,2023-01-23_14h41.45.126,t1_Paradigm,2021.1.4,59.99468798659717,
L,right,Target,0,31,31,31,2309.1220045900372,2311.1226449111473,right,1,4,0.8241981710425534,S19N02,2023-01-23_14h41.45.126,t1_Paradigm,2021.1.4,59.99468798659717,
S,right,Target,0,32,32,32,2312.6219064245765,2314.6240625358896,right,1,4,0.6346862201999102,S19N02,2023-01-23_14h41.45.126,t1_Paradigm,2021.1.4,59.99468798659717,
Z,left,Pretarget,0,33,33,33,2316.1220007404113,2318.123863638551,left,1,4,0.670895480731815,S19N02,2023-01-23_14h41.45.126,t1_Paradigm,2021.1.4,59.99468798659717,
F,left,Distractor,0,34,34,34,2319.621818524785,2321.624010245138,left,1,4,0.7867483685604384,S19N02,2023-01-23_14h41.45.126,t1_Paradigm,2021.1.4,59.99468798659717,
V,left,Distractor,0,35,35,35,2323.1218794771953,2325.1229737333606,left,1,4,0.7277663251402373,S19N02,2023-01-23_14h41.45.126,t1_Paradigm,2021.1.4,59.99468798659717,
M,left,Distractor,0,36,36,36,2326.62203025421,2328.623227487869,left,1,4,0.7319194298956972,S19N02,2023-01-23_14h41.45.126,t1_Paradigm,2021.1.4,59.99468798659717,
Z,right,Target,0,37,37,37,2330.1220389158684,2332.122949994001,right,1,4,0.9919446577778217,S19N02,2023-01-23_14h41.45.126,t1_Paradigm,2021.1.4,59.99468798659717,
H,left,Pretarget,0,38,38,38,2333.6218663243067,2335.6224893221,left,1,4,0.5963279060024433,S19N02,2023-01-23_14h41.45.126,t1_Paradigm,2021.1.4,59.99468798659717,
L,left,Distractor,0,39,39,39,2337.1220212717494,2339.1347077139444,left,1,4,1.0682070303150795,S19N02,2023-01-23_14h41.45.126,t1_Paradigm,2021.1.4,59.99468798659717,
G,left,Distractor,0,40,40,40,2340.621827186443,2342.62254129205,left,1,4,0.380360363481941,S19N02,2023-01-23_14h41.45.126,t1_Paradigm,2021.1.4,59.99468798659717,
K,left,Distractor,0,41,41,41,2344.1218833268213,2346.124354786657,left,1,4,0.7823976496752039,S19N02,2023-01-23_14h41.45.126,t1_Paradigm,2021.1.4,59.99468798659717,
H,right,Target,0,42,42,42,2347.622019988541,2349.622732169335,left,0,4,0.9160473580982398,S19N02,2023-01-23_14h41.45.126,t1_Paradigm,2021.1.4,59.99468798659717,
B,left,Distractor,0,43,43,43,2351.1219388255945,2353.1236913677913,left,1,4,0.6632218930794807,S19N02,2023-01-23_14h41.45.126,t1_Paradigm,2021.1.4,59.99468798659717,
Z,left,Distractor,0,44,44,44,2354.6219385047925,2356.623692651,left,1,4,0.6830365592554699,S19N02,2023-01-23_14h41.45.126,t1_Paradigm,2021.1.4,59.99468798659717,
T,left,Pretarget,0,45,45,45,2358.1217133016767,2360.1236496635106,left,1,4,0.49525982729301177,S19N02,2023-01-23_14h41.45.126,t1_Paradigm,2021.1.4,59.99468798659717,
H,right,Target,0,46,46,46,2361.6219231062887,2363.623879678659,right,1,4,0.5468906892306222,S19N02,2023-01-23_14h41.45.126,t1_Paradigm,2021.1.4,59.99468798659717,
F,left,Distractor,0,47,47,47,2365.1216542740794,2367.123986505778,left,1,4,0.4708480661724934,S19N02,2023-01-23_14h41.45.126,t1_Paradigm,2021.1.4,59.99468798659717,
R,left,Distractor,0,48,48,48,2368.6217418530687,2370.6231408712856,left,1,4,0.6356621003687906,S19N02,2023-01-23_14h41.45.126,t1_Paradigm,2021.1.4,59.99468798659717,
T,right,Target,0,49,49,49,2372.1219343343646,2374.134694881858,left,0,4,0.46823128295818606,S19N02,2023-01-23_14h41.45.126,t1_Paradigm,2021.1.4,59.99468798659717,
H,right,Target,0,50,50,50,2375.621957752922,2377.6227719488024,right,1,4,0.6759400946880305,S19N02,2023-01-23_14h41.45.126,t1_Paradigm,2021.1.4,59.99468798659717,
Y,left,Pretarget,0,51,51,51,2379.1218900636663,2381.1237940244823,left,1,4,0.5190030367134568,S19N02,2023-01-23_14h41.45.126,t1_Paradigm,2021.1.4,59.99468798659717,
H,left,Distractor,0,52,52,52,2382.62192920153,2384.6232509064266,left,1,4,0.8916705644128342,S19N02,2023-01-23_14h41.45.126,t1_Paradigm,2021.1.4,59.99468798659717,
S,left,Distractor,0,53,53,53,2386.1220456527135,2388.122044690307,left,1,4,1.248787849040582,S19N02,2023-01-23_14h41.45.126,t1_Paradigm,2021.1.4,59.99468798659717,
Q,left,Distractor,0,54,54,54,2389.621771046065,2391.6238411823997,left,1,4,0.5312355438527447,S19N02,2023-01-23_14h41.45.126,t1_Paradigm,2021.1.4,59.99468798659717,
Y,right,Target,0,55,55,55,2393.121895838105,2395.122000098807,left,0,4,0.7769234816273638,S19N02,2023-01-23_14h41.45.126,t1_Paradigm,2021.1.4,59.99468798659717,
R,left,Distractor,0,56,56,56,2396.621881081206,2398.623949934332,left,1,4,0.8270138515954386,S19N02,2023-01-23_14h41.45.126,t1_Paradigm,2021.1.4,59.99468798659717,
H,left,Pretarget,0,57,57,57,2400.1220902442137,2402.123862355342,left,1,4,0.8630684854865649,S19N02,2023-01-23_14h41.45.126,t1_Paradigm,2021.1.4,59.99468798659717,
J,left,Distractor,0,58,58,58,2403.6218836476232,2405.6226352870826,left,1,4,0.9163562905773688,S19N02,2023-01-23_14h41.45.126,t1_Paradigm,2021.1.4,59.99468798659717,
V,left,Distractor,0,59,59,59,2407.1218400185294,2409.1240160195766,right,0,4,0.8228921854520195,S19N02,2023-01-23_14h41.45.126,t1_Paradigm,2021.1.4,59.99468798659717,
Y,left,Lure,0,60,60,60,2410.6219205398716,2412.6238549768927,right,0,4,1.1313181183281813,S19N02,2023-01-23_14h41.45.126,t1_Paradigm,2021.1.4,59.99468798659717,
H,right,Target,0,61,61,61,2414.1220068356524,2416.1236278489637,right,1,4,0.7671396573705351,S19N02,2023-01-23_14h41.45.126,t1_Paradigm,2021.1.4,59.99468798659717,
L,left,Distractor,0,62,62,62,2417.622035707847,2419.622322184175,left,1,4,0.8044531189348163,S19N02,2023-01-23_14h41.45.126,t1_Paradigm,2021.1.4,59.99468798659717,
P,left,Distractor,0,63,63,63,2421.1219484496596,2423.1225791467045,left,1,4,0.4562897433775106,S19N02,2023-01-23_14h41.45.126,t1_Paradigm,2021.1.4,59.99468798659717,
