Letter,CorrAnswer,Stimulus,finaln_nback_run.thisRepN,finaln_nback_run.thisTrialN,finaln_nback_run.thisN,finaln_nback_run.thisIndex,finaln_fixcross.started,finaln_nback_trial.started,finaln_trial_resp.keys,finaln_trial_resp.corr,finaln_trial_resp.rt,finaln_level,finaln_money,Participant,date,expName,psychopyVersion,frameRate,
F,left,Distractor,0,0,0,0,2691.482121672714,2693.486506723042,left,1,0.4832467273226939,1,1.85,S19R04,2022-11-02_16h14.48.263,t1_Paradigm,2021.1.4,60.055293112664266,
T,left,Pretarget,0,1,1,1,2694.9846848852467,2696.9855164054898,left,1,0.42435539537109435,1,1.85,S19R04,2022-11-02_16h14.48.263,t1_Paradigm,2021.1.4,60.055293112664266,
B,left,Distractor,0,2,2,2,2698.484658900241,2700.4870267439983,left,1,0.682736522925552,1,1.85,S19R04,2022-11-02_16h14.48.263,t1_Paradigm,2021.1.4,60.055293112664266,
T,right,Target,0,3,3,3,2701.9847006045748,2703.9867755555897,right,1,0.5753058371483348,1,1.85,S19R04,2022-11-02_16h14.48.263,t1_Paradigm,2021.1.4,60.055293112664266,
Z,left,Distractor,0,4,4,4,2705.4847561034258,2707.4866578210494,left,1,0.4830770227708854,1,1.85,S19R04,2022-11-02_16h14.48.263,t1_Paradigm,2021.1.4,60.055293112664266,
T,right,Target,0,5,5,5,2708.9847403840977,2710.9869731700164,right,1,0.5668311956105754,1,1.85,S19R04,2022-11-02_16h14.48.263,t1_Paradigm,2021.1.4,60.055293112664266,
L,left,Distractor,0,6,6,6,2712.4848003741936,2714.4869414105196,left,1,0.5869487248710357,1,1.85,S19R04,2022-11-02_16h14.48.263,t1_Paradigm,2021.1.4,60.055293112664266,
T,right,Target,0,7,7,7,2715.984615912719,2717.9860216695815,right,1,0.5598056192975491,1,1.85,S19R04,2022-11-02_16h14.48.263,t1_Paradigm,2021.1.4,60.055293112664266,
Z,left,Lure,0,8,8,8,2719.484718890337,2721.486684126896,left,1,0.5314033636823297,1,1.85,S19R04,2022-11-02_16h14.48.263,t1_Paradigm,2021.1.4,60.055293112664266,
J,left,Distractor,0,9,9,9,2722.9849322240334,2724.986913500703,left,1,0.566912037844304,1,1.85,S19R04,2022-11-02_16h14.48.263,t1_Paradigm,2021.1.4,60.055293112664266,
D,left,Pretarget,0,10,10,10,2726.484804544598,2728.4867271144176,left,1,0.6355496727046557,1,1.85,S19R04,2022-11-02_16h14.48.263,t1_Paradigm,2021.1.4,60.055293112664266,
H,left,Distractor,0,11,11,11,2729.984835341631,2731.9868114854908,left,1,0.5430363065097481,1,1.85,S19R04,2022-11-02_16h14.48.263,t1_Paradigm,2021.1.4,60.055293112664266,
D,right,Target,0,12,12,12,2733.4846925844904,2735.4865997558227,right,1,0.4192796570714563,1,1.85,S19R04,2022-11-02_16h14.48.263,t1_Paradigm,2021.1.4,60.055293112664266,
S,left,Distractor,0,13,13,13,2736.984928695194,2738.9871184935328,left,1,0.5511012831702828,1,1.85,S19R04,2022-11-02_16h14.48.263,t1_Paradigm,2021.1.4,60.055293112664266,
R,left,Pretarget,0,14,14,14,2740.484759632265,2742.486864417908,left,1,0.7632169055286795,1,1.85,S19R04,2022-11-02_16h14.48.263,t1_Paradigm,2021.1.4,60.055293112664266,
Z,left,Distractor,0,15,15,15,2743.984715040715,2745.986564788327,right,0,0.6870477886986919,1,1.85,S19R04,2022-11-02_16h14.48.263,t1_Paradigm,2021.1.4,60.055293112664266,
R,right,Target,0,16,16,16,2747.4838610642473,2749.4860659403494,right,1,0.676105533784721,1,1.85,S19R04,2022-11-02_16h14.48.263,t1_Paradigm,2021.1.4,60.055293112664266,
T,left,Distractor,0,17,17,17,2750.9847285143915,2752.98742486001,left,1,0.6950078628724441,1,1.85,S19R04,2022-11-02_16h14.48.263,t1_Paradigm,2021.1.4,60.055293112664266,
M,left,Distractor,0,18,18,18,2754.484716323903,2756.486790633353,left,1,1.0831106429104693,1,1.85,S19R04,2022-11-02_16h14.48.263,t1_Paradigm,2021.1.4,60.055293112664266,
R,left,Lure,0,19,19,19,2757.9847795219976,2759.9873533210484,left,1,0.5266051196376793,1,1.85,S19R04,2022-11-02_16h14.48.263,t1_Paradigm,2021.1.4,60.055293112664266,
J,left,Distractor,0,20,20,20,2761.4846861684346,2763.4867383425008,left,1,0.5316754042869434,1,1.85,S19R04,2022-11-02_16h14.48.263,t1_Paradigm,2021.1.4,60.055293112664266,
K,left,Distractor,0,21,21,21,2764.9848083942197,2766.9866145127453,left,1,0.48734915058594197,1,1.85,S19R04,2022-11-02_16h14.48.263,t1_Paradigm,2021.1.4,60.055293112664266,
Z,left,Distractor,0,22,22,22,2768.4846175166895,2770.486832016846,left,1,0.7473076644237153,1,1.85,S19R04,2022-11-02_16h14.48.263,t1_Paradigm,2021.1.4,60.055293112664266,
W,left,Pretarget,0,23,23,23,2771.9847403840977,2773.9867030542227,left,1,0.5273076772573404,1,1.85,S19R04,2022-11-02_16h14.48.263,t1_Paradigm,2021.1.4,60.055293112664266,
Q,left,Distractor,0,24,24,24,2775.4848709507496,2777.486802503001,left,1,0.4670949595165439,1,1.85,S19R04,2022-11-02_16h14.48.263,t1_Paradigm,2021.1.4,60.055293112664266,
W,right,Target,0,25,25,25,2778.9847885044874,2780.9870450297603,right,1,0.5508674180600792,1,1.85,S19R04,2022-11-02_16h14.48.263,t1_Paradigm,2021.1.4,60.055293112664266,
D,left,Pretarget,0,26,26,26,2782.4847204943653,2784.4867062622798,left,1,0.5712345317006111,1,1.85,S19R04,2022-11-02_16h14.48.263,t1_Paradigm,2021.1.4,60.055293112664266,
W,right,Target,0,27,27,27,2785.9848584394203,2787.9867133199004,left,0,0.6711757606826723,1,1.85,S19R04,2022-11-02_16h14.48.263,t1_Paradigm,2021.1.4,60.055293112664266,
D,right,Target,0,28,28,28,2789.4849800236407,2791.486835866468,right,1,0.5792789769475348,1,1.85,S19R04,2022-11-02_16h14.48.263,t1_Paradigm,2021.1.4,60.055293112664266,
L,left,Pretarget,0,29,29,29,2792.9841132150614,2794.985948205751,left,1,0.6483195399050601,1,1.85,S19R04,2022-11-02_16h14.48.263,t1_Paradigm,2021.1.4,60.055293112664266,
P,left,Distractor,0,30,30,30,2796.484757065831,2798.486859285098,left,1,0.6990820555365644,1,1.85,S19R04,2022-11-02_16h14.48.263,t1_Paradigm,2021.1.4,60.055293112664266,
L,right,Target,0,31,31,31,2799.9847788804327,2801.9869301824365,right,1,0.6549277520389296,1,1.85,S19R04,2022-11-02_16h14.48.263,t1_Paradigm,2021.1.4,60.055293112664266,
R,left,Distractor,0,32,32,32,2803.484768614697,2805.4858356040786,left,1,0.7082640667213127,1,1.85,S19R04,2022-11-02_16h14.48.263,t1_Paradigm,2021.1.4,60.055293112664266,
V,left,Distractor,0,33,33,33,2806.9848135270877,2808.983955700998,left,1,0.6341554647660814,1,1.85,S19R04,2022-11-02_16h14.48.263,t1_Paradigm,2021.1.4,60.055293112664266,
L,left,Lure,0,34,34,34,2810.484862609883,2812.4869635459036,left,1,0.8753242512466386,1,1.85,S19R04,2022-11-02_16h14.48.263,t1_Paradigm,2021.1.4,60.055293112664266,
H,left,Distractor,0,35,35,35,2813.984911692678,2815.9839675707044,left,1,0.6418213630095124,1,1.85,S19R04,2022-11-02_16h14.48.263,t1_Paradigm,2021.1.4,60.055293112664266,
K,left,Pretarget,0,36,36,36,2817.4848459281493,2819.486550352187,left,1,0.5796328221913427,1,1.85,S19R04,2022-11-02_16h14.48.263,t1_Paradigm,2021.1.4,60.055293112664266,
F,left,Distractor,0,37,37,37,2820.9848735171836,2822.98687372118,left,1,0.5991129167377949,1,1.85,S19R04,2022-11-02_16h14.48.263,t1_Paradigm,2021.1.4,60.055293112664266,
K,right,Target,0,38,38,38,2824.484771181131,2826.487174954789,right,1,0.586941346351523,1,1.85,S19R04,2022-11-02_16h14.48.263,t1_Paradigm,2021.1.4,60.055293112664266,
S,left,Pretarget,0,39,39,39,2827.9849530762294,2829.9869086886756,left,1,0.6388930771499872,1,1.85,S19R04,2022-11-02_16h14.48.263,t1_Paradigm,2021.1.4,60.055293112664266,
W,left,Distractor,0,40,40,40,2831.484955963446,2833.487006212643,left,1,0.8509631455526687,1,1.85,S19R04,2022-11-02_16h14.48.263,t1_Paradigm,2021.1.4,60.055293112664266,
S,right,Target,0,41,41,41,2834.984724343987,2836.986988568504,right,1,0.5030511532677338,1,1.85,S19R04,2022-11-02_16h14.48.263,t1_Paradigm,2021.1.4,60.055293112664266,
F,left,Pretarget,0,42,42,42,2838.484185395646,2840.4840631698607,left,1,0.7981497391010635,1,1.85,S19R04,2022-11-02_16h14.48.263,t1_Paradigm,2021.1.4,60.055293112664266,
Y,left,Distractor,0,43,43,43,2841.9849610962556,2843.987224358425,left,1,0.8949108521919698,1,1.85,S19R04,2022-11-02_16h14.48.263,t1_Paradigm,2021.1.4,60.055293112664266,
F,right,Target,0,44,44,44,2845.484917467111,2847.4868746835855,right,1,0.5151563175022602,1,1.85,S19R04,2022-11-02_16h14.48.263,t1_Paradigm,2021.1.4,60.055293112664266,
F,left,Lure,0,45,45,45,2848.9849238831666,2850.9848764044,left,1,1.0171841105329804,1,1.85,S19R04,2022-11-02_16h14.48.263,t1_Paradigm,2021.1.4,60.055293112664266,
B,left,Pretarget,0,46,46,46,2852.4849511513603,2854.4841414457187,left,1,0.7180828709970228,1,1.85,S19R04,2022-11-02_16h14.48.263,t1_Paradigm,2021.1.4,60.055293112664266,
W,left,Distractor,0,47,47,47,2855.9850878132856,2857.9874056118424,left,1,1.022776340949349,1,1.85,S19R04,2022-11-02_16h14.48.263,t1_Paradigm,2021.1.4,60.055293112664266,
B,right,Target,0,48,48,48,2859.4847557826433,2861.486425560026,right,1,0.5156285388511606,1,1.85,S19R04,2022-11-02_16h14.48.263,t1_Paradigm,2021.1.4,60.055293112664266,
R,left,Pretarget,0,49,49,49,2862.9849610962556,2864.986632798449,left,1,0.6154411259922199,1,1.85,S19R04,2022-11-02_16h14.48.263,t1_Paradigm,2021.1.4,60.055293112664266,
N,left,Distractor,0,50,50,50,2866.4840596410213,2868.4868993854034,left,1,0.5550952751655132,1,1.85,S19R04,2022-11-02_16h14.48.263,t1_Paradigm,2021.1.4,60.055293112664266,
R,right,Target,0,51,51,51,2869.9849562842282,2871.9868477361742,right,1,0.49539552070200443,1,1.85,S19R04,2022-11-02_16h14.48.263,t1_Paradigm,2021.1.4,60.055293112664266,
V,left,Distractor,0,52,52,52,2873.4849739283673,2875.486924728786,left,1,0.5633877008222044,1,1.85,S19R04,2022-11-02_16h14.48.263,t1_Paradigm,2021.1.4,60.055293112664266,
G,left,Distractor,0,53,53,53,2876.9849764948012,2878.9876067550504,left,1,0.854578269761987,1,1.85,S19R04,2022-11-02_16h14.48.263,t1_Paradigm,2021.1.4,60.055293112664266,
H,left,Distractor,0,54,54,54,2880.485064394714,2882.4840695859166,left,1,0.6061439466429874,1,1.85,S19R04,2022-11-02_16h14.48.263,t1_Paradigm,2021.1.4,60.055293112664266,
V,left,Lure,0,55,55,55,2883.9848728755605,2885.9875592762837,left,1,0.5425740299979225,1,1.85,S19R04,2022-11-02_16h14.48.263,t1_Paradigm,2021.1.4,60.055293112664266,
L,left,Distractor,0,56,56,56,2887.484869988344,2889.4868897613487,left,1,0.611418261716608,1,1.85,S19R04,2022-11-02_16h14.48.263,t1_Paradigm,2021.1.4,60.055293112664266,
K,left,Distractor,0,57,57,57,2890.9849890060723,2892.9870658819564,left,1,0.6951227101380937,1,1.85,S19R04,2022-11-02_16h14.48.263,t1_Paradigm,2021.1.4,60.055293112664266,
D,left,Pretarget,0,58,58,58,2894.4851439537597,2896.4870681275497,left,1,0.7472855290398002,1,1.85,S19R04,2022-11-02_16h14.48.263,t1_Paradigm,2021.1.4,60.055293112664266,
T,left,Pretarget,0,59,59,59,2897.985066319525,2899.9870854509063,left,1,0.6388712625484914,1,1.85,S19R04,2022-11-02_16h14.48.263,t1_Paradigm,2021.1.4,60.055293112664266,
D,right,Target,0,60,60,60,2901.485052204225,2903.4868570394465,right,1,0.5954111758619547,1,1.85,S19R04,2022-11-02_16h14.48.263,t1_Paradigm,2021.1.4,60.055293112664266,
T,right,Target,0,61,61,61,2904.9842322328477,2906.987215055153,right,1,0.5356135766487569,1,1.85,S19R04,2022-11-02_16h14.48.263,t1_Paradigm,2021.1.4,60.055293112664266,
T,left,Lure,0,62,62,62,2908.484705416602,2910.485043542518,right,0,0.7010989412665367,1,1.85,S19R04,2022-11-02_16h14.48.263,t1_Paradigm,2021.1.4,60.055293112664266,
F,left,Distractor,0,63,63,63,2911.985008895863,2913.9866016806336,left,1,0.7195056303753518,1,1.85,S19R04,2022-11-02_16h14.48.263,t1_Paradigm,2021.1.4,60.055293112664266,
