Letter,CorrAnswer,Stimulus,nback_run.thisRepN,nback_run.thisTrialN,nback_run.thisN,nback_run.thisIndex,fixcross.started,nback_trial.started,trial_resp.keys,trial_resp.corr,currentlevel,trial_resp.rt,Participant,date,expName,psychopyVersion,frameRate,
H,left,Distractor,0,0,0,0,83.50707465910818,85.46504984307103,None,0,1,,S19R04,2022-11-02_16h14.48.263,t1_Paradigm,2021.1.4,60.055293112664266,
Q,left,Pretarget,0,1,1,1,86.96381379076047,88.96696728008101,left,1,1,0.5982130655320361,S19R04,2022-11-02_16h14.48.263,t1_Paradigm,2021.1.4,60.055293112664266,
Q,right,Target,0,2,2,2,90.46383303892799,92.46385549509432,right,1,1,0.445676896662917,S19R04,2022-11-02_16h14.48.263,t1_Paradigm,2021.1.4,60.055293112664266,
T,left,Distractor,0,3,3,3,93.963672316866,95.9660096843727,left,1,1,0.7031953861005604,S19R04,2022-11-02_16h14.48.263,t1_Paradigm,2021.1.4,60.055293112664266,
Q,left,Lure,0,4,4,4,97.46379390102811,99.4660639000358,right,0,1,0.8991236315341666,S19R04,2022-11-02_16h14.48.263,t1_Paradigm,2021.1.4,60.055293112664266,
L,left,Distractor,0,5,5,5,100.96386287355563,102.96586371923331,left,1,1,0.6473256935132667,S19R04,2022-11-02_16h14.48.263,t1_Paradigm,2021.1.4,60.055293112664266,
V,left,Pretarget,0,6,6,6,104.46381667803507,106.46677832736168,left,1,1,0.4907246352522634,S19R04,2022-11-02_16h14.48.263,t1_Paradigm,2021.1.4,60.055293112664266,
V,right,Target,0,7,7,7,107.96386223199079,109.9638141116011,right,1,1,0.4975503516034223,S19R04,2022-11-02_16h14.48.263,t1_Paradigm,2021.1.4,60.055293112664266,
K,left,Distractor,0,8,8,8,111.46417629771167,113.4657495134743,left,1,1,0.5477877133525908,S19R04,2022-11-02_16h14.48.263,t1_Paradigm,2021.1.4,60.055293112664266,
G,left,Pretarget,0,9,9,9,114.96390393632464,116.96567893691827,left,1,1,0.5035535300266929,S19R04,2022-11-02_16h14.48.263,t1_Paradigm,2021.1.4,60.055293112664266,
G,right,Target,0,10,10,10,118.46397387125762,120.46398285374744,right,1,1,0.4774427672382444,S19R04,2022-11-02_16h14.48.263,t1_Paradigm,2021.1.4,60.055293112664266,
G,right,Target,0,11,11,11,121.96383785095531,123.96406497916905,right,1,1,0.5451487914542668,S19R04,2022-11-02_16h14.48.263,t1_Paradigm,2021.1.4,60.055293112664266,
P,left,Pretarget,0,12,12,12,125.46388276334619,127.4657671576133,left,1,1,0.6116861319169402,S19R04,2022-11-02_16h14.48.263,t1_Paradigm,2021.1.4,60.055293112664266,
P,right,Target,0,13,13,13,128.9640319365426,130.96401653799694,right,1,1,0.4733150005340576,S19R04,2022-11-02_16h14.48.263,t1_Paradigm,2021.1.4,60.055293112664266,
G,left,Lure,0,14,14,14,132.46386287355563,134.46320202026982,left,1,1,0.382270910020452,S19R04,2022-11-02_16h14.48.263,t1_Paradigm,2021.1.4,60.055293112664266,
Y,left,Distractor,0,15,15,15,135.96387217682786,137.96634331904352,left,1,1,0.6709983568289317,S19R04,2022-11-02_16h14.48.263,t1_Paradigm,2021.1.4,60.055293112664266,
B,left,Distractor,0,16,16,16,139.46399504423607,141.46595065668225,left,1,1,0.627652475843206,S19R04,2022-11-02_16h14.48.263,t1_Paradigm,2021.1.4,60.055293112664266,
T,left,Pretarget,0,17,17,17,142.96392125962302,144.96591151878238,left,1,1,0.7434288405347615,S19R04,2022-11-02_16h14.48.263,t1_Paradigm,2021.1.4,60.055293112664266,
T,right,Target,0,18,18,18,146.46384266304085,148.46388661296805,right,1,1,0.7013690570602193,S19R04,2022-11-02_16h14.48.263,t1_Paradigm,2021.1.4,60.055293112664266,
S,left,Distractor,0,19,19,19,149.96391259797383,151.96690632757964,left,1,1,0.5423975886078551,S19R04,2022-11-02_16h14.48.263,t1_Paradigm,2021.1.4,60.055293112664266,
T,left,Lure,0,20,20,20,153.46394820703426,155.46613191015786,left,1,1,0.49917649978306144,S19R04,2022-11-02_16h14.48.263,t1_Paradigm,2021.1.4,60.055293112664266,
J,left,Distractor,0,21,21,21,156.96405375108588,158.96664487349335,left,1,1,0.6628663324518129,S19R04,2022-11-02_16h14.48.263,t1_Paradigm,2021.1.4,60.055293112664266,
P,left,Distractor,0,22,22,22,160.46388821699657,162.46614185505314,left,1,1,0.7793603325262666,S19R04,2022-11-02_16h14.48.263,t1_Paradigm,2021.1.4,60.055293112664266,
F,left,Distractor,0,23,23,23,163.96378235210432,165.96604689746164,left,1,1,0.5274231662042439,S19R04,2022-11-02_16h14.48.263,t1_Paradigm,2021.1.4,60.055293112664266,
L,left,Distractor,0,24,24,24,167.46396585117327,169.46570941316895,left,1,1,0.5156311052851379,S19R04,2022-11-02_16h14.48.263,t1_Paradigm,2021.1.4,60.055293112664266,
W,left,Pretarget,0,25,25,25,170.9639690592303,172.96599492745008,left,1,1,0.6472615330130793,S19R04,2022-11-02_16h14.48.263,t1_Paradigm,2021.1.4,60.055293112664266,
W,right,Target,0,26,26,26,174.463979324908,176.4641140619642,right,1,1,0.6852089483290911,S19R04,2022-11-02_16h14.48.263,t1_Paradigm,2021.1.4,60.055293112664266,
V,left,Distractor,0,27,27,27,177.98061325901654,179.96621243160916,left,1,1,0.7512878619600087,S19R04,2022-11-02_16h14.48.263,t1_Paradigm,2021.1.4,60.055293112664266,
W,left,Lure,0,28,28,28,181.46390297391918,183.46616366959643,left,1,1,0.5313305414747447,S19R04,2022-11-02_16h14.48.263,t1_Paradigm,2021.1.4,60.055293112664266,
R,left,Pretarget,0,29,29,29,184.96399215701967,186.96699134027585,left,1,1,0.7105013438267633,S19R04,2022-11-02_16h14.48.263,t1_Paradigm,2021.1.4,60.055293112664266,
R,right,Target,0,30,30,30,188.46399440261303,190.4640627335757,right,1,1,0.5094264627550729,S19R04,2022-11-02_16h14.48.263,t1_Paradigm,2021.1.4,60.055293112664266,
G,left,Distractor,0,31,31,31,191.9640114051872,193.9656824657577,left,1,1,0.5118866976699792,S19R04,2022-11-02_16h14.48.263,t1_Paradigm,2021.1.4,60.055293112664266,
R,left,Lure,0,32,32,32,195.46397772087948,197.4663869481883,left,1,1,0.7870422708801925,S19R04,2022-11-02_16h14.48.263,t1_Paradigm,2021.1.4,60.055293112664266,
S,left,Distractor,0,33,33,33,198.9640656207921,200.96314267179696,left,1,1,0.5383246791316196,S19R04,2022-11-02_16h14.48.263,t1_Paradigm,2021.1.4,60.055293112664266,
R,left,Lure,0,34,34,34,202.4639077859465,204.46633209096035,left,1,1,0.8433947713347152,S19R04,2022-11-02_16h14.48.263,t1_Paradigm,2021.1.4,60.055293112664266,
P,left,Pretarget,0,35,35,35,205.96399151539663,207.96567540807882,left,1,1,0.6558734780410305,S19R04,2022-11-02_16h14.48.263,t1_Paradigm,2021.1.4,60.055293112664266,
P,right,Target,0,36,36,36,209.46399279864272,211.46398606174625,right,1,1,0.45342299551703036,S19R04,2022-11-02_16h14.48.263,t1_Paradigm,2021.1.4,60.055293112664266,
Y,left,Pretarget,0,37,37,37,212.964052467898,214.9656208716915,left,1,1,0.5038098513614386,S19R04,2022-11-02_16h14.48.263,t1_Paradigm,2021.1.4,60.055293112664266,
Y,right,Target,0,38,38,38,216.46411342039937,218.4641342725372,right,1,1,0.7012728162808344,S19R04,2022-11-02_16h14.48.263,t1_Paradigm,2021.1.4,60.055293112664266,
J,left,Distractor,0,39,39,39,219.96410443790955,221.96608346898574,left,1,1,0.9754646985675208,S19R04,2022-11-02_16h14.48.263,t1_Paradigm,2021.1.4,60.055293112664266,
Y,left,Lure,0,40,40,40,223.464034823759,225.46328190009808,left,1,1,1.2543935516150668,S19R04,2022-11-02_16h14.48.263,t1_Paradigm,2021.1.4,60.055293112664266,
T,left,Distractor,0,41,41,41,226.9640582423308,228.9661222861032,left,1,1,0.7915626998874359,S19R04,2022-11-02_16h14.48.263,t1_Paradigm,2021.1.4,60.055293112664266,
V,left,Distractor,0,42,42,42,230.46400915953564,232.46648254734464,left,1,1,0.6669347506249323,S19R04,2022-11-02_16h14.48.263,t1_Paradigm,2021.1.4,60.055293112664266,
N,left,Pretarget,0,43,43,43,233.9641971498495,235.96664294868242,left,1,1,0.511005773791112,S19R04,2022-11-02_16h14.48.263,t1_Paradigm,2021.1.4,60.055293112664266,
N,right,Target,0,44,44,44,237.46320362429833,239.46398413693532,right,1,1,0.43749675183789805,S19R04,2022-11-02_16h14.48.263,t1_Paradigm,2021.1.4,60.055293112664266,
N,right,Target,0,45,45,45,240.9632847873727,242.96418207214447,right,1,1,0.6812220140127465,S19R04,2022-11-02_16h14.48.263,t1_Paradigm,2021.1.4,60.055293112664266,
X,left,Distractor,0,46,46,46,244.46409609704278,246.4660289325402,left,1,1,0.5874632921768352,S19R04,2022-11-02_16h14.48.263,t1_Paradigm,2021.1.4,60.055293112664266,
Z,left,Distractor,0,47,47,47,247.9640697912546,249.96609180985251,left,1,1,0.5593779894988984,S19R04,2022-11-02_16h14.48.263,t1_Paradigm,2021.1.4,60.055293112664266,
H,left,Pretarget,0,48,48,48,251.4640438062488,253.46597407531226,left,1,1,0.8035084252478555,S19R04,2022-11-02_16h14.48.263,t1_Paradigm,2021.1.4,60.055293112664266,
H,right,Target,0,49,49,49,254.96411919483216,256.96416571119335,right,1,1,0.7458544287947007,S19R04,2022-11-02_16h14.48.263,t1_Paradigm,2021.1.4,60.055293112664266,
K,left,Distractor,0,50,50,50,258.46409738023067,260.46611105802003,left,1,1,0.5235096956603229,S19R04,2022-11-02_16h14.48.263,t1_Paradigm,2021.1.4,60.055293112664266,
V,left,Pretarget,0,51,51,51,261.964195545821,263.9665816753404,left,1,1,0.6070441186893731,S19R04,2022-11-02_16h14.48.263,t1_Paradigm,2021.1.4,60.055293112664266,
V,right,Target,0,52,52,52,265.46427382167894,267.4632398749818,right,1,1,0.5343467273050919,S19R04,2022-11-02_16h14.48.263,t1_Paradigm,2021.1.4,60.055293112664266,
R,left,Distractor,0,53,53,53,268.96418463857844,270.96594295743853,left,1,1,0.35956835374236107,S19R04,2022-11-02_16h14.48.263,t1_Paradigm,2021.1.4,60.055293112664266,
V,left,Lure,0,54,54,54,272.4643052603351,274.4659144059988,left,1,1,0.6675834134803154,S19R04,2022-11-02_16h14.48.263,t1_Paradigm,2021.1.4,60.055293112664266,
Y,left,Distractor,0,55,55,55,275.96333387010964,277.98034025600646,left,1,1,0.6249997593695298,S19R04,2022-11-02_16h14.48.263,t1_Paradigm,2021.1.4,60.055293112664266,
Q,left,Distractor,0,56,56,56,279.4643023731187,281.46637764491607,left,1,1,0.563494528119918,S19R04,2022-11-02_16h14.48.263,t1_Paradigm,2021.1.4,60.055293112664266,
Z,left,Pretarget,0,57,57,57,282.96411759080365,284.96633914863924,left,1,1,0.6151774262543768,S19R04,2022-11-02_16h14.48.263,t1_Paradigm,2021.1.4,60.055293112664266,
Z,right,Target,0,58,58,58,286.46431616763584,288.4644034259254,right,1,1,0.4294199055293575,S19R04,2022-11-02_16h14.48.263,t1_Paradigm,2021.1.4,60.055293112664266,
B,left,Distractor,0,59,59,59,289.9643315661233,291.96635550953215,left,1,1,0.5274266949854791,S19R04,2022-11-02_16h14.48.263,t1_Paradigm,2021.1.4,60.055293112664266,
S,left,Pretarget,0,60,60,60,293.46418175130384,295.465981774556,left,1,1,0.6757244202890433,S19R04,2022-11-02_16h14.48.263,t1_Paradigm,2021.1.4,60.055293112664266,
S,right,Target,0,61,61,61,296.9641342725372,298.96412047802005,right,1,1,0.6014284697012044,S19R04,2022-11-02_16h14.48.263,t1_Paradigm,2021.1.4,60.055293112664266,
T,left,Distractor,0,62,62,62,300.4641272149165,302.4666981266928,left,1,1,0.5869756722240709,S19R04,2022-11-02_16h14.48.263,t1_Paradigm,2021.1.4,60.055293112664266,
D,left,Distractor,0,63,63,63,303.96416442800546,305.9775617849664,left,1,1,0.5960806907969527,S19R04,2022-11-02_16h14.48.263,t1_Paradigm,2021.1.4,60.055293112664266,
R,left,Distractor,0,0,0,0,336.26587411318906,338.2769751654123,left,1,1,0.9528484381153248,S19R04,2022-11-02_16h14.48.263,t1_Paradigm,2021.1.4,60.055293112664266,
V,left,Distractor,0,1,1,1,339.7642200551345,341.7664534826763,left,1,1,0.4712114980793558,S19R04,2022-11-02_16h14.48.263,t1_Paradigm,2021.1.4,60.055293112664266,
N,left,Pretarget,0,2,2,2,343.2641995237791,345.26621737197274,left,1,1,0.4755266134161502,S19R04,2022-11-02_16h14.48.263,t1_Paradigm,2021.1.4,60.055293112664266,
N,right,Target,0,3,3,3,346.7643862309051,348.7641818796401,right,1,1,0.4500035609235056,S19R04,2022-11-02_16h14.48.263,t1_Paradigm,2021.1.4,60.055293112664266,
S,left,Distractor,0,4,4,4,350.26404265133897,352.2639743203763,left,1,1,0.5337933428236283,S19R04,2022-11-02_16h14.48.263,t1_Paradigm,2021.1.4,60.055293112664266,
N,left,Lure,0,5,5,5,353.76431693753693,355.7634045750019,right,0,1,0.7145123383961618,S19R04,2022-11-02_16h14.48.263,t1_Paradigm,2021.1.4,60.055293112664266,
Z,left,Distractor,0,6,6,6,357.26426464674296,359.2660617827205,left,1,1,0.6036185888224281,S19R04,2022-11-02_16h14.48.263,t1_Paradigm,2021.1.4,60.055293112664266,
L,left,Pretarget,0,7,7,7,360.76420914789196,362.7663363897009,left,1,1,0.4795574977179058,S19R04,2022-11-02_16h14.48.263,t1_Paradigm,2021.1.4,60.055293112664266,
L,right,Target,0,8,8,8,364.2643515841919,366.2642229424091,right,1,1,0.645558713003993,S19R04,2022-11-02_16h14.48.263,t1_Paradigm,2021.1.4,60.055293112664266,
H,left,Distractor,0,9,9,9,367.76458320365055,369.7664769012481,left,1,1,0.7914286043960601,S19R04,2022-11-02_16h14.48.263,t1_Paradigm,2021.1.4,60.055293112664266,
L,left,Lure,0,10,10,10,371.26427170436364,373.26544006733457,left,1,1,0.5722578919376247,S19R04,2022-11-02_16h14.48.263,t1_Paradigm,2021.1.4,60.055293112664266,
X,left,Pretarget,0,11,11,11,374.7642816492589,376.7663633371121,left,1,1,0.559313828998711,S19R04,2022-11-02_16h14.48.263,t1_Paradigm,2021.1.4,60.055293112664266,
X,right,Target,0,12,12,12,378.264350301004,380.2643791732262,right,1,1,0.6296680783852935,S19R04,2022-11-02_16h14.48.263,t1_Paradigm,2021.1.4,60.055293112664266,
X,right,Target,0,13,13,13,381.7644288976444,383.7644407673506,right,1,1,0.7934644175111316,S19R04,2022-11-02_16h14.48.263,t1_Paradigm,2021.1.4,60.055293112664266,
R,left,Distractor,0,14,14,14,385.2643987421761,387.26647465565475,left,1,1,0.6032467786571942,S19R04,2022-11-02_16h14.48.263,t1_Paradigm,2021.1.4,60.055293112664266,
T,left,Distractor,0,15,15,15,388.764461298706,390.76669665100053,left,1,1,0.5273843490867876,S19R04,2022-11-02_16h14.48.263,t1_Paradigm,2021.1.4,60.055293112664266,
V,left,Pretarget,0,16,16,16,392.2642890277202,394.2657079374767,left,1,1,0.5321402471745387,S19R04,2022-11-02_16h14.48.263,t1_Paradigm,2021.1.4,60.055293112664266,
V,right,Target,0,17,17,17,395.76428485725773,397.7642742707976,right,1,1,0.793443244532682,S19R04,2022-11-02_16h14.48.263,t1_Paradigm,2021.1.4,60.055293112664266,
N,left,Distractor,0,18,18,18,399.2643021806143,401.2660502338549,left,1,1,0.7482691097538918,S19R04,2022-11-02_16h14.48.263,t1_Paradigm,2021.1.4,60.055293112664266,
B,left,Distractor,0,19,19,19,402.7643416393548,404.7664874877082,left,1,1,0.5115870680310763,S19R04,2022-11-02_16h14.48.263,t1_Paradigm,2021.1.4,60.055293112664266,
V,left,Lure,0,20,20,20,406.26441927353153,408.2661439082003,left,1,1,0.8996099682408385,S19R04,2022-11-02_16h14.48.263,t1_Paradigm,2021.1.4,60.055293112664266,
P,left,Distractor,0,21,21,21,409.7643650579266,411.76651571836555,left,1,1,0.503256466879975,S19R04,2022-11-02_16h14.48.263,t1_Paradigm,2021.1.4,60.055293112664266,
K,left,Pretarget,0,22,22,22,413.2644535994041,415.2664842797094,left,1,1,0.5712993338238448,S19R04,2022-11-02_16h14.48.263,t1_Paradigm,2021.1.4,60.055293112664266,
K,right,Target,0,23,23,23,416.76437564438675,418.7644301808323,right,1,1,0.43337187240831554,S19R04,2022-11-02_16h14.48.263,t1_Paradigm,2021.1.4,60.055293112664266,
J,left,Pretarget,0,24,24,24,420.26436986995395,422.26605055463733,left,1,1,0.6600333249662071,S19R04,2022-11-02_16h14.48.263,t1_Paradigm,2021.1.4,60.055293112664266,
J,right,Target,0,25,25,25,423.7643750028219,425.76432463678066,right,1,1,0.6014384145382792,S19R04,2022-11-02_16h14.48.263,t1_Paradigm,2021.1.4,60.055293112664266,
H,left,Distractor,0,26,26,26,427.26429416052997,429.26667098677717,left,1,1,0.5871081636869349,S19R04,2022-11-02_16h14.48.263,t1_Paradigm,2021.1.4,60.055293112664266,
J,left,Lure,0,27,27,27,430.7644568074611,432.76681213994743,left,1,1,0.8475215755752288,S19R04,2022-11-02_16h14.48.263,t1_Paradigm,2021.1.4,60.055293112664266,
V,left,Distractor,0,28,28,28,434.264441088133,436.2666613627225,left,1,1,0.8191757812164724,S19R04,2022-11-02_16h14.48.263,t1_Paradigm,2021.1.4,60.055293112664266,
Z,left,Pretarget,0,29,29,29,437.76434645138215,439.7661981238052,left,1,1,0.6316929842578247,S19R04,2022-11-02_16h14.48.263,t1_Paradigm,2021.1.4,60.055293112664266,
Z,right,Target,0,30,30,30,441.2643384312978,443.2644231232116,right,1,1,0.7013748314930126,S19R04,2022-11-02_16h14.48.263,t1_Paradigm,2021.1.4,60.055293112664266,
T,left,Distractor,0,31,31,31,444.7644045166089,446.7660762188607,left,1,1,0.6558561547426507,S19R04,2022-11-02_16h14.48.263,t1_Paradigm,2021.1.4,60.055293112664266,
Z,left,Lure,0,32,32,32,448.2643833436887,450.26690581429284,left,1,1,0.9311185551341623,S19R04,2022-11-02_16h14.48.263,t1_Paradigm,2021.1.4,60.055293112664266,
F,left,Distractor,0,33,33,33,451.76449273736216,453.7668191975681,left,1,1,0.5830150436959229,S19R04,2022-11-02_16h14.48.263,t1_Paradigm,2021.1.4,60.055293112664266,
Y,left,Pretarget,0,34,34,34,455.26440932869446,457.26625811390113,left,1,1,0.6356747857644223,S19R04,2022-11-02_16h14.48.263,t1_Paradigm,2021.1.4,60.055293112664266,
Y,right,Target,0,35,35,35,458.7643897597445,460.7643018598319,right,1,1,0.546109595161397,S19R04,2022-11-02_16h14.48.263,t1_Paradigm,2021.1.4,60.055293112664266,
Y,right,Target,0,36,36,36,462.26440612063743,464.2646306824754,right,1,1,0.48515614424832165,S19R04,2022-11-02_16h14.48.263,t1_Paradigm,2021.1.4,60.055293112664266,
W,left,Distractor,0,37,37,37,465.7643823812832,467.7667601699359,left,1,1,0.4071420918335207,S19R04,2022-11-02_16h14.48.263,t1_Paradigm,2021.1.4,60.055293112664266,
Q,left,Distractor,0,38,38,38,469.2644629027345,471.2664871669258,left,1,1,0.47548587154597044,S19R04,2022-11-02_16h14.48.263,t1_Paradigm,2021.1.4,60.055293112664266,
P,left,Pretarget,0,39,39,39,472.7645267423941,474.76635756267933,left,1,1,0.4479738430818543,S19R04,2022-11-02_16h14.48.263,t1_Paradigm,2021.1.4,60.055293112664266,
P,right,Target,0,40,40,40,476.2645257799886,478.26445488265017,right,1,1,0.7734970239107497,S19R04,2022-11-02_16h14.48.263,t1_Paradigm,2021.1.4,60.055293112664266,
J,left,Distractor,0,41,41,41,479.7644786220044,481.7662507354398,left,1,1,0.7757432835642248,S19R04,2022-11-02_16h14.48.263,t1_Paradigm,2021.1.4,60.055293112664266,
P,left,Lure,0,42,42,42,483.26430859667016,485.2664650315419,left,1,1,0.9555345179978758,S19R04,2022-11-02_16h14.48.263,t1_Paradigm,2021.1.4,60.055293112664266,
L,left,Distractor,0,43,43,43,486.7644305016729,488.7666286408785,left,1,1,0.6553688555723056,S19R04,2022-11-02_16h14.48.263,t1_Paradigm,2021.1.4,60.055293112664266,
Z,left,Distractor,0,44,44,44,490.2644160655327,492.26676273631165,left,1,1,0.48308696766616777,S19R04,2022-11-02_16h14.48.263,t1_Paradigm,2021.1.4,60.055293112664266,
F,left,Pretarget,0,45,45,45,493.7644215191831,495.76602328638546,left,1,1,0.775931594602298,S19R04,2022-11-02_16h14.48.263,t1_Paradigm,2021.1.4,60.055293112664266,
F,right,Target,0,46,46,46,497.2644510330283,499.26437724841526,right,1,1,0.7014973781188019,S19R04,2022-11-02_16h14.48.263,t1_Paradigm,2021.1.4,60.055293112664266,
G,left,Pretarget,0,47,47,47,500.7637343600509,502.76670723751886,left,1,1,0.9113426806870848,S19R04,2022-11-02_16h14.48.263,t1_Paradigm,2021.1.4,60.055293112664266,
G,right,Target,0,48,48,48,504.26448535890086,506.26451423112303,right,1,1,0.5498411706648767,S19R04,2022-11-02_16h14.48.263,t1_Paradigm,2021.1.4,60.055293112664266,
V,left,Distractor,0,49,49,49,507.7636310616508,509.7772080680588,left,1,1,0.6528566506458446,S19R04,2022-11-02_16h14.48.263,t1_Paradigm,2021.1.4,60.055293112664266,
G,left,Lure,0,50,50,50,511.2644330680487,513.2666841397295,left,1,1,0.9073740320745856,S19R04,2022-11-02_16h14.48.263,t1_Paradigm,2021.1.4,60.055293112664266,
Q,left,Pretarget,0,51,51,51,514.7644622611115,516.7776446803473,left,1,1,0.612362704530824,S19R04,2022-11-02_16h14.48.263,t1_Paradigm,2021.1.4,60.055293112664266,
Q,right,Target,0,52,52,52,518.2645309128566,520.2645347624784,right,1,1,0.5816144197015092,S19R04,2022-11-02_16h14.48.263,t1_Paradigm,2021.1.4,60.055293112664266,
Y,left,Distractor,0,53,53,53,521.7646313240402,523.7664358385373,left,1,1,0.5035131089389324,S19R04,2022-11-02_16h14.48.263,t1_Paradigm,2021.1.4,60.055293112664266,
V,left,Distractor,0,54,54,54,525.2645453489386,527.2658490905887,left,1,1,0.6522079878486693,S19R04,2022-11-02_16h14.48.263,t1_Paradigm,2021.1.4,60.055293112664266,
B,left,Distractor,0,55,55,55,528.764605018252,530.7667771724518,left,1,1,0.639322631759569,S19R04,2022-11-02_16h14.48.263,t1_Paradigm,2021.1.4,60.055293112664266,
J,left,Pretarget,0,56,56,56,532.2646297200699,534.2665737836505,left,1,1,0.691606393258553,S19R04,2022-11-02_16h14.48.263,t1_Paradigm,2021.1.4,60.055293112664266,
J,right,Target,0,57,57,57,535.7645068526617,537.7645543314284,right,1,1,0.7614332432276569,S19R04,2022-11-02_16h14.48.263,t1_Paradigm,2021.1.4,60.055293112664266,
H,left,Distractor,0,58,58,58,539.2638665307313,541.2666283200379,left,1,1,0.47545154561521485,S19R04,2022-11-02_16h14.48.263,t1_Paradigm,2021.1.4,60.055293112664266,
J,left,Lure,0,59,59,59,542.76449402055,544.7670360601041,left,1,1,0.5111655335058458,S19R04,2022-11-02_16h14.48.263,t1_Paradigm,2021.1.4,60.055293112664266,
D,left,Pretarget,0,60,60,60,546.2645065318793,548.2665208511753,left,1,1,0.5637797215604223,S19R04,2022-11-02_16h14.48.263,t1_Paradigm,2021.1.4,60.055293112664266,
D,right,Target,0,61,61,61,549.7646739907796,551.7646056598751,right,1,1,0.4414958767592907,S19R04,2022-11-02_16h14.48.263,t1_Paradigm,2021.1.4,60.055293112664266,
R,left,Distractor,0,62,62,62,553.2645357248839,555.2664868461434,left,1,1,0.5715800360776484,S19R04,2022-11-02_16h14.48.263,t1_Paradigm,2021.1.4,60.055293112664266,
F,left,Distractor,0,63,63,63,556.7646255496074,558.766647247423,left,1,1,0.7353965857182629,S19R04,2022-11-02_16h14.48.263,t1_Paradigm,2021.1.4,60.055293112664266,
F,left,Distractor,0,0,0,0,681.1668032216257,683.1648511379608,left,1,2,0.5613932712003589,S19R04,2022-11-02_16h14.48.263,t1_Paradigm,2021.1.4,60.055293112664266,
N,left,Pretarget,0,1,1,1,684.6648444011225,686.6673248466104,left,1,2,0.6431113101425581,S19R04,2022-11-02_16h14.48.263,t1_Paradigm,2021.1.4,60.055293112664266,
V,left,Distractor,0,2,2,2,688.1646942655207,690.1668093168992,left,1,2,0.5353861275943927,S19R04,2022-11-02_16h14.48.263,t1_Paradigm,2021.1.4,60.055293112664266,
N,right,Target,0,3,3,3,691.6647638796712,693.6667204545811,right,1,2,0.5715877353213727,S19R04,2022-11-02_16h14.48.263,t1_Paradigm,2021.1.4,60.055293112664266,
N,left,Lure,0,4,4,4,695.1647629172658,697.1648113584379,left,1,2,1.057533053914085,S19R04,2022-11-02_16h14.48.263,t1_Paradigm,2021.1.4,60.055293112664266,
X,left,Distractor,0,5,5,5,698.6646554484032,700.6670130264829,left,1,2,0.7553463352378458,S19R04,2022-11-02_16h14.48.263,t1_Paradigm,2021.1.4,60.055293112664266,
G,left,Pretarget,0,6,6,6,702.1648206617101,704.1672119240975,left,1,2,0.6792407372849993,S19R04,2022-11-02_16h14.48.263,t1_Paradigm,2021.1.4,60.055293112664266,
H,left,Pretarget,0,7,7,7,705.6648341354448,707.6672016584198,left,1,2,0.5871492263977416,S19R04,2022-11-02_16h14.48.263,t1_Paradigm,2021.1.4,60.055293112664266,
G,right,Target,0,8,8,8,709.1647330826381,711.1666588604567,right,1,2,0.6077229369548149,S19R04,2022-11-02_16h14.48.263,t1_Paradigm,2021.1.4,60.055293112664266,
H,right,Target,0,9,9,9,712.6647792782169,714.6666825998691,right,1,2,0.595818915986456,S19R04,2022-11-02_16h14.48.263,t1_Paradigm,2021.1.4,60.055293112664266,
T,left,Pretarget,0,10,10,10,716.1647709373501,718.1666338378564,left,1,2,0.6639188856934197,S19R04,2022-11-02_16h14.48.263,t1_Paradigm,2021.1.4,60.055293112664266,
K,left,Distractor,0,11,11,11,719.6649566820124,721.6656448035501,left,1,2,0.7967767040827312,S19R04,2022-11-02_16h14.48.263,t1_Paradigm,2021.1.4,60.055293112664266,
T,right,Target,0,12,12,12,723.1647417442873,725.1664176169434,right,1,2,0.8158955749240704,S19R04,2022-11-02_16h14.48.263,t1_Paradigm,2021.1.4,60.055293112664266,
T,left,Lure,0,13,13,13,726.6650147472974,728.6649598900694,left,1,2,0.6773512101499364,S19R04,2022-11-02_16h14.48.263,t1_Paradigm,2021.1.4,60.055293112664266,
J,left,Distractor,0,14,14,14,730.1649069576524,732.1669315426261,left,1,2,0.6796510437852703,S19R04,2022-11-02_16h14.48.263,t1_Paradigm,2021.1.4,60.055293112664266,
Q,left,Pretarget,0,15,15,15,733.6648703861283,735.6672815382481,left,1,2,0.8273305825423449,S19R04,2022-11-02_16h14.48.263,t1_Paradigm,2021.1.4,60.055293112664266,
M,left,Distractor,0,16,16,16,737.1648585164221,739.1678990832297,left,1,2,0.7504537752829492,S19R04,2022-11-02_16h14.48.263,t1_Paradigm,2021.1.4,60.055293112664266,
Q,right,Target,0,17,17,17,740.6648687820998,742.6664965343662,right,1,2,0.6120845687109977,S19R04,2022-11-02_16h14.48.263,t1_Paradigm,2021.1.4,60.055293112664266,
R,left,Distractor,0,18,18,18,744.1649614940397,746.1670534476289,left,1,2,0.615284895116929,S19R04,2022-11-02_16h14.48.263,t1_Paradigm,2021.1.4,60.055293112664266,
W,left,Distractor,0,19,19,19,747.6649470579578,749.667303673632,left,1,2,0.5870026196935214,S19R04,2022-11-02_16h14.48.263,t1_Paradigm,2021.1.4,60.055293112664266,
C,left,Pretarget,0,20,20,20,751.1650833990425,753.1671060592635,left,1,2,0.6072850414202549,S19R04,2022-11-02_16h14.48.263,t1_Paradigm,2021.1.4,60.055293112664266,
T,left,Distractor,0,21,21,21,754.664917864895,756.6670309914625,left,1,2,0.6592820053338073,S19R04,2022-11-02_16h14.48.263,t1_Paradigm,2021.1.4,60.055293112664266,
C,right,Target,0,22,22,22,758.164866215724,760.1673328666948,right,1,2,0.5030707222176716,S19R04,2022-11-02_16h14.48.263,t1_Paradigm,2021.1.4,60.055293112664266,
F,left,Pretarget,0,23,23,23,761.6648318898515,763.6780046849744,left,1,2,0.5284616040880792,S19R04,2022-11-02_16h14.48.263,t1_Paradigm,2021.1.4,60.055293112664266,
C,right,Target,0,24,24,24,765.1648918798892,767.1671256282134,right,1,2,0.7514896467328072,S19R04,2022-11-02_16h14.48.263,t1_Paradigm,2021.1.4,60.055293112664266,
F,right,Target,0,25,25,25,768.6649226769223,770.666648594779,right,1,2,1.0758454270544462,S19R04,2022-11-02_16h14.48.263,t1_Paradigm,2021.1.4,60.055293112664266,
H,left,Distractor,0,26,26,26,772.1651074592373,774.1666896574898,left,1,2,0.6799035154399462,S19R04,2022-11-02_16h14.48.263,t1_Paradigm,2021.1.4,60.055293112664266,
H,left,Lure,0,27,27,27,775.664974005369,777.6648248321726,left,1,2,0.9736082140589133,S19R04,2022-11-02_16h14.48.263,t1_Paradigm,2021.1.4,60.055293112664266,
P,left,Distractor,0,28,28,28,779.1650006319978,781.1666979983565,left,1,2,0.9918766372720711,S19R04,2022-11-02_16h14.48.263,t1_Paradigm,2021.1.4,60.055293112664266,
G,left,Pretarget,0,29,29,29,782.6649496243917,784.6674830022966,left,1,2,0.6111654693377204,S19R04,2022-11-02_16h14.48.263,t1_Paradigm,2021.1.4,60.055293112664266,
K,left,Distractor,0,30,30,30,786.1650073688361,788.1673283754499,left,1,2,0.7913115114788525,S19R04,2022-11-02_16h14.48.263,t1_Paradigm,2021.1.4,60.055293112664266,
G,right,Target,0,31,31,31,789.6649127320852,791.6673614180763,right,1,2,0.5071747495094314,S19R04,2022-11-02_16h14.48.263,t1_Paradigm,2021.1.4,60.055293112664266,
M,left,Pretarget,0,32,32,32,793.1649432083359,795.1668587204767,left,1,2,0.5755470806616358,S19R04,2022-11-02_16h14.48.263,t1_Paradigm,2021.1.4,60.055293112664266,
B,left,Distractor,0,33,33,33,796.6649897246971,798.6670582596562,left,1,2,0.8993603838025592,S19R04,2022-11-02_16h14.48.263,t1_Paradigm,2021.1.4,60.055293112664266,
M,right,Target,0,34,34,34,800.1649217145168,802.1668750813697,right,1,2,0.4236666322685778,S19R04,2022-11-02_16h14.48.263,t1_Paradigm,2021.1.4,60.055293112664266,
M,left,Lure,0,35,35,35,803.6649640604737,805.6652213441557,left,1,2,0.7653454305836931,S19R04,2022-11-02_16h14.48.263,t1_Paradigm,2021.1.4,60.055293112664266,
T,left,Distractor,0,36,36,36,807.1648880302673,809.1671904303366,left,1,2,0.8478754208190367,S19R04,2022-11-02_16h14.48.263,t1_Paradigm,2021.1.4,60.055293112664266,
F,left,Distractor,0,37,37,37,810.6651475595427,812.6670605053077,left,1,2,0.6754292819532566,S19R04,2022-11-02_16h14.48.263,t1_Paradigm,2021.1.4,60.055293112664266,
X,left,Distractor,0,38,38,38,814.1650160304853,816.1673575684545,left,1,2,0.6475396688329056,S19R04,2022-11-02_16h14.48.263,t1_Paradigm,2021.1.4,60.055293112664266,
C,left,Distractor,0,39,39,39,817.6650253337575,819.66690010397,left,1,2,0.5716255900333636,S19R04,2022-11-02_16h14.48.263,t1_Paradigm,2021.1.4,60.055293112664266,
R,left,Distractor,0,40,40,40,821.1651542963809,823.1666591812391,left,1,2,0.5597485164762475,S19R04,2022-11-02_16h14.48.263,t1_Paradigm,2021.1.4,60.055293112664266,
B,left,Pretarget,0,41,41,41,824.6650955895311,826.6668311314424,left,1,2,0.5958041590056382,S19R04,2022-11-02_16h14.48.263,t1_Paradigm,2021.1.4,60.055293112664266,
H,left,Distractor,0,42,42,42,828.164897654322,830.1670932271518,left,1,2,0.6955509816179983,S19R04,2022-11-02_16h14.48.263,t1_Paradigm,2021.1.4,60.055293112664266,
B,right,Target,0,43,43,43,831.6650384866516,833.6670438235742,right,1,2,0.4275720827281475,S19R04,2022-11-02_16h14.48.263,t1_Paradigm,2021.1.4,60.055293112664266,
W,left,Pretarget,0,44,44,44,835.1640767205972,837.1673412075615,left,1,2,0.5912773139425553,S19R04,2022-11-02_16h14.48.263,t1_Paradigm,2021.1.4,60.055293112664266,
L,left,Pretarget,0,45,45,45,838.6649948575068,840.667016876163,left,1,2,0.8354597197030671,S19R04,2022-11-02_16h14.48.263,t1_Paradigm,2021.1.4,60.055293112664266,
W,right,Target,0,46,46,46,842.1648264362011,844.1673460195889,right,1,2,0.5191336277639493,S19R04,2022-11-02_16h14.48.263,t1_Paradigm,2021.1.4,60.055293112664266,
L,right,Target,0,47,47,47,845.6650051231845,847.6672943703597,right,1,2,0.7633888556738384,S19R04,2022-11-02_16h14.48.263,t1_Paradigm,2021.1.4,60.055293112664266,
W,right,Target,0,48,48,48,849.1651279905927,851.1674554132624,right,1,2,0.5431399257504381,S19R04,2022-11-02_16h14.48.263,t1_Paradigm,2021.1.4,60.055293112664266,
X,left,Distractor,0,49,49,49,852.6651042511803,854.6670499187894,left,1,2,0.579659128037747,S19R04,2022-11-02_16h14.48.263,t1_Paradigm,2021.1.4,60.055293112664266,
R,left,Distractor,0,50,50,50,856.1650901358807,858.1781782392063,left,1,2,0.908358895976562,S19R04,2022-11-02_16h14.48.263,t1_Paradigm,2021.1.4,60.055293112664266,
V,left,Pretarget,0,51,51,51,859.665061584441,861.6674255786347,left,1,2,0.6031415554462001,S19R04,2022-11-02_16h14.48.263,t1_Paradigm,2021.1.4,60.055293112664266,
Z,left,Distractor,0,52,52,52,863.1651132336701,865.167081678228,left,1,2,0.5594338091323152,S19R04,2022-11-02_16h14.48.263,t1_Paradigm,2021.1.4,60.055293112664266,
V,right,Target,0,53,53,53,866.665158146061,868.6670406155172,right,1,2,0.6595193992252462,S19R04,2022-11-02_16h14.48.263,t1_Paradigm,2021.1.4,60.055293112664266,
V,left,Lure,0,54,54,54,870.1650301457848,872.1641880390816,left,1,2,0.9544989673886448,S19R04,2022-11-02_16h14.48.263,t1_Paradigm,2021.1.4,60.055293112664266,
N,left,Distractor,0,55,55,55,873.6484003821388,875.6475537841325,left,1,2,1.215198855905328,S19R04,2022-11-02_16h14.48.263,t1_Paradigm,2021.1.4,60.055293112664266,
B,left,Distractor,0,56,56,56,877.1483936453005,879.1507355040521,left,1,2,1.0079825303982943,S19R04,2022-11-02_16h14.48.263,t1_Paradigm,2021.1.4,60.055293112664266,
V,left,Lure,0,57,57,57,880.6650724917417,882.6671419891645,left,1,2,0.6276425310061313,S19R04,2022-11-02_16h14.48.263,t1_Paradigm,2021.1.4,60.055293112664266,
J,left,Distractor,0,58,58,58,884.1485989589128,886.1503091574414,left,1,2,0.6004195456043817,S19R04,2022-11-02_16h14.48.263,t1_Paradigm,2021.1.4,60.055293112664266,
H,left,Distractor,0,59,59,59,887.6652505371603,889.667543313175,left,1,2,0.5870561937335879,S19R04,2022-11-02_16h14.48.263,t1_Paradigm,2021.1.4,60.055293112664266,
X,left,Pretarget,0,60,60,60,891.1650705669308,893.1675243857899,left,1,2,0.6391917443252169,S19R04,2022-11-02_16h14.48.263,t1_Paradigm,2021.1.4,60.055293112664266,
P,left,Distractor,0,61,61,61,894.6650619052816,896.6671631620848,left,1,2,0.7555420247954316,S19R04,2022-11-02_16h14.48.263,t1_Paradigm,2021.1.4,60.055293112664266,
X,right,Target,0,62,62,62,898.1653121312847,900.1670297082164,right,1,2,0.7917314420337789,S19R04,2022-11-02_16h14.48.263,t1_Paradigm,2021.1.4,60.055293112664266,
Q,left,Distractor,0,63,63,63,901.6650744165527,903.6670229713782,left,1,2,0.5876249766442925,S19R04,2022-11-02_16h14.48.263,t1_Paradigm,2021.1.4,60.055293112664266,
B,left,Pretarget,0,0,0,0,920.2506898859283,922.2504746274208,left,1,2,0.6283178204321302,S19R04,2022-11-02_16h14.48.263,t1_Paradigm,2021.1.4,60.055293112664266,
F,left,Distractor,0,1,1,1,923.7485353758675,925.7506061564782,left,1,2,0.9840618866728619,S19R04,2022-11-02_16h14.48.263,t1_Paradigm,2021.1.4,60.055293112664266,
B,right,Target,0,2,2,2,927.2484641576884,929.2503334742505,right,1,2,0.716311399184633,S19R04,2022-11-02_16h14.48.263,t1_Paradigm,2021.1.4,60.055293112664266,
V,left,Distractor,0,3,3,3,930.748463195283,932.7507684825687,left,1,2,0.5440628747455776,S19R04,2022-11-02_16h14.48.263,t1_Paradigm,2021.1.4,60.055293112664266,
G,left,Pretarget,0,4,4,4,934.2485193356988,936.2507370439125,left,1,2,0.6121089496882632,S19R04,2022-11-02_16h14.48.263,t1_Paradigm,2021.1.4,60.055293112664266,
B,left,Lure,0,5,5,5,937.7485356966499,939.7510745282052,left,1,2,0.7756053383927792,S19R04,2022-11-02_16h14.48.263,t1_Paradigm,2021.1.4,60.055293112664266,
G,right,Target,0,6,6,6,941.248518694134,943.2477365774685,right,1,2,0.6069979231106117,S19R04,2022-11-02_16h14.48.263,t1_Paradigm,2021.1.4,60.055293112664266,
Y,left,Pretarget,0,7,7,7,944.7483432150912,946.7495048412238,left,1,2,0.513344103761483,S19R04,2022-11-02_16h14.48.263,t1_Paradigm,2021.1.4,60.055293112664266,
P,left,Distractor,0,8,8,8,948.2485260725953,950.2505054244539,left,1,2,0.7083131494582631,S19R04,2022-11-02_16h14.48.263,t1_Paradigm,2021.1.4,60.055293112664266,
Y,right,Target,0,9,9,9,951.7482716761297,953.7499632681138,right,1,2,0.5207199964206666,S19R04,2022-11-02_16h14.48.263,t1_Paradigm,2021.1.4,60.055293112664266,
X,left,Distractor,0,10,10,10,955.2485283181886,957.2503575344454,left,1,2,0.4923466130858287,S19R04,2022-11-02_16h14.48.263,t1_Paradigm,2021.1.4,60.055293112664266,
Y,right,Target,0,11,11,11,958.7485437167343,960.7498728017672,left,0,2,1.0729700736119412,S19R04,2022-11-02_16h14.48.263,t1_Paradigm,2021.1.4,60.055293112664266,
N,left,Distractor,0,12,12,12,962.2487063636072,964.2477362566278,left,1,2,1.1751190658542328,S19R04,2022-11-02_16h14.48.263,t1_Paradigm,2021.1.4,60.055293112664266,
Y,right,Target,0,13,13,13,965.7485408295179,967.750773294596,right,1,2,0.5679520797566511,S19R04,2022-11-02_16h14.48.263,t1_Paradigm,2021.1.4,60.055293112664266,
Y,left,Lure,0,14,14,14,969.2486425238894,971.2486139725079,left,1,2,1.0061318203806877,S19R04,2022-11-02_16h14.48.263,t1_Paradigm,2021.1.4,60.055293112664266,
K,left,Distractor,0,15,15,15,972.7486563184066,974.7478424423025,left,1,2,0.6590173432487063,S19R04,2022-11-02_16h14.48.263,t1_Paradigm,2021.1.4,60.055293112664266,
T,left,Pretarget,0,16,16,16,976.248664980114,978.2504579456872,left,1,2,1.2362932289252058,S19R04,2022-11-02_16h14.48.263,t1_Paradigm,2021.1.4,60.055293112664266,
J,left,Distractor,0,17,17,17,979.7485138821066,981.75004828081,left,1,2,0.5848400895483792,S19R04,2022-11-02_16h14.48.263,t1_Paradigm,2021.1.4,60.055293112664266,
T,right,Target,0,18,18,18,983.2484872554778,985.2505743969814,right,1,2,0.5242828297778033,S19R04,2022-11-02_16h14.48.263,t1_Paradigm,2021.1.4,60.055293112664266,
S,left,Pretarget,0,19,19,19,986.748569060117,988.7501804514322,left,1,2,0.640700799645856,S19R04,2022-11-02_16h14.48.263,t1_Paradigm,2021.1.4,60.055293112664266,
R,left,Distractor,0,20,20,20,990.2487653912976,992.2507104172837,left,1,2,0.6760465061524883,S19R04,2022-11-02_16h14.48.263,t1_Paradigm,2021.1.4,60.055293112664266,
S,right,Target,0,21,21,21,993.7486008195556,995.7504569832818,right,1,2,0.4884209519950673,S19R04,2022-11-02_16h14.48.263,t1_Paradigm,2021.1.4,60.055293112664266,
Q,left,Distractor,0,22,22,22,997.2477850186406,999.2504393391428,left,1,2,0.5884183214511722,S19R04,2022-11-02_16h14.48.263,t1_Paradigm,2021.1.4,60.055293112664266,
D,left,Distractor,0,23,23,23,1000.7483419319033,1002.7509138061432,left,1,2,0.9121604064712301,S19R04,2022-11-02_16h14.48.263,t1_Paradigm,2021.1.4,60.055293112664266,
F,left,Distractor,0,24,24,24,1004.2486306542414,1006.2506417655386,left,1,2,0.5803164524841122,S19R04,2022-11-02_16h14.48.263,t1_Paradigm,2021.1.4,60.055293112664266,
Z,left,Distractor,0,25,25,25,1007.7486495815683,1009.7503151885467,left,1,2,0.7287181178107858,S19R04,2022-11-02_16h14.48.263,t1_Paradigm,2021.1.4,60.055293112664266,
P,left,Distractor,0,26,26,26,1011.2485960075282,1013.2499494735966,left,1,2,0.8614248381927609,S19R04,2022-11-02_16h14.48.263,t1_Paradigm,2021.1.4,60.055293112664266,
H,left,Distractor,0,27,27,27,1014.748594403558,1016.7503944267519,left,1,2,0.672527301881928,S19R04,2022-11-02_16h14.48.263,t1_Paradigm,2021.1.4,60.055293112664266,
Z,left,Pretarget,0,28,28,28,1018.248639636673,1020.2505224269698,left,1,2,1.0287230581743643,S19R04,2022-11-02_16h14.48.263,t1_Paradigm,2021.1.4,60.055293112664266,
J,left,Pretarget,0,29,29,29,1021.748823777365,1023.7508140365244,left,1,2,0.8405255131074227,S19R04,2022-11-02_16h14.48.263,t1_Paradigm,2021.1.4,60.055293112664266,
Z,right,Target,0,30,30,30,1025.2486216717516,1027.2505686225486,right,1,2,0.6842086858814582,S19R04,2022-11-02_16h14.48.263,t1_Paradigm,2021.1.4,60.055293112664266,
J,right,Target,0,31,31,31,1028.748676849762,1030.750642086321,right,1,2,0.7522602145327255,S19R04,2022-11-02_16h14.48.263,t1_Paradigm,2021.1.4,60.055293112664266,
V,left,Pretarget,0,32,32,32,1032.2486608096515,1034.2503629880957,left,1,2,0.7406202140264213,S19R04,2022-11-02_16h14.48.263,t1_Paradigm,2021.1.4,60.055293112664266,
Z,left,Lure,0,33,33,33,1035.748679416196,1037.750461153686,left,1,2,1.288504488999024,S19R04,2022-11-02_16h14.48.263,t1_Paradigm,2021.1.4,60.055293112664266,
V,right,Target,0,34,34,34,1039.2486482983804,1041.250989515509,right,1,2,0.7481032548239455,S19R04,2022-11-02_16h14.48.263,t1_Paradigm,2021.1.4,60.055293112664266,
X,left,Distractor,0,35,35,35,1042.748752559186,1044.7505156901316,left,1,2,0.6404922779765911,S19R04,2022-11-02_16h14.48.263,t1_Paradigm,2021.1.4,60.055293112664266,
S,left,Distractor,0,36,36,36,1046.2487230453407,1048.2508990492206,left,1,2,0.8359877607435919,S19R04,2022-11-02_16h14.48.263,t1_Paradigm,2021.1.4,60.055293112664266,
Q,left,Distractor,0,37,37,37,1049.7487217621529,1051.7508599112625,left,1,2,0.5521474203560501,S19R04,2022-11-02_16h14.48.263,t1_Paradigm,2021.1.4,60.055293112664266,
P,left,Distractor,0,38,38,38,1053.2484368894948,1055.250549374381,left,1,2,0.60433558258228,S19R04,2022-11-02_16h14.48.263,t1_Paradigm,2021.1.4,60.055293112664266,
S,left,Lure,0,39,39,39,1056.7487881683046,1058.7478456503013,left,1,2,0.7711051199585199,S19R04,2022-11-02_16h14.48.263,t1_Paradigm,2021.1.4,60.055293112664266,
K,left,Pretarget,0,40,40,40,1060.248493992316,1062.2509571144474,left,1,2,0.7080581114860252,S19R04,2022-11-02_16h14.48.263,t1_Paradigm,2021.1.4,60.055293112664266,
L,left,Distractor,0,41,41,41,1063.7487913763034,1065.750554507249,left,1,2,0.504463646968361,S19R04,2022-11-02_16h14.48.263,t1_Paradigm,2021.1.4,60.055293112664266,
K,right,Target,0,42,42,42,1067.248679416196,1069.2509429991478,right,1,2,0.47596290498040617,S19R04,2022-11-02_16h14.48.263,t1_Paradigm,2021.1.4,60.055293112664266,
B,left,Distractor,0,43,43,43,1070.7485543031944,1072.7509109188686,left,1,2,0.6721250154660083,S19R04,2022-11-02_16h14.48.263,t1_Paradigm,2021.1.4,60.055293112664266,
N,left,Distractor,0,44,44,44,1074.2487490303465,1076.2511656361166,left,1,2,0.851833162130788,S19R04,2022-11-02_16h14.48.263,t1_Paradigm,2021.1.4,60.055293112664266,
S,left,Pretarget,0,45,45,45,1077.74869256909,1079.751224663807,left,1,2,0.7279270187136717,S19R04,2022-11-02_16h14.48.263,t1_Paradigm,2021.1.4,60.055293112664266,
Z,left,Distractor,0,46,46,46,1081.2487458223477,1083.2491147452965,left,1,2,0.5738439398119226,S19R04,2022-11-02_16h14.48.263,t1_Paradigm,2021.1.4,60.055293112664266,
S,right,Target,0,47,47,47,1084.748783356219,1086.751012934139,right,1,2,0.6560287464526482,S19R04,2022-11-02_16h14.48.263,t1_Paradigm,2021.1.4,60.055293112664266,
C,left,Distractor,0,48,48,48,1088.2487230453407,1090.251178789069,left,1,2,0.6603461074992083,S19R04,2022-11-02_16h14.48.263,t1_Paradigm,2021.1.4,60.055293112664266,
T,left,Pretarget,0,49,49,49,1091.74876571208,1093.7508345678798,left,1,2,0.9521186122437939,S19R04,2022-11-02_16h14.48.263,t1_Paradigm,2021.1.4,60.055293112664266,
S,left,Lure,0,50,50,50,1095.2488330806373,1097.2615410328726,left,1,2,0.7214259546017274,S19R04,2022-11-02_16h14.48.263,t1_Paradigm,2021.1.4,60.055293112664266,
T,right,Target,0,51,51,51,1098.748749992752,1100.750810507685,right,1,2,0.5443394065368921,S19R04,2022-11-02_16h14.48.263,t1_Paradigm,2021.1.4,60.055293112664266,
N,left,Pretarget,0,52,52,52,1102.2487435766961,1104.2506959811435,left,1,2,0.5648582598078065,S19R04,2022-11-02_16h14.48.263,t1_Paradigm,2021.1.4,60.055293112664266,
B,left,Distractor,0,53,53,53,1105.7489476071787,1107.7480560968397,left,1,2,0.970815948501695,S19R04,2022-11-02_16h14.48.263,t1_Paradigm,2021.1.4,60.055293112664266,
N,right,Target,0,54,54,54,1109.2488378926646,1111.2510395607096,right,1,2,0.7319441084982827,S19R04,2022-11-02_16h14.48.263,t1_Paradigm,2021.1.4,60.055293112664266,
N,left,Lure,0,55,55,55,1112.7488901835168,1114.7489828954567,left,1,2,0.7859980585053563,S19R04,2022-11-02_16h14.48.263,t1_Paradigm,2021.1.4,60.055293112664266,
X,left,Distractor,0,56,56,56,1116.2488266645814,1118.2509885531035,left,1,2,1.29998569219606,S19R04,2022-11-02_16h14.48.263,t1_Paradigm,2021.1.4,60.055293112664266,
W,left,Distractor,0,57,57,57,1119.7488224941771,1121.7506927731447,left,1,2,1.1609437626902945,S19R04,2022-11-02_16h14.48.263,t1_Paradigm,2021.1.4,60.055293112664266,
S,left,Distractor,0,58,58,58,1123.2488500831532,1125.2510199917597,left,1,2,0.8121713778818958,S19R04,2022-11-02_16h14.48.263,t1_Paradigm,2021.1.4,60.055293112664266,
L,left,Distractor,0,59,59,59,1126.7489703841275,1128.7509141269256,left,1,2,0.5921053053461947,S19R04,2022-11-02_16h14.48.263,t1_Paradigm,2021.1.4,60.055293112664266,
K,left,Pretarget,0,60,60,60,1130.2488520080224,1132.2511595409014,left,1,2,0.9318461354123428,S19R04,2022-11-02_16h14.48.263,t1_Paradigm,2021.1.4,60.055293112664266,
V,left,Pretarget,0,61,61,61,1133.7488516871817,1135.7500415439135,left,1,2,0.6810183043708093,S19R04,2022-11-02_16h14.48.263,t1_Paradigm,2021.1.4,60.055293112664266,
K,right,Target,0,62,62,62,1137.2488670857274,1139.2511476711952,right,1,2,0.6519324184628204,S19R04,2022-11-02_16h14.48.263,t1_Paradigm,2021.1.4,60.055293112664266,
V,right,Target,0,63,63,63,1140.7488959579496,1142.750864723348,right,1,2,0.6882629888132215,S19R04,2022-11-02_16h14.48.263,t1_Paradigm,2021.1.4,60.055293112664266,
R,left,Distractor,0,0,0,0,1273.217417205684,1275.2176157824579,left,1,3,0.5256632432574406,S19R04,2022-11-02_16h14.48.263,t1_Paradigm,2021.1.4,60.055293112664266,
P,left,Lure,0,1,1,1,1276.7147965694312,1278.7175471307128,left,1,3,0.44971451780293137,S19R04,2022-11-02_16h14.48.263,t1_Paradigm,2021.1.4,60.055293112664266,
V,left,Distractor,0,2,2,2,1280.2158077391796,1282.217739291431,left,1,3,0.6296783441212028,S19R04,2022-11-02_16h14.48.263,t1_Paradigm,2021.1.4,60.055293112664266,
P,left,Pretarget,0,3,3,3,1283.715826987289,1285.7178364946158,left,1,3,0.6815957489889115,S19R04,2022-11-02_16h14.48.263,t1_Paradigm,2021.1.4,60.055293112664266,
Z,left,Distractor,0,4,4,4,1287.2157111776178,1289.2178024895256,left,1,3,0.6534928021137603,S19R04,2022-11-02_16h14.48.263,t1_Paradigm,2021.1.4,60.055293112664266,
L,left,Pretarget,0,5,5,5,1290.7157114984002,1292.7180719636963,left,1,3,0.46524232462979853,S19R04,2022-11-02_16h14.48.263,t1_Paradigm,2021.1.4,60.055293112664266,
P,right,Target,0,6,6,6,1294.2157823957386,1296.2182586708223,right,1,3,0.4691060708137229,S19R04,2022-11-02_16h14.48.263,t1_Paradigm,2021.1.4,60.055293112664266,
S,left,Distractor,0,7,7,7,1297.7156620948226,1299.718160505232,left,1,3,0.5212445086799562,S19R04,2022-11-02_16h14.48.263,t1_Paradigm,2021.1.4,60.055293112664266,
L,right,Target,0,8,8,8,1301.2157724509016,1303.217987592623,right,1,3,1.0214292909367941,S19R04,2022-11-02_16h14.48.263,t1_Paradigm,2021.1.4,60.055293112664266,
D,left,Distractor,0,9,9,9,1304.7157583355438,1306.7182237033267,None,0,3,,S19R04,2022-11-02_16h14.48.263,t1_Paradigm,2021.1.4,60.055293112664266,
G,left,Distractor,0,10,10,10,1308.215785924578,1310.2181069311919,left,1,3,1.1893315821653232,S19R04,2022-11-02_16h14.48.263,t1_Paradigm,2021.1.4,60.055293112664266,
M,left,Pretarget,0,11,11,11,1311.7157641100348,1313.7165921014384,left,1,3,0.9547049226239324,S19R04,2022-11-02_16h14.48.263,t1_Paradigm,2021.1.4,60.055293112664266,
Y,left,Distractor,0,12,12,12,1315.2158382154303,1317.2175946094794,left,1,3,1.0697739176102914,S19R04,2022-11-02_16h14.48.263,t1_Paradigm,2021.1.4,60.055293112664266,
V,left,Distractor,0,13,13,13,1318.7158051727456,1320.717557075608,left,1,3,0.8020295253954828,S19R04,2022-11-02_16h14.48.263,t1_Paradigm,2021.1.4,60.055293112664266,
M,right,Target,0,14,14,14,1322.2158006815007,1324.2285336563364,left,0,3,1.114827430632431,S19R04,2022-11-02_16h14.48.263,t1_Paradigm,2021.1.4,60.055293112664266,
S,left,Pretarget,0,15,15,15,1325.715842706617,1327.717685075826,left,1,3,1.209675277234055,S19R04,2022-11-02_16h14.48.263,t1_Paradigm,2021.1.4,60.055293112664266,
Q,left,Distractor,0,16,16,16,1329.2157849621726,1331.217701436719,left,1,3,0.8458088106126525,S19R04,2022-11-02_16h14.48.263,t1_Paradigm,2021.1.4,60.055293112664266,
R,left,Pretarget,0,17,17,17,1332.7158141552354,1334.7178047351772,left,1,3,0.817566956335213,S19R04,2022-11-02_16h14.48.263,t1_Paradigm,2021.1.4,60.055293112664266,
S,right,Target,0,18,18,18,1336.2158244209131,1338.2180479035014,right,1,3,1.333344668324571,S19R04,2022-11-02_16h14.48.263,t1_Paradigm,2021.1.4,60.055293112664266,
F,left,Distractor,0,19,19,19,1339.7158991678734,1341.7177303089993,left,1,3,0.969665550510399,S19R04,2022-11-02_16h14.48.263,t1_Paradigm,2021.1.4,60.055293112664266,
R,right,Target,0,20,20,20,1343.2158160800464,1345.2178201336646,right,1,3,1.4376363009796478,S19R04,2022-11-02_16h14.48.263,t1_Paradigm,2021.1.4,60.055293112664266,
P,left,Distractor,0,21,21,21,1346.7159100751742,1348.7180536779924,left,1,3,0.9134269349742681,S19R04,2022-11-02_16h14.48.263,t1_Paradigm,2021.1.4,60.055293112664266,
L,left,Distractor,0,22,22,22,1350.2158228168846,1352.2178374570212,left,1,3,0.7417786321020685,S19R04,2022-11-02_16h14.48.263,t1_Paradigm,2021.1.4,60.055293112664266,
R,right,Target,0,23,23,23,1353.7158693332458,1355.7178554220009,right,1,3,0.6175459116930142,S19R04,2022-11-02_16h14.48.263,t1_Paradigm,2021.1.4,60.055293112664266,
H,left,Pretarget,0,24,24,24,1357.2158170424518,1359.2177585395984,left,1,3,0.9418516468140297,S19R04,2022-11-02_16h14.48.263,t1_Paradigm,2021.1.4,60.055293112664266,
G,left,Pretarget,0,25,25,25,1360.7158279497526,1362.718139653036,left,1,3,0.6414524400606751,S19R04,2022-11-02_16h14.48.263,t1_Paradigm,2021.1.4,60.055293112664266,
T,left,Distractor,0,26,26,26,1364.2158959598746,1366.2165706076776,left,1,3,0.9829503057408147,S19R04,2022-11-02_16h14.48.263,t1_Paradigm,2021.1.4,60.055293112664266,
H,right,Target,0,27,27,27,1367.7159501754795,1369.7151173720486,right,1,3,1.11660307290731,S19R04,2022-11-02_16h14.48.263,t1_Paradigm,2021.1.4,60.055293112664266,
G,right,Target,0,28,28,28,1371.2156685108203,1373.2174733460997,left,0,3,1.0699907801463269,S19R04,2022-11-02_16h14.48.263,t1_Paradigm,2021.1.4,60.055293112664266,
D,left,Distractor,0,29,29,29,1374.7158828069805,1376.7181909814826,None,0,3,,S19R04,2022-11-02_16h14.48.263,t1_Paradigm,2021.1.4,60.055293112664266,
N,left,Pretarget,0,30,30,30,1378.2158385362127,1380.2179583996185,left,1,3,1.0616970712435432,S19R04,2022-11-02_16h14.48.263,t1_Paradigm,2021.1.4,60.055293112664266,
V,left,Distractor,0,31,31,31,1381.7158853734145,1383.715152339486,left,1,3,0.812407809367869,S19R04,2022-11-02_16h14.48.263,t1_Paradigm,2021.1.4,60.055293112664266,
R,left,Distractor,0,32,32,32,1385.2159828973818,1387.2176876422018,left,1,3,0.9738780090701766,S19R04,2022-11-02_16h14.48.263,t1_Paradigm,2021.1.4,60.055293112664266,
N,right,Target,0,33,33,33,1388.7158940350637,1390.7179147704737,None,0,3,,S19R04,2022-11-02_16h14.48.263,t1_Paradigm,2021.1.4,60.055293112664266,
Z,left,Distractor,0,34,34,34,1392.2160101655754,1394.2181290665758,left,1,3,1.3173504145815969,S19R04,2022-11-02_16h14.48.263,t1_Paradigm,2021.1.4,60.055293112664266,
N,left,Lure,0,35,35,35,1395.7159312481526,1397.7181239337078,right,0,3,1.0172925418009982,S19R04,2022-11-02_16h14.48.263,t1_Paradigm,2021.1.4,60.055293112664266,
Y,left,Pretarget,0,36,36,36,1399.2158494435134,1401.2177566147875,left,1,3,0.8458915777155198,S19R04,2022-11-02_16h14.48.263,t1_Paradigm,2021.1.4,60.055293112664266,
Y,left,Lure,0,37,37,37,1402.7152258033166,1404.7158872982254,left,1,3,0.9956951502826996,S19R04,2022-11-02_16h14.48.263,t1_Paradigm,2021.1.4,60.055293112664266,
B,left,Distractor,0,38,38,38,1406.215888260631,1408.2179667404853,left,1,3,0.6616790421539918,S19R04,2022-11-02_16h14.48.263,t1_Paradigm,2021.1.4,60.055293112664266,
Y,right,Target,0,39,39,39,1409.7159043007414,1411.7175666996627,right,1,3,0.7781281298375688,S19R04,2022-11-02_16h14.48.263,t1_Paradigm,2021.1.4,60.055293112664266,
J,left,Distractor,0,40,40,40,1413.2161875694292,1415.2182548212004,left,1,3,0.8294565412215889,S19R04,2022-11-02_16h14.48.263,t1_Paradigm,2021.1.4,60.055293112664266,
X,left,Distractor,0,41,41,41,1416.7160544363433,1418.7177912614425,left,1,3,1.4257406208198518,S19R04,2022-11-02_16h14.48.263,t1_Paradigm,2021.1.4,60.055293112664266,
W,left,Pretarget,0,42,42,42,1420.2159777645138,1422.229057847755,left,1,3,1.1306776441051625,S19R04,2022-11-02_16h14.48.263,t1_Paradigm,2021.1.4,60.055293112664266,
S,left,Pretarget,0,43,43,43,1423.7159200200695,1425.7180373170413,left,1,3,0.6980388055671938,S19R04,2022-11-02_16h14.48.263,t1_Paradigm,2021.1.4,60.055293112664266,
R,left,Distractor,0,44,44,44,1427.2158985263086,1429.2177604644094,left,1,3,0.7337864776491188,S19R04,2022-11-02_16h14.48.263,t1_Paradigm,2021.1.4,60.055293112664266,
W,right,Target,0,45,45,45,1430.7159370225854,1432.7177678428707,right,1,3,0.9137143740663305,S19R04,2022-11-02_16h14.48.263,t1_Paradigm,2021.1.4,60.055293112664266,
S,right,Target,0,46,46,46,1434.2159784061369,1436.21842580894,right,1,3,0.9011097202310339,S19R04,2022-11-02_16h14.48.263,t1_Paradigm,2021.1.4,60.055293112664266,
D,left,Distractor,0,47,47,47,1437.7161314289551,1439.7178769157617,left,1,3,0.9856511426041834,S19R04,2022-11-02_16h14.48.263,t1_Paradigm,2021.1.4,60.055293112664266,
T,left,Distractor,0,48,48,48,1441.2159565915354,1443.2174018071382,left,1,3,0.6222488773637451,S19R04,2022-11-02_16h14.48.263,t1_Paradigm,2021.1.4,60.055293112664266,
S,right,Target,0,49,49,49,1444.7158334033447,1446.7168959014816,right,1,3,0.4666474399273284,S19R04,2022-11-02_16h14.48.263,t1_Paradigm,2021.1.4,60.055293112664266,
K,left,Distractor,0,50,50,50,1448.215794907068,1450.2178024895256,left,1,3,0.6459420720348135,S19R04,2022-11-02_16h14.48.263,t1_Paradigm,2021.1.4,60.055293112664266,
S,left,Lure,0,51,51,51,1451.7161708876956,1453.717884294223,left,1,3,0.9857432129210792,S19R04,2022-11-02_16h14.48.263,t1_Paradigm,2021.1.4,60.055293112664266,
T,left,Pretarget,0,52,52,52,1455.2159707068931,1457.2164044319652,left,1,3,0.7832192666246556,S19R04,2022-11-02_16h14.48.263,t1_Paradigm,2021.1.4,60.055293112664266,
V,left,Distractor,0,53,53,53,1458.7159546667244,1460.7286841127789,None,0,3,,S19R04,2022-11-02_16h14.48.263,t1_Paradigm,2021.1.4,60.055293112664266,
B,left,Distractor,0,54,54,54,1462.216060210776,1464.2181839238037,left,1,3,0.8374859087634832,S19R04,2022-11-02_16h14.48.263,t1_Paradigm,2021.1.4,60.055293112664266,
T,right,Target,0,55,55,55,1465.7159238696913,1467.7180363546358,right,1,3,0.4736094973050058,S19R04,2022-11-02_16h14.48.263,t1_Paradigm,2021.1.4,60.055293112664266,
Y,left,Pretarget,0,56,56,56,1469.2160643812385,1471.2180087656016,left,1,3,0.7655828244751319,S19R04,2022-11-02_16h14.48.263,t1_Paradigm,2021.1.4,60.055293112664266,
T,left,Lure,0,57,57,57,1472.7159838597872,1474.7165988382767,right,0,3,0.7870037745451555,S19R04,2022-11-02_16h14.48.263,t1_Paradigm,2021.1.4,60.055293112664266,
P,left,Pretarget,0,58,58,58,1476.216118276061,1478.2185355234542,left,1,3,0.8691093429806642,S19R04,2022-11-02_16h14.48.263,t1_Paradigm,2021.1.4,60.055293112664266,
Y,right,Target,0,59,59,59,1479.7161336745485,1481.7182631620672,right,1,3,0.8253685540403239,S19R04,2022-11-02_16h14.48.263,t1_Paradigm,2021.1.4,60.055293112664266,
R,left,Distractor,0,60,60,60,1483.2160685516428,1485.218828095356,left,1,3,1.0368345511960797,S19R04,2022-11-02_16h14.48.263,t1_Paradigm,2021.1.4,60.055293112664266,
P,right,Target,0,61,61,61,1486.7160579651827,1488.7181348410086,right,1,3,1.025335703860037,S19R04,2022-11-02_16h14.48.263,t1_Paradigm,2021.1.4,60.055293112664266,
L,left,Distractor,0,62,62,62,1490.2160887622158,1492.2178980887402,left,1,3,0.6139064065064304,S19R04,2022-11-02_16h14.48.263,t1_Paradigm,2021.1.4,60.055293112664266,
V,left,Distractor,0,63,63,63,1493.716100631922,1495.7326325508184,left,1,3,0.7151950062252581,S19R04,2022-11-02_16h14.48.263,t1_Paradigm,2021.1.4,60.055293112664266,
H,left,Lure,0,0,0,0,1526.832801549579,1528.8345601892797,left,1,3,0.41333518538158387,S19R04,2022-11-02_16h14.48.263,t1_Paradigm,2021.1.4,60.055293112664266,
B,left,Distractor,0,1,1,1,1530.3327559956233,1532.3345916279359,left,1,3,0.4170160741196014,S19R04,2022-11-02_16h14.48.263,t1_Paradigm,2021.1.4,60.055293112664266,
T,left,Distractor,0,2,2,2,1533.8328666725429,1535.8352117392933,left,1,3,0.372637850465253,S19R04,2022-11-02_16h14.48.263,t1_Paradigm,2021.1.4,60.055293112664266,
R,left,Distractor,0,3,3,3,1537.332801549579,1539.334694284771,left,1,3,0.6652078704209998,S19R04,2022-11-02_16h14.48.263,t1_Paradigm,2021.1.4,60.055293112664266,
H,left,Pretarget,0,4,4,4,1540.832809248881,1542.83453548752,left,1,3,0.4931768500828184,S19R04,2022-11-02_16h14.48.263,t1_Paradigm,2021.1.4,60.055293112664266,
K,left,Distractor,0,5,5,5,1544.3328044367954,1546.3350474883919,left,1,3,0.5289107277058065,S19R04,2022-11-02_16h14.48.263,t1_Paradigm,2021.1.4,60.055293112664266,
G,left,Distractor,0,6,6,6,1547.8328381211031,1549.8350311274407,left,1,3,0.5811207045335323,S19R04,2022-11-02_16h14.48.263,t1_Paradigm,2021.1.4,60.055293112664266,
H,right,Target,0,7,7,7,1551.3327569580288,1553.3345024448354,right,1,3,1.049211435194593,S19R04,2022-11-02_16h14.48.263,t1_Paradigm,2021.1.4,60.055293112664266,
Y,left,Pretarget,0,8,8,8,1554.8327569580288,1556.8350766814547,left,1,3,1.228885576769244,S19R04,2022-11-02_16h14.48.263,t1_Paradigm,2021.1.4,60.055293112664266,
S,left,Distractor,0,9,9,9,1558.3326247874065,1560.3350471676094,left,1,3,0.7849294650950469,S19R04,2022-11-02_16h14.48.263,t1_Paradigm,2021.1.4,60.055293112664266,
P,left,Distractor,0,10,10,10,1561.83284646197,1563.8320723653305,left,1,3,0.903667799953837,S19R04,2022-11-02_16h14.48.263,t1_Paradigm,2021.1.4,60.055293112664266,
Y,right,Target,0,11,11,11,1565.3327903214958,1567.3350545460708,right,1,3,1.0167054731282406,S19R04,2022-11-02_16h14.48.263,t1_Paradigm,2021.1.4,60.055293112664266,
H,left,Lure,0,12,12,12,1568.8329090184416,1570.8456314068171,left,1,3,0.7061451657209545,S19R04,2022-11-02_16h14.48.263,t1_Paradigm,2021.1.4,60.055293112664266,
Q,left,Distractor,0,13,13,13,1572.332855123619,1574.3348376835347,left,1,3,0.752948977635242,S19R04,2022-11-02_16h14.48.263,t1_Paradigm,2021.1.4,60.055293112664266,
V,left,Pretarget,0,14,14,14,1575.83287661738,1577.834426414629,left,1,3,0.7414867018233053,S19R04,2022-11-02_16h14.48.263,t1_Paradigm,2021.1.4,60.055293112664266,
G,left,Distractor,0,15,15,15,1579.3328689181362,1581.3350776438601,left,1,3,0.8568585343891755,S19R04,2022-11-02_16h14.48.263,t1_Paradigm,2021.1.4,60.055293112664266,
Z,left,Pretarget,0,16,16,16,1582.8320300194318,1584.8348845206783,left,1,3,0.6528993174433708,S19R04,2022-11-02_16h14.48.263,t1_Paradigm,2021.1.4,60.055293112664266,
V,right,Target,0,17,17,17,1586.3329180009314,1588.3344183945446,right,1,3,0.8976043105358258,S19R04,2022-11-02_16h14.48.263,t1_Paradigm,2021.1.4,60.055293112664266,
N,left,Distractor,0,18,18,18,1589.8329645172926,1591.8350901551312,left,1,3,0.6129225050099194,S19R04,2022-11-02_16h14.48.263,t1_Paradigm,2021.1.4,60.055293112664266,
Z,right,Target,0,19,19,19,1593.3328782214085,1595.3325962359668,right,1,3,0.7475011083879508,S19R04,2022-11-02_16h14.48.263,t1_Paradigm,2021.1.4,60.055293112664266,
R,left,Distractor,0,20,20,20,1596.8331072744331,1598.8349409819348,left,1,3,0.7489036571932957,S19R04,2022-11-02_16h14.48.263,t1_Paradigm,2021.1.4,60.055293112664266,
P,left,Distractor,0,21,21,21,1600.332892336708,1602.3347305354546,left,1,3,0.9613522726576775,S19R04,2022-11-02_16h14.48.263,t1_Paradigm,2021.1.4,60.055293112664266,
Z,right,Target,0,22,22,22,1603.8329391739098,1605.8349964807858,left,0,3,0.9647611207328737,S19R04,2022-11-02_16h14.48.263,t1_Paradigm,2021.1.4,60.055293112664266,
D,left,Pretarget,0,23,23,23,1607.332965479698,1609.3349586260738,left,1,3,0.6489136662567034,S19R04,2022-11-02_16h14.48.263,t1_Paradigm,2021.1.4,60.055293112664266,
K,left,Distractor,0,24,24,24,1610.8329520060215,1612.834849553241,left,1,3,0.6690116265090182,S19R04,2022-11-02_16h14.48.263,t1_Paradigm,2021.1.4,60.055293112664266,
W,left,Distractor,0,25,25,25,1614.3329330786364,1616.335038505902,left,1,3,0.545019828772638,S19R04,2022-11-02_16h14.48.263,t1_Paradigm,2021.1.4,60.055293112664266,
D,right,Target,0,26,26,26,1617.8330062216264,1619.8350413931767,right,1,3,0.5329964692355134,S19R04,2022-11-02_16h14.48.263,t1_Paradigm,2021.1.4,60.055293112664266,
G,left,Pretarget,0,27,27,27,1621.3329712541308,1623.3351857542875,left,1,3,0.6327031915425323,S19R04,2022-11-02_16h14.48.263,t1_Paradigm,2021.1.4,60.055293112664266,
V,left,Distractor,0,28,28,28,1624.8329734997824,1626.8348081696895,left,1,3,0.9409848381765187,S19R04,2022-11-02_16h14.48.263,t1_Paradigm,2021.1.4,60.055293112664266,
D,right,Target,0,29,29,29,1628.3327515043784,1630.3351456539822,left,0,3,1.136769043339882,S19R04,2022-11-02_16h14.48.263,t1_Paradigm,2021.1.4,60.055293112664266,
G,right,Target,0,30,30,30,1631.8330508131767,1633.835340701975,left,0,3,0.9645853210240602,S19R04,2022-11-02_16h14.48.263,t1_Paradigm,2021.1.4,60.055293112664266,
B,left,Pretarget,0,31,31,31,1635.333060116449,1637.3352672381443,left,1,3,0.9206600705510937,S19R04,2022-11-02_16h14.48.263,t1_Paradigm,2021.1.4,60.055293112664266,
N,left,Distractor,0,32,32,32,1638.8329718957539,1640.8355687925941,left,1,3,0.7967099771485664,S19R04,2022-11-02_16h14.48.263,t1_Paradigm,2021.1.4,60.055293112664266,
F,left,Distractor,0,33,33,33,1642.332875334192,1644.3350115584908,left,1,3,0.6570280464948155,S19R04,2022-11-02_16h14.48.263,t1_Paradigm,2021.1.4,60.055293112664266,
B,right,Target,0,34,34,34,1645.832914472092,1647.8347324602655,right,1,3,0.405258018290624,S19R04,2022-11-02_16h14.48.263,t1_Paradigm,2021.1.4,60.055293112664266,
Q,left,Pretarget,0,35,35,35,1649.3329702917254,1651.3348938239506,left,1,3,1.0812987499521114,S19R04,2022-11-02_16h14.48.263,t1_Paradigm,2021.1.4,60.055293112664266,
S,left,Pretarget,0,36,36,36,1652.832988256705,1654.8348075280664,left,1,3,0.6371139060938731,S19R04,2022-11-02_16h14.48.263,t1_Paradigm,2021.1.4,60.055293112664266,
W,left,Distractor,0,37,37,37,1656.3329388531274,1658.3352146265097,left,1,3,0.7847203018609434,S19R04,2022-11-02_16h14.48.263,t1_Paradigm,2021.1.4,60.055293112664266,
Q,right,Target,0,38,38,38,1659.8330042968155,1661.8350750774262,right,1,3,0.5970052438788116,S19R04,2022-11-02_16h14.48.263,t1_Paradigm,2021.1.4,60.055293112664266,
S,right,Target,0,39,39,39,1663.3331066328683,1665.3353673285455,left,0,3,0.4567307908437215,S19R04,2022-11-02_16h14.48.263,t1_Paradigm,2021.1.4,60.055293112664266,
T,left,Distractor,0,40,40,40,1666.8329269834212,1668.8349268666352,left,1,3,0.7490319782518782,S19R04,2022-11-02_16h14.48.263,t1_Paradigm,2021.1.4,60.055293112664266,
G,left,Distractor,0,41,41,41,1670.3331053496222,1672.334606064076,left,1,3,0.7533631337573752,S19R04,2022-11-02_16h14.48.263,t1_Paradigm,2021.1.4,60.055293112664266,
D,left,Distractor,0,42,42,42,1673.8329965975718,1675.8353593085194,left,1,3,0.7407010562601499,S19R04,2022-11-02_16h14.48.263,t1_Paradigm,2021.1.4,60.055293112664266,
S,left,Lure,0,43,43,43,1677.333150903578,1679.3351427667658,left,1,3,0.9528256611083634,S19R04,2022-11-02_16h14.48.263,t1_Paradigm,2021.1.4,60.055293112664266,
Z,left,Pretarget,0,44,44,44,1680.8331040664343,1682.8354901959538,left,1,3,1.1004413602058776,S19R04,2022-11-02_16h14.48.263,t1_Paradigm,2021.1.4,60.055293112664266,
J,left,Distractor,0,45,45,45,1684.3328044367954,1686.335046205204,left,1,3,0.9291202758904546,S19R04,2022-11-02_16h14.48.263,t1_Paradigm,2021.1.4,60.055293112664266,
M,left,Pretarget,0,46,46,46,1687.8330110336537,1689.8350798894535,left,1,3,0.9167899083113298,S19R04,2022-11-02_16h14.48.263,t1_Paradigm,2021.1.4,60.055293112664266,
Z,right,Target,0,47,47,47,1691.3331274850061,1693.3348874078947,right,1,3,0.5851406815345399,S19R04,2022-11-02_16h14.48.263,t1_Paradigm,2021.1.4,60.055293112664266,
P,left,Distractor,0,48,48,48,1694.8330822518328,1696.8348517988343,left,1,3,0.9089674584101886,S19R04,2022-11-02_16h14.48.263,t1_Paradigm,2021.1.4,60.055293112664266,
M,right,Target,0,49,49,49,1698.3331800966407,1700.3345601892797,right,1,3,0.7214798494242132,S19R04,2022-11-02_16h14.48.263,t1_Paradigm,2021.1.4,60.055293112664266,
K,left,Distractor,0,50,50,50,1701.8331396754947,1703.8350574332871,left,1,3,0.6131714477669448,S19R04,2022-11-02_16h14.48.263,t1_Paradigm,2021.1.4,60.055293112664266,
Y,left,Distractor,0,51,51,51,1705.3330716653727,1707.334424489818,left,1,3,0.6175715758581646,S19R04,2022-11-02_16h14.48.263,t1_Paradigm,2021.1.4,60.055293112664266,
X,left,Distractor,0,52,52,52,1708.8327941711177,1710.834822926612,left,1,3,1.0212445086217485,S19R04,2022-11-02_16h14.48.263,t1_Paradigm,2021.1.4,60.055293112664266,
F,left,Pretarget,0,53,53,53,1712.3330902719172,1714.3352438195725,left,1,3,0.7527953131939285,S19R04,2022-11-02_16h14.48.263,t1_Paradigm,2021.1.4,60.055293112664266,
M,left,Lure,0,54,54,54,1715.83305690845,1717.8351786966668,left,1,3,0.8206303000333719,S19R04,2022-11-02_16h14.48.263,t1_Paradigm,2021.1.4,60.055293112664266,
V,left,Distractor,0,55,55,55,1719.3331249185721,1721.3349996888428,left,1,3,0.9051207148004323,S19R04,2022-11-02_16h14.48.263,t1_Paradigm,2021.1.4,60.055293112664266,
F,right,Target,0,56,56,56,1722.8332160265418,1724.8354205818032,right,1,3,0.7326065658126026,S19R04,2022-11-02_16h14.48.263,t1_Paradigm,2021.1.4,60.055293112664266,
S,left,Distractor,0,57,57,57,1726.3324095288408,1728.3348675181624,left,1,3,0.8012345766182989,S19R04,2022-11-02_16h14.48.263,t1_Paradigm,2021.1.4,60.055293112664266,
D,left,Distractor,0,58,58,58,1729.8332115352969,1731.835174205422,left,1,3,0.8687644802266732,S19R04,2022-11-02_16h14.48.263,t1_Paradigm,2021.1.4,60.055293112664266,
F,right,Target,0,59,59,59,1733.3332169889472,1735.3353054136387,left,0,3,0.9847962037310936,S19R04,2022-11-02_16h14.48.263,t1_Paradigm,2021.1.4,60.055293112664266,
V,left,Pretarget,0,60,60,60,1736.8331935703172,1738.8347452923772,left,1,3,0.8775464506470598,S19R04,2022-11-02_16h14.48.263,t1_Paradigm,2021.1.4,60.055293112664266,
J,left,Distractor,0,61,61,61,1740.333077760588,1742.3350054632756,None,0,3,,S19R04,2022-11-02_16h14.48.263,t1_Paradigm,2021.1.4,60.055293112664266,
V,left,Lure,0,62,62,62,1743.8330838558613,1745.8493190323934,None,0,3,,S19R04,2022-11-02_16h14.48.263,t1_Paradigm,2021.1.4,60.055293112664266,
V,right,Target,0,63,63,63,1747.333121389791,1749.3332679965533,left,0,3,1.1310026170685887,S19R04,2022-11-02_16h14.48.263,t1_Paradigm,2021.1.4,60.055293112664266,
R,left,Distractor,0,0,0,0,1832.2837684806436,1834.2824256010936,left,1,4,0.3896599556901492,S19R04,2022-11-02_16h14.48.263,t1_Paradigm,2021.1.4,60.055293112664266,
F,left,Distractor,0,1,1,1,1835.7830139529542,1837.7852759319358,left,1,4,0.42310137808090076,S19R04,2022-11-02_16h14.48.263,t1_Paradigm,2021.1.4,60.055293112664266,
P,left,Pretarget,0,2,2,2,1839.2832616125816,1841.285609245766,left,1,4,0.5227901354664937,S19R04,2022-11-02_16h14.48.263,t1_Paradigm,2021.1.4,60.055293112664266,
H,left,Distractor,0,3,3,3,1842.7832930512377,1844.785262458201,left,1,4,0.47918376279994845,S19R04,2022-11-02_16h14.48.263,t1_Paradigm,2021.1.4,60.055293112664266,
Z,left,Distractor,0,4,4,4,1846.2832994672935,1848.2851238714647,left,1,4,0.5793748969445005,S19R04,2022-11-02_16h14.48.263,t1_Paradigm,2021.1.4,60.055293112664266,
T,left,Distractor,0,5,5,5,1849.7832025848911,1851.7857102985727,left,1,4,1.2225423475611024,S19R04,2022-11-02_16h14.48.263,t1_Paradigm,2021.1.4,60.055293112664266,
P,right,Target,0,6,6,6,1853.2834149561822,1855.285482528794,right,1,4,0.7149245697073638,S19R04,2022-11-02_16h14.48.263,t1_Paradigm,2021.1.4,60.055293112664266,
G,left,Distractor,0,7,7,7,1856.7832381939515,1858.7825285787112,left,1,4,0.5618029361357912,S19R04,2022-11-02_16h14.48.263,t1_Paradigm,2021.1.4,60.055293112664266,
L,left,Distractor,0,8,8,8,1860.2833398883813,1862.2852403228171,left,1,4,0.6429926131968386,S19R04,2022-11-02_16h14.48.263,t1_Paradigm,2021.1.4,60.055293112664266,
P,left,Lure,0,9,9,9,1863.7831830159412,1865.7857702886686,left,1,4,1.030844525550492,S19R04,2022-11-02_16h14.48.263,t1_Paradigm,2021.1.4,60.055293112664266,
Q,left,Pretarget,0,10,10,10,1867.2832924096147,1869.2960815249244,left,1,4,0.7043400096590631,S19R04,2022-11-02_16h14.48.263,t1_Paradigm,2021.1.4,60.055293112664266,
D,left,Distractor,0,11,11,11,1870.783440941188,1872.7855842231656,left,1,4,0.8472299660206772,S19R04,2022-11-02_16h14.48.263,t1_Paradigm,2021.1.4,60.055293112664266,
M,left,Pretarget,0,12,12,12,1874.2835281994776,1876.2855383484275,left,1,4,1.0428245767834596,S19R04,2022-11-02_16h14.48.263,t1_Paradigm,2021.1.4,60.055293112664266,
C,left,Distractor,0,13,13,13,1877.7833649109816,1879.7842211330426,left,1,4,0.7122574171517044,S19R04,2022-11-02_16h14.48.263,t1_Paradigm,2021.1.4,60.055293112664266,
Q,right,Target,0,14,14,14,1881.2833838383667,1883.28262449865,right,1,4,0.6217635030625388,S19R04,2022-11-02_16h14.48.263,t1_Paradigm,2021.1.4,60.055293112664266,
R,left,Distractor,0,15,15,15,1884.7834162394283,1886.7854360123747,left,1,4,0.6710150385624729,S19R04,2022-11-02_16h14.48.263,t1_Paradigm,2021.1.4,60.055293112664266,
M,right,Target,0,16,16,16,1888.283444149245,1890.285393666476,right,1,4,0.8189566730288789,S19R04,2022-11-02_16h14.48.263,t1_Paradigm,2021.1.4,60.055293112664266,
S,left,Distractor,0,17,17,17,1891.782517350628,1893.785816163465,left,1,4,0.8066984859760851,S19R04,2022-11-02_16h14.48.263,t1_Paradigm,2021.1.4,60.055293112664266,
Z,left,Distractor,0,18,18,18,1895.2834178433986,1897.2855251955334,left,1,4,0.6988404911826365,S19R04,2022-11-02_16h14.48.263,t1_Paradigm,2021.1.4,60.055293112664266,
L,left,Pretarget,0,19,19,19,1898.7833982744487,1900.7850330843357,left,1,4,0.7193853294593282,S19R04,2022-11-02_16h14.48.263,t1_Paradigm,2021.1.4,60.055293112664266,
M,right,Target,0,20,20,20,1902.2834573021391,1904.2854921528487,right,1,4,0.5791185757261701,S19R04,2022-11-02_16h14.48.263,t1_Paradigm,2021.1.4,60.055293112664266,
P,left,Distractor,0,21,21,21,1905.7834903448238,1907.7856429300737,left,1,4,0.5507551371701993,S19R04,2022-11-02_16h14.48.263,t1_Paradigm,2021.1.4,60.055293112664266,
F,left,Distractor,0,22,22,22,1909.2834823247395,1911.2854597517871,left,1,4,1.0029234738321975,S19R04,2022-11-02_16h14.48.263,t1_Paradigm,2021.1.4,60.055293112664266,
L,right,Target,0,23,23,23,1912.7834396580001,1914.785441466025,right,1,4,1.1669171065441333,S19R04,2022-11-02_16h14.48.263,t1_Paradigm,2021.1.4,60.055293112664266,
L,left,Lure,0,24,24,24,1916.2830851711333,1918.2834967608796,left,1,4,1.01309516094625,S19R04,2022-11-02_16h14.48.263,t1_Paradigm,2021.1.4,60.055293112664266,
V,left,Pretarget,0,25,25,25,1919.7834326003212,1921.7852438516566,left,1,4,0.5991831724531949,S19R04,2022-11-02_16h14.48.263,t1_Paradigm,2021.1.4,60.055293112664266,
Z,left,Distractor,0,26,26,26,1923.2833941040444,1925.2852435308741,left,1,4,0.5711918649612926,S19R04,2022-11-02_16h14.48.263,t1_Paradigm,2021.1.4,60.055293112664266,
H,left,Distractor,0,27,27,27,1926.7833902544226,1928.7858703790698,left,1,4,0.70253934484208,S19R04,2022-11-02_16h14.48.263,t1_Paradigm,2021.1.4,60.055293112664266,
X,left,Distractor,0,28,28,28,1930.283410785778,1932.285534177965,left,1,4,0.7230338170775212,S19R04,2022-11-02_16h14.48.263,t1_Paradigm,2021.1.4,60.055293112664266,
V,right,Target,0,29,29,29,1933.7832754070987,1935.785735962796,left,0,4,0.9346393633750267,S19R04,2022-11-02_16h14.48.263,t1_Paradigm,2021.1.4,60.055293112664266,
C,left,Distractor,0,30,30,30,1937.2834640389774,1939.2852797815576,left,1,4,0.9871900325524621,S19R04,2022-11-02_16h14.48.263,t1_Paradigm,2021.1.4,60.055293112664266,
S,left,Pretarget,0,31,31,31,1940.7834412620286,1942.7854141978314,left,1,4,0.7190459202975035,S19R04,2022-11-02_16h14.48.263,t1_Paradigm,2021.1.4,60.055293112664266,
D,left,Distractor,0,32,32,32,1944.2834255427006,1946.2856695566443,left,1,4,0.6109402659349144,S19R04,2022-11-02_16h14.48.263,t1_Paradigm,2021.1.4,60.055293112664266,
V,left,Distractor,0,33,33,33,1947.7835028560949,1949.7853275811067,right,0,4,1.1112796750385314,S19R04,2022-11-02_16h14.48.263,t1_Paradigm,2021.1.4,60.055293112664266,
R,left,Distractor,0,34,34,34,1951.283373572689,1953.285517817072,left,1,4,1.1951162941404618,S19R04,2022-11-02_16h14.48.263,t1_Paradigm,2021.1.4,60.055293112664266,
S,right,Target,0,35,35,35,1954.7834255427006,1956.785713827412,right,1,4,1.1187601494020782,S19R04,2022-11-02_16h14.48.263,t1_Paradigm,2021.1.4,60.055293112664266,
Y,left,Distractor,0,36,36,36,1958.2836160993902,1960.2853676814702,left,1,4,0.6912345830351114,S19R04,2022-11-02_16h14.48.263,t1_Paradigm,2021.1.4,60.055293112664266,
N,left,Pretarget,0,37,37,37,1961.7836154578254,1963.7854966440937,left,1,4,0.6311116899596527,S19R04,2022-11-02_16h14.48.263,t1_Paradigm,2021.1.4,60.055293112664266,
Z,left,Pretarget,0,38,38,38,1965.2832086801645,1967.285573315865,right,0,4,0.9550003818003461,S19R04,2022-11-02_16h14.48.263,t1_Paradigm,2021.1.4,60.055293112664266,
P,left,Pretarget,0,39,39,39,1968.7835134426132,1970.785413235426,left,1,4,1.0071224586572498,S19R04,2022-11-02_16h14.48.263,t1_Paradigm,2021.1.4,60.055293112664266,
M,left,Distractor,0,40,40,40,1972.2836084001465,1974.286172254302,left,1,4,0.7543595465249382,S19R04,2022-11-02_16h14.48.263,t1_Paradigm,2021.1.4,60.055293112664266,
N,right,Target,0,41,41,41,1975.783552580513,1977.7853487540851,right,1,4,0.7755026816157624,S19R04,2022-11-02_16h14.48.263,t1_Paradigm,2021.1.4,60.055293112664266,
Z,right,Target,0,42,42,42,1979.2834425452165,1981.285698749707,None,0,4,,S19R04,2022-11-02_16h14.48.263,t1_Paradigm,2021.1.4,60.055293112664266,
P,right,Target,0,43,43,43,1982.7835076681222,1984.7855932056555,None,0,4,,S19R04,2022-11-02_16h14.48.263,t1_Paradigm,2021.1.4,60.055293112664266,
X,left,Pretarget,0,44,44,44,1986.283678014297,1988.2854058569646,left,1,4,0.6591212832718156,S19R04,2022-11-02_16h14.48.263,t1_Paradigm,2021.1.4,60.055293112664266,
Z,left,Lure,0,45,45,45,1989.7835249914788,1991.7858193714637,None,0,4,,S19R04,2022-11-02_16h14.48.263,t1_Paradigm,2021.1.4,60.055293112664266,
R,left,Pretarget,0,46,46,46,1993.2835788863013,1995.2829241282889,left,1,4,0.9257483200635761,S19R04,2022-11-02_16h14.48.263,t1_Paradigm,2021.1.4,60.055293112664266,
K,left,Distractor,0,47,47,47,1996.7836359891808,1998.7853240522672,left,1,4,0.9114575279527344,S19R04,2022-11-02_16h14.48.263,t1_Paradigm,2021.1.4,60.055293112664266,
X,right,Target,0,48,48,48,2000.2837097737356,2002.2855213458533,left,0,4,0.8190404024790041,S19R04,2022-11-02_16h14.48.263,t1_Paradigm,2021.1.4,60.055293112664266,
B,left,Distractor,0,49,49,49,2003.7835060641519,2005.7858617174206,left,1,4,0.5987218584050424,S19R04,2022-11-02_16h14.48.263,t1_Paradigm,2021.1.4,60.055293112664266,
R,right,Target,0,50,50,50,2007.2836391971796,2009.2826158370008,left,0,4,1.3104464224306867,S19R04,2022-11-02_16h14.48.263,t1_Paradigm,2021.1.4,60.055293112664266,
Y,left,Pretarget,0,51,51,51,2010.7835776031134,2012.7997576015769,left,1,4,1.0088634542771615,S19R04,2022-11-02_16h14.48.263,t1_Paradigm,2021.1.4,60.055293112664266,
W,left,Pretarget,0,52,52,52,2014.283461151761,2016.285314748995,left,1,4,1.1074027760187164,S19R04,2022-11-02_16h14.48.263,t1_Paradigm,2021.1.4,60.055293112664266,
Z,left,Distractor,0,53,53,53,2017.7835509764845,2019.7963404125767,left,1,4,0.7167845829972066,S19R04,2022-11-02_16h14.48.263,t1_Paradigm,2021.1.4,60.055293112664266,
Q,left,Distractor,0,54,54,54,2021.2835391067783,2023.2858864191803,left,1,4,0.5868101381347515,S19R04,2022-11-02_16h14.48.263,t1_Paradigm,2021.1.4,60.055293112664266,
Y,right,Target,0,55,55,55,2024.783568941406,2026.7826187242172,right,1,4,0.7859958129120059,S19R04,2022-11-02_16h14.48.263,t1_Paradigm,2021.1.4,60.055293112664266,
W,right,Target,0,56,56,56,2028.283516008989,2030.2858344491688,right,1,4,1.0908692530356348,S19R04,2022-11-02_16h14.48.263,t1_Paradigm,2021.1.4,60.055293112664266,
H,left,Pretarget,0,57,57,57,2031.7833029960748,2033.7854549397598,left,1,4,0.5991757940500975,S19R04,2022-11-02_16h14.48.263,t1_Paradigm,2021.1.4,60.055293112664266,
M,left,Distractor,0,58,58,58,2035.2836526709143,2037.2828150553978,left,1,4,1.0381636362872086,S19R04,2022-11-02_16h14.48.263,t1_Paradigm,2021.1.4,60.055293112664266,
R,left,Pretarget,0,59,59,59,2038.7836273274734,2040.7852958216681,left,1,4,0.7033342935610563,S19R04,2022-11-02_16h14.48.263,t1_Paradigm,2021.1.4,60.055293112664266,
J,left,Distractor,0,60,60,60,2042.2836552373483,2044.2851809743443,left,1,4,0.5153301924583502,S19R04,2022-11-02_16h14.48.263,t1_Paradigm,2021.1.4,60.055293112664266,
H,right,Target,0,61,61,61,2045.7834534525173,2047.7856021881453,right,1,4,0.5190598431508988,S19R04,2022-11-02_16h14.48.263,t1_Paradigm,2021.1.4,60.055293112664266,
Z,left,Distractor,0,62,62,62,2049.2837319091195,2051.2853105785907,left,1,4,0.7955284612835385,S19R04,2022-11-02_16h14.48.263,t1_Paradigm,2021.1.4,60.055293112664266,
R,right,Target,0,63,63,63,2052.7836507461034,2054.7854732254636,left,0,4,0.6552931462065317,S19R04,2022-11-02_16h14.48.263,t1_Paradigm,2021.1.4,60.055293112664266,
J,left,Pretarget,0,0,0,0,2064.96977237775,2066.9689799954067,left,1,4,0.3920383859076537,S19R04,2022-11-02_16h14.48.263,t1_Paradigm,2021.1.4,60.055293112664266,
G,left,Pretarget,0,1,1,1,2068.4669765833532,2070.468784305791,left,1,4,0.3960971800843254,S19R04,2022-11-02_16h14.48.263,t1_Paradigm,2021.1.4,60.055293112664266,
Z,left,Distractor,0,2,2,2,2071.967037856637,2073.96929438191,left,1,4,0.44780991290463135,S19R04,2022-11-02_16h14.48.263,t1_Paradigm,2021.1.4,60.055293112664266,
F,left,Distractor,0,3,3,3,2075.46701507963,2077.4688786217594,left,1,4,0.48379658290650696,S19R04,2022-11-02_16h14.48.263,t1_Paradigm,2021.1.4,60.055293112664266,
J,right,Target,0,4,4,4,2078.9669284629636,2080.969398321933,right,1,4,0.6313153996015899,S19R04,2022-11-02_16h14.48.263,t1_Paradigm,2021.1.4,60.055293112664266,
G,right,Target,0,5,5,5,2082.466955089534,2084.469204877969,right,1,4,0.6674971175962128,S19R04,2022-11-02_16h14.48.263,t1_Paradigm,2021.1.4,60.055293112664266,
H,left,Distractor,0,6,6,6,2085.967000001925,2087.968800025119,left,1,4,0.5922413256485015,S19R04,2022-11-02_16h14.48.263,t1_Paradigm,2021.1.4,60.055293112664266,
P,left,Distractor,0,7,7,7,2089.4669958314626,2091.468726240564,left,1,4,0.7720139535958879,S19R04,2022-11-02_16h14.48.263,t1_Paradigm,2021.1.4,60.055293112664266,
G,left,Lure,0,8,8,8,2092.967128002143,2094.969023303711,left,1,4,1.1279164963634685,S19R04,2022-11-02_16h14.48.263,t1_Paradigm,2021.1.4,60.055293112664266,
S,left,Distractor,0,9,9,9,2096.467222638894,2098.4690682161017,left,1,4,0.731752589403186,S19R04,2022-11-02_16h14.48.263,t1_Paradigm,2021.1.4,60.055293112664266,
R,left,Pretarget,0,10,10,10,2099.967215581273,2101.967756454367,left,1,4,0.7047031581751071,S19R04,2022-11-02_16h14.48.263,t1_Paradigm,2021.1.4,60.055293112664266,
T,left,Pretarget,0,11,11,11,2103.4670728240744,2105.4689838450286,left,1,4,0.7558050829102285,S19R04,2022-11-02_16h14.48.263,t1_Paradigm,2021.1.4,60.055293112664266,
X,left,Distractor,0,12,12,12,2106.967011230008,2108.9688863210613,left,1,4,0.5998741812072694,S19R04,2022-11-02_16h14.48.263,t1_Paradigm,2021.1.4,60.055293112664266,
F,left,Pretarget,0,13,13,13,2110.467147571093,2112.468886962626,left,1,4,0.5239966739318334,S19R04,2022-11-02_16h14.48.263,t1_Paradigm,2021.1.4,60.055293112664266,
R,right,Target,0,14,14,14,2113.9668232396943,2115.9695115652285,left,0,4,0.927428042399697,S19R04,2022-11-02_16h14.48.263,t1_Paradigm,2021.1.4,60.055293112664266,
T,right,Target,0,15,15,15,2117.4670237413375,2119.468839804642,right,1,4,1.0280233877710998,S19R04,2022-11-02_16h14.48.263,t1_Paradigm,2021.1.4,60.055293112664266,
C,left,Distractor,0,16,16,16,2120.9670583879924,2122.96956353524,left,1,4,0.9352745524374768,S19R04,2022-11-02_16h14.48.263,t1_Paradigm,2021.1.4,60.055293112664266,
F,right,Target,0,17,17,17,2124.4671812554006,2126.4693168380763,right,1,4,0.9874813212663867,S19R04,2022-11-02_16h14.48.263,t1_Paradigm,2021.1.4,60.055293112664266,
M,left,Distractor,0,18,18,18,2127.967215581273,2129.969291173853,left,1,4,0.7513414360000752,S19R04,2022-11-02_16h14.48.263,t1_Paradigm,2021.1.4,60.055293112664266,
N,left,Distractor,0,19,19,19,2131.467210127623,2133.469107033219,left,1,4,0.8996933769085445,S19R04,2022-11-02_16h14.48.263,t1_Paradigm,2021.1.4,60.055293112664266,
R,left,Lure,0,20,20,20,2134.9671738769393,2136.968925458961,right,0,4,0.7440396486781538,S19R04,2022-11-02_16h14.48.263,t1_Paradigm,2021.1.4,60.055293112664266,
F,right,Target,0,21,21,21,2138.467086297809,2140.4693495599204,left,0,4,1.2917972066206858,S19R04,2022-11-02_16h14.48.263,t1_Paradigm,2021.1.4,60.055293112664266,
P,left,Distractor,0,22,22,22,2141.9671459670644,2143.9692751337425,left,1,4,0.8957013097242452,S19R04,2022-11-02_16h14.48.263,t1_Paradigm,2021.1.4,60.055293112664266,
L,left,Pretarget,0,23,23,23,2145.467070578481,2147.4689851282164,left,1,4,0.9320203312090598,S19R04,2022-11-02_16h14.48.263,t1_Paradigm,2021.1.4,60.055293112664266,
T,left,Distractor,0,24,24,24,2148.966373474512,2150.9694939210895,left,1,4,0.6314148483797908,S19R04,2022-11-02_16h14.48.263,t1_Paradigm,2021.1.4,60.055293112664266,
F,left,Distractor,0,25,25,25,2152.4671629696386,2154.4695089988527,left,1,4,0.9233804763061926,S19R04,2022-11-02_16h14.48.263,t1_Paradigm,2021.1.4,60.055293112664266,
V,left,Distractor,0,26,26,26,2155.9672236012993,2157.969183384208,left,1,4,0.6077617540722713,S19R04,2022-11-02_16h14.48.263,t1_Paradigm,2021.1.4,60.055293112664266,
L,right,Target,0,27,27,27,2159.4671517415554,2161.4691737601534,right,1,4,0.8836532483110204,S19R04,2022-11-02_16h14.48.263,t1_Paradigm,2021.1.4,60.055293112664266,
S,left,Pretarget,0,28,28,28,2162.9672309797606,2164.9693412190536,left,1,4,0.6956109717139043,S19R04,2022-11-02_16h14.48.263,t1_Paradigm,2021.1.4,60.055293112664266,
W,left,Distractor,0,29,29,29,2166.4672576063895,2168.4664203116554,left,1,4,0.6545934757450595,S19R04,2022-11-02_16h14.48.263,t1_Paradigm,2021.1.4,60.055293112664266,
Q,left,Distractor,0,30,30,30,2169.9671863882104,2171.969647906313,left,1,4,0.5592005857033655,S19R04,2022-11-02_16h14.48.263,t1_Paradigm,2021.1.4,60.055293112664266,
L,right,Target,0,31,31,31,2173.4673175964854,2175.466633003787,right,1,4,0.6143821566947736,S19R04,2022-11-02_16h14.48.263,t1_Paradigm,2021.1.4,60.055293112664266,
S,right,Target,0,32,32,32,2176.967150137527,2178.967983582581,left,0,4,0.6008433258393779,S19R04,2022-11-02_16h14.48.263,t1_Paradigm,2021.1.4,60.055293112664266,
Z,left,Pretarget,0,33,33,33,2180.4673214461072,2182.46901079244,left,1,4,0.8758795604808256,S19R04,2022-11-02_16h14.48.263,t1_Paradigm,2021.1.4,60.055293112664266,
F,left,Distractor,0,34,34,34,2183.9671908794553,2185.969278020959,left,1,4,0.87977153720567,S19R04,2022-11-02_16h14.48.263,t1_Paradigm,2021.1.4,60.055293112664266,
V,left,Distractor,0,35,35,35,2187.4671360222274,2189.4690303613897,left,1,4,0.6598055551294237,S19R04,2022-11-02_16h14.48.263,t1_Paradigm,2021.1.4,60.055293112664266,
M,left,Distractor,0,36,36,36,2190.9669361622073,2192.9691968579427,left,1,4,0.6958846162888221,S19R04,2022-11-02_16h14.48.263,t1_Paradigm,2021.1.4,60.055293112664266,
Z,right,Target,0,37,37,37,2194.4672309797606,2196.468969088106,left,0,4,0.7801119729410857,S19R04,2022-11-02_16h14.48.263,t1_Paradigm,2021.1.4,60.055293112664266,
H,left,Pretarget,0,38,38,38,2197.9672720424714,2199.969020737335,left,1,4,0.575885527417995,S19R04,2022-11-02_16h14.48.263,t1_Paradigm,2021.1.4,60.055293112664266,
L,left,Distractor,0,39,39,39,2201.467192483484,2203.469221880543,left,1,4,0.9316542954184115,S19R04,2022-11-02_16h14.48.263,t1_Paradigm,2021.1.4,60.055293112664266,
G,left,Distractor,0,40,40,40,2204.9671969746705,2206.968880867411,left,1,4,0.7601372008211911,S19R04,2022-11-02_16h14.48.263,t1_Paradigm,2021.1.4,60.055293112664266,
K,left,Distractor,0,41,41,41,2208.467238999845,2210.469358863251,left,1,4,0.7797343883430585,S19R04,2022-11-02_16h14.48.263,t1_Paradigm,2021.1.4,60.055293112664266,
H,right,Target,0,42,42,42,2211.967122869275,2213.9693992843386,right,1,4,0.4798494281130843,S19R04,2022-11-02_16h14.48.263,t1_Paradigm,2021.1.4,60.055293112664266,
B,left,Distractor,0,43,43,43,2215.4671212653047,2217.4692443367094,left,1,4,0.6919464439270087,S19R04,2022-11-02_16h14.48.263,t1_Paradigm,2021.1.4,60.055293112664266,
Z,left,Distractor,0,44,44,44,2218.96695091913,2220.969716878899,left,1,4,0.5833088989020325,S19R04,2022-11-02_16h14.48.263,t1_Paradigm,2021.1.4,60.055293112664266,
T,left,Pretarget,0,45,45,45,2222.4672284133267,2224.4692738505546,left,1,4,0.6677001856151037,S19R04,2022-11-02_16h14.48.263,t1_Paradigm,2021.1.4,60.055293112664266,
H,right,Target,0,46,46,46,2225.967227450921,2227.969598181953,right,1,4,1.0394426761195064,S19R04,2022-11-02_16h14.48.263,t1_Paradigm,2021.1.4,60.055293112664266,
F,left,Distractor,0,47,47,47,2229.4674138372065,2231.469143604685,left,1,4,0.6921222437522374,S19R04,2022-11-02_16h14.48.263,t1_Paradigm,2021.1.4,60.055293112664266,
R,left,Distractor,0,48,48,48,2232.9672146188677,2234.96923182538,left,1,4,0.8077693250379525,S19R04,2022-11-02_16h14.48.263,t1_Paradigm,2021.1.4,60.055293112664266,
T,right,Target,0,49,49,49,2236.4672839121777,2238.469093880325,left,0,4,0.6998577561462298,S19R04,2022-11-02_16h14.48.263,t1_Paradigm,2021.1.4,60.055293112664266,
H,right,Target,0,50,50,50,2239.967261135229,2241.969508036447,right,1,4,1.4234738299273886,S19R04,2022-11-02_16h14.48.263,t1_Paradigm,2021.1.4,60.055293112664266,
Y,left,Pretarget,0,51,51,51,2243.466519760492,2245.469452537596,left,1,4,0.8995336171938106,S19R04,2022-11-02_16h14.48.263,t1_Paradigm,2021.1.4,60.055293112664266,
H,left,Distractor,0,52,52,52,2246.967297706695,2248.9686370574636,left,1,4,0.6323217572644353,S19R04,2022-11-02_16h14.48.263,t1_Paradigm,2021.1.4,60.055293112664266,
S,left,Distractor,0,53,53,53,2250.4673038019682,2252.469386452227,left,1,4,0.6357123196357861,S19R04,2022-11-02_16h14.48.263,t1_Paradigm,2021.1.4,60.055293112664266,
Q,left,Distractor,0,54,54,54,2253.967477997765,2255.9690387022565,left,1,4,0.639891093946062,S19R04,2022-11-02_16h14.48.263,t1_Paradigm,2021.1.4,60.055293112664266,
Y,right,Target,0,55,55,55,2257.467265305633,2259.4689838450286,left,0,4,0.6760198795236647,S19R04,2022-11-02_16h14.48.263,t1_Paradigm,2021.1.4,60.055293112664266,
R,left,Distractor,0,56,56,56,2260.967437576619,2262.98396853311,right,0,4,0.9530415612389334,S19R04,2022-11-02_16h14.48.263,t1_Paradigm,2021.1.4,60.055293112664266,
H,left,Pretarget,0,57,57,57,2264.4673830401734,2266.4694656904903,left,1,4,0.7155536634963937,S19R04,2022-11-02_16h14.48.263,t1_Paradigm,2021.1.4,60.055293112664266,
J,left,Distractor,0,58,58,58,2267.9674334062147,2269.9698140820838,left,1,4,0.703003866947256,S19R04,2022-11-02_16h14.48.263,t1_Paradigm,2021.1.4,60.055293112664266,
V,left,Distractor,0,59,59,59,2271.467404213152,2273.4694573496236,left,1,4,0.8197025390109047,S19R04,2022-11-02_16h14.48.263,t1_Paradigm,2021.1.4,60.055293112664266,
Y,left,Lure,0,60,60,60,2274.9672967442893,2276.9664809433743,left,1,4,1.2106415345915593,S19R04,2022-11-02_16h14.48.263,t1_Paradigm,2021.1.4,60.055293112664266,
H,right,Target,0,61,61,61,2278.4665919410763,2280.4693665624945,right,1,4,0.5398016541730613,S19R04,2022-11-02_16h14.48.263,t1_Paradigm,2021.1.4,60.055293112664266,
L,left,Distractor,0,62,62,62,2281.967441426241,2283.969082010619,left,1,4,0.7999398174579255,S19R04,2022-11-02_16h14.48.263,t1_Paradigm,2021.1.4,60.055293112664266,
P,left,Distractor,0,63,63,63,2285.466546707903,2287.469351163949,left,1,4,0.5799257149919868,S19R04,2022-11-02_16h14.48.263,t1_Paradigm,2021.1.4,60.055293112664266,
