Letter,CorrAnswer,Stimulus,finaln_nback_run.thisRepN,finaln_nback_run.thisTrialN,finaln_nback_run.thisN,finaln_nback_run.thisIndex,finaln_fixcross.started,finaln_nback_trial.started,finaln_trial_resp.keys,finaln_trial_resp.corr,finaln_trial_resp.rt,finaln_level,finaln_money,Participant,date,expName,psychopyVersion,frameRate,
D,left,Distractor,0,0,0,0,2823.7475369635918,2825.737846502089,left,1,0.745662518377685,2,3.0,T02R04,2022-11-11_09h01.36.781,t1_Paradigm,2021.1.4,59.95758791604956,
M,left,Pretarget,0,1,1,1,2827.2370080864525,2829.238631343817,left,1,0.6046489320988258,2,3.0,T02R04,2022-11-11_09h01.36.781,t1_Paradigm,2021.1.4,59.95758791604956,
T,left,Distractor,0,2,2,2,2830.7372453194207,2832.739134200717,left,1,0.5760475223023604,2,3.0,T02R04,2022-11-11_09h01.36.781,t1_Paradigm,2021.1.4,59.95758791604956,
G,left,Pretarget,0,3,3,3,2834.237089570123,2836.2384019704937,left,1,0.548777440187223,2,3.0,T02R04,2022-11-11_09h01.36.781,t1_Paradigm,2021.1.4,59.95758791604956,
M,right,Target,0,4,4,4,2837.73724692343,2839.7378792238774,right,1,0.4410714268524316,2,3.0,T02R04,2022-11-11_09h01.36.781,t1_Paradigm,2021.1.4,59.95758791604956,
P,left,Distractor,0,5,5,5,2841.2371739410087,2843.2371684873774,left,1,0.7020639428665163,2,3.0,T02R04,2022-11-11_09h01.36.781,t1_Paradigm,2021.1.4,59.95758791604956,
G,right,Target,0,6,6,6,2844.737034873407,2846.737696687625,right,1,0.57749177223468,2,3.0,T02R04,2022-11-11_09h01.36.781,t1_Paradigm,2021.1.4,59.95758791604956,
J,left,Distractor,0,7,7,7,2848.2373093193905,2850.238957599299,left,1,0.5963918132656545,2,3.0,T02R04,2022-11-11_09h01.36.781,t1_Paradigm,2021.1.4,59.95758791604956,
M,left,Lure,0,8,8,8,2851.737217730462,2853.737696687625,right,0,0.7615537588508232,2,3.0,T02R04,2022-11-11_09h01.36.781,t1_Paradigm,2021.1.4,59.95758791604956,
F,left,Pretarget,0,9,9,9,2855.237126462335,2857.2384077449265,left,1,0.6847570038262347,2,3.0,T02R04,2022-11-11_09h01.36.781,t1_Paradigm,2021.1.4,59.95758791604956,
R,left,Distractor,0,10,10,10,2858.737112828256,2860.739007804788,left,1,0.6242791181412031,2,3.0,T02R04,2022-11-11_09h01.36.781,t1_Paradigm,2021.1.4,59.95758791604956,
G,left,Distractor,0,11,11,11,2862.2371078558276,2864.2379586223356,left,1,0.5654732517023149,2,3.0,T02R04,2022-11-11_09h01.36.781,t1_Paradigm,2021.1.4,59.95758791604956,
F,right,Target,0,12,12,12,2865.736925800778,2867.737794532189,right,1,1.0013601998462036,2,3.0,T02R04,2022-11-11_09h01.36.781,t1_Paradigm,2021.1.4,59.95758791604956,
F,left,Lure,0,13,13,13,2869.2370376002223,2871.2372887880715,left,1,1.1980187919307355,2,3.0,T02R04,2022-11-11_09h01.36.781,t1_Paradigm,2021.1.4,59.95758791604956,
S,left,Distractor,0,14,14,14,2872.7368051792814,2874.7385981408247,left,1,0.7206422196413769,2,3.0,T02R04,2022-11-11_09h01.36.781,t1_Paradigm,2021.1.4,59.95758791604956,
F,right,Target,0,15,15,15,2876.2372313645405,2878.237416467208,right,1,0.6776935886782667,2,3.0,T02R04,2022-11-11_09h01.36.781,t1_Paradigm,2021.1.4,59.95758791604956,
T,left,Pretarget,0,16,16,16,2879.7370284573694,2881.7372010487657,left,1,0.7140776513715537,2,3.0,T02R04,2022-11-11_09h01.36.781,t1_Paradigm,2021.1.4,59.95758791604956,
Z,left,Distractor,0,17,17,17,2883.237020918526,2885.2390028323593,left,1,0.6841792396935489,2,3.0,T02R04,2022-11-11_09h01.36.781,t1_Paradigm,2021.1.4,59.95758791604956,
W,left,Distractor,0,18,18,18,2886.7369155351184,2888.737876336661,left,1,0.6733958062859529,2,3.0,T02R04,2022-11-11_09h01.36.781,t1_Paradigm,2021.1.4,59.95758791604956,
T,right,Target,0,19,19,19,2890.2370042368298,2892.2388331281804,right,1,0.6604155218055894,2,3.0,T02R04,2022-11-11_09h01.36.781,t1_Paradigm,2021.1.4,59.95758791604956,
V,left,Distractor,0,20,20,20,2893.737145870847,2895.7390985917123,left,1,0.7760036366098575,2,3.0,T02R04,2022-11-11_09h01.36.781,t1_Paradigm,2021.1.4,59.95758791604956,
N,left,Distractor,0,21,21,21,2897.2368778409013,2899.2388013687973,left,1,0.9082246857660721,2,3.0,T02R04,2022-11-11_09h01.36.781,t1_Paradigm,2021.1.4,59.95758791604956,
P,left,Pretarget,0,22,22,22,2900.7370210789272,2902.738735123215,left,1,0.6244545967538215,2,3.0,T02R04,2022-11-11_09h01.36.781,t1_Paradigm,2021.1.4,59.95758791604956,
T,left,Lure,0,23,23,23,2904.2372608783103,2906.2391548924365,left,1,0.7561402276223816,2,3.0,T02R04,2022-11-11_09h01.36.781,t1_Paradigm,2021.1.4,59.95758791604956,
L,left,Pretarget,0,24,24,24,2907.7369235551646,2909.7378423316645,left,1,0.9532947793668427,2,3.0,T02R04,2022-11-11_09h01.36.781,t1_Paradigm,2021.1.4,59.95758791604956,
P,right,Target,0,25,25,25,2911.2372826928363,2913.2380737902,right,1,0.8132419946305163,2,3.0,T02R04,2022-11-11_09h01.36.781,t1_Paradigm,2021.1.4,59.95758791604956,
G,left,Pretarget,0,26,26,26,2914.736983865913,2916.73976553876,left,1,0.7355158766440582,2,3.0,T02R04,2022-11-11_09h01.36.781,t1_Paradigm,2021.1.4,59.95758791604956,
L,right,Target,0,27,27,27,2918.2371004773854,2920.2388886269005,left,0,0.62844152215348,2,3.0,T02R04,2022-11-11_09h01.36.781,t1_Paradigm,2021.1.4,59.95758791604956,
F,left,Distractor,0,28,28,28,2921.7372036151805,2923.7386013488435,left,1,0.6486892517586966,2,3.0,T02R04,2022-11-11_09h01.36.781,t1_Paradigm,2021.1.4,59.95758791604956,
G,right,Target,0,29,29,29,2925.2371777906314,2927.239077258389,right,1,0.6680275081171203,2,3.0,T02R04,2022-11-11_09h01.36.781,t1_Paradigm,2021.1.4,59.95758791604956,
R,left,Pretarget,0,30,30,30,2928.7369649386033,2930.7371400964134,left,1,0.6581253173935693,2,3.0,T02R04,2022-11-11_09h01.36.781,t1_Paradigm,2021.1.4,59.95758791604956,
X,left,Distractor,0,31,31,31,2932.237180677848,2934.2387275843716,left,1,0.660499892691405,2,3.0,T02R04,2022-11-11_09h01.36.781,t1_Paradigm,2021.1.4,59.95758791604956,
W,left,Distractor,0,32,32,32,2935.7369623721884,2937.73909827091,left,1,0.6320524677839785,2,3.0,T02R04,2022-11-11_09h01.36.781,t1_Paradigm,2021.1.4,59.95758791604956,
R,right,Target,0,33,33,33,2939.2371598257273,2941.239092336076,right,1,0.5401789881843797,2,3.0,T02R04,2022-11-11_09h01.36.781,t1_Paradigm,2021.1.4,59.95758791604956,
S,left,Distractor,0,34,34,34,2942.7371413796213,2944.7391008373247,left,1,0.7840641039083494,2,3.0,T02R04,2022-11-11_09h01.36.781,t1_Paradigm,2021.1.4,59.95758791604956,
D,left,Distractor,0,35,35,35,2946.2371704121883,2948.239036837356,left,1,0.7402390422912504,2,3.0,T02R04,2022-11-11_09h01.36.781,t1_Paradigm,2021.1.4,59.95758791604956,
R,right,Target,0,36,36,36,2949.7370788232606,2951.738647865112,left,0,0.7764771401407415,2,3.0,T02R04,2022-11-11_09h01.36.781,t1_Paradigm,2021.1.4,59.95758791604956,
T,left,Distractor,0,37,37,37,2953.2368165677476,2955.239109659376,left,1,0.652009230110707,2,3.0,T02R04,2022-11-11_09h01.36.781,t1_Paradigm,2021.1.4,59.95758791604956,
G,left,Distractor,0,38,38,38,2956.7369521065298,2958.7384043765073,right,0,0.5448639784108309,2,3.0,T02R04,2022-11-11_09h01.36.781,t1_Paradigm,2021.1.4,59.95758791604956,
K,left,Pretarget,0,39,39,39,2960.2368528183565,2962.2377959757973,left,1,0.5172910593482811,2,3.0,T02R04,2022-11-11_09h01.36.781,t1_Paradigm,2021.1.4,59.95758791604956,
R,left,Lure,0,40,40,40,2963.7370788232606,2965.7387335192057,right,0,0.8405345328756084,2,3.0,T02R04,2022-11-11_09h01.36.781,t1_Paradigm,2021.1.4,59.95758791604956,
Q,left,Pretarget,0,41,41,41,2967.2371489184648,2969.2499918997532,left,1,0.6890839791876715,2,3.0,T02R04,2022-11-11_09h01.36.781,t1_Paradigm,2021.1.4,59.95758791604956,
K,right,Target,0,42,42,42,2970.737155174101,2972.738974120594,right,1,0.5122127660524711,2,3.0,T02R04,2022-11-11_09h01.36.781,t1_Paradigm,2021.1.4,59.95758791604956,
Z,left,Distractor,0,43,43,43,2974.2371460312484,2976.237719945759,left,1,0.8054651161664879,2,3.0,T02R04,2022-11-11_09h01.36.781,t1_Paradigm,2021.1.4,59.95758791604956,
Q,right,Target,0,44,44,44,2977.7371330387728,2979.737925740146,right,1,0.9371725615610558,2,3.0,T02R04,2022-11-11_09h01.36.781,t1_Paradigm,2021.1.4,59.95758791604956,
W,left,Distractor,0,45,45,45,2981.2368508935456,2983.2370359962138,left,1,0.8142900542770803,2,3.0,T02R04,2022-11-11_09h01.36.781,t1_Paradigm,2021.1.4,59.95758791604956,
X,left,Distractor,0,46,46,46,2984.7369209887497,2986.737169610184,left,1,0.8018708522331508,2,3.0,T02R04,2022-11-11_09h01.36.781,t1_Paradigm,2021.1.4,59.95758791604956,
R,left,Distractor,0,47,47,47,2988.236868216846,2990.2386278149966,left,1,0.6286599882141672,2,3.0,T02R04,2022-11-11_09h01.36.781,t1_Paradigm,2021.1.4,59.95758791604956,
P,left,Pretarget,0,48,48,48,2991.7371012793897,2993.7385407172937,left,1,0.5044272259392528,2,3.0,T02R04,2022-11-11_09h01.36.781,t1_Paradigm,2021.1.4,59.95758791604956,
Z,left,Pretarget,0,49,49,49,2995.236933660423,2997.237775444479,left,1,0.6053540545663054,2,3.0,T02R04,2022-11-11_09h01.36.781,t1_Paradigm,2021.1.4,59.95758791604956,
V,left,Distractor,0,50,50,50,2998.7369328584186,3000.737814421904,left,1,0.6575023201994554,2,3.0,T02R04,2022-11-11_09h01.36.781,t1_Paradigm,2021.1.4,59.95758791604956,
P,right,Target,0,51,51,51,3002.2371553345015,3004.238480246145,left,0,0.7085678795865533,2,3.0,T02R04,2022-11-11_09h01.36.781,t1_Paradigm,2021.1.4,59.95758791604956,
Z,right,Target,0,52,52,52,3005.7369970187888,3007.7382539204395,right,1,0.4566777952832126,2,3.0,T02R04,2022-11-11_09h01.36.781,t1_Paradigm,2021.1.4,59.95758791604956,
H,left,Distractor,0,53,53,53,3009.236864367223,3011.2375720561054,left,1,0.5576569146114707,2,3.0,T02R04,2022-11-11_09h01.36.781,t1_Paradigm,2021.1.4,59.95758791604956,
L,left,Distractor,0,54,54,54,3012.737101600192,3014.7385901207786,left,1,0.4804248314749202,2,3.0,T02R04,2022-11-11_09h01.36.781,t1_Paradigm,2021.1.4,59.95758791604956,
Z,right,Target,0,55,55,55,3016.237033429799,3018.2388911933153,right,1,0.4682879350593794,2,3.0,T02R04,2022-11-11_09h01.36.781,t1_Paradigm,2021.1.4,59.95758791604956,
Z,left,Lure,0,56,56,56,3019.737125981132,3021.7371638357504,left,1,0.7943605601076342,2,3.0,T02R04,2022-11-11_09h01.36.781,t1_Paradigm,2021.1.4,59.95758791604956,
B,left,Distractor,0,57,57,57,3023.23711330946,3025.238840827425,left,1,0.5883486692664519,2,3.0,T02R04,2022-11-11_09h01.36.781,t1_Paradigm,2021.1.4,59.95758791604956,
J,left,Distractor,0,58,58,58,3026.737247565034,3028.7371051290124,left,1,0.5461577722753646,2,3.0,T02R04,2022-11-11_09h01.36.781,t1_Paradigm,2021.1.4,59.95758791604956,
X,left,Pretarget,0,59,59,59,3030.237124537524,3032.2378970283803,left,1,0.5655130311315588,2,3.0,T02R04,2022-11-11_09h01.36.781,t1_Paradigm,2021.1.4,59.95758791604956,
R,left,Distractor,0,60,60,60,3033.7368045376784,3035.7388008875946,left,1,0.7124393163203422,2,3.0,T02R04,2022-11-11_09h01.36.781,t1_Paradigm,2021.1.4,59.95758791604956,
F,left,Distractor,0,61,61,61,3037.236894201795,3039.2384686972787,left,1,0.5727461504575331,2,3.0,T02R04,2022-11-11_09h01.36.781,t1_Paradigm,2021.1.4,59.95758791604956,
X,right,Target,0,62,62,62,3040.736809670508,3042.7392910728227,left,0,0.8642312031770416,2,3.0,T02R04,2022-11-11_09h01.36.781,t1_Paradigm,2021.1.4,59.95758791604956,
T,left,Distractor,0,63,63,63,3044.237091494934,3046.237889008334,left,1,0.6772354836357408,2,3.0,T02R04,2022-11-11_09h01.36.781,t1_Paradigm,2021.1.4,59.95758791604956,
