Letter,CorrAnswer,Stimulus,nback_run.thisRepN,nback_run.thisTrialN,nback_run.thisN,nback_run.thisIndex,fixcross.started,nback_trial.started,trial_resp.keys,trial_resp.corr,currentlevel,trial_resp.rt,Participant,date,expName,psychopyVersion,frameRate,
H,left,Distractor,0,0,0,0,310.2943680989508,312.24047467125047,None,0,1,,T02R04,2022-11-11_09h01.36.781,t1_Paradigm,2021.1.4,59.95758791604956,
Q,left,Pretarget,0,1,1,1,313.74046296198276,315.74067404960056,left,1,1,0.5837769220922837,T02R04,2022-11-11_09h01.36.781,t1_Paradigm,2021.1.4,59.95758791604956,
Q,right,Target,0,2,2,2,317.2387984815807,319.2387490780957,left,0,1,0.87758265539901,T02R04,2022-11-11_09h01.36.781,t1_Paradigm,2021.1.4,59.95758791604956,
T,left,Distractor,0,3,3,3,320.73880698282983,322.74117353808197,left,1,1,1.183206408081105,T02R04,2022-11-11_09h01.36.781,t1_Paradigm,2021.1.4,59.95758791604956,
Q,left,Lure,0,4,4,4,324.2386659904164,326.2407406159846,left,1,1,1.2676635904977047,T02R04,2022-11-11_09h01.36.781,t1_Paradigm,2021.1.4,59.95758791604956,
L,left,Distractor,0,5,5,5,327.7388631231536,329.7404549419366,left,1,1,0.8400411396294203,T02R04,2022-11-11_09h01.36.781,t1_Paradigm,2021.1.4,59.95758791604956,
V,left,Pretarget,0,6,6,6,331.23863679744795,333.2416241042813,left,1,1,0.6188184290397203,T02R04,2022-11-11_09h01.36.781,t1_Paradigm,2021.1.4,59.95758791604956,
V,right,Target,0,7,7,7,334.738239484356,336.7388554239092,right,1,1,0.5776377370766568,T02R04,2022-11-11_09h01.36.781,t1_Paradigm,2021.1.4,59.95758791604956,
K,left,Distractor,0,8,8,8,338.2388623211491,340.240709498205,left,1,1,0.5638175933509046,T02R04,2022-11-11_09h01.36.781,t1_Paradigm,2021.1.4,59.95758791604956,
G,left,Pretarget,0,9,9,9,341.73795332910527,343.74076419492053,left,1,1,0.5836152379597479,T02R04,2022-11-11_09h01.36.781,t1_Paradigm,2021.1.4,59.95758791604956,
G,right,Target,0,10,10,10,345.23857488269095,347.2389133286433,right,1,1,0.4136698159784373,T02R04,2022-11-11_09h01.36.781,t1_Paradigm,2021.1.4,59.95758791604956,
G,right,Target,0,11,11,11,348.73866262199704,350.7387328776024,right,1,1,0.44966635003515876,T02R04,2022-11-11_09h01.36.781,t1_Paradigm,2021.1.4,59.95758791604956,
P,left,Pretarget,0,12,12,12,352.23882767454916,354.2402873229696,left,1,1,0.4361474392474065,T02R04,2022-11-11_09h01.36.781,t1_Paradigm,2021.1.4,59.95758791604956,
P,right,Target,0,13,13,13,355.7386193137472,357.7388910329146,right,1,1,0.39355233192463857,T02R04,2022-11-11_09h01.36.781,t1_Paradigm,2021.1.4,59.95758791604956,
G,left,Lure,0,14,14,14,359.2385331784503,361.24094817478203,left,1,1,0.4593372426247697,T02R04,2022-11-11_09h01.36.781,t1_Paradigm,2021.1.4,59.95758791604956,
Y,left,Distractor,0,15,15,15,362.7387123462838,364.7403285460075,left,1,1,0.4641502327897342,T02R04,2022-11-11_09h01.36.781,t1_Paradigm,2021.1.4,59.95758791604956,
B,left,Distractor,0,16,16,16,366.2387962359678,368.24030111744923,left,1,1,0.5641987059495932,T02R04,2022-11-11_09h01.36.781,t1_Paradigm,2021.1.4,59.95758791604956,
T,left,Pretarget,0,17,17,17,369.7387691282115,371.7402817089371,left,1,1,0.4402306052024869,T02R04,2022-11-11_09h01.36.781,t1_Paradigm,2021.1.4,59.95758791604956,
T,right,Target,0,18,18,18,373.2387320755977,375.2388225417196,left,0,1,0.4459729583288663,T02R04,2022-11-11_09h01.36.781,t1_Paradigm,2021.1.4,59.95758791604956,
S,left,Distractor,0,19,19,19,376.7387473136855,378.74021401974665,left,1,1,0.8803835763567349,T02R04,2022-11-11_09h01.36.781,t1_Paradigm,2021.1.4,59.95758791604956,
T,left,Lure,0,20,20,20,380.2388125968623,382.23901630603746,left,1,1,0.8533030881349077,T02R04,2022-11-11_09h01.36.781,t1_Paradigm,2021.1.4,59.95758791604956,
J,left,Distractor,0,21,21,21,383.73889295772574,385.74162201906915,left,1,1,0.5987570853098987,T02R04,2022-11-11_09h01.36.781,t1_Paradigm,2021.1.4,59.95758791604956,
P,left,Distractor,0,22,22,22,387.23883697780275,389.2408724655452,left,1,1,0.47550373108606436,T02R04,2022-11-11_09h01.36.781,t1_Paradigm,2021.1.4,59.95758791604956,
F,left,Distractor,0,23,23,23,390.7386683964303,392.7406836736561,left,1,1,0.49582845313511825,T02R04,2022-11-11_09h01.36.781,t1_Paradigm,2021.1.4,59.95758791604956,
L,left,Distractor,0,24,24,24,394.23876575979193,396.2403858091377,left,1,1,0.46801846150492565,T02R04,2022-11-11_09h01.36.781,t1_Paradigm,2021.1.4,59.95758791604956,
W,left,Pretarget,0,25,25,25,397.7388506118816,399.7409576384366,left,1,1,0.43952163311246295,T02R04,2022-11-11_09h01.36.781,t1_Paradigm,2021.1.4,59.95758791604956,
W,right,Target,0,26,26,26,401.2387468324828,403.2388039352122,right,1,1,0.42966114662908694,T02R04,2022-11-11_09h01.36.781,t1_Paradigm,2021.1.4,59.95758791604956,
V,left,Distractor,0,27,27,27,404.7387274239709,406.73982135828146,left,1,1,0.48072381879956083,T02R04,2022-11-11_09h01.36.781,t1_Paradigm,2021.1.4,59.95758791604956,
W,left,Lure,0,28,28,28,408.2387227723441,410.2406851172643,left,1,1,0.483628358755368,T02R04,2022-11-11_09h01.36.781,t1_Paradigm,2021.1.4,59.95758791604956,
R,left,Pretarget,0,29,29,29,411.73881147405564,413.74206665043425,left,1,1,0.4544164630378873,T02R04,2022-11-11_09h01.36.781,t1_Paradigm,2021.1.4,59.95758791604956,
R,right,Target,0,30,30,30,415.2387869327142,417.23869422097937,right,1,1,0.41383246251689343,T02R04,2022-11-11_09h01.36.781,t1_Paradigm,2021.1.4,59.95758791604956,
G,left,Distractor,0,31,31,31,418.7388012083966,420.74107505191387,left,1,1,0.5434261445168431,T02R04,2022-11-11_09h01.36.781,t1_Paradigm,2021.1.4,59.95758791604956,
R,left,Lure,0,32,32,32,422.23883569459554,424.2408670119137,left,1,1,0.4833964190172537,T02R04,2022-11-11_09h01.36.781,t1_Paradigm,2021.1.4,59.95758791604956,
S,left,Distractor,0,33,33,33,425.7388002459909,427.7405707514047,left,1,1,0.6638445727867293,T02R04,2022-11-11_09h01.36.781,t1_Paradigm,2021.1.4,59.95758791604956,
R,left,Lure,0,34,34,34,429.2387830830919,431.2400377391298,left,1,1,0.4447452496463029,T02R04,2022-11-11_09h01.36.781,t1_Paradigm,2021.1.4,59.95758791604956,
P,left,Pretarget,0,35,35,35,432.7388438750427,434.7403105811038,left,1,1,0.48023363357174276,T02R04,2022-11-11_09h01.36.781,t1_Paradigm,2021.1.4,59.95758791604956,
P,right,Target,0,36,36,36,436.2384590732229,438.2387452284736,right,1,1,0.533777387254986,T02R04,2022-11-11_09h01.36.781,t1_Paradigm,2021.1.4,59.95758791604956,
Y,left,Pretarget,0,37,37,37,439.73851986517343,441.7389183010721,left,1,1,0.40945768767937807,T02R04,2022-11-11_09h01.36.781,t1_Paradigm,2021.1.4,59.95758791604956,
Y,right,Target,0,38,38,38,443.23894027599886,445.23876864700856,right,1,1,0.5576934860223446,T02R04,2022-11-11_09h01.36.781,t1_Paradigm,2021.1.4,59.95758791604956,
J,left,Distractor,0,39,39,39,446.7387203663302,448.740569788999,left,1,1,0.527965420126975,T02R04,2022-11-11_09h01.36.781,t1_Paradigm,2021.1.4,59.95758791604956,
Y,left,Lure,0,40,40,40,450.23873849163465,452.2408583502638,left,1,1,0.483860619295001,T02R04,2022-11-11_09h01.36.781,t1_Paradigm,2021.1.4,59.95758791604956,
T,left,Distractor,0,41,41,41,453.7387864515115,455.74060796441927,left,1,1,0.5037865846441036,T02R04,2022-11-11_09h01.36.781,t1_Paradigm,2021.1.4,59.95758791604956,
V,left,Distractor,0,42,42,42,457.2377629332068,459.24042205974683,left,1,1,0.49199455021812355,T02R04,2022-11-11_09h01.36.781,t1_Paradigm,2021.1.4,59.95758791604956,
N,left,Pretarget,0,43,43,43,460.7382843966152,462.7402919745964,left,1,1,0.49620026247998794,T02R04,2022-11-11_09h01.36.781,t1_Paradigm,2021.1.4,59.95758791604956,
N,right,Target,0,44,44,44,464.2385675042483,466.2387333588051,right,1,1,0.45360868397779086,T02R04,2022-11-11_09h01.36.781,t1_Paradigm,2021.1.4,59.95758791604956,
N,right,Target,0,45,45,45,467.7387049678414,469.7387335192061,right,1,1,0.5215753680640773,T02R04,2022-11-11_09h01.36.781,t1_Paradigm,2021.1.4,59.95758791604956,
X,left,Distractor,0,46,46,46,471.23878757431794,473.24190384349504,left,1,1,0.4746301876466532,T02R04,2022-11-11_09h01.36.781,t1_Paradigm,2021.1.4,59.95758791604956,
Z,left,Distractor,0,47,47,47,474.7388406670241,476.74123256562257,left,1,1,0.5273398565182106,T02R04,2022-11-11_09h01.36.781,t1_Paradigm,2021.1.4,59.95758791604956,
H,left,Pretarget,0,48,48,48,478.2387452284736,480.24059721755725,left,1,1,0.548071034512077,T02R04,2022-11-11_09h01.36.781,t1_Paradigm,2021.1.4,59.95758791604956,
H,right,Target,0,49,49,49,481.73882462693155,483.7387614289671,right,1,1,0.4255664318077379,T02R04,2022-11-11_09h01.36.781,t1_Paradigm,2021.1.4,59.95758791604956,
K,left,Distractor,0,50,50,50,485.2555010299345,487.24086861592286,left,1,1,0.4593523203116092,T02R04,2022-11-11_09h01.36.781,t1_Paradigm,2021.1.4,59.95758791604956,
V,left,Pretarget,0,51,51,51,488.73872999038576,490.74040329283866,left,1,1,0.59206387549807,T02R04,2022-11-11_09h01.36.781,t1_Paradigm,2021.1.4,59.95758791604956,
V,right,Target,0,52,52,52,492.23873239639966,494.2388411482268,right,1,1,0.613683033014695,T02R04,2022-11-11_09h01.36.781,t1_Paradigm,2021.1.4,59.95758791604956,
R,left,Distractor,0,53,53,53,495.7387691282115,497.7399917040643,left,1,1,0.5523069021480751,T02R04,2022-11-11_09h01.36.781,t1_Paradigm,2021.1.4,59.95758791604956,
V,left,Lure,0,54,54,54,499.2389120454359,501.2405125258688,left,1,1,0.491983642955347,T02R04,2022-11-11_09h01.36.781,t1_Paradigm,2021.1.4,59.95758791604956,
Y,left,Distractor,0,55,55,55,502.7387466720818,504.74004495717145,left,1,1,0.5602897353994649,T02R04,2022-11-11_09h01.36.781,t1_Paradigm,2021.1.4,59.95758791604956,
Q,left,Distractor,0,56,56,56,506.2387760254512,508.23952188975386,left,1,1,0.5649548359115215,T02R04,2022-11-11_09h01.36.781,t1_Paradigm,2021.1.4,59.95758791604956,
Z,left,Pretarget,0,57,57,57,509.73870593024685,511.74017295710996,left,1,1,0.5041542235649104,T02R04,2022-11-11_09h01.36.781,t1_Paradigm,2021.1.4,59.95758791604956,
Z,right,Target,0,58,58,58,513.2388934389285,515.2387343212106,right,1,1,0.413759640496437,T02R04,2022-11-11_09h01.36.781,t1_Paradigm,2021.1.4,59.95758791604956,
B,left,Distractor,0,59,59,59,516.7387376896302,518.740032766701,left,1,1,0.49643508943472625,T02R04,2022-11-11_09h01.36.781,t1_Paradigm,2021.1.4,59.95758791604956,
S,left,Pretarget,0,60,60,60,520.2383788727602,522.2393730376953,left,1,1,0.5009442802472677,T02R04,2022-11-11_09h01.36.781,t1_Paradigm,2021.1.4,59.95758791604956,
S,right,Target,0,61,61,61,523.7385211483809,525.7386995142099,right,1,1,0.633545158795414,T02R04,2022-11-11_09h01.36.781,t1_Paradigm,2021.1.4,59.95758791604956,
T,left,Distractor,0,62,62,62,527.2384305218582,529.240277698914,left,1,1,0.5880763084946921,T02R04,2022-11-11_09h01.36.781,t1_Paradigm,2021.1.4,59.95758791604956,
D,left,Distractor,0,63,63,63,530.738808586839,532.7405781298471,left,1,1,0.6558290177463277,T02R04,2022-11-11_09h01.36.781,t1_Paradigm,2021.1.4,59.95758791604956,
R,left,Distractor,0,0,0,0,543.6524221020927,545.6575209267069,left,1,1,0.9548769740943044,T02R04,2022-11-11_09h01.36.781,t1_Paradigm,2021.1.4,59.95758791604956,
V,left,Distractor,0,1,1,1,547.1553720355103,549.1569481350025,left,1,1,0.5116292274867646,T02R04,2022-11-11_09h01.36.781,t1_Paradigm,2021.1.4,59.95758791604956,
N,left,Pretarget,0,2,2,2,550.6554309026499,552.6563560951872,left,1,1,0.5483337712280445,T02R04,2022-11-11_09h01.36.781,t1_Paradigm,2021.1.4,59.95758791604956,
N,right,Target,0,3,3,3,554.1553309728733,556.1551647975148,right,1,1,0.48912529846597863,T02R04,2022-11-11_09h01.36.781,t1_Paradigm,2021.1.4,59.95758791604956,
S,left,Distractor,0,4,4,4,557.6553295292651,559.656618190299,left,1,1,0.5876977623108814,T02R04,2022-11-11_09h01.36.781,t1_Paradigm,2021.1.4,59.95758791604956,
N,left,Lure,0,5,5,5,561.155417910175,563.1573080746789,left,1,1,0.5429593778242179,T02R04,2022-11-11_09h01.36.781,t1_Paradigm,2021.1.4,59.95758791604956,
Z,left,Distractor,0,6,6,6,564.6553433237448,566.6571353228824,left,1,1,0.7073055243040471,T02R04,2022-11-11_09h01.36.781,t1_Paradigm,2021.1.4,59.95758791604956,
L,left,Pretarget,0,7,7,7,568.155237298733,570.1569680247173,left,1,1,0.5033336124311063,T02R04,2022-11-11_09h01.36.781,t1_Paradigm,2021.1.4,59.95758791604956,
L,right,Target,0,8,8,8,571.6553956144462,573.6553616094502,right,1,1,0.4928607152148743,T02R04,2022-11-11_09h01.36.781,t1_Paradigm,2021.1.4,59.95758791604956,
H,left,Distractor,0,9,9,9,575.1553620906529,577.1580369364835,left,1,1,0.49437489994988937,T02R04,2022-11-11_09h01.36.781,t1_Paradigm,2021.1.4,59.95758791604956,
L,left,Lure,0,10,10,10,578.6554135793499,580.6572652476318,left,1,1,0.46699863242156425,T02R04,2022-11-11_09h01.36.781,t1_Paradigm,2021.1.4,59.95758791604956,
X,left,Pretarget,0,11,11,11,582.1554689176692,584.1571585810166,left,1,1,0.4871738608085252,T02R04,2022-11-11_09h01.36.781,t1_Paradigm,2021.1.4,59.95758791604956,
X,right,Target,0,12,12,12,585.6553795743537,587.6553266420485,right,1,1,0.44519597624639573,T02R04,2022-11-11_09h01.36.781,t1_Paradigm,2021.1.4,59.95758791604956,
X,right,Target,0,13,13,13,589.1553585618326,591.1552087473683,right,1,1,0.5450349657976403,T02R04,2022-11-11_09h01.36.781,t1_Paradigm,2021.1.4,59.95758791604956,
R,left,Distractor,0,14,14,14,592.6553503813855,594.6572379794745,left,1,1,0.49896846164915587,T02R04,2022-11-11_09h01.36.781,t1_Paradigm,2021.1.4,59.95758791604956,
T,left,Distractor,0,15,15,15,596.1553627322567,598.1572516135532,left,1,1,0.5829787670879796,T02R04,2022-11-11_09h01.36.781,t1_Paradigm,2021.1.4,59.95758791604956,
V,left,Pretarget,0,16,16,16,599.655267293706,601.6568770773927,left,1,1,0.49139978358721237,T02R04,2022-11-11_09h01.36.781,t1_Paradigm,2021.1.4,59.95758791604956,
V,right,Target,0,17,17,17,603.1551962360961,605.1553874339991,right,1,1,0.7048764126909646,T02R04,2022-11-11_09h01.36.781,t1_Paradigm,2021.1.4,59.95758791604956,
N,left,Distractor,0,18,18,18,606.6550051985942,608.6563426215093,left,1,1,0.5158224284764401,T02R04,2022-11-11_09h01.36.781,t1_Paradigm,2021.1.4,59.95758791604956,
B,left,Distractor,0,19,19,19,610.1554278550323,612.1571050071075,left,1,1,1.0153526141662041,T02R04,2022-11-11_09h01.36.781,t1_Paradigm,2021.1.4,59.95758791604956,
V,left,Lure,0,20,20,20,613.6554164665665,615.6572806461206,left,1,1,0.6509813809814204,T02R04,2022-11-11_09h01.36.781,t1_Paradigm,2021.1.4,59.95758791604956,
P,left,Distractor,0,21,21,21,617.1552459603829,619.1572567463829,left,1,1,0.44712944900038565,T02R04,2022-11-11_09h01.36.781,t1_Paradigm,2021.1.4,59.95758791604956,
K,left,Pretarget,0,22,22,22,620.6553750831279,622.657267172443,left,1,1,0.48360814823854525,T02R04,2022-11-11_09h01.36.781,t1_Paradigm,2021.1.4,59.95758791604956,
K,right,Target,0,23,23,23,624.1553858299899,626.155219975433,right,1,1,0.8251716530501199,T02R04,2022-11-11_09h01.36.781,t1_Paradigm,2021.1.4,59.95758791604956,
J,left,Pretarget,0,24,24,24,627.6554164665665,629.6574080044554,left,1,1,0.7311340441660832,T02R04,2022-11-11_09h01.36.781,t1_Paradigm,2021.1.4,59.95758791604956,
J,right,Target,0,25,25,25,631.1554387622953,633.1553630530584,right,1,1,0.6091468948466172,T02R04,2022-11-11_09h01.36.781,t1_Paradigm,2021.1.4,59.95758791604956,
H,left,Distractor,0,26,26,26,634.6551716947545,636.656852696452,left,1,1,0.8194004277570457,T02R04,2022-11-11_09h01.36.781,t1_Paradigm,2021.1.4,59.95758791604956,
J,left,Lure,0,27,27,27,638.1553248776383,640.1682525506153,left,1,1,0.46001541773694044,T02R04,2022-11-11_09h01.36.781,t1_Paradigm,2021.1.4,59.95758791604956,
V,left,Distractor,0,28,28,28,641.6551171584399,643.6568183706538,left,1,1,0.5074690690876196,T02R04,2022-11-11_09h01.36.781,t1_Paradigm,2021.1.4,59.95758791604956,
Z,left,Pretarget,0,29,29,29,645.1553389929197,647.1573988616026,left,1,1,0.46303929598116156,T02R04,2022-11-11_09h01.36.781,t1_Paradigm,2021.1.4,59.95758791604956,
Z,right,Target,0,30,30,30,648.6553256796428,650.6553157347855,right,1,1,0.4209417523286447,T02R04,2022-11-11_09h01.36.781,t1_Paradigm,2021.1.4,59.95758791604956,
T,left,Distractor,0,31,31,31,652.1553636946621,654.1577103601996,left,1,1,0.5665553163441928,T02R04,2022-11-11_09h01.36.781,t1_Paradigm,2021.1.4,59.95758791604956,
Z,left,Lure,0,32,32,32,655.6552698601208,657.6562515137839,left,1,1,0.42811873133132394,T02R04,2022-11-11_09h01.36.781,t1_Paradigm,2021.1.4,59.95758791604956,
F,left,Distractor,0,33,33,33,659.1552809277848,661.1574306209859,left,1,1,0.44707747910047146,T02R04,2022-11-11_09h01.36.781,t1_Paradigm,2021.1.4,59.95758791604956,
Y,left,Pretarget,0,34,34,34,662.6552942410615,664.6559785114089,left,1,1,0.4842311454326591,T02R04,2022-11-11_09h01.36.781,t1_Paradigm,2021.1.4,59.95758791604956,
Y,right,Target,0,35,35,35,666.1554037948936,668.1552032937368,right,1,1,0.4730550505598785,T02R04,2022-11-11_09h01.36.781,t1_Paradigm,2021.1.4,59.95758791604956,
Y,right,Target,0,36,36,36,669.6553118851632,671.6552207774378,right,1,1,0.4608934524021606,T02R04,2022-11-11_09h01.36.781,t1_Paradigm,2021.1.4,59.95758791604956,
W,left,Distractor,0,37,37,37,673.1552430731663,675.1575470720577,left,1,1,0.5108512829988285,T02R04,2022-11-11_09h01.36.781,t1_Paradigm,2021.1.4,59.95758791604956,
Q,left,Distractor,0,38,38,38,676.6553025819096,678.6572970070151,left,1,1,0.5148141482598021,T02R04,2022-11-11_09h01.36.781,t1_Paradigm,2021.1.4,59.95758791604956,
P,left,Pretarget,0,39,39,39,680.1553566370214,682.1568255886955,left,1,1,0.7115429959492303,T02R04,2022-11-11_09h01.36.781,t1_Paradigm,2021.1.4,59.95758791604956,
P,right,Target,0,40,40,40,683.6552961658726,685.6554661908535,left,0,1,0.5247586848279298,T02R04,2022-11-11_09h01.36.781,t1_Paradigm,2021.1.4,59.95758791604956,
J,left,Distractor,0,41,41,41,687.1552956846699,689.1571566562054,left,1,1,0.6710966194223147,T02R04,2022-11-11_09h01.36.781,t1_Paradigm,2021.1.4,59.95758791604956,
P,left,Lure,0,42,42,42,690.655320867615,692.6573024606466,left,1,1,0.8349153676597325,T02R04,2022-11-11_09h01.36.781,t1_Paradigm,2021.1.4,59.95758791604956,
L,left,Distractor,0,43,43,43,694.1552632836829,696.1559616693119,left,1,1,0.6486177129459065,T02R04,2022-11-11_09h01.36.781,t1_Paradigm,2021.1.4,59.95758791604956,
Z,left,Distractor,0,44,44,44,697.6549057500204,699.6570730873234,left,1,1,0.7793252189712803,T02R04,2022-11-11_09h01.36.781,t1_Paradigm,2021.1.4,59.95758791604956,
F,left,Pretarget,0,45,45,45,701.1552478851941,703.1572609168068,left,1,1,0.5270723077749153,T02R04,2022-11-11_09h01.36.781,t1_Paradigm,2021.1.4,59.95758791604956,
F,right,Target,0,46,46,46,704.655177469188,706.6553442861502,right,1,1,0.6769162857947322,T02R04,2022-11-11_09h01.36.781,t1_Paradigm,2021.1.4,59.95758791604956,
G,left,Pretarget,0,47,47,47,708.1552315242998,710.1572596335996,left,1,1,0.5508636146219033,T02R04,2022-11-11_09h01.36.781,t1_Paradigm,2021.1.4,59.95758791604956,
G,right,Target,0,48,48,48,711.655275955356,713.6550616597199,right,1,1,0.44504680338604885,T02R04,2022-11-11_09h01.36.781,t1_Paradigm,2021.1.4,59.95758791604956,
V,left,Distractor,0,49,49,49,715.1552636044848,717.1571771875238,left,1,1,0.6391473215130645,T02R04,2022-11-11_09h01.36.781,t1_Paradigm,2021.1.4,59.95758791604956,
G,left,Lure,0,50,50,50,718.6552743513469,720.6569691475238,right,0,1,0.7872855960931702,T02R04,2022-11-11_09h01.36.781,t1_Paradigm,2021.1.4,59.95758791604956,
Q,left,Pretarget,0,51,51,51,722.1552600756645,724.1562045163128,left,1,1,0.7921418945081768,T02R04,2022-11-11_09h01.36.781,t1_Paradigm,2021.1.4,59.95758791604956,
Q,right,Target,0,52,52,52,725.6549814592572,727.6554697196739,right,1,1,0.7490485819114383,T02R04,2022-11-11_09h01.36.781,t1_Paradigm,2021.1.4,59.95758791604956,
Y,left,Distractor,0,53,53,53,729.1549341409841,731.1573908415564,left,1,1,0.5271040671580067,T02R04,2022-11-11_09h01.36.781,t1_Paradigm,2021.1.4,59.95758791604956,
V,left,Distractor,0,54,54,54,732.6552477247931,734.6554540003831,left,1,1,1.0928487172257064,T02R04,2022-11-11_09h01.36.781,t1_Paradigm,2021.1.4,59.95758791604956,
B,left,Distractor,0,55,55,55,736.1552472435903,738.1566536389037,left,1,1,0.5355286445576439,T02R04,2022-11-11_09h01.36.781,t1_Paradigm,2021.1.4,59.95758791604956,
J,left,Pretarget,0,56,56,56,739.6553163763892,741.6572569067837,left,1,1,0.5230407909177757,T02R04,2022-11-11_09h01.36.781,t1_Paradigm,2021.1.4,59.95758791604956,
J,right,Target,0,57,57,57,743.155187895248,745.1553441257493,right,1,1,0.6569284056884044,T02R04,2022-11-11_09h01.36.781,t1_Paradigm,2021.1.4,59.95758791604956,
H,left,Distractor,0,58,58,58,746.6552467623876,748.6567776288189,left,1,1,0.7233870002748972,T02R04,2022-11-11_09h01.36.781,t1_Paradigm,2021.1.4,59.95758791604956,
J,left,Lure,0,59,59,59,750.1553085167438,752.1569086763748,left,1,1,0.823387994760651,T02R04,2022-11-11_09h01.36.781,t1_Paradigm,2021.1.4,59.95758791604956,
D,left,Pretarget,0,60,60,60,753.6551758651785,755.6573345408315,left,1,1,0.7630483746734171,T02R04,2022-11-11_09h01.36.781,t1_Paradigm,2021.1.4,59.95758791604956,
D,right,Target,0,61,61,61,757.1552000857182,759.1553624114549,right,1,1,0.4489791924711426,T02R04,2022-11-11_09h01.36.781,t1_Paradigm,2021.1.4,59.95758791604956,
R,left,Distractor,0,62,62,62,760.6550212386865,762.6568456388113,left,1,1,0.5635516486163397,T02R04,2022-11-11_09h01.36.781,t1_Paradigm,2021.1.4,59.95758791604956,
F,left,Distractor,0,63,63,63,764.1552331283092,766.1569439645787,left,1,1,0.5672681380565336,T02R04,2022-11-11_09h01.36.781,t1_Paradigm,2021.1.4,59.95758791604956,
F,left,Distractor,0,0,0,0,938.7639976273495,940.7550620126017,left,1,2,0.7690310083862641,T02R04,2022-11-11_09h01.36.781,t1_Paradigm,2021.1.4,59.95758791604956,
N,left,Pretarget,0,1,1,1,942.2550175815454,944.2561994155631,left,1,2,0.6760231734424451,T02R04,2022-11-11_09h01.36.781,t1_Paradigm,2021.1.4,59.95758791604956,
V,left,Distractor,0,2,2,2,945.7551457418849,947.755076769487,left,1,2,0.5849096734268642,T02R04,2022-11-11_09h01.36.781,t1_Paradigm,2021.1.4,59.95758791604956,
N,right,Target,0,3,3,3,949.2550612105974,951.2564878164271,right,1,2,0.5077430338678823,T02R04,2022-11-11_09h01.36.781,t1_Paradigm,2021.1.4,59.95758791604956,
N,left,Lure,0,4,4,4,952.7552137518774,954.7551303433961,left,1,2,1.0090921660507775,T02R04,2022-11-11_09h01.36.781,t1_Paradigm,2021.1.4,59.95758791604956,
X,left,Distractor,0,5,5,5,956.2552354060022,958.2549861429643,left,1,2,1.0135250060229737,T02R04,2022-11-11_09h01.36.781,t1_Paradigm,2021.1.4,59.95758791604956,
G,left,Pretarget,0,6,6,6,959.755212147868,961.7567641872215,left,1,2,0.6154204958379523,T02R04,2022-11-11_09h01.36.781,t1_Paradigm,2021.1.4,59.95758791604956,
H,left,Pretarget,0,7,7,7,963.2550637770119,965.25613300958,left,1,2,0.5559685344710488,T02R04,2022-11-11_09h01.36.781,t1_Paradigm,2021.1.4,59.95758791604956,
G,right,Target,0,8,8,8,966.755098584013,968.7571019915699,right,1,2,0.463170824739791,T02R04,2022-11-11_09h01.36.781,t1_Paradigm,2021.1.4,59.95758791604956,
H,right,Target,0,9,9,9,970.2550326592327,972.256780066913,right,1,2,0.9635636466059623,T02R04,2022-11-11_09h01.36.781,t1_Paradigm,2021.1.4,59.95758791604956,
T,left,Pretarget,0,10,10,10,973.755020949965,975.755926894391,left,1,2,0.8881646252439168,T02R04,2022-11-11_09h01.36.781,t1_Paradigm,2021.1.4,59.95758791604956,
K,left,Distractor,0,11,11,11,977.2550743634729,979.2568785530812,left,1,2,0.5871783841143952,T02R04,2022-11-11_09h01.36.781,t1_Paradigm,2021.1.4,59.95758791604956,
T,right,Target,0,12,12,12,980.7551492707053,982.7569970893651,right,1,2,0.5752647657877787,T02R04,2022-11-11_09h01.36.781,t1_Paradigm,2021.1.4,59.95758791604956,
T,left,Lure,0,13,13,13,984.2550092406973,986.2551250501656,None,0,2,,T02R04,2022-11-11_09h01.36.781,t1_Paradigm,2021.1.4,59.95758791604956,
J,left,Distractor,0,14,14,14,987.7550039474668,989.7570952547312,left,1,2,0.9669721662689881,T02R04,2022-11-11_09h01.36.781,t1_Paradigm,2021.1.4,59.95758791604956,
Q,left,Pretarget,0,15,15,15,991.2550551153622,993.2559353956403,left,1,2,0.6041321203174448,T02R04,2022-11-11_09h01.36.781,t1_Paradigm,2021.1.4,59.95758791604956,
M,left,Distractor,0,16,16,16,994.7551576115534,996.7566955356251,left,1,2,0.8316181662389681,T02R04,2022-11-11_09h01.36.781,t1_Paradigm,2021.1.4,59.95758791604956,
Q,right,Target,0,17,17,17,998.2550426040898,1000.2572936706756,right,1,2,0.4667208180189846,T02R04,2022-11-11_09h01.36.781,t1_Paradigm,2021.1.4,59.95758791604956,
R,left,Distractor,0,18,18,18,1001.7546837872201,1003.7573297608842,left,1,2,0.646876400500787,T02R04,2022-11-11_09h01.36.781,t1_Paradigm,2021.1.4,59.95758791604956,
W,left,Distractor,0,19,19,19,1005.2550185439509,1007.2573000867128,left,1,2,0.5708537403411356,T02R04,2022-11-11_09h01.36.781,t1_Paradigm,2021.1.4,59.95758791604956,
C,left,Pretarget,0,20,20,20,1008.7551316266035,1010.7574895202056,left,1,2,0.5270995759319703,T02R04,2022-11-11_09h01.36.781,t1_Paradigm,2021.1.4,59.95758791604956,
T,left,Distractor,0,21,21,21,1012.2549085089163,1014.2578383922182,left,1,2,0.5625035889706851,T02R04,2022-11-11_09h01.36.781,t1_Paradigm,2021.1.4,59.95758791604956,
C,right,Target,0,22,22,22,1015.7550010602504,1017.7558486187395,right,1,2,0.4723168855016411,T02R04,2022-11-11_09h01.36.781,t1_Paradigm,2021.1.4,59.95758791604956,
F,left,Pretarget,0,23,23,23,1019.255239897228,1021.2570177810844,left,1,2,0.8113835895096599,T02R04,2022-11-11_09h01.36.781,t1_Paradigm,2021.1.4,59.95758791604956,
C,right,Target,0,24,24,24,1022.7551412506591,1024.7564148340061,right,1,2,0.46384386702266056,T02R04,2022-11-11_09h01.36.781,t1_Paradigm,2021.1.4,59.95758791604956,
F,right,Target,0,25,25,25,1026.2549935214065,1028.2567277762114,right,1,2,1.2993479060783102,T02R04,2022-11-11_09h01.36.781,t1_Paradigm,2021.1.4,59.95758791604956,
H,left,Distractor,0,26,26,26,1029.7550183835501,1031.7569624427651,left,1,2,0.839320939474419,T02R04,2022-11-11_09h01.36.781,t1_Paradigm,2021.1.4,59.95758791604956,
H,left,Lure,0,27,27,27,1033.2550339424397,1035.254924228207,left,1,2,1.405138090760829,T02R04,2022-11-11_09h01.36.781,t1_Paradigm,2021.1.4,59.95758791604956,
P,left,Distractor,0,28,28,28,1036.7549744336966,1038.755970202641,left,1,2,0.9922096478589992,T02R04,2022-11-11_09h01.36.781,t1_Paradigm,2021.1.4,59.95758791604956,
G,left,Pretarget,0,29,29,29,1040.2550191855548,1042.255563907097,left,1,2,0.7406105308341466,T02R04,2022-11-11_09h01.36.781,t1_Paradigm,2021.1.4,59.95758791604956,
K,left,Distractor,0,30,30,30,1043.755153441129,1045.757299284708,left,1,2,0.6789087860893233,T02R04,2022-11-11_09h01.36.781,t1_Paradigm,2021.1.4,59.95758791604956,
G,right,Target,0,31,31,31,1047.254760940065,1049.256131084769,right,1,2,0.3961418444632727,T02R04,2022-11-11_09h01.36.781,t1_Paradigm,2021.1.4,59.95758791604956,
M,left,Pretarget,0,32,32,32,1050.7549099525245,1052.7571693599589,left,1,2,0.863022101002116,T02R04,2022-11-11_09h01.36.781,t1_Paradigm,2021.1.4,59.95758791604956,
B,left,Distractor,0,33,33,33,1054.2547641480837,1056.2565417111377,left,1,2,0.643437404661654,T02R04,2022-11-11_09h01.36.781,t1_Paradigm,2021.1.4,59.95758791604956,
M,right,Target,0,34,34,34,1057.755067787035,1059.755995866789,right,1,2,0.7121291009302695,T02R04,2022-11-11_09h01.36.781,t1_Paradigm,2021.1.4,59.95758791604956,
M,left,Lure,0,35,35,35,1061.2550085990938,1063.2551850401114,None,0,2,,T02R04,2022-11-11_09h01.36.781,t1_Paradigm,2021.1.4,59.95758791604956,
T,left,Distractor,0,36,36,36,1064.7551332306125,1066.7568780718784,left,1,2,1.0071638261265434,T02R04,2022-11-11_09h01.36.781,t1_Paradigm,2021.1.4,59.95758791604956,
F,left,Distractor,0,37,37,37,1068.2548016819,1070.2561605985393,left,1,2,0.5642038387791217,T02R04,2022-11-11_09h01.36.781,t1_Paradigm,2021.1.4,59.95758791604956,
X,left,Distractor,0,38,38,38,1071.755055596565,1073.7570266031353,left,1,2,0.7590264818722972,T02R04,2022-11-11_09h01.36.781,t1_Paradigm,2021.1.4,59.95758791604956,
C,left,Distractor,0,39,39,39,1075.2549418723088,1077.257652327145,left,1,2,0.4904643253908034,T02R04,2022-11-11_09h01.36.781,t1_Paradigm,2021.1.4,59.95758791604956,
R,left,Distractor,0,40,40,40,1078.7550055514762,1080.7562159368586,left,1,2,0.4799930321842112,T02R04,2022-11-11_09h01.36.781,t1_Paradigm,2021.1.4,59.95758791604956,
B,left,Pretarget,0,41,41,41,1082.2550390752695,1084.2569982121713,left,1,2,0.7551768596640613,T02R04,2022-11-11_09h01.36.781,t1_Paradigm,2021.1.4,59.95758791604956,
H,left,Distractor,0,42,42,42,1085.7716737740316,1087.7551467042904,left,1,2,0.5209071378089902,T02R04,2022-11-11_09h01.36.781,t1_Paradigm,2021.1.4,59.95758791604956,
B,right,Target,0,43,43,43,1089.2550207895642,1091.257196788517,left,0,2,0.8270505894893176,T02R04,2022-11-11_09h01.36.781,t1_Paradigm,2021.1.4,59.95758791604956,
W,left,Pretarget,0,44,44,44,1092.7550940927867,1094.7558739620858,left,1,2,0.8963630373391425,T02R04,2022-11-11_09h01.36.781,t1_Paradigm,2021.1.4,59.95758791604956,
L,left,Pretarget,0,45,45,45,1096.2547737721388,1098.2567220017781,left,1,2,0.6114685378397553,T02R04,2022-11-11_09h01.36.781,t1_Paradigm,2021.1.4,59.95758791604956,
W,right,Target,0,46,46,46,1099.754941391106,1101.7565643276685,right,1,2,0.6316498614614829,T02R04,2022-11-11_09h01.36.781,t1_Paradigm,2021.1.4,59.95758791604956,
L,right,Target,0,47,47,47,1103.2549922381995,1105.2566158163654,left,0,2,0.6353762957587605,T02R04,2022-11-11_09h01.36.781,t1_Paradigm,2021.1.4,59.95758791604956,
W,right,Target,0,48,48,48,1106.7550135715223,1108.7571892496735,right,1,2,0.766824533257477,T02R04,2022-11-11_09h01.36.781,t1_Paradigm,2021.1.4,59.95758791604956,
X,left,Distractor,0,49,49,49,1110.2550313760253,1112.2564935908604,left,1,2,0.7075939251676573,T02R04,2022-11-11_09h01.36.781,t1_Paradigm,2021.1.4,59.95758791604956,
R,left,Distractor,0,50,50,50,1113.7550158171352,1115.753970965508,left,1,2,0.6822544285892036,T02R04,2022-11-11_09h01.36.781,t1_Paradigm,2021.1.4,59.95758791604956,
V,left,Pretarget,0,51,51,51,1117.254992559001,1119.2569757560418,left,1,2,0.7791917654017197,T02R04,2022-11-11_09h01.36.781,t1_Paradigm,2021.1.4,59.95758791604956,
Z,left,Distractor,0,52,52,52,1120.7550026642593,1122.7560638767814,left,1,2,0.6560291981013506,T02R04,2022-11-11_09h01.36.781,t1_Paradigm,2021.1.4,59.95758791604956,
V,right,Target,0,53,53,53,1124.2550871955473,1126.2571252497041,right,1,2,0.5472638970559274,T02R04,2022-11-11_09h01.36.781,t1_Paradigm,2021.1.4,59.95758791604956,
V,left,Lure,0,54,54,54,1127.7549510151616,1129.7549936818077,None,0,2,,T02R04,2022-11-11_09h01.36.781,t1_Paradigm,2021.1.4,59.95758791604956,
N,left,Distractor,0,55,55,55,1131.2547339927096,1133.256692167206,left,1,2,0.731405442531468,T02R04,2022-11-11_09h01.36.781,t1_Paradigm,2021.1.4,59.95758791604956,
B,left,Distractor,0,56,56,56,1134.7551123784924,1136.756908548054,left,1,2,0.7351764682862267,T02R04,2022-11-11_09h01.36.781,t1_Paradigm,2021.1.4,59.95758791604956,
V,left,Lure,0,57,57,57,1138.2546833060173,1140.2568243375686,left,1,2,0.9150285722171247,T02R04,2022-11-11_09h01.36.781,t1_Paradigm,2021.1.4,59.95758791604956,
J,left,Distractor,0,58,58,58,1141.7549590352078,1143.7568597861728,left,1,2,0.5191661461653894,T02R04,2022-11-11_09h01.36.781,t1_Paradigm,2021.1.4,59.95758791604956,
H,left,Distractor,0,59,59,59,1145.2549521379678,1147.256702112063,left,1,2,0.715325570569803,T02R04,2022-11-11_09h01.36.781,t1_Paradigm,2021.1.4,59.95758791604956,
X,left,Pretarget,0,60,60,60,1148.7549763585075,1150.7571680767514,left,1,2,0.7828466608857525,T02R04,2022-11-11_09h01.36.781,t1_Paradigm,2021.1.4,59.95758791604956,
P,left,Distractor,0,61,61,61,1152.2549810101345,1154.2564326385086,left,1,2,0.9154424066041429,T02R04,2022-11-11_09h01.36.781,t1_Paradigm,2021.1.4,59.95758791604956,
X,right,Target,0,62,62,62,1155.7549920777983,1157.7548804387543,right,1,2,0.44113590802453473,T02R04,2022-11-11_09h01.36.781,t1_Paradigm,2021.1.4,59.95758791604956,
Q,left,Distractor,0,63,63,63,1159.2550121279141,1161.2563091297961,left,1,2,0.8117874790395945,T02R04,2022-11-11_09h01.36.781,t1_Paradigm,2021.1.4,59.95758791604956,
B,left,Pretarget,0,0,0,0,1168.1484045401162,1170.1392924843508,left,1,2,1.000599899460667,T02R04,2022-11-11_09h01.36.781,t1_Paradigm,2021.1.4,59.95758791604956,
F,left,Distractor,0,1,1,1,1171.6378965150975,1173.6390299080358,left,1,2,0.637014630809972,T02R04,2022-11-11_09h01.36.781,t1_Paradigm,2021.1.4,59.95758791604956,
B,right,Target,0,2,2,2,1175.1379845752053,1177.1398067297173,right,1,2,0.5123555228765326,T02R04,2022-11-11_09h01.36.781,t1_Paradigm,2021.1.4,59.95758791604956,
V,left,Distractor,0,3,3,3,1178.6381056779042,1180.638352695329,left,1,2,0.6297452608746426,T02R04,2022-11-11_09h01.36.781,t1_Paradigm,2021.1.4,59.95758791604956,
G,left,Pretarget,0,4,4,4,1182.1383246251671,1184.1400380278515,left,1,2,0.7444380177139465,T02R04,2022-11-11_09h01.36.781,t1_Paradigm,2021.1.4,59.95758791604956,
B,left,Lure,0,5,5,5,1185.6383860587216,1187.639205386648,left,1,2,0.5888388544935879,T02R04,2022-11-11_09h01.36.781,t1_Paradigm,2021.1.4,59.95758791604956,
G,right,Target,0,6,6,6,1189.1382623896084,1191.1400033812515,right,1,2,0.44808287210071285,T02R04,2022-11-11_09h01.36.781,t1_Paradigm,2021.1.4,59.95758791604956,
Y,left,Pretarget,0,7,7,7,1192.638209296902,1194.638804384335,left,1,2,0.7572383323567919,T02R04,2022-11-11_09h01.36.781,t1_Paradigm,2021.1.4,59.95758791604956,
P,left,Distractor,0,8,8,8,1196.138002860911,1198.1402587395246,left,1,2,0.5516774889169938,T02R04,2022-11-11_09h01.36.781,t1_Paradigm,2021.1.4,59.95758791604956,
Y,right,Target,0,9,9,9,1199.6382923845813,1201.6402046844128,right,1,2,0.5077141617016423,T02R04,2022-11-11_09h01.36.781,t1_Paradigm,2021.1.4,59.95758791604956,
X,left,Distractor,0,10,10,10,1203.1380891566087,1205.1400749200643,left,1,2,0.6400426794784835,T02R04,2022-11-11_09h01.36.781,t1_Paradigm,2021.1.4,59.95758791604956,
Y,right,Target,0,11,11,11,1206.6383071414662,1208.6401453360704,right,1,2,0.5799962722826422,T02R04,2022-11-11_09h01.36.781,t1_Paradigm,2021.1.4,59.95758791604956,
N,left,Distractor,0,12,12,12,1210.138247632723,1212.1398426595242,left,1,2,0.6322770290798871,T02R04,2022-11-11_09h01.36.781,t1_Paradigm,2021.1.4,59.95758791604956,
Y,right,Target,0,13,13,13,1213.6382734572721,1215.6396904390463,right,1,2,0.6043047117127571,T02R04,2022-11-11_09h01.36.781,t1_Paradigm,2021.1.4,59.95758791604956,
Y,left,Lure,0,14,14,14,1217.1379765551592,1219.138015692985,left,1,2,0.9622547750550439,T02R04,2022-11-11_09h01.36.781,t1_Paradigm,2021.1.4,59.95758791604956,
K,left,Distractor,0,15,15,15,1220.6379603546657,1222.6388486549904,left,1,2,0.7732219637628077,T02R04,2022-11-11_09h01.36.781,t1_Paradigm,2021.1.4,59.95758791604956,
T,left,Pretarget,0,16,16,16,1224.138284204134,1226.1396103989846,left,1,2,0.7763260424694636,T02R04,2022-11-11_09h01.36.781,t1_Paradigm,2021.1.4,59.95758791604956,
J,left,Distractor,0,17,17,17,1227.6382208457685,1229.6402444638425,left,1,2,0.6357301401999393,T02R04,2022-11-11_09h01.36.781,t1_Paradigm,2021.1.4,59.95758791604956,
T,right,Target,0,18,18,18,1231.1380429611422,1233.13983496028,right,1,2,0.5761132866823573,T02R04,2022-11-11_09h01.36.781,t1_Paradigm,2021.1.4,59.95758791604956,
S,left,Pretarget,0,19,19,19,1234.6381948608187,1236.640532543904,left,1,2,0.5153899875817842,T02R04,2022-11-11_09h01.36.781,t1_Paradigm,2021.1.4,59.95758791604956,
R,left,Distractor,0,20,20,20,1238.1382992818212,1240.1397383989229,left,1,2,0.6001945984025951,T02R04,2022-11-11_09h01.36.781,t1_Paradigm,2021.1.4,59.95758791604956,
S,right,Target,0,21,21,21,1241.6383321640105,1243.6400141281138,right,1,2,0.5719245769182635,T02R04,2022-11-11_09h01.36.781,t1_Paradigm,2021.1.4,59.95758791604956,
Q,left,Distractor,0,22,22,22,1245.1382107405102,1247.138964945661,left,1,2,0.5290683368893951,T02R04,2022-11-11_09h01.36.781,t1_Paradigm,2021.1.4,59.95758791604956,
D,left,Distractor,0,23,23,23,1248.638253567557,1250.651107456109,left,1,2,0.6648634394641704,T02R04,2022-11-11_09h01.36.781,t1_Paradigm,2021.1.4,59.95758791604956,
F,left,Distractor,0,24,24,24,1252.1380464899626,1254.1406119423623,left,1,2,0.5353374466544665,T02R04,2022-11-11_09h01.36.781,t1_Paradigm,2021.1.4,59.95758791604956,
Z,left,Distractor,0,25,25,25,1255.6381720838872,1257.6396429603724,left,1,2,0.6363691774863582,T02R04,2022-11-11_09h01.36.781,t1_Paradigm,2021.1.4,59.95758791604956,
P,left,Distractor,0,26,26,26,1259.1382781088987,1261.1399943988,left,1,2,0.608062263789634,T02R04,2022-11-11_09h01.36.781,t1_Paradigm,2021.1.4,59.95758791604956,
H,left,Distractor,0,27,27,27,1262.6381669510574,1264.639628524289,left,1,2,0.7084597693628893,T02R04,2022-11-11_09h01.36.781,t1_Paradigm,2021.1.4,59.95758791604956,
Z,left,Pretarget,0,28,28,28,1266.1379906704406,1268.1401740478364,left,1,2,0.631695094522911,T02R04,2022-11-11_09h01.36.781,t1_Paradigm,2021.1.4,59.95758791604956,
J,left,Pretarget,0,29,29,29,1269.6382416978886,1271.6387767953756,left,1,2,0.6211785682548907,T02R04,2022-11-11_09h01.36.781,t1_Paradigm,2021.1.4,59.95758791604956,
Z,right,Target,0,30,30,30,1273.1382299886213,1275.1402250553306,right,1,2,0.4641884082097931,T02R04,2022-11-11_09h01.36.781,t1_Paradigm,2021.1.4,59.95758791604956,
J,right,Target,0,31,31,31,1276.638142249315,1278.6400850253226,right,1,2,1.1719584535940157,T02R04,2022-11-11_09h01.36.781,t1_Paradigm,2021.1.4,59.95758791604956,
V,left,Pretarget,0,32,32,32,1280.1383178883284,1282.1401493460935,left,1,2,1.1118844574389186,T02R04,2022-11-11_09h01.36.781,t1_Paradigm,2021.1.4,59.95758791604956,
Z,left,Lure,0,33,33,33,1283.6382420186906,1285.6396192210354,right,0,2,0.8125169824479599,T02R04,2022-11-11_09h01.36.781,t1_Paradigm,2021.1.4,59.95758791604956,
V,right,Target,0,34,34,34,1287.1383044146505,1289.1396209854456,left,0,2,0.7202890168032354,T02R04,2022-11-11_09h01.36.781,t1_Paradigm,2021.1.4,59.95758791604956,
X,left,Distractor,0,35,35,35,1290.638176895915,1292.6401353912133,left,1,2,0.8197828235629459,T02R04,2022-11-11_09h01.36.781,t1_Paradigm,2021.1.4,59.95758791604956,
S,left,Distractor,0,36,36,36,1294.1380885150052,1296.1398253362245,left,1,2,0.8242596133891311,T02R04,2022-11-11_09h01.36.781,t1_Paradigm,2021.1.4,59.95758791604956,
Q,left,Distractor,0,37,37,37,1297.6382262993998,1299.6395345293467,left,1,2,0.6525613300959776,T02R04,2022-11-11_09h01.36.781,t1_Paradigm,2021.1.4,59.95758791604956,
P,left,Distractor,0,38,38,38,1301.138338098845,1303.1398465091465,left,1,2,0.6721610399627025,T02R04,2022-11-11_09h01.36.781,t1_Paradigm,2021.1.4,59.95758791604956,
S,left,Lure,0,39,39,39,1304.6381598934167,1306.6397154615906,left,1,2,0.8362669058565189,T02R04,2022-11-11_09h01.36.781,t1_Paradigm,2021.1.4,59.95758791604956,
K,left,Pretarget,0,40,40,40,1308.1382755424838,1310.139960073002,left,1,2,0.8400741822197233,T02R04,2022-11-11_09h01.36.781,t1_Paradigm,2021.1.4,59.95758791604956,
L,left,Distractor,0,41,41,41,1311.6382096177035,1313.639472293788,left,1,2,0.6686318988040512,T02R04,2022-11-11_09h01.36.781,t1_Paradigm,2021.1.4,59.95758791604956,
K,right,Target,0,42,42,42,1315.1379143196004,1317.140171802223,right,1,2,0.7357256810541912,T02R04,2022-11-11_09h01.36.781,t1_Paradigm,2021.1.4,59.95758791604956,
B,left,Distractor,0,43,43,43,1318.6382089761,1320.639597085708,left,1,2,0.6602669905482799,T02R04,2022-11-11_09h01.36.781,t1_Paradigm,2021.1.4,59.95758791604956,
N,left,Distractor,0,44,44,44,1322.1380018985055,1324.1390522037645,left,1,2,0.6488968105559252,T02R04,2022-11-11_09h01.36.781,t1_Paradigm,2021.1.4,59.95758791604956,
S,left,Pretarget,0,45,45,45,1325.6382388106722,1327.6405129749915,left,1,2,0.7475507580711565,T02R04,2022-11-11_09h01.36.781,t1_Paradigm,2021.1.4,59.95758791604956,
Z,left,Distractor,0,46,46,46,1329.1381302192458,1331.139454489285,left,1,2,0.83236980497486,T02R04,2022-11-11_09h01.36.781,t1_Paradigm,2021.1.4,59.95758791604956,
S,right,Target,0,47,47,47,1332.6381829911502,1334.6401357120149,right,1,2,0.6918576319885688,T02R04,2022-11-11_09h01.36.781,t1_Paradigm,2021.1.4,59.95758791604956,
C,left,Distractor,0,48,48,48,1336.1383307204023,1338.1399796419146,left,1,2,0.9199512766149383,T02R04,2022-11-11_09h01.36.781,t1_Paradigm,2021.1.4,59.95758791604956,
T,left,Pretarget,0,49,49,49,1339.637996284473,1341.64071379695,left,1,2,0.9872320863441928,T02R04,2022-11-11_09h01.36.781,t1_Paradigm,2021.1.4,59.95758791604956,
S,left,Lure,0,50,50,50,1343.1381626202328,1345.1401798222696,left,1,2,0.8316470384052081,T02R04,2022-11-11_09h01.36.781,t1_Paradigm,2021.1.4,59.95758791604956,
T,right,Target,0,51,51,51,1346.6379690163158,1348.6392605645665,right,1,2,0.7727298537238312,T02R04,2022-11-11_09h01.36.781,t1_Paradigm,2021.1.4,59.95758791604956,
N,left,Pretarget,0,52,52,52,1350.138146259338,1352.13899766745,left,1,2,0.6169269813285609,T02R04,2022-11-11_09h01.36.781,t1_Paradigm,2021.1.4,59.95758791604956,
B,left,Distractor,0,53,53,53,1353.638022269423,1355.6403041329868,left,1,2,0.5716056998790009,T02R04,2022-11-11_09h01.36.781,t1_Paradigm,2021.1.4,59.95758791604956,
N,right,Target,0,54,54,54,1357.137912394789,1359.140941085061,right,1,2,0.6710603688129595,T02R04,2022-11-11_09h01.36.781,t1_Paradigm,2021.1.4,59.95758791604956,
N,left,Lure,0,55,55,55,1360.638155081389,1362.638131662854,right,0,2,1.0777800126975308,T02R04,2022-11-11_09h01.36.781,t1_Paradigm,2021.1.4,59.95758791604956,
X,left,Distractor,0,56,56,56,1364.1383101890838,1366.1401127746826,left,1,2,0.9198415623823166,T02R04,2022-11-11_09h01.36.781,t1_Paradigm,2021.1.4,59.95758791604956,
W,left,Distractor,0,57,57,57,1367.6381672718594,1369.6399300780286,left,1,2,0.8122032382384532,T02R04,2022-11-11_09h01.36.781,t1_Paradigm,2021.1.4,59.95758791604956,
S,left,Distractor,0,58,58,58,1371.138101347079,1373.1387942790766,left,1,2,0.6571982000450589,T02R04,2022-11-11_09h01.36.781,t1_Paradigm,2021.1.4,59.95758791604956,
L,left,Distractor,0,59,59,59,1374.6380835425766,1376.6391960833944,left,1,2,0.7568103826879451,T02R04,2022-11-11_09h01.36.781,t1_Paradigm,2021.1.4,59.95758791604956,
K,left,Pretarget,0,60,60,60,1378.1382790713046,1380.1380978182588,left,1,2,0.7301023454147071,T02R04,2022-11-11_09h01.36.781,t1_Paradigm,2021.1.4,59.95758791604956,
V,left,Pretarget,0,61,61,61,1381.6380129661693,1383.63865617388,left,1,2,0.5893200572695605,T02R04,2022-11-11_09h01.36.781,t1_Paradigm,2021.1.4,59.95758791604956,
K,right,Target,0,62,62,62,1385.1380878734012,1387.1392488552988,right,1,2,0.7366431743471367,T02R04,2022-11-11_09h01.36.781,t1_Paradigm,2021.1.4,59.95758791604956,
V,right,Target,0,63,63,63,1388.6382718532627,1390.6391139581206,right,1,2,0.7249124130744349,T02R04,2022-11-11_09h01.36.781,t1_Paradigm,2021.1.4,59.95758791604956,
R,left,Distractor,0,0,0,0,1472.6990281949538,1474.7010309609077,left,1,3,0.8709340370442078,T02R04,2022-11-11_09h01.36.781,t1_Paradigm,2021.1.4,59.95758791604956,
P,left,Lure,0,1,1,1,1476.1880408919706,1478.190266936012,left,1,3,0.8695587595107099,T02R04,2022-11-11_09h01.36.781,t1_Paradigm,2021.1.4,59.95758791604956,
V,left,Distractor,0,2,2,2,1479.68811708241,1481.6899090815477,left,1,3,0.5379750794709253,T02R04,2022-11-11_09h01.36.781,t1_Paradigm,2021.1.4,59.95758791604956,
P,left,Pretarget,0,3,3,3,1483.188075859372,1485.1898239086563,left,1,3,0.6380825801707033,T02R04,2022-11-11_09h01.36.781,t1_Paradigm,2021.1.4,59.95758791604956,
Z,left,Distractor,0,4,4,4,1486.688238987113,1488.6904332717713,left,1,3,0.8976337334697746,T02R04,2022-11-11_09h01.36.781,t1_Paradigm,2021.1.4,59.95758791604956,
L,left,Pretarget,0,5,5,5,1490.1881089019626,1492.1897414625805,left,1,3,0.8381121581014668,T02R04,2022-11-11_09h01.36.781,t1_Paradigm,2021.1.4,59.95758791604956,
P,right,Target,0,6,6,6,1493.6880603004824,1495.6904724095975,right,1,3,0.601458557694059,T02R04,2022-11-11_09h01.36.781,t1_Paradigm,2021.1.4,59.95758791604956,
S,left,Distractor,0,7,7,7,1497.188086445833,1499.1899288108616,left,1,3,0.7339051305521025,T02R04,2022-11-11_09h01.36.781,t1_Paradigm,2021.1.4,59.95758791604956,
L,right,Target,0,8,8,8,1500.6880737741599,1502.704421515667,left,0,3,0.7554524284541912,T02R04,2022-11-11_09h01.36.781,t1_Paradigm,2021.1.4,59.95758791604956,
D,left,Distractor,0,9,9,9,1504.1881047315387,1506.1899811015633,left,1,3,0.789986747675357,T02R04,2022-11-11_09h01.36.781,t1_Paradigm,2021.1.4,59.95758791604956,
G,left,Distractor,0,10,10,10,1507.6880416939748,1509.6900903345932,left,1,3,1.3857375988432068,T02R04,2022-11-11_09h01.36.781,t1_Paradigm,2021.1.4,59.95758791604956,
M,left,Pretarget,0,11,11,11,1511.1879122504283,1513.1905518080553,left,1,3,0.8614530591503353,T02R04,2022-11-11_09h01.36.781,t1_Paradigm,2021.1.4,59.95758791604956,
Y,left,Distractor,0,12,12,12,1514.6880943054784,1516.6887673477613,left,1,3,0.547210964750775,T02R04,2022-11-11_09h01.36.781,t1_Paradigm,2021.1.4,59.95758791604956,
V,left,Distractor,0,13,13,13,1518.1881797991718,1520.1899522293966,left,1,3,0.5018351469866502,T02R04,2022-11-11_09h01.36.781,t1_Paradigm,2021.1.4,59.95758791604956,
M,right,Target,0,14,14,14,1521.6881029671285,1523.6888735331736,right,1,3,0.5869259130581668,T02R04,2022-11-11_09h01.36.781,t1_Paradigm,2021.1.4,59.95758791604956,
S,left,Pretarget,0,15,15,15,1525.1878840198656,1527.1885490421018,left,1,3,0.8474802137438928,T02R04,2022-11-11_09h01.36.781,t1_Paradigm,2021.1.4,59.95758791604956,
Q,left,Distractor,0,16,16,16,1528.6880792277916,1530.6898359387255,left,1,3,0.546135957748902,T02R04,2022-11-11_09h01.36.781,t1_Paradigm,2021.1.4,59.95758791604956,
R,left,Pretarget,0,17,17,17,1532.187863488547,1534.1902364598363,left,1,3,0.6937298315883709,T02R04,2022-11-11_09h01.36.781,t1_Paradigm,2021.1.4,59.95758791604956,
S,right,Target,0,18,18,18,1535.6879034283775,1537.6886614831506,right,1,3,0.42698084716721496,T02R04,2022-11-11_09h01.36.781,t1_Paradigm,2021.1.4,59.95758791604956,
F,left,Distractor,0,19,19,19,1539.188179157568,1541.2010282340916,left,1,3,0.6268724803021541,T02R04,2022-11-11_09h01.36.781,t1_Paradigm,2021.1.4,59.95758791604956,
R,right,Target,0,20,20,20,1542.6880538844453,1544.6899799787566,left,0,3,0.6258577840485486,T02R04,2022-11-11_09h01.36.781,t1_Paradigm,2021.1.4,59.95758791604956,
P,left,Distractor,0,21,21,21,1546.1880928618702,1548.1897568610693,left,1,3,0.7741186049352109,T02R04,2022-11-11_09h01.36.781,t1_Paradigm,2021.1.4,59.95758791604956,
L,left,Distractor,0,22,22,22,1549.6881562202357,1551.6903764898439,left,1,3,0.6334306325343277,T02R04,2022-11-11_09h01.36.781,t1_Paradigm,2021.1.4,59.95758791604956,
R,right,Target,0,23,23,23,1553.1879783356094,1555.1901074974921,right,1,3,0.46180709607278914,T02R04,2022-11-11_09h01.36.781,t1_Paradigm,2021.1.4,59.95758791604956,
H,left,Pretarget,0,24,24,24,1556.6881655234893,1558.6887025457872,left,1,3,0.5152388899105063,T02R04,2022-11-11_09h01.36.781,t1_Paradigm,2021.1.4,59.95758791604956,
G,left,Pretarget,0,25,25,25,1560.1880168318316,1562.1886834580773,left,1,3,0.5830977845744201,T02R04,2022-11-11_09h01.36.781,t1_Paradigm,2021.1.4,59.95758791604956,
T,left,Distractor,0,26,26,26,1563.6878315687627,1565.6894092722641,left,1,3,0.7145107338697017,T02R04,2022-11-11_09h01.36.781,t1_Paradigm,2021.1.4,59.95758791604956,
H,right,Target,0,27,27,27,1567.188052120035,1569.1885169619168,right,1,3,0.6553298500666642,T02R04,2022-11-11_09h01.36.781,t1_Paradigm,2021.1.4,59.95758791604956,
G,right,Target,0,28,28,28,1570.6879647015307,1572.6896444200206,right,1,3,0.9623314466975899,T02R04,2022-11-11_09h01.36.781,t1_Paradigm,2021.1.4,59.95758791604956,
D,left,Distractor,0,29,29,29,1574.187932140143,1576.1899493421797,left,1,3,0.70986969349633,T02R04,2022-11-11_09h01.36.781,t1_Paradigm,2021.1.4,59.95758791604956,
N,left,Pretarget,0,30,30,30,1577.6880112177992,1579.6900014724806,left,1,3,0.5057383431030757,T02R04,2022-11-11_09h01.36.781,t1_Paradigm,2021.1.4,59.95758791604956,
V,left,Distractor,0,31,31,31,1581.188064952109,1583.1901171215477,left,1,3,0.6696584647256714,T02R04,2022-11-11_09h01.36.781,t1_Paradigm,2021.1.4,59.95758791604956,
R,left,Distractor,0,32,32,32,1584.6880218042602,1586.6904335925733,left,1,3,1.025304208374564,T02R04,2022-11-11_09h01.36.781,t1_Paradigm,2021.1.4,59.95758791604956,
N,right,Target,0,33,33,33,1588.1877473582772,1590.1900558483944,right,1,3,0.6300420025863787,T02R04,2022-11-11_09h01.36.781,t1_Paradigm,2021.1.4,59.95758791604956,
Z,left,Distractor,0,34,34,34,1591.6878902755016,1593.6899421241383,left,1,3,0.7139746739771908,T02R04,2022-11-11_09h01.36.781,t1_Paradigm,2021.1.4,59.95758791604956,
N,left,Lure,0,35,35,35,1595.1879937340982,1597.189864971293,left,1,3,0.765842237990455,T02R04,2022-11-11_09h01.36.781,t1_Paradigm,2021.1.4,59.95758791604956,
Y,left,Pretarget,0,36,36,36,1598.6879059947923,1600.68959918696,left,1,3,0.8502063878704575,T02R04,2022-11-11_09h01.36.781,t1_Paradigm,2021.1.4,59.95758791604956,
Y,left,Lure,0,37,37,37,1602.1877832880841,1604.1879760899965,left,1,3,0.9677138601473416,T02R04,2022-11-11_09h01.36.781,t1_Paradigm,2021.1.4,59.95758791604956,
B,left,Distractor,0,38,38,38,1605.6879640599273,1607.6898737933438,left,1,3,1.0338991315570638,T02R04,2022-11-11_09h01.36.781,t1_Paradigm,2021.1.4,59.95758791604956,
Y,right,Target,0,39,39,39,1609.1880229270669,1611.1902294021957,left,0,3,0.877763587642221,T02R04,2022-11-11_09h01.36.781,t1_Paradigm,2021.1.4,59.95758791604956,
J,left,Distractor,0,40,40,40,1612.6880064057714,1614.6898449211776,left,1,3,1.0259541529244416,T02R04,2022-11-11_09h01.36.781,t1_Paradigm,2021.1.4,59.95758791604956,
X,left,Distractor,0,41,41,41,1616.1879844308446,1618.1887437688251,left,1,3,0.6631760217296687,T02R04,2022-11-11_09h01.36.781,t1_Paradigm,2021.1.4,59.95758791604956,
W,left,Pretarget,0,42,42,42,1619.6880311075138,1621.6901734222724,left,1,3,0.8256166052169647,T02R04,2022-11-11_09h01.36.781,t1_Paradigm,2021.1.4,59.95758791604956,
S,left,Pretarget,0,43,43,43,1623.1881127515849,1625.2008780988258,left,1,3,0.6429504274524334,T02R04,2022-11-11_09h01.36.781,t1_Paradigm,2021.1.4,59.95758791604956,
R,left,Distractor,0,44,44,44,1626.6880388067584,1628.6899879988027,left,1,3,0.5779040026127404,T02R04,2022-11-11_09h01.36.781,t1_Paradigm,2021.1.4,59.95758791604956,
W,right,Target,0,45,45,45,1630.1878108770434,1632.1901023646628,left,0,3,0.7418359939038055,T02R04,2022-11-11_09h01.36.781,t1_Paradigm,2021.1.4,59.95758791604956,
S,right,Target,0,46,46,46,1633.6880288619009,1635.6884985158104,left,0,3,0.8914198016223054,T02R04,2022-11-11_09h01.36.781,t1_Paradigm,2021.1.4,59.95758791604956,
D,left,Distractor,0,47,47,47,1637.1880120198039,1639.1899025051098,left,1,3,0.733846103011274,T02R04,2022-11-11_09h01.36.781,t1_Paradigm,2021.1.4,59.95758791604956,
T,left,Distractor,0,48,48,48,1640.687758746743,1642.689411517877,left,1,3,0.6904980737454025,T02R04,2022-11-11_09h01.36.781,t1_Paradigm,2021.1.4,59.95758791604956,
S,right,Target,0,49,49,49,1644.187975127591,1646.1901459937144,right,1,3,0.3896937272647847,T02R04,2022-11-11_09h01.36.781,t1_Paradigm,2021.1.4,59.95758791604956,
K,left,Distractor,0,50,50,50,1647.6879650223327,1649.6885873779229,left,1,3,0.6033390981424418,T02R04,2022-11-11_09h01.36.781,t1_Paradigm,2021.1.4,59.95758791604956,
S,left,Lure,0,51,51,51,1651.1879709571667,1653.1899057131282,right,0,3,0.4619816122794873,T02R04,2022-11-11_09h01.36.781,t1_Paradigm,2021.1.4,59.95758791604956,
T,left,Pretarget,0,52,52,52,1654.6879553982772,1656.6897287909073,left,1,3,0.8820122873526088,T02R04,2022-11-11_09h01.36.781,t1_Paradigm,2021.1.4,59.95758791604956,
V,left,Distractor,0,53,53,53,1658.188089012248,1660.1899368309078,left,1,3,0.8698340074984117,T02R04,2022-11-11_09h01.36.781,t1_Paradigm,2021.1.4,59.95758791604956,
B,left,Distractor,0,54,54,54,1661.6880635085008,1663.689925442442,left,1,3,0.8258491865590258,T02R04,2022-11-11_09h01.36.781,t1_Paradigm,2021.1.4,59.95758791604956,
T,right,Target,0,55,55,55,1665.187927969719,1667.1898745953486,left,0,3,1.2142577816102857,T02R04,2022-11-11_09h01.36.781,t1_Paradigm,2021.1.4,59.95758791604956,
Y,left,Pretarget,0,56,56,56,1668.6876993984006,1670.6899321792807,left,1,3,0.6899620138528917,T02R04,2022-11-11_09h01.36.781,t1_Paradigm,2021.1.4,59.95758791604956,
T,left,Lure,0,57,57,57,1672.1876809522942,1674.1882102753475,left,1,3,0.9513051662893304,T02R04,2022-11-11_09h01.36.781,t1_Paradigm,2021.1.4,59.95758791604956,
P,left,Pretarget,0,58,58,58,1675.6877751076372,1677.6899183848013,left,1,3,0.7459964731046966,T02R04,2022-11-11_09h01.36.781,t1_Paradigm,2021.1.4,59.95758791604956,
Y,right,Target,0,59,59,59,1679.1879812228262,1681.1884033980618,left,0,3,0.7995296403264547,T02R04,2022-11-11_09h01.36.781,t1_Paradigm,2021.1.4,59.95758791604956,
R,left,Distractor,0,60,60,60,1682.6879416037978,1684.690314254285,left,1,3,0.7055651742643931,T02R04,2022-11-11_09h01.36.781,t1_Paradigm,2021.1.4,59.95758791604956,
P,right,Target,0,61,61,61,1686.1877720600196,1688.189684680653,left,0,3,0.662179931983701,T02R04,2022-11-11_09h01.36.781,t1_Paradigm,2021.1.4,59.95758791604956,
L,left,Distractor,0,62,62,62,1689.6877147968894,1691.689915176783,left,1,3,0.6178165648598224,T02R04,2022-11-11_09h01.36.781,t1_Paradigm,2021.1.4,59.95758791604956,
V,left,Distractor,0,63,63,63,1693.1879481802357,1695.1898678585098,left,1,3,0.637913196793761,T02R04,2022-11-11_09h01.36.781,t1_Paradigm,2021.1.4,59.95758791604956,
H,left,Lure,0,0,0,0,1750.0690080068935,1752.0721938900724,None,0,3,,T02R04,2022-11-11_09h01.36.781,t1_Paradigm,2021.1.4,59.95758791604956,
B,left,Distractor,0,1,1,1,1753.5713115245821,1755.5841971725167,left,1,3,0.8515912894599751,T02R04,2022-11-11_09h01.36.781,t1_Paradigm,2021.1.4,59.95758791604956,
T,left,Distractor,0,2,2,2,1757.0709972991694,1759.0720995743281,left,1,3,0.5637800595345652,T02R04,2022-11-11_09h01.36.781,t1_Paradigm,2021.1.4,59.95758791604956,
R,left,Distractor,0,3,3,3,1760.5712438353917,1762.5733088369043,left,1,3,0.6142210177181369,T02R04,2022-11-11_09h01.36.781,t1_Paradigm,2021.1.4,59.95758791604956,
H,left,Pretarget,0,4,4,4,1764.0713553140345,1766.0723132283606,left,1,3,0.9395282095501898,T02R04,2022-11-11_09h01.36.781,t1_Paradigm,2021.1.4,59.95758791604956,
K,left,Distractor,0,5,5,5,1767.5710385222073,1769.587655095665,left,1,3,0.8161744443473253,T02R04,2022-11-11_09h01.36.781,t1_Paradigm,2021.1.4,59.95758791604956,
G,left,Distractor,0,6,6,6,1771.0712950032867,1773.0730793031798,left,1,3,0.5309726166747168,T02R04,2022-11-11_09h01.36.781,t1_Paradigm,2021.1.4,59.95758791604956,
H,right,Target,0,7,7,7,1774.571169409362,1776.573091974853,right,1,3,1.0148043638032505,T02R04,2022-11-11_09h01.36.781,t1_Paradigm,2021.1.4,59.95758791604956,
Y,left,Pretarget,0,8,8,8,1778.0713463315828,1780.0728380601881,left,1,3,0.7150310744714261,T02R04,2022-11-11_09h01.36.781,t1_Paradigm,2021.1.4,59.95758791604956,
S,left,Distractor,0,9,9,9,1781.571235815345,1783.572743584043,left,1,3,0.6229503568761174,T02R04,2022-11-11_09h01.36.781,t1_Paradigm,2021.1.4,59.95758791604956,
P,left,Distractor,0,10,10,10,1785.071163474528,1787.0729801754082,left,1,3,0.6107932499439812,T02R04,2022-11-11_09h01.36.781,t1_Paradigm,2021.1.4,59.95758791604956,
Y,right,Target,0,11,11,11,1788.5712197752528,1790.5731275838584,right,1,3,0.45461054815768875,T02R04,2022-11-11_09h01.36.781,t1_Paradigm,2021.1.4,59.95758791604956,
H,left,Lure,0,12,12,12,1792.0712443165944,1794.0731168369966,left,1,3,0.8107310785453592,T02R04,2022-11-11_09h01.36.781,t1_Paradigm,2021.1.4,59.95758791604956,
Q,left,Distractor,0,13,13,13,1795.570944527265,1797.5731869322008,left,1,3,0.7185467419521956,T02R04,2022-11-11_09h01.36.781,t1_Paradigm,2021.1.4,59.95758791604956,
V,left,Pretarget,0,14,14,14,1799.071029700156,1801.072995253095,left,1,3,0.6752189232029195,T02R04,2022-11-11_09h01.36.781,t1_Paradigm,2021.1.4,59.95758791604956,
G,left,Distractor,0,15,15,15,1802.5709724370258,1804.5718803062632,left,1,3,0.8079285535782219,T02R04,2022-11-11_09h01.36.781,t1_Paradigm,2021.1.4,59.95758791604956,
Z,left,Pretarget,0,16,16,16,1806.0711753441965,1808.0728271529256,left,1,3,0.826851371540215,T02R04,2022-11-11_09h01.36.781,t1_Paradigm,2021.1.4,59.95758791604956,
V,right,Target,0,17,17,17,1809.571239023364,1811.5730326265107,left,0,3,0.750623718998213,T02R04,2022-11-11_09h01.36.781,t1_Paradigm,2021.1.4,59.95758791604956,
N,left,Distractor,0,18,18,18,1813.0710178304876,1815.072898691738,left,1,3,0.8667774074656336,T02R04,2022-11-11_09h01.36.781,t1_Paradigm,2021.1.4,59.95758791604956,
Z,right,Target,0,19,19,19,1816.5712512138339,1818.5729274035039,right,1,3,0.4228322376347933,T02R04,2022-11-11_09h01.36.781,t1_Paradigm,2021.1.4,59.95758791604956,
R,left,Distractor,0,20,20,20,1820.071400226294,1822.0716738702722,left,1,3,0.6040236892918074,T02R04,2022-11-11_09h01.36.781,t1_Paradigm,2021.1.4,59.95758791604956,
P,left,Distractor,0,21,21,21,1823.5712447977971,1825.5731570976286,left,1,3,0.59035207682291,T02R04,2022-11-11_09h01.36.781,t1_Paradigm,2021.1.4,59.95758791604956,
Z,right,Target,0,22,22,22,1827.0712289181056,1829.0719163964714,right,1,3,0.4837416018085605,T02R04,2022-11-11_09h01.36.781,t1_Paradigm,2021.1.4,59.95758791604956,
D,left,Pretarget,0,23,23,23,1830.570978532261,1832.584088741491,left,1,3,0.7155815704472843,T02R04,2022-11-11_09h01.36.781,t1_Paradigm,2021.1.4,59.95758791604956,
K,left,Distractor,0,24,24,24,1834.071006923225,1836.07362530793,left,1,3,0.602073855643539,T02R04,2022-11-11_09h01.36.781,t1_Paradigm,2021.1.4,59.95758791604956,
W,left,Distractor,0,25,25,25,1837.570989760326,1839.5716198151604,left,1,3,0.6240401207628565,T02R04,2022-11-11_09h01.36.781,t1_Paradigm,2021.1.4,59.95758791604956,
D,right,Target,0,26,26,26,1841.0709010586143,1843.0729821002192,right,1,3,0.531034531431942,T02R04,2022-11-11_09h01.36.781,t1_Paradigm,2021.1.4,59.95758791604956,
G,left,Pretarget,0,27,27,27,1844.57124704341,1846.5717680256153,left,1,3,0.5357573762771608,T02R04,2022-11-11_09h01.36.781,t1_Paradigm,2021.1.4,59.95758791604956,
V,left,Distractor,0,28,28,28,1848.070863203996,1850.0726869625169,left,1,3,1.0509738100577124,T02R04,2022-11-11_09h01.36.781,t1_Paradigm,2021.1.4,59.95758791604956,
D,right,Target,0,29,29,29,1851.5711790334176,1853.573113147775,left,0,3,1.2469622470757713,T02R04,2022-11-11_09h01.36.781,t1_Paradigm,2021.1.4,59.95758791604956,
G,right,Target,0,30,30,30,1855.0711718153761,1857.0719077348213,left,0,3,1.1078991360486725,T02R04,2022-11-11_09h01.36.781,t1_Paradigm,2021.1.4,59.95758791604956,
B,left,Pretarget,0,31,31,31,1858.5711928278974,1860.5724362558703,left,1,3,0.7432061386075475,T02R04,2022-11-11_09h01.36.781,t1_Paradigm,2021.1.4,59.95758791604956,
N,left,Distractor,0,32,32,32,1862.0712587526777,1864.0737959745143,left,1,3,0.825817106373961,T02R04,2022-11-11_09h01.36.781,t1_Paradigm,2021.1.4,59.95758791604956,
F,left,Distractor,0,33,33,33,1865.5709310535872,1867.5730890876366,left,1,3,0.5903966682799364,T02R04,2022-11-11_09h01.36.781,t1_Paradigm,2021.1.4,59.95758791604956,
B,right,Target,0,34,34,34,1869.0709148530937,1871.0722102509667,right,1,3,0.467418882846232,T02R04,2022-11-11_09h01.36.781,t1_Paradigm,2021.1.4,59.95758791604956,
Q,left,Pretarget,0,35,35,35,1872.5711982815287,1874.5730008671276,left,1,3,0.6788029214781091,T02R04,2022-11-11_09h01.36.781,t1_Paradigm,2021.1.4,59.95758791604956,
S,left,Pretarget,0,36,36,36,1876.0712609982907,1878.0731277442596,left,1,3,0.8264750709690816,T02R04,2022-11-11_09h01.36.781,t1_Paradigm,2021.1.4,59.95758791604956,
W,left,Distractor,0,37,37,37,1879.5711687677585,1881.573830781515,left,1,3,0.6378005953438333,T02R04,2022-11-11_09h01.36.781,t1_Paradigm,2021.1.4,59.95758791604956,
Q,right,Target,0,38,38,38,1883.071140055993,1885.0728566666958,right,1,3,0.6908480685642644,T02R04,2022-11-11_09h01.36.781,t1_Paradigm,2021.1.4,59.95758791604956,
S,right,Target,0,39,39,39,1886.5711986023307,1888.5729752029793,left,0,3,0.5825068675658258,T02R04,2022-11-11_09h01.36.781,t1_Paradigm,2021.1.4,59.95758791604956,
T,left,Distractor,0,40,40,40,1890.0712937200792,1892.0731277442596,left,1,3,0.5705406377346662,T02R04,2022-11-11_09h01.36.781,t1_Paradigm,2021.1.4,59.95758791604956,
G,left,Distractor,0,41,41,41,1893.5710500710738,1895.5717940105656,left,1,3,0.6878257943294557,T02R04,2022-11-11_09h01.36.781,t1_Paradigm,2021.1.4,59.95758791604956,
D,left,Distractor,0,42,42,42,1897.0712706223462,1899.0719670831636,left,1,3,0.7077703661857413,T02R04,2022-11-11_09h01.36.781,t1_Paradigm,2021.1.4,59.95758791604956,
S,left,Lure,0,43,43,43,1900.5708835749133,1902.5730165864184,left,1,3,0.7266181165146008,T02R04,2022-11-11_09h01.36.781,t1_Paradigm,2021.1.4,59.95758791604956,
Z,left,Pretarget,0,44,44,44,1904.0713241962553,1906.0734325060175,left,1,3,0.8106418956313064,T02R04,2022-11-11_09h01.36.781,t1_Paradigm,2021.1.4,59.95758791604956,
J,left,Distractor,0,45,45,45,1907.5710856800792,1909.5737287665265,left,1,3,0.9259146622166554,T02R04,2022-11-11_09h01.36.781,t1_Paradigm,2021.1.4,59.95758791604956,
M,left,Pretarget,0,46,46,46,1911.0709440460623,1913.071835233603,left,1,3,0.9478437143206975,T02R04,2022-11-11_09h01.36.781,t1_Paradigm,2021.1.4,59.95758791604956,
Z,right,Target,0,47,47,47,1914.5709387528314,1916.572947934822,right,1,3,0.42290826767293765,T02R04,2022-11-11_09h01.36.781,t1_Paradigm,2021.1.4,59.95758791604956,
P,left,Distractor,0,48,48,48,1918.0709697102102,1920.072994932293,left,1,3,0.5546715325890546,T02R04,2022-11-11_09h01.36.781,t1_Paradigm,2021.1.4,59.95758791604956,
M,right,Target,0,49,49,49,1921.5712659707192,1923.5721459301953,right,1,3,0.4318714713799636,T02R04,2022-11-11_09h01.36.781,t1_Paradigm,2021.1.4,59.95758791604956,
K,left,Distractor,0,50,50,50,1925.0712071035796,1927.0733080348996,left,1,3,0.5784692554734647,T02R04,2022-11-11_09h01.36.781,t1_Paradigm,2021.1.4,59.95758791604956,
Y,left,Distractor,0,51,51,51,1928.5712293993083,1930.5721019803418,left,1,3,0.759883022813483,T02R04,2022-11-11_09h01.36.781,t1_Paradigm,2021.1.4,59.95758791604956,
X,left,Distractor,0,52,52,52,1932.0711702113667,1934.0718798250605,left,1,3,0.667684250136972,T02R04,2022-11-11_09h01.36.781,t1_Paradigm,2021.1.4,59.95758791604956,
F,left,Pretarget,0,53,53,53,1935.5710715647979,1937.5729684661405,left,1,3,0.7987295605107647,T02R04,2022-11-11_09h01.36.781,t1_Paradigm,2021.1.4,59.95758791604956,
M,left,Lure,0,54,54,54,1939.0710601763321,1941.0733901601734,left,1,3,0.9144354095951712,T02R04,2022-11-11_09h01.36.781,t1_Paradigm,2021.1.4,59.95758791604956,
V,left,Distractor,0,55,55,55,1942.5711296299328,1944.5722062409436,left,1,3,0.6795552018179478,T02R04,2022-11-11_09h01.36.781,t1_Paradigm,2021.1.4,59.95758791604956,
F,right,Target,0,56,56,56,1946.0711108630244,1948.0717964165792,left,0,3,0.6838180168092549,T02R04,2022-11-11_09h01.36.781,t1_Paradigm,2021.1.4,59.95758791604956,
S,left,Distractor,0,57,57,57,1949.5710321061702,1951.5719550530944,left,1,3,0.5594360816749031,T02R04,2022-11-11_09h01.36.781,t1_Paradigm,2021.1.4,59.95758791604956,
D,left,Distractor,0,58,58,58,1953.0709283267715,1955.0734770974746,left,1,3,0.5305427421949389,T02R04,2022-11-11_09h01.36.781,t1_Paradigm,2021.1.4,59.95758791604956,
F,right,Target,0,59,59,59,1956.5708980109966,1958.5717988225933,right,1,3,0.919807557385866,T02R04,2022-11-11_09h01.36.781,t1_Paradigm,2021.1.4,59.95758791604956,
V,left,Pretarget,0,60,60,60,1960.0712372589537,1962.0712651687145,left,1,3,1.0523497291951571,T02R04,2022-11-11_09h01.36.781,t1_Paradigm,2021.1.4,59.95758791604956,
J,left,Distractor,0,61,61,61,1963.571234211336,1965.5731946314454,left,1,3,0.7343167193262161,T02R04,2022-11-11_09h01.36.781,t1_Paradigm,2021.1.4,59.95758791604956,
V,left,Lure,0,62,62,62,1967.0706890085908,1969.0701863120908,left,1,3,0.9176569017790825,T02R04,2022-11-11_09h01.36.781,t1_Paradigm,2021.1.4,59.95758791604956,
V,right,Target,0,63,63,63,1970.571111985831,1972.5708739508577,right,1,3,0.6809558226982517,T02R04,2022-11-11_09h01.36.781,t1_Paradigm,2021.1.4,59.95758791604956,
R,left,Distractor,0,0,0,0,2041.8366217127036,2043.838268067801,left,1,4,0.9012664936258261,T02R04,2022-11-11_09h01.36.781,t1_Paradigm,2021.1.4,59.95758791604956,
F,left,Distractor,0,1,1,1,2045.3378341832981,2047.3387016315019,left,1,4,0.5048776317380543,T02R04,2022-11-11_09h01.36.781,t1_Paradigm,2021.1.4,59.95758791604956,
P,left,Pretarget,0,2,2,2,2048.8377923186563,2050.838306564023,left,1,4,0.5733739596798841,T02R04,2022-11-11_09h01.36.781,t1_Paradigm,2021.1.4,59.95758791604956,
H,left,Distractor,0,3,3,3,2052.3374745644232,2054.3380584237916,left,1,4,0.7535212013131058,T02R04,2022-11-11_09h01.36.781,t1_Paradigm,2021.1.4,59.95758791604956,
Z,left,Distractor,0,4,4,4,2055.8374715168056,2057.839496418087,left,1,4,0.6924273760751021,T02R04,2022-11-11_09h01.36.781,t1_Paradigm,2021.1.4,59.95758791604956,
T,left,Distractor,0,5,5,5,2059.337825200846,2061.3387532806,left,1,4,0.6650039506748726,T02R04,2022-11-11_09h01.36.781,t1_Paradigm,2021.1.4,59.95758791604956,
P,right,Target,0,6,6,6,2062.83772879989,2064.839015215311,right,1,4,0.9246757254695694,T02R04,2022-11-11_09h01.36.781,t1_Paradigm,2021.1.4,59.95758791604956,
G,left,Distractor,0,7,7,7,2066.337525251116,2068.3384222130903,left,1,4,1.0092974792351015,T02R04,2022-11-11_09h01.36.781,t1_Paradigm,2021.1.4,59.95758791604956,
L,left,Distractor,0,8,8,8,2069.83780162191,2071.8379835165592,left,1,4,0.5820170031397538,T02R04,2022-11-11_09h01.36.781,t1_Paradigm,2021.1.4,59.95758791604956,
P,left,Lure,0,9,9,9,2073.337844769759,2075.338531927323,right,0,4,0.8568254924548455,T02R04,2022-11-11_09h01.36.781,t1_Paradigm,2021.1.4,59.95758791604956,
Q,left,Pretarget,0,10,10,10,2076.8374461734597,2078.8395272150647,left,1,4,0.8442022604340309,T02R04,2022-11-11_09h01.36.781,t1_Paradigm,2021.1.4,59.95758791604956,
D,left,Distractor,0,11,11,11,2080.337808839952,2082.3392226137075,left,1,4,0.5444017029444694,T02R04,2022-11-11_09h01.36.781,t1_Paradigm,2021.1.4,59.95758791604956,
M,left,Pretarget,0,12,12,12,2083.837718213429,2085.83986790663,left,1,4,0.6919076770773245,T02R04,2022-11-11_09h01.36.781,t1_Paradigm,2021.1.4,59.95758791604956,
C,left,Distractor,0,13,13,13,2087.337713561802,2089.3376757071837,left,1,4,0.6818989801386124,T02R04,2022-11-11_09h01.36.781,t1_Paradigm,2021.1.4,59.95758791604956,
Q,right,Target,0,14,14,14,2090.83769928612,2092.8391329495903,right,1,4,0.9405490010390167,T02R04,2022-11-11_09h01.36.781,t1_Paradigm,2021.1.4,59.95758791604956,
R,left,Distractor,0,15,15,15,2094.337743717176,2096.3391854006927,left,1,4,0.7043656961445777,T02R04,2022-11-11_09h01.36.781,t1_Paradigm,2021.1.4,59.95758791604956,
M,right,Target,0,16,16,16,2097.837490444115,2099.839236568588,left,0,4,0.596519492401967,T02R04,2022-11-11_09h01.36.781,t1_Paradigm,2021.1.4,59.95758791604956,
S,left,Distractor,0,17,17,17,2101.337649401432,2103.3384347243623,left,1,4,0.7774911947913097,T02R04,2022-11-11_09h01.36.781,t1_Paradigm,2021.1.4,59.95758791604956,
Z,left,Distractor,0,18,18,18,2104.83746702558,2106.8380175215557,left,1,4,0.5736492076675859,T02R04,2022-11-11_09h01.36.781,t1_Paradigm,2021.1.4,59.95758791604956,
L,left,Pretarget,0,19,19,19,2108.337681481617,2110.3390891601375,left,1,4,0.5928386119676361,T02R04,2022-11-11_09h01.36.781,t1_Paradigm,2021.1.4,59.95758791604956,
M,right,Target,0,20,20,20,2111.837720459042,2113.8397812901303,right,1,4,0.46803770961560076,T02R04,2022-11-11_09h01.36.781,t1_Paradigm,2021.1.4,59.95758791604956,
P,left,Distractor,0,21,21,21,2115.3375746546008,2117.3388982830365,left,1,4,0.5686536812495433,T02R04,2022-11-11_09h01.36.781,t1_Paradigm,2021.1.4,59.95758791604956,
F,left,Distractor,0,22,22,22,2118.8377297622956,2120.8397039768843,left,1,4,0.6198501277917785,T02R04,2022-11-11_09h01.36.781,t1_Paradigm,2021.1.4,59.95758791604956,
L,right,Target,0,23,23,23,2122.3376635167133,2124.3394115659976,left,0,4,0.6402492758702465,T02R04,2022-11-11_09h01.36.781,t1_Paradigm,2021.1.4,59.95758791604956,
L,left,Lure,0,24,24,24,2125.8377089101755,2127.837417301293,left,1,4,0.9502381793340646,T02R04,2022-11-11_09h01.36.781,t1_Paradigm,2021.1.4,59.95758791604956,
V,left,Pretarget,0,25,25,25,2129.33768372723,2131.3392595059204,left,1,4,0.9042117754170249,T02R04,2022-11-11_09h01.36.781,t1_Paradigm,2021.1.4,59.95758791604956,
Z,left,Distractor,0,26,26,26,2132.8374724792116,2134.839490322852,left,1,4,0.6360243154972522,T02R04,2022-11-11_09h01.36.781,t1_Paradigm,2021.1.4,59.95758791604956,
H,left,Distractor,0,27,27,27,2136.3373709454254,2138.340219986661,left,1,4,0.7672463876911024,T02R04,2022-11-11_09h01.36.781,t1_Paradigm,2021.1.4,59.95758791604956,
X,left,Distractor,0,28,28,28,2139.837576739813,2141.838260047755,left,1,4,0.6455306367370213,T02R04,2022-11-11_09h01.36.781,t1_Paradigm,2021.1.4,59.95758791604956,
V,right,Target,0,29,29,29,2143.3377652109,2145.3391953455503,left,0,4,1.0965443545451308,T02R04,2022-11-11_09h01.36.781,t1_Paradigm,2021.1.4,59.95758791604956,
C,left,Distractor,0,30,30,30,2146.837679717207,2148.8396548942014,left,1,4,0.7158529688126691,T02R04,2022-11-11_09h01.36.781,t1_Paradigm,2021.1.4,59.95758791604956,
S,left,Pretarget,0,31,31,31,2150.3376487598284,2152.33843087474,left,1,4,0.6731542424922736,T02R04,2022-11-11_09h01.36.781,t1_Paradigm,2021.1.4,59.95758791604956,
D,left,Distractor,0,32,32,32,2153.837396449173,2155.838520538857,left,1,4,0.5329878939005539,T02R04,2022-11-11_09h01.36.781,t1_Paradigm,2021.1.4,59.95758791604956,
V,left,Distractor,0,33,33,33,2157.337783175804,2159.339965269992,right,0,4,1.2236806943687952,T02R04,2022-11-11_09h01.36.781,t1_Paradigm,2021.1.4,59.95758791604956,
R,left,Distractor,0,34,34,34,2160.837372389034,2162.8384515664593,left,1,4,0.845183914097106,T02R04,2022-11-11_09h01.36.781,t1_Paradigm,2021.1.4,59.95758791604956,
S,right,Target,0,35,35,35,2164.337246153506,2166.3381030152486,left,0,4,0.6255289621512929,T02R04,2022-11-11_09h01.36.781,t1_Paradigm,2021.1.4,59.95758791604956,
Y,left,Distractor,0,36,36,36,2167.8376155568367,2169.8378410805376,left,1,4,0.6138235442253972,T02R04,2022-11-11_09h01.36.781,t1_Paradigm,2021.1.4,59.95758791604956,
N,left,Pretarget,0,37,37,37,2171.337607055588,2173.3394760471697,left,1,4,0.6481175828607775,T02R04,2022-11-11_09h01.36.781,t1_Paradigm,2021.1.4,59.95758791604956,
Z,left,Pretarget,0,38,38,38,2174.8376659227274,2176.8397273954197,left,1,4,0.49200481587740796,T02R04,2022-11-11_09h01.36.781,t1_Paradigm,2021.1.4,59.95758791604956,
P,left,Pretarget,0,39,39,39,2178.337301973028,2180.337756228448,left,1,4,0.4337125532006212,T02R04,2022-11-11_09h01.36.781,t1_Paradigm,2021.1.4,59.95758791604956,
M,left,Distractor,0,40,40,40,2181.837664318718,2183.8392115460438,left,1,4,0.5646167107611291,T02R04,2022-11-11_09h01.36.781,t1_Paradigm,2021.1.4,59.95758791604956,
N,right,Target,0,41,41,41,2185.337489962912,2187.350422768719,left,0,4,0.6691856027978247,T02R04,2022-11-11_09h01.36.781,t1_Paradigm,2021.1.4,59.95758791604956,
Z,right,Target,0,42,42,42,2188.8375837974536,2190.8395660320884,None,0,4,,T02R04,2022-11-11_09h01.36.781,t1_Paradigm,2021.1.4,59.95758791604956,
P,right,Target,0,43,43,43,2192.337774193352,2194.339478934386,left,0,4,0.7360990944084733,T02R04,2022-11-11_09h01.36.781,t1_Paradigm,2021.1.4,59.95758791604956,
X,left,Pretarget,0,44,44,44,2195.837369501817,2197.8383960677393,left,1,4,0.5169802023556258,T02R04,2022-11-11_09h01.36.781,t1_Paradigm,2021.1.4,59.95758791604956,
Z,left,Lure,0,45,45,45,2199.337716449019,2201.33857298996,left,1,4,0.44106051958988246,T02R04,2022-11-11_09h01.36.781,t1_Paradigm,2021.1.4,59.95758791604956,
R,left,Pretarget,0,46,46,46,2202.837382654693,2204.8383312657656,left,1,4,0.7973257316125455,T02R04,2022-11-11_09h01.36.781,t1_Paradigm,2021.1.4,59.95758791604956,
K,left,Distractor,0,47,47,47,2206.337644910206,2208.338936137655,left,1,4,0.6086191758022323,T02R04,2022-11-11_09h01.36.781,t1_Paradigm,2021.1.4,59.95758791604956,
X,right,Target,0,48,48,48,2209.837653411455,2211.8379190353876,right,1,4,0.9015853706659982,T02R04,2022-11-11_09h01.36.781,t1_Paradigm,2021.1.4,59.95758791604956,
B,left,Distractor,0,49,49,49,2213.3376631959113,2215.3391536413096,left,1,4,0.5843341549066281,T02R04,2022-11-11_09h01.36.781,t1_Paradigm,2021.1.4,59.95758791604956,
R,right,Target,0,50,50,50,2216.8376248600903,2218.8385651303147,left,0,4,0.557027501380162,T02R04,2022-11-11_09h01.36.781,t1_Paradigm,2021.1.4,59.95758791604956,
Y,left,Pretarget,0,51,51,51,2220.3377090705762,2222.3400037662136,right,0,4,0.9277028117321606,T02R04,2022-11-11_09h01.36.781,t1_Paradigm,2021.1.4,59.95758791604956,
W,left,Pretarget,0,52,52,52,2223.837637692164,2225.839580468172,left,1,4,0.6758762461950028,T02R04,2022-11-11_09h01.36.781,t1_Paradigm,2021.1.4,59.95758791604956,
Z,left,Distractor,0,53,53,53,2227.3373375820333,2229.339454874247,left,1,4,0.7919628870754423,T02R04,2022-11-11_09h01.36.781,t1_Paradigm,2021.1.4,59.95758791604956,
Q,left,Distractor,0,54,54,54,2230.8375886094814,2232.8394608090816,left,1,4,0.6360095586119314,T02R04,2022-11-11_09h01.36.781,t1_Paradigm,2021.1.4,59.95758791604956,
Y,right,Target,0,55,55,55,2234.3374036672144,2236.3390070348637,right,1,4,1.3926932245685748,T02R04,2022-11-11_09h01.36.781,t1_Paradigm,2021.1.4,59.95758791604956,
W,right,Target,0,56,56,56,2237.8374445694503,2239.839163746568,right,1,4,1.1082879478913128,T02R04,2022-11-11_09h01.36.781,t1_Paradigm,2021.1.4,59.95758791604956,
H,left,Pretarget,0,57,57,57,2241.337397251177,2243.337986884979,left,1,4,0.8732832689966017,T02R04,2022-11-11_09h01.36.781,t1_Paradigm,2021.1.4,59.95758791604956,
M,left,Distractor,0,58,58,58,2244.8373784842693,2246.839589450624,left,1,4,0.6198892656170756,T02R04,2022-11-11_09h01.36.781,t1_Paradigm,2021.1.4,59.95758791604956,
R,left,Pretarget,0,59,59,59,2248.337325712365,2250.3396345232836,left,1,4,0.6559663209386599,T02R04,2022-11-11_09h01.36.781,t1_Paradigm,2021.1.4,59.95758791604956,
J,left,Distractor,0,60,60,60,2251.8373967699745,2253.839663555851,left,1,4,0.723925947384032,T02R04,2022-11-11_09h01.36.781,t1_Paradigm,2021.1.4,59.95758791604956,
H,right,Target,0,61,61,61,2255.3373234667515,2257.339019225334,right,1,4,0.5045494514452002,T02R04,2022-11-11_09h01.36.781,t1_Paradigm,2021.1.4,59.95758791604956,
Z,left,Distractor,0,62,62,62,2258.837452268695,2260.8392763480174,left,1,4,0.7001692871367595,T02R04,2022-11-11_09h01.36.781,t1_Paradigm,2021.1.4,59.95758791604956,
R,right,Target,0,63,63,63,2262.3375945443154,2264.338922663977,right,1,4,1.184542226987105,T02R04,2022-11-11_09h01.36.781,t1_Paradigm,2021.1.4,59.95758791604956,
J,left,Pretarget,0,0,0,0,2270.769764361417,2272.773264630409,left,1,4,0.8141806608455227,T02R04,2022-11-11_09h01.36.781,t1_Paradigm,2021.1.4,59.95758791604956,
G,left,Pretarget,0,1,1,1,2274.2707570827433,2276.2715427264757,left,1,4,0.5800639614731153,T02R04,2022-11-11_09h01.36.781,t1_Paradigm,2021.1.4,59.95758791604956,
Z,left,Distractor,0,2,2,2,2277.7708736942163,2279.7727025855665,left,1,4,0.6949498410267552,T02R04,2022-11-11_09h01.36.781,t1_Paradigm,2021.1.4,59.95758791604956,
F,left,Distractor,0,3,3,3,2281.2707785764674,2283.2723315782264,left,1,4,0.5392050337659384,T02R04,2022-11-11_09h01.36.781,t1_Paradigm,2021.1.4,59.95758791604956,
J,right,Target,0,4,4,4,2284.770492581618,2286.772998685675,left,0,4,0.7823853478244018,T02R04,2022-11-11_09h01.36.781,t1_Paradigm,2021.1.4,59.95758791604956,
G,right,Target,0,5,5,5,2288.2707144160972,2290.272798986523,right,1,4,0.6747842366953591,T02R04,2022-11-11_09h01.36.781,t1_Paradigm,2021.1.4,59.95758791604956,
H,left,Distractor,0,6,6,6,2291.770933684162,2293.7727394777794,right,0,4,1.1908549658037373,T02R04,2022-11-11_09h01.36.781,t1_Paradigm,2021.1.4,59.95758791604956,
P,left,Distractor,0,7,7,7,2295.2706473685107,2297.2727656231305,left,1,4,0.8586300028646292,T02R04,2022-11-11_09h01.36.781,t1_Paradigm,2021.1.4,59.95758791604956,
G,left,Lure,0,8,8,8,2298.7708531628978,2300.7727199088667,left,1,4,0.6388322940956641,T02R04,2022-11-11_09h01.36.781,t1_Paradigm,2021.1.4,59.95758791604956,
S,left,Distractor,0,9,9,9,2302.2707695940157,2304.2728301043026,left,1,4,0.9148011237048195,T02R04,2022-11-11_09h01.36.781,t1_Paradigm,2021.1.4,59.95758791604956,
R,left,Pretarget,0,10,10,10,2305.770854446105,2307.773267196824,left,1,4,0.6144067619898124,T02R04,2022-11-11_09h01.36.781,t1_Paradigm,2021.1.4,59.95758791604956,
T,left,Pretarget,0,11,11,11,2309.2710217442705,2311.2729269864612,left,1,4,0.6186086246293598,T02R04,2022-11-11_09h01.36.781,t1_Paradigm,2021.1.4,59.95758791604956,
X,left,Distractor,0,12,12,12,2312.7706667770226,2314.771528771595,left,1,4,0.6240244014720702,T02R04,2022-11-11_09h01.36.781,t1_Paradigm,2021.1.4,59.95758791604956,
F,left,Pretarget,0,13,13,13,2316.2708603809397,2318.2727232772863,left,1,4,0.8505300769379573,T02R04,2022-11-11_09h01.36.781,t1_Paradigm,2021.1.4,59.95758791604956,
R,right,Target,0,14,14,14,2319.770591067786,2321.7727333825446,right,1,4,0.9826834369041535,T02R04,2022-11-11_09h01.36.781,t1_Paradigm,2021.1.4,59.95758791604956,
T,right,Target,0,15,15,15,2323.2709117092354,2325.2716485910864,right,1,4,0.9235785831401699,T02R04,2022-11-11_09h01.36.781,t1_Paradigm,2021.1.4,59.95758791604956,
C,left,Distractor,0,16,16,16,2326.770829744363,2328.7718848616496,left,1,4,0.5117986108639343,T02R04,2022-11-11_09h01.36.781,t1_Paradigm,2021.1.4,59.95758791604956,
F,right,Target,0,17,17,17,2330.2705896241773,2332.2720954680644,left,0,4,0.6914206998681038,T02R04,2022-11-11_09h01.36.781,t1_Paradigm,2021.1.4,59.95758791604956,
M,left,Distractor,0,18,18,18,2333.7708631077553,2335.772042054556,left,1,4,0.5193743465665648,T02R04,2022-11-11_09h01.36.781,t1_Paradigm,2021.1.4,59.95758791604956,
N,left,Distractor,0,19,19,19,2337.270997042528,2339.2725529315035,left,1,4,0.7790438757483571,T02R04,2022-11-11_09h01.36.781,t1_Paradigm,2021.1.4,59.95758791604956,
R,left,Lure,0,20,20,20,2340.770963197933,2342.771587799136,right,0,4,0.8799678171581036,T02R04,2022-11-11_09h01.36.781,t1_Paradigm,2021.1.4,59.95758791604956,
F,right,Target,0,21,21,21,2344.2706066266755,2346.2714856237462,right,1,4,1.0121282347654414,T02R04,2022-11-11_09h01.36.781,t1_Paradigm,2021.1.4,59.95758791604956,
P,left,Distractor,0,22,22,22,2347.770992711703,2349.772728249715,left,1,4,0.7268247129063639,T02R04,2022-11-11_09h01.36.781,t1_Paradigm,2021.1.4,59.95758791604956,
L,left,Pretarget,0,23,23,23,2351.270889573908,2353.27264243522,left,1,4,0.6028203615501297,T02R04,2022-11-11_09h01.36.781,t1_Paradigm,2021.1.4,59.95758791604956,
T,left,Distractor,0,24,24,24,2354.770769433615,2356.7714055836846,left,1,4,0.6720673658223859,T02R04,2022-11-11_09h01.36.781,t1_Paradigm,2021.1.4,59.95758791604956,
F,left,Distractor,0,25,25,25,2358.270603418657,2360.272777813601,left,1,4,1.027188277643745,T02R04,2022-11-11_09h01.36.781,t1_Paradigm,2021.1.4,59.95758791604956,
V,left,Distractor,0,26,26,26,2361.770640150469,2363.7713045311016,left,1,4,0.5840050122083085,T02R04,2022-11-11_09h01.36.781,t1_Paradigm,2021.1.4,59.95758791604956,
L,right,Target,0,27,27,27,2365.2710586364833,2367.270921974895,left,0,4,0.5245382939565388,T02R04,2022-11-11_09h01.36.781,t1_Paradigm,2021.1.4,59.95758791604956,
S,left,Pretarget,0,28,28,28,2368.7705628372228,2370.7729871368083,left,1,4,0.622547108949675,T02R04,2022-11-11_09h01.36.781,t1_Paradigm,2021.1.4,59.95758791604956,
W,left,Distractor,0,29,29,29,2372.270823488727,2374.27229917724,left,1,4,0.6752314344748811,T02R04,2022-11-11_09h01.36.781,t1_Paradigm,2021.1.4,59.95758791604956,
Q,left,Distractor,0,30,30,30,2375.770590426182,2377.772858495266,left,1,4,0.5665748852570687,T02R04,2022-11-11_09h01.36.781,t1_Paradigm,2021.1.4,59.95758791604956,
L,right,Target,0,31,31,31,2379.2707875589194,2381.27154176407,right,1,4,0.6363139995683014,T02R04,2022-11-11_09h01.36.781,t1_Paradigm,2021.1.4,59.95758791604956,
S,right,Target,0,32,32,32,2382.7709936741085,2384.7836095276866,left,0,4,0.9318148498537084,T02R04,2022-11-11_09h01.36.781,t1_Paradigm,2021.1.4,59.95758791604956,
Z,left,Pretarget,0,33,33,33,2386.2707580451493,2388.271482415728,left,1,4,0.7879150093240241,T02R04,2022-11-11_09h01.36.781,t1_Paradigm,2021.1.4,59.95758791604956,
F,left,Distractor,0,34,34,34,2389.770820441109,2391.7730772821283,left,1,4,0.5342377379106438,T02R04,2022-11-11_09h01.36.781,t1_Paradigm,2021.1.4,59.95758791604956,
V,left,Distractor,0,35,35,35,2393.270704150438,2395.271637363022,left,1,4,0.5877779627735435,T02R04,2022-11-11_09h01.36.781,t1_Paradigm,2021.1.4,59.95758791604956,
M,left,Distractor,0,36,36,36,2396.770835518796,2398.7724215631456,left,1,4,0.7349993856646506,T02R04,2022-11-11_09h01.36.781,t1_Paradigm,2021.1.4,59.95758791604956,
Z,right,Target,0,37,37,37,2400.270895027539,2402.2718651323357,right,1,4,0.6916462235685685,T02R04,2022-11-11_09h01.36.781,t1_Paradigm,2021.1.4,59.95758791604956,
H,left,Pretarget,0,38,38,38,2403.7709243809086,2405.773393913555,left,1,4,0.7741724996462835,T02R04,2022-11-11_09h01.36.781,t1_Paradigm,2021.1.4,59.95758791604956,
L,left,Distractor,0,39,39,39,2407.270927749328,2409.2729112671705,left,1,4,0.5545582895356347,T02R04,2022-11-11_09h01.36.781,t1_Paradigm,2021.1.4,59.95758791604956,
G,left,Distractor,0,40,40,40,2410.7708217243166,2412.7726682597686,left,1,4,0.5267181425315357,T02R04,2022-11-11_09h01.36.781,t1_Paradigm,2021.1.4,59.95758791604956,
K,left,Distractor,0,41,41,41,2414.2706387068606,2416.2717839694674,left,1,4,0.7396923959377091,T02R04,2022-11-11_09h01.36.781,t1_Paradigm,2021.1.4,59.95758791604956,
H,right,Target,0,42,42,42,2417.7707546767297,2419.7728251318736,right,1,4,0.4703231019998384,T02R04,2022-11-11_09h01.36.781,t1_Paradigm,2021.1.4,59.95758791604956,
B,left,Distractor,0,43,43,43,2421.2698861057193,2423.2711837492047,left,1,4,0.5562835618889039,T02R04,2022-11-11_09h01.36.781,t1_Paradigm,2021.1.4,59.95758791604956,
Z,left,Distractor,0,44,44,44,2424.7704957896362,2426.771737292798,left,1,4,0.591780286662015,T02R04,2022-11-11_09h01.36.781,t1_Paradigm,2021.1.4,59.95758791604956,
T,left,Pretarget,0,45,45,45,2428.2709264661207,2430.2721012424977,left,1,4,0.6432670588792462,T02R04,2022-11-11_09h01.36.781,t1_Paradigm,2021.1.4,59.95758791604956,
H,right,Target,0,46,46,46,2431.7706282808003,2433.7727850316423,right,1,4,0.4704071520850448,T02R04,2022-11-11_09h01.36.781,t1_Paradigm,2021.1.4,59.95758791604956,
F,left,Distractor,0,47,47,47,2435.27061432592,2437.272721673277,left,1,4,0.5387433999030691,T02R04,2022-11-11_09h01.36.781,t1_Paradigm,2021.1.4,59.95758791604956,
R,left,Distractor,0,48,48,48,2438.7708310275702,2440.772807487772,left,1,4,0.6227030186491902,T02R04,2022-11-11_09h01.36.781,t1_Paradigm,2021.1.4,59.95758791604956,
T,right,Target,0,49,49,49,2442.2709848520576,2444.2718930420965,left,0,4,0.8035162449245945,T02R04,2022-11-11_09h01.36.781,t1_Paradigm,2021.1.4,59.95758791604956,
H,right,Target,0,50,50,50,2445.770539418688,2447.7727404401853,right,1,4,0.9825849507360545,T02R04,2022-11-11_09h01.36.781,t1_Paradigm,2021.1.4,59.95758791604956,
Y,left,Pretarget,0,51,51,51,2449.270597323422,2451.2723251621896,left,1,4,0.7150137511712273,T02R04,2022-11-11_09h01.36.781,t1_Paradigm,2021.1.4,59.95758791604956,
H,left,Distractor,0,52,52,52,2452.770486807184,2454.771572079845,left,1,4,0.7358122975538208,T02R04,2022-11-11_09h01.36.781,t1_Paradigm,2021.1.4,59.95758791604956,
S,left,Distractor,0,53,53,53,2456.2707404010475,2458.272360771195,left,1,4,0.7071175344194671,T02R04,2022-11-11_09h01.36.781,t1_Paradigm,2021.1.4,59.95758791604956,
Q,left,Distractor,0,54,54,54,2459.7705063760973,2461.7727802196146,left,1,4,0.7906950781616615,T02R04,2022-11-11_09h01.36.781,t1_Paradigm,2021.1.4,59.95758791604956,
Y,right,Target,0,55,55,55,2463.270538616683,2465.2717425860287,left,0,4,0.6036425766933462,T02R04,2022-11-11_09h01.36.781,t1_Paradigm,2021.1.4,59.95758791604956,
R,left,Distractor,0,56,56,56,2466.7705686116565,2468.7725524503007,right,0,4,1.3267546497822877,T02R04,2022-11-11_09h01.36.781,t1_Paradigm,2021.1.4,59.95758791604956,
H,left,Pretarget,0,57,57,57,2470.270810335851,2472.2725721796146,left,1,4,0.8666436330936449,T02R04,2022-11-11_09h01.36.781,t1_Paradigm,2021.1.4,59.95758791604956,
J,left,Distractor,0,58,58,58,2473.770795418565,2475.7714055836846,left,1,4,0.6321974702204898,T02R04,2022-11-11_09h01.36.781,t1_Paradigm,2021.1.4,59.95758791604956,
V,left,Distractor,0,59,59,59,2477.2707827468917,2479.2726427560215,left,1,4,0.6826618469394816,T02R04,2022-11-11_09h01.36.781,t1_Paradigm,2021.1.4,59.95758791604956,
Y,left,Lure,0,60,60,60,2480.7708088922423,2482.7725919089285,left,1,4,1.134771744671525,T02R04,2022-11-11_09h01.36.781,t1_Paradigm,2021.1.4,59.95758791604956,
H,right,Target,0,61,61,61,2484.2705803209237,2486.2713759095136,left,0,4,0.8838761461047397,T02R04,2022-11-11_09h01.36.781,t1_Paradigm,2021.1.4,59.95758791604956,
L,left,Distractor,0,62,62,62,2487.770569894864,2489.7726156482654,left,1,4,0.6789004452407426,T02R04,2022-11-11_09h01.36.781,t1_Paradigm,2021.1.4,59.95758791604956,
P,left,Distractor,0,63,63,63,2491.2705963610165,2493.272622866307,left,1,4,0.6186676521697336,T02R04,2022-11-11_09h01.36.781,t1_Paradigm,2021.1.4,59.95758791604956,
