Letter,CorrAnswer,Stimulus,nback_run.thisRepN,nback_run.thisTrialN,nback_run.thisN,nback_run.thisIndex,fixcross.started,nback_trial.started,trial_resp.keys,trial_resp.corr,currentlevel,trial_resp.rt,Participant,date,expName,psychopyVersion,frameRate,
H,left,Distractor,0,0,0,0,381.06937896511954,383.01602279493454,None,0,1,,T14G09,2022-12-09_16h19.32.568,t1_Paradigm,2021.1.4,60.022027957645406,
Q,left,Pretarget,0,1,1,1,384.51353561419455,386.51635546698526,left,1,1,0.949116895248153,T14G09,2022-12-09_16h19.32.568,t1_Paradigm,2021.1.4,60.022027957645406,
Q,right,Target,0,2,2,2,388.01360651151845,390.01349198507523,right,1,1,0.7164196916201035,T14G09,2022-12-09_16h19.32.568,t1_Paradigm,2021.1.4,60.022027957645406,
T,left,Distractor,0,3,3,3,391.5135291981496,393.5153722077375,left,1,1,0.8303388571221149,T14G09,2022-12-09_16h19.32.568,t1_Paradigm,2021.1.4,60.022027957645406,
Q,left,Lure,0,4,4,4,395.01349487229527,397.01563366166374,left,1,1,0.6258328029398399,T14G09,2022-12-09_16h19.32.568,t1_Paradigm,2021.1.4,60.022027957645406,
L,left,Distractor,0,5,5,5,398.51352149889135,400.5154148744514,left,1,1,0.6944408799754456,T14G09,2022-12-09_16h19.32.568,t1_Paradigm,2021.1.4,60.022027957645406,
V,left,Pretarget,0,6,6,6,402.0135933586207,404.01589960682395,left,1,1,0.5535935639345553,T14G09,2022-12-09_16h19.32.568,t1_Paradigm,2021.1.4,60.022027957645406,
V,right,Target,0,7,7,7,405.5136199852168,407.51346311286034,right,1,1,0.8481831678836897,T14G09,2022-12-09_16h19.32.568,t1_Paradigm,2021.1.4,60.022027957645406,
K,left,Distractor,0,8,8,8,409.03013296616336,411.015331145034,left,1,1,0.7222926205213298,T14G09,2022-12-09_16h19.32.568,t1_Paradigm,2021.1.4,60.022027957645406,
G,left,Pretarget,0,9,9,9,412.5135696192483,414.51556500995866,left,1,1,0.7578904549736762,T14G09,2022-12-09_16h19.32.568,t1_Paradigm,2021.1.4,60.022027957645406,
G,right,Target,0,10,10,10,416.0134926266801,418.01356897764344,right,1,1,0.7000873224060342,T14G09,2022-12-09_16h19.32.568,t1_Paradigm,2021.1.4,60.022027957645406,
G,right,Target,0,11,11,11,419.51345380959174,421.5134804361878,right,1,1,0.6400145131010504,T14G09,2022-12-09_16h19.32.568,t1_Paradigm,2021.1.4,60.022027957645406,
P,left,Pretarget,0,12,12,12,423.01351444124157,425.0153337114534,left,1,1,0.4821762205901905,T14G09,2022-12-09_16h19.32.568,t1_Paradigm,2021.1.4,60.022027957645406,
P,right,Target,0,13,13,13,426.5135375390091,428.5134926266801,right,1,1,0.5839087458443828,T14G09,2022-12-09_16h19.32.568,t1_Paradigm,2021.1.4,60.022027957645406,
G,left,Lure,0,14,14,14,430.0135558247457,432.0151027337488,left,1,1,0.5544391989678843,T14G09,2022-12-09_16h19.32.568,t1_Paradigm,2021.1.4,60.022027957645406,
Y,left,Distractor,0,15,15,15,433.5135981706553,435.51558137087704,left,1,1,0.6379629819748516,T14G09,2022-12-09_16h19.32.568,t1_Paradigm,2021.1.4,60.022027957645406,
B,left,Distractor,0,16,16,16,437.01356224079063,439.01557078440237,left,1,1,0.5461076407445944,T14G09,2022-12-09_16h19.32.568,t1_Paradigm,2021.1.4,60.022027957645406,
T,left,Pretarget,0,17,17,17,440.51367420081806,442.51559612778874,left,1,1,0.3421466297804727,T14G09,2022-12-09_16h19.32.568,t1_Paradigm,2021.1.4,60.022027957645406,
T,right,Target,0,18,18,18,444.013491664271,446.0136700303883,right,1,1,0.667848930315813,T14G09,2022-12-09_16h19.32.568,t1_Paradigm,2021.1.4,60.022027957645406,
S,left,Distractor,0,19,19,19,447.5135593535706,449.51619763222334,left,1,1,0.3972736290197645,T14G09,2022-12-09_16h19.32.568,t1_Paradigm,2021.1.4,60.022027957645406,
T,left,Lure,0,20,20,20,451.0136751632235,453.0156400777123,left,1,1,0.5143167679561884,T14G09,2022-12-09_16h19.32.568,t1_Paradigm,2021.1.4,60.022027957645406,
J,left,Distractor,0,21,21,21,454.51357507288776,456.5156189047557,left,1,1,0.485947252393089,T14G09,2022-12-09_16h19.32.568,t1_Paradigm,2021.1.4,60.022027957645406,
P,left,Distractor,0,22,22,22,458.01358918819096,460.0151733102721,left,1,1,0.5703522794938181,T14G09,2022-12-09_16h19.32.568,t1_Paradigm,2021.1.4,60.022027957645406,
F,left,Distractor,0,23,23,23,461.51350257155354,463.5154639572138,left,1,1,0.47829547437504516,T14G09,2022-12-09_16h19.32.568,t1_Paradigm,2021.1.4,60.022027957645406,
L,left,Distractor,0,24,24,24,465.0134942306904,467.0161568903204,left,1,1,0.4333568374531751,T14G09,2022-12-09_16h19.32.568,t1_Paradigm,2021.1.4,60.022027957645406,
W,left,Pretarget,0,25,25,25,468.5135907922013,470.51583191752434,left,1,1,0.4217947994111455,T14G09,2022-12-09_16h19.32.568,t1_Paradigm,2021.1.4,60.022027957645406,
W,right,Target,0,26,26,26,472.01353048135934,474.0135195740768,left,0,1,0.3963843648634793,T14G09,2022-12-09_16h19.32.568,t1_Paradigm,2021.1.4,60.022027957645406,
V,left,Distractor,0,27,27,27,475.51358469695697,477.5156275664194,left,1,1,0.4620984837602009,T14G09,2022-12-09_16h19.32.568,t1_Paradigm,2021.1.4,60.022027957645406,
W,left,Lure,0,28,28,28,479.0136331381145,481.0152916863444,right,0,1,0.5146917859201494,T14G09,2022-12-09_16h19.32.568,t1_Paradigm,2021.1.4,60.022027957645406,
R,left,Pretarget,0,29,29,29,482.5135205364859,484.51499847297964,left,1,1,0.5345138432639942,T14G09,2022-12-09_16h19.32.568,t1_Paradigm,2021.1.4,60.022027957645406,
R,right,Target,0,30,30,30,486.0135314437648,488.0136068323227,right,1,1,0.4279657537044841,T14G09,2022-12-09_16h19.32.568,t1_Paradigm,2021.1.4,60.022027957645406,
G,left,Distractor,0,31,31,31,489.5136209476259,491.51555763150463,left,1,1,0.622012367570278,T14G09,2022-12-09_16h19.32.568,t1_Paradigm,2021.1.4,60.022027957645406,
R,left,Lure,0,32,32,32,493.01357699770233,495.0153943430996,left,1,1,0.6261914599854208,T14G09,2022-12-09_16h19.32.568,t1_Paradigm,2021.1.4,60.022027957645406,
S,left,Distractor,0,33,33,33,496.51345990483605,498.51578668439106,left,1,1,0.4218615263016545,T14G09,2022-12-09_16h19.32.568,t1_Paradigm,2021.1.4,60.022027957645406,
R,left,Lure,0,34,34,34,500.013545559068,502.01581908543085,left,1,1,0.8257902003861091,T14G09,2022-12-09_16h19.32.568,t1_Paradigm,2021.1.4,60.022027957645406,
P,left,Pretarget,0,35,35,35,503.51358790498125,505.51270505687353,left,1,1,0.5610390660294797,T14G09,2022-12-09_16h19.32.568,t1_Paradigm,2021.1.4,60.022027957645406,
P,right,Target,0,36,36,36,507.01365559428086,509.0135837345515,right,1,1,0.4199976645577408,T14G09,2022-12-09_16h19.32.568,t1_Paradigm,2021.1.4,60.022027957645406,
Y,left,Pretarget,0,37,37,37,510.51371494271734,512.5156301328389,left,1,1,0.4699661617669335,T14G09,2022-12-09_16h19.32.568,t1_Paradigm,2021.1.4,60.022027957645406,
Y,right,Target,0,38,38,38,514.0136347421285,516.013605549113,right,1,1,0.6359675912608509,T14G09,2022-12-09_16h19.32.568,t1_Paradigm,2021.1.4,60.022027957645406,
J,left,Distractor,0,39,39,39,517.5136389125582,519.5158088197568,left,1,1,0.573619330782094,T14G09,2022-12-09_16h19.32.568,t1_Paradigm,2021.1.4,60.022027957645406,
Y,left,Lure,0,40,40,40,521.013624797255,523.0128683452749,left,1,1,0.5809544768599153,T14G09,2022-12-09_16h19.32.568,t1_Paradigm,2021.1.4,60.022027957645406,
T,left,Distractor,0,41,41,41,524.513505137973,526.5154665236332,left,1,1,0.5822803530354577,T14G09,2022-12-09_16h19.32.568,t1_Paradigm,2021.1.4,60.022027957645406,
V,left,Distractor,0,42,42,42,528.0136148523816,530.0155332505237,left,1,1,0.5380933560554695,T14G09,2022-12-09_16h19.32.568,t1_Paradigm,2021.1.4,60.022027957645406,
N,left,Pretarget,0,43,43,43,531.5136742008181,533.5156195463605,left,1,1,0.3981859909436025,T14G09,2022-12-09_16h19.32.568,t1_Paradigm,2021.1.4,60.022027957645406,
N,right,Target,0,44,44,44,535.0138118250325,537.0137483061626,left,0,1,0.5640279816652765,T14G09,2022-12-09_16h19.32.568,t1_Paradigm,2021.1.4,60.022027957645406,
N,right,Target,0,45,45,45,538.5136539902669,540.5135660904198,right,1,1,0.744163642571948,T14G09,2022-12-09_16h19.32.568,t1_Paradigm,2021.1.4,60.022027957645406,
X,left,Distractor,0,46,46,46,542.012482420032,544.015590353345,left,1,1,0.45816223874135176,T14G09,2022-12-09_16h19.32.568,t1_Paradigm,2021.1.4,60.022027957645406,
Z,left,Distractor,0,47,47,47,545.5136199852168,547.5156657418993,left,1,1,0.4301610042894026,T14G09,2022-12-09_16h19.32.568,t1_Paradigm,2021.1.4,60.022027957645406,
H,left,Pretarget,0,48,48,48,549.0136613687246,551.0157331103983,left,1,1,0.530009457252163,T14G09,2022-12-09_16h19.32.568,t1_Paradigm,2021.1.4,60.022027957645406,
H,right,Target,0,49,49,49,552.5134178797271,554.5137191131471,right,1,1,0.6960288516820583,T14G09,2022-12-09_16h19.32.568,t1_Paradigm,2021.1.4,60.022027957645406,
K,left,Distractor,0,50,50,50,556.0134884562467,558.0138734190878,left,1,1,0.5238583927057334,T14G09,2022-12-09_16h19.32.568,t1_Paradigm,2021.1.4,60.022027957645406,
V,left,Pretarget,0,51,51,51,559.5137130179028,561.51572541114,left,1,1,0.6219433950645907,T14G09,2022-12-09_16h19.32.568,t1_Paradigm,2021.1.4,60.022027957645406,
V,right,Target,0,52,52,52,563.0136758048284,565.0137354740691,left,0,1,0.7879066490786499,T14G09,2022-12-09_16h19.32.568,t1_Paradigm,2021.1.4,60.022027957645406,
R,left,Distractor,0,53,53,53,566.5137194339513,568.5157773811225,left,1,1,0.48587090142973466,T14G09,2022-12-09_16h19.32.568,t1_Paradigm,2021.1.4,60.022027957645406,
V,left,Lure,0,54,54,54,570.0136892785304,572.0162021234537,left,1,1,0.6654355341233895,T14G09,2022-12-09_16h19.32.568,t1_Paradigm,2021.1.4,60.022027957645406,
Y,left,Distractor,0,55,55,55,573.5137184715422,575.5156570802355,left,1,1,0.5739725341845769,T14G09,2022-12-09_16h19.32.568,t1_Paradigm,2021.1.4,60.022027957645406,
Q,left,Distractor,0,56,56,56,577.0134910226661,579.0150745031424,left,1,1,0.5150568590106559,T14G09,2022-12-09_16h19.32.568,t1_Paradigm,2021.1.4,60.022027957645406,
Z,left,Pretarget,0,57,57,57,580.513603945099,582.5142702516132,left,1,1,0.4714954266419227,T14G09,2022-12-09_16h19.32.568,t1_Paradigm,2021.1.4,60.022027957645406,
Z,right,Target,0,58,58,58,584.0137903312752,586.0138294691642,right,1,1,0.47598377253234503,T14G09,2022-12-09_16h19.32.568,t1_Paradigm,2021.1.4,60.022027957645406,
B,left,Distractor,0,59,59,59,587.5137441357328,589.5156051102531,left,1,1,0.7021192845822952,T14G09,2022-12-09_16h19.32.568,t1_Paradigm,2021.1.4,60.022027957645406,
S,left,Pretarget,0,60,60,60,591.0136780504472,593.0150498013609,left,1,1,1.186632871205802,T14G09,2022-12-09_16h19.32.568,t1_Paradigm,2021.1.4,60.022027957645406,
S,right,Target,0,61,61,61,594.5138384516285,596.5135532583263,right,1,1,0.6000127037732454,T14G09,2022-12-09_16h19.32.568,t1_Paradigm,2021.1.4,60.022027957645406,
T,left,Distractor,0,62,62,62,598.0136273636708,600.0154559371549,left,1,1,0.37843451012304286,T14G09,2022-12-09_16h19.32.568,t1_Paradigm,2021.1.4,60.022027957645406,
D,left,Distractor,0,63,63,63,601.5137226419756,603.5156035062428,left,1,1,0.4622383535897825,T14G09,2022-12-09_16h19.32.568,t1_Paradigm,2021.1.4,60.022027957645406,
R,left,Distractor,0,0,0,0,615.4587124147947,617.4488833511277,None,0,1,,T14G09,2022-12-09_16h19.32.568,t1_Paradigm,2021.1.4,60.022027957645406,
V,left,Distractor,0,1,1,1,618.9470355295052,620.9489218474118,left,1,1,0.6768269053100084,T14G09,2022-12-09_16h19.32.568,t1_Paradigm,2021.1.4,60.022027957645406,
N,left,Pretarget,0,2,2,2,622.4470419455502,624.4492330257053,left,1,1,0.5846773883095011,T14G09,2022-12-09_16h19.32.568,t1_Paradigm,2021.1.4,60.022027957645406,
N,right,Target,0,3,3,3,625.9470239806178,627.9471587176122,None,0,1,,T14G09,2022-12-09_16h19.32.568,t1_Paradigm,2021.1.4,60.022027957645406,
S,left,Distractor,0,4,4,4,629.447070817765,631.4492407249636,left,1,1,1.1525100860271777,T14G09,2022-12-09_16h19.32.568,t1_Paradigm,2021.1.4,60.022027957645406,
N,left,Lure,0,5,5,5,632.9471436398999,634.94917143165,left,1,1,1.2046077485319984,T14G09,2022-12-09_16h19.32.568,t1_Paradigm,2021.1.4,60.022027957645406,
Z,left,Distractor,0,6,6,6,636.4470704969608,638.4485840425223,left,1,1,0.7771819052068167,T14G09,2022-12-09_16h19.32.568,t1_Paradigm,2021.1.4,60.022027957645406,
L,left,Pretarget,0,7,7,7,639.9470791586245,641.9485570951219,left,1,1,0.6372180788821424,T14G09,2022-12-09_16h19.32.568,t1_Paradigm,2021.1.4,60.022027957645406,
L,right,Target,0,8,8,8,643.4470858954737,645.4471705873002,left,0,1,1.0267241202345758,T14G09,2022-12-09_16h19.32.568,t1_Paradigm,2021.1.4,60.022027957645406,
H,left,Distractor,0,9,9,9,646.9471205421323,648.9494409056388,left,1,1,1.028468001888541,T14G09,2022-12-09_16h19.32.568,t1_Paradigm,2021.1.4,60.022027957645406,
L,left,Lure,0,10,10,10,650.447132732621,652.4488727646494,left,1,1,0.7450301297576516,T14G09,2022-12-09_16h19.32.568,t1_Paradigm,2021.1.4,60.022027957645406,
X,left,Pretarget,0,11,11,11,653.9470849330683,655.9598666617057,left,1,1,0.6741321654444619,T14G09,2022-12-09_16h19.32.568,t1_Paradigm,2021.1.4,60.022027957645406,
X,right,Target,0,12,12,12,657.4469110581849,659.4462453932792,left,0,1,1.0276486726506846,T14G09,2022-12-09_16h19.32.568,t1_Paradigm,2021.1.4,60.022027957645406,
X,right,Target,0,13,13,13,660.947096481952,662.9470878202883,right,1,1,0.39078090995099046,T14G09,2022-12-09_16h19.32.568,t1_Paradigm,2021.1.4,60.022027957645406,
R,left,Distractor,0,14,14,14,664.4470534944376,666.4491274817265,left,1,1,0.5848002556158463,T14G09,2022-12-09_16h19.32.568,t1_Paradigm,2021.1.4,60.022027957645406,
T,left,Distractor,0,15,15,15,667.9469601409473,669.9487178171075,left,1,1,0.6371064396589645,T14G09,2022-12-09_16h19.32.568,t1_Paradigm,2021.1.4,60.022027957645406,
V,left,Pretarget,0,16,16,16,671.4469678402056,673.4493834820132,left,1,1,0.640141871637752,T14G09,2022-12-09_16h19.32.568,t1_Paradigm,2021.1.4,60.022027957645406,
V,right,Target,0,17,17,17,674.947070817765,676.9471407526798,left,0,1,0.6946577423732379,T14G09,2022-12-09_16h19.32.568,t1_Paradigm,2021.1.4,60.022027957645406,
N,left,Distractor,0,18,18,18,678.4471096348498,680.4489680429506,left,1,1,0.5528185054208734,T14G09,2022-12-09_16h19.32.568,t1_Paradigm,2021.1.4,60.022027957645406,
B,left,Distractor,0,19,19,19,681.9472581663467,683.9489228098173,left,1,1,0.7010513335117139,T14G09,2022-12-09_16h19.32.568,t1_Paradigm,2021.1.4,60.022027957645406,
V,left,Lure,0,20,20,20,685.4470926323265,687.4492618979202,left,1,1,0.6403766989715223,T14G09,2022-12-09_16h19.32.568,t1_Paradigm,2021.1.4,60.022027957645406,
P,left,Distractor,0,21,21,21,688.9471481311339,690.9482844131126,left,1,1,0.981913804251235,T14G09,2022-12-09_16h19.32.568,t1_Paradigm,2021.1.4,60.022027957645406,
K,left,Pretarget,0,22,22,22,692.4470791586245,694.4483716713548,left,1,1,0.8575653538609913,T14G09,2022-12-09_16h19.32.568,t1_Paradigm,2021.1.4,60.022027957645406,
K,right,Target,0,23,23,23,695.9470897451029,697.9471208629329,left,0,1,0.7829685382712341,T14G09,2022-12-09_16h19.32.568,t1_Paradigm,2021.1.4,60.022027957645406,
J,left,Pretarget,0,24,24,24,699.4470798002294,701.4489635517202,left,1,1,0.5928616982491803,T14G09,2022-12-09_16h19.32.568,t1_Paradigm,2021.1.4,60.022027957645406,
J,right,Target,0,25,25,25,702.9472328229604,704.9471715497057,left,0,1,0.7266699687897926,T14G09,2022-12-09_16h19.32.568,t1_Paradigm,2021.1.4,60.022027957645406,
H,left,Distractor,0,26,26,26,706.4471574344025,708.4490806445829,left,1,1,0.5367344372389198,T14G09,2022-12-09_16h19.32.568,t1_Paradigm,2021.1.4,60.022027957645406,
J,left,Lure,0,27,27,27,709.9473014746654,711.9493215671573,left,1,1,0.7324950981419533,T14G09,2022-12-09_16h19.32.568,t1_Paradigm,2021.1.4,60.022027957645406,
V,left,Distractor,0,28,28,28,713.4471818153834,715.449357497022,left,1,1,0.576547293967451,T14G09,2022-12-09_16h19.32.568,t1_Paradigm,2021.1.4,60.022027957645406,
Z,left,Pretarget,0,29,29,29,716.9472081211752,718.9488034713395,left,1,1,0.5330240370785759,T14G09,2022-12-09_16h19.32.568,t1_Paradigm,2021.1.4,60.022027957645406,
Z,right,Target,0,30,30,30,720.4471741161251,722.4472607327662,left,0,1,0.5545707279416092,T14G09,2022-12-09_16h19.32.568,t1_Paradigm,2021.1.4,60.022027957645406,
T,left,Distractor,0,31,31,31,723.9469883715574,725.9636431471481,left,1,1,0.5422961878430215,T14G09,2022-12-09_16h19.32.568,t1_Paradigm,2021.1.4,60.022027957645406,
Z,left,Lure,0,32,32,32,727.447217745248,729.4492102487384,left,1,1,0.5771366079134168,T14G09,2022-12-09_16h19.32.568,t1_Paradigm,2021.1.4,60.022027957645406,
F,left,Distractor,0,33,33,33,730.947023339013,732.9602760055241,left,1,1,0.5858091790505568,T14G09,2022-12-09_16h19.32.568,t1_Paradigm,2021.1.4,60.022027957645406,
Y,left,Pretarget,0,34,34,34,734.4463076289358,736.4488974664309,left,1,1,0.9529674860386876,T14G09,2022-12-09_16h19.32.568,t1_Paradigm,2021.1.4,60.022027957645406,
Y,right,Target,0,35,35,35,737.9471686624856,739.9471898354423,left,0,1,0.7026283979394066,T14G09,2022-12-09_16h19.32.568,t1_Paradigm,2021.1.4,60.022027957645406,
Y,right,Target,0,36,36,36,741.4470955195466,743.4472584871473,right,1,1,0.6424211724406632,T14G09,2022-12-09_16h19.32.568,t1_Paradigm,2021.1.4,60.022027957645406,
W,left,Distractor,0,37,37,37,744.9472325021561,746.9492856372926,left,1,1,0.42061135948461015,T14G09,2022-12-09_16h19.32.568,t1_Paradigm,2021.1.4,60.022027957645406,
Q,left,Distractor,0,38,38,38,748.447222236482,750.4494463592782,left,1,1,0.6483977205098199,T14G09,2022-12-09_16h19.32.568,t1_Paradigm,2021.1.4,60.022027957645406,
P,left,Pretarget,0,39,39,39,751.947117334108,753.9488419676236,left,1,1,0.6690596384396486,T14G09,2022-12-09_16h19.32.568,t1_Paradigm,2021.1.4,60.022027957645406,
P,right,Target,0,40,40,40,755.4472337853658,757.4471673792759,left,0,1,0.6907160437112907,T14G09,2022-12-09_16h19.32.568,t1_Paradigm,2021.1.4,60.022027957645406,
J,left,Distractor,0,41,41,41,758.946996070812,760.9485984786261,left,1,1,1.0294689052680042,T14G09,2022-12-09_16h19.32.568,t1_Paradigm,2021.1.4,60.022027957645406,
P,left,Lure,0,42,42,42,762.4472514294976,764.4486004034407,left,1,1,1.0332761877398298,T14G09,2022-12-09_16h19.32.568,t1_Paradigm,2021.1.4,60.022027957645406,
L,left,Distractor,0,43,43,43,765.9470727425796,767.9489038824795,left,1,1,0.845183344965335,T14G09,2022-12-09_16h19.32.568,t1_Paradigm,2021.1.4,60.022027957645406,
Z,left,Distractor,0,44,44,44,769.447216782839,771.4489709301743,left,1,1,0.7849142046143243,T14G09,2022-12-09_16h19.32.568,t1_Paradigm,2021.1.4,60.022027957645406,
F,left,Pretarget,0,45,45,45,772.9471949682811,774.9489744589991,left,1,1,0.564968253398547,T14G09,2022-12-09_16h19.32.568,t1_Paradigm,2021.1.4,60.022027957645406,
F,right,Target,0,46,46,46,776.4471795697646,778.4471782865548,left,0,1,0.7146231983715552,T14G09,2022-12-09_16h19.32.568,t1_Paradigm,2021.1.4,60.022027957645406,
G,left,Pretarget,0,47,47,47,779.9473040410849,781.948944945183,left,1,1,0.5091569827127387,T14G09,2022-12-09_16h19.32.568,t1_Paradigm,2021.1.4,60.022027957645406,
G,right,Target,0,48,48,48,783.4472953794211,785.4472453342496,left,0,1,0.4506384608648659,T14G09,2022-12-09_16h19.32.568,t1_Paradigm,2021.1.4,60.022027957645406,
V,left,Distractor,0,49,49,49,786.947310777934,788.9491306897507,left,1,1,0.5487667715460702,T14G09,2022-12-09_16h19.32.568,t1_Paradigm,2021.1.4,60.022027957645406,
G,left,Lure,0,50,50,50,790.4472623367765,792.4489619477063,left,1,1,0.457080813965149,T14G09,2022-12-09_16h19.32.568,t1_Paradigm,2021.1.4,60.022027957645406,
Q,left,Pretarget,0,51,51,51,793.9470836498585,795.9490466395328,left,1,1,0.6688889715842379,T14G09,2022-12-09_16h19.32.568,t1_Paradigm,2021.1.4,60.022027957645406,
Q,right,Target,0,52,52,52,797.4472280109221,799.4472501462878,left,0,1,0.48305489826816483,T14G09,2022-12-09_16h19.32.568,t1_Paradigm,2021.1.4,60.022027957645406,
Y,left,Distractor,0,53,53,53,800.9472174244438,802.9495150109833,left,1,1,0.4684320848537027,T14G09,2022-12-09_16h19.32.568,t1_Paradigm,2021.1.4,60.022027957645406,
V,left,Distractor,0,54,54,54,804.4471789281597,806.4490511307631,left,1,1,0.42503650730941445,T14G09,2022-12-09_16h19.32.568,t1_Paradigm,2021.1.4,60.022027957645406,
B,left,Distractor,0,55,55,55,807.947284151338,809.9484201125124,left,1,1,0.38208652424873435,T14G09,2022-12-09_16h19.32.568,t1_Paradigm,2021.1.4,60.022027957645406,
J,left,Pretarget,0,56,56,56,811.4472414846241,813.4485663983905,left,1,1,0.4654515100810386,T14G09,2022-12-09_16h19.32.568,t1_Paradigm,2021.1.4,60.022027957645406,
J,right,Target,0,57,57,57,814.947247900669,816.9474554598019,left,0,1,0.6306419511965942,T14G09,2022-12-09_16h19.32.568,t1_Paradigm,2021.1.4,60.022027957645406,
H,left,Distractor,0,58,58,58,818.4473544070534,820.449078398964,left,1,1,0.5689529395785939,T14G09,2022-12-09_16h19.32.568,t1_Paradigm,2021.1.4,60.022027957645406,
J,left,Lure,0,59,59,59,821.9463859047137,823.9491399930193,left,1,1,0.5088929623670992,T14G09,2022-12-09_16h19.32.568,t1_Paradigm,2021.1.4,60.022027957645406,
D,left,Pretarget,0,60,60,60,825.4473415749599,827.4489548900565,left,1,1,0.6250898246616998,T14G09,2022-12-09_16h19.32.568,t1_Paradigm,2021.1.4,60.022027957645406,
D,right,Target,0,61,61,61,828.947233143761,830.9474435901138,left,0,1,0.6306294399037142,T14G09,2022-12-09_16h19.32.568,t1_Paradigm,2021.1.4,60.022027957645406,
R,left,Distractor,0,62,62,62,832.4471843818028,834.4494283943459,left,1,1,0.7609355110253091,T14G09,2022-12-09_16h19.32.568,t1_Paradigm,2021.1.4,60.022027957645406,
F,left,Distractor,0,63,63,63,835.9472437302393,837.9489702885694,left,1,1,0.5571021794021362,T14G09,2022-12-09_16h19.32.568,t1_Paradigm,2021.1.4,60.022027957645406,
F,left,Distractor,0,0,0,0,1137.8459093207202,1139.8474106757894,None,0,2,,T14G09,2022-12-09_16h19.32.568,t1_Paradigm,2021.1.4,60.022027957645406,
N,left,Pretarget,0,1,1,1,1141.3475406007492,1143.3498317712401,left,1,2,1.188594256866054,T14G09,2022-12-09_16h19.32.568,t1_Paradigm,2021.1.4,60.022027957645406,
V,left,Distractor,0,2,2,2,1144.8476557687973,1146.8495809037922,left,1,2,1.3527481855417136,T14G09,2022-12-09_16h19.32.568,t1_Paradigm,2021.1.4,60.022027957645406,
N,right,Target,0,3,3,3,1148.3475653025307,1150.349004742744,right,1,2,0.6533342273032758,T14G09,2022-12-09_16h19.32.568,t1_Paradigm,2021.1.4,60.022027957645406,
N,left,Lure,0,4,4,4,1151.8475762098096,1153.847598665976,left,1,2,0.6428324410735513,T14G09,2022-12-09_16h19.32.568,t1_Paradigm,2021.1.4,60.022027957645406,
X,left,Distractor,0,5,5,5,1155.347540279945,1157.3500572953017,left,1,2,1.060431787151174,T14G09,2022-12-09_16h19.32.568,t1_Paradigm,2021.1.4,60.022027957645406,
G,left,Pretarget,0,6,6,6,1158.847514615758,1160.8494221066212,left,1,2,0.7290634752389451,T14G09,2022-12-09_16h19.32.568,t1_Paradigm,2021.1.4,60.022027957645406,
H,left,Pretarget,0,7,7,7,1162.3475781346242,1164.348938336654,left,1,2,0.8295339639880694,T14G09,2022-12-09_16h19.32.568,t1_Paradigm,2021.1.4,60.022027957645406,
G,right,Target,0,8,8,8,1165.8476403702844,1167.8484009926906,right,1,2,0.6260756503324956,T14G09,2022-12-09_16h19.32.568,t1_Paradigm,2021.1.4,60.022027957645406,
H,right,Target,0,9,9,9,1169.3476804705788,1171.349848773767,right,1,2,0.4206270787981339,T14G09,2022-12-09_16h19.32.568,t1_Paradigm,2021.1.4,60.022027957645406,
T,left,Pretarget,0,10,10,10,1172.8476759793448,1174.849418256992,left,1,2,0.6009176872466924,T14G09,2022-12-09_16h19.32.568,t1_Paradigm,2021.1.4,60.022027957645406,
K,left,Distractor,0,11,11,11,1176.3642181533069,1178.3492151890932,left,1,2,0.8931352785075433,T14G09,2022-12-09_16h19.32.568,t1_Paradigm,2021.1.4,60.022027957645406,
T,right,Target,0,12,12,12,1179.8475977035705,1181.8483512683233,right,1,2,1.1380072526990261,T14G09,2022-12-09_16h19.32.568,t1_Paradigm,2021.1.4,60.022027957645406,
T,left,Lure,0,13,13,13,1183.347521031803,1185.3477125508143,left,1,2,1.1747493891925842,T14G09,2022-12-09_16h19.32.568,t1_Paradigm,2021.1.4,60.022027957645406,
J,left,Distractor,0,14,14,14,1186.8475681897507,1188.84959694391,left,1,2,0.9048554721157416,T14G09,2022-12-09_16h19.32.568,t1_Paradigm,2021.1.4,60.022027957645406,
Q,left,Pretarget,0,15,15,15,1190.347560490496,1192.349196582556,left,1,2,0.7495977138351009,T14G09,2022-12-09_16h19.32.568,t1_Paradigm,2021.1.4,60.022027957645406,
M,left,Distractor,0,16,16,16,1193.847468099415,1195.8492443821087,left,1,2,0.5775998465287557,T14G09,2022-12-09_16h19.32.568,t1_Paradigm,2021.1.4,60.022027957645406,
Q,right,Target,0,17,17,17,1197.3474767610787,1199.349661104381,right,1,2,0.4048403944070742,T14G09,2022-12-09_16h19.32.568,t1_Paradigm,2021.1.4,60.022027957645406,
R,left,Distractor,0,18,18,18,1200.8476467863293,1202.8500858467123,left,1,2,0.6322944041785377,T14G09,2022-12-09_16h19.32.568,t1_Paradigm,2021.1.4,60.022027957645406,
W,left,Distractor,0,19,19,19,1204.347589683508,1206.3484651531653,left,1,2,0.6699469777850027,T14G09,2022-12-09_16h19.32.568,t1_Paradigm,2021.1.4,60.022027957645406,
C,left,Pretarget,0,20,20,20,1207.847629783806,1209.8496421770433,left,1,2,0.5288353205978638,T14G09,2022-12-09_16h19.32.568,t1_Paradigm,2021.1.4,60.022027957645406,
T,left,Distractor,0,21,21,21,1211.347590645917,1213.3485344464752,left,1,2,0.6304748131624365,T14G09,2022-12-09_16h19.32.568,t1_Paradigm,2021.1.4,60.022027957645406,
C,right,Target,0,22,22,22,1214.8476082900452,1216.84946830216,left,0,2,0.7612486141370027,T14G09,2022-12-09_16h19.32.568,t1_Paradigm,2021.1.4,60.022027957645406,
F,left,Pretarget,0,23,23,23,1218.3477452726584,1220.3495016656052,left,1,2,1.0369808134528284,T14G09,2022-12-09_16h19.32.568,t1_Paradigm,2021.1.4,60.022027957645406,
C,right,Target,0,24,24,24,1221.8476506359584,1223.8490403518044,right,1,2,1.0574871422395518,T14G09,2022-12-09_16h19.32.568,t1_Paradigm,2021.1.4,60.022027957645406,
F,right,Target,0,25,25,25,1225.3476336334352,1227.3494753598134,right,1,2,0.5970520187438524,T14G09,2022-12-09_16h19.32.568,t1_Paradigm,2021.1.4,60.022027957645406,
H,left,Distractor,0,26,26,26,1228.8477266661212,1230.8495847534177,left,1,2,0.7450156936538406,T14G09,2022-12-09_16h19.32.568,t1_Paradigm,2021.1.4,60.022027957645406,
H,left,Lure,0,27,27,27,1232.3477471974693,1234.3476977939063,right,0,2,0.5908178663812578,T14G09,2022-12-09_16h19.32.568,t1_Paradigm,2021.1.4,60.022027957645406,
P,left,Distractor,0,28,28,28,1235.8476734129254,1237.849436542725,left,1,2,1.2970501580894052,T14G09,2022-12-09_16h19.32.568,t1_Paradigm,2021.1.4,60.022027957645406,
G,left,Pretarget,0,29,29,29,1239.3478427965747,1241.3496421770433,left,1,2,0.8527860402209626,T14G09,2022-12-09_16h19.32.568,t1_Paradigm,2021.1.4,60.022027957645406,
K,left,Distractor,0,30,30,30,1242.847529372666,1244.8494265978516,left,1,2,0.8090590738320316,T14G09,2022-12-09_16h19.32.568,t1_Paradigm,2021.1.4,60.022027957645406,
G,right,Target,0,31,31,31,1246.3476833577988,1248.349119910792,right,1,2,0.845432287605945,T14G09,2022-12-09_16h19.32.568,t1_Paradigm,2021.1.4,60.022027957645406,
M,left,Pretarget,0,32,32,32,1249.8477699744399,1251.8495597308356,left,1,2,0.7048967914597597,T14G09,2022-12-09_16h19.32.568,t1_Paradigm,2021.1.4,60.022027957645406,
B,left,Distractor,0,33,33,33,1253.3476493527487,1255.3492934648712,left,1,2,0.6775480690266704,T14G09,2022-12-09_16h19.32.568,t1_Paradigm,2021.1.4,60.022027957645406,
M,right,Target,0,34,34,34,1256.847648069539,1258.8496755404885,right,1,2,0.45686619718253496,T14G09,2022-12-09_16h19.32.568,t1_Paradigm,2021.1.4,60.022027957645406,
M,left,Lure,0,35,35,35,1260.3476897738474,1262.3476795081733,left,1,2,1.0068157670502842,T14G09,2022-12-09_16h19.32.568,t1_Paradigm,2021.1.4,60.022027957645406,
T,left,Distractor,0,36,36,36,1263.8474138838137,1265.8498500569767,left,1,2,1.2005848868720932,T14G09,2022-12-09_16h19.32.568,t1_Paradigm,2021.1.4,60.022027957645406,
F,left,Distractor,0,37,37,37,1267.3476875282322,1269.3495382370747,left,1,2,1.3970407265042013,T14G09,2022-12-09_16h19.32.568,t1_Paradigm,2021.1.4,60.022027957645406,
X,left,Distractor,0,38,38,38,1270.8476878490328,1272.8495019864095,left,1,2,1.000928402045247,T14G09,2022-12-09_16h19.32.568,t1_Paradigm,2021.1.4,60.022027957645406,
C,left,Distractor,0,39,39,39,1274.347776711289,1276.3638405689235,left,1,2,0.6706023770166212,T14G09,2022-12-09_16h19.32.568,t1_Paradigm,2021.1.4,60.022027957645406,
R,left,Distractor,0,40,40,40,1277.8476515983675,1279.8495472195427,left,1,2,0.5612440587392484,T14G09,2022-12-09_16h19.32.568,t1_Paradigm,2021.1.4,60.022027957645406,
B,left,Pretarget,0,41,41,41,1281.3475944955462,1283.3496874101766,left,1,2,0.5329220219282433,T14G09,2022-12-09_16h19.32.568,t1_Paradigm,2021.1.4,60.022027957645406,
H,left,Distractor,0,42,42,42,1284.8475518288324,1286.8495417659033,left,1,2,0.5529269366197695,T14G09,2022-12-09_16h19.32.568,t1_Paradigm,2021.1.4,60.022027957645406,
B,right,Target,0,43,43,43,1288.3477125508143,1290.3493919511966,left,0,2,0.605087476389599,T14G09,2022-12-09_16h19.32.568,t1_Paradigm,2021.1.4,60.022027957645406,
W,left,Pretarget,0,44,44,44,1291.8466859832479,1293.8493274699213,left,1,2,1.0253023241493793,T14G09,2022-12-09_16h19.32.568,t1_Paradigm,2021.1.4,60.022027957645406,
L,left,Pretarget,0,45,45,45,1295.3476676384853,1297.3493463972627,left,1,2,1.381580939720152,T14G09,2022-12-09_16h19.32.568,t1_Paradigm,2021.1.4,60.022027957645406,
W,right,Target,0,46,46,46,1298.8477391774104,1300.8499241623213,right,1,2,0.44069294594373787,T14G09,2022-12-09_16h19.32.568,t1_Paradigm,2021.1.4,60.022027957645406,
L,right,Target,0,47,47,47,1302.347718325258,1304.3491118907332,left,0,2,0.6533672699442832,T14G09,2022-12-09_16h19.32.568,t1_Paradigm,2021.1.4,60.022027957645406,
W,right,Target,0,48,48,48,1305.847753934322,1307.8494817758583,right,1,2,1.12109294799302,T14G09,2022-12-09_16h19.32.568,t1_Paradigm,2021.1.4,60.022027957645406,
X,left,Distractor,0,49,49,49,1309.3473737835193,1311.34953053782,left,1,2,0.8689628202882886,T14G09,2022-12-09_16h19.32.568,t1_Paradigm,2021.1.4,60.022027957645406,
R,left,Distractor,0,50,50,50,1312.8477504054936,1314.8499094054132,left,1,2,0.6646656084485585,T14G09,2022-12-09_16h19.32.568,t1_Paradigm,2021.1.4,60.022027957645406,
V,left,Pretarget,0,51,51,51,1316.3478440797844,1318.3490406726087,left,1,2,0.9895777727579116,T14G09,2022-12-09_16h19.32.568,t1_Paradigm,2021.1.4,60.022027957645406,
Z,left,Distractor,0,52,52,52,1319.8478315684915,1321.8489303165952,left,1,2,0.4977030550617201,T14G09,2022-12-09_16h19.32.568,t1_Paradigm,2021.1.4,60.022027957645406,
V,right,Target,0,53,53,53,1323.3478245108417,1325.360341577525,right,1,2,0.3942808637548296,T14G09,2022-12-09_16h19.32.568,t1_Paradigm,2021.1.4,60.022027957645406,
V,left,Lure,0,54,54,54,1326.8478180947932,1328.8477446310535,None,0,2,,T14G09,2022-12-09_16h19.32.568,t1_Paradigm,2021.1.4,60.022027957645406,
N,left,Distractor,0,55,55,55,1330.3477215332823,1332.3497515706476,left,1,2,0.8927445412264206,T14G09,2022-12-09_16h19.32.568,t1_Paradigm,2021.1.4,60.022027957645406,
B,left,Distractor,0,56,56,56,1333.8477042099548,1335.8499466184876,left,1,2,0.5607310957566369,T14G09,2022-12-09_16h19.32.568,t1_Paradigm,2021.1.4,60.022027957645406,
V,left,Lure,0,57,57,57,1337.3477577839476,1339.3488501160027,left,1,2,0.7414705067167233,T14G09,2022-12-09_16h19.32.568,t1_Paradigm,2021.1.4,60.022027957645406,
J,left,Distractor,0,58,58,58,1340.847776711289,1342.8493274699213,left,1,2,0.5212550815085706,T14G09,2022-12-09_16h19.32.568,t1_Paradigm,2021.1.4,60.022027957645406,
H,left,Distractor,0,59,59,59,1344.3475880794977,1346.34956293886,left,1,2,0.5251781736333214,T14G09,2022-12-09_16h19.32.568,t1_Paradigm,2021.1.4,60.022027957645406,
X,left,Pretarget,0,60,60,60,1347.847748480679,1349.849771139594,left,1,2,0.5288908194052055,T14G09,2022-12-09_16h19.32.568,t1_Paradigm,2021.1.4,60.022027957645406,
P,left,Distractor,0,61,61,61,1351.3477587463567,1353.3493528133076,left,1,2,0.46918083757554996,T14G09,2022-12-09_16h19.32.568,t1_Paradigm,2021.1.4,60.022027957645406,
X,right,Target,0,62,62,62,1354.8476137436883,1356.8499453352779,right,1,2,0.4247811486275168,T14G09,2022-12-09_16h19.32.568,t1_Paradigm,2021.1.4,60.022027957645406,
Q,left,Distractor,0,63,63,63,1358.3478286812715,1360.3604891466166,left,1,2,0.5301846153452061,T14G09,2022-12-09_16h19.32.568,t1_Paradigm,2021.1.4,60.022027957645406,
B,left,Pretarget,0,0,0,0,1368.2597732440554,1370.2497757591482,None,0,2,,T14G09,2022-12-09_16h19.32.568,t1_Paradigm,2021.1.4,60.022027957645406,
F,left,Distractor,0,1,1,1,1371.747743476164,1373.749608621114,left,1,2,1.141000017963961,T14G09,2022-12-09_16h19.32.568,t1_Paradigm,2021.1.4,60.022027957645406,
B,right,Target,0,2,2,2,1375.2476565387224,1377.2499855638926,right,1,2,0.8723761574547098,T14G09,2022-12-09_16h19.32.568,t1_Paradigm,2021.1.4,60.022027957645406,
V,left,Distractor,0,3,3,3,1378.746791655547,1380.7497353380495,left,1,2,0.6368263791955542,T14G09,2022-12-09_16h19.32.568,t1_Paradigm,2021.1.4,60.022027957645406,
G,left,Pretarget,0,4,4,4,1382.2477729899801,1384.2498193882675,left,1,2,0.5448577947281592,T14G09,2022-12-09_16h19.32.568,t1_Paradigm,2021.1.4,60.022027957645406,
B,left,Lure,0,5,5,5,1385.7478105238588,1387.7494116484631,left,1,2,1.4133496771428327,T14G09,2022-12-09_16h19.32.568,t1_Paradigm,2021.1.4,60.022027957645406,
G,right,Target,0,6,6,6,1389.2478827043888,1391.2502454138084,right,1,2,0.9363832869676116,T14G09,2022-12-09_16h19.32.568,t1_Paradigm,2021.1.4,60.022027957645406,
Y,left,Pretarget,0,7,7,7,1392.747589170227,1394.7491460241035,left,1,2,0.49348129594000056,T14G09,2022-12-09_16h19.32.568,t1_Paradigm,2021.1.4,60.022027957645406,
P,left,Distractor,0,8,8,8,1396.2478243183614,1398.2501700252542,left,1,2,0.5924308606736304,T14G09,2022-12-09_16h19.32.568,t1_Paradigm,2021.1.4,60.022027957645406,
Y,right,Target,0,9,9,9,1399.7478326592209,1401.7490979037502,right,1,2,0.7576241890128586,T14G09,2022-12-09_16h19.32.568,t1_Paradigm,2021.1.4,60.022027957645406,
X,left,Distractor,0,10,10,10,1403.2478146942885,1405.250035609064,left,1,2,0.5365859057419584,T14G09,2022-12-09_16h19.32.568,t1_Paradigm,2021.1.4,60.022027957645406,
Y,right,Target,0,11,11,11,1406.7479109349988,1408.7493166909626,right,1,2,0.44538307651964715,T14G09,2022-12-09_16h19.32.568,t1_Paradigm,2021.1.4,60.022027957645406,
N,left,Distractor,0,12,12,12,1410.2478333008257,1412.2495771824833,left,1,2,0.4169789143015805,T14G09,2022-12-09_16h19.32.568,t1_Paradigm,2021.1.4,60.022027957645406,
Y,right,Target,0,13,13,13,1413.7477784436196,1415.7501790077185,left,0,2,0.9807845799259667,T14G09,2022-12-09_16h19.32.568,t1_Paradigm,2021.1.4,60.022027957645406,
Y,left,Lure,0,14,14,14,1417.2478278471863,1419.247917671848,None,0,2,,T14G09,2022-12-09_16h19.32.568,t1_Paradigm,2021.1.4,60.022027957645406,
K,left,Distractor,0,15,15,15,1420.7478333008257,1422.7489394273798,left,1,2,1.1978538963376195,T14G09,2022-12-09_16h19.32.568,t1_Paradigm,2021.1.4,60.022027957645406,
T,left,Pretarget,0,16,16,16,1424.2479256919069,1426.2499855638926,left,1,2,0.6087542474233487,T14G09,2022-12-09_16h19.32.568,t1_Paradigm,2021.1.4,60.022027957645406,
J,left,Distractor,0,17,17,17,1427.7477598370824,1429.7496727815887,left,1,2,0.5813256451947382,T14G09,2022-12-09_16h19.32.568,t1_Paradigm,2021.1.4,60.022027957645406,
T,right,Target,0,18,18,18,1431.2478329800251,1433.2499502756327,right,1,2,0.9526992952633009,T14G09,2022-12-09_16h19.32.568,t1_Paradigm,2021.1.4,60.022027957645406,
S,left,Pretarget,0,19,19,19,1434.7479577721424,1436.7498318995604,left,1,2,0.47698435511119897,T14G09,2022-12-09_16h19.32.568,t1_Paradigm,2021.1.4,60.022027957645406,
R,left,Distractor,0,20,20,20,1438.247782614053,1440.2497731927288,left,1,2,0.44887789748827345,T14G09,2022-12-09_16h19.32.568,t1_Paradigm,2021.1.4,60.022027957645406,
S,right,Target,0,21,21,21,1441.747871155505,1443.7496904257168,right,1,2,0.6612599705367757,T14G09,2022-12-09_16h19.32.568,t1_Paradigm,2021.1.4,60.022027957645406,
Q,left,Distractor,0,22,22,22,1445.2477829348536,1447.2500744261488,left,1,2,0.6811073712706275,T14G09,2022-12-09_16h19.32.568,t1_Paradigm,2021.1.4,60.022027957645406,
D,left,Distractor,0,23,23,23,1448.7478964988914,1450.7492823651082,left,1,2,0.7974726548054605,T14G09,2022-12-09_16h19.32.568,t1_Paradigm,2021.1.4,60.022027957645406,
F,left,Distractor,0,24,24,24,1452.2477027342647,1454.2500882206514,left,1,2,1.2966453055087186,T14G09,2022-12-09_16h19.32.568,t1_Paradigm,2021.1.4,60.022027957645406,
Z,left,Distractor,0,25,25,25,1455.7477194159874,1457.749451427957,left,1,2,0.4854172868836031,T14G09,2022-12-09_16h19.32.568,t1_Paradigm,2021.1.4,60.022027957645406,
P,left,Distractor,0,26,26,26,1459.2478432456992,1461.2497760799488,left,1,2,0.39285329322956386,T14G09,2022-12-09_16h19.32.568,t1_Paradigm,2021.1.4,60.022027957645406,
H,left,Distractor,0,27,27,27,1462.7479706042395,1464.7500372130744,left,1,2,0.44476521116303047,T14G09,2022-12-09_16h19.32.568,t1_Paradigm,2021.1.4,60.022027957645406,
Z,left,Pretarget,0,28,28,28,1466.2479657922013,1468.249512701208,left,1,2,0.4651550886956102,T14G09,2022-12-09_16h19.32.568,t1_Paradigm,2021.1.4,60.022027957645406,
J,left,Pretarget,0,29,29,29,1469.7477290400566,1471.74701076356,left,1,2,0.5036324451793917,T14G09,2022-12-09_16h19.32.568,t1_Paradigm,2021.1.4,60.022027957645406,
Z,right,Target,0,30,30,30,1473.2479240878965,1475.249424159756,right,1,2,0.8410876611706044,T14G09,2022-12-09_16h19.32.568,t1_Paradigm,2021.1.4,60.022027957645406,
J,right,Target,0,31,31,31,1476.7479308247457,1478.7494806209725,right,1,2,1.0692753459552478,T14G09,2022-12-09_16h19.32.568,t1_Paradigm,2021.1.4,60.022027957645406,
V,left,Pretarget,0,32,32,32,1480.247909651789,1482.2488720588844,left,1,2,0.9139040236295841,T14G09,2022-12-09_16h19.32.568,t1_Paradigm,2021.1.4,60.022027957645406,
Z,left,Lure,0,33,33,33,1483.7479154262328,1485.7501488522976,left,1,2,0.836556006961473,T14G09,2022-12-09_16h19.32.568,t1_Paradigm,2021.1.4,60.022027957645406,
V,right,Target,0,34,34,34,1487.2478782131584,1489.2493016132503,None,0,2,,T14G09,2022-12-09_16h19.32.568,t1_Paradigm,2021.1.4,60.022027957645406,
X,left,Distractor,0,35,35,35,1490.7478374712555,1492.7495248916966,left,1,2,0.9733025063651439,T14G09,2022-12-09_16h19.32.568,t1_Paradigm,2021.1.4,60.022027957645406,
S,left,Distractor,0,36,36,36,1494.247860248226,1496.250347749763,left,1,2,0.6404601075846585,T14G09,2022-12-09_16h19.32.568,t1_Paradigm,2021.1.4,60.022027957645406,
Q,left,Distractor,0,37,37,37,1497.747900669321,1499.749287497947,left,1,2,0.7254801128219697,T14G09,2022-12-09_16h19.32.568,t1_Paradigm,2021.1.4,60.022027957645406,
P,left,Distractor,0,38,38,38,1501.247758233072,1503.2494158188929,left,1,2,0.4893840081313101,T14G09,2022-12-09_16h19.32.568,t1_Paradigm,2021.1.4,60.022027957645406,
S,left,Lure,0,39,39,39,1504.7479041981496,1506.7500802005925,left,1,2,0.812866035495972,T14G09,2022-12-09_16h19.32.568,t1_Paradigm,2021.1.4,60.022027957645406,
K,left,Pretarget,0,40,40,40,1508.2478794963681,1510.2500324010398,left,1,2,0.6087382073055778,T14G09,2022-12-09_16h19.32.568,t1_Paradigm,2021.1.4,60.022027957645406,
L,left,Distractor,0,41,41,41,1511.7479985140453,1513.7496695735645,left,1,2,0.5490250174516405,T14G09,2022-12-09_16h19.32.568,t1_Paradigm,2021.1.4,60.022027957645406,
K,right,Target,0,42,42,42,1515.2479667546104,1517.250442386463,right,1,2,0.40832591210710234,T14G09,2022-12-09_16h19.32.568,t1_Paradigm,2021.1.4,60.022027957645406,
B,left,Distractor,0,43,43,43,1518.7480113461388,1520.7501257545264,left,1,2,0.47704562836224795,T14G09,2022-12-09_16h19.32.568,t1_Paradigm,2021.1.4,60.022027957645406,
N,left,Distractor,0,44,44,44,1522.2478868748221,1524.2488268257512,left,1,2,0.578382925101323,T14G09,2022-12-09_16h19.32.568,t1_Paradigm,2021.1.4,60.022027957645406,
S,left,Pretarget,0,45,45,45,1525.7477906341119,1527.749675027204,left,1,2,0.5330545133037958,T14G09,2022-12-09_16h19.32.568,t1_Paradigm,2021.1.4,60.022027957645406,
Z,left,Distractor,0,46,46,46,1529.2478884788325,1531.250034646655,left,1,2,0.4568421370058786,T14G09,2022-12-09_16h19.32.568,t1_Paradigm,2021.1.4,60.022027957645406,
S,right,Target,0,47,47,47,1532.746911956434,1534.7495418942235,right,1,2,1.1011887652457517,T14G09,2022-12-09_16h19.32.568,t1_Paradigm,2021.1.4,60.022027957645406,
C,left,Distractor,0,48,48,48,1536.2479593761564,1538.2500307970258,None,0,2,,T14G09,2022-12-09_16h19.32.568,t1_Paradigm,2021.1.4,60.022027957645406,
T,left,Pretarget,0,49,49,49,1539.7480562584715,1541.7498007817303,left,1,2,0.9812474977406964,T14G09,2022-12-09_16h19.32.568,t1_Paradigm,2021.1.4,60.022027957645406,
S,left,Lure,0,50,50,50,1543.2479815115184,1545.2500869374417,left,1,2,1.304768662997958,T14G09,2022-12-09_16h19.32.568,t1_Paradigm,2021.1.4,60.022027957645406,
T,right,Target,0,51,51,51,1546.7479401280143,1548.749818425862,right,1,2,0.6209402460699494,T14G09,2022-12-09_16h19.32.568,t1_Paradigm,2021.1.4,60.022027957645406,
N,left,Pretarget,0,52,52,52,1550.2480860930882,1552.2497703055087,left,1,2,0.5451882211636985,T14G09,2022-12-09_16h19.32.568,t1_Paradigm,2021.1.4,60.022027957645406,
B,left,Distractor,0,53,53,53,1553.7477511754187,1555.7501523811225,left,1,2,0.5645864985854132,T14G09,2022-12-09_16h19.32.568,t1_Paradigm,2021.1.4,60.022027957645406,
N,right,Target,0,54,54,54,1557.2478105238588,1559.2492942347963,right,1,2,0.7136453927632829,T14G09,2022-12-09_16h19.32.568,t1_Paradigm,2021.1.4,60.022027957645406,
N,left,Lure,0,55,55,55,1560.7480745442044,1562.7480001180556,right,0,2,1.2469934402324725,T14G09,2022-12-09_16h19.32.568,t1_Paradigm,2021.1.4,60.022027957645406,
X,left,Distractor,0,56,56,56,1564.2478981029053,1566.2499406515635,left,1,2,0.9928515608953603,T14G09,2022-12-09_16h19.32.568,t1_Paradigm,2021.1.4,60.022027957645406,
W,left,Distractor,0,57,57,57,1567.7479009901253,1569.7494430870938,left,1,2,1.173467142139998,T14G09,2022-12-09_16h19.32.568,t1_Paradigm,2021.1.4,60.022027957645406,
S,left,Distractor,0,58,58,58,1571.2480700529704,1573.2483453013992,left,1,2,1.1625970747954852,T14G09,2022-12-09_16h19.32.568,t1_Paradigm,2021.1.4,60.022027957645406,
L,left,Distractor,0,59,59,59,1574.7481345342458,1576.7499829974768,left,1,2,0.5889225660102966,T14G09,2022-12-09_16h19.32.568,t1_Paradigm,2021.1.4,60.022027957645406,
K,left,Pretarget,0,60,60,60,1578.2479391656052,1580.2490302144506,left,1,2,0.513991474355862,T14G09,2022-12-09_16h19.32.568,t1_Paradigm,2021.1.4,60.022027957645406,
V,left,Pretarget,0,61,61,61,1581.7476921477864,1583.7498251627112,left,1,2,0.5330670245966758,T14G09,2022-12-09_16h19.32.568,t1_Paradigm,2021.1.4,60.022027957645406,
K,right,Target,0,62,62,62,1585.247928579127,1587.249888681581,right,1,2,0.39287639100075467,T14G09,2022-12-09_16h19.32.568,t1_Paradigm,2021.1.4,60.022027957645406,
V,right,Target,0,63,63,63,1588.7479025941357,1590.749694275346,left,0,2,0.46123745021031937,T14G09,2022-12-09_16h19.32.568,t1_Paradigm,2021.1.4,60.022027957645406,
R,left,Distractor,0,0,0,0,1741.2456743009097,1743.2499894135217,left,1,3,0.8251258186865016,T14G09,2022-12-09_16h19.32.568,t1_Paradigm,2021.1.4,60.022027957645406,
P,left,Lure,0,1,1,1,1744.7479994764508,1746.749351016817,left,1,3,0.8617989826707344,T14G09,2022-12-09_16h19.32.568,t1_Paradigm,2021.1.4,60.022027957645406,
V,left,Distractor,0,2,2,2,1748.2480052508945,1750.2501693836493,left,1,3,1.0089029072405538,T14G09,2022-12-09_16h19.32.568,t1_Paradigm,2021.1.4,60.022027957645406,
P,left,Pretarget,0,3,3,3,1751.7482031859545,1753.7494296133955,left,1,3,1.1416753069424885,T14G09,2022-12-09_16h19.32.568,t1_Paradigm,2021.1.4,60.022027957645406,
Z,left,Distractor,0,4,4,4,1755.2481297222112,1757.249268249805,left,1,3,0.7298648395480996,T14G09,2022-12-09_16h19.32.568,t1_Paradigm,2021.1.4,60.022027957645406,
L,left,Pretarget,0,5,5,5,1758.7481630856564,1760.749322144602,left,1,3,0.7820526475188672,T14G09,2022-12-09_16h19.32.568,t1_Paradigm,2021.1.4,60.022027957645406,
P,right,Target,0,6,6,6,1762.2480238574317,1764.250281985278,left,0,3,0.5129039543389808,T14G09,2022-12-09_16h19.32.568,t1_Paradigm,2021.1.4,60.022027957645406,
S,left,Distractor,0,7,7,7,1765.7481252309772,1767.7503079702728,left,1,3,0.6288310218478728,T14G09,2022-12-09_16h19.32.568,t1_Paradigm,2021.1.4,60.022027957645406,
L,right,Target,0,8,8,8,1769.2478878372276,1771.250014756908,right,1,3,1.1452233811032784,T14G09,2022-12-09_16h19.32.568,t1_Paradigm,2021.1.4,60.022027957645406,
D,left,Distractor,0,9,9,9,1772.7481672560898,1774.750127037736,left,1,3,1.2928710656779003,T14G09,2022-12-09_16h19.32.568,t1_Paradigm,2021.1.4,60.022027957645406,
G,left,Distractor,0,10,10,10,1776.2480196869983,1778.2502935341654,left,1,3,0.9448091610865959,T14G09,2022-12-09_16h19.32.568,t1_Paradigm,2021.1.4,60.022027957645406,
M,left,Pretarget,0,11,11,11,1779.7482083187897,1781.7498306163507,left,1,3,0.789318500286754,T14G09,2022-12-09_16h19.32.568,t1_Paradigm,2021.1.4,60.022027957645406,
Y,left,Distractor,0,12,12,12,1783.248208639594,1785.2497982153145,left,1,3,0.713382334826747,T14G09,2022-12-09_16h19.32.568,t1_Paradigm,2021.1.4,60.022027957645406,
V,left,Distractor,0,13,13,13,1786.7482192260723,1788.7471538414175,left,1,3,0.7679591580090346,T14G09,2022-12-09_16h19.32.568,t1_Paradigm,2021.1.4,60.022027957645406,
M,right,Target,0,14,14,14,1790.248067486551,1792.2502191080166,right,1,3,0.880845339896041,T14G09,2022-12-09_16h19.32.568,t1_Paradigm,2021.1.4,60.022027957645406,
S,left,Pretarget,0,15,15,15,1793.7482368702003,1795.7502912885466,left,1,3,0.7248879116523312,T14G09,2022-12-09_16h19.32.568,t1_Paradigm,2021.1.4,60.022027957645406,
Q,left,Distractor,0,16,16,16,1797.2481662936807,1799.2493484503975,left,1,3,0.5857090887147933,T14G09,2022-12-09_16h19.32.568,t1_Paradigm,2021.1.4,60.022027957645406,
R,left,Pretarget,0,17,17,17,1800.7481701433098,1802.7498761702882,left,1,3,0.6531783173522854,T14G09,2022-12-09_16h19.32.568,t1_Paradigm,2021.1.4,60.022027957645406,
S,right,Target,0,18,18,18,1804.2482394366198,1806.2500445915284,right,1,3,0.6731177883630153,T14G09,2022-12-09_16h19.32.568,t1_Paradigm,2021.1.4,60.022027957645406,
F,left,Distractor,0,19,19,19,1807.7481762385542,1809.7497542653873,left,1,3,0.597583267459413,T14G09,2022-12-09_16h19.32.568,t1_Paradigm,2021.1.4,60.022027957645406,
R,right,Target,0,20,20,20,1811.2482371910046,1813.249984601487,right,1,3,0.5690472554742882,T14G09,2022-12-09_16h19.32.568,t1_Paradigm,2021.1.4,60.022027957645406,
P,left,Distractor,0,21,21,21,1814.7482019027448,1816.7503483913679,left,1,3,0.588826004495786,T14G09,2022-12-09_16h19.32.568,t1_Paradigm,2021.1.4,60.022027957645406,
L,left,Distractor,0,22,22,22,1818.2481521783775,1820.2473325283354,left,1,3,0.7078324539070309,T14G09,2022-12-09_16h19.32.568,t1_Paradigm,2021.1.4,60.022027957645406,
R,right,Target,0,23,23,23,1821.7481637272613,1823.7498440900526,right,1,3,0.6134142225782853,T14G09,2022-12-09_16h19.32.568,t1_Paradigm,2021.1.4,60.022027957645406,
H,left,Pretarget,0,24,24,24,1825.248216018048,1827.2495588967467,left,1,3,0.5375165534023836,T14G09,2022-12-09_16h19.32.568,t1_Paradigm,2021.1.4,60.022027957645406,
G,left,Pretarget,0,25,25,25,1828.7482436070495,1830.7493936835308,left,1,3,0.7016999958941597,T14G09,2022-12-09_16h19.32.568,t1_Paradigm,2021.1.4,60.022027957645406,
T,left,Distractor,0,26,26,26,1832.2482208300826,1834.2503599402553,left,1,3,0.9127401526493486,T14G09,2022-12-09_16h19.32.568,t1_Paradigm,2021.1.4,60.022027957645406,
H,right,Target,0,27,27,27,1835.7482137724328,1837.7503820756174,right,1,3,0.6926957151081297,T14G09,2022-12-09_16h19.32.568,t1_Paradigm,2021.1.4,60.022027957645406,
G,right,Target,0,28,28,28,1839.2481425543046,1841.2498928520108,right,1,3,0.7772669178339129,T14G09,2022-12-09_16h19.32.568,t1_Paradigm,2021.1.4,60.022027957645406,
D,left,Distractor,0,29,29,29,1842.748105982835,1844.7498771326937,left,1,3,1.2133906756862416,T14G09,2022-12-09_16h19.32.568,t1_Paradigm,2021.1.4,60.022027957645406,
N,left,Pretarget,0,30,30,30,1846.2482413614343,1848.249980110253,left,1,3,1.3453463125697454,T14G09,2022-12-09_16h19.32.568,t1_Paradigm,2021.1.4,60.022027957645406,
V,left,Distractor,0,31,31,31,1849.7482355869906,1851.7499323107004,left,1,3,1.1572945325024193,T14G09,2022-12-09_16h19.32.568,t1_Paradigm,2021.1.4,60.022027957645406,
R,left,Distractor,0,32,32,32,1853.2482628551916,1855.2504035693746,left,1,3,0.8564913075388176,T14G09,2022-12-09_16h19.32.568,t1_Paradigm,2021.1.4,60.022027957645406,
N,right,Target,0,33,33,33,1856.7481643688661,1858.749620490802,right,1,3,1.1976950991665944,T14G09,2022-12-09_16h19.32.568,t1_Paradigm,2021.1.4,60.022027957645406,
Z,left,Distractor,0,34,34,34,1860.2482291709457,1862.249625623641,None,0,3,,T14G09,2022-12-09_16h19.32.568,t1_Paradigm,2021.1.4,60.022027957645406,
N,left,Lure,0,35,35,35,1863.7482134516285,1865.7495470270624,left,1,3,1.3015904739695543,T14G09,2022-12-09_16h19.32.568,t1_Paradigm,2021.1.4,60.022027957645406,
Y,left,Pretarget,0,36,36,36,1867.248110474069,1869.2506499455922,left,1,3,1.2725896193478548,T14G09,2022-12-09_16h19.32.568,t1_Paradigm,2021.1.4,60.022027957645406,
Y,left,Lure,0,37,37,37,1870.7481829754033,1872.7482320581657,left,1,3,1.2630871324872714,T14G09,2022-12-09_16h19.32.568,t1_Paradigm,2021.1.4,60.022027957645406,
B,left,Distractor,0,38,38,38,1874.2483112963491,1876.2501068271886,left,1,3,1.2489872269325133,T14G09,2022-12-09_16h19.32.568,t1_Paradigm,2021.1.4,60.022027957645406,
Y,right,Target,0,39,39,39,1877.748073581799,1879.749821313082,right,1,3,0.72543552128991,T14G09,2022-12-09_16h19.32.568,t1_Paradigm,2021.1.4,60.022027957645406,
J,left,Distractor,0,40,40,40,1881.2481367798646,1883.2493670569347,left,1,3,0.5697799680747266,T14G09,2022-12-09_16h19.32.568,t1_Paradigm,2021.1.4,60.022027957645406,
X,left,Distractor,0,41,41,41,1884.7482564391466,1886.749718014722,left,1,3,0.5895583962956152,T14G09,2022-12-09_16h19.32.568,t1_Paradigm,2021.1.4,60.022027957645406,
W,left,Pretarget,0,42,42,42,1888.2482599679715,1890.2503198399572,left,1,3,0.688938798604795,T14G09,2022-12-09_16h19.32.568,t1_Paradigm,2021.1.4,60.022027957645406,
S,left,Pretarget,0,43,43,43,1891.748259005566,1893.7496663655402,left,1,3,0.5976849618127744,T14G09,2022-12-09_16h19.32.568,t1_Paradigm,2021.1.4,60.022027957645406,
R,left,Distractor,0,44,44,44,1895.2482599679715,1897.250286476512,left,1,3,0.8406796005619981,T14G09,2022-12-09_16h19.32.568,t1_Paradigm,2021.1.4,60.022027957645406,
W,right,Target,0,45,45,45,1898.7482339829803,1900.750646095963,None,0,3,,T14G09,2022-12-09_16h19.32.568,t1_Paradigm,2021.1.4,60.022027957645406,
S,right,Target,0,46,46,46,1902.2482192260723,1904.2505950883897,right,1,3,1.2809279144275934,T14G09,2022-12-09_16h19.32.568,t1_Paradigm,2021.1.4,60.022027957645406,
D,left,Distractor,0,47,47,47,1905.7483019930805,1907.7499214034215,left,1,3,1.2852433478437888,T14G09,2022-12-09_16h19.32.568,t1_Paradigm,2021.1.4,60.022027957645406,
T,left,Distractor,0,48,48,48,1909.2483606999158,1911.249788270441,left,1,3,0.6816591513379535,T14G09,2022-12-09_16h19.32.568,t1_Paradigm,2021.1.4,60.022027957645406,
S,right,Target,0,49,49,49,1912.7482272461311,1914.7498165010475,right,1,3,0.46141357070882805,T14G09,2022-12-09_16h19.32.568,t1_Paradigm,2021.1.4,60.022027957645406,
K,left,Distractor,0,50,50,50,1916.2482686296353,1918.2507596600008,left,1,3,0.5923554721193796,T14G09,2022-12-09_16h19.32.568,t1_Paradigm,2021.1.4,60.022027957645406,
S,left,Lure,0,51,51,51,1919.7482567599473,1921.7505572337104,left,1,3,1.1407568497706961,T14G09,2022-12-09_16h19.32.568,t1_Paradigm,2021.1.4,60.022027957645406,
T,left,Pretarget,0,52,52,52,1923.2482856321622,1925.2503272184113,left,1,3,1.0168645803387335,T14G09,2022-12-09_16h19.32.568,t1_Paradigm,2021.1.4,60.022027957645406,
V,left,Distractor,0,53,53,53,1926.7481682184953,1928.7502232784464,left,1,3,0.5887480495221098,T14G09,2022-12-09_16h19.32.568,t1_Paradigm,2021.1.4,60.022027957645406,
B,left,Distractor,0,54,54,54,1930.248346584609,1932.2504555393607,left,1,3,0.5288940274331253,T14G09,2022-12-09_16h19.32.568,t1_Paradigm,2021.1.4,60.022027957645406,
T,right,Target,0,55,55,55,1933.7483590959018,1935.7500038496291,right,1,3,0.5331831550538482,T14G09,2022-12-09_16h19.32.568,t1_Paradigm,2021.1.4,60.022027957645406,
Y,left,Pretarget,0,56,56,56,1937.2484896624665,1939.250213333573,left,1,3,0.6329619939024269,T14G09,2022-12-09_16h19.32.568,t1_Paradigm,2021.1.4,60.022027957645406,
T,left,Lure,0,57,57,57,1940.7484582238321,1942.7499242906415,left,1,3,1.3253529467619956,T14G09,2022-12-09_16h19.32.568,t1_Paradigm,2021.1.4,60.022027957645406,
P,left,Pretarget,0,58,58,58,1944.2484710559293,1946.2489679787905,left,1,3,0.9623108549239987,T14G09,2022-12-09_16h19.32.568,t1_Paradigm,2021.1.4,60.022027957645406,
Y,right,Target,0,59,59,59,1947.7482484190878,1949.7505059053292,right,1,3,0.7248596810459276,T14G09,2022-12-09_16h19.32.568,t1_Paradigm,2021.1.4,60.022027957645406,
R,left,Distractor,0,60,60,60,1951.2482121684188,1953.2504250631355,left,1,3,0.7610221276627271,T14G09,2022-12-09_16h19.32.568,t1_Paradigm,2021.1.4,60.022027957645406,
P,right,Target,0,61,61,61,1954.748336318935,1956.7505726322233,right,1,3,1.4206662166870956,T14G09,2022-12-09_16h19.32.568,t1_Paradigm,2021.1.4,60.022027957645406,
L,left,Distractor,0,62,62,62,1958.2482705544498,1960.2493519792224,None,0,3,,T14G09,2022-12-09_16h19.32.568,t1_Paradigm,2021.1.4,60.022027957645406,
V,left,Distractor,0,63,63,63,1961.7315442399304,1963.7332903672032,None,0,3,,T14G09,2022-12-09_16h19.32.568,t1_Paradigm,2021.1.4,60.022027957645406,
H,left,Lure,0,0,0,0,2017.0460611244016,2019.0502803171075,left,1,3,1.18508050856326,T14G09,2022-12-09_16h19.32.568,t1_Paradigm,2021.1.4,60.022027957645406,
B,left,Distractor,0,1,1,1,2020.548506280029,2022.5501558457909,left,1,3,0.8691909107692481,T14G09,2022-12-09_16h19.32.568,t1_Paradigm,2021.1.4,60.022027957645406,
T,left,Distractor,0,2,2,2,2024.0483811671038,2026.0504086380533,left,1,3,0.729030753398547,T14G09,2022-12-09_16h19.32.568,t1_Paradigm,2021.1.4,60.022027957645406,
R,left,Distractor,0,3,3,3,2027.5484915231173,2029.550077570013,left,1,3,0.9733349074049329,T14G09,2022-12-09_16h19.32.568,t1_Paradigm,2021.1.4,60.022027957645406,
H,left,Pretarget,0,4,4,4,2031.0484366659148,2033.0499293593202,left,1,3,0.6255928427708568,T14G09,2022-12-09_16h19.32.568,t1_Paradigm,2021.1.4,60.022027957645406,
K,left,Distractor,0,5,5,5,2034.5483747510589,2036.5487940397506,left,1,3,0.5666139695313177,T14G09,2022-12-09_16h19.32.568,t1_Paradigm,2021.1.4,60.022027957645406,
G,left,Distractor,0,6,6,6,2038.0485406058797,2040.0496887575464,left,1,3,0.681975462470291,T14G09,2022-12-09_16h19.32.568,t1_Paradigm,2021.1.4,60.022027957645406,
H,right,Target,0,7,7,7,2041.5483555029168,2043.5501369184494,right,1,3,0.7816795543658372,T14G09,2022-12-09_16h19.32.568,t1_Paradigm,2021.1.4,60.022027957645406,
Y,left,Pretarget,0,8,8,8,2045.0475669707012,2047.050356026466,left,1,3,0.5130980397698295,T14G09,2022-12-09_16h19.32.568,t1_Paradigm,2021.1.4,60.022027957645406,
S,left,Distractor,0,9,9,9,2048.5484915231173,2050.5608558878776,left,1,3,0.586606372929964,T14G09,2022-12-09_16h19.32.568,t1_Paradigm,2021.1.4,60.022027957645406,
P,left,Distractor,0,10,10,10,2052.0482903800366,2054.0504737609335,left,1,3,0.6969755394602544,T14G09,2022-12-09_16h19.32.568,t1_Paradigm,2021.1.4,60.022027957645406,
Y,right,Target,0,11,11,11,2055.5484357035057,2057.550267485014,right,1,3,0.6369890259920794,T14G09,2022-12-09_16h19.32.568,t1_Paradigm,2021.1.4,60.022027957645406,
H,left,Lure,0,12,12,12,2059.0483109113884,2061.05023476317,left,1,3,0.44912363210096373,T14G09,2022-12-09_16h19.32.568,t1_Paradigm,2021.1.4,60.022027957645406,
Q,left,Distractor,0,13,13,13,2062.5484482147986,2064.5611632165455,left,1,3,0.7783175455770106,T14G09,2022-12-09_16h19.32.568,t1_Paradigm,2021.1.4,60.022027957645406,
V,left,Pretarget,0,14,14,14,2066.048427683447,2068.04959700807,left,1,3,0.7459383212517423,T14G09,2022-12-09_16h19.32.568,t1_Paradigm,2021.1.4,60.022027957645406,
G,left,Distractor,0,15,15,15,2069.5484414779494,2071.5502957156205,left,1,3,1.0690966590373137,T14G09,2022-12-09_16h19.32.568,t1_Paradigm,2021.1.4,60.022027957645406,
Z,left,Pretarget,0,16,16,16,2073.048509167249,2075.0502254599014,left,1,3,1.36131681671759,T14G09,2022-12-09_16h19.32.568,t1_Paradigm,2021.1.4,60.022027957645406,
V,right,Target,0,17,17,17,2076.5482541293677,2078.5500535098363,right,1,3,1.2213135316997068,T14G09,2022-12-09_16h19.32.568,t1_Paradigm,2021.1.4,60.022027957645406,
N,left,Distractor,0,18,18,18,2080.04833144274,2082.050068587545,left,1,3,1.0332797165647207,T14G09,2022-12-09_16h19.32.568,t1_Paradigm,2021.1.4,60.022027957645406,
Z,right,Target,0,19,19,19,2083.5484421195542,2085.5490641553406,right,1,3,1.0383057272192673,T14G09,2022-12-09_16h19.32.568,t1_Paradigm,2021.1.4,60.022027957645406,
R,left,Distractor,0,20,20,20,2087.0484645757206,2089.0501673946746,left,1,3,1.009209915104293,T14G09,2022-12-09_16h19.32.568,t1_Paradigm,2021.1.4,60.022027957645406,
P,left,Distractor,0,21,21,21,2090.5484045856792,2092.5504901218555,left,1,3,1.252897486960137,T14G09,2022-12-09_16h19.32.568,t1_Paradigm,2021.1.4,60.022027957645406,
Z,right,Target,0,22,22,22,2094.048531944216,2096.050262031371,None,0,3,,T14G09,2022-12-09_16h19.32.568,t1_Paradigm,2021.1.4,60.022027957645406,
D,left,Pretarget,0,23,23,23,2097.5484616885005,2099.5498979206895,left,1,3,1.2296377114726056,T14G09,2022-12-09_16h19.32.568,t1_Paradigm,2021.1.4,60.022027957645406,
K,left,Distractor,0,24,24,24,2101.0484889567015,2103.0507108338825,left,1,3,1.0887749969188008,T14G09,2022-12-09_16h19.32.568,t1_Paradigm,2021.1.4,60.022027957645406,
W,left,Distractor,0,25,25,25,2104.5484565556617,2106.549989670166,None,0,3,,T14G09,2022-12-09_16h19.32.568,t1_Paradigm,2021.1.4,60.022027957645406,
D,right,Target,0,26,26,26,2108.0484097185144,2110.050529259741,None,0,3,,T14G09,2022-12-09_16h19.32.568,t1_Paradigm,2021.1.4,60.022027957645406,
G,left,Pretarget,0,27,27,27,2111.5484494980083,2113.549741048333,None,0,3,,T14G09,2022-12-09_16h19.32.568,t1_Paradigm,2021.1.4,60.022027957645406,
V,left,Distractor,0,28,28,28,2115.048474520594,2117.0497461811683,left,1,3,1.4577881831792183,T14G09,2022-12-09_16h19.32.568,t1_Paradigm,2021.1.4,60.022027957645406,
D,right,Target,0,29,29,29,2118.5485479843337,2120.5496756046487,right,1,3,0.9177257422088587,T14G09,2022-12-09_16h19.32.568,t1_Paradigm,2021.1.4,60.022027957645406,
G,right,Target,0,30,30,30,2122.048504676015,2124.050340627953,right,1,3,0.6330527809732303,T14G09,2022-12-09_16h19.32.568,t1_Paradigm,2021.1.4,60.022027957645406,
B,left,Pretarget,0,31,31,31,2125.547766188971,2127.5507669742947,left,1,3,0.6205360350868432,T14G09,2022-12-09_16h19.32.568,t1_Paradigm,2021.1.4,60.022027957645406,
N,left,Distractor,0,32,32,32,2129.048552796372,2131.0503387031386,left,1,3,0.5771250590260024,T14G09,2022-12-09_16h19.32.568,t1_Paradigm,2021.1.4,60.022027957645406,
F,left,Distractor,0,33,33,33,2132.548450781218,2134.561202675235,left,1,3,0.65038477035705,T14G09,2022-12-09_16h19.32.568,t1_Paradigm,2021.1.4,60.022027957645406,
B,right,Target,0,34,34,34,2136.04847419979,2138.0501532793714,left,0,3,0.6012965548397915,T14G09,2022-12-09_16h19.32.568,t1_Paradigm,2021.1.4,60.022027957645406,
Q,left,Pretarget,0,35,35,35,2139.548697478236,2141.549368917589,left,1,3,0.7340333454812935,T14G09,2022-12-09_16h19.32.568,t1_Paradigm,2021.1.4,60.022027957645406,
S,left,Pretarget,0,36,36,36,2143.0485219993425,2145.050161620231,left,1,3,0.5774965481687104,T14G09,2022-12-09_16h19.32.568,t1_Paradigm,2021.1.4,60.022027957645406,
W,left,Distractor,0,37,37,37,2146.548493127131,2148.5507807687973,left,1,3,0.7567965189118695,T14G09,2022-12-09_16h19.32.568,t1_Paradigm,2021.1.4,60.022027957645406,
Q,right,Target,0,38,38,38,2150.048478049419,2152.050150712952,right,1,3,0.8254940998012898,T14G09,2022-12-09_16h19.32.568,t1_Paradigm,2021.1.4,60.022027957645406,
S,right,Target,0,39,39,39,2153.5485049968192,2155.550262031371,right,1,3,0.6850753757244092,T14G09,2022-12-09_16h19.32.568,t1_Paradigm,2021.1.4,60.022027957645406,
T,left,Distractor,0,40,40,40,2157.048508525644,2159.050003143864,left,1,3,0.673589688642096,T14G09,2022-12-09_16h19.32.568,t1_Paradigm,2021.1.4,60.022027957645406,
G,left,Distractor,0,41,41,41,2160.5484607260914,2162.5501118958637,left,1,3,1.3173431533105031,T14G09,2022-12-09_16h19.32.568,t1_Paradigm,2021.1.4,60.022027957645406,
D,left,Distractor,0,42,42,42,2164.0484886358972,2166.05046798649,None,0,3,,T14G09,2022-12-09_16h19.32.568,t1_Paradigm,2021.1.4,60.022027957645406,
S,left,Lure,0,43,43,43,2167.5487045358896,2169.5612514371933,None,0,3,,T14G09,2022-12-09_16h19.32.568,t1_Paradigm,2021.1.4,60.022027957645406,
Z,left,Pretarget,0,44,44,44,2171.048586801422,2173.0504647784655,left,1,3,1.0252028754148341,T14G09,2022-12-09_16h19.32.568,t1_Paradigm,2021.1.4,60.022027957645406,
J,left,Distractor,0,45,45,45,2174.5485236033564,2176.547687913193,left,1,3,0.9358019930805312,T14G09,2022-12-09_16h19.32.568,t1_Paradigm,2021.1.4,60.022027957645406,
M,left,Pretarget,0,46,46,46,2178.048694591016,2180.049911394388,left,1,3,1.129815885105927,T14G09,2022-12-09_16h19.32.568,t1_Paradigm,2021.1.4,60.022027957645406,
Z,right,Target,0,47,47,47,2181.5485765357444,2183.5488675034903,right,1,3,0.8467713166755857,T14G09,2022-12-09_16h19.32.568,t1_Paradigm,2021.1.4,60.022027957645406,
P,left,Distractor,0,48,48,48,2185.048562420441,2187.050622613231,None,0,3,,T14G09,2022-12-09_16h19.32.568,t1_Paradigm,2021.1.4,60.022027957645406,
M,right,Target,0,49,49,49,2188.548358390137,2190.5502495200817,None,0,3,,T14G09,2022-12-09_16h19.32.568,t1_Paradigm,2021.1.4,60.022027957645406,
K,left,Distractor,0,50,50,50,2192.048543813904,2194.0502581817454,left,1,3,1.2254412957336172,T14G09,2022-12-09_16h19.32.568,t1_Paradigm,2021.1.4,60.022027957645406,
Y,left,Distractor,0,51,51,51,2195.548659623557,2197.550188246827,left,1,3,0.6372575375717133,T14G09,2022-12-09_16h19.32.568,t1_Paradigm,2021.1.4,60.022027957645406,
X,left,Distractor,0,52,52,52,2199.0485005055853,2201.050387785901,left,1,3,0.9452271665722947,T14G09,2022-12-09_16h19.32.568,t1_Paradigm,2021.1.4,60.022027957645406,
F,left,Pretarget,0,53,53,53,2202.548617919252,2204.5502633145807,left,1,3,1.17337346784916,T14G09,2022-12-09_16h19.32.568,t1_Paradigm,2021.1.4,60.022027957645406,
M,left,Lure,0,54,54,54,2206.048291984047,2208.0509870447167,left,1,3,1.0648161930766946,T14G09,2022-12-09_16h19.32.568,t1_Paradigm,2021.1.4,60.022027957645406,
V,left,Distractor,0,55,55,55,2209.548521678542,2211.55042564058,None,0,3,,T14G09,2022-12-09_16h19.32.568,t1_Paradigm,2021.1.4,60.022027957645406,
F,right,Target,0,56,56,56,2213.0485916134567,2215.0491680953055,right,1,3,1.3787014176923549,T14G09,2022-12-09_16h19.32.568,t1_Paradigm,2021.1.4,60.022027957645406,
S,left,Distractor,0,57,57,57,2216.548242580484,2218.561362114011,left,1,3,1.3381539235415403,T14G09,2022-12-09_16h19.32.568,t1_Paradigm,2021.1.4,60.022027957645406,
D,left,Distractor,0,58,58,58,2220.0485560043926,2222.0502617105703,left,1,3,0.8413965938489127,T14G09,2022-12-09_16h19.32.568,t1_Paradigm,2021.1.4,60.022027957645406,
F,right,Target,0,59,59,59,2223.5486811173178,2225.550883104752,right,1,3,1.0047485166105616,T14G09,2022-12-09_16h19.32.568,t1_Paradigm,2021.1.4,60.022027957645406,
V,left,Pretarget,0,60,60,60,2227.048523924157,2229.0504612496406,left,1,3,0.6090788994151808,T14G09,2022-12-09_16h19.32.568,t1_Paradigm,2021.1.4,60.022027957645406,
J,left,Distractor,0,61,61,61,2230.5485572876023,2232.5506296708845,left,1,3,0.8849249835730006,T14G09,2022-12-09_16h19.32.568,t1_Paradigm,2021.1.4,60.022027957645406,
V,left,Lure,0,62,62,62,2234.048658340347,2236.050402542809,left,1,3,1.0331440171648865,T14G09,2022-12-09_16h19.32.568,t1_Paradigm,2021.1.4,60.022027957645406,
V,right,Target,0,63,63,63,2237.5487090271236,2239.548795643761,right,1,3,1.279081055210554,T14G09,2022-12-09_16h19.32.568,t1_Paradigm,2021.1.4,60.022027957645406,
R,left,Distractor,0,0,0,0,2358.1568271234537,2360.150291096066,left,1,4,0.5333227040828206,T14G09,2022-12-09_16h19.32.568,t1_Paradigm,2021.1.4,60.022027957645406,
F,left,Distractor,0,1,1,1,2361.6488404277698,2363.650339858028,left,1,4,0.44122098663137876,T14G09,2022-12-09_16h19.32.568,t1_Paradigm,2021.1.4,60.022027957645406,
P,left,Pretarget,0,2,2,2,2365.1486874050424,2367.15099397405,left,1,4,0.6687766907598416,T14G09,2022-12-09_16h19.32.568,t1_Paradigm,2021.1.4,60.022027957645406,
H,left,Distractor,0,3,3,3,2368.648826633271,2370.6503757878927,left,1,4,0.4653466077106714,T14G09,2022-12-09_16h19.32.568,t1_Paradigm,2021.1.4,60.022027957645406,
Z,left,Distractor,0,4,4,4,2372.148808989139,2374.150539076294,left,1,4,0.7572677775824559,T14G09,2022-12-09_16h19.32.568,t1_Paradigm,2021.1.4,60.022027957645406,
T,left,Distractor,0,5,5,5,2375.6487416206437,2377.6513244004855,left,1,4,0.5842901798532694,T14G09,2022-12-09_16h19.32.568,t1_Paradigm,2021.1.4,60.022027957645406,
P,right,Target,0,6,6,6,2379.1488234252465,2381.15046657496,right,1,4,0.6691905258085171,T14G09,2022-12-09_16h19.32.568,t1_Paradigm,2021.1.4,60.022027957645406,
G,left,Distractor,0,7,7,7,2382.6488734704144,2384.6506465450875,left,1,4,0.593569709071744,T14G09,2022-12-09_16h19.32.568,t1_Paradigm,2021.1.4,60.022027957645406,
L,left,Distractor,0,8,8,8,2386.1487220516974,2388.150864690695,left,1,4,0.6771955072290439,T14G09,2022-12-09_16h19.32.568,t1_Paradigm,2021.1.4,60.022027957645406,
P,left,Lure,0,9,9,9,2389.6488449190037,2391.6507851317074,right,0,4,0.9849194016132969,T14G09,2022-12-09_16h19.32.568,t1_Paradigm,2021.1.4,60.022027957645406,
Q,left,Pretarget,0,10,10,10,2393.148742583049,2395.150076158483,None,0,4,,T14G09,2022-12-09_16h19.32.568,t1_Paradigm,2021.1.4,60.022027957645406,
D,left,Distractor,0,11,11,11,2396.647894702397,2398.650612219233,left,1,4,1.0254255122563336,T14G09,2022-12-09_16h19.32.568,t1_Paradigm,2021.1.4,60.022027957645406,
M,left,Pretarget,0,12,12,12,2400.1487566983524,2402.1480968078904,left,1,4,1.063843199503026,T14G09,2022-12-09_16h19.32.568,t1_Paradigm,2021.1.4,60.022027957645406,
C,left,Distractor,0,13,13,13,2403.648728467746,2405.651030224715,left,1,4,1.4166792848918703,T14G09,2022-12-09_16h19.32.568,t1_Paradigm,2021.1.4,60.022027957645406,
Q,right,Target,0,14,14,14,2407.148715956453,2409.150512449698,None,0,4,,T14G09,2022-12-09_16h19.32.568,t1_Paradigm,2021.1.4,60.022027957645406,
R,left,Distractor,0,15,15,15,2410.6485363071297,2412.6508893924765,left,1,4,0.9773754131929309,T14G09,2022-12-09_16h19.32.568,t1_Paradigm,2021.1.4,60.022027957645406,
M,right,Target,0,16,16,16,2414.148921911572,2416.1509432872735,left,0,4,1.3811597262138093,T14G09,2022-12-09_16h19.32.568,t1_Paradigm,2021.1.4,60.022027957645406,
S,left,Distractor,0,17,17,17,2417.6488285580854,2419.650591367081,None,0,4,,T14G09,2022-12-09_16h19.32.568,t1_Paradigm,2021.1.4,60.022027957645406,
Z,left,Distractor,0,18,18,18,2421.1486476255486,2423.1505794973928,left,1,4,0.8613428017088154,T14G09,2022-12-09_16h19.32.568,t1_Paradigm,2021.1.4,60.022027957645406,
L,left,Pretarget,0,19,19,19,2424.6486604576457,2426.650742785798,left,1,4,0.7530062389669183,T14G09,2022-12-09_16h19.32.568,t1_Paradigm,2021.1.4,60.022027957645406,
M,right,Target,0,20,20,20,2428.1488006482796,2430.150233993245,left,0,4,0.6136779221233155,T14G09,2022-12-09_16h19.32.568,t1_Paradigm,2021.1.4,60.022027957645406,
P,left,Distractor,0,21,21,21,2431.6488830944872,2433.647934802695,left,1,4,0.7002018488492467,T14G09,2022-12-09_16h19.32.568,t1_Paradigm,2021.1.4,60.022027957645406,
F,left,Distractor,0,22,22,22,2435.1487814001375,2437.150466895764,left,1,4,0.6853105238551507,T14G09,2022-12-09_16h19.32.568,t1_Paradigm,2021.1.4,60.022027957645406,
L,right,Target,0,23,23,23,2438.648886302508,2440.6514321900795,left,0,4,0.688529454790114,T14G09,2022-12-09_16h19.32.568,t1_Paradigm,2021.1.4,60.022027957645406,
L,left,Lure,0,24,24,24,2442.1488343325254,2444.148758943971,left,1,4,1.207100703712058,T14G09,2022-12-09_16h19.32.568,t1_Paradigm,2021.1.4,60.022027957645406,
V,left,Pretarget,0,25,25,25,2445.648845881413,2447.6505166201277,None,0,4,,T14G09,2022-12-09_16h19.32.568,t1_Paradigm,2021.1.4,60.022027957645406,
Z,left,Distractor,0,26,26,26,2449.148744187063,2451.1507504850524,None,0,4,,T14G09,2022-12-09_16h19.32.568,t1_Paradigm,2021.1.4,60.022027957645406,
H,left,Distractor,0,27,27,27,2452.6488247084562,2454.6513317789395,None,0,4,,T14G09,2022-12-09_16h19.32.568,t1_Paradigm,2021.1.4,60.022027957645406,
X,left,Distractor,0,28,28,28,2456.14890138022,2458.15083293126,None,0,4,,T14G09,2022-12-09_16h19.32.568,t1_Paradigm,2021.1.4,60.022027957645406,
V,right,Target,0,29,29,29,2459.648843635794,2461.6507296329,left,0,4,1.4170443579823768,T14G09,2022-12-09_16h19.32.568,t1_Paradigm,2021.1.4,60.022027957645406,
C,left,Distractor,0,30,30,30,2463.1488041771045,2465.161610286719,left,1,4,0.8821696120612614,T14G09,2022-12-09_16h19.32.568,t1_Paradigm,2021.1.4,60.022027957645406,
S,left,Pretarget,0,31,31,31,2466.648906192255,2468.65086821952,left,1,4,0.7209394761448493,T14G09,2022-12-09_16h19.32.568,t1_Paradigm,2021.1.4,60.022027957645406,
D,left,Distractor,0,32,32,32,2470.148777229704,2472.1505910462765,left,1,4,0.53320272399651,T14G09,2022-12-09_16h19.32.568,t1_Paradigm,2021.1.4,60.022027957645406,
V,left,Distractor,0,33,33,33,2473.648658212027,2475.6509233975303,left,1,4,0.6168522615298571,T14G09,2022-12-09_16h19.32.568,t1_Paradigm,2021.1.4,60.022027957645406,
R,left,Distractor,0,34,34,34,2477.1488625631355,2479.15029975773,left,1,4,1.0854870934817882,T14G09,2022-12-09_16h19.32.568,t1_Paradigm,2021.1.4,60.022027957645406,
S,right,Target,0,35,35,35,2480.648686442637,2482.650792189361,right,1,4,0.5929585805643001,T14G09,2022-12-09_16h19.32.568,t1_Paradigm,2021.1.4,60.022027957645406,
Y,left,Distractor,0,36,36,36,2484.148866412761,2486.150529452225,left,1,4,0.6933495103257883,T14G09,2022-12-09_16h19.32.568,t1_Paradigm,2021.1.4,60.022027957645406,
N,left,Pretarget,0,37,37,37,2487.6487807585327,2489.6505631364707,left,1,4,0.7774462463567033,T14G09,2022-12-09_16h19.32.568,t1_Paradigm,2021.1.4,60.022027957645406,
Z,left,Pretarget,0,38,38,38,2491.1488667335652,2493.1510802698867,left,1,4,0.6367907701314834,T14G09,2022-12-09_16h19.32.568,t1_Paradigm,2021.1.4,60.022027957645406,
P,left,Pretarget,0,39,39,39,2494.6489424429237,2496.650548058762,left,1,4,0.8012911653604533,T14G09,2022-12-09_16h19.32.568,t1_Paradigm,2021.1.4,60.022027957645406,
M,left,Distractor,0,40,40,40,2498.1488603175167,2500.1507536930767,left,1,4,0.7254676015254518,T14G09,2022-12-09_16h19.32.568,t1_Paradigm,2021.1.4,60.022027957645406,
N,right,Target,0,41,41,41,2501.6488962473813,2503.650717121607,right,1,4,0.8412647440782166,T14G09,2022-12-09_16h19.32.568,t1_Paradigm,2021.1.4,60.022027957645406,
Z,right,Target,0,42,42,42,2505.148972919149,2507.151163036895,right,1,4,1.3086587124780635,T14G09,2022-12-09_16h19.32.568,t1_Paradigm,2021.1.4,60.022027957645406,
P,right,Target,0,43,43,43,2508.6488766784387,2510.6506022743597,right,1,4,1.4254112044727663,T14G09,2022-12-09_16h19.32.568,t1_Paradigm,2021.1.4,60.022027957645406,
X,left,Pretarget,0,44,44,44,2512.148883736092,2514.150773903628,left,1,4,1.3812190746539272,T14G09,2022-12-09_16h19.32.568,t1_Paradigm,2021.1.4,60.022027957645406,
Z,left,Lure,0,45,45,45,2515.648787495382,2517.650620239292,left,1,4,1.0813859560439596,T14G09,2022-12-09_16h19.32.568,t1_Paradigm,2021.1.4,60.022027957645406,
R,left,Pretarget,0,46,46,46,2519.1486906130667,2521.1479482763934,left,1,4,0.9119198610023886,T14G09,2022-12-09_16h19.32.568,t1_Paradigm,2021.1.4,60.022027957645406,
K,left,Distractor,0,47,47,47,2522.6478738502447,2524.6512939242602,None,0,4,,T14G09,2022-12-09_16h19.32.568,t1_Paradigm,2021.1.4,60.022027957645406,
X,right,Target,0,48,48,48,2526.148953029402,2528.1502833968116,right,1,4,1.077674272677541,T14G09,2022-12-09_16h19.32.568,t1_Paradigm,2021.1.4,60.022027957645406,
B,left,Distractor,0,49,49,49,2529.648864167146,2531.6512852625965,left,1,4,0.7768072080434649,T14G09,2022-12-09_16h19.32.568,t1_Paradigm,2021.1.4,60.022027957645406,
R,right,Target,0,50,50,50,2533.1480794845593,2535.1503815623328,left,0,4,1.3895743722532643,T14G09,2022-12-09_16h19.32.568,t1_Paradigm,2021.1.4,60.022027957645406,
Y,left,Pretarget,0,51,51,51,2536.648885019298,2538.651089893956,None,0,4,,T14G09,2022-12-09_16h19.32.568,t1_Paradigm,2021.1.4,60.022027957645406,
W,left,Pretarget,0,52,52,52,2540.148828237281,2542.1510918187705,None,0,4,,T14G09,2022-12-09_16h19.32.568,t1_Paradigm,2021.1.4,60.022027957645406,
Z,left,Distractor,0,53,53,53,2543.6484644474003,2545.6503103442083,left,1,4,0.7617108903432381,T14G09,2022-12-09_16h19.32.568,t1_Paradigm,2021.1.4,60.022027957645406,
Q,left,Distractor,0,54,54,54,2547.1488891897316,2549.1497130102034,None,0,4,,T14G09,2022-12-09_16h19.32.568,t1_Paradigm,2021.1.4,60.022027957645406,
Y,right,Target,0,55,55,55,2550.648883736092,2552.650919227097,None,0,4,,T14G09,2022-12-09_16h19.32.568,t1_Paradigm,2021.1.4,60.022027957645406,
W,right,Target,0,56,56,56,2554.1489142123137,2556.1509006205597,left,0,4,0.6930145926562545,T14G09,2022-12-09_16h19.32.568,t1_Paradigm,2021.1.4,60.022027957645406,
H,left,Pretarget,0,57,57,57,2557.648894322567,2559.650672850883,left,1,4,0.7932306851325848,T14G09,2022-12-09_16h19.32.568,t1_Paradigm,2021.1.4,60.022027957645406,
M,left,Distractor,0,58,58,58,2561.149051194927,2563.1506205600963,left,1,4,0.7814264412991179,T14G09,2022-12-09_16h19.32.568,t1_Paradigm,2021.1.4,60.022027957645406,
R,left,Pretarget,0,59,59,59,2564.6489626534712,2566.651144109557,left,1,4,0.560823166037153,T14G09,2022-12-09_16h19.32.568,t1_Paradigm,2021.1.4,60.022027957645406,
J,left,Distractor,0,60,60,60,2568.1486363974655,2570.1510266958903,left,1,4,0.6928323769170674,T14G09,2022-12-09_16h19.32.568,t1_Paradigm,2021.1.4,60.022027957645406,
H,right,Target,0,61,61,61,2571.648895284976,2573.650341141234,right,1,4,0.713735859033477,T14G09,2022-12-09_16h19.32.568,t1_Paradigm,2021.1.4,60.022027957645406,
Z,left,Distractor,0,62,62,62,2575.149022643516,2577.1483589034215,left,1,4,0.6875872582459124,T14G09,2022-12-09_16h19.32.568,t1_Paradigm,2021.1.4,60.022027957645406,
R,right,Target,0,63,63,63,2578.648706332384,2580.6502513165724,right,1,4,0.7216956073170877,T14G09,2022-12-09_16h19.32.568,t1_Paradigm,2021.1.4,60.022027957645406,
J,left,Pretarget,0,0,0,0,2586.293459738019,2588.284785562868,left,1,4,0.9751387791038724,T14G09,2022-12-09_16h19.32.568,t1_Paradigm,2021.1.4,60.022027957645406,
G,left,Pretarget,0,1,1,1,2589.7822746427555,2591.784192399293,left,1,4,0.3395051431034517,T14G09,2022-12-09_16h19.32.568,t1_Paradigm,2021.1.4,60.022027957645406,
Z,left,Distractor,0,2,2,2,2593.2822361464714,2595.284159356652,left,1,4,0.3921552272804547,T14G09,2022-12-09_16h19.32.568,t1_Paradigm,2021.1.4,60.022027957645406,
F,left,Distractor,0,3,3,3,2596.7824055301207,2598.7841391461006,left,1,4,0.5239443677382951,T14G09,2022-12-09_16h19.32.568,t1_Paradigm,2021.1.4,60.022027957645406,
J,right,Target,0,4,4,4,2600.2823371992163,2602.2844464747686,left,0,4,0.7514429690381803,T14G09,2022-12-09_16h19.32.568,t1_Paradigm,2021.1.4,60.022027957645406,
G,right,Target,0,5,5,5,2603.78230896861,2605.784138504496,right,1,4,1.4597806866695464,T14G09,2022-12-09_16h19.32.568,t1_Paradigm,2021.1.4,60.022027957645406,
H,left,Distractor,0,6,6,6,2607.2823064021904,2609.284264259026,left,1,4,1.3036808221768297,T14G09,2022-12-09_16h19.32.568,t1_Paradigm,2021.1.4,60.022027957645406,
P,left,Distractor,0,7,7,7,2610.782150171439,2612.783151716423,left,1,4,1.1328638283775945,T14G09,2022-12-09_16h19.32.568,t1_Paradigm,2021.1.4,60.022027957645406,
G,left,Lure,0,8,8,8,2614.282166532357,2616.284510956044,left,1,4,0.9276019638236903,T14G09,2022-12-09_16h19.32.568,t1_Paradigm,2021.1.4,60.022027957645406,
S,left,Distractor,0,9,9,9,2617.782124507248,2619.7841676975113,None,0,4,,T14G09,2022-12-09_16h19.32.568,t1_Paradigm,2021.1.4,60.022027957645406,
R,left,Pretarget,0,10,10,10,2621.2823638258124,2623.284161923071,left,1,4,1.031810762535315,T14G09,2022-12-09_16h19.32.568,t1_Paradigm,2021.1.4,60.022027957645406,
T,left,Pretarget,0,11,11,11,2624.7824029637013,2626.784161602267,left,1,4,0.8279206488914497,T14G09,2022-12-09_16h19.32.568,t1_Paradigm,2021.1.4,60.022027957645406,
X,left,Distractor,0,12,12,12,2628.282322763109,2630.2846524298875,None,0,4,,T14G09,2022-12-09_16h19.32.568,t1_Paradigm,2021.1.4,60.022027957645406,
F,left,Pretarget,0,13,13,13,2631.7822938908976,2633.7843791062696,right,0,4,1.1237440587392484,T14G09,2022-12-09_16h19.32.568,t1_Paradigm,2021.1.4,60.022027957645406,
R,right,Target,0,14,14,14,2635.282321479899,2637.2838696721155,None,0,4,,T14G09,2022-12-09_16h19.32.568,t1_Paradigm,2021.1.4,60.022027957645406,
T,right,Target,0,15,15,15,2638.7819872038344,2640.7825405879157,right,1,4,0.7336926533680526,T14G09,2022-12-09_16h19.32.568,t1_Paradigm,2021.1.4,60.022027957645406,
C,left,Distractor,0,16,16,16,2642.282333991192,2644.284405091261,left,1,4,0.6716703280908405,T14G09,2022-12-09_16h19.32.568,t1_Paradigm,2021.1.4,60.022027957645406,
F,right,Target,0,17,17,17,2645.782331745577,2647.784032960517,left,0,4,1.3801344418570807,T14G09,2022-12-09_16h19.32.568,t1_Paradigm,2021.1.4,60.022027957645406,
M,left,Distractor,0,18,18,18,2649.2822627730675,2651.2837294814817,left,1,4,1.0324170790045173,T14G09,2022-12-09_16h19.32.568,t1_Paradigm,2021.1.4,60.022027957645406,
N,left,Distractor,0,19,19,19,2652.782342332055,2654.7843864847237,left,1,4,0.6196875128334796,T14G09,2022-12-09_16h19.32.568,t1_Paradigm,2021.1.4,60.022027957645406,
R,left,Lure,0,20,20,20,2656.2823506729146,2658.284755407447,right,0,4,0.9436632550423383,T14G09,2022-12-09_16h19.32.568,t1_Paradigm,2021.1.4,60.022027957645406,
F,right,Target,0,21,21,21,2659.782303835771,2661.784029431692,right,1,4,0.9481734154942387,T14G09,2022-12-09_16h19.32.568,t1_Paradigm,2021.1.4,60.022027957645406,
P,left,Distractor,0,22,22,22,2663.28234586088,2665.284205872995,left,1,4,0.8076619795319857,T14G09,2022-12-09_16h19.32.568,t1_Paradigm,2021.1.4,60.022027957645406,
L,left,Pretarget,0,23,23,23,2666.782423495053,2668.7843454220238,left,1,4,0.5876945345553395,T14G09,2022-12-09_16h19.32.568,t1_Paradigm,2021.1.4,60.022027957645406,
T,left,Distractor,0,24,24,24,2670.282399114072,2672.2842180634834,left,1,4,1.0718424064798455,T14G09,2022-12-09_16h19.32.568,t1_Paradigm,2021.1.4,60.022027957645406,
F,left,Distractor,0,25,25,25,2673.78228234201,2675.7955035698906,left,1,4,0.9527948943687079,T14G09,2022-12-09_16h19.32.568,t1_Paradigm,2021.1.4,60.022027957645406,
V,left,Distractor,0,26,26,26,2677.2814062307516,2679.2844849710527,left,1,4,0.7276788922317792,T14G09,2022-12-09_16h19.32.568,t1_Paradigm,2021.1.4,60.022027957645406,
L,right,Target,0,27,27,27,2680.78227785078,2682.784192720097,left,0,4,0.9079775207392231,T14G09,2022-12-09_16h19.32.568,t1_Paradigm,2021.1.4,60.022027957645406,
S,left,Pretarget,0,28,28,28,2684.2813372582423,2686.2843008304953,left,1,4,1.135773185029393,T14G09,2022-12-09_16h19.32.568,t1_Paradigm,2021.1.4,60.022027957645406,
W,left,Distractor,0,29,29,29,2687.7822278056083,2689.7844772717945,left,1,4,0.771749758754595,T14G09,2022-12-09_16h19.32.568,t1_Paradigm,2021.1.4,60.022027957645406,
Q,left,Distractor,0,30,30,30,2691.282364467417,2693.2844926703074,left,1,4,0.9355321982911846,T14G09,2022-12-09_16h19.32.568,t1_Paradigm,2021.1.4,60.022027957645406,
L,right,Target,0,31,31,31,2694.782361900998,2696.7844522492087,left,0,4,0.9237449569882301,T14G09,2022-12-09_16h19.32.568,t1_Paradigm,2021.1.4,60.022027957645406,
S,right,Target,0,32,32,32,2698.2824324775174,2700.2843200786338,left,0,4,0.5442784256592859,T14G09,2022-12-09_16h19.32.568,t1_Paradigm,2021.1.4,60.022027957645406,
Z,left,Pretarget,0,33,33,33,2701.7826018611668,2703.7844390963146,left,1,4,0.7717064504395239,T14G09,2022-12-09_16h19.32.568,t1_Paradigm,2021.1.4,60.022027957645406,
F,left,Distractor,0,34,34,34,2705.282206311851,2707.2849950468117,left,1,4,0.6792329230484029,T14G09,2022-12-09_16h19.32.568,t1_Paradigm,2021.1.4,60.022027957645406,
V,left,Distractor,0,35,35,35,2708.782341369646,2710.784332269126,left,1,4,0.8278898518692586,T14G09,2022-12-09_16h19.32.568,t1_Paradigm,2021.1.4,60.022027957645406,
M,left,Distractor,0,36,36,36,2712.2820359657962,2714.2840711360004,left,1,4,0.8961460087048181,T14G09,2022-12-09_16h19.32.568,t1_Paradigm,2021.1.4,60.022027957645406,
Z,right,Target,0,37,37,37,2715.7823047981765,2717.783955647148,right,1,4,0.9321255979775742,T14G09,2022-12-09_16h19.32.568,t1_Paradigm,2021.1.4,60.022027957645406,
H,left,Pretarget,0,38,38,38,2719.282524547798,2721.283043606025,left,1,4,0.8727996165762306,T14G09,2022-12-09_16h19.32.568,t1_Paradigm,2021.1.4,60.022027957645406,
L,left,Distractor,0,39,39,39,2722.782083123744,2724.7836945140225,left,1,4,0.9724706658307696,T14G09,2022-12-09_16h19.32.568,t1_Paradigm,2021.1.4,60.022027957645406,
G,left,Distractor,0,40,40,40,2726.2823471440897,2728.2843236074623,left,1,4,0.7996893991512479,T14G09,2022-12-09_16h19.32.568,t1_Paradigm,2021.1.4,60.022027957645406,
K,left,Distractor,0,41,41,41,2729.7824549336838,2731.7846517882826,left,1,4,0.6436142364400439,T14G09,2022-12-09_16h19.32.568,t1_Paradigm,2021.1.4,60.022027957645406,
H,right,Target,0,42,42,42,2733.282397510062,2735.284157752638,left,0,4,1.0159432359432685,T14G09,2022-12-09_16h19.32.568,t1_Paradigm,2021.1.4,60.022027957645406,
B,left,Distractor,0,43,43,43,2736.7824642369524,2738.784300509691,left,1,4,0.9877986028441228,T14G09,2022-12-09_16h19.32.568,t1_Paradigm,2021.1.4,60.022027957645406,
Z,left,Distractor,0,44,44,44,2740.282574592966,2742.284643126619,left,1,4,0.9276998085479136,T14G09,2022-12-09_16h19.32.568,t1_Paradigm,2021.1.4,60.022027957645406,
T,left,Pretarget,0,45,45,45,2743.7823667130324,2745.7841096322845,left,1,4,0.06798058760614367,T14G09,2022-12-09_16h19.32.568,t1_Paradigm,2021.1.4,60.022027957645406,
H,right,Target,0,46,46,46,2747.2823535601383,2749.2844731013647,right,1,4,1.255746211965743,T14G09,2022-12-09_16h19.32.568,t1_Paradigm,2021.1.4,60.022027957645406,
F,left,Distractor,0,47,47,47,2750.7824356855417,2752.784304680121,left,1,4,0.9239454584676423,T14G09,2022-12-09_16h19.32.568,t1_Paradigm,2021.1.4,60.022027957645406,
R,left,Distractor,0,48,48,48,2754.2824607081275,2756.2833377817915,left,1,4,0.7847146655440156,T14G09,2022-12-09_16h19.32.568,t1_Paradigm,2021.1.4,60.022027957645406,
T,right,Target,0,49,49,49,2757.78237826192,2759.7845430362795,right,1,4,0.9637053828082571,T14G09,2022-12-09_16h19.32.568,t1_Paradigm,2021.1.4,60.022027957645406,
H,right,Target,0,50,50,50,2761.2823278959477,2763.2843027553063,right,1,4,1.0479650864363066,T14G09,2022-12-09_16h19.32.568,t1_Paradigm,2021.1.4,60.022027957645406,
Y,left,Pretarget,0,51,51,51,2764.7824068133305,2766.784317512218,left,1,4,1.2758053422585363,T14G09,2022-12-09_16h19.32.568,t1_Paradigm,2021.1.4,60.022027957645406,
H,left,Distractor,0,52,52,52,2768.2824311943077,2770.2832842077987,left,1,4,1.2650520469760522,T14G09,2022-12-09_16h19.32.568,t1_Paradigm,2021.1.4,60.022027957645406,
S,left,Distractor,0,53,53,53,2771.7825373798914,2773.7841086698754,None,0,4,,T14G09,2022-12-09_16h19.32.568,t1_Paradigm,2021.1.4,60.022027957645406,
Q,left,Distractor,0,54,54,54,2775.282508186876,2777.2839841985588,left,1,4,0.9200011933862697,T14G09,2022-12-09_16h19.32.568,t1_Paradigm,2021.1.4,60.022027957645406,
Y,right,Target,0,55,55,55,2778.7823246879234,2780.783699326057,right,1,4,1.1646049767987279,T14G09,2022-12-09_16h19.32.568,t1_Paradigm,2021.1.4,60.022027957645406,
R,left,Distractor,0,56,56,56,2782.282453008869,2784.2841596774524,left,1,4,0.672084163143154,T14G09,2022-12-09_16h19.32.568,t1_Paradigm,2021.1.4,60.022027957645406,
H,left,Pretarget,0,57,57,57,2785.7825646480924,2787.7842225547174,left,1,4,0.7240647327853367,T14G09,2022-12-09_16h19.32.568,t1_Paradigm,2021.1.4,60.022027957645406,
J,left,Distractor,0,58,58,58,2789.2825649688966,2791.284656279513,left,1,4,0.7276827418609173,T14G09,2022-12-09_16h19.32.568,t1_Paradigm,2021.1.4,60.022027957645406,
V,left,Distractor,0,59,59,59,2792.7823086478056,2794.7845209009174,left,1,4,0.859604052886425,T14G09,2022-12-09_16h19.32.568,t1_Paradigm,2021.1.4,60.022027957645406,
Y,left,Lure,0,60,60,60,2796.2824504424498,2798.28440316645,None,0,4,,T14G09,2022-12-09_16h19.32.568,t1_Paradigm,2021.1.4,60.022027957645406,
H,right,Target,0,61,61,61,2799.782521660578,2801.7846485802584,right,1,4,1.2834917669279093,T14G09,2022-12-09_16h19.32.568,t1_Paradigm,2021.1.4,60.022027957645406,
L,left,Distractor,0,62,62,62,2803.282326612738,2805.284982856323,left,1,4,0.8070354525079892,T14G09,2022-12-09_16h19.32.568,t1_Paradigm,2021.1.4,60.022027957645406,
P,left,Distractor,0,63,63,63,2806.782466803372,2808.784747066584,left,1,4,0.9555480202652689,T14G09,2022-12-09_16h19.32.568,t1_Paradigm,2021.1.4,60.022027957645406,
